[{"start_time":1552313050073,"click_time":1552313052892,"finger_time":1552313050082,"fix_duration":1215.4370904983557,"trial":0,"RT":9,"MT":2810,"sideResp":1,"stimulus":[],"xmouse":[815,815,815,815,815,815,815,815,815,815,815,815,815,815,815,815,815,815,815,815,815,815,815,815,815,815,815,815,815,815,815,815,815,815,815,815,815,815,815,815,815,815,815,815,815,815,815,815,815,815,815,815,815,815,815,815,815,815,815,815,815,815,815,815,815,815,815,815,815,815,815,815,815,815,815,815,815,815,815,815,815,815,815,815,818,820,817,816,815,813,813,813,812,812,812,810,808,806,803,801,800,796,793,792,792,791,791,789,786,781,753,706,662,624,589,552,540,531,525,522,516,511,509,509,509,509,511,518,526,534,554,562,570,575,576,576,569,563,556,547,532,518],"ymouse":[522,522,522,522,522,522,522,522,522,522,522,522,522,522,522,522,522,522,522,522,522,522,522,522,522,522,522,522,522,522,522,522,522,522,522,522,522,522,522,522,522,522,522,522,522,522,522,522,522,522,522,522,522,522,522,522,522,522,522,522,522,522,522,522,522,522,522,522,522,522,522,522,522,522,522,522,522,522,522,522,522,522,522,523,522,512,510,510,510,510,510,510,510,510,510,510,510,511,511,511,511,511,511,511,511,511,511,506,496,484,445,407,376,351,330,303,293,284,277,271,263,256,254,254,254,254,251,246,238,230,187,170,152,136,122,110,85,71,57,42,18,5],"timestamp_mouse":[9,21,38,58,79,99,118,138,159,179,198,218,238,258,279,298,319,338,359,378,399,418,438,459,478,499,518,538,559,579,599,618,638,658,679,698,719,737,758,779,799,818,839,858,878,898,918,939,958,979,998,1019,1038,1059,1079,1098,1118,1138,1159,1179,1198,1218,1238,1259,1279,1298,1318,1339,1358,1378,1398,1418,1439,1459,1478,1498,1518,1539,1559,1579,1599,1619,1639,1659,1678,1698,1718,1739,1759,1779,1798,1818,1839,1858,1878,1898,1918,1939,1958,1978,1998,2020,2039,2058,2079,2097,2118,2138,2158,2178,2198,2219,2239,2258,2279,2298,2318,2339,2358,2378,2398,2418,2439,2458,2479,2499,2518,2539,2558,2579,2598,2620,2639,2658,2678,2698,2718,2738,2758,2778,2798,2818],"xSR":741.5,"ySR":469.95,"xT1":424.9,"yT1":0,"xT2":1058.1,"yT2":0,"toosoon":0,"cond_shown":"Incongruent","ratio_trial":200,"L_num":7,"L_den":15,"R_num":4,"R_den":6,"correct_side":2,"subjID":"oscar samuel martinez runza 3","gender":"0","age":"8 años","school":"4d","test":{"fix_dur":[250,1500],"timestim":1000,"targets_dim":[100,100],"targets_relative_coord":[0.3,0.7],"size_stim":[880,420],"start_dim":[100,100],"size_start":[300,300],"size_fix":60,"samplingrate":20,"img_types":["Congruent","Incongruent"],"ratios":[100,200,300],"rep_conds":19,"nTrials":120,"trials_to_rest":500,"Trials_order":[21,70,25,84,57,50,19,110,87,65,95,30,41,38,33,101,6,23,102,45,43,68,94,15,20,1,112,105,11,74,24,86,3,71,34,103,116,5,81,100,79,113,99,73,49,40,36,44,55,104,62,56,47,22,106,61,72,2,0,119,58,82,9,48,117,46,42,12,80,39,115,18,4,118,54,31,109,111,96,108,17,26,51,8,53,52,114,64,90,67,7,69,10,66,28,35,63,85,88,93,92,97,32,89,60,59,75,107,83,78,37,29,13,27,91,16,98,77,14,76],"cond_shown":["Incongruent","Congruent","Incongruent","Congruent","Incongruent","Congruent","Incongruent","Congruent","Incongruent","Incongruent","Incongruent","Congruent","Incongruent","Congruent","Incongruent","Incongruent","Congruent","Incongruent","Congruent","Incongruent","Incongruent","Congruent","Congruent","Incongruent","Congruent","Incongruent","Congruent","Incongruent","Incongruent","Congruent","Congruent","Congruent","Incongruent","Incongruent","Congruent","Incongruent","Congruent","Incongruent","Incongruent","Congruent","Incongruent","Incongruent","Incongruent","Incongruent","Incongruent","Congruent","Congruent","Congruent","Incongruent","Congruent","Congruent","Congruent","Incongruent","Congruent","Congruent","Incongruent","Congruent","Congruent","Congruent","Incongruent","Congruent","Congruent","Incongruent","Congruent","Incongruent","Congruent","Congruent","Congruent","Congruent","Incongruent","Incongruent","Congruent","Congruent","Congruent","Congruent","Incongruent","Incongruent","Incongruent","Congruent","Congruent","Incongruent","Congruent","Incongruent","Congruent","Incongruent","Congruent","Congruent","Congruent","Congruent","Incongruent","Incongruent","Incongruent","Congruent","Congruent","Congruent","Incongruent","Incongruent","Incongruent","Congruent","Incongruent","Congruent","Incongruent","Congruent","Incongruent","Congruent","Incongruent","Incongruent","Incongruent","Incongruent","Congruent","Incongruent","Incongruent","Incongruent","Incongruent","Incongruent","Congruent","Congruent","Incongruent","Congruent","Congruent"],"ratio_trial":[200,300,100,100,200,200,100,200,200,300,300,100,300,200,200,300,100,300,100,200,100,200,300,200,200,100,300,200,300,200,100,200,200,300,300,100,200,300,200,300,100,300,200,100,100,300,100,200,100,200,200,200,300,300,300,100,100,200,100,300,300,300,200,100,200,300,100,100,200,200,100,100,300,300,100,100,100,200,100,100,300,200,200,200,300,300,100,300,100,100,100,200,300,100,300,300,200,100,300,200,200,100,200,300,100,300,200,300,300,100,100,300,100,200,100,300,200,300,200,300],"left_num":[7,8,10,7,7,16,12,3,4,1,13,3,4,13,4,8,11,4,7,9,9,7,20,6,6,1,5,1,13,15,4,4,6,13,1,6,21,13,7,1,9,7,4,4,10,1,12,3,12,9,7,6,13,5,4,3,10,9,10,4,11,7,4,6,3,7,7,12,3,7,9,9,3,8,3,13,10,7,6,7,2,21,1,16,13,5,11,20,11,9,9,3,4,9,5,13,14,2,20,4,15,3,8,1,12,4,6,7,4,15,10,7,11,7,10,2,3,4,3,20],"right_num":[4,1,9,9,12,12,2,11,1,2,12,2,6,14,14,9,6,8,15,8,13,18,9,3,11,8,7,2,12,4,15,3,3,12,8,13,2,12,8,11,6,8,14,8,8,19,13,14,2,4,18,7,12,6,13,4,3,13,3,8,4,20,14,15,11,20,15,13,14,8,20,8,11,10,2,6,8,12,15,9,6,2,3,12,12,7,4,8,6,13,13,1,1,8,6,12,12,6,5,14,4,4,2,2,13,6,3,8,2,13,8,8,9,8,8,12,14,2,14,13],"left_den":[15,16,25,14,10,20,30,10,30,2,26,6,5,26,6,10,22,5,14,15,15,15,25,20,20,2,25,3,26,25,10,8,20,26,30,10,30,26,10,5,18,10,6,8,25,3,30,6,30,20,15,12,26,25,20,6,25,30,25,5,22,14,6,12,4,14,14,30,6,10,10,15,12,15,6,26,25,10,12,14,4,30,2,20,26,25,22,25,22,15,15,10,10,15,25,26,30,4,25,6,25,6,15,2,30,5,20,10,20,25,25,10,22,10,25,10,6,20,6,25],"right_den":[6,5,18,15,24,20,4,22,3,10,15,5,12,20,30,18,15,16,25,10,26,27,18,6,22,20,14,15,15,10,30,10,6,15,24,26,4,15,16,22,10,20,30,20,16,30,26,20,4,16,27,10,15,12,26,10,10,26,10,16,20,25,30,25,20,25,25,26,20,16,25,16,20,12,5,10,16,24,25,15,30,4,10,20,15,14,10,16,15,26,26,2,10,16,12,15,18,15,10,30,10,10,6,10,26,12,6,20,4,26,16,20,15,16,16,24,20,4,20,26],"correct_side":[2,1,2,2,1,1,2,2,2,1,2,1,1,2,1,1,1,1,2,2,1,2,1,2,2,1,2,1,2,1,2,1,2,2,2,1,1,2,1,2,2,1,1,1,2,2,2,2,2,1,2,2,2,2,2,1,1,2,1,1,1,2,1,2,1,2,2,2,2,1,1,1,2,2,1,2,2,1,2,2,1,1,1,1,2,2,1,1,1,1,1,2,1,1,2,2,2,1,1,1,1,1,1,1,2,1,2,1,2,1,2,1,2,1,2,2,2,2,2,1],"img_shown":["img2/200/Incongruent/R/I_Dist_200_LN_7_LD_15_RN_4_RD_6_1.png","img2/300/Congruent/L/C_Dist_300_LN_8_LD_16_RN_1_RD_5_0.png","img2/100/Incongruent/R/I_Dist_100_LN_10_LD_25_RN_9_RD_18_1.png","img2/100/Congruent/R/C_Dist_100_LN_7_LD_14_RN_9_RD_15_1.png","img2/200/Incongruent/L/I_Dist_200_LN_7_LD_10_RN_12_RD_24_0.png","img2/200/Congruent/L/C_Dist_200_LN_16_LD_20_RN_12_RD_20_0.png","img2/100/Incongruent/R/I_Dist_100_LN_12_LD_30_RN_2_RD_4_1.png","img2/200/Congruent/R/C_Dist_200_LN_3_LD_10_RN_11_RD_22_1.png","img2/200/Incongruent/R/I_Dist_200_LN_4_LD_30_RN_1_RD_3_1.png","img2/300/Incongruent/L/I_Dist_300_LN_1_LD_2_RN_2_RD_10_0.png","img2/300/Incongruent/R/I_Dist_300_LN_13_LD_26_RN_12_RD_15_1.png","img2/100/Congruent/L/C_Dist_100_LN_3_LD_6_RN_2_RD_5_0.png","img2/300/Incongruent/L/I_Dist_300_LN_4_LD_5_RN_6_RD_12_0.png","img2/200/Congruent/R/C_Dist_200_LN_13_LD_26_RN_14_RD_20_1.png","img2/200/Incongruent/L/I_Dist_200_LN_4_LD_6_RN_14_RD_30_0.png","img2/300/Incongruent/L/I_Dist_300_LN_8_LD_10_RN_9_RD_18_0.png","img2/100/Congruent/L/C_Dist_100_LN_11_LD_22_RN_6_RD_15_0.png","img2/300/Incongruent/L/I_Dist_300_LN_4_LD_5_RN_8_RD_16_0.png","img2/100/Congruent/R/C_Dist_100_LN_7_LD_14_RN_15_RD_25_1.png","img2/200/Incongruent/R/I_Dist_200_LN_9_LD_15_RN_8_RD_10_1.png","img2/100/Incongruent/L/I_Dist_100_LN_9_LD_15_RN_13_RD_26_0.png","img2/200/Congruent/R/C_Dist_200_LN_7_LD_15_RN_18_RD_27_1.png","img2/300/Congruent/L/C_Dist_300_LN_20_LD_25_RN_9_RD_18_0.png","img2/200/Incongruent/R/I_Dist_200_LN_6_LD_20_RN_3_RD_6_1.png","img2/200/Congruent/R/C_Dist_200_LN_6_LD_20_RN_11_RD_22_1.png","img2/100/Incongruent/L/I_Dist_100_LN_1_LD_2_RN_8_RD_20_0.png","img2/300/Congruent/R/C_Dist_300_LN_5_LD_25_RN_7_RD_14_1.png","img2/200/Incongruent/L/I_Dist_200_LN_1_LD_3_RN_2_RD_15_0.png","img2/300/Incongruent/R/I_Dist_300_LN_13_LD_26_RN_12_RD_15_1.png","img2/200/Congruent/L/C_Dist_200_LN_15_LD_25_RN_4_RD_10_0.png","img2/100/Congruent/R/C_Dist_100_LN_4_LD_10_RN_15_RD_30_1.png","img2/200/Congruent/L/C_Dist_200_LN_4_LD_8_RN_3_RD_10_0.png","img2/200/Incongruent/R/I_Dist_200_LN_6_LD_20_RN_3_RD_6_1.png","img2/300/Incongruent/R/I_Dist_300_LN_13_LD_26_RN_12_RD_15_1.png","img2/300/Congruent/R/C_Dist_300_LN_1_LD_30_RN_8_RD_24_1.png","img2/100/Incongruent/L/I_Dist_100_LN_6_LD_10_RN_13_RD_26_0.png","img2/200/Congruent/L/C_Dist_200_LN_21_LD_30_RN_2_RD_4_0.png","img2/300/Incongruent/R/I_Dist_300_LN_13_LD_26_RN_12_RD_15_1.png","img2/200/Incongruent/L/I_Dist_200_LN_7_LD_10_RN_8_RD_16_0.png","img2/300/Congruent/R/C_Dist_300_LN_1_LD_5_RN_11_RD_22_1.png","img2/100/Incongruent/R/I_Dist_100_LN_9_LD_18_RN_6_RD_10_1.png","img2/300/Incongruent/L/I_Dist_300_LN_7_LD_10_RN_8_RD_20_0.png","img2/200/Incongruent/L/I_Dist_200_LN_4_LD_6_RN_14_RD_30_0.png","img2/100/Incongruent/L/I_Dist_100_LN_4_LD_8_RN_8_RD_20_0.png","img2/100/Incongruent/R/I_Dist_100_LN_10_LD_25_RN_8_RD_16_1.png","img2/300/Congruent/R/C_Dist_300_LN_1_LD_3_RN_19_RD_30_1.png","img2/100/Congruent/R/C_Dist_100_LN_12_LD_30_RN_13_RD_26_1.png","img2/200/Congruent/R/C_Dist_200_LN_3_LD_6_RN_14_RD_20_1.png","img2/100/Incongruent/R/I_Dist_100_LN_12_LD_30_RN_2_RD_4_1.png","img2/200/Congruent/L/C_Dist_200_LN_9_LD_20_RN_4_RD_16_0.png","img2/200/Congruent/R/C_Dist_200_LN_7_LD_15_RN_18_RD_27_1.png","img2/200/Congruent/R/C_Dist_200_LN_6_LD_12_RN_7_RD_10_1.png","img2/300/Incongruent/R/I_Dist_300_LN_13_LD_26_RN_12_RD_15_1.png","img2/300/Congruent/R/C_Dist_300_LN_5_LD_25_RN_6_RD_12_1.png","img2/300/Congruent/R/C_Dist_300_LN_4_LD_20_RN_13_RD_26_1.png","img2/100/Incongruent/L/I_Dist_100_LN_3_LD_6_RN_4_RD_10_0.png","img2/100/Congruent/L/C_Dist_100_LN_10_LD_25_RN_3_RD_10_0.png","img2/200/Congruent/R/C_Dist_200_LN_9_LD_30_RN_13_RD_26_1.png","img2/100/Congruent/L/C_Dist_100_LN_10_LD_25_RN_3_RD_10_0.png","img2/300/Incongruent/L/I_Dist_300_LN_4_LD_5_RN_8_RD_16_0.png","img2/300/Congruent/L/C_Dist_300_LN_11_LD_22_RN_4_RD_20_0.png","img2/300/Congruent/R/C_Dist_300_LN_7_LD_14_RN_20_RD_25_1.png","img2/200/Incongruent/L/I_Dist_200_LN_4_LD_6_RN_14_RD_30_0.png","img2/100/Congruent/R/C_Dist_100_LN_6_LD_12_RN_15_RD_25_1.png","img2/200/Incongruent/L/I_Dist_200_LN_3_LD_4_RN_11_RD_20_0.png","img2/300/Congruent/R/C_Dist_300_LN_7_LD_14_RN_20_RD_25_1.png","img2/100/Congruent/R/C_Dist_100_LN_7_LD_14_RN_15_RD_25_1.png","img2/100/Congruent/R/C_Dist_100_LN_12_LD_30_RN_13_RD_26_1.png","img2/200/Congruent/R/C_Dist_200_LN_3_LD_6_RN_14_RD_20_1.png","img2/200/Incongruent/L/I_Dist_200_LN_7_LD_10_RN_8_RD_16_0.png","img2/100/Incongruent/L/I_Dist_100_LN_9_LD_10_RN_20_RD_25_0.png","img2/100/Congruent/L/C_Dist_100_LN_9_LD_15_RN_8_RD_16_0.png","img2/300/Congruent/R/C_Dist_300_LN_3_LD_12_RN_11_RD_20_1.png","img2/300/Congruent/R/C_Dist_300_LN_8_LD_15_RN_10_RD_12_1.png","img2/100/Congruent/L/C_Dist_100_LN_3_LD_6_RN_2_RD_5_0.png","img2/100/Incongruent/R/I_Dist_100_LN_13_LD_26_RN_6_RD_10_1.png","img2/100/Incongruent/R/I_Dist_100_LN_10_LD_25_RN_8_RD_16_1.png","img2/200/Incongruent/L/I_Dist_200_LN_7_LD_10_RN_12_RD_24_0.png","img2/100/Congruent/R/C_Dist_100_LN_6_LD_12_RN_15_RD_25_1.png","img2/100/Congruent/R/C_Dist_100_LN_7_LD_14_RN_9_RD_15_1.png","img2/300/Incongruent/L/I_Dist_300_LN_2_LD_4_RN_6_RD_30_0.png","img2/200/Congruent/L/C_Dist_200_LN_21_LD_30_RN_2_RD_4_0.png","img2/200/Incongruent/L/I_Dist_200_LN_1_LD_2_RN_3_RD_10_0.png","img2/200/Congruent/L/C_Dist_200_LN_16_LD_20_RN_12_RD_20_0.png","img2/300/Incongruent/R/I_Dist_300_LN_13_LD_26_RN_12_RD_15_1.png","img2/300/Congruent/R/C_Dist_300_LN_5_LD_25_RN_7_RD_14_1.png","img2/100/Congruent/L/C_Dist_100_LN_11_LD_22_RN_4_RD_10_0.png","img2/300/Congruent/L/C_Dist_300_LN_20_LD_25_RN_8_RD_16_0.png","img2/100/Congruent/L/C_Dist_100_LN_11_LD_22_RN_6_RD_15_0.png","img2/100/Incongruent/L/I_Dist_100_LN_9_LD_15_RN_13_RD_26_0.png","img2/100/Incongruent/L/I_Dist_100_LN_9_LD_15_RN_13_RD_26_0.png","img2/200/Incongruent/R/I_Dist_200_LN_3_LD_10_RN_1_RD_2_1.png","img2/300/Congruent/L/C_Dist_300_LN_4_LD_10_RN_1_RD_10_0.png","img2/100/Congruent/L/C_Dist_100_LN_9_LD_15_RN_8_RD_16_0.png","img2/300/Congruent/R/C_Dist_300_LN_5_LD_25_RN_6_RD_12_1.png","img2/300/Incongruent/R/I_Dist_300_LN_13_LD_26_RN_12_RD_15_1.png","img2/200/Incongruent/R/I_Dist_200_LN_14_LD_30_RN_12_RD_18_1.png","img2/100/Incongruent/L/I_Dist_100_LN_2_LD_4_RN_6_RD_15_0.png","img2/300/Congruent/L/C_Dist_300_LN_20_LD_25_RN_5_RD_10_0.png","img2/200/Incongruent/L/I_Dist_200_LN_4_LD_6_RN_14_RD_30_0.png","img2/200/Congruent/L/C_Dist_200_LN_15_LD_25_RN_4_RD_10_0.png","img2/100/Incongruent/L/I_Dist_100_LN_3_LD_6_RN_4_RD_10_0.png","img2/200/Congruent/L/C_Dist_200_LN_8_LD_15_RN_2_RD_6_0.png","img2/300/Incongruent/L/I_Dist_300_LN_1_LD_2_RN_2_RD_10_0.png","img2/100/Congruent/R/C_Dist_100_LN_12_LD_30_RN_13_RD_26_1.png","img2/300/Incongruent/L/I_Dist_300_LN_4_LD_5_RN_6_RD_12_0.png","img2/200/Incongruent/R/I_Dist_200_LN_6_LD_20_RN_3_RD_6_1.png","img2/300/Incongruent/L/I_Dist_300_LN_7_LD_10_RN_8_RD_20_0.png","img2/300/Incongruent/R/I_Dist_300_LN_4_LD_20_RN_2_RD_4_1.png","img2/100/Congruent/L/C_Dist_100_LN_15_LD_25_RN_13_RD_26_0.png","img2/100/Incongruent/R/I_Dist_100_LN_10_LD_25_RN_8_RD_16_1.png","img2/300/Incongruent/L/I_Dist_300_LN_7_LD_10_RN_8_RD_20_0.png","img2/100/Incongruent/R/I_Dist_100_LN_11_LD_22_RN_9_RD_15_1.png","img2/200/Incongruent/L/I_Dist_200_LN_7_LD_10_RN_8_RD_16_0.png","img2/100/Incongruent/R/I_Dist_100_LN_10_LD_25_RN_8_RD_16_1.png","img2/300/Congruent/R/C_Dist_300_LN_2_LD_10_RN_12_RD_24_1.png","img2/200/Congruent/R/C_Dist_200_LN_3_LD_6_RN_14_RD_20_1.png","img2/300/Incongruent/R/I_Dist_300_LN_4_LD_20_RN_2_RD_4_1.png","img2/200/Congruent/R/C_Dist_200_LN_3_LD_6_RN_14_RD_20_1.png","img2/300/Congruent/L/C_Dist_300_LN_20_LD_25_RN_13_RD_26_0.png"],"dist100_C":[["C_Dist_100_LN_10_LD_25_RN_3_RD_10_0.png","C_Dist_100_LN_11_LD_22_RN_4_RD_10_0.png","C_Dist_100_LN_11_LD_22_RN_6_RD_15_0.png","C_Dist_100_LN_15_LD_25_RN_13_RD_26_0.png","C_Dist_100_LN_3_LD_6_RN_2_RD_5_0.png","C_Dist_100_LN_6_LD_20_RN_5_RD_25_0.png","C_Dist_100_LN_8_LD_16_RN_2_RD_5_0.png","C_Dist_100_LN_9_LD_15_RN_8_RD_16_0.png"],["C_Dist_100_LN_1_LD_2_RN_18_RD_30_1.png","C_Dist_100_LN_1_LD_2_RN_3_RD_5_1.png","C_Dist_100_LN_12_LD_30_RN_13_RD_26_1.png","C_Dist_100_LN_2_LD_5_RN_11_RD_22_1.png","C_Dist_100_LN_2_LD_5_RN_6_RD_12_1.png","C_Dist_100_LN_3_LD_20_RN_4_RD_16_1.png","C_Dist_100_LN_4_LD_10_RN_15_RD_30_1.png","C_Dist_100_LN_4_LD_8_RN_6_RD_10_1.png","C_Dist_100_LN_6_LD_12_RN_15_RD_25_1.png","C_Dist_100_LN_7_LD_14_RN_15_RD_25_1.png","C_Dist_100_LN_7_LD_14_RN_9_RD_15_1.png"]],"dist100_I":[["I_Dist_100_LN_1_LD_2_RN_8_RD_20_0.png","I_Dist_100_LN_2_LD_4_RN_6_RD_15_0.png","I_Dist_100_LN_2_LD_4_RN_8_RD_20_0.png","I_Dist_100_LN_3_LD_5_RN_11_RD_22_0.png","I_Dist_100_LN_3_LD_5_RN_8_RD_16_0.png","I_Dist_100_LN_3_LD_6_RN_4_RD_10_0.png","I_Dist_100_LN_3_LD_9_RN_7_RD_30_0.png","I_Dist_100_LN_4_LD_8_RN_8_RD_20_0.png","I_Dist_100_LN_6_LD_10_RN_11_RD_22_0.png","I_Dist_100_LN_6_LD_10_RN_13_RD_26_0.png","I_Dist_100_LN_6_LD_10_RN_7_RD_14_0.png","I_Dist_100_LN_9_LD_10_RN_20_RD_25_0.png","I_Dist_100_LN_9_LD_15_RN_13_RD_26_0.png","I_Dist_100_LN_9_LD_15_RN_14_RD_28_0.png"],["I_Dist_100_LN_10_LD_25_RN_8_RD_16_1.png","I_Dist_100_LN_10_LD_25_RN_9_RD_18_1.png","I_Dist_100_LN_11_LD_22_RN_9_RD_15_1.png","I_Dist_100_LN_12_LD_24_RN_9_RD_15_1.png","I_Dist_100_LN_12_LD_30_RN_2_RD_4_1.png","I_Dist_100_LN_13_LD_26_RN_12_RD_20_1.png","I_Dist_100_LN_13_LD_26_RN_6_RD_10_1.png","I_Dist_100_LN_17_LD_30_RN_10_RD_15_1.png","I_Dist_100_LN_6_LD_12_RN_3_RD_5_1.png","I_Dist_100_LN_8_LD_16_RN_6_RD_10_1.png","I_Dist_100_LN_8_LD_20_RN_1_RD_2_1.png","I_Dist_100_LN_9_LD_18_RN_6_RD_10_1.png"]],"dist100_S":[["E_Dist_100_LN_2_LD_12_RN_2_RD_30_0.png","E_Dist_100_LN_6_LD_10_RN_6_RD_12_0.png"],["E_Dist_100_LN_6_LD_12_RN_6_RD_10_1.png"]],"dist200_C":[["C_Dist_200_LN_11_LD_22_RN_3_RD_10_0.png","C_Dist_200_LN_12_LD_15_RN_6_RD_10_0.png","C_Dist_200_LN_12_LD_20_RN_6_RD_15_0.png","C_Dist_200_LN_14_LD_28_RN_6_RD_20_0.png","C_Dist_200_LN_15_LD_25_RN_4_RD_10_0.png","C_Dist_200_LN_16_LD_20_RN_12_RD_20_0.png","C_Dist_200_LN_16_LD_30_RN_9_RD_27_0.png","C_Dist_200_LN_20_LD_25_RN_9_RD_15_0.png","C_Dist_200_LN_21_LD_30_RN_2_RD_4_0.png","C_Dist_200_LN_4_LD_10_RN_3_RD_15_0.png","C_Dist_200_LN_4_LD_8_RN_3_RD_10_0.png","C_Dist_200_LN_6_LD_15_RN_3_RD_15_0.png","C_Dist_200_LN_7_LD_21_RN_2_RD_15_0.png","C_Dist_200_LN_8_LD_15_RN_2_RD_6_0.png","C_Dist_200_LN_8_LD_15_RN_3_RD_9_0.png","C_Dist_200_LN_8_LD_15_RN_7_RD_21_0.png","C_Dist_200_LN_9_LD_20_RN_4_RD_16_0.png"],["C_Dist_200_LN_1_LD_2_RN_21_RD_30_1.png","C_Dist_200_LN_13_LD_26_RN_14_RD_20_1.png","C_Dist_200_LN_3_LD_10_RN_11_RD_22_1.png","C_Dist_200_LN_3_LD_10_RN_14_RD_28_1.png","C_Dist_200_LN_3_LD_10_RN_7_RD_14_1.png","C_Dist_200_LN_3_LD_12_RN_9_RD_20_1.png","C_Dist_200_LN_3_LD_6_RN_14_RD_20_1.png","C_Dist_200_LN_5_LD_10_RN_14_RD_20_1.png","C_Dist_200_LN_6_LD_12_RN_7_RD_10_1.png","C_Dist_200_LN_6_LD_20_RN_11_RD_22_1.png","C_Dist_200_LN_7_LD_15_RN_18_RD_27_1.png","C_Dist_200_LN_9_LD_30_RN_13_RD_26_1.png"]],"dist200_I":[["I_Dist_200_LN_1_LD_2_RN_3_RD_10_0.png","I_Dist_200_LN_1_LD_3_RN_2_RD_15_0.png","I_Dist_200_LN_3_LD_4_RN_11_RD_20_0.png","I_Dist_200_LN_4_LD_5_RN_6_RD_10_0.png","I_Dist_200_LN_4_LD_6_RN_14_RD_30_0.png","I_Dist_200_LN_7_LD_10_RN_12_RD_24_0.png","I_Dist_200_LN_7_LD_10_RN_14_RD_28_0.png","I_Dist_200_LN_7_LD_10_RN_8_RD_16_0.png"],["I_Dist_200_LN_11_LD_20_RN_3_RD_4_1.png","I_Dist_200_LN_14_LD_30_RN_12_RD_18_1.png","I_Dist_200_LN_14_LD_30_RN_6_RD_9_1.png","I_Dist_200_LN_3_LD_10_RN_1_RD_2_1.png","I_Dist_200_LN_4_LD_30_RN_1_RD_3_1.png","I_Dist_200_LN_6_LD_20_RN_3_RD_6_1.png","I_Dist_200_LN_7_LD_15_RN_4_RD_6_1.png","I_Dist_200_LN_7_LD_15_RN_6_RD_9_1.png","I_Dist_200_LN_9_LD_15_RN_8_RD_10_1.png"]],"dist200_S":[["E_Dist_200_LN_3_LD_6_RN_3_RD_10_0.png"],["E_Dist_200_LN_3_LD_10_RN_3_RD_6_1.png"]],"dist300_C":[["C_Dist_300_LN_11_LD_22_RN_1_RD_5_0.png","C_Dist_300_LN_11_LD_22_RN_2_RD_10_0.png","C_Dist_300_LN_11_LD_22_RN_4_RD_20_0.png","C_Dist_300_LN_12_LD_24_RN_2_RD_10_0.png","C_Dist_300_LN_18_LD_20_RN_9_RD_15_0.png","C_Dist_300_LN_20_LD_25_RN_13_RD_26_0.png","C_Dist_300_LN_20_LD_25_RN_14_RD_28_0.png","C_Dist_300_LN_20_LD_25_RN_5_RD_10_0.png","C_Dist_300_LN_20_LD_25_RN_8_RD_16_0.png","C_Dist_300_LN_20_LD_25_RN_9_RD_18_0.png","C_Dist_300_LN_24_LD_30_RN_2_RD_4_0.png","C_Dist_300_LN_24_LD_30_RN_8_RD_16_0.png","C_Dist_300_LN_3_LD_6_RN_2_RD_10_0.png","C_Dist_300_LN_4_LD_10_RN_1_RD_10_0.png","C_Dist_300_LN_4_LD_5_RN_2_RD_4_0.png","C_Dist_300_LN_8_LD_16_RN_1_RD_5_0.png","C_Dist_300_LN_9_LD_10_RN_3_RD_5_0.png"],["C_Dist_300_LN_1_LD_20_RN_7_RD_20_1.png","C_Dist_300_LN_1_LD_3_RN_19_RD_30_1.png","C_Dist_300_LN_1_LD_30_RN_8_RD_24_1.png","C_Dist_300_LN_1_LD_5_RN_11_RD_22_1.png","C_Dist_300_LN_1_LD_5_RN_3_RD_6_1.png","C_Dist_300_LN_1_LD_5_RN_6_RD_12_1.png","C_Dist_300_LN_2_LD_10_RN_12_RD_24_1.png","C_Dist_300_LN_2_LD_20_RN_10_RD_25_1.png","C_Dist_300_LN_3_LD_12_RN_11_RD_20_1.png","C_Dist_300_LN_3_LD_6_RN_4_RD_5_1.png","C_Dist_300_LN_4_LD_20_RN_13_RD_26_1.png","C_Dist_300_LN_5_LD_25_RN_6_RD_12_1.png","C_Dist_300_LN_5_LD_25_RN_7_RD_14_1.png","C_Dist_300_LN_7_LD_14_RN_20_RD_25_1.png","C_Dist_300_LN_8_LD_15_RN_10_RD_12_1.png"]],"dist300_I":[["I_Dist_300_LN_1_LD_2_RN_2_RD_10_0.png","I_Dist_300_LN_1_LD_2_RN_3_RD_15_0.png","I_Dist_300_LN_2_LD_4_RN_6_RD_30_0.png","I_Dist_300_LN_3_LD_6_RN_4_RD_20_0.png","I_Dist_300_LN_4_LD_5_RN_6_RD_12_0.png","I_Dist_300_LN_4_LD_5_RN_8_RD_16_0.png","I_Dist_300_LN_7_LD_10_RN_8_RD_20_0.png","I_Dist_300_LN_8_LD_10_RN_14_RD_28_0.png","I_Dist_300_LN_8_LD_10_RN_9_RD_18_0.png"],["I_Dist_300_LN_13_LD_26_RN_12_RD_15_1.png","I_Dist_300_LN_4_LD_20_RN_2_RD_4_1.png"]],"dist300_S":[["E_Dist_300_LN_9_LD_12_RN_9_RD_20_0.png"],["E_Dist_300_LN_18_LD_30_RN_18_RD_20_1.png","E_Dist_300_LN_3_LD_10_RN_3_RD_5_1.png","E_Dist_300_LN_9_LD_20_RN_9_RD_12_1.png"]],"dist500_C":[["C_Dist_500_LN_10_LD_13_RN_7_RD_26_0.png","C_Dist_500_LN_10_LD_15_RN_4_RD_24_0.png","C_Dist_500_LN_12_LD_16_RN_3_RD_12_0.png","C_Dist_500_LN_12_LD_18_RN_4_RD_24_0.png","C_Dist_500_LN_15_LD_18_RN_5_RD_15_0.png","C_Dist_500_LN_15_LD_20_RN_1_RD_4_0.png","C_Dist_500_LN_18_LD_27_RN_1_RD_6_0.png","C_Dist_500_LN_20_LD_24_RN_1_RD_3_0.png","C_Dist_500_LN_20_LD_24_RN_3_RD_9_0.png","C_Dist_500_LN_20_LD_24_RN_7_RD_21_0.png","C_Dist_500_LN_20_LD_28_RN_3_RD_14_0.png","C_Dist_500_LN_21_LD_28_RN_6_RD_24_0.png","C_Dist_500_LN_22_LD_28_RN_2_RD_7_0.png","C_Dist_500_LN_25_LD_30_RN_9_RD_27_0.png","C_Dist_500_LN_4_LD_6_RN_1_RD_6_0.png","C_Dist_500_LN_5_LD_6_RN_2_RD_6_0.png","C_Dist_500_LN_6_LD_9_RN_1_RD_6_0.png","C_Dist_500_LN_7_LD_10_RN_1_RD_5_0.png","C_Dist_500_LN_8_LD_12_RN_1_RD_6_0.png","C_Dist_500_LN_8_LD_12_RN_4_RD_24_0.png"],["C_Dist_500_LN_1_LD_4_RN_12_RD_16_1.png","C_Dist_500_LN_1_LD_4_RN_9_RD_12_1.png","C_Dist_500_LN_1_LD_9_RN_11_RD_18_1.png","C_Dist_500_LN_10_LD_24_RN_22_RD_24_1.png","C_Dist_500_LN_2_LD_12_RN_10_RD_15_1.png","C_Dist_500_LN_2_LD_12_RN_12_RD_18_1.png","C_Dist_500_LN_2_LD_12_RN_4_RD_6_1.png","C_Dist_500_LN_2_LD_24_RN_7_RD_12_1.png","C_Dist_500_LN_2_LD_5_RN_18_RD_20_1.png","C_Dist_500_LN_2_LD_5_RN_9_RD_10_1.png","C_Dist_500_LN_2_LD_8_RN_12_RD_16_1.png","C_Dist_500_LN_2_LD_8_RN_21_RD_28_1.png","C_Dist_500_LN_3_LD_10_RN_4_RD_5_1.png","C_Dist_500_LN_3_LD_12_RN_15_RD_20_1.png","C_Dist_500_LN_3_LD_30_RN_6_RD_10_1.png","C_Dist_500_LN_3_LD_8_RN_14_RD_16_1.png","C_Dist_500_LN_4_LD_16_RN_15_RD_20_1.png","C_Dist_500_LN_4_LD_24_RN_12_RD_18_1.png","C_Dist_500_LN_5_LD_14_RN_6_RD_7_1.png","C_Dist_500_LN_7_LD_21_RN_20_RD_24_1.png","C_Dist_500_LN_7_LD_28_RN_12_RD_16_1.png","C_Dist_500_LN_7_LD_28_RN_9_RD_12_1.png","C_Dist_500_LN_9_LD_27_RN_20_RD_24_1.png"]],"dist500_I":[["I_Dist_500_LN_2_LD_3_RN_4_RD_24_0.png","I_Dist_500_LN_5_LD_6_RN_6_RD_18_0.png","I_Dist_500_LN_7_LD_8_RN_9_RD_24_0.png"],["I_Dist_500_LN_7_LD_21_RN_5_RD_6_1.png"]],"dist500_S":[["E_Dist_500_LN_6_LD_8_RN_6_RD_24_0.png"],["E_Dist_500_LN_2_LD_12_RN_2_RD_3_1.png","E_Dist_500_LN_6_LD_24_RN_6_RD_8_1.png"]]}},{"start_time":1552313055198,"click_time":1552313059532,"finger_time":1552313058691,"fix_duration":404.4639443094475,"trial":1,"RT":3493,"MT":841,"sideResp":2,"stimulus":[],"xmouse":[806,806,806,806,806,806,806,806,806,806,806,806,806,806,806,806,806,806,806,806,806,806,806,806,806,806,806,806,806,806,806,806,806,806,806,806,806,806,806,806,806,806,806,806,806,806,806,806,806,806,806,806,806,806,806,806,806,806,806,806,806,806,806,806,806,806,806,806,806,806,806,806,806,806,806,806,806,806,806,806,806,806,806,806,806,806,806,806,806,806,806,806,806,806,806,806,806,806,806,806,806,806,806,806,806,806,806,806,806,806,806,806,806,806,806,806,806,806,806,806,806,806,806,806,806,806,806,806,806,806,806,806,806,806,806,806,806,806,806,806,806,806,806,806,806,806,806,807,807,809,810,811,811,811,811,811,811,811,811,811,811,811,811,811,814,814,815,816,817,822,824,829,833,836,844,850,852,858,861,867,868,871,874,876,883,888,895,902,909,919,924,925,933,938,954,967,982,996,1009,1024,1027,1028,1035,1041,1068,1086,1100,1108,1117,1130,1136,1143,1146,1148,1149,1151,1151],"ymouse":[604,604,604,604,604,604,604,604,604,604,604,604,604,604,604,604,604,604,604,604,604,604,604,604,604,604,604,604,604,604,604,604,604,604,604,604,604,604,604,604,604,604,604,604,604,604,604,604,604,604,604,604,604,604,604,604,604,604,604,604,604,604,604,604,604,604,604,604,604,604,604,604,604,604,604,604,604,604,604,604,604,604,604,604,604,604,604,604,604,604,604,604,604,604,604,604,604,604,604,604,604,604,604,604,604,604,604,604,604,604,604,604,604,604,604,604,604,604,604,604,604,604,604,604,604,604,604,604,604,604,604,604,604,604,604,604,604,604,604,604,604,604,604,604,604,604,604,604,603,600,599,598,598,598,598,598,598,598,598,598,598,598,598,598,598,598,598,597,597,597,597,595,594,592,589,586,584,581,580,576,575,573,571,569,564,556,546,532,519,502,494,491,482,475,460,451,440,430,420,404,392,388,370,356,318,294,271,252,231,194,178,158,147,137,127,107,97],"timestamp_mouse":[14,44,53,74,93,113,133,154,174,194,213,233,254,273,294,314,333,354,374,393,414,433,454,474,494,514,534,554,573,593,614,634,653,674,694,714,733,753,773,794,814,834,854,874,894,914,934,953,974,994,1013,1034,1054,1074,1093,1113,1133,1153,1173,1193,1213,1234,1253,1274,1293,1314,1333,1354,1373,1393,1413,1434,1453,1474,1493,1513,1533,1553,1574,1593,1614,1633,1654,1673,1693,1713,1733,1753,1774,1794,1814,1833,1854,1874,1893,1915,1934,1954,1974,1993,2014,2033,2054,2074,2094,2114,2134,2153,2173,2193,2213,2233,2253,2274,2293,2314,2334,2353,2373,2393,2413,2433,2454,2473,2494,2514,2534,2553,2574,2593,2614,2633,2653,2673,2694,2713,2733,2753,2774,2795,2814,2833,2854,2873,2894,2914,2933,2953,2973,2993,3013,3033,3055,3074,3094,3113,3133,3153,3174,3193,3214,3233,3254,3273,3293,3314,3334,3353,3374,3393,3414,3433,3454,3474,3493,3513,3533,3553,3573,3593,3613,3634,3655,3673,3692,3713,3733,3754,3773,3793,3813,3833,3854,3874,3893,3914,3933,3953,3973,3993,4013,4034,4054,4073,4093,4113,4133,4154,4174,4192,4214,4234,4253,4273,4293,4313,4333],"xSR":741.5,"ySR":573.95,"xT1":424.9,"yT1":0,"xT2":1058.1,"yT2":0,"toosoon":0,"cond_shown":"Congruent","ratio_trial":300,"L_num":8,"L_den":16,"R_num":1,"R_den":5,"correct_side":1,"subjID":"oscar samuel martinez runza 3","gender":"0","school":"4d","age":"8 años"},{"start_time":1552313065128,"click_time":1552313070211,"finger_time":1552313067311,"fix_duration":1314.966223485009,"trial":2,"RT":2183,"MT":2900,"sideResp":2,"stimulus":[],"xmouse":[775,775,775,775,775,775,775,775,775,775,775,775,775,775,775,775,775,775,775,775,775,775,775,775,775,775,775,775,775,775,775,775,775,775,775,775,775,775,775,775,775,775,775,775,775,775,775,775,775,775,775,775,775,775,775,775,775,775,775,775,775,775,775,775,775,775,775,775,775,775,775,775,775,775,775,775,775,775,775,775,775,775,775,775,775,775,775,775,775,775,775,775,775,775,775,775,775,775,775,775,775,775,775,775,775,775,775,775,775,768,759,747,725,712,689,681,674,668,663,654,650,647,643,641,635,630,622,603,603,582,571,559,554,542,538,538,538,538,538,538,538,538,538,538,538,538,538,538,538,538,538,538,538,538,538,538,538,538,538,538,538,538,537,537,537,537,537,537,537,537,537,537,537,537,537,537,537,537,537,538,538,539,539,539,539,539,539,539,539,539,539,539,539,539,539,539,539,541,543,562,570,573,574,574,574,574,574,574,574,574,574,574,574,574,574,574,574,573,573,573,573,573,573,573,581,595,614,635,661,722,758,840,903,958,1057,1092,1117,1139,1160,1195,1208,1228,1238,1244,1249,1249,1248,1245,1242,1232,1215,1200,1185,1173,1155],"ymouse":[595,595,595,595,595,595,595,595,595,595,595,595,595,595,595,595,595,595,595,595,595,595,595,595,595,595,595,595,595,595,595,595,595,595,595,595,595,595,595,595,595,595,595,595,595,595,595,595,595,595,595,595,595,595,595,595,595,595,595,595,595,595,595,595,595,595,595,595,595,595,595,595,595,595,595,595,595,595,595,595,595,595,595,595,595,595,595,595,595,595,595,595,595,595,595,595,595,595,595,595,595,595,595,595,595,595,595,591,585,555,535,513,474,452,407,388,371,358,346,328,321,315,309,305,294,286,272,238,238,198,178,152,145,126,120,120,120,120,120,120,120,120,120,120,120,120,120,120,120,120,120,120,120,120,120,120,120,120,120,120,120,120,119,119,119,119,119,119,121,122,125,126,127,128,129,129,130,131,131,134,135,137,137,137,137,137,137,137,137,137,137,137,137,137,137,137,140,141,145,154,160,162,162,162,162,162,162,162,162,162,162,162,162,162,162,162,162,163,163,163,163,163,163,163,164,166,169,172,178,186,191,201,209,218,235,239,239,233,222,197,185,163,148,135,108,95,85,77,71,68,67,67,69,71,73],"timestamp_mouse":[13,36,43,63,83,104,124,143,163,183,204,224,244,263,283,303,324,344,363,384,404,424,444,464,483,504,524,544,564,584,604,623,644,663,684,704,725,744,763,783,803,823,843,865,883,903,923,943,963,984,1002,1023,1044,1063,1084,1104,1123,1144,1163,1183,1204,1224,1244,1264,1284,1304,1324,1344,1364,1383,1404,1423,1444,1463,1484,1504,1524,1544,1563,1584,1603,1623,1644,1664,1683,1704,1723,1743,1763,1784,1805,1823,1843,1863,1883,1903,1923,1943,1963,1983,2004,2023,2044,2064,2083,2104,2123,2143,2164,2183,2203,2223,2244,2263,2284,2304,2323,2344,2364,2383,2405,2423,2443,2463,2483,2503,2524,2551,2564,2583,2603,2623,2643,2663,2683,2703,2723,2744,2763,2783,2803,2824,2843,2865,2883,2904,2924,2943,2964,2984,3004,3024,3044,3064,3083,3103,3124,3143,3164,3183,3203,3223,3243,3263,3283,3304,3323,3344,3363,3383,3403,3423,3443,3463,3484,3504,3523,3543,3563,3583,3603,3623,3644,3664,3684,3704,3724,3743,3764,3783,3804,3824,3844,3864,3884,3903,3923,3943,3964,3983,4003,4023,4044,4063,4084,4104,4124,4144,4164,4183,4204,4223,4244,4263,4284,4303,4324,4343,4364,4383,4404,4423,4444,4463,4483,4503,4524,4543,4563,4583,4603,4623,4644,4664,4683,4703,4724,4743,4764,4782,4804,4823,4843,4863,4883,4903,4923,4943,4963,4983,5003,5024,5044,5063,5082],"xSR":741.5,"ySR":573.95,"xT1":424.9,"yT1":0,"xT2":1058.1,"yT2":0,"toosoon":0,"cond_shown":"Incongruent","ratio_trial":100,"L_num":10,"L_den":25,"R_num":9,"R_den":18,"correct_side":2,"subjID":"oscar samuel martinez runza 3","gender":"0","school":"4d","age":"8 años"},{"start_time":1552313073094,"click_time":1552313076812,"finger_time":1552313076451,"fix_duration":1340.4036901213494,"trial":3,"RT":3357,"MT":361,"sideResp":2,"stimulus":[],"xmouse":[787,787,787,787,787,787,787,787,787,787,787,787,787,787,787,787,787,787,787,787,787,787,787,787,787,787,787,787,787,787,787,787,787,787,787,787,787,787,787,787,787,787,787,787,787,787,787,787,787,787,787,787,787,787,787,787,787,787,787,787,787,787,787,787,787,787,787,787,787,787,787,787,787,787,787,787,787,787,787,787,787,787,787,787,787,787,787,787,787,787,787,787,787,787,787,787,787,787,787,787,787,787,787,787,787,787,787,787,787,787,787,787,787,787,787,787,787,787,787,787,787,787,787,787,787,787,787,787,787,787,787,787,787,787,787,787,787,787,787,787,787,787,787,787,787,787,787,787,787,787,787,787,787,787,787,787,787,787,787,787,786,777,771,765,762,749,742,741,743,754,760,774,791,814,843,867,907,931,963,986,1010,1056,1075,1095,1110,1122],"ymouse":[617,617,617,617,617,617,617,617,617,617,617,617,617,617,617,617,617,617,617,617,617,617,617,617,617,617,617,617,617,617,617,617,617,617,617,617,617,617,617,617,617,617,617,617,617,617,617,617,617,617,617,617,617,617,617,617,617,617,617,617,617,617,617,617,617,617,617,617,617,617,617,617,617,617,617,617,617,617,617,617,617,617,617,617,617,617,617,617,617,617,617,617,617,617,617,617,617,617,617,617,617,617,617,617,617,617,617,617,617,617,617,617,617,617,617,617,617,617,617,617,617,617,617,617,617,617,617,617,617,617,617,617,617,617,617,617,617,617,617,617,617,617,617,617,617,617,617,617,617,617,617,617,617,617,617,617,617,617,617,617,618,619,619,617,614,590,576,566,556,542,532,519,509,499,488,477,451,431,391,360,324,245,208,174,134,91],"timestamp_mouse":[18,42,58,78,97,117,137,159,177,197,218,238,257,277,297,317,337,357,377,398,417,438,458,478,497,518,537,558,577,598,618,637,658,677,698,718,737,757,778,797,817,837,858,878,898,918,937,957,978,998,1017,1037,1058,1078,1097,1118,1137,1158,1177,1197,1218,1238,1258,1277,1298,1317,1337,1358,1377,1397,1417,1437,1458,1479,1497,1518,1538,1558,1577,1597,1618,1638,1657,1678,1698,1717,1737,1759,1778,1797,1817,1837,1857,1877,1898,1917,1938,1958,1978,1998,2018,2037,2057,2078,2097,2117,2138,2158,2177,2197,2217,2238,2258,2277,2298,2317,2337,2357,2377,2397,2418,2438,2458,2477,2498,2518,2537,2558,2577,2598,2617,2638,2658,2678,2697,2718,2738,2757,2777,2798,2817,2838,2857,2878,2898,2918,2938,2957,2978,2997,3017,3037,3058,3077,3098,3118,3138,3158,3177,3198,3217,3238,3257,3278,3297,3318,3337,3357,3377,3397,3417,3438,3457,3477,3497,3518,3537,3558,3577,3597,3617,3638,3657,3677,3697,3718],"xSR":741.5,"ySR":573.95,"xT1":424.9,"yT1":0,"xT2":1058.1,"yT2":0,"toosoon":0,"cond_shown":"Congruent","ratio_trial":100,"L_num":7,"L_den":14,"R_num":9,"R_den":15,"correct_side":2,"subjID":"oscar samuel martinez runza 3","gender":"0","school":"4d","age":"8 años"},{"start_time":1552313080318,"click_time":1552313084392,"finger_time":1552313082691,"fix_duration":1325.2476275776623,"trial":4,"RT":2373,"MT":1701,"sideResp":1,"stimulus":[],"xmouse":[770,770,770,770,770,770,770,770,770,770,770,770,770,770,770,770,770,770,770,770,770,770,770,770,770,770,770,770,770,770,770,770,770,770,770,770,770,770,770,770,770,770,770,770,770,770,770,770,770,770,770,770,770,770,770,770,770,770,770,770,770,770,770,770,770,770,770,770,770,770,770,770,770,770,770,770,770,770,770,770,770,770,770,770,770,770,770,770,770,770,770,770,770,770,770,770,770,770,770,770,770,770,770,770,770,770,772,774,774,774,774,775,777,778,781,790,820,838,858,882,926,948,968,988,1009,1043,1091,1115,1132,1146,1159,1181,1188,1195,1204,1209,1215,1215,1215,1214,1210,1200,1193,1183,1167,1159,1150,1150,1150,1150,1150,1150,1148,1147,1142,1135,1128,1125,1123,1121,1118,1111,1109,1107,1107,1104,1095,1089,1083,1075,1050,1035,1017,995,958,936,902,893,886,880,871,841,813,804,769,748,712,693,671,650,624,584,572,565,559,557,556,554,550,545,541,535,530,522],"ymouse":[636,636,636,636,636,636,636,636,636,636,636,636,636,636,636,636,636,636,636,636,636,636,636,636,636,636,636,636,636,636,636,636,636,636,636,636,636,636,636,636,636,636,636,636,636,636,636,636,636,636,636,636,636,636,636,636,636,636,636,636,636,636,636,636,636,636,636,636,636,636,636,636,636,636,636,636,636,636,636,636,636,636,636,636,636,636,636,636,636,636,636,636,636,636,636,636,636,636,636,636,636,636,636,636,636,636,636,636,636,636,636,636,636,636,636,637,632,623,614,605,593,585,574,560,543,515,479,457,437,415,391,349,334,320,299,287,268,261,255,251,245,231,222,207,185,170,151,148,148,148,148,148,147,147,146,145,144,144,144,143,143,144,145,146,146,147,147,147,147,147,146,145,145,145,140,133,118,113,109,105,100,87,74,69,54,47,46,48,55,59,63,68,68,68,68,68,68,68,68,68,66,64,62,58],"timestamp_mouse":[20,44,53,74,93,113,133,153,173,193,213,233,253,273,293,313,333,353,374,393,413,434,453,474,493,514,533,553,574,593,614,634,654,675,694,713,733,754,774,794,813,834,854,874,894,913,933,953,973,993,1013,1034,1053,1074,1094,1113,1134,1154,1174,1193,1213,1234,1254,1273,1293,1313,1333,1354,1374,1394,1414,1433,1453,1473,1494,1513,1534,1553,1573,1594,1613,1633,1654,1674,1694,1713,1734,1753,1774,1794,1814,1833,1853,1874,1894,1914,1933,1954,1973,1993,2014,2033,2053,2074,2094,2113,2133,2154,2173,2194,2214,2233,2253,2273,2293,2313,2334,2353,2373,2393,2414,2434,2454,2474,2493,2513,2533,2554,2574,2594,2613,2633,2653,2673,2693,2714,2734,2753,2773,2793,2813,2833,2854,2874,2894,2914,2933,2954,2973,2994,3013,3033,3055,3073,3093,3114,3133,3153,3174,3193,3214,3233,3254,3274,3293,3313,3333,3354,3373,3393,3415,3433,3454,3473,3493,3513,3533,3553,3573,3593,3613,3633,3652,3673,3693,3713,3733,3753,3774,3794,3814,3833,3853,3873,3893,3913,3933,3953,3973,3993,4013,4033,4053,4074],"xSR":741.5,"ySR":573.95,"xT1":424.9,"yT1":0,"xT2":1058.1,"yT2":0,"toosoon":0,"cond_shown":"Incongruent","ratio_trial":200,"L_num":7,"L_den":10,"R_num":12,"R_den":24,"correct_side":1,"subjID":"oscar samuel martinez runza 3","gender":"0","school":"4d","age":"8 años"},{"start_time":1552313086533,"click_time":1552313089871,"finger_time":1552313088791,"fix_duration":400.4509915034632,"trial":5,"RT":2258,"MT":1080,"sideResp":1,"stimulus":[],"xmouse":[805,805,805,805,805,805,805,805,805,805,805,805,805,805,805,805,805,805,805,805,805,805,805,805,805,805,805,805,805,805,805,805,805,805,805,805,805,805,805,805,805,805,805,805,805,805,805,805,805,805,805,805,805,805,805,805,805,805,805,805,805,805,805,805,805,805,805,805,805,805,805,805,805,805,805,805,805,805,805,805,805,805,805,805,805,805,805,805,805,805,805,805,805,805,805,805,805,805,805,805,805,805,805,805,805,805,805,805,805,805,806,806,801,793,788,780,780,780,780,780,780,780,780,780,780,778,770,766,747,720,636,616,595,570,543,484,460,441,427,413,389,378,375,375,375,375,375,375,375,378,378,378,378,378,378,381,386,391,398,402,402,402,404,408,416,424,450],"ymouse":[623,623,623,623,623,623,623,623,623,623,623,623,623,623,623,623,623,623,623,623,623,623,623,623,623,623,623,623,623,623,623,623,623,623,623,623,623,623,623,623,623,623,623,623,623,623,623,623,623,623,623,623,623,623,623,623,623,623,623,623,623,623,623,623,623,623,623,623,623,623,623,623,623,623,623,623,623,623,623,623,623,623,623,623,623,623,623,623,623,623,623,623,623,623,623,623,623,623,623,623,623,623,623,623,623,623,623,623,623,623,620,583,566,558,557,557,557,557,557,557,557,557,557,557,557,556,531,522,490,449,351,329,308,284,261,212,189,167,151,135,108,94,90,89,89,89,89,87,84,81,79,79,79,79,79,78,76,74,73,72,71,71,71,71,70,68,60],"timestamp_mouse":[19,39,59,78,99,118,139,159,179,198,218,239,259,279,299,318,339,359,378,399,418,439,459,478,499,519,538,558,578,598,618,639,658,679,698,719,739,758,779,799,819,838,859,878,899,919,938,959,979,999,1018,1038,1059,1079,1099,1118,1138,1158,1178,1199,1219,1239,1258,1279,1298,1319,1338,1358,1379,1399,1419,1438,1458,1478,1498,1519,1538,1559,1579,1598,1619,1639,1659,1679,1699,1718,1739,1759,1779,1798,1818,1839,1858,1878,1899,1925,1938,1959,1978,1999,2020,2039,2059,2078,2099,2119,2139,2159,2179,2199,2218,2239,2258,2278,2298,2319,2338,2359,2379,2400,2419,2439,2459,2478,2498,2519,2542,2558,2578,2599,2619,2639,2658,2679,2698,2718,2738,2759,2779,2798,2818,2838,2858,2878,2898,2919,2938,2958,2979,2998,3019,3039,3058,3079,3098,3119,3138,3158,3179,3199,3218,3238,3258,3278,3298,3318,3338],"xSR":741.5,"ySR":573.95,"xT1":424.9,"yT1":0,"xT2":1058.1,"yT2":0,"toosoon":0,"cond_shown":"Congruent","ratio_trial":200,"L_num":16,"L_den":20,"R_num":12,"R_den":20,"correct_side":1,"subjID":"oscar samuel martinez runza 3","gender":"0","school":"4d","age":"8 años"},{"start_time":1552313096027,"click_time":1552313099371,"finger_time":1552313097692,"fix_duration":1132.6791873936431,"trial":6,"RT":1665,"MT":1679,"sideResp":2,"stimulus":[],"xmouse":[781,781,781,781,781,781,781,781,781,781,781,781,781,781,781,781,781,781,781,781,781,781,781,781,781,781,781,781,781,781,781,781,781,781,781,781,781,781,781,781,781,781,781,781,781,781,781,781,781,781,781,781,781,781,781,781,781,781,781,781,781,781,781,781,781,781,781,781,781,781,781,781,781,781,781,781,781,781,781,783,788,800,812,815,817,823,830,840,841,842,842,842,842,842,842,842,842,842,842,842,842,842,842,842,842,842,841,841,841,841,841,841,841,841,841,841,842,843,843,843,843,843,843,843,843,843,843,843,843,843,844,846,850,853,854,854,854,859,863,871,882,894,932,966,987,994,1005,1006,1009,1014,1022,1030,1033,1035,1035,1035,1035,1035,1035,1035,1037,1039,1040,1043,1045,1048,1054,1062],"ymouse":[633,633,633,633,633,633,633,633,633,633,633,633,633,633,633,633,633,633,633,633,633,633,633,633,633,633,633,633,633,633,633,633,633,633,633,633,633,633,633,633,633,633,633,633,633,633,633,633,633,633,633,633,633,633,633,633,633,633,633,633,633,633,633,633,633,633,633,633,633,633,633,633,633,633,633,633,633,633,633,633,628,610,577,549,527,505,486,465,461,460,459,459,459,459,459,459,459,459,459,459,459,459,459,459,459,459,460,460,460,460,460,460,460,460,461,461,461,461,461,461,461,461,461,461,461,461,461,461,461,461,461,461,458,448,442,436,430,416,404,388,364,335,232,128,55,23,0,0,0,0,0,0,0,0,0,0,0,0,0,2,6,10,12,16,19,21,25,30],"timestamp_mouse":[15,26,44,65,85,104,124,145,164,185,204,224,244,264,284,305,325,345,365,385,404,425,444,464,485,504,525,546,565,585,605,625,644,665,685,704,724,745,765,784,805,825,845,864,885,904,924,945,965,985,1004,1025,1044,1064,1085,1105,1124,1145,1164,1185,1204,1225,1245,1265,1285,1305,1324,1345,1365,1384,1404,1425,1445,1465,1485,1504,1525,1545,1564,1585,1604,1624,1644,1665,1684,1705,1724,1745,1764,1784,1804,1824,1844,1864,1885,1905,1925,1944,1966,1984,2004,2025,2045,2064,2085,2105,2124,2145,2164,2185,2205,2225,2245,2265,2284,2305,2325,2345,2364,2385,2405,2424,2445,2465,2485,2505,2524,2545,2564,2585,2604,2625,2645,2664,2684,2704,2724,2744,2764,2784,2804,2825,2844,2865,2884,2905,2924,2945,2964,2985,3005,3025,3044,3065,3085,3104,3123,3146,3165,3184,3204,3225,3245,3264,3284,3304,3324,3344],"xSR":741.5,"ySR":573.95,"xT1":424.9,"yT1":0,"xT2":1058.1,"yT2":0,"toosoon":0,"cond_shown":"Incongruent","ratio_trial":100,"L_num":12,"L_den":30,"R_num":2,"R_den":4,"correct_side":2,"subjID":"oscar samuel martinez runza 3","gender":"0","school":"4d","age":"8 años"},{"start_time":1552313102793,"click_time":1552313108892,"finger_time":1552313105412,"fix_duration":1280.3606446656304,"trial":7,"RT":2619,"MT":3480,"sideResp":2,"stimulus":[],"xmouse":[794,794,794,794,794,794,794,794,794,794,794,794,794,794,794,794,794,794,794,794,794,794,794,794,794,794,794,794,794,794,794,794,794,794,794,794,794,794,794,794,794,794,794,794,794,794,794,794,794,794,794,794,794,794,794,794,794,794,794,794,794,794,794,794,794,794,794,794,794,794,794,794,794,794,794,794,794,794,794,794,794,794,794,794,794,794,794,794,794,794,794,794,794,794,794,794,794,794,794,794,794,794,794,794,794,794,794,794,794,794,794,794,794,794,794,796,796,796,796,796,796,796,796,796,796,796,796,796,796,796,795,794,794,794,794,794,794,794,794,794,794,794,794,794,794,794,794,794,794,794,794,794,794,794,794,794,794,794,794,794,794,794,794,794,793,793,792,792,791,791,790,790,790,790,790,790,790,790,790,790,790,790,790,790,790,790,790,790,790,790,790,790,790,790,790,790,790,790,790,790,790,790,790,790,790,790,790,790,790,790,790,790,790,790,790,790,790,790,790,790,790,790,790,790,790,790,790,790,790,789,785,782,776,773,770,767,766,764,757,755,732,719,705,694,672,665,661,659,658,657,655,653,652,649,644,638,630,618,605,590,581,580,580,580,580,585,591,604,621,656,702,720,737,748,767,776,782,789,796,803,812,817,824,834,864,884,905,934,942,968,998,1009,1015,1018,1020,1023,1024,1026,1029,1031,1035,1038,1045,1054,1062],"ymouse":[620,620,620,620,620,620,620,620,620,620,620,620,620,620,620,620,620,620,620,620,620,620,620,620,620,620,620,620,620,620,620,620,620,620,620,620,620,620,620,620,620,620,620,620,620,620,620,620,620,620,620,620,620,620,620,620,620,620,620,620,620,620,620,620,620,620,620,620,620,620,620,620,620,620,620,620,620,620,620,620,620,620,620,620,620,620,620,620,620,620,620,620,620,620,620,620,620,620,620,620,620,620,620,620,620,620,620,620,620,620,620,620,620,620,620,608,594,584,579,575,575,575,575,575,575,575,575,575,574,574,573,573,573,573,573,573,573,573,573,573,573,573,573,573,573,573,573,573,573,573,573,573,573,573,573,573,573,573,573,573,573,573,573,573,573,575,577,580,582,585,586,586,588,588,588,589,589,589,589,589,589,589,589,589,589,589,589,589,589,589,589,589,589,589,589,589,589,589,589,589,589,589,589,589,589,589,589,589,589,589,589,589,589,589,589,589,589,589,589,589,589,589,589,589,589,589,589,589,589,589,581,575,568,563,559,555,554,550,542,538,513,501,490,482,464,458,454,451,450,447,441,436,429,422,405,391,375,356,337,319,304,301,299,296,294,288,282,271,257,231,195,180,165,147,119,108,101,97,94,92,91,90,89,87,84,84,84,84,84,82,77,74,72,71,70,69,68,67,67,66,66,66,66,66,66],"timestamp_mouse":[18,38,58,79,99,119,139,158,179,200,218,239,259,278,299,319,339,358,379,399,418,439,458,478,499,518,539,558,578,598,619,639,659,678,698,718,738,758,779,798,818,839,859,878,898,918,939,958,979,998,1018,1038,1059,1079,1098,1119,1139,1158,1179,1199,1219,1238,1259,1279,1298,1318,1339,1359,1378,1398,1419,1439,1459,1478,1499,1519,1538,1558,1579,1599,1618,1638,1659,1678,1699,1719,1739,1759,1778,1799,1819,1839,1858,1879,1899,1919,1939,1958,1978,1998,2019,2038,2059,2079,2098,2119,2139,2158,2179,2199,2219,2239,2259,2278,2298,2318,2339,2358,2378,2399,2419,2438,2459,2479,2498,2519,2538,2558,2578,2598,2619,2638,2658,2678,2698,2719,2738,2759,2778,2799,2818,2838,2859,2878,2899,2919,2939,2959,2978,2999,3019,3038,3058,3078,3099,3118,3139,3158,3178,3198,3219,3239,3258,3278,3298,3318,3338,3359,3378,3398,3419,3438,3459,3478,3498,3518,3539,3558,3578,3598,3618,3639,3658,3680,3698,3720,3738,3759,3779,3798,3820,3839,3859,3879,3900,3919,3938,3958,3980,3999,4020,4038,4060,4079,4099,4120,4138,4159,4179,4199,4219,4238,4258,4279,4298,4320,4339,4358,4378,4399,4420,4440,4459,4479,4498,4518,4540,4559,4579,4598,4618,4638,4658,4678,4699,4720,4739,4759,4778,4798,4819,4839,4859,4879,4899,4919,4939,4958,4979,4998,5019,5040,5060,5079,5099,5118,5139,5159,5179,5199,5220,5239,5259,5278,5299,5318,5339,5358,5379,5398,5418,5438,5459,5479,5500,5518,5538,5558,5578,5599,5620,5639,5658,5678,5699,5718,5739,5758,5778,5799,5819,5838,5858,5878,5898,5918,5938,5958,5979,5998,6019,6038,6058,6079,6099],"xSR":741.5,"ySR":573.95,"xT1":424.9,"yT1":0,"xT2":1058.1,"yT2":0,"toosoon":0,"cond_shown":"Congruent","ratio_trial":200,"L_num":3,"L_den":10,"R_num":11,"R_den":22,"correct_side":2,"subjID":"oscar samuel martinez runza 3","gender":"0","school":"4d","age":"8 años"},{"start_time":1552313111003,"click_time":1552313113513,"finger_time":1552313112551,"fix_duration":250,"trial":8,"RT":1548,"MT":962,"sideResp":2,"stimulus":[],"xmouse":[821,821,821,821,821,821,821,821,821,821,821,821,821,821,821,821,821,821,821,821,821,821,821,821,821,821,821,821,821,821,821,821,821,821,821,821,821,821,821,821,821,821,821,821,821,821,821,821,821,821,821,821,821,821,821,821,821,821,821,821,821,821,821,821,821,821,821,821,821,821,821,821,821,821,821,820,820,829,849,866,888,892,896,903,921,1011,1111,1172,1226,1261,1286,1314,1327,1341,1353,1369,1378,1378,1378,1378,1378,1378,1377,1374,1365,1343,1336,1331,1325,1319,1306,1296,1288,1281,1273,1255,1246,1242,1237,1233,1215,1202,1187,1173,1159,1130],"ymouse":[634,634,634,634,634,634,634,634,634,634,634,634,634,634,634,634,634,634,634,634,634,634,634,634,634,634,634,634,634,634,634,634,634,634,634,634,634,634,634,634,634,634,634,634,634,634,634,634,634,634,634,634,634,634,634,634,634,634,634,634,634,634,634,634,634,634,634,634,634,634,634,634,634,634,634,633,597,544,503,483,468,464,462,455,432,322,229,182,143,115,92,49,27,3,0,0,0,0,0,0,0,0,0,3,9,25,28,31,34,38,44,50,54,58,61,67,68,68,68,68,68,68,66,64,62,60],"timestamp_mouse":[10,42,48,69,88,109,128,148,169,188,208,229,249,268,289,309,328,349,369,388,409,429,449,469,489,508,528,550,569,589,608,628,648,668,689,709,728,749,768,788,809,828,850,870,888,909,928,950,970,989,1010,1028,1049,1070,1090,1108,1129,1148,1169,1188,1208,1229,1249,1269,1288,1309,1329,1350,1370,1389,1409,1428,1449,1468,1489,1508,1530,1548,1568,1588,1609,1628,1648,1668,1689,1708,1728,1749,1770,1789,1808,1828,1849,1869,1888,1908,1928,1949,1969,1989,2008,2029,2050,2068,2089,2108,2128,2148,2168,2188,2209,2228,2249,2268,2289,2309,2328,2348,2368,2389,2409,2428,2449,2469,2489,2510],"xSR":741.5,"ySR":573.95,"xT1":424.9,"yT1":0,"xT2":1058.1,"yT2":0,"toosoon":0,"cond_shown":"Incongruent","ratio_trial":200,"L_num":4,"L_den":30,"R_num":1,"R_den":3,"correct_side":2,"subjID":"oscar samuel martinez runza 3","gender":"0","school":"4d","age":"8 años"},{"start_time":1552313120509,"click_time":1552313122971,"finger_time":1552313122132,"fix_duration":1037.7501075323426,"trial":9,"RT":1623,"MT":839,"sideResp":1,"stimulus":[],"xmouse":[792,792,792,792,792,792,792,792,792,792,792,792,792,792,792,792,792,792,792,792,792,792,792,792,792,792,792,792,792,792,792,792,792,792,792,792,792,792,792,792,792,792,792,792,792,792,792,792,792,792,792,792,792,792,792,792,792,792,792,792,792,792,792,792,792,792,792,792,792,792,792,792,792,792,792,792,792,792,792,786,778,762,753,735,705,666,537,481,442,413,382,324,292,264,244,224,212,207,208,211,213,216,217,219,221,238,246,287,303,318,331,355,368,385,400,410,416,425,428,432,437,448,453,458],"ymouse":[622,622,622,622,622,622,622,622,622,622,622,622,622,622,622,622,622,622,622,622,622,622,622,622,622,622,622,622,622,622,622,622,622,622,622,622,622,622,622,622,622,622,622,622,622,622,622,622,622,622,622,622,622,622,622,622,622,622,622,622,622,622,622,622,622,622,622,622,622,622,622,622,622,622,622,622,622,622,621,600,579,551,533,504,467,426,315,268,228,187,138,40,0,0,0,0,0,0,0,0,0,0,0,0,0,0,0,0,0,0,0,0,0,0,0,0,0,0,0,0,0,0,0,2],"timestamp_mouse":[12,38,42,64,84,103,123,142,163,184,203,223,243,262,284,302,323,342,362,383,404,423,442,462,483,503,522,542,562,582,602,623,644,664,683,703,723,742,762,783,803,823,844,863,883,903,922,943,964,983,1003,1023,1042,1063,1084,1103,1124,1142,1163,1184,1202,1223,1243,1263,1284,1302,1323,1343,1364,1382,1403,1423,1444,1463,1482,1503,1523,1543,1562,1583,1602,1622,1642,1663,1683,1702,1723,1743,1763,1782,1802,1823,1843,1863,1884,1902,1922,1943,1963,1984,2003,2023,2042,2062,2084,2103,2123,2143,2162,2182,2202,2222,2243,2262,2282,2303,2323,2343,2363,2384,2403,2424,2442,2462],"xSR":741.5,"ySR":573.95,"xT1":424.9,"yT1":0,"xT2":1058.1,"yT2":0,"toosoon":0,"cond_shown":"Incongruent","ratio_trial":300,"L_num":1,"L_den":2,"R_num":2,"R_den":10,"correct_side":1,"subjID":"oscar samuel martinez runza 3","gender":"0","school":"4d","age":"8 años"},{"start_time":1552313126558,"click_time":1552313128353,"finger_time":1552313127832,"fix_duration":1464.5234203904204,"trial":10,"RT":1274,"MT":521,"sideResp":2,"stimulus":[],"xmouse":[816,816,816,816,816,816,816,816,816,816,816,816,816,816,816,816,816,816,816,816,816,816,816,816,816,816,816,816,816,816,816,816,816,816,816,816,816,816,816,816,816,816,816,816,816,816,816,816,816,816,816,816,816,816,816,816,816,816,815,810,808,819,822,822,816,813,812,812,817,844,860,878,891,902,921,946,962,972,977,982,984,985,986,987,988,991,996,1009,1025,1063],"ymouse":[604,604,604,604,604,604,604,604,604,604,604,604,604,604,604,604,604,604,604,604,604,604,604,604,604,604,604,604,604,604,604,604,604,604,604,604,604,604,604,604,604,604,604,604,604,604,604,604,604,604,604,604,604,604,604,604,604,604,604,602,599,585,577,572,565,559,546,530,504,409,354,297,195,122,16,0,0,0,0,0,0,0,0,0,0,0,1,7,14,23],"timestamp_mouse":[13,37,54,73,94,114,135,154,175,194,213,235,253,274,294,315,334,355,374,394,415,434,454,474,494,513,534,554,573,594,615,634,654,673,695,713,734,755,773,793,813,835,855,874,893,913,934,955,975,995,1014,1033,1054,1074,1094,1114,1134,1153,1173,1193,1215,1233,1254,1274,1293,1314,1334,1353,1374,1393,1414,1434,1453,1473,1494,1514,1533,1554,1574,1594,1614,1633,1653,1673,1694,1714,1734,1754,1773,1795],"xSR":741.5,"ySR":573.95,"xT1":424.9,"yT1":0,"xT2":1058.1,"yT2":0,"toosoon":0,"cond_shown":"Incongruent","ratio_trial":300,"L_num":13,"L_den":26,"R_num":12,"R_den":15,"correct_side":2,"subjID":"oscar samuel martinez runza 3","gender":"0","school":"4d","age":"8 años"},{"start_time":1552313132500,"click_time":1552313136252,"finger_time":1552313135552,"fix_duration":307.51710198563575,"trial":11,"RT":3052,"MT":700,"sideResp":1,"stimulus":[],"xmouse":[789,789,789,789,789,789,789,789,789,789,789,789,789,789,789,789,789,789,789,789,789,789,789,789,789,789,789,789,789,789,789,789,789,789,789,789,789,789,789,789,789,789,789,789,789,789,789,789,789,789,789,789,789,789,789,789,789,789,789,789,789,789,789,789,789,789,789,789,789,789,789,789,789,789,789,789,789,789,789,789,789,789,789,789,789,789,789,789,789,789,789,789,789,789,789,789,789,789,789,789,789,789,789,789,789,789,789,789,789,789,789,789,789,789,789,789,789,789,789,789,789,789,789,789,789,789,789,789,789,789,789,789,789,788,787,787,787,787,787,787,787,787,787,787,787,787,787,787,787,787,787,781,769,724,712,707,707,707,704,695,685,682,681,681,681,681,679,671,653,640,622,609,595,570,560,554,549,544,533,527,523,518,511,502,496,488,483,476],"ymouse":[613,613,613,613,613,613,613,613,613,613,613,613,613,613,613,613,613,613,613,613,613,613,613,613,613,613,613,613,613,613,613,613,613,613,613,613,613,613,613,613,613,613,613,613,613,613,613,613,613,613,613,613,613,613,613,613,613,613,613,613,613,613,613,613,613,613,613,613,613,613,613,613,613,613,613,613,613,613,613,613,613,613,613,613,613,613,613,613,613,613,613,613,613,613,613,613,613,613,613,613,613,613,613,613,613,613,613,613,613,613,613,613,613,613,613,613,613,613,613,613,613,613,613,613,613,613,613,613,613,613,613,613,613,611,611,611,611,611,611,611,611,611,611,611,611,611,611,611,611,611,607,592,568,504,492,488,488,488,487,483,478,477,476,476,476,474,470,450,396,364,325,301,281,257,250,245,242,237,226,220,216,210,200,176,158,132,107,83],"timestamp_mouse":[20,49,51,72,93,112,131,153,171,191,211,232,251,272,291,312,331,351,372,391,412,431,453,471,491,512,532,551,571,592,611,631,651,673,691,711,731,752,771,791,811,831,852,871,892,911,933,951,971,991,1012,1031,1052,1071,1092,1113,1132,1151,1173,1191,1212,1231,1252,1272,1293,1313,1332,1352,1371,1392,1412,1431,1453,1471,1491,1511,1532,1551,1572,1593,1612,1631,1651,1671,1692,1712,1732,1752,1771,1791,1812,1833,1852,1873,1893,1911,1932,1952,1971,1991,2013,2032,2052,2071,2091,2112,2131,2152,2171,2193,2212,2231,2252,2273,2292,2311,2333,2353,2371,2392,2413,2433,2452,2471,2492,2512,2532,2551,2572,2592,2612,2631,2651,2672,2691,2712,2731,2752,2771,2793,2812,2832,2853,2872,2892,2912,2932,2952,2972,2991,3011,3033,3052,3072,3091,3112,3132,3152,3171,3193,3212,3232,3252,3271,3291,3311,3331,3353,3371,3391,3411,3432,3451,3472,3491,3512,3532,3552,3571,3592,3611,3632,3652,3672,3692,3711,3731,3752],"xSR":741.5,"ySR":573.95,"xT1":424.9,"yT1":0,"xT2":1058.1,"yT2":0,"toosoon":0,"cond_shown":"Congruent","ratio_trial":100,"L_num":3,"L_den":6,"R_num":2,"R_den":5,"correct_side":1,"subjID":"oscar samuel martinez runza 3","gender":"0","school":"4d","age":"8 años"},{"start_time":1552313137907,"click_time":1552313143072,"finger_time":1552313142231,"fix_duration":314.67524989752314,"trial":12,"RT":4324,"MT":841,"sideResp":2,"stimulus":[],"xmouse":[805,805,805,805,805,805,805,805,805,805,805,805,805,805,805,805,805,805,805,805,805,805,805,805,805,805,805,805,805,805,805,805,805,805,805,805,805,805,805,805,805,805,805,805,805,805,805,805,805,805,805,805,805,805,805,805,805,805,805,805,805,805,805,805,805,805,805,805,805,805,805,805,805,805,805,805,805,805,805,805,805,805,805,805,805,805,805,805,805,805,805,805,805,805,805,805,805,805,805,805,805,805,805,805,805,805,805,805,805,805,805,805,805,805,805,805,805,805,805,805,805,805,805,805,805,805,805,805,805,805,805,805,805,805,805,805,805,805,805,805,805,805,805,805,805,805,805,805,805,805,805,805,805,805,805,805,805,805,805,805,805,805,805,805,805,805,805,805,805,805,805,805,805,805,805,805,805,805,805,805,805,805,805,805,805,805,805,805,805,805,805,805,805,805,805,805,805,805,805,805,805,805,805,805,805,805,805,805,805,805,805,805,803,802,797,796,796,795,794,794,794,794,794,794,794,800,812,823,843,846,848,850,851,857,878,890,904,914,921,943,955,966,978,1000,1007,1016,1026,1035,1044,1045,1046,1047,1047,1048,1050,1052,1054,1057,1072],"ymouse":[664,664,664,664,664,664,664,664,664,664,664,664,664,664,664,664,664,664,664,664,664,664,664,664,664,664,664,664,664,664,664,664,664,664,664,664,664,664,664,664,664,664,664,664,664,664,664,664,664,664,664,664,664,664,664,664,664,664,664,664,664,664,664,664,664,664,664,664,664,664,664,664,664,664,664,664,664,664,664,664,664,664,664,664,664,664,664,664,664,664,664,664,664,664,664,664,664,664,664,664,664,664,664,664,664,664,664,664,664,664,664,664,664,664,664,664,664,664,664,664,664,664,664,664,664,664,664,664,664,664,664,664,664,664,664,664,664,664,664,664,664,664,664,664,664,664,664,664,664,664,664,664,664,664,664,664,664,664,664,664,664,664,664,664,664,664,664,664,664,664,664,664,664,664,664,664,664,664,664,664,664,664,664,664,664,664,664,664,664,664,664,664,664,664,664,664,664,664,664,664,664,664,664,664,664,664,664,664,664,657,648,636,623,608,579,574,567,561,556,555,555,555,555,555,555,552,548,539,502,485,473,460,446,431,384,355,324,293,265,208,191,174,161,130,113,94,74,59,48,47,47,47,47,46,44,40,37,34,30],"timestamp_mouse":[10,38,45,65,84,105,124,144,165,185,206,225,244,266,284,305,324,346,365,384,404,425,444,465,485,504,524,545,565,585,605,625,644,665,685,706,726,745,765,785,805,824,844,865,885,904,925,946,964,984,1004,1025,1045,1065,1085,1106,1124,1144,1165,1184,1204,1225,1244,1265,1284,1304,1325,1346,1365,1384,1406,1424,1444,1465,1485,1505,1525,1546,1564,1584,1606,1625,1645,1666,1685,1706,1725,1745,1764,1784,1805,1824,1844,1866,1885,1904,1924,1944,1965,1986,2005,2024,2044,2064,2085,2105,2124,2145,2164,2184,2205,2224,2246,2266,2285,2305,2324,2344,2366,2384,2405,2426,2444,2465,2486,2506,2525,2544,2565,2586,2604,2625,2646,2665,2685,2705,2725,2745,2765,2784,2804,2824,2845,2864,2884,2906,2925,2944,2966,2985,3004,3026,3044,3065,3086,3106,3125,3145,3165,3185,3204,3225,3244,3265,3285,3304,3325,3347,3365,3385,3404,3424,3444,3466,3484,3505,3524,3545,3565,3586,3604,3625,3644,3664,3684,3704,3724,3744,3766,3784,3805,3825,3845,3866,3885,3905,3926,3945,3965,3986,4006,4024,4045,4065,4084,4106,4125,4145,4164,4186,4204,4225,4244,4264,4284,4305,4324,4345,4365,4384,4406,4425,4445,4465,4484,4505,4525,4545,4565,4584,4605,4625,4644,4664,4684,4705,4724,4744,4765,4784,4805,4825,4845,4865,4884,4905,4925,4945,4965,4984,5005,5026,5046,5065,5084,5104,5125,5145,5165],"xSR":741.5,"ySR":573.95,"xT1":424.9,"yT1":0,"xT2":1058.1,"yT2":0,"toosoon":0,"cond_shown":"Incongruent","ratio_trial":300,"L_num":4,"L_den":5,"R_num":6,"R_den":12,"correct_side":1,"subjID":"oscar samuel martinez runza 3","gender":"0","school":"4d","age":"8 años"},{"start_time":1552313145549,"click_time":1552313148972,"finger_time":1552313146072,"fix_duration":574.987004463136,"trial":13,"RT":523,"MT":2900,"sideResp":1,"stimulus":[],"xmouse":[826,826,826,826,826,826,826,826,826,826,826,826,826,826,826,826,826,826,826,826,826,826,826,826,825,818,809,807,807,807,807,807,806,805,805,805,805,805,806,806,807,807,807,807,807,807,807,807,807,807,807,807,805,804,800,798,797,795,795,794,793,792,791,791,791,791,791,791,791,791,791,791,791,791,791,791,791,791,791,791,791,791,791,791,791,791,792,794,796,797,799,802,803,803,803,803,803,803,803,803,803,803,803,803,803,803,803,803,803,803,803,803,803,803,803,803,803,803,803,803,803,803,802,802,802,802,802,802,800,789,782,776,774,774,774,774,774,774,774,774,774,774,774,774,774,774,774,774,774,774,774,774,767,756,729,709,691,665,656,651,649,646,636,628,618,611,605,587,573,549,517,481],"ymouse":[603,603,603,603,603,603,603,603,603,603,603,603,603,603,603,603,603,603,603,603,603,603,603,602,600,590,569,562,562,562,562,561,556,553,549,549,549,549,551,554,555,555,555,555,555,555,555,555,555,555,556,557,567,572,584,592,598,606,609,611,614,619,623,624,624,624,624,624,624,624,624,624,624,624,624,624,624,624,624,624,624,624,624,624,624,625,625,624,622,621,618,614,611,610,610,609,609,609,609,609,609,608,608,608,608,608,608,608,608,608,608,608,608,608,608,608,608,607,607,606,604,603,602,602,602,602,602,602,603,617,630,640,647,647,647,647,647,647,647,647,647,647,647,647,647,647,647,647,646,640,632,625,597,569,519,493,472,442,432,428,423,417,396,378,350,328,305,251,216,176,127,92],"timestamp_mouse":[13,22,43,63,84,102,123,144,163,183,202,224,244,262,282,302,322,344,362,383,403,423,443,462,482,502,523,542,563,582,603,622,642,662,682,703,724,742,762,784,803,823,843,862,884,903,922,943,962,983,1002,1024,1042,1062,1082,1102,1122,1144,1164,1182,1202,1222,1243,1263,1283,1303,1324,1343,1363,1383,1402,1423,1444,1462,1483,1502,1522,1544,1563,1584,1603,1624,1642,1662,1682,1703,1722,1742,1762,1782,1803,1822,1842,1862,1882,1904,1924,1943,1963,1982,2002,2022,2042,2062,2083,2104,2122,2142,2164,2182,2204,2222,2242,2262,2282,2303,2323,2343,2362,2384,2402,2422,2442,2463,2482,2502,2522,2543,2562,2583,2603,2624,2642,2662,2684,2703,2722,2743,2762,2782,2804,2824,2842,2862,2883,2902,2923,2943,2962,2984,3003,3022,3042,3063,3083,3104,3123,3142,3162,3183,3202,3222,3243,3264,3283,3303,3322,3342,3362,3383,3404,3423],"xSR":741.5,"ySR":573.95,"xT1":424.9,"yT1":0,"xT2":1058.1,"yT2":0,"toosoon":0,"cond_shown":"Congruent","ratio_trial":200,"L_num":13,"L_den":26,"R_num":14,"R_den":20,"correct_side":2,"subjID":"oscar samuel martinez runza 3","gender":"0","school":"4d","age":"8 años"},{"start_time":1552313151473,"click_time":1552313153711,"finger_time":1552313153072,"fix_duration":480.2354022690384,"trial":14,"RT":1599,"MT":639,"sideResp":1,"stimulus":[],"xmouse":[761,761,761,761,761,761,761,761,761,761,761,761,761,761,761,761,761,761,761,761,761,761,761,761,761,761,761,761,761,761,761,761,761,761,761,761,761,761,761,761,761,760,760,760,760,760,760,760,760,760,760,760,760,760,760,760,760,760,760,760,760,760,760,760,760,760,760,760,760,760,760,760,760,761,763,764,763,757,749,742,724,716,711,705,702,701,698,693,688,682,664,654,637,618,588,565,561,559,558,555,552,551,550,550,549,544,540,535,529,527,524,522],"ymouse":[654,654,654,654,654,654,654,654,654,654,654,654,654,654,654,654,654,654,654,654,654,654,654,654,654,654,654,654,654,654,654,654,654,654,654,654,654,654,654,654,654,654,654,654,654,654,654,654,654,654,654,654,654,654,654,654,654,654,654,654,654,654,654,654,654,654,654,654,654,654,654,653,651,646,641,623,612,596,580,563,526,507,485,463,444,423,403,389,376,363,331,314,295,277,253,236,232,228,225,221,217,215,213,212,209,194,183,169,152,135,104,91],"timestamp_mouse":[21,45,58,78,98,118,138,160,179,198,219,239,258,279,298,320,338,358,378,399,420,438,458,479,498,519,540,559,578,599,619,638,660,680,700,718,738,758,778,799,818,838,858,878,898,920,938,958,978,999,1018,1039,1060,1079,1098,1119,1139,1159,1180,1200,1218,1238,1258,1279,1300,1318,1339,1359,1378,1400,1419,1438,1458,1478,1499,1519,1539,1558,1578,1598,1619,1638,1658,1678,1699,1718,1739,1759,1780,1799,1819,1838,1859,1878,1899,1919,1938,1958,1978,1998,2019,2038,2058,2079,2099,2119,2138,2159,2179,2198,2219,2238],"xSR":741.5,"ySR":573.95,"xT1":424.9,"yT1":0,"xT2":1058.1,"yT2":0,"toosoon":0,"cond_shown":"Incongruent","ratio_trial":200,"L_num":4,"L_den":6,"R_num":14,"R_den":30,"correct_side":1,"subjID":"oscar samuel martinez runza 3","gender":"0","school":"4d","age":"8 años"},{"start_time":1552313157002,"click_time":1552313161053,"finger_time":1552313159853,"fix_duration":988.9347331905457,"trial":15,"RT":2851,"MT":1200,"sideResp":1,"stimulus":[],"xmouse":[816,816,816,816,816,816,816,816,816,816,816,816,816,816,816,816,816,816,816,816,816,816,816,816,816,816,816,816,816,816,816,816,816,816,816,816,816,816,816,816,816,816,816,816,816,816,816,816,816,816,816,816,816,816,816,816,816,816,816,816,816,816,816,816,816,816,816,816,816,816,816,816,816,816,816,816,816,816,816,816,816,816,816,816,816,816,816,816,816,816,816,816,816,816,816,816,816,816,816,816,816,816,816,816,816,816,816,816,816,816,816,816,816,816,816,816,816,816,816,816,816,816,816,816,816,816,816,816,816,816,816,816,816,816,816,816,816,816,816,816,816,841,916,1019,1101,1132,1132,1125,1114,1100,1075,1067,1059,1048,1030,963,899,846,794,741,629,569,509,452,397,352,297,274,269,268,268,268,268,269,274,299,310,324,342,363,404,415,420,420,420,422,426,433,441,449,455,455,456,459,460,461,464,465,465,465,465,466,471],"ymouse":[614,614,614,614,614,614,614,614,614,614,614,614,614,614,614,614,614,614,614,614,614,614,614,614,614,614,614,614,614,614,614,614,614,614,614,614,614,614,614,614,614,614,614,614,614,614,614,614,614,614,614,614,614,614,615,615,615,615,615,615,615,615,615,615,615,615,615,615,615,615,615,615,615,615,615,615,615,615,615,615,615,615,615,615,615,615,615,615,615,615,615,615,615,615,615,615,615,615,615,615,615,615,615,615,615,615,615,615,615,615,615,615,615,615,615,615,615,615,615,615,615,615,615,615,615,615,615,615,615,615,615,615,615,615,615,615,615,615,615,615,615,596,537,467,421,412,412,415,420,424,425,425,425,424,419,389,362,339,317,296,262,243,227,211,195,178,154,145,143,143,143,143,143,143,143,141,140,137,131,126,121,119,118,118,118,117,114,111,109,108,108,107,106,104,104,102,101,101,101,101,101,100,97],"timestamp_mouse":[15,41,50,70,89,111,129,149,169,190,210,230,250,271,290,310,330,349,369,390,409,429,449,471,490,509,531,549,570,589,610,629,651,671,690,710,729,751,770,789,811,829,849,870,890,911,929,950,970,990,1009,1029,1051,1069,1090,1109,1131,1149,1170,1190,1211,1231,1249,1269,1289,1309,1329,1351,1370,1390,1410,1430,1450,1469,1489,1511,1531,1550,1571,1590,1610,1630,1650,1669,1691,1709,1729,1750,1770,1790,1811,1831,1850,1869,1890,1910,1929,1950,1971,1989,2010,2030,2050,2070,2089,2109,2131,2150,2170,2191,2210,2230,2249,2270,2291,2311,2331,2351,2370,2390,2409,2429,2449,2471,2489,2510,2530,2549,2571,2591,2615,2630,2650,2669,2689,2709,2729,2749,2770,2791,2810,2829,2851,2870,2891,2909,2929,2949,2970,2990,3009,3029,3050,3070,3090,3110,3129,3150,3169,3189,3209,3230,3250,3271,3290,3309,3329,3349,3369,3391,3410,3429,3449,3469,3489,3510,3531,3550,3569,3590,3610,3629,3650,3671,3689,3709,3729,3750,3771,3790,3809,3829,3849,3869,3889,3909,3929,3949,3970,3989,4009,4029,4050],"xSR":741.5,"ySR":573.95,"xT1":424.9,"yT1":0,"xT2":1058.1,"yT2":0,"toosoon":0,"cond_shown":"Incongruent","ratio_trial":300,"L_num":8,"L_den":10,"R_num":9,"R_den":18,"correct_side":1,"subjID":"oscar samuel martinez runza 3","gender":"0","school":"4d","age":"8 años"},{"start_time":1552313163959,"click_time":1552313170792,"finger_time":1552313169412,"fix_duration":945.3294960476868,"trial":16,"RT":5453,"MT":1380,"sideResp":2,"stimulus":[],"xmouse":[787,787,787,787,787,787,787,787,787,787,787,787,787,787,787,787,787,787,787,787,787,787,787,787,787,787,787,787,787,787,787,787,787,787,787,787,787,787,787,787,787,787,787,787,787,787,787,787,787,787,787,787,787,787,787,787,787,787,787,787,787,787,787,787,787,787,787,787,787,787,787,787,787,787,787,787,787,787,787,787,787,787,787,787,787,787,787,787,787,787,787,787,787,787,787,787,787,787,787,787,787,787,787,787,787,787,787,787,787,787,787,787,787,787,787,787,787,787,787,787,787,787,787,787,787,787,787,787,787,787,787,787,787,787,787,787,787,787,787,787,787,787,787,787,787,787,787,787,787,787,787,787,787,787,787,787,787,787,787,787,787,787,787,787,787,787,787,787,787,787,787,787,787,787,787,787,787,787,787,787,787,787,787,787,787,787,787,787,787,787,787,787,787,787,787,787,787,787,787,787,787,787,787,787,787,787,787,787,787,787,787,787,787,787,787,787,787,787,787,787,787,787,787,787,787,787,787,787,787,787,787,787,787,787,787,787,787,787,787,787,787,787,787,787,787,787,787,787,787,787,787,787,787,787,787,787,787,787,787,787,787,787,787,787,787,787,787,784,769,764,757,747,736,711,681,673,670,670,669,667,666,662,654,598,590,590,595,606,615,625,627,627,628,628,620,616,613,611,611,611,611,611,611,611,611,611,611,612,619,654,675,699,707,716,733,744,757,767,778,800,811,824,843,854,868,877,887,899,909,920,922,924,925,927,929,933,941,951,965,1001,1040,1059],"ymouse":[625,625,625,625,625,625,625,625,625,625,625,625,625,625,625,625,625,625,625,625,625,625,625,625,625,625,625,625,625,625,625,625,625,625,625,625,625,625,625,625,625,625,625,625,625,625,625,625,625,625,625,625,625,625,625,625,625,625,625,625,625,625,625,625,625,625,625,625,625,625,625,625,625,625,625,625,625,625,625,625,625,625,625,625,625,625,625,625,625,625,625,625,625,625,625,625,625,625,625,625,625,625,625,625,625,625,625,625,625,625,625,625,625,625,625,625,625,625,625,625,625,625,625,625,625,625,625,625,625,625,625,625,625,625,625,625,625,625,625,625,625,625,625,625,625,625,625,625,625,625,625,625,625,625,625,625,625,625,625,625,625,625,625,625,625,625,625,625,625,625,625,625,625,625,625,625,625,625,625,625,625,625,625,625,625,625,625,625,625,625,625,625,625,625,625,625,625,625,625,625,625,625,625,625,625,625,625,625,625,625,625,625,625,625,625,625,625,625,625,625,625,625,625,625,625,625,625,625,625,625,625,625,625,625,625,625,625,625,625,625,625,625,625,625,625,625,625,625,625,625,625,625,625,625,625,625,625,625,625,625,625,625,625,625,625,625,623,621,609,608,607,606,604,597,589,586,584,584,583,572,563,547,520,406,380,363,347,334,326,319,317,315,309,293,248,228,215,205,194,179,179,179,179,179,179,179,178,178,176,169,168,168,168,169,174,175,177,177,177,173,169,164,157,154,150,148,143,140,138,137,136,136,136,135,135,134,132,127,120,99,71,60],"timestamp_mouse":[13,37,53,73,93,112,133,152,174,192,212,232,253,274,292,312,333,354,372,393,413,432,453,473,492,512,533,552,573,593,614,633,652,673,692,714,733,753,773,792,813,832,852,873,894,913,934,953,972,992,1013,1034,1054,1074,1093,1112,1133,1153,1173,1193,1212,1233,1253,1273,1294,1312,1333,1353,1373,1393,1412,1433,1454,1473,1492,1512,1534,1554,1573,1593,1613,1633,1653,1672,1694,1714,1733,1753,1773,1792,1814,1833,1854,1872,1892,1913,1933,1953,1973,1992,2013,2033,2053,2072,2093,2113,2133,2153,2173,2193,2212,2233,2254,2272,2293,2312,2334,2354,2373,2393,2413,2433,2453,2472,2492,2514,2533,2553,2572,2593,2613,2632,2652,2674,2693,2713,2732,2752,2774,2793,2812,2832,2854,2874,2893,2913,2932,2952,2972,2994,3012,3033,3053,3073,3092,3113,3133,3153,3174,3192,3212,3233,3254,3273,3293,3313,3333,3352,3373,3393,3414,3433,3453,3473,3493,3514,3533,3552,3573,3593,3613,3634,3654,3673,3692,3712,3732,3752,3773,3793,3812,3832,3852,3873,3893,3913,3933,3953,3974,3993,4013,4032,4054,4074,4093,4112,4132,4154,4174,4193,4213,4233,4254,4272,4293,4313,4333,4353,4373,4393,4413,4434,4454,4473,4493,4513,4532,4553,4572,4593,4613,4634,4652,4672,4693,4713,4732,4754,4773,4792,4813,4832,4853,4873,4894,4913,4933,4952,4973,4993,5012,5034,5054,5073,5092,5112,5133,5152,5173,5193,5213,5233,5253,5273,5294,5313,5333,5352,5373,5393,5413,5432,5453,5474,5492,5513,5533,5552,5572,5592,5612,5633,5652,5673,5692,5712,5733,5752,5773,5792,5813,5832,5852,5873,5892,5912,5932,5952,5973,5992,6014,6033,6053,6073,6093,6113,6133,6152,6174,6193,6212,6232,6254,6273,6292,6313,6333,6353,6372,6392,6413,6433,6453,6472,6492,6512,6532,6553,6573,6592,6614,6632,6653,6673,6692,6713,6733,6753,6773,6792,6812,6832],"xSR":741.5,"ySR":573.95,"xT1":424.9,"yT1":0,"xT2":1058.1,"yT2":0,"toosoon":0,"cond_shown":"Congruent","ratio_trial":100,"L_num":11,"L_den":22,"R_num":6,"R_den":15,"correct_side":1,"subjID":"oscar samuel martinez runza 3","gender":"0","school":"4d","age":"8 años"},{"start_time":1552313174004,"click_time":1552313176353,"finger_time":1552313175812,"fix_duration":371.40516304811075,"trial":17,"RT":1808,"MT":541,"sideResp":1,"stimulus":[],"xmouse":[785,785,785,785,785,785,785,785,785,785,785,785,785,785,785,785,785,785,785,785,785,785,785,785,785,785,785,785,785,785,785,785,785,785,785,785,785,785,785,785,785,785,785,785,785,785,785,785,785,785,785,785,785,785,785,785,785,785,785,785,785,785,785,785,785,785,785,785,785,785,785,785,785,785,785,785,785,785,785,785,785,785,785,785,785,785,785,785,785,785,784,784,784,784,784,783,774,767,712,682,643,610,595,597,601,598,574,548,545,535,530,525,520,514,512,511,506,497],"ymouse":[582,582,582,582,582,582,582,582,582,582,582,582,582,582,582,582,582,582,582,582,582,582,582,582,582,582,582,582,582,582,582,582,582,582,582,582,582,582,582,582,582,582,582,582,582,582,582,582,582,582,582,582,582,582,582,582,582,582,582,582,582,582,582,582,582,582,582,582,582,582,582,582,582,582,582,582,582,582,582,582,582,582,582,582,582,582,582,582,582,579,573,572,572,572,572,572,559,549,456,391,314,239,151,127,104,79,39,9,4,0,0,0,0,0,0,0,0,13],"timestamp_mouse":[13,37,48,68,87,108,127,147,167,188,208,227,247,268,287,307,328,347,368,387,408,428,447,467,487,508,528,549,567,588,608,628,647,667,688,707,727,749,768,787,808,827,849,868,888,909,928,947,967,987,1008,1028,1047,1068,1087,1107,1127,1147,1168,1188,1208,1229,1247,1267,1289,1307,1328,1347,1369,1388,1407,1427,1448,1468,1488,1508,1528,1547,1568,1587,1608,1629,1649,1668,1688,1708,1728,1749,1768,1787,1808,1828,1848,1867,1887,1908,1927,1947,1968,1987,2009,2028,2048,2067,2088,2108,2129,2147,2167,2187,2207,2227,2248,2268,2288,2308,2328,2348],"xSR":741.5,"ySR":573.95,"xT1":424.9,"yT1":0,"xT2":1058.1,"yT2":0,"toosoon":0,"cond_shown":"Incongruent","ratio_trial":300,"L_num":4,"L_den":5,"R_num":8,"R_den":16,"correct_side":1,"subjID":"oscar samuel martinez runza 3","gender":"0","school":"4d","age":"8 años"},{"start_time":1552313184746,"click_time":1552313186791,"finger_time":1552313186391,"fix_duration":351.65148383196487,"trial":18,"RT":1645,"MT":400,"sideResp":2,"stimulus":[],"xmouse":[819,819,819,819,819,819,819,819,819,819,819,819,819,819,819,819,819,819,819,819,819,819,819,819,819,819,819,819,819,819,819,819,819,819,819,819,819,819,819,819,819,819,819,819,819,819,819,819,819,819,819,819,819,819,819,819,819,819,819,819,819,819,819,819,819,819,819,819,819,819,819,819,819,819,820,820,821,821,821,822,824,829,842,849,857,862,871,877,880,883,886,892,903,908,917,930,937,956,964,977,996,1026,1111],"ymouse":[630,630,630,630,630,630,630,630,630,630,630,630,630,630,630,630,630,630,630,630,630,630,630,630,630,630,630,630,630,630,630,630,630,630,630,630,630,630,630,630,630,630,630,630,630,630,630,630,630,630,630,630,630,630,630,630,630,630,630,630,630,630,630,630,630,630,630,630,630,630,630,630,626,624,619,618,617,617,615,615,609,598,558,532,506,484,454,430,421,415,406,393,359,339,321,301,294,276,265,249,227,185,90],"timestamp_mouse":[12,26,46,66,85,106,125,146,166,186,205,226,245,265,286,306,325,346,365,385,405,427,446,465,485,505,526,547,566,586,605,627,646,667,686,705,726,747,765,786,805,827,847,865,886,906,925,947,965,986,1006,1026,1047,1065,1085,1107,1125,1146,1166,1186,1206,1225,1247,1266,1285,1307,1325,1345,1365,1385,1406,1427,1445,1467,1485,1506,1526,1546,1566,1587,1605,1625,1645,1666,1686,1705,1726,1746,1765,1786,1805,1827,1846,1866,1885,1907,1925,1946,1965,1985,2007,2025,2045],"xSR":741.5,"ySR":573.95,"xT1":424.9,"yT1":0,"xT2":1058.1,"yT2":0,"toosoon":0,"cond_shown":"Congruent","ratio_trial":100,"L_num":7,"L_den":14,"R_num":15,"R_den":25,"correct_side":2,"subjID":"oscar samuel martinez runza 3","gender":"0","school":"4d","age":"8 años"},{"start_time":1552313189224,"click_time":1552313192192,"finger_time":1552313191012,"fix_duration":250,"trial":19,"RT":1788,"MT":1180,"sideResp":2,"stimulus":[],"xmouse":[811,811,811,811,811,811,811,811,811,811,811,811,811,811,811,811,811,811,811,811,811,811,811,811,811,811,811,811,811,811,811,811,811,811,811,811,811,811,811,811,811,811,811,811,811,811,811,811,811,811,811,811,811,811,811,811,811,811,811,811,811,811,811,811,811,811,811,811,811,811,811,811,811,811,811,811,811,811,811,811,811,811,811,811,811,811,811,811,810,805,803,803,808,822,882,906,921,936,961,969,969,969,969,969,970,971,973,976,983,986,987,987,987,987,987,987,987,989,991,992,993,993,993,990,989,991,997,1001,1002,1003,1003,1003,1003,1003,1003,1003,1003,1003,1003,1003,1003,1003,1005,1012,1018,1027,1037,1047,1062],"ymouse":[596,596,596,596,596,596,596,596,596,596,596,596,596,596,596,596,596,596,596,596,596,596,596,596,596,596,596,596,596,596,596,596,596,596,596,596,596,596,596,596,596,596,596,596,596,596,596,596,596,596,596,596,596,596,596,596,596,596,596,596,596,596,596,596,596,596,596,596,596,596,596,596,596,596,596,596,596,596,596,596,596,596,596,596,596,596,593,590,582,571,558,540,517,488,403,369,345,322,296,289,289,289,289,289,289,287,283,277,260,252,250,249,249,249,249,249,248,246,235,230,224,217,204,166,147,130,118,111,110,109,109,108,108,107,107,107,107,107,107,107,107,105,103,97,95,93,90,88,83],"timestamp_mouse":[10,27,49,67,87,108,129,148,168,187,208,227,248,268,288,307,329,349,368,388,407,428,447,469,487,508,528,547,569,588,608,628,649,668,688,707,727,748,767,788,808,828,847,868,887,909,929,948,968,988,1008,1029,1047,1068,1089,1107,1128,1149,1168,1189,1208,1227,1249,1267,1289,1307,1327,1348,1367,1387,1408,1428,1448,1469,1489,1508,1527,1548,1569,1588,1607,1627,1648,1669,1689,1708,1728,1749,1767,1788,1807,1827,1847,1867,1887,1908,1927,1947,1967,1988,2009,2028,2047,2067,2087,2107,2127,2148,2167,2187,2208,2228,2249,2267,2288,2308,2327,2347,2367,2387,2408,2428,2447,2468,2487,2508,2528,2549,2567,2588,2608,2628,2648,2668,2688,2708,2727,2747,2768,2787,2807,2829,2847,2867,2887,2907,2927,2948,2968],"xSR":741.5,"ySR":573.95,"xT1":424.9,"yT1":0,"xT2":1058.1,"yT2":0,"toosoon":0,"cond_shown":"Incongruent","ratio_trial":200,"L_num":9,"L_den":15,"R_num":8,"R_den":10,"correct_side":2,"subjID":"oscar samuel martinez runza 3","gender":"0","school":"4d","age":"8 años"},{"start_time":1552313194580,"click_time":1552313197013,"finger_time":1552313196551,"fix_duration":1125.5843590074844,"trial":20,"RT":1971,"MT":462,"sideResp":1,"stimulus":[],"xmouse":[799,799,799,799,799,799,799,799,799,799,799,799,799,799,799,799,799,799,799,799,799,799,799,799,799,799,799,799,799,799,799,799,799,799,799,799,799,799,799,799,799,799,799,799,799,799,799,799,799,799,799,799,799,799,799,799,799,799,799,799,799,799,799,799,799,799,799,799,799,799,799,799,799,799,799,799,799,799,799,799,799,799,799,799,799,799,799,799,799,799,799,799,799,799,799,799,796,791,759,741,722,686,672,660,646,633,599,575,534,507,470,464,464,464,464,464,464,464,464,464,464,463],"ymouse":[624,624,624,624,624,624,624,624,624,624,624,624,624,624,624,624,624,624,624,624,624,624,624,624,624,624,624,624,624,624,624,624,624,624,624,624,624,624,624,624,624,624,624,624,624,624,624,624,624,624,624,624,624,624,624,624,624,624,624,624,624,624,624,624,624,624,624,624,624,624,624,624,624,624,624,624,624,624,624,624,624,624,624,624,624,624,624,624,624,624,624,624,624,624,624,624,608,591,482,419,359,280,255,234,214,193,128,52,0,0,0,0,0,0,0,0,0,0,0,0,0,1],"timestamp_mouse":[14,37,52,72,92,112,132,151,172,193,212,231,252,271,291,312,332,351,372,392,411,432,452,472,491,511,531,552,572,591,611,632,653,671,692,712,731,753,772,791,812,833,851,872,893,912,932,951,972,992,1012,1032,1051,1071,1092,1111,1133,1151,1172,1192,1211,1233,1252,1271,1292,1313,1331,1351,1372,1393,1411,1431,1452,1472,1491,1512,1531,1553,1572,1592,1612,1631,1651,1673,1692,1712,1731,1753,1773,1791,1812,1831,1852,1871,1892,1911,1931,1953,1971,1991,2012,2033,2051,2073,2091,2111,2131,2152,2171,2193,2215,2233,2251,2272,2292,2312,2331,2352,2371,2392,2411,2432],"xSR":741.5,"ySR":573.95,"xT1":424.9,"yT1":0,"xT2":1058.1,"yT2":0,"toosoon":0,"cond_shown":"Incongruent","ratio_trial":100,"L_num":9,"L_den":15,"R_num":13,"R_den":26,"correct_side":1,"subjID":"oscar samuel martinez runza 3","gender":"0","school":"4d","age":"8 años"},{"start_time":1552313200707,"click_time":1552313203671,"finger_time":1552313203192,"fix_duration":1114.855434777744,"trial":21,"RT":2485,"MT":479,"sideResp":2,"stimulus":[],"xmouse":[751,751,751,751,751,751,751,751,751,751,751,751,751,751,751,751,751,751,751,751,751,751,751,751,751,751,751,751,751,751,751,751,751,751,751,751,751,751,751,751,751,751,751,751,751,751,751,751,751,751,751,751,751,751,751,751,751,751,751,751,751,751,751,751,751,751,751,751,751,751,751,751,751,751,751,751,751,751,751,751,751,751,751,751,751,751,751,751,751,751,751,751,751,751,751,751,751,751,751,751,751,751,751,751,751,751,751,751,751,751,751,751,751,751,751,751,751,751,752,755,762,780,792,810,824,853,866,876,888,892,905,911,919,928,938,949,967,975,983,997,1003,1009,1011,1015,1019,1025,1044,1051,1065],"ymouse":[629,629,629,629,629,629,629,629,629,629,629,629,629,629,629,629,629,629,629,629,629,629,629,629,629,629,629,629,629,629,629,629,629,629,629,629,629,629,629,629,629,629,629,629,629,629,629,629,629,629,629,629,629,629,629,629,629,629,629,629,629,629,629,629,629,629,629,629,629,629,629,629,629,629,629,629,629,629,629,629,629,629,629,629,629,629,629,629,629,629,629,629,629,629,629,629,629,629,629,629,629,629,629,629,629,629,629,629,629,629,629,629,629,629,629,629,629,629,627,625,624,614,604,590,573,539,524,512,499,494,469,456,443,431,420,409,383,370,349,298,259,207,188,171,153,135,95,74,46],"timestamp_mouse":[9,25,44,65,84,104,125,145,165,185,205,224,245,264,286,305,324,345,364,385,404,424,444,466,486,504,525,544,564,585,606,624,645,665,684,705,724,745,766,784,804,825,845,864,885,905,925,945,964,984,1006,1026,1046,1064,1084,1105,1125,1144,1164,1186,1204,1225,1246,1265,1284,1305,1326,1344,1364,1385,1406,1424,1444,1465,1484,1505,1524,1545,1566,1585,1604,1624,1645,1666,1685,1705,1726,1745,1764,1785,1806,1825,1845,1864,1885,1904,1925,1944,1965,1987,2004,2026,2044,2065,2086,2105,2125,2144,2164,2185,2204,2225,2244,2265,2286,2304,2325,2346,2364,2385,2404,2426,2445,2464,2485,2505,2524,2544,2564,2584,2609,2624,2644,2665,2684,2705,2724,2744,2764,2786,2805,2825,2845,2864,2884,2905,2924,2944,2964],"xSR":741.5,"ySR":573.95,"xT1":424.9,"yT1":0,"xT2":1058.1,"yT2":0,"toosoon":0,"cond_shown":"Congruent","ratio_trial":200,"L_num":7,"L_den":15,"R_num":18,"R_den":27,"correct_side":2,"subjID":"oscar samuel martinez runza 3","gender":"0","school":"4d","age":"8 años"},{"start_time":1552313206785,"click_time":1552313209473,"finger_time":1552313208412,"fix_duration":570.2530362607613,"trial":22,"RT":1627,"MT":1061,"sideResp":1,"stimulus":[],"xmouse":[785,785,785,785,785,785,785,785,785,785,785,785,785,785,785,785,785,785,785,785,785,785,785,785,785,785,785,785,785,785,785,785,785,785,785,785,785,785,785,785,785,785,785,785,785,785,785,785,785,785,785,785,785,785,785,785,785,785,785,785,785,785,785,785,785,785,785,785,785,785,785,785,785,785,785,785,785,785,785,782,779,771,741,719,708,699,691,680,677,675,675,675,675,672,671,668,666,660,653,643,626,609,568,536,513,494,479,453,441,430,422,417,415,414,414,414,414,414,414,414,414,414,414,414,414,414,414,414,414,414,414,414,420,424,428],"ymouse":[593,593,593,593,593,593,593,593,593,593,593,593,593,593,593,593,593,593,593,593,593,593,593,593,593,593,593,593,593,593,593,593,593,593,593,593,593,593,593,593,593,593,593,593,593,593,593,593,593,593,593,593,593,593,593,593,593,593,593,593,593,593,593,593,593,593,593,593,593,593,593,593,593,593,593,593,593,593,593,585,574,545,472,436,422,412,405,396,394,391,389,388,382,370,358,339,316,245,190,127,65,0,0,0,0,0,0,0,0,0,0,0,0,0,1,1,1,1,1,1,1,1,1,1,1,1,1,1,1,1,1,3,6,9,10],"timestamp_mouse":[12,26,47,66,88,106,127,147,168,187,208,227,247,266,286,307,327,348,366,387,407,426,447,466,486,508,526,547,567,587,607,626,648,666,686,707,727,746,767,787,806,827,847,867,886,908,927,947,967,988,1006,1027,1047,1067,1086,1107,1126,1146,1166,1187,1207,1227,1246,1267,1287,1307,1327,1346,1366,1387,1408,1428,1447,1466,1486,1507,1527,1547,1567,1587,1606,1627,1646,1667,1686,1706,1726,1746,1766,1786,1807,1827,1846,1867,1886,1907,1927,1946,1967,1986,2008,2026,2046,2066,2086,2107,2127,2148,2166,2187,2206,2227,2246,2267,2287,2306,2327,2347,2366,2386,2407,2426,2447,2466,2487,2506,2527,2548,2567,2587,2606,2627,2647,2666,2688],"xSR":741.5,"ySR":573.95,"xT1":424.9,"yT1":0,"xT2":1058.1,"yT2":0,"toosoon":0,"cond_shown":"Congruent","ratio_trial":300,"L_num":20,"L_den":25,"R_num":9,"R_den":18,"correct_side":1,"subjID":"oscar samuel martinez runza 3","gender":"0","school":"4d","age":"8 años"},{"start_time":1552313215593,"click_time":1552313218271,"finger_time":1552313217611,"fix_duration":1419.4760808394194,"trial":23,"RT":2018,"MT":660,"sideResp":1,"stimulus":[],"xmouse":[819,819,819,819,819,819,819,819,819,819,819,819,819,819,819,819,819,819,819,819,819,819,819,819,819,819,819,819,819,819,819,819,819,819,819,819,819,819,819,819,819,819,819,819,819,819,819,819,819,819,819,819,819,819,819,819,819,819,819,819,819,819,819,819,819,819,819,819,819,819,819,819,819,819,819,819,819,819,819,819,819,819,819,819,819,819,819,819,819,819,819,817,816,812,806,799,791,783,773,771,770,767,765,759,755,752,750,742,739,735,725,710,662,640,622,609,596,582,552,543,538,536,536,536,536,536,536,536,536,536,536,535,533,520],"ymouse":[640,640,640,640,640,640,640,640,640,640,640,640,640,640,640,640,640,640,640,640,640,640,640,640,640,640,640,640,640,640,640,640,640,640,640,640,640,640,640,640,640,640,640,640,640,640,640,640,640,640,640,640,640,640,640,640,640,640,640,640,640,640,640,640,640,640,640,640,640,640,640,640,640,640,640,640,640,640,640,640,640,640,640,640,640,640,640,640,640,640,640,638,634,627,622,616,607,599,581,575,569,562,553,531,518,507,495,452,429,401,365,326,234,199,174,155,138,123,87,74,65,58,48,44,43,42,42,42,42,42,42,41,41,43],"timestamp_mouse":[19,39,60,79,99,118,138,160,178,198,219,239,258,278,299,318,340,360,378,398,418,438,459,480,500,518,539,559,578,600,620,638,658,678,698,718,738,758,778,798,819,838,858,880,900,919,940,958,980,998,1018,1039,1058,1078,1098,1118,1138,1159,1178,1199,1218,1238,1259,1279,1299,1319,1338,1359,1378,1400,1419,1438,1459,1479,1499,1519,1538,1559,1579,1598,1619,1639,1660,1680,1698,1719,1739,1758,1779,1799,1820,1839,1858,1878,1899,1918,1940,1958,1978,1998,2018,2038,2058,2078,2098,2118,2138,2158,2179,2198,2219,2238,2258,2278,2298,2319,2339,2358,2378,2398,2419,2438,2458,2479,2499,2518,2539,2558,2578,2599,2619,2638,2658,2678],"xSR":741.5,"ySR":573.95,"xT1":424.9,"yT1":0,"xT2":1058.1,"yT2":0,"toosoon":0,"cond_shown":"Incongruent","ratio_trial":200,"L_num":6,"L_den":20,"R_num":3,"R_den":6,"correct_side":2,"subjID":"oscar samuel martinez runza 3","gender":"0","school":"4d","age":"8 años"},{"start_time":1552313221107,"click_time":1552313223532,"finger_time":1552313222892,"fix_duration":594.901553041292,"trial":24,"RT":1785,"MT":640,"sideResp":2,"stimulus":[],"xmouse":[797,797,797,797,797,797,797,797,797,797,797,797,797,797,797,797,797,797,797,797,797,797,797,797,797,797,797,797,797,797,797,797,797,797,797,797,797,797,797,797,797,797,797,797,797,797,797,797,797,797,797,797,797,797,797,797,797,797,797,797,797,797,797,797,797,797,797,797,797,797,797,797,797,797,797,797,797,797,797,797,797,797,797,797,797,797,799,803,822,837,864,883,918,931,944,954,963,972,993,1007,1021,1040,1052,1071,1080,1088,1096,1102,1111,1115,1118,1118,1118,1118,1118,1118,1118,1118,1118,1118,1118,1118],"ymouse":[605,605,605,605,605,605,605,605,605,605,605,605,605,605,605,605,605,605,605,605,605,605,605,605,605,605,605,605,605,605,605,605,605,605,605,605,605,605,605,605,605,605,605,605,605,605,605,605,605,605,605,605,605,605,605,605,605,605,605,605,605,605,605,605,605,605,605,605,605,605,605,605,605,605,605,605,605,605,605,605,605,605,605,605,605,605,602,597,574,562,541,529,499,485,467,447,427,403,354,332,309,280,260,217,196,174,158,144,127,119,111,106,103,101,101,100,100,100,100,100,100,99],"timestamp_mouse":[14,24,45,64,85,105,124,144,164,184,204,224,246,264,285,305,324,344,364,384,404,425,445,464,484,504,525,544,564,585,605,625,646,664,685,706,724,745,765,786,805,825,845,865,885,905,924,945,965,984,1005,1024,1044,1064,1085,1104,1125,1144,1164,1185,1205,1224,1246,1265,1285,1304,1325,1346,1365,1385,1405,1425,1446,1464,1485,1505,1524,1546,1564,1584,1605,1624,1644,1664,1685,1705,1725,1745,1764,1785,1804,1825,1846,1865,1884,1905,1924,1944,1964,1984,2005,2024,2045,2064,2084,2105,2124,2144,2164,2185,2204,2226,2244,2265,2284,2305,2325,2344,2365,2386,2406,2425],"xSR":741.5,"ySR":573.95,"xT1":424.9,"yT1":0,"xT2":1058.1,"yT2":0,"toosoon":0,"cond_shown":"Congruent","ratio_trial":200,"L_num":6,"L_den":20,"R_num":11,"R_den":22,"correct_side":2,"subjID":"oscar samuel martinez runza 3","gender":"0","school":"4d","age":"8 años"},{"start_time":1552313225684,"click_time":1552313227751,"finger_time":1552313227271,"fix_duration":250,"trial":25,"RT":1587,"MT":480,"sideResp":1,"stimulus":[],"xmouse":[777,777,777,777,777,777,777,777,777,777,777,777,777,777,777,777,777,777,777,777,777,777,777,777,777,777,777,777,777,777,777,777,777,777,777,777,777,777,777,777,777,777,777,777,777,777,777,777,777,777,777,777,777,777,777,777,777,777,777,777,777,777,777,777,777,777,777,777,777,777,777,777,777,777,777,774,765,753,742,716,702,687,675,661,639,631,624,617,611,598,595,592,590,590,582,576,572,564,551,522,513,508,504,501],"ymouse":[643,643,643,643,643,643,643,643,643,643,643,643,643,643,643,643,643,643,643,643,643,643,643,643,643,643,643,643,643,643,643,643,643,643,643,643,643,643,643,643,643,643,643,643,643,643,643,643,643,643,643,643,643,643,643,643,643,643,643,643,643,643,643,643,643,643,643,643,643,643,643,643,643,643,643,640,626,610,597,577,567,555,546,536,513,500,487,472,459,431,422,410,395,378,340,320,302,279,244,172,136,116,102,93],"timestamp_mouse":[9,37,48,68,88,109,128,148,169,188,208,228,249,268,288,308,329,348,367,388,408,427,449,469,488,507,528,548,567,587,607,628,648,668,687,707,728,748,768,789,808,828,848,868,887,907,929,948,968,988,1008,1028,1049,1067,1087,1109,1128,1147,1168,1188,1207,1228,1247,1268,1288,1308,1328,1347,1367,1388,1407,1428,1448,1469,1487,1507,1528,1547,1567,1587,1608,1627,1647,1667,1687,1707,1727,1748,1767,1787,1807,1827,1848,1868,1887,1907,1928,1947,1967,1987,2008,2027,2047,2067],"xSR":741.5,"ySR":573.95,"xT1":424.9,"yT1":0,"xT2":1058.1,"yT2":0,"toosoon":0,"cond_shown":"Incongruent","ratio_trial":100,"L_num":1,"L_den":2,"R_num":8,"R_den":20,"correct_side":1,"subjID":"oscar samuel martinez runza 3","gender":"0","school":"4d","age":"8 años"},{"start_time":1552313230692,"click_time":1552313232391,"finger_time":1552313232252,"fix_duration":1298.4040341807668,"trial":26,"RT":1560,"MT":139,"sideResp":2,"stimulus":[],"xmouse":[792,792,792,792,792,792,792,792,792,792,792,792,792,792,792,792,792,792,792,792,792,792,792,792,792,792,792,792,792,792,792,792,792,792,792,792,792,792,792,792,792,792,792,792,792,792,792,792,792,792,792,792,792,792,792,792,792,792,792,792,792,792,792,792,792,792,792,792,792,793,796,800,804,807,815,825,829,844,880,910,950,988,1016,1036,1072],"ymouse":[602,602,602,602,602,602,602,602,602,602,602,602,602,602,602,602,602,602,602,602,602,602,602,602,602,602,602,602,602,602,602,602,602,602,602,602,602,602,602,602,602,602,602,602,602,602,602,602,602,602,602,602,602,602,602,602,602,602,602,602,602,602,602,602,602,602,602,602,602,603,603,602,601,599,593,583,579,559,501,455,398,341,281,220,93],"timestamp_mouse":[19,40,62,79,99,120,140,159,180,201,219,240,260,279,300,320,340,359,380,399,420,441,460,480,500,519,539,560,579,600,621,640,659,679,699,720,740,760,779,799,819,840,859,879,899,919,941,960,979,999,1019,1040,1059,1080,1099,1120,1139,1160,1179,1200,1220,1239,1259,1279,1299,1319,1341,1360,1380,1400,1419,1439,1459,1479,1499,1520,1540,1560,1580,1599,1619,1639,1660,1679,1699],"xSR":741.5,"ySR":573.95,"xT1":424.9,"yT1":0,"xT2":1058.1,"yT2":0,"toosoon":0,"cond_shown":"Congruent","ratio_trial":300,"L_num":5,"L_den":25,"R_num":7,"R_den":14,"correct_side":2,"subjID":"oscar samuel martinez runza 3","gender":"0","school":"4d","age":"8 años"},{"start_time":1552313234444,"click_time":1552313238692,"finger_time":1552313236751,"fix_duration":250,"trial":27,"RT":2307,"MT":1941,"sideResp":1,"stimulus":[],"xmouse":[757,757,757,757,757,757,757,757,757,757,757,757,757,757,757,757,757,757,757,757,757,757,757,757,757,757,757,757,757,757,757,757,757,757,757,757,757,757,757,757,757,757,757,757,757,757,757,757,757,757,757,757,757,757,757,757,757,756,755,755,755,755,755,755,755,755,755,755,755,755,755,755,755,755,755,755,755,755,755,755,756,758,759,761,761,762,764,766,768,769,770,772,778,781,787,792,796,801,801,801,801,801,801,801,801,801,802,804,807,810,815,821,829,831,835,839,841,847,849,849,849,849,849,849,849,849,849,849,849,849,849,848,846,834,831,828,825,824,824,824,824,824,824,824,824,824,824,822,809,793,778,763,753,753,753,753,753,753,752,751,748,744,735,729,724,721,718,705,697,688,676,664,638,622,606,590,572,566,562,560,559,559,559,559,559,559,559,559,558,556,554,551,541,534,525,515,505,498,498,498,498,498,498,498,498,498,498,498,495,492,491,489,487],"ymouse":[614,614,614,614,614,614,614,614,614,614,614,614,614,614,614,614,614,614,614,614,614,614,614,614,614,614,614,614,614,614,614,614,614,614,614,614,614,614,614,614,614,614,614,614,614,614,614,614,614,614,614,612,611,611,611,611,611,609,607,607,607,607,607,607,607,607,607,607,607,607,607,607,607,607,607,607,607,607,607,606,606,606,607,607,607,608,609,611,612,612,613,614,617,618,621,623,624,624,624,624,624,624,624,624,624,624,624,624,623,621,618,612,599,592,582,572,569,556,553,550,549,549,549,549,549,549,549,549,549,549,549,550,556,587,601,612,622,624,625,625,625,625,625,625,625,625,625,621,599,580,563,552,546,546,546,546,546,546,546,544,539,528,504,492,484,477,472,448,436,423,410,399,377,366,356,345,331,326,317,313,310,305,300,289,284,279,271,268,248,240,231,220,192,179,165,152,145,141,141,141,141,141,141,141,141,141,141,141,129,122,117,111,98],"timestamp_mouse":[12,32,48,68,88,107,128,147,167,188,208,228,248,267,288,308,328,347,367,387,408,427,448,467,488,508,528,549,568,587,608,628,648,667,688,708,728,748,767,787,807,827,847,867,888,907,928,949,968,988,1007,1028,1048,1067,1088,1107,1128,1147,1168,1188,1208,1227,1248,1268,1287,1307,1327,1348,1368,1389,1407,1428,1449,1469,1487,1507,1527,1549,1569,1587,1607,1627,1647,1667,1688,1707,1727,1747,1767,1788,1807,1827,1847,1867,1887,1907,1929,1947,1968,1988,2007,2027,2049,2067,2088,2108,2127,2147,2168,2187,2208,2227,2247,2267,2287,2307,2327,2347,2367,2387,2407,2428,2447,2468,2489,2508,2528,2548,2567,2587,2608,2628,2647,2667,2688,2708,2727,2748,2769,2787,2808,2828,2847,2868,2887,2908,2927,2947,2968,2987,3007,3027,3048,3067,3088,3109,3128,3148,3168,3187,3207,3227,3248,3267,3287,3307,3328,3347,3367,3388,3408,3427,3448,3467,3488,3507,3527,3547,3568,3587,3608,3627,3648,3667,3688,3707,3728,3747,3768,3787,3807,3827,3848,3867,3888,3907,3927,3948,3967,3987,4007,4029,4049,4067,4087,4107,4128,4147,4167,4187,4208,4228,4248],"xSR":741.5,"ySR":573.95,"xT1":424.9,"yT1":0,"xT2":1058.1,"yT2":0,"toosoon":0,"cond_shown":"Incongruent","ratio_trial":200,"L_num":1,"L_den":3,"R_num":2,"R_den":15,"correct_side":1,"subjID":"oscar samuel martinez runza 3","gender":"0","school":"4d","age":"8 años"},{"start_time":1552313245068,"click_time":1552313247532,"finger_time":1552313246412,"fix_duration":1375.4138163824166,"trial":28,"RT":1344,"MT":1120,"sideResp":2,"stimulus":[],"xmouse":[805,805,805,805,805,805,805,805,805,805,805,805,805,805,805,805,805,805,805,805,805,805,805,805,805,805,805,805,805,805,805,805,805,805,805,805,805,805,805,805,805,805,805,805,805,805,805,805,805,805,805,805,805,805,805,805,805,805,805,805,805,805,805,805,805,815,829,955,1024,1095,1157,1200,1277,1295,1315,1332,1349,1370,1377,1383,1388,1389,1379,1369,1360,1352,1349,1347,1347,1347,1345,1341,1335,1331,1326,1322,1318,1318,1318,1317,1315,1313,1309,1305,1296,1286,1272,1255,1220,1205,1197,1188,1186,1186,1186,1186,1185,1184,1182,1180,1178,1170,1161,1140],"ymouse":[595,595,595,595,595,595,595,595,595,595,595,595,595,595,595,595,595,595,595,595,595,595,595,595,595,595,595,595,595,595,595,595,595,595,595,595,595,595,595,595,595,595,595,595,595,595,595,595,595,595,595,595,595,595,595,595,595,595,595,595,595,595,595,595,595,587,576,484,432,378,327,290,233,220,206,195,184,158,139,112,76,40,0,0,0,0,0,0,0,0,0,4,12,15,16,17,17,17,17,17,17,17,17,17,17,17,21,26,40,50,58,65,67,67,67,67,67,67,67,67,67,65,64,60],"timestamp_mouse":[14,23,43,64,83,104,123,143,163,183,203,224,245,263,283,303,324,344,365,383,404,423,444,464,484,503,524,543,564,585,603,624,644,663,684,703,724,745,765,785,804,824,844,864,883,904,923,944,963,984,1003,1024,1043,1064,1083,1104,1123,1143,1164,1184,1203,1224,1243,1264,1283,1304,1323,1344,1363,1385,1403,1423,1443,1463,1484,1503,1524,1544,1563,1583,1603,1623,1646,1664,1683,1703,1725,1744,1764,1783,1804,1823,1844,1863,1883,1903,1925,1944,1963,1983,2004,2024,2045,2063,2083,2104,2123,2143,2163,2183,2203,2223,2244,2264,2283,2305,2325,2344,2363,2383,2404,2424,2443,2464],"xSR":741.5,"ySR":573.95,"xT1":424.9,"yT1":0,"xT2":1058.1,"yT2":0,"toosoon":0,"cond_shown":"Incongruent","ratio_trial":300,"L_num":13,"L_den":26,"R_num":12,"R_den":15,"correct_side":2,"subjID":"oscar samuel martinez runza 3","gender":"0","school":"4d","age":"8 años"},{"start_time":1552313249950,"click_time":1552313251691,"finger_time":1552313251432,"fix_duration":396.1450906499439,"trial":29,"RT":1482,"MT":259,"sideResp":1,"stimulus":[],"xmouse":[792,792,792,792,792,792,792,792,792,792,792,792,792,792,792,792,792,792,792,792,792,792,792,792,792,792,792,792,792,792,792,792,792,792,792,792,792,792,792,792,792,792,792,792,792,792,792,792,792,792,792,792,792,792,792,792,792,792,792,792,792,792,792,792,801,801,801,800,795,793,793,793,792,791,769,753,734,719,712,706,703,696,683,653,599,575,550,523],"ymouse":[594,594,594,594,594,594,594,594,594,594,594,594,594,594,594,594,594,594,594,594,594,594,594,594,594,594,594,594,594,594,594,594,594,594,594,594,594,594,594,594,594,594,594,594,594,594,594,594,594,594,594,594,594,594,594,594,594,594,594,594,594,594,594,594,590,590,590,590,588,587,587,587,583,580,564,558,549,543,536,511,485,443,390,325,239,185,119,42],"timestamp_mouse":[9,21,42,61,81,103,123,141,161,181,202,223,243,262,282,301,322,343,362,382,401,421,442,462,482,503,521,543,562,581,602,621,643,662,682,702,721,743,761,781,802,821,841,862,882,901,922,941,962,982,1001,1022,1041,1062,1081,1101,1122,1142,1163,1182,1202,1221,1243,1262,1281,1302,1322,1341,1361,1381,1402,1421,1441,1462,1482,1501,1521,1542,1561,1581,1601,1621,1641,1661,1681,1701,1721,1741],"xSR":741.5,"ySR":573.95,"xT1":424.9,"yT1":0,"xT2":1058.1,"yT2":0,"toosoon":0,"cond_shown":"Congruent","ratio_trial":200,"L_num":15,"L_den":25,"R_num":4,"R_den":10,"correct_side":1,"subjID":"oscar samuel martinez runza 3","gender":"0","school":"4d","age":"8 años"},{"start_time":1552313254690,"click_time":1552313257793,"finger_time":1552313256651,"fix_duration":1216.5472628939665,"trial":30,"RT":1961,"MT":1142,"sideResp":2,"stimulus":[],"xmouse":[802,802,802,802,802,802,802,802,802,802,802,802,802,802,802,802,802,802,802,802,802,802,802,802,802,802,802,802,802,802,802,802,802,802,802,802,802,802,802,802,802,802,802,802,802,802,802,802,802,802,802,802,802,802,802,802,802,802,802,802,802,802,802,802,802,802,802,802,802,802,802,802,802,802,802,802,802,802,802,802,802,802,802,802,802,802,802,802,802,802,802,802,802,802,802,802,802,802,797,795,798,806,814,816,816,816,816,816,818,822,830,838,857,869,894,912,931,948,985,1005,1020,1033,1059,1074,1093,1125,1149,1171,1192,1193,1193,1193,1193,1194,1195,1195,1195,1195,1195,1195,1195,1195,1194,1194,1193,1193,1191,1184,1181,1178,1175,1171,1167,1161,1159,1158],"ymouse":[627,627,627,627,627,627,627,627,627,627,627,627,627,627,627,627,627,627,627,627,627,627,627,627,627,627,627,627,627,627,627,627,627,627,627,627,627,627,627,627,627,627,627,627,627,627,627,627,627,627,627,627,627,627,627,627,627,627,627,627,627,627,627,627,627,627,627,627,627,627,627,627,627,627,627,627,627,627,627,627,627,627,627,627,627,627,627,627,627,627,627,627,627,627,627,627,627,622,567,549,536,523,513,506,504,504,504,503,496,487,474,458,423,404,374,352,325,298,242,220,198,182,161,152,144,128,110,90,46,34,23,16,11,2,0,0,0,0,0,0,0,0,1,2,4,4,6,12,15,17,19,23,27,35,36,38],"timestamp_mouse":[10,22,41,62,81,101,122,141,161,182,201,221,243,261,282,302,323,341,362,381,401,421,442,462,481,501,521,542,562,581,601,622,641,661,682,702,721,742,761,782,802,821,842,862,883,902,922,942,963,981,1001,1021,1041,1063,1082,1101,1122,1141,1161,1182,1202,1221,1242,1261,1282,1302,1322,1342,1361,1382,1401,1422,1443,1461,1481,1502,1522,1541,1562,1582,1602,1621,1641,1662,1682,1701,1722,1741,1762,1781,1803,1821,1842,1863,1881,1902,1922,1942,1961,1981,2001,2021,2041,2061,2081,2102,2122,2141,2162,2182,2201,2221,2242,2261,2282,2301,2321,2341,2362,2381,2402,2421,2442,2461,2481,2501,2521,2541,2562,2581,2602,2622,2642,2662,2681,2701,2722,2743,2762,2781,2801,2821,2842,2863,2881,2901,2922,2944,2961,2982,3002,3021,3041,3061,3082,3102],"xSR":741.5,"ySR":573.95,"xT1":424.9,"yT1":0,"xT2":1058.1,"yT2":0,"toosoon":0,"cond_shown":"Congruent","ratio_trial":100,"L_num":4,"L_den":10,"R_num":15,"R_den":30,"correct_side":2,"subjID":"oscar samuel martinez runza 3","gender":"0","school":"4d","age":"8 años"},{"start_time":1552313261764,"click_time":1552313265131,"finger_time":1552313263772,"fix_duration":250,"trial":31,"RT":2008,"MT":1359,"sideResp":1,"stimulus":[],"xmouse":[803,803,803,803,803,803,803,803,803,803,803,803,803,803,803,803,803,803,803,803,803,803,803,803,803,803,803,803,803,803,803,803,803,803,803,803,803,803,803,803,803,803,803,803,803,803,803,803,803,803,803,803,803,803,803,803,803,803,803,803,803,803,803,803,803,803,803,803,803,803,803,803,803,803,803,803,803,803,803,803,803,803,803,803,803,803,803,803,803,803,803,803,803,803,803,803,803,806,806,784,694,678,668,656,598,542,473,387,284,244,213,211,211,211,211,211,211,213,213,215,218,221,223,225,228,232,239,247,260,272,274,276,276,277,290,299,318,334,352,353,353,354,355,355,356,356,356,356,357,359,372,381,388,389,390,390,390,390,390,391,392,393,397,402,415,419,421,423,426],"ymouse":[638,638,638,638,638,638,638,638,638,638,638,638,638,638,638,638,638,638,638,638,638,638,638,638,638,638,638,638,638,638,638,638,638,638,638,638,638,638,638,638,638,638,638,638,638,638,638,638,638,638,638,638,638,638,638,638,638,638,638,638,638,638,638,638,638,638,638,638,638,638,638,638,6