[{"start_time":1552309819597,"click_time":1552309820978,"finger_time":1552309820277,"fix_duration":1435.3609455755686,"trial":0,"RT":680,"MT":701,"sideResp":2,"stimulus":"img/900/randomdotsizeEA/L/1_Ratio_900_L_10_R_9.png","xmouse":[783,783,783,783,783,783,783,783,783,783,783,783,783,783,783,783,783,783,783,783,783,783,783,783,783,783,783,783,783,783,783,783,781,755,738,680,638,574,559,554,553,553,605,624,626,635,654,736,794,836,877,905,952,978,1001,1040,1068,1105,1176,1196,1208,1209,1210,1207,1205,1191,1180,1167,1153,1150],"ymouse":[545,545,545,545,545,545,545,545,545,545,545,545,545,545,545,545,545,545,545,545,545,545,545,545,545,545,545,545,545,545,545,545,544,523,510,467,444,414,407,404,403,403,391,383,381,378,371,346,324,311,298,291,283,283,283,282,279,272,253,247,242,241,240,228,224,197,177,153,111,95],"timestamp_mouse":[10,20,50,60,81,101,120,140,160,180,200,220,240,259,281,301,320,341,361,380,401,421,439,461,480,500,520,540,560,581,599,620,641,660,680,700,720,741,760,781,800,821,841,859,879,901,919,941,960,980,1000,1020,1041,1060,1081,1100,1121,1139,1160,1180,1200,1220,1241,1259,1280,1299,1321,1340,1360,1380],"xSR":741.5,"ySR":501.8,"xT1":424.9,"yT1":0,"xT2":1058.1,"yT2":0,"toosoon":0,"cond_shown":"randomdotsizeEA","ratio_trial":900,"smaller_num":"9","larger_num":"10","correct_side":1,"subjID":"PAULANEIRAPAEZ29","gender":"1","age":"10","school":"4","test":{"fix_dur":[250,1500],"timestim":300,"targets_dim":[100,100],"targets_relative_coord":[0.3,0.7],"size_stim":[880,420],"start_dim":[100,100],"size_start":[300,300],"size_fix":60,"samplingrate":20,"img_types":["equaldotsize","equaldotanddens","randomdotsizeEA"],"ratios":[250,500,750,900],"rep_conds":9,"nTrials":120,"trials_to_rest":500,"Trials_order":[35,43,82,58,52,103,44,92,117,71,21,9,81,91,85,51,48,31,84,22,69,66,54,23,14,78,62,27,6,75,25,68,60,94,88,39,63,50,38,4,101,45,99,61,87,67,56,79,32,77,40,72,3,15,12,36,107,37,104,28,86,80,42,1,74,70,41,33,109,73,98,57,97,26,95,76,29,93,8,105,18,59,34,106,13,118,16,10,7,30,64,108,0,110,83,96,17,114,2,100,90,49,47,53,19,112,5,111,46,24,115,55,89,65,102,116,119,20,113,11],"cond_shown":["randomdotsizeEA","equaldotanddens","equaldotanddens","equaldotanddens","equaldotanddens","equaldotanddens","randomdotsizeEA","randomdotsizeEA","equaldotsize","randomdotsizeEA","equaldotsize","equaldotsize","equaldotsize","equaldotanddens","equaldotanddens","equaldotsize","equaldotsize","equaldotanddens","equaldotsize","equaldotanddens","equaldotsize","equaldotsize","equaldotsize","randomdotsizeEA","randomdotsizeEA","equaldotsize","randomdotsizeEA","equaldotsize","equaldotsize","equaldotsize","equaldotanddens","randomdotsizeEA","equaldotsize","equaldotanddens","equaldotanddens","equaldotsize","equaldotsize","randomdotsizeEA","randomdotsizeEA","equaldotanddens","randomdotsizeEA","equaldotsize","equaldotsize","equaldotanddens","equaldotsize","equaldotanddens","randomdotsizeEA","equaldotanddens","randomdotsizeEA","randomdotsizeEA","equaldotanddens","equaldotsize","equaldotsize","equaldotsize","equaldotsize","equaldotsize","randomdotsizeEA","equaldotanddens","randomdotsizeEA","equaldotanddens","randomdotsizeEA","randomdotsizeEA","equaldotsize","equaldotanddens","randomdotsizeEA","equaldotanddens","randomdotsizeEA","equaldotsize","equaldotanddens","equaldotanddens","randomdotsizeEA","equaldotsize","equaldotanddens","randomdotsizeEA","randomdotsizeEA","equaldotanddens","randomdotsizeEA","equaldotsize","randomdotsizeEA","equaldotsize","equaldotsize","randomdotsizeEA","equaldotanddens","equaldotanddens","equaldotanddens","equaldotanddens","equaldotanddens","equaldotanddens","equaldotanddens","equaldotsize","equaldotanddens","equaldotsize","equaldotsize","randomdotsizeEA","randomdotsizeEA","equaldotsize","randomdotsizeEA","equaldotsize","randomdotsizeEA","equaldotanddens","equaldotsize","equaldotanddens","randomdotsizeEA","randomdotsizeEA","equaldotanddens","equaldotanddens","randomdotsizeEA","equaldotsize","equaldotanddens","equaldotsize","equaldotanddens","equaldotanddens","randomdotsizeEA","randomdotsizeEA","equaldotsize","randomdotsizeEA","randomdotsizeEA","randomdotsizeEA","randomdotsizeEA","randomdotsizeEA"],"ratio_trial":[900,750,900,900,500,750,750,750,900,900,900,900,900,750,250,500,250,750,250,900,900,750,750,900,250,750,250,500,750,500,250,750,250,900,500,500,500,250,250,500,500,900,500,250,500,750,750,750,750,500,500,250,500,500,250,250,900,250,750,500,250,750,750,250,250,900,500,900,250,250,250,900,250,250,900,500,500,900,750,900,750,900,900,900,250,900,500,900,750,750,500,250,250,250,900,250,500,750,250,500,750,250,900,500,750,500,500,500,900,250,750,750,500,500,750,750,900,750,500,900],"smaller_num":["9","18","9","18","9","15","6","3","18","18","18","18","18","3","6","9","3","15","4","9","18","6","6","18","6","3","2","2","15","1","3","15","4","18","9","2","6","2","2","6","6","9","4","2","5","6","3","3","6","5","3","5","6","3","3","2","18","4","18","9","6","3","12","1","3","18","1","9","4","4","1","18","2","3","18","10","6","18","3","18","6","18","18","18","3","9","5","18","15","12","4","2","4","3","18","6","1","15","5","9","18","3","18","3","3","2","1","9","18","3","9","12","2","5","3","9","18","9","9","18"],"larger_num":["10","24","10","20","18","20","8","4","20","20","20","20","20","4","24","18","12","20","16","10","20","8","8","20","24","4","8","4","20","2","12","20","16","20","18","4","12","8","8","12","12","10","8","8","10","8","4","4","8","10","6","20","12","6","12","8","20","16","24","18","24","4","16","4","12","20","2","10","16","16","4","20","8","12","20","20","12","20","4","20","8","20","20","20","12","10","10","20","20","16","8","8","16","12","20","24","2","20","20","18","24","12","20","6","4","4","2","18","20","12","12","16","4","10","4","12","20","12","18","20"],"correct_side":[1,1,1,2,2,2,1,1,2,1,1,1,1,2,2,1,2,2,2,1,2,1,1,1,2,2,1,1,1,2,2,1,1,2,1,1,1,2,1,1,1,2,1,2,1,2,1,1,1,1,2,2,1,2,1,1,1,2,1,2,1,1,2,2,1,2,2,2,1,1,2,2,2,2,2,2,1,1,2,1,1,1,1,1,2,2,1,1,1,2,1,1,1,2,1,1,2,1,2,1,1,2,1,2,1,1,2,2,1,2,2,2,1,1,1,2,1,2,2,1],"img_shown":["img/900/randomdotsizeEA/L/1_Ratio_900_L_10_R_9.png","img/750/equaldotanddens/L/6_Ratio_750_L_24_R_18.png","img/900/equaldotanddens/L/1_Ratio_900_L_10_R_9.png","img/900/equaldotanddens/R/11_Ratio_900_L_18_R_20.png","img/500/equaldotanddens/R/1_Ratio_500_L_9_R_18.png","img/750/equaldotanddens/R/3_Ratio_750_L_15_R_20.png","img/750/randomdotsizeEA/L/13_Ratio_750_L_8_R_6.png","img/750/randomdotsizeEA/L/10_Ratio_750_L_4_R_3.png","img/900/equaldotsize/R/12_Ratio_900_L_18_R_20.png","img/900/randomdotsizeEA/L/10_Ratio_900_L_20_R_18.png","img/900/equaldotsize/L/10_Ratio_900_L_20_R_18.png","img/900/equaldotsize/L/4_Ratio_900_L_20_R_18.png","img/900/equaldotsize/L/8_Ratio_900_L_20_R_18.png","img/750/equaldotanddens/R/12_Ratio_750_L_3_R_4.png","img/250/equaldotanddens/R/6_Ratio_250_L_6_R_24.png","img/500/equaldotsize/L/4_Ratio_500_L_18_R_9.png","img/250/equaldotsize/R/9_Ratio_250_L_3_R_12.png","img/750/equaldotanddens/R/4_Ratio_750_L_15_R_20.png","img/250/equaldotsize/R/10_Ratio_250_L_4_R_16.png","img/900/equaldotanddens/L/1_Ratio_900_L_10_R_9.png","img/900/equaldotsize/R/13_Ratio_900_L_18_R_20.png","img/750/equaldotsize/L/13_Ratio_750_L_8_R_6.png","img/750/equaldotsize/L/14_Ratio_750_L_8_R_6.png","img/900/randomdotsizeEA/L/2_Ratio_900_L_20_R_18.png","img/250/randomdotsizeEA/R/6_Ratio_250_L_6_R_24.png","img/750/equaldotsize/R/12_Ratio_750_L_3_R_4.png","img/250/randomdotsizeEA/L/3_Ratio_250_L_8_R_2.png","img/500/equaldotsize/L/10_Ratio_500_L_4_R_2.png","img/750/equaldotsize/L/1_Ratio_750_L_20_R_15.png","img/500/equaldotsize/R/12_Ratio_500_L_1_R_2.png","img/250/equaldotanddens/R/11_Ratio_250_L_3_R_12.png","img/750/randomdotsizeEA/L/1_Ratio_750_L_20_R_15.png","img/250/equaldotsize/L/2_Ratio_250_L_16_R_4.png","img/900/equaldotanddens/R/11_Ratio_900_L_18_R_20.png","img/500/equaldotanddens/L/4_Ratio_500_L_18_R_9.png","img/500/equaldotsize/L/5_Ratio_500_L_4_R_2.png","img/500/equaldotsize/L/13_Ratio_500_L_12_R_6.png","img/250/randomdotsizeEA/R/13_Ratio_250_L_2_R_8.png","img/250/randomdotsizeEA/L/7_Ratio_250_L_8_R_2.png","img/500/equaldotanddens/L/11_Ratio_500_L_12_R_6.png","img/500/randomdotsizeEA/L/13_Ratio_500_L_12_R_6.png","img/900/equaldotsize/R/7_Ratio_900_L_9_R_10.png","img/500/equaldotsize/L/8_Ratio_500_L_8_R_4.png","img/250/equaldotanddens/R/13_Ratio_250_L_2_R_8.png","img/500/equaldotsize/L/7_Ratio_500_L_10_R_5.png","img/750/equaldotanddens/R/2_Ratio_750_L_6_R_8.png","img/750/randomdotsizeEA/L/9_Ratio_750_L_4_R_3.png","img/750/equaldotanddens/L/10_Ratio_750_L_4_R_3.png","img/750/randomdotsizeEA/L/14_Ratio_750_L_8_R_6.png","img/500/randomdotsizeEA/L/7_Ratio_500_L_10_R_5.png","img/500/equaldotanddens/R/2_Ratio_500_L_3_R_6.png","img/250/equaldotsize/R/12_Ratio_250_L_5_R_20.png","img/500/equaldotsize/L/13_Ratio_500_L_12_R_6.png","img/500/equaldotsize/R/2_Ratio_500_L_3_R_6.png","img/250/equaldotsize/L/15_Ratio_250_L_12_R_3.png","img/250/equaldotsize/L/1_Ratio_250_L_8_R_2.png","img/900/randomdotsizeEA/L/8_Ratio_900_L_20_R_18.png","img/250/equaldotanddens/R/10_Ratio_250_L_4_R_16.png","img/750/randomdotsizeEA/L/6_Ratio_750_L_24_R_18.png","img/500/equaldotanddens/R/6_Ratio_500_L_9_R_18.png","img/250/randomdotsizeEA/L/5_Ratio_250_L_24_R_6.png","img/750/randomdotsizeEA/L/9_Ratio_750_L_4_R_3.png","img/750/equaldotsize/R/11_Ratio_750_L_12_R_16.png","img/250/equaldotanddens/R/8_Ratio_250_L_1_R_4.png","img/250/randomdotsizeEA/L/15_Ratio_250_L_12_R_3.png","img/900/equaldotanddens/R/14_Ratio_900_L_18_R_20.png","img/500/randomdotsizeEA/R/12_Ratio_500_L_1_R_2.png","img/900/equaldotsize/R/7_Ratio_900_L_9_R_10.png","img/250/equaldotanddens/L/2_Ratio_250_L_16_R_4.png","img/250/equaldotanddens/L/2_Ratio_250_L_16_R_4.png","img/250/randomdotsizeEA/R/8_Ratio_250_L_1_R_4.png","img/900/equaldotsize/R/12_Ratio_900_L_18_R_20.png","img/250/equaldotanddens/R/13_Ratio_250_L_2_R_8.png","img/250/randomdotsizeEA/R/4_Ratio_250_L_3_R_12.png","img/900/randomdotsizeEA/R/14_Ratio_900_L_18_R_20.png","img/500/equaldotanddens/R/3_Ratio_500_L_10_R_20.png","img/500/randomdotsizeEA/L/13_Ratio_500_L_12_R_6.png","img/900/equaldotsize/L/8_Ratio_900_L_20_R_18.png","img/750/randomdotsizeEA/R/7_Ratio_750_L_3_R_4.png","img/900/equaldotsize/L/4_Ratio_900_L_20_R_18.png","img/750/equaldotsize/L/13_Ratio_750_L_8_R_6.png","img/900/randomdotsizeEA/L/8_Ratio_900_L_20_R_18.png","img/900/equaldotanddens/L/8_Ratio_900_L_20_R_18.png","img/900/equaldotanddens/L/8_Ratio_900_L_20_R_18.png","img/250/equaldotanddens/R/11_Ratio_250_L_3_R_12.png","img/900/equaldotanddens/R/3_Ratio_900_L_9_R_10.png","img/500/equaldotanddens/L/7_Ratio_500_L_10_R_5.png","img/900/equaldotanddens/L/10_Ratio_900_L_20_R_18.png","img/750/equaldotanddens/L/1_Ratio_750_L_20_R_15.png","img/750/equaldotsize/R/11_Ratio_750_L_12_R_16.png","img/500/equaldotanddens/L/8_Ratio_500_L_8_R_4.png","img/250/equaldotsize/L/1_Ratio_250_L_8_R_2.png","img/250/equaldotsize/L/2_Ratio_250_L_16_R_4.png","img/250/randomdotsizeEA/R/9_Ratio_250_L_3_R_12.png","img/900/randomdotsizeEA/L/8_Ratio_900_L_20_R_18.png","img/250/equaldotsize/L/5_Ratio_250_L_24_R_6.png","img/500/randomdotsizeEA/R/12_Ratio_500_L_1_R_2.png","img/750/equaldotsize/L/1_Ratio_750_L_20_R_15.png","img/250/randomdotsizeEA/R/12_Ratio_250_L_5_R_20.png","img/500/equaldotanddens/L/4_Ratio_500_L_18_R_9.png","img/750/equaldotsize/L/6_Ratio_750_L_24_R_18.png","img/250/equaldotanddens/R/4_Ratio_250_L_3_R_12.png","img/900/randomdotsizeEA/L/10_Ratio_900_L_20_R_18.png","img/500/randomdotsizeEA/R/2_Ratio_500_L_3_R_6.png","img/750/equaldotanddens/L/9_Ratio_750_L_4_R_3.png","img/500/equaldotanddens/L/10_Ratio_500_L_4_R_2.png","img/500/randomdotsizeEA/R/15_Ratio_500_L_1_R_2.png","img/500/equaldotsize/R/6_Ratio_500_L_9_R_18.png","img/900/equaldotanddens/L/4_Ratio_900_L_20_R_18.png","img/250/equaldotsize/R/4_Ratio_250_L_3_R_12.png","img/750/equaldotanddens/R/15_Ratio_750_L_9_R_12.png","img/750/equaldotanddens/R/11_Ratio_750_L_12_R_16.png","img/500/randomdotsizeEA/L/5_Ratio_500_L_4_R_2.png","img/500/randomdotsizeEA/L/7_Ratio_500_L_10_R_5.png","img/750/equaldotsize/L/8_Ratio_750_L_4_R_3.png","img/750/randomdotsizeEA/R/15_Ratio_750_L_9_R_12.png","img/900/randomdotsizeEA/L/2_Ratio_900_L_20_R_18.png","img/750/randomdotsizeEA/R/15_Ratio_750_L_9_R_12.png","img/500/randomdotsizeEA/R/1_Ratio_500_L_9_R_18.png","img/900/randomdotsizeEA/L/8_Ratio_900_L_20_R_18.png"],"Rat0":[["12_Ratio_0_L_9_R_0.png","13_Ratio_0_L_6_R_0.png","5_Ratio_0_L_2_R_0.png","6_Ratio_0_L_4_R_0.png","8_Ratio_0_L_6_R_0.png"],["1_Ratio_0_L_0_R_17.png","10_Ratio_0_L_0_R_22.png","11_Ratio_0_L_0_R_1.png","14_Ratio_0_L_0_R_24.png","15_Ratio_0_L_0_R_4.png","2_Ratio_0_L_0_R_5.png","3_Ratio_0_L_0_R_17.png","4_Ratio_0_L_0_R_7.png","7_Ratio_0_L_0_R_19.png","9_Ratio_0_L_0_R_15.png"]],"Rat250":[["1_Ratio_250_L_8_R_2.png","14_Ratio_250_L_12_R_3.png","15_Ratio_250_L_12_R_3.png","2_Ratio_250_L_16_R_4.png","3_Ratio_250_L_8_R_2.png","5_Ratio_250_L_24_R_6.png","7_Ratio_250_L_8_R_2.png"],["10_Ratio_250_L_4_R_16.png","11_Ratio_250_L_3_R_12.png","12_Ratio_250_L_5_R_20.png","13_Ratio_250_L_2_R_8.png","4_Ratio_250_L_3_R_12.png","6_Ratio_250_L_6_R_24.png","8_Ratio_250_L_1_R_4.png","9_Ratio_250_L_3_R_12.png"]],"Rat500":[["10_Ratio_500_L_4_R_2.png","11_Ratio_500_L_12_R_6.png","13_Ratio_500_L_12_R_6.png","4_Ratio_500_L_18_R_9.png","5_Ratio_500_L_4_R_2.png","7_Ratio_500_L_10_R_5.png","8_Ratio_500_L_8_R_4.png"],["1_Ratio_500_L_9_R_18.png","12_Ratio_500_L_1_R_2.png","14_Ratio_500_L_5_R_10.png","15_Ratio_500_L_1_R_2.png","2_Ratio_500_L_3_R_6.png","3_Ratio_500_L_10_R_20.png","6_Ratio_500_L_9_R_18.png","9_Ratio_500_L_2_R_4.png"]],"Rat750":[["1_Ratio_750_L_20_R_15.png","10_Ratio_750_L_4_R_3.png","13_Ratio_750_L_8_R_6.png","14_Ratio_750_L_8_R_6.png","6_Ratio_750_L_24_R_18.png","8_Ratio_750_L_4_R_3.png","9_Ratio_750_L_4_R_3.png"],["11_Ratio_750_L_12_R_16.png","12_Ratio_750_L_3_R_4.png","15_Ratio_750_L_9_R_12.png","2_Ratio_750_L_6_R_8.png","3_Ratio_750_L_15_R_20.png","4_Ratio_750_L_15_R_20.png","5_Ratio_750_L_15_R_20.png","7_Ratio_750_L_3_R_4.png"]],"Rat900":[["1_Ratio_900_L_10_R_9.png","10_Ratio_900_L_20_R_18.png","2_Ratio_900_L_20_R_18.png","4_Ratio_900_L_20_R_18.png","8_Ratio_900_L_20_R_18.png"],["11_Ratio_900_L_18_R_20.png","12_Ratio_900_L_18_R_20.png","13_Ratio_900_L_18_R_20.png","14_Ratio_900_L_18_R_20.png","15_Ratio_900_L_9_R_10.png","3_Ratio_900_L_9_R_10.png","5_Ratio_900_L_9_R_10.png","6_Ratio_900_L_9_R_10.png","7_Ratio_900_L_9_R_10.png","9_Ratio_900_L_18_R_20.png"]],"Rat1000":[["10_Ratio_1000_L_16_R_16.png","11_Ratio_1000_L_6_R_6.png","12_Ratio_1000_L_14_R_14.png","13_Ratio_1000_L_20_R_20.png","15_Ratio_1000_L_15_R_15.png","2_Ratio_1000_L_17_R_17.png","4_Ratio_1000_L_9_R_9.png","5_Ratio_1000_L_6_R_6.png","6_Ratio_1000_L_19_R_19.png","8_Ratio_1000_L_14_R_14.png","9_Ratio_1000_L_25_R_25.png"],["1_Ratio_1000_L_1_R_1.png","14_Ratio_1000_L_17_R_17.png","3_Ratio_1000_L_17_R_17.png","7_Ratio_1000_L_6_R_6.png"]]}},{"start_time":1552309823073,"click_time":1552309824338,"finger_time":1552309824056,"fix_duration":874.8844952950113,"trial":1,"RT":983,"MT":282,"sideResp":2,"stimulus":"img/750/equaldotanddens/L/6_Ratio_750_L_24_R_18.png","xmouse":[794,794,794,795,792,790,788,788,788,788,788,788,788,788,789,789,789,789,789,789,789,789,789,789,789,789,789,789,789,789,789,789,789,789,789,789,789,789,789,789,789,793,796,801,803,803,803,802,802,797,793,789,787,787,787,787,787,788,794,842,922,980,1033,1066],"ymouse":[539,539,539,539,539,539,539,539,539,539,539,539,539,539,539,539,539,539,539,539,539,539,539,539,539,539,539,539,539,539,539,539,539,539,539,539,539,539,539,539,539,538,535,522,492,487,483,482,479,455,441,430,423,421,418,414,406,390,367,272,179,133,94,71],"timestamp_mouse":[9,42,44,64,85,105,124,144,164,184,205,224,244,265,284,305,324,345,364,385,404,425,445,464,485,505,523,545,564,585,605,624,644,664,685,705,725,745,764,785,805,824,844,864,884,905,925,944,965,983,1004,1025,1045,1065,1084,1104,1124,1144,1165,1185,1204,1225,1244,1265],"xSR":741.5,"ySR":469.95,"xT1":424.9,"yT1":0,"xT2":1058.1,"yT2":0,"toosoon":0,"cond_shown":"equaldotanddens","ratio_trial":750,"smaller_num":"18","larger_num":"24","correct_side":1,"subjID":"PAULANEIRAPAEZ29","gender":"1","age":"10","school":"4"},{"start_time":1552309826409,"click_time":1552309933117,"finger_time":1552309827978,"fix_duration":750.0852730412382,"trial":2,"RT":1569,"MT":105139,"sideResp":1,"stimulus":"img/900/equaldotanddens/L/1_Ratio_900_L_10_R_9.png","xmouse":[801,801,801,801,801,801,801,801,801,801,801,801,801,801,801,801,801,801,801,801,801,801,801,801,801,801,801,801,799,797,795,795,794,798,799,799,799,799,799,799,799,799,799,799,799,799,799,799,799,799,799,799,799,799,799,799,799,799,799,799,799,799,799,799,799,799,799,801,804,807,808,809,809,809,809,809,812,823,857,922,937,977,983,983,983,983,983,983,983,983,983,983,983,983,983,983,983,983,983,983,983,983,983,983,983,983,983,983,983,983,983,983,983,983,983,983,983,983,983,983,983,983,983,983,983,983,983,983,983,983,983,983,983,983,983,983,983,983,983,983,983,983,983,983,983,983,983,983,983,983,983,983,983,983,983,983,983,983,983,983,983,983,983,983,983,983,983,983,983,983,983,983,983,983,983,983,983,983,983,983,983,983,983,983,983,983,983,983,983,983,983,983,983,983,983,983,983,983,983,983,983,983,983,983,983,983,983,983,983,983,983,983,983,983,983,983,983,983,983,983,983,983,983,983,983,983,983,983,983,983,983,983,983,983,983,983,983,983,983,983,983,983,983,983,983,983,983,983,983,983,983,983,983,983,983,983,983,983,983,983,983,983,983,983,983,983,983,983,983,983,983,983,983,983,983,983,983,983,983,983,983,983,983,983,983,983,983,983,983,983,983,983,983,983,983,983,983,983,983,983,983,983,983,983,983,983,983,983,983,983,983,983,983,983,983,983,983,983,983,983,983,983,983,983,983,983,983,983,983,983,983,983,983,983,983,983,983,983,983,983,983,983,983,983,983,983,983,983,983,983,983,983,983,983,983,983,983,983,983,983,983,983,983,983,983,983,983,983,983,983,983,983,983,983,983,983,983,983,983,983,983,983,983,983,983,983,983,983,983,983,983,983,983,983,983,983,983,983,983,983,983,983,983,983,983,983,983,983,983,983,983,983,983,983,983,983,983,983,983,983,983,983,983,983,983,983,983,983,983,983,983,983,983,983,983,983,983,983,983,983,983,983,983,983,983,983,983,983,983,983,983,983,983,983,983,983,983,983,983,983,983,983,983,983,983,983,983,983,983,983,983,983,983,983,983,983,983,983,983,983,983,983,983,983,983,983,983,983,983,983,983,983,983,983,983,983,983,983,983,983,983,983,983,983,983,983,983,983,983,983,983,983,983,983,983,983,983,983,983,983,983,983,983,983,983,983,983,983,983,983,983,983,983,983,983,983,983,983,983,983,983,983,983,983,983,983,983,983,983,983,983,983,983,983,983,983,983,983,983,983,983,983,983,983,983,983,983,983,983,983,983,983,983,983,983,983,983,983,983,983,983,983,983,983,983,983,983,983,983,983,983,983,983,983,983,983,983,983,983,983,983,983,983,983,983,983,983,983,983,983,983,983,983,983,983,983,983,983,983,983,983,983,983,983,983,983,983,983,983,983,983,983,983,983,983,983,983,983,983,983,983,983,983,983,983,983,983,983,983,983,983,983,983,983,983,983,983,983,983,983,983,983,983,983,983,983,983,983,983,983,983,983,983,983,983,983,983,983,983,983,983,983,983,983,983,983,983,983,983,983,983,983,983,983,983,983,983,983,983,983,983,983,983,983,983,983,983,983,983,983,983,983,983,983,983,983,983,983,983,983,983,983,983,983,983,983,983,983,983,983,983,983,983,983,983,983,983,983,983,983,983,983,983,983,983,983,983,983,983,983,983,983,983,983,983,983,983,983,983,983,983,983,983,983,983,983,983,983,983,983,983,983,983,983,983,983,983,983,983,983,983,983,983,983,983,983,983,983,983,983,983,983,983,983,983,983,983,983,983,983,983,983,983,983,983,983,983,983,983,983,983,983,983,983,983,983,983,983,983,983,983,983,983,983,983,983,983,983,983,983,983,983,983,983,983,983,983,983,983,983,983,983,983,983,983,983,983,983,983,983,983,983,983,983,983,983,983,983,983,983,983,983,983,983,983,983,983,983,983,983,983,983,983,983,983,983,983,983,983,983,983,983,983,983,983,983,983,983,983,983,983,983,983,983,983,983,983,983,983,983,983,983,983,983,983,983,983,983,983,983,983,983,983,983,983,983,983,983,983,983,983,983,983,983,983,983,983,983,983,983,983,983,983,983,983,983,983,983,983,983,983,983,983,983,983,983,983,983,983,983,983,983,983,983,983,983,983,983,983,983,983,983,983,983,983,983,983,983,983,983,983,983,983,983,983,983,983,983,983,983,983,983,983,983,983,983,983,983,983,983,983,983,983,983,983,983,983,983,983,983,983,983,983,983,983,983,983,983,983,983,983,983,983,983,983,983,983,983,983,983,983,983,983,983,983,983,983,983,983,983,983,983,983,983,983,983,983,983,983,983,983,983,983,983,983,983,983,983,983,983,983,983,983,983,983,983,983,983,983,983,983,983,983,983,983,983,983,983,983,983,983,983,983,983,983,983,983,983,983,983,983,983,983,983,983,983,983,983,983,983,983,983,983,983,983,983,983,983,983,983,983,983,983,983,983,983,983,983,983,983,983,983,983,983,983,983,983,983,983,983,983,983,983,983,983,983,983,983,983,983,983,983,983,983,983,983,983,983,983,983,983,983,983,983,983,983,983,983,983,983,983,983,983,983,983,983,983,983,983,983,983,983,983,983,983,983,983,983,983,983,983,983,983,983,983,983,983,983,983,983,983,983,983,983,983,983,983,983,983,983,983,983,983,983,983,983,983,983,983,983,983,983,983,983,983,983,983,983,983,983,983,983,983,983,983,983,983,983,983,983,983,983,983,983,983,983,983,983,983,983,983,983,983,983,983,983,983,983,983,983,983,983,983,983,983,983,983,983,983,983,983,983,983,983,983,983,983,983,983,983,983,983,983,983,983,983,983,983,983,983,983,983,983,983,983,983,983,983,983,983,983,983,983,983,983,983,983,983,983,983,983,983,983,983,983,983,983,983,983,983,983,983,983,983,983,983,983,983,983,983,983,983,983,983,983,983,983,983,983,983,983,983,983,983,983,983,983,983,983,983,983,983,983,983,983,983,983,983,983,983,983,983,983,983,983,983,983,983,983,983,983,983,983,983,983,983,983,983,983,983,983,983,983,983,983,983,983,983,983,983,983,983,983,983,983,983,983,983,983,983,983,983,983,983,983,983,983,983,983,983,983,983,983,983,983,983,983,983,983,983,983,983,983,983,983,983,983,983,983,983,983,983,983,983,983,983,983,983,983,983,983,983,983,983,983,983,983,983,983,983,983,983,983,983,983,983,983,983,983,983,983,983,983,983,983,983,983,983,983,983,983,983,983,983,983,983,983,983,983,983,983,983,983,983,983,983,983,983,983,983,983,983,983,983,983,983,983,983,983,983,983,983,983,983,983,983,983,983,983,983,983,983,983,983,983,983,983,983,983,983,983,983,983,983,983,983,983,983,983,983,983,983,983,983,983,983,983,983,983,983,983,983,983,983,983,983,983,983,983,983,983,983,983,983,983,983,983,983,983,983,983,983,983,983,983,983,983,983,983,983,983,983,983,983,983,983,983,983,983,983,983,983,983,983,983,983,983,983,983,983,983,983,983,983,983,983,983,983,983,983,983,983,983,983,983,983,983,983,983,983,983,983,983,983,983,983,983,983,983,983,983,983,983,983,983,983,983,983,983,983,983,983,983,983,983,983,983,983,983,983,983,983,983,983,983,983,983,983,983,983,983,983,983,983,983,983,983,983,983,983,983,983,983,983,983,983,983,983,983,983,983,983,983,983,983,983,983,983,983,983,983,983,983,983,983,983,983,983,983,983,983,983,983,983,983,983,983,983,983,983,983,983,983,983,983,983,983,983,983,983,983,983,983,983,983,983,983,983,983,983,983,983,983,983,983,983,983,983,983,983,983,983,983,983,983,983,983,983,983,983,983,983,983,983,983,983,983,983,983,983,983,983,983,983,983,983,983,983,983,983,983,983,983,983,983,983,983,983,983,983,983,983,983,983,983,983,983,983,983,983,983,983,983,983,983,983,983,983,983,983,983,983,983,983,983,983,983,983,983,983,983,983,983,983,983,983,983,983,983,983,983,983,983,983,983,983,983,983,983,983,983,983,983,983,983,983,983,983,983,983,983,983,983,983,983,983,983,983,983,983,983,983,983,983,983,983,983,983,983,983,983,983,983,983,983,983,983,983,983,983,983,983,983,983,983,983,983,983,983,983,983,983,983,983,983,983,983,983,983,983,983,983,983,983,983,983,983,983,983,983,983,983,983,983,983,983,983,983,983,983,983,983,983,983,983,983,983,983,983,983,983,983,983,983,983,983,983,983,983,983,983,983,983,983,983,983,983,983,983,983,983,983,983,983,983,983,983,983,983,983,983,983,983,983,983,983,983,983,983,983,983,983,983,983,983,983,983,983,983,983,983,983,983,983,983,983,983,983,983,983,983,983,983,983,983,983,983,983,983,983,983,983,983,983,983,983,983,983,983,983,983,983,983,983,983,983,983,983,983,983,983,983,983,983,983,983,983,983,983,983,983,983,983,983,983,983,983,983,983,983,983,983,983,983,983,983,983,983,983,983,983,983,983,983,983,983,983,983,983,983,983,983,983,983,983,983,983,983,983,983,983,983,983,983,983,983,983,983,983,983,983,983,983,983,983,983,983,983,983,983,983,983,983,983,983,983,983,983,983,983,983,983,983,983,983,983,983,983,983,983,983,983,983,983,983,983,983,983,983,983,983,983,983,983,983,983,983,983,983,983,983,983,983,983,983,983,983,983,983,983,983,983,983,983,983,983,983,983,983,983,983,983,983,983,983,983,983,983,983,983,983,983,983,983,983,983,983,983,983,983,983,983,983,983,983,983,983,983,983,983,983,983,983,983,983,983,983,983,983,983,983,983,983,983,983,983,983,983,983,983,983,983,983,983,983,983,983,983,983,983,983,983,983,983,983,983,983,983,983,983,983,983,983,983,983,983,983,983,983,983,983,983,983,983,983,983,983,983,983,983,983,983,983,983,983,983,983,983,983,983,983,983,983,983,983,983,983,983,983,983,983,983,983,983,983,983,983,983,983,983,983,983,983,983,983,983,983,983,983,983,983,983,983,983,983,983,983,983,983,983,983,983,983,983,983,983,983,983,983,983,983,983,983,983,983,983,983,983,983,983,983,983,983,983,983,983,983,983,983,983,983,983,983,983,983,983,983,983,983,983,983,983,983,983,983,983,983,983,983,983,983,983,983,983,983,983,983,983,983,983,983,983,983,983,983,983,983,983,983,983,983,983,983,983,983,983,983,983,983,983,983,983,983,983,983,983,983,983,983,983,983,983,983,983,983,983,983,983,983,983,983,983,983,983,983,983,983,983,983,983,983,983,983,983,983,983,983,983,983,983,983,983,983,983,983,983,983,983,983,983,983,983,983,983,983,983,983,983,983,983,983,983,983,983,983,983,983,983,983,983,983,983,983,983,983,983,983,983,983,983,983,983,983,983,983,983,983,983,983,983,983,983,983,983,983,983,983,983,983,983,983,983,983,983,983,983,983,983,983,983,983,983,983,983,983,983,983,983,983,983,983,983,983,983,983,983,983,983,983,983,983,983,983,983,983,983,983,983,983,983,983,983,983,983,983,983,983,983,983,983,983,983,983,983,983,983,983,983,983,983,983,983,983,983,983,983,983,983,983,983,983,983,983,983,983,983,983,983,983,983,983,983,983,983,983,983,983,983,983,983,983,983,983,983,983,983,983,983,983,983,983,983,983,983,983,983,983,983,983,983,983,983,983,983,983,983,983,983,983,983,983,983,983,983,983,983,983,983,983,983,983,983,983,983,983,983,983,983,983,983,983,983,983,983,983,983,983,983,983,983,983,983,983,983,983,983,983,983,983,983,983,983,983,983,983,983,983,983,983,983,983,983,983,983,983,983,983,983,983,983,983,983,983,983,983,983,983,983,983,983,983,983,983,983,983,983,983,983,983,983,983,983,983,983,983,983,983,983,983,983,983,983,983,983,983,983,983,983,983,983,983,983,983,983,983,983,983,983,983,983,983,983,983,983,983,983,983,983,983,983,983,983,983,983,983,983,983,983,983,983,983,983,983,983,983,983,983,983,983,983,983,983,983,983,983,983,983,983,983,983,983,983,983,983,983,983,983,983,983,983,983,983,983,983,983,983,983,983,983,983,983,983,983,983,983,983,983,983,983,983,983,983,983,983,983,983,983,983,983,983,983,983,983,983,983,983,983,983,983,983,983,983,983,983,983,983,983,983,983,983,983,983,983,983,983,983,983,983,983,983,983,983,983,983,983,983,983,983,983,983,983,983,983,983,983,983,983,983,983,983,983,983,983,983,983,983,983,983,983,983,983,983,983,983,983,983,983,983,983,983,983,983,983,983,983,983,983,983,983,983,983,983,983,983,983,983,983,983,983,983,983,983,983,983,983,983,983,983,983,983,983,983,983,983,983,983,983,983,983,983,983,983,983,983,983,983,983,983,983,983,983,983,983,983,983,983,983,983,983,983,983,983,983,983,983,983,983,983,983,983,983,983,983,983,983,983,983,983,983,983,983,983,983,983,983,983,983,983,983,983,983,983,983,983,983,983,983,983,983,983,983,983,983,983,983,983,983,983,983,983,983,983,983,983,983,983,983,983,983,983,983,983,983,983,983,983,983,983,983,983,983,983,983,983,983,983,983,983,983,983,983,983,983,983,983,983,983,983,983,983,983,983,983,983,983,983,983,983,983,983,983,983,983,983,983,983,983,983,983,983,983,983,983,983,983,983,983,983,983,983,983,983,983,983,983,983,983,983,983,983,983,983,983,983,983,983,983,983,983,983,983,983,983,983,983,983,983,983,983,983,983,983,983,983,983,983,983,983,983,983,983,983,983,983,983,983,983,983,983,983,983,983,983,983,983,983,983,983,983,983,983,983,983,983,983,983,983,983,983,983,983,983,983,983,983,983,983,983,983,983,983,983,983,983,983,983,983,983,983,983,983,983,983,983,983,983,983,983,983,983,983,983,983,983,983,983,983,983,983,983,983,983,983,983,983,983,983,983,983,983,983,983,983,983,983,983,983,983,983,983,983,983,983,983,983,983,983,983,983,983,983,983,983,983,983,983,983,983,983,983,983,983,983,983,983,983,983,983,983,983,983,983,983,983,983,983,983,983,983,983,983,983,983,983,983,983,983,983,983,983,983,983,983,983,983,983,983,983,983,983,983,983,983,983,983,983,983,983,983,983,983,983,983,983,983,983,983,983,983,983,983,983,983,983,983,983,983,983,983,983,983,983,983,983,983,983,983,983,983,983,983,983,983,983,983,983,983,983,983,983,983,983,983,983,983,983,983,983,983,983,983,983,983,983,983,983,983,983,983,983,983,983,983,983,983,983,983,983,983,983,983,983,983,983,983,983,983,983,983,983,983,983,983,983,983,983,983,983,983,983,983,983,983,983,983,983,983,983,983,983,983,983,983,983,983,983,983,983,983,983,983,983,983,983,983,983,983,983,983,983,983,983,983,983,983,983,983,983,983,983,983,983,983,983,983,983,983,983,983,983,983,983,983,983,983,983,983,983,983,983,983,983,983,983,983,983,983,983,983,983,983,983,983,983,983,983,983,983,983,983,983,983,983,983,983,983,983,983,983,983,983,983,983,983,983,983,983,983,983,983,983,983,983,983,983,983,983,983,983,983,983,983,983,983,983,983,983,983,983,983,983,983,983,983,983,983,983,983,983,983,983,983,983,983,983,983,983,983,983,983,983,983,983,983,983,983,983,983,983,983,983,983,983,983,983,983,983,983,983,983,983,983,983,983,983,983,983,983,983,983,983,983,983,983,983,983,983,983,983,983,983,983,983,983,983,983,983,983,983,983,983,983,983,983,983,983,983,983,983,983,983,983,983,983,983,983,983,983,983,983,983,983,983,983,983,983,983,983,983,983,983,983,983,983,983,983,983,983,983,983,983,983,983,983,983,983,983,983,983,983,983,983,983,983,983,983,983,983,983,983,983,983,983,983,983,983,983,983,983,983,983,983,983,983,983,983,983,983,983,983,983,983,983,983,983,983,983,983,983,983,983,983,983,983,983,983,983,983,983,983,983,983,983,983,983,983,983,983,983,983,983,983,983,983,983,983,983,983,983,983,983,983,983,983,983,983,983,983,983,983,983,983,983,983,983,983,983,983,983,983,983,983,983,983,983,983,983,983,983,983,983,983,983,983,983,983,983,983,983,983,983,983,983,983,983,983,983,983,983,983,983,983,983,983,983,983,983,983,983,983,983,983,983,983,983,983,983,983,983,983,983,983,983,983,983,983,983,983,983,983,983,983,983,983,983,983,983,983,983,983,983,983,983,983,983,983,983,983,983,983,983,983,983,983,983,983,983,983,983,983,983,983,983,983,983,983,983,983,983,983,983,983,983,983,983,983,983,983,983,983,983,983,983,983,983,983,983,983,983,983,983,983,983,983,983,983,983,983,983,983,983,983,983,983,983,983,983,983,983,983,983,983,983,983,983,983,983,983,983,983,983,983,983,983,983,983,983,983,983,983,983,983,983,983,983,983,983,983,983,983,983,983,983,983,983,983,983,983,983,983,983,983,983,983,983,983,983,983,983,983,983,983,983,983,983,983,983,983,983,983,983,983,983,983,983,983,983,983,983,983,983,983,983,983,983,983,983,983,983,983,983,983,983,983,983,983,983,983,983,983,983,983,983,983,983,983,983,983,983,983,983,983,983,983,983,983,983,983,983,983,983,983,983,983,983,983,983,983,983,983,983,983,983,983,983,983,983,983,983,983,983,983,983,983,983,983,983,983,983,983,983,983,983,983,983,983,983,983,983,983,983,983,983,983,983,983,983,983,983,983,983,983,983,983,983,983,983,983,983,983,983,983,983,983,983,983,983,983,983,983,983,983,983,983,983,983,983,983,983,983,983,983,983,983,983,983,983,983,983,983,983,983,983,983,983,983,983,983,983,983,983,983,983,983,983,983,983,983,983,983,983,983,983,983,983,983,983,983,983,983,983,983,983,983,983,983,983,983,983,983,983,983,983,983,983,983,983,983,983,983,983,983,983,983,983,983,983,983,983,983,983,983,983,983,983,983,983,983,983,983,983,983,983,983,983,983,983,983,983,983,983,983,983,983,983,983,983,983,983,983,983,983,983,983,983,983,983,983,983,983,983,983,983,983,983,983,983,983,983,983,983,983,983,983,983,983,983,983,983,983,983,983,983,983,983,983,983,983,983,983,983,983,983,983,983,983,983,983,983,983,983,983,983,983,983,983,983,983,983,983,983,983,983,983,983,983,983,983,983,983,983,983,983,983,983,983,983,983,983,983,983,983,983,983,983,983,983,983,983,983,983,983,983,983,983,983,983,983,983,983,983,983,983,983,983,983,983,983,983,983,983,983,983,983,983,983,983,983,983,983,983,983,983,983,983,983,983,983,983,983,983,983,983,983,983,983,983,983,983,983,983,983,983,983,983,983,983,983,983,983,983,983,983,983,983,983,983,983,983,983,983,983,983,983,983,983,983,983,983,983,983,983,983,983,983,983,983,983,983,983,983,983,983,983,983,983,983,983,983,983,983,983,983,983,983,983,983,983,983,983,983,983,983,983,983,983,983,983,983,983,983,983,983,983,983,983,983,983,983,983,983,983,983,983,983,983,983,983,983,983,983,983,983,983,983,983,983,983,983,983,983,983,983,983,983,983,983,983,983,983,983,983,983,983,983,983,983,983,983,983,983,983,983,983,983,983,983,983,983,983,983,983,983,983,983,983,983,983,983,983,983,983,983,983,983,983,983,983,983,983,983,983,983,983,983,983,983,983,983,983,983,983,983,983,983,983,983,983,983,983,983,983,983,983,983,983,983,983,983,983,983,983,983,983,983,983,983,983,983,983,983,983,983,983,983,983,983,983,983,983,983,983,983,983,983,983,983,983,983,983,983,983,983,983,983,983,983,983,983,983,983,983,983,983,983,983,983,983,983,983,983,983,983,983,983,983,983,983,983,983,983,983,983,983,983,983,983,983,983,983,983,983,983,983,983,983,983,983,983,983,983,983,983,983,983,983,983,983,983,983,983,983,983,983,983,983,983,983,983,983,983,983,983,983,983,983,983,983,983,983,983,983,983,983,983,983,983,983,983,983,983,983,983,983,983,983,983,983,983,983,983,983,983,983,983,983,983,983,983,983,983,983,983,983,983,983,983,983,983,983,983,983,983,983,983,983,983,983,983,983,983,983,983,983,983,983,983,983,983,983,983,983,983,983,983,983,983,983,983,983,983,983,983,983,983,983,983,983,983,983,983,983,983,983,983,983,983,983,983,983,983,983,983,983,983,983,983,983,983,983,983,983,983,983,983,983,983,983,983,983,983,983,983,983,983,983,983,983,983,983,983,983,983,983,983,983,983,983,983,983,983,983,983,983,983,983,983,983,983,983,983,983,983,983,983,983,983,983,983,983,983,983,983,983,983,983,983,983,983,983,983,983,983,983,983,983,983,983,983,983,983,983,983,983,983,983,983,983,983,983,983,983,983,983,983,983,983,983,983,983,983,983,983,983,983,983,983,983,983,983,983,983,983,983,983,983,983,983,983,983,983,983,983,983,983,983,983,983,983,983,983,983,983,983,983,983,983,983,983,983,983,983,983,983,983,983,983,983,983,983,983,983,983,983,983,983,983,983,983,983,983,983,983,983,983,983,983,983,983,983,983,983,983,983,983,983,983,983,983,983,983,983,983,983,983,983,983,983,983,983,983,983,983,983,983,983,983,983,983,983,983,983,983,983,983,983,983,983,983,983,983,983,983,983,983,983,983,983,983,983,983,983,983,983,983,983,983,983,983,983,983,983,983,983,983,983,983,983,983,983,983,983,983,983,983,983,983,983,983,983,983,983,983,983,983,983,983,983,983,983,983,983,983,983,983,983,983,983,983,983,983,983,983,983,983,983,983,983,983,983,983,983,983,983,983,983,983,983,983,983,983,983,983,983,983,983,983,983,983,983,983,983,983,983,983,983,983,983,983,983,983,983,983,983,983,983,983,983,983,983,983,983,983,983,983,983,983,983,983,983,983,983,983,983,983,983,983,983,983,983,983,983,983,983,983,983,983,983,983,983,983,983,983,983,983,983,983,983,983,983,983,983,983,983,983,983,983,983,983,983,983,983,983,983,983,983,983,983,983,983,983,983,983,983,983,983,983,983,983,983,983,983,983,983,983,983,983,983,983,983,983,983,983,983,983,983,983,983,983,983,983,983,983,983,983,983,983,983,983,983,983,983,983,983,983,983,983,983,983,983,983,983,983,983,983,983,983,983,983,983,983,983,983,983,983,983,983,983,983,983,983,983,983,983,983,983,983,983,983,983,983,983,983,983,983,983,983,983,983,983,983,983,983,983,984,953,870,751,624,388,315,287,276,270,269,267,265,265,265,265,265,265,265,265,279,312,359,393,413,421,421,422,422,427,460,477,496,517,544,658,703,715,715,715,713,713,713,713,712,711,711,713,719,730,763,782,788,788,788,789,789,789,789,789,789,787,782,776,771,770,770,770,770,770,770,770,772,773,774,775,775,774,771,765,762,762,762,762,762,762,763,764,764,764,764,764,765,766,766,764,763,762,761,760,760,760,760,764,767,778,781,781,781,781,782,782,782,782,785,793,799,804,807,809,809,809,809,809,804,789,777,763,754,750,750,752,754,755,755,755,756,756,756,756,756,756,756,756,756,783,820,867,908,914,916,916,915,910,899,878,871,866,859,846,830,800,789,787,786,786,786,786,786,786,786,786,785,785,783,782,782,782,782,782,782,782,784,794,804,817,817,817,817,815,799,796,793,792,792,792,792,792,792,792,792,792,792,792,792,792,792,792,792,792,792,792,792,792,792,792,792,792,792,792,792,792,792,792,792,792,792,790,789,787,786,786,786,786,787,796,801,803,805,805,805,805,805,805,801,800,794,794,794,794,801,810,820,826,828,828,828,828,828,824,816,814,813,813,813,813,817,820,826,831,838,841,842,843,843,842,838,838,838,838,838,838,837,837,837,837,834,816,801,788,769,761,753,745,737,724,718,717,711,666,539,504],"ymouse":[535,535,535,535,535,535,535,534,534,534,534,534,534,534,534,534,534,534,534,534,534,534,534,534,534,534,534,534,534,535,537,537,534,530,528,528,528,528,528,528,528,528,528,528,528,528,528,528,528,528,528,528,528,528,528,528,528,528,528,528,528,528,528,528,528,528,528,524,522,519,513,506,505,505,505,505,499,491,494,516,524,540,543,543,543,543,543,543,543,543,543,543,543,543,543,543,543,543,543,543,543,543,543,543,543,543,543,543,543,543,543,543,543,543,543,543,543,543,543,543,543,543,543,543,543,543,543,543,543,543,543,543,543,543,543,543,543,543,543,543,543,543,543,543,543,543,543,543,543,543,543,543,543,543,543,543,543,543,543,543,543,543,543,543,543,543,543,543,543,543,543,543,543,543,543,543,543,543,543,543,543,543,543,543,543,543,543,543,543,543,543,543,543,543,543,543,543,543,543,543,543,543,543,543,543,543,543,543,543,543,543,543,543,543,543,543,543,543,543,543,543,543,543,543,543,543,543,543,543,543,543,543,543,543,543,543,543,543,543,543,543,543,543,543,543,543,543,543,543,543,543,543,543,543,543,543,543,543,543,543,543,543,543,543,543,543,543,543,543,543,543,543,543,543,543,543,543,543,543,543,543,543,543,543,543,543,543,543,543,543,543,543,543,543,543,543,543,543,543,543,543,543,543,543,543,543,543,543,543,543,543,543,543,543,543,543,543,543,543,543,543,543,543,543,543,543,543,543,543,543,543,543,543,543,543,543,543,543,543,543,543,543,543,543,543,543,543,543,543,543,543,543,543,543,543,543,543,543,543,543,543,543,543,543,543,543,543,543,543,543,543,543,543,543,543,543,543,543,543,543,543,543,543,543,543,543,543,543,543,543,543,543,543,543,543,543,543,543,543,543,543,543,543,543,543,543,543,543,543,543,543,543,543,543,543,543,543,543,543,543,543,543,543,543,543,543,543,543,543,543,543,543,543,543,543,543,543,543,543,543,543,543,543,543,543,543,543,543,543,543,543,543,543,543,543,543,543,543,543,543,543,543,543,543,543,543,543,543,543,543,543,543,543,543,543,543,543,543,543,543,543,543,543,543,543,543,543,543,543,543,543,543,543,543,543,543,543,543,543,543,543,543,543,543,543,543,543,543,543,543,543,543,543,543,543,543,543,543,543,543,543,543,543,543,543,543,543,543,543,543,543,543,543,543,543,543,543,543,543,543,543,543,543,543,543,543,543,543,543,543,543,543,543,543,543,543,543,543,543,543,543,543,543,543,543,543,543,543,543,543,543,543,543,543,543,543,543,543,543,543,543,543,543,543,543,543,543,543,543,543,543,543,543,543,543,543,543,543,543,543,543,543,543,543,543,543,543,543,543,543,543,543,543,543,543,543,543,543,543,543,543,543,543,543,543,543,543,543,543,543,543,543,543,543,543,543,543,543,543,543,543,543,543,543,543,543,543,543,543,543,543,543,543,543,543,543,543,543,543,543,543,543,543,543,543,543,543,543,543,543,543,543,543,543,543,543,543,543,543,543,543,543,543,543,543,543,543,543,543,543,543,543,543,543,543,543,543,543,543,543,543,543,543,543,543,543,543,543,543,543,543,543,543,543,543,543,543,543,543,543,543,543,543,543,543,543,543,543,543,543,543,543,543,543,543,543,543,543,543,543,543,543,543,543,543,543,543,543,543,543,543,543,543,543,543,543,543,543,543,543,543,543,543,543,543,543,543,543,543,543,543,543,543,543,543,543,543,543,543,543,543,543,543,543,543,543,543,543,543,543,543,543,543,543,543,543,543,543,543,543,543,543,543,543,543,543,543,543,543,543,543,543,543,543,543,543,543,543,543,543,543,543,543,543,543,543,543,543,543,543,543,543,543,543,543,543,543,543,543,543,543,543,543,543,543,543,543,543,543,543,543,543,543,543,543,543,543,543,543,543,543,543,543,543,543,543,543,543,543,543,543,543,543,543,543,543,543,543,543,543,543,543,543,543,543,543,543,543,543,543,543,543,543,543,543,543,543,543,543,543,543,543,543,543,543,543,543,543,543,543,543,543,543,543,543,543,543,543,543,543,543,543,543,543,543,543,543,543,543,543,543,543,543,543,543,543,543,543,543,543,543,543,543,543,543,543,543,543,543,543,543,543,543,543,543,543,543,543,543,543,543,543,543,543,543,543,543,543,543,543,543,543,543,543,543,543,543,543,543,543,543,543,543,543,543,543,543,543,543,543,543,543,543,543,543,543,543,543,543,543,543,543,543,543,543,543,543,543,543,543,543,543,543,543,543,543,543,543,543,543,543,543,543,543,543,543,543,543,543,543,543,543,543,543,543,543,543,543,543,543,543,543,543,543,543,543,543,543,543,543,543,543,543,543,543,543,543,543,543,543,543,543,543,543,543,543,543,543,543,543,543,543,543,543,543,543,543,543,543,543,543,543,543,543,543,543,543,543,543,543,543,543,543,543,543,543,543,543,543,543,543,543,543,543,543,543,543,543,543,543,543,543,543,543,543,543,543,543,543,543,543,543,543,543,543,543,543,543,543,543,543,543,543,543,543,543,543,543,543,543,543,543,543,543,543,543,543,543,543,543,543,543,543,543,543,543,543,543,543,543,543,543,543,543,543,543,543,543,543,543,543,543,543,543,543,543,543,543,543,543,543,543,543,543,543,543,543,543,543,543,543,543,543,543,543,543,543,543,543,543,543,543,543,543,543,543,543,543,543,543,543,543,543,543,543,543,543,543,543,543,543,543,543,543,543,543,543,543,543,543,543,543,543,543,543,543,543,543,543,543,543,543,543,543,543,543,543,543,543,543,543,543,543,543,543,543,543,543,543,543,543,543,543,543,543,543,543,543,543,543,543,543,543,543,543,543,543,543,543,543,543,543,543,543,543,543,543,543,543,543,543,543,543,543,543,543,543,543,543,543,543,543,543,543,543,543,543,543,543,543,543,543,543,543,543,543,543,543,543,543,543,543,543,543,543,543,543,543,543,543,543,543,543,543,543,543,543,543,543,543,543,543,543,543,543,543,543,543,543,543,543,543,543,543,543,543,543,543,543,543,543,543,543,543,543,543,543,543,543,543,543,543,543,543,543,543,543,543,543,543,543,543,543,543,543,543,543,543,543,543,543,543,543,543,543,543,543,543,543,543,543,543,543,543,543,543,543,543,543,543,543,543,543,543,543,543,543,543,543,543,543,543,543,543,543,543,543,543,543,543,543,543,543,543,543,543,543,543,543,543,543,543,543,543,543,543,543,543,543,543,543,543,543,543,543,543,543,543,543,543,543,543,543,543,543,543,543,543,543,543,543,543,543,543,543,543,543,543,543,543,543,543,543,543,543,543,543,543,543,543,543,543,543,543,543,543,543,543,543,543,543,543,543,543,543,543,543,543,543,543,543,543,543,543,543,543,543,543,543,543,543,543,543,543,543,543,543,543,543,543,543,543,543,543,543,543,543,543,543,543,543,543,543,543,543,543,543,543,543,543,543,543,543,543,543,543,543,543,543,543,543,543,543,543,543,543,543,543,543,543,543,543,543,543,543,543,543,543,543,543,543,543,543,543,543,543,543,543,543,543,543,543,543,543,543,543,543,543,543,543,543,543,543,543,543,543,543,543,543,543,543,543,543,543,543,543,543,543,543,543,543,543,543,543,543,543,543,543,543,543,543,543,543,543,543,543,543,543,543,543,543,543,543,543,543,543,543,543,543,543,543,543,543,543,543,543,543,543,543,543,543,543,543,543,543,543,543,543,543,543,543,543,543,543,543,543,543,543,543,543,543,543,543,543,543,543,543,543,543,543,543,543,543,543,543,543,543,543,543,543,543,543,543,543,543,543,543,543,543,543,543,543,543,543,543,543,543,543,543,543,543,543,543,543,543,543,543,543,543,543,543,543,543,543,543,543,543,543,543,543,543,543,543,543,543,543,543,543,543,543,543,543,543,543,543,543,543,543,543,543,543,543,543,543,543,543,543,543,543,543,543,543,543,543,543,543,543,543,543,543,543,543,543,543,543,543,543,543,543,543,543,543,543,543,543,543,543,543,543,543,543,543,543,543,543,543,543,543,543,543,543,543,543,543,543,543,543,543,543,543,543,543,543,543,543,543,543,543,543,543,543,543,543,543,543,543,543,543,543,543,543,543,543,543,543,543,543,543,543,543,543,543,543,543,543,543,543,543,543,543,543,543,543,543,543,543,543,543,543,543,543,543,543,543,543,543,543,543,543,543,543,543,543,543,543,543,543,543,543,543,543,543,543,543,543,543,543,543,543,543,543,543,543,543,543,543,543,543,543,543,543,543,543,543,543,543,543,543,543,543,543,543,543,543,543,543,543,543,543,543,543,543,543,543,543,543,543,543,543,543,543,543,543,543,543,543,543,543,543,543,543,543,543,543,543,543,543,543,543,543,543,543,543,543,543,543,543,543,543,543,543,543,543,543,543,543,543,543,543,543,543,543,543,543,543,543,543,543,543,543,543,543,543,543,543,543,543,543,543,543,543,543,543,543,543,543,543,543,543,543,543,543,543,543,543,543,543,543,543,543,543,543,543,543,543,543,543,543,543,543,543,543,543,543,543,543,543,543,543,543,543,543,543,543,543,543,543,543,543,543,543,543,543,543,543,543,543,543,543,543,543,543,543,543,543,543,543,543,543,543,543,543,543,543,543,543,543,543,543,543,543,543,543,543,543,543,543,543,543,543,543,543,543,543,543,543,543,543,543,543,543,543,543,543,543,543,543,543,543,543,543,543,543,543,543,543,543,543,543,543,543,543,543,543,543,543,543,543,543,543,543,543,543,543,543,543,543,543,543,543,543,543,543,543,543,543,543,543,543,543,543,543,543,543,543,543,543,543,543,543,543,543,543,543,543,543,543,543,543,543,543,543,543,543,543,543,543,543,543,543,543,543,543,543,543,543,543,543,543,543,543,543,543,543,543,543,543,543,543,543,543,543,543,543,543,543,543,543,543,543,543,543,543,543,543,543,543,543,543,543,543,543,543,543,543,543,543,543,543,543,543,543,543,543,543,543,543,543,543,543,543,543,543,543,543,543,543,543,543,543,543,543,543,543,543,543,543,543,543,543,543,543,543,543,543,543,543,543,543,543,543,543,543,543,543,543,543,543,543,543,543,543,543,543,543,543,543,543,543,543,543,543,543,543,543,543,543,543,543,543,543,543,543,543,543,543,543,543,543,543,543,543,543,543,543,543,543,543,543,543,543,543,543,543,543,543,543,543,543,543,543,543,543,543,543,543,543,543,543,543,543,543,543,543,543,543,543,543,543,543,543,543,543,543,543,543,543,543,543,543,543,543,543,543,543,543,543,543,543,543,543,543,543,543,543,543,543,543,543,543,543,543,543,543,543,543,543,543,543,543,543,543,543,543,543,543,543,543,543,543,543,543,543,543,543,543,543,543,543,543,543,543,543,543,543,543,543,543,543,543,543,543,543,543,543,543,543,543,543,543,543,543,543,543,543,543,543,543,543,543,543,543,543,543,543,543,543,543,543,543,543,543,543,543,543,543,543,543,543,543,543,543,543,543,543,543,543,543,543,543,543,543,543,543,543,543,543,543,543,543,543,543,543,543,543,543,543,543,543,543,543,543,543,543,543,543,543,543,543,543,543,543,543,543,543,543,543,543,543,543,543,543,543,543,543,543,543,543,543,543,543,543,543,543,543,543,543,543,543,543,543,543,543,543,543,543,543,543,543,543,543,543,543,543,543,543,543,543,543,543,543,543,543,543,543,543,543,543,543,543,543,543,543,543,543,543,543,543,543,543,543,543,543,543,543,543,543,543,543,543,543,543,543,543,543,543,543,543,543,543,543,543,543,543,543,543,543,543,543,543,543,543,543,543,543,543,543,543,543,543,543,543,543,543,543,543,543,543,543,543,543,543,543,543,543,543,543,543,543,543,543,543,543,543,543,543,543,543,543,543,543,543,543,543,543,543,543,543,543,543,543,543,543,543,543,543,543,543,543,543,543,543,543,543,543,543,543,543,543,543,543,543,543,543,543,543,543,543,543,543,543,543,543,543,543,543,543,543,543,543,543,543,543,543,543,543,543,543,543,543,543,543,543,543,543,543,543,543,543,543,543,543,543,543,543,543,543,543,543,543,543,543,543,543,543,543,543,543,543,543,543,543,543,543,543,543,543,543,543,543,543,543,543,543,543,543,543,543,543,543,543,543,543,543,543,543,543,543,543,543,543,543,543,543,543,543,543,543,543,543,543,543,543,543,543,543,543,543,543,543,543,543,543,543,543,543,543,543,543,543,543,543,543,543,543,543,543,543,543,543,543,543,543,543,543,543,543,543,543,543,543,543,543,543,543,543,543,543,543,543,543,543,543,543,543,543,543,543,543,543,543,543,543,543,543,543,543,543,543,543,543,543,543,543,543,543,543,543,543,543,543,543,543,543,543,543,543,543,543,543,543,543,543,543,543,543,543,543,543,543,543,543,543,543,543,543,543,543,543,543,543,543,543,543,543,543,543,543,543,543,543,543,543,543,543,543,543,543,543,543,543,543,543,543,543,543,543,543,543,543,543,543,543,543,543,543,543,543,543,543,543,543,543,543,543,543,543,543,543,543,543,543,543,543,543,543,543,543,543,543,543,543,543,543,543,543,543,543,543,543,543,543,543,543,543,543,543,543,543,543,543,543,543,543,543,543,543,543,543,543,543,543,543,543,543,543,543,543,543,543,543,543,543,543,543,543,543,543,543,543,543,543,543,543,543,543,543,543,543,543,543,543,543,543,543,543,543,543,543,543,543,543,543,543,543,543,543,543,543,543,543,543,543,543,543,543,543,543,543,543,543,543,543,543,543,543,543,543,543,543,543,543,543,543,543,543,543,543,543,543,543,543,543,543,543,543,543,543,543,543,543,543,543,543,543,543,543,543,543,543,543,543,543,543,543,543,543,543,543,543,543,543,543,543,543,543,543,543,543,543,543,543,543,543,543,543,543,543,543,543,543,543,543,543,543,543,543,543,543,543,543,543,543,543,543,543,543,543,543,543,543,543,543,543,543,543,543,543,543,543,543,543,543,543,543,543,543,543,543,543,543,543,543,543,543,543,543,543,543,543,543,543,543,543,543,543,543,543,543,543,543,543,543,543,543,543,543,543,543,543,543,543,543,543,543,543,543,543,543,543,543,543,543,543,543,543,543,543,543,543,543,543,543,543,543,543,543,543,543,543,543,543,543,543,543,543,543,543,543,543,543,543,543,543,543,543,543,543,543,543,543,543,543,543,543,543,543,543,543,543,543,543,543,543,543,543,543,543,543,543,543,543,543,543,543,543,543,543,543,543,543,543,543,543,543,543,543,543,543,543,543,543,543,543,543,543,543,543,543,543,543,543,543,543,543,543,543,543,543,543,543,543,543,543,543,543,543,543,543,543,543,543,543,543,543,543,543,543,543,543,543,543,543,543,543,543,543,543,543,543,543,543,543,543,543,543,543,543,543,543,543,543,543,543,543,543,543,543,543,543,543,543,543,543,543,543,543,543,543,543,543,543,543,543,543,543,543,543,543,543,543,543,543,543,543,543,543,543,543,543,543,543,543,543,543,543,543,543,543,543,543,543,543,543,543,543,543,543,543,543,543,543,543,543,543,543,543,543,543,543,543,543,543,543,543,543,543,543,543,543,543,543,543,543,543,543,543,543,543,543,543,543,543,543,543,543,543,543,543,543,543,543,543,543,543,543,543,543,543,543,543,543,543,543,543,543,543,543,543,543,543,543,543,543,543,543,543,543,543,543,543,543,543,543,543,543,543,543,543,543,543,543,543,543,543,543,543,543,543,543,543,543,543,543,543,543,543,543,543,543,543,543,543,543,543,543,543,543,543,543,543,543,543,543,543,543,543,543,543,543,543,543,543,543,543,543,543,543,543,543,543,543,543,543,543,543,543,543,543,543,543,543,543,543,543,543,543,543,543,543,543,543,543,543,543,543,543,543,543,543,543,543,543,543,543,543,543,543,543,543,543,543,543,543,543,543,543,543,543,543,543,543,543,543,543,543,543,543,543,543,543,543,543,543,543,543,543,543,543,543,543,543,543,543,543,543,543,543,543,543,543,543,543,543,543,543,543,543,543,543,543,543,543,543,543,543,543,543,543,543,543,543,543,543,543,543,543,543,543,543,543,543,543,543,543,543,543,543,543,543,543,543,543,543,543,543,543,543,543,543,543,543,543,543,543,543,543,543,543,543,543,543,543,543,543,543,543,543,543,543,543,543,543,543,543,543,543,543,543,543,543,543,543,543,543,543,543,543,543,543,543,543,543,543,543,543,543,543,543,543,543,543,543,543,543,543,543,543,543,543,543,543,543,543,543,543,543,543,543,543,543,543,543,543,543,543,543,543,543,543,543,543,543,543,543,543,543,543,543,543,543,543,543,543,543,543,543,543,543,543,543,543,543,543,543,543,543,543,543,543,543,543,543,543,543,543,543,543,543,543,543,543,543,543,543,543,543,543,543,543,543,543,543,543,543,543,543,543,543,543,543,543,543,543,543,543,543,543,543,543,543,543,543,543,543,543,543,543,543,543,543,543,543,543,543,543,543,543,543,543,543,543,543,543,543,543,543,543,543,543,543,543,543,543,543,543,543,543,543,543,543,543,543,543,543,543,543,543,543,543,543,543,543,543,543,543,543,543,543,543,543,543,543,543,543,543,543,543,543,543,543,543,543,543,543,543,543,543,543,543,543,543,543,543,543,543,543,543,543,543,543,543,543,543,543,543,543,543,543,543,543,543,543,543,543,543,543,543,543,543,543,543,543,543,543,543,543,543,543,543,543,543,543,543,543,543,543,543,543,543,543,543,543,543,543,543,543,543,543,543,543,543,543,543,543,543,543,543,543,543,543,543,543,543,543,543,543,543,543,543,543,543,543,543,543,543,543,543,543,543,543,543,543,543,543,543,543,543,543,543,543,543,543,543,543,543,543,543,543,543,543,543,543,543,543,543,543,543,543,543,543,543,543,543,543,543,543,543,543,543,543,543,543,543,543,543,543,543,543,543,543,543,543,543,543,543,543,543,543,543,543,543,543,543,543,543,543,543,543,543,543,543,543,543,543,543,543,543,543,543,543,543,543,543,543,543,543,543,543,543,543,543,543,543,543,543,543,543,543,543,543,543,543,543,543,543,543,543,543,543,543,543,543,543,543,543,543,543,543,543,543,543,543,543,543,543,543,543,543,543,543,543,543,543,543,543,543,543,543,543,543,543,543,543,543,543,543,543,543,543,543,543,543,543,543,543,543,543,543,543,543,543,543,543,543,543,543,543,543,543,543,543,543,543,543,543,543,543,543,543,543,543,543,543,543,543,543,543,543,543,543,543,543,543,543,543,543,543,543,543,543,543,543,543,543,543,543,543,543,543,543,543,543,543,543,543,543,543,543,543,543,543,543,543,543,543,543,543,543,543,543,543,543,543,543,543,543,543,543,543,543,543,543,543,543,543,543,543,543,543,543,543,543,543,543,543,543,543,543,543,543,543,543,543,543,543,543,543,543,543,543,543,543,543,543,543,543,543,543,543,543,543,543,543,543,543,543,543,543,543,543,543,543,543,543,543,543,543,543,543,543,543,543,543,543,543,543,543,543,543,543,543,543,543,543,543,543,543,543,543,543,543,543,543,543,543,543,543,543,543,543,543,543,543,543,543,543,543,543,543,543,543,543,543,543,543,543,543,543,543,543,543,543,543,543,543,543,543,543,543,543,543,543,543,543,543,543,543,543,543,543,543,543,543,543,543,543,543,543,543,543,543,543,543,543,543,543,543,543,543,543,543,543,543,543,543,543,543,543,543,543,543,543,543,543,543,543,543,543,543,543,543,543,543,543,543,543,543,543,543,543,543,543,543,543,543,543,543,543,543,543,543,543,543,543,543,543,543,543,543,543,543,543,543,543,543,543,543,543,543,543,543,543,543,543,543,543,543,543,543,543,543,543,543,543,543,543,543,543,543,543,543,543,543,543,543,543,543,543,543,543,543,543,543,543,543,543,543,543,543,543,543,543,543,543,543,543,543,543,543,543,543,543,543,543,543,543,543,543,543,543,543,543,543,543,543,543,543,543,543,543,543,543,543,543,543,543,543,543,543,543,543,543,543,543,543,543,543,543,543,543,543,543,543,543,543,543,543,543,543,543,543,543,543,543,543,543,543,543,543,543,543,543,543,543,543,543,543,543,543,543,543,543,543,543,543,543,543,543,543,543,543,543,543,543,543,543,543,543,543,543,543,543,543,543,543,543,543,543,543,543,543,543,543,543,543,543,543,543,543,543,543,543,543,543,543,543,543,543,543,543,543,543,543,543,543,543,543,543,543,543,543,543,543,543,543,543,543,543,543,543,543,543,543,543,543,543,543,543,543,543,543,543,543,543,543,543,543,543,543,543,543,543,543,543,543,543,543,543,543,543,543,543,543,543,543,543,543,543,543,543,543,543,543,543,543,543,543,543,543,543,543,543,543,543,543,543,543,543,543,543,543,543,543,543,543,543,543,543,543,543,543,543,543,543,543,543,543,543,543,543,543,543,543,543,543,543,543,543,543,543,543,543,543,543,543,543,543,543,543,543,543,543,543,543,543,543,543,543,543,543,543,543,543,543,543,543,543,543,543,543,543,543,543,543,543,543,543,543,543,543,543,543,543,543,543,543,543,543,543,543,543,543,543,543,543,543,543,543,543,543,543,543,543,543,543,543,543,543,543,543,543,543,543,543,543,543,543,543,543,543,543,543,543,543,543,543,543,543,543,543,543,543,543,543,543,543,543,543,543,543,543,543,543,543,543,543,543,543,543,543,543,543,543,543,543,543,543,543,543,543,543,543,543,543,543,543,543,543,543,543,543,543,543,543,543,543,543,543,543,543,543,543,543,543,543,543,543,543,543,543,543,543,543,543,543,543,543,543,543,543,543,543,543,543,543,543,543,543,543,543,543,543,543,543,543,543,543,543,543,543,543,543,543,543,543,543,543,543,543,543,543,543,543,543,543,543,543,543,543,543,543,543,543,543,543,543,543,543,543,543,543,543,543,543,543,543,543,543,543,543,543,543,543,543,543,543,543,543,543,543,543,543,543,543,543,543,543,543,543,543,543,543,543,543,543,543,543,543,543,543,543,543,543,543,543,543,543,543,543,543,543,543,543,543,543,543,543,543,543,543,543,543,543,543,543,543,543,543,543,543,543,543,543,543,543,543,543,543,543,543,543,543,543,543,543,543,543,543,543,543,543,543,543,543,543,543,543,543,543,543,543,543,543,543,543,543,543,543,543,543,543,543,543,543,543,543,543,543,543,543,543,543,543,543,543,543,543,543,543,543,543,543,543,537,485,416,357,329,318,326,339,349,357,358,362,364,366,367,367,367,367,367,367,374,384,390,391,393,395,395,397,408,420,440,444,446,447,447,452,459,461,461,461,461,461,461,462,463,478,483,487,493,499,511,517,517,517,517,517,517,517,517,517,516,515,514,513,511,511,511,511,511,511,511,511,511,512,512,513,513,516,520,523,524,524,524,524,524,524,524,524,524,524,524,524,524,525,525,528,529,529,529,530,530,530,530,530,530,532,533,533,533,533,533,533,533,533,533,532,531,531,530,530,530,530,530,530,529,524,519,515,512,510,508,508,507,507,507,507,508,510,516,523,538,539,539,539,540,537,533,533,533,533,533,533,537,540,543,547,547,547,545,540,533,513,503,498,493,488,487,487,487,487,487,487,488,491,495,500,500,500,500,500,500,500,499,492,486,478,477,477,477,480,498,502,505,505,505,505,505,505,505,505,505,505,505,505,505,505,505,505,505,505,505,505,505,505,505,505,505,505,505,505,505,505,505,505,505,505,505,507,509,513,513,513,513,514,514,510,508,507,506,506,506,506,506,506,509,510,517,517,517,517,509,501,494,492,491,491,491,491,496,505,515,517,518,518,518,518,510,501,489,483,472,468,464,463,459,442,408,391,309,266,238,216,216,216,216,216,213,201,188,178,164,160,154,149,144,135,133,133,131,118,73,57],"timestamp_mouse":[11,29,48,69,88,109,128,148,169,188,208,229,249,269,289,308,328,349,368,387,408,428,449,468,489,509,528,549,568,589,609,628,647,669,688,708,728,748,768,787,808,829,848,869,888,908,928,948,968,989,1008,1029,1048,1068,1087,1108,1129,1148,1168,1188,1209,1229,1247,1267,1288,1308,1329,1348,1369,1388,1408,1429,1449,1469,1487,1509,1529,1548,1569,1588,1609,1628,1648,1669,1689,1707,1728,1748,1768,1789,1809,1828,1848,1868,1888,1908,1929,1949,1968,1989,2009,2027,2049,2068,2088,2109,2128,2148,2169,2188,2208,2229,2249,2268,2289,2309,2327,2349,2368,2388,2408,2429,2449,2468,2487,2509,2528,2549,2568,2588,2608,2629,2648,2669,2688,2709,2729,2748,2769,2789,2808,2828,2849,2868,2888,2909,2929,2949,2969,2988,3009,3029,3049,3069,3088,3109,3128,3150,3168,3188,3208,3228,3249,3269,3289,3309,3329,3348,3367,3388,3409,3429,3449,3469,3489,3509,3529,3548,3568,3589,3608,3629,3650,3668,3689,3708,3728,3747,3767,3788,3809,3828,3848,3867,3889,3909,3928,3949,3968,3989,4008,4029,4049,4069,4088,4109,4128,4148,4167,4187,4209,4229,4249,4267,4289,4309,4329,4350,4368,4389,4409,4429,4449,4467,4488,4508,4527,4548,4568,4588,4608,4629,4647,4669,4688,4708,4728,4749,4768,4787,4808,4828,4849,4868,4888,4909,4928,4947,4967,4988,5007,5029,5048,5068,5088,5109,5128,5148,5168,5189,5209,5228,5248,5268,5288,5308,5328,5349,5368,5388,5409,5428,5448,5467,5487,5509,5528,5548,5568,5589,5609,5629,5648,5668,5689,5709,5729,5749,5769,5789,5808,5829,5848,5867,5889,5908,5929,5949,5967,5989,6007,6028,6048,6068,6089,6109,6128,6148,6167,6188,6208,6229,6249,6269,6289,6307,6329,6348,6368,6389,6408,6429,6448,6468,6489,6508,6528,6549,6568,6588,6608,6628,6649,6668,6689,6707,6727,6748,6768,6789,6809,6828,6848,6868,6889,6909,6927,6949,6969,6989,7008,7029,7048,7069,7088,7109,7129,7150,7168,7187,7208,7228,7248,7269,7289,7309,7328,7349,7369,7389,7409,7429,7449,7468,7489,7508,7528,7549,7568,7589,7608,7629,7648,7668,7688,7709,7728,7749,7768,7788,7808,7829,7848,7868,7888,7909,7928,7948,7968,7988,8008,8029,8048,8068,8088,8109,8130,8148,8168,8188,8209,8228,8249,8268,8287,8307,8327,8347,8368,8389,8409,8428,8449,8469,8488,8508,8529,8549,8568,8588,8609,8629,8649,8669,8688,8708,8727,8754,8769,8789,8808,8829,8848,8868,8888,8909,8928,8949,8968,8988,9009,9028,9048,9069,9089,9108,9128,9149,9169,9188,9208,9229,9248,9268,9288,9308,9328,9349,9368,9388,9407,9428,9447,9468,9487,9508,9528,9548,9568,9588,9609,9629,9648,9668,9688,9709,9729,9748,9769,9787,9808,9829,9848,9868,9888,9909,9928,9948,9968,9988,10008,10029,10049,10068,10089,10109,10129,10148,10169,10189,10208,10227,10248,10268,10289,10309,10329,10349,10368,10389,10409,10429,10449,10469,10488,10509,10529,10549,10568,10588,10609,10629,10649,10669,10688,10709,10729,10748,10768,10787,10808,10827,10848,10869,10888,10909,10929,10948,10969,10987,11009,11028,11048,11069,11089,11109,11129,11149,11169,11189,11209,11229,11249,11269,11288,11309,11329,11349,11369,11388,11408,11429,11449,11468,11489,11509,11528,11547,11569,11589,11609,11629,11649,11669,11689,11709,11729,11748,11769,11788,11809,11829,11848,11869,11888,11908,11929,11948,11968,11988,12008,12028,12048,12069,12089,12109,12129,12148,12167,12188,12208,12228,12249,12269,12288,12308,12329,12349,12369,12388,12408,12429,12449,12468,12489,12509,12528,12547,12568,12588,12609,12629,12648,12669,12689,12709,12728,12748,12769,12788,12808,12828,12848,12869,12889,12909,12929,12948,12969,12987,13008,13028,13048,13068,13089,13109,13129,13149,13168,13188,13209,13228,13249,13268,13288,13309,13329,13348,13368,13388,13408,13428,13448,13468,13488,13509,13528,13548,13570,13588,13608,13627,13647,13669,13689,13709,13729,13748,13769,13788,13808,13829,13848,13868,13888,13909,13929,13948,13967,13989,14008,14029,14048,14067,14088,14109,14128,14148,14169,14188,14209,14228,14248,14268,14289,14309,14328,14348,14367,14388,14407,14429,14448,14469,14487,14509,14528,14548,14570,14588,14607,14627,14648,14669,14689,14709,14727,14749,14768,14788,14808,14828,14848,14869,14888,14907,14929,14948,14969,14989,15007,15029,15048,15068,15088,15109,15127,15148,15169,15188,15209,15229,15249,15267,15288,15309,15329,15349,15367,15389,15409,15429,15449,15468,15488,15509,15528,15548,15568,15588,15608,15629,15649,15668,15689,15708,15729,15748,15769,15788,15808,15827,15847,15867,15889,15908,15929,15949,15968,15989,16009,16028,16049,16069,16088,16108,16128,16148,16169,16188,16209,16228,16249,16268,16289,16309,16327,16348,16369,16388,16408,16429,16449,16468,16488,16508,16528,16549,16568,16588,16609,16629,16649,16669,16689,16709,16728,16748,16768,16788,16809,16829,16848,16869,16889,16908,16928,16948,16967,16989,17009,17029,17048,17069,17087,17108,17129,17148,17168,17188,17208,17229,17248,17268,17288,17308,17329,17349,17369,17388,17409,17428,17449,17468,17488,17509,17528,17548,17569,17588,17609,17628,17649,17668,17689,17709,17728,17749,17768,17788,17808,17828,17849,17868,17888,17908,17929,17949,17969,17989,18009,18028,18049,18069,18089,18109,18128,18148,18168,18187,18208,18228,18249,18269,18288,18309,18329,18348,18369,18388,18408,18428,18448,18469,18489,18509,18528,18547,18568,18588,18608,18628,18648,18668,18688,18708,18729,18748,18769,18788,18808,18829,18848,18869,18888,18908,18928,18949,18968,18989,19008,19028,19048,19069,19089,19108,19128,19148,19167,19189,19207,19228,19248,19269,19289,19309,19328,19349,19368,19388,19408,19428,19449,19468,19488,19508,19529,19548,19569,19588,19608,19628,19648,19669,19689,19708,19728,19748,19768,19788,19807,19828,19848,19868,19888,19908,19928,19948,19968,19988,20008,20028,20048,20068,20088,20108,20128,20148,20169,20189,20209,20228,20249,20269,20289,20309,20328,20349,20368,20389,20408,20428,20447,20469,20489,20509,20529,20548,20568,20588,20608,20628,20648,20668,20688,20707,20727,20747,20768,20789,20808,20828,20848,20869,20887,20908,20928,20949,20968,20988,21008,21029,21048,21067,21089,21109,21129,21149,21168,21188,21207,21228,21248,21268,21288,21308,21328,21349,21368,21389,21408,21429,21448,21468,21488,21508,21528,21549,21569,21589,21608,21628,21649,21668,21689,21709,21728,21748,21768,21788,21809,21828,21848,21868,21889,21908,21928,21948,21968,21988,22007,22027,22047,22068,22089,22108,22129,22148,22168,22189,22208,22229,22248,22268,22288,22325,22328,22348,22368,22387,22408,22429,22449,22469,22489,22508,22529,22549,22569,22589,22608,22628,22649,22668,22689,22709,22729,22747,22767,22789,22808,22828,22849,22869,22888,22908,22929,22948,22967,22988,23008,23029,23049,23068,23089,23108,23129,23149,23168,23189,23208,23228,23248,23267,23288,23308,23329,23349,23369,23389,23409,23428,23448,23468,23489,23509,23527,23547,23568,23588,23608,23629,23648,23667,23687,23708,23728,23748,23769,23788,23808,23828,23848,23868,23889,23908,23929,23948,23968,23989,24009,24028,24049,24068,24087,24109,24129,24149,24168,24187,24208,24228,24248,24268,24288,24309,24329,24348,24369,24389,24408,24429,24449,24468,24488,24509,24528,24548,24568,24588,24609,24629,24648,24669,24689,24708,24728,24748,24769,24788,24808,24828,24848,24868,24889,24908,24927,24949,24969,24989,25009,25028,25049,25068,25087,25108,25128,25149,25169,25188,25208,25228,25249,25269,25288,25309,25328,25348,25368,25389,25408,25429,25449,25468,25488,25508,25528,25548,25568,25589,25608,25629,25648,25668,25688,25708,25728,25748,25768,25789,25808,25828,25849,25868,25888,25909,25927,25949,25969,25988,26008,26029,26049,26068,26088,26108,26128,26148,26169,26189,26208,26228,26249,26268,26289,26308,26328,26349,26367,26387,26408,26429,26448,26469,26488,26509,26529,26548,26568,26588,26608,26628,26648,26668,26689,26708,26728,26747,26768,26787,26809,26828,26848,26868,26889,26908,26929,26948,26968,26988,27009,27027,27048,27068,27088,27108,27129,27148,27168,27189,27208,27229,27248,27268,27289,27309,27328,27348,27369,27389,27408,27429,27448,27468,27489,27508,27527,27547,27569,27588,27608,27628,27648,27668,27689,27708,27729,27748,27767,27788,27808,27829,27848,27868,27889,27908,27929,27949,27969,27989,28008,28029,28047,28068,28089,28108,28128,28149,28168,28189,28208,28229,28248,28269,28288,28309,28329,28348,28369,28388,28408,28427,28449,28468,28488,28509,28528,28549,28569,28588,28609,28628,28648,28668,28689,28708,28728,28749,28769,28788,28809,28828,28848,28868,28888,28908,28928,28948,28969,28988,29008,29028,29048,29068,29088,29109,29129,29149,29169,29189,29209,29229,29248,29269,29288,29308,29329,29348,29367,29389,29409,29428,29448,29468,29488,29509,29528,29549,29568,29589,29609,29627,29648,29668,29687,29709,29728,29749,29768,29788,29809,29828,29849,29869,29889,29908,29927,29949,29968,29988,30008,30028,30048,30068,30087,30109,30128,30149,30168,30188,30208,30228,30248,30268,30289,30309,30328,30348,30367,30389,30409,30428,30449,30469,30489,30509,30528,30548,30568,30589,30608,30628,30649,30669,30689,30708,30729,30748,30767,30789,30808,30828,30849,30868,30888,30908,30927,30949,30968,30988,31008,31028,31047,31067,31089,31109,31127,31149,31169,31189,31209,31229,31249,31269,31288,31308,31329,31348,31369,31388,31408,31428,31447,31468,31489,31509,31528,31549,31569,31588,31607,31628,31648,31668,31688,31708,31728,31747,31768,31789,31810,31829,31849,31868,31888,31908,31928,31948,31967,31988,32009,32028,32048,32069,32089,32109,32129,32149,32168,32187,32208,32228,32249,32269,32289,32308,32328,32348,32369,32389,32409,32427,32448,32469,32489,32509,32528,32549,32568,32589,32608,32628,32648,32668,32689,32708,32728,32748,32768,32788,32808,32828,32848,32867,32888,32908,32929,32948,32968,32989,33009,33029,33049,33069,33089,33109,33128,33148,33168,33188,33209,33228,33247,33268,33288,33308,33329,33349,33369,33388,33408,33428,33449,33469,33489,33508,33528,33549,33569,33589,33609,33628,33649,33668,33688,33709,33728,33747,33769,33788,33809,33828,33847,33869,33889,33909,33928,33949,33968,33988,34007,34029,34049,34068,34089,34108,34129,34148,34169,34188,34209,34229,34249,34269,34288,34309,34329,34347,34368,34389,34408,34429,34448,34469,34488,34509,34529,34549,34568,34588,34609,34628,34649,34668,34689,34709,34729,34749,34769,34788,34809,34829,34848,34869,34888,34909,34928,34949,34967,34988,35009,35028,35048,35068,35088,35108,35129,35149,35169,35189,35209,35229,35248,35268,35289,35308,35328,35348,35368,35389,35409,35429,35449,35468,35489,35508,35529,35548,35569,35588,35610,35629,35648,35669,35688,35708,35728,35748,35768,35789,35808,35828,35848,35869,35888,35908,35929,35949,35968,35990,36008,36029,36048,36069,36088,36108,36129,36149,36169,36189,36208,36229,36248,36269,36289,36309,36329,36348,36369,36388,36409,36429,36449,36468,36489,36508,36529,36548,36569,36589,36608,36628,36649,36668,36688,36709,36729,36748,36769,36788,36808,36829,36848,36868,36889,36908,36928,36948,36968,36988,37009,37029,37048,37069,37089,37109,37129,37149,37169,37189,37208,37229,37248,37268,37288,37308,37329,37349,37368,37389,37408,37429,37448,37468,37489,37509,37529,37548,37569,37589,37608,37629,37648,37668,37688,37708,37728,37750,37769,37789,37808,37829,37848,37868,37889,37908,37928,37949,37969,37988,38009,38028,38049,38068,38089,38108,38129,38148,38168,38188,38208,38228,38249,38268,38290,38309,38329,38349,38368,38388,38408,38429,38448,38469,38489,38509,38528,38548,38568,38589,38608,38628,38649,38668,38689,38708,38729,38748,38769,38789,38808,38828,38849,38868,38888,38909,38928,38949,38969,38988,39008,39029,39048,39069,39088,39108,39128,39149,39169,39189,39208,39228,39248,39269,39289,39309,39328,39349,39369,39389,39408,39429,39448,39468,39489,39509,39528,39548,39568,39588,39608,39628,39648,39669,39688,39709,39728,39748,39769,39789,39809,39828,39848,39868,39889,39908,39928,39948,39968,39989,40009,40029,40048,40069,40088,40109,40130,40148,40169,40189,40209,40229,40248,40268,40289,40309,40329,40349,40370,40389,40409,40429,40448,40468,40488,40508,40529,40548,40569,40589,40608,40629,40648,40669,40688,40709,40729,40749,40768,40789,40808,40828,40848,40869,40889,40909,40928,40948,40968,40989,41008,41030,41048,41070,41089,41108,41128,41149,41168,41189,41209,41229,41248,41269,41289,41309,41328,41348,41369,41389,41409,41429,41448,41468,41489,41509,41529,41548,41568,41589,41608,41629,41649,41669,41688,41708,41728,41749,41769,41788,41809,41829,41848,41870,41888,41908,41929,41949,41968,41988,42008,42029,42048,42069,42090,42109,42129,42149,42169,42188,42208,42229,42248,42269,42289,42308,42329,42348,42368,42388,42409,42429,42448,42468,42489,42508,42528,42549,42568,42588,42609,42629,42648,42669,42689,42709,42728,42749,42769,42789,42809,42829,42848,42868,42889,42908,42929,42948,42969,42988,43009,43029,43048,43068,43088,43108,43128,43148,43168,43189,43208,43228,43248,43268,43289,43308,43328,43348,43368,43389,43409,43428,43448,43468,43489,43508,43528,43548,43568,43589,43608,43628,43649,43668,43689,43708,43728,43748,43769,43789,43808,43829,43848,43869,43889,43909,43928,43948,43968,43988,44009,44029,44048,44069,44089,44108,44128,44149,44169,44189,44209,44229,44249,44269,44288,44309,44328,44348,44369,44389,44408,44428,44448,44468,44489,44508,44528,44549,44569,44589,44609,44629,44648,44668,44689,44708,44729,44748,44768,44789,44809,44828,44848,44868,44889,44908,44930,44949,44969,44989,45008,45029,45049,45068,45089,45109,45129,45148,45169,45188,45208,45228,45249,45268,45288,45309,45329,45348,45369,45389,45409,45428,45449,45469,45489,45509,45529,45548,45569,45588,45609,45628,45648,45668,45688,45708,45729,45749,45768,45789,45809,45828,45849,45868,45889,45908,45929,45949,45969,45988,46008,46029,46049,46069,46089,46109,46129,46149,46169,46189,46209,46228,46249,46269,46289,46309,46329,46348,46368,46388,46409,46428,46448,46468,46489,46509,46529,46549,46569,46589,46608,46629,46649,46669,46689,46709,46729,46750,46768,46789,46808,46829,46849,46869,46889,46909,46928,46948,46968,46988,47008,47029,47049,47069,47089,47108,47128,47149,47168,47189,47208,47228,47248,47269,47289,47308,47329,47348,47369,47389,47409,47429,47449,47468,47489,47508,47529,47548,47569,47589,47608,47628,47649,47668,47689,47709,47729,47749,47769,47788,47808,47828,47848,47869,47888,47908,47929,47948,47968,47989,48009,48029,48048,48068,48089,48108,48129,48148,48169,48189,48208,48228,48249,48268,48289,48308,48328,48348,48368,48388,48409,48428,48449,48468,48488,48509,48529,48548,48569,48588,48608,48628,48649,48668,48689,48708,48728,48749,48769,48789,48808,48829,48849,48868,48889,48908,48928,48950,48969,48989,49008,49028,49049,49068,49089,49109,49129,49148,49169,49189,49208,49229,49248,49268,49289,49309,49329,49349,49368,49388,49409,49429,49449,49468,49488,49509,49528,49550,49568,49588,49608,49628,49648,49668,49688,49709,49728,49748,49769,49788,49810,49828,49849,49868,49889,49909,49929,49948,49968,49989,50008,50029,50049,50069,50089,50109,50129,50148,50169,50189,50208,50229,50248,50268,50289,50308,50329,50349,50368,50389,50409,50428,50448,50469,50489,50509,50528,50549,50568,50588,50609,50629,50649,50669,50688,50709,50728,50748,50768,50789,50809,50828,50848,50869,50889,50909,50928,50948,50969,50989,51009,51029,51049,51069,51088,51109,51129,51149,51168,51188,51209,51229,51249,51268,51289,51308,51329,51348,51369,51388,51408,51429,51449,51469,51488,51509,51529,51548,51569,51589,51608,51628,51648,51668,51689,51708,51728,51749,51768,51788,51808,51828,51848,51869,51889,51908,51928,51949,51968,51988,52008,52028,52048,52068,52088,52109,52128,52149,52168,52188,52208,52228,52248,52268,52289,52308,52328,52348,52368,52388,52408,52428,52448,52468,52488,52508,52528,52548,52568,52588,52608,52628,52648,52668,52688,52708,52728,52748,52768,52788,52808,52827,52847,52868,52889,52909,52929,52949,52968,52988,53009,53029,53049,53069,53089,53109,53129,53149,53169,53188,53209,53229,53249,53268,53288,53309,53328,53348,53368,53388,53409,53428,53448,53468,53489,53509,53529,53548,53568,53589,53608,53628,53648,53668,53688,53708,53728,53748,53768,53788,53809,53828,53849,53868,53888,53908,53928,53948,53968,53988,54008,54028,54048,54068,54088,54109,54129,54148,54168,54188,54208,54228,54248,54268,54288,54308,54328,54348,54368,54388,54408,54428,54449,54468,54488,54508,54528,54547,54567,54587,54609,54628,54649,54669,54690,54709,54729,54749,54769,54789,54809,54829,54849,54869,54889,54908,54928,54949,54969,54988,55009,55029,55049,55068,55088,55108,55128,55149,55168,55188,55209,55228,55248,55268,55288,55308,55329,55348,55368,55389,55408,55428,55448,55469,55488,55509,55528,55548,55569,55589,55608,55628,55648,55668,55689,55708,55728,55748,55768,55788,55808,55828,55848,55869,55888,55909,55928,55949,55969,55988,56008,56028,56049,56069,56088,56109,56128,56148,56168,56188,56208,56229,56248,56269,56288,56307,56328,56348,56369,56388,56408,56429,56449,56468,56489,56509,56529,56548,56568,56589,56608,56629,56648,56668,56688,56709,56728,56749,56768,56788,56808,56828,56848,56869,56888,56908,56929,56948,56969,56989,57009,57029,57048,57069,57088,57109,57129,57149,57169,57189,57208,57228,57248,57269,57289,57308,57328,57349,57369,57388,57409,57429,57449,57468,57488,57508,57528,57549,57569,57588,57608,57628,57649,57669,57688,57708,57729,57749,57769,57788,57808,57828,57849,57869,57888,57909,57929,57949,57968,57988,58009,58029,58049,58069,58087,58108,58128,58149,58168,58189,58209,58229,58249,58269,58288,58308,58330,58349,58368,58389,58408,58428,58448,58469,58488,58509,58528,58549,58569,58588,58608,58628,58649,58668,58689,58709,58728,58748,58768,58788,58808,58829,58849,58869,58888,58909,58929,58949,58968,58988,59008,59029,59049,59069,59088,59109,59129,59149,59169,59188,59208,59229,59248,59269,59288,59309,59328,59349,59369,59389,59409,59428,59449,59468,59488,59509,59529,59549,59569,59589,59609,59629,59648,59669,59688,59709,59729,59749,59769,59789,59809,59828,59849,59869,59889,59908,59929,59948,59969,59988,60008,60028,60049,60068,60088,60108,60128,60148,60169,60188,60209,60229,60249,60268,60289,60308,60328,60349,60368,60389,60408,60429,60449,60468,60489,60509,60529,60548,60569,60588,60608,60628,60649,60669,60688,60708,60728,60748,60769,60789,60809,60828,60848,60868,60889,60908,60929,60948,60969,60988,61009,61028,61049,61068,61089,61108,61129,61148,61168,61188,61208,61229,61249,61268,61288,61307,61328,61348,61369,61388,61409,61429,61449,61469,61488,61509,61529,61549,61569,61589,61608,61628,61649,61669,61689,61708,61729,61748,61769,61789,61809,61829,61849,61869,61888,61908,61929,61950,61969,61989,62008,62029,62048,62069,62089,62109,62129,62148,62169,62188,62209,62229,62248,62268,62288,62308,62329,62349,62369,62388,62409,62428,62449,62468,62489,62508,62528,62549,62569,62589,62608,62629,62649,62668,62688,62708,62728,62749,62768,62789,62809,62829,62849,62868,62889,62909,62928,62949,62969,62988,63009,63028,63048,63069,63088,63109,63128,63149,63168,63189,63208,63228,63249,63268,63289,63309,63329,63348,63369,63388,63409,63429,63449,63469,63489,63509,63528,63549,63568,63589,63608,63628,63649,63669,63689,63708,63728,63749,63768,63789,63808,63828,63848,63869,63889,63908,63928,63949,63968,63988,64009,64029,64049,64069,64089,64108,64128,64149,64169,64189,64209,64229,64249,64269,64289,64308,64328,64348,64369,64389,64408,64429,64448,64468,64488,64509,64528,64549,64568,64588,64608,64628,64648,64668,64688,64709,64728,64749,64769,64788,64809,64829,64848,64868,64889,64908,64929,64948,64969,64988,65009,65029,65048,65069,65088,65109,65128,65149,65169,65189,65209,65229,65249,65269,65289,65308,65328,65349,65369,65388,65408,65429,65449,65469,65488,65509,65528,65548,65569,65588,65608,65628,65649,65668,65689,65708,65728,65748,65769,65788,65808,65829,65848,65869,65888,65908,65929,65949,65969,65988,66008,66029,66049,66068,66089,66108,66129,66149,66169,66188,66208,66229,66249,66269,66289,66308,66329,66349,66368,66389,66409,66428,66448,66468,66488,66509,66528,66549,66569,66589,66608,66628,66649,66669,66688,66708,66728,66749,66768,66788,66810,66829,66849,66869,66889,66908,66928,66948,66969,66989,67008,67029,67049,67069,67088,67108,67129,67149,67169,67189,67208,67229,67248,67269,67289,67309,67329,67348,67368,67389,67408,67429,67449,67468,67489,67508,67528,67549,67568,67589,67608,67629,67649,67669,67689,67709,67728,67748,67768,67789,67809,67828,67849,67869,67889,67908,67928,67948,67969,67988,68008,68028,68048,68068,68089,68108,68128,68148,68169,68189,68209,68228,68248,68268,68288,68308,68328,68348,68369,68389,68408,68428,68448,68469,68488,68508,68528,68548,68569,68589,68608,68629,68648,68669,68689,68709,68728,68748,68769,68788,68809,68828,68848,68869,68888,68908,68928,68948,68968,68988,69008,69028,69048,69069,69088,69108,69128,69149,69169,69189,69209,69229,69248,69269,69289,69309,69328,69349,69368,69388,69409,69428,69448,69469,69488,69509,69529,69549,69569,69589,69608,69629,69648,69669,69689,69709,69729,69748,69769,69788,69809,69828,69848,69869,69888,69909,69929,69949,69968,69988,70008,70030,70048,70069,70089,70108,70128,70148,70169,70189,70208,70229,70249,70269,70289,70308,70328,70349,70368,70389,70408,70429,70449,70468,70489,70508,70528,70549,70569,70589,70609,70629,70648,70669,70689,70709,70729,70749,70769,70789,70809,70828,70849,70868,70888,70909,70928,70949,70969,70988,71009,71028,71048,71068,71089,71108,71128,71149,71168,71189,71209,71229,71248,71269,71288,71309,71329,71349,71368,71388,71409,71428,71449,71469,71489,71509,71529,71549,71568,71588,71608,71629,71649,71669,71688,71708,71728,71748,71768,71788,71809,71829,71849,71869,71888,71909,71928,71949,71969,71988,72009,72029,72049,72069,72088,72109,72129,72149,72169,72189,72209,72228,72248,72268,72289,72309,72328,72348,72368,72389,72409,72428,72448,72469,72489,72508,72529,72548,72568,72589,72608,72628,72649,72669,72689,72709,72729,72749,72768,72789,72808,72828,72849,72868,72889,72909,72928,72948,72968,72988,73009,73029,73048,73068,73089,73108,73128,73149,73169,73189,73208,73228,73248,73268,73289,73308,73329,73348,73368,73389,73409,73428,73449,73469,73488,73509,73528,73549,73568,73588,73609,73628,73648,73668,73688,73709,73728,73749,73768,73788,73809,73828,73849,73868,73888,73909,73929,73949,73970,73988,74009,74028,74048,74068,74089,74110,74128,74148,74168,74188,74209,74229,74248,74269,74289,74310,74328,74348,74368,74389,74408,74428,74449,74468,74488,74509,74529,74548,74569,74588,74609,74629,74648,74669,74689,74709,74728,74749,74769,74789,74810,74828,74849,74869,74888,74910,74928,74948,74969,74989,75009,75028,75049,75069,75088,75109,75128,75149,75168,75188,75208,75229,75248,75269,75288,75309,75328,75349,75369,75388,75408,75429,75449,75469,75489,75508,75528,75548,75569,75589,75609,75628,75648,75669,75688,75709,75729,75749,75769,75789,75810,75828,75849,75869,75888,75908,75928,75948,75968,75988,76009,76028,76049,76069,76088,76109,76129,76148,76169,76189,76209,76229,76249,76269,76289,76308,76329,76348,76368,76389,76409,76428,76448,76469,76488,76509,76529,76549,76569,76588,76609,76628,76648,76668,76689,76709,76728,76749,76768,76789,76809,76828,76849,76869,76889,76909,76928,76948,76968,76989,77009,77028,77048,77068,77089,77109,77129,77149,77169,77189,77208,77228,77249,77268,77288,77308,77328,77349,77368,77389,77408,77428,77448,77468,77489,77509,77528,77549,77569,77589,77609,77628,77649,77669,77689,77709,77728,77748,77769,77788,77809,77828,77848,77869,77889,77909,77928,77948,77969,77988,78008,78028,78049,78069,78088,78109,78129,78149,78169,78188,78209,78228,78249,78269,78289,78308,78328,78349,78369,78388,78409,78428,78449,78469,78488,78508,78529,78548,78568,78589,78609,78628,78648,78669,78688,78709,78729,78749,78769,78789,78810,78829,78849,78868,78888,78908,78928,78949,78968,78989,79009,79029,79049,79069,79089,79109,79129,79148,79169,79188,79209,79229,79248,79268,79288,79308,79328,79348,79368,79390,79408,79429,79448,79468,79489,79508,79528,79548,79569,79588,79609,79628,79648,79669,79688,79709,79729,79748,79768,79788,79810,79828,79848,79868,79889,79908,79928,79948,79969,79988,80008,80029,80049,80068,80088,80109,80129,80149,80169,80188,80209,80228,80248,80269,80289,80309,80329,80349,80369,80388,80409,80429,80448,80469,80489,80508,80528,80548,80568,80588,80608,80628,80649,80669,80689,80708,80729,80748,80769,80788,80808,80829,80849,80869,80889,80909,80928,80948,80969,80988,81009,81029,81048,81068,81089,81108,81129,81148,81169,81188,81209,81229,81248,81269,81288,81308,81329,81348,81368,81388,81408,81430,81448,81468,81489,81508,81529,81549,81569,81589,81609,81628,81649,81668,81688,81708,81729,81748,81769,81789,81809,81828,81848,81869,81888,81909,81929,81948,81969,81989,82009,82028,82049,82069,82089,82108,82129,82148,82169,82189,82209,82229,82248,82269,82289,82308,82329,82348,82369,82388,82409,82428,82448,82469,82488,82508,82529,82548,82569,82589,82609,82629,82648,82669,82689,82708,82728,82749,82769,82788,82808,82829,82850,82869,82888,82909,82928,82948,82969,82989,83009,83028,83049,83069,83089,83109,83129,83149,83169,83188,83209,83228,83248,83269,83289,83308,83329,83348,83369,83389,83408,83428,83448,83468,83489,83509,83529,83548,83569,83588,83609,83628,83648,83668,83689,83709,83729,83749,83769,83789,83808,83829,83848,83868,83889,83909,83928,83949,83968,83988,84008,84029,84048,84068,84089,84108,84129,84148,84169,84188,84209,84228,84248,84269,84288,84309,84329,84348,84369,84388,84409,84428,84448,84469,84489,84509,84529,84548,84568,84588,84609,84629,84648,84669,84688,84708,84728,84748,84769,84789,84809,84829,84848,84868,84888,84909,84929,84948,84969,84989,85008,85029,85049,85068,85088,85109,85129,85148,85169,85189,85208,85229,85249,85269,85289,85309,85329,85348,85369,85389,85409,85428,85449,85468,85489,85509,85528,85548,85568,85588,85609,85628,85649,85668,85689,85708,85729,85748,85769,85788,85809,85829,85848,85869,85888,85909,85928,85948,85969,85988,86009,86029,86049,86069,86089,86108,86129,86148,86169,86189,86208,86229,86249,86269,86289,86308,86329,86348,86368,86388,86409,86429,86449,86468,86488,86508,86529,86548,86569,86589,86609,86628,86649,86668,86688,86709,86729,86748,86769,86789,86810,86829,86848,86869,86889,86908,86928,86948,86968,86988,87009,87028,87048,87069,87088,87108,87128,87149,87168,87189,87208,87229,87249,87268,87288,87308,87329,87349,87369,87388,87409,87429,87448,87469,87489,87509,87528,87548,87568,87588,87609,87628,87648,87668,87688,87709,87728,87748,87769,87789,87809,87829,87848,87869,87888,87909,87929,87948,87969,87989,88009,88029,88048,88069,88088,88109,88129,88149,88168,88188,88210,88229,88249,88268,88289,88309,88328,88348,88368,88388,88409,88428,88448,88468,88489,88509,88528,88549,88569,88589,88609,88629,88648,88669,88688,88709,88729,88749,88769,88789,88809,88829,88849,88869,88889,88909,88929,88948,88968,88989,89009,89028,89049,89069,89088,89109,89128,89149,89168,89188,89208,89229,89249,89269,89289,89309,89329,89349,89368,89389,89409,89428,89449,89468,89488,89509,89528,89549,89569,89588,89609,89629,89648,89668,89688,89708,89728,89749,89769,89789,89809,89829,89849,89868,89890,89909,89929,89948,89968,89989,90008,90028,90049,90068,90088,90108,90129,90149,90169,90188,90209,90228,90248,90268,90289,90309,90329,90348,90368,90388,90409,90429,90449,90468,90489,90508,90529,90548,90568,90588,90609,90628,90649,90668,90689,90709,90728,90749,90768,90789,90808,90828,90849,90869,90888,90908,90928,90949,90968,90989,91009,91029,91049,91068,91089,91109,91129,91149,91168,91189,91209,91229,91249,91268,91289,91309,91329,91348,91369,91389,91409,91428,91449,91468,91489,91509,91529,91548,91568,91588,91609,91629,91649,91668,91688,91708,91729,91748,91769,91788,91809,91828,91849,91868,91889,91908,91929,91949,91968,91989,92009,92028,92049,92068,92089,92108,92128,92148,92168,92188,92209,92229,92248,92269,92288,92308,92329,92349,92368,92389,92408,92428,92449,92469,92489,92509,92528,92549,92569,92589,92608,92628,92648,92669,92688,92709,92728,92749,92768,92789,92809,92828,92849,92869,92889,92909,92929,92949,92968,92989,93008,93030,93049,93068,93088,93109,93128,93149,93168,93188,93208,93228,93249,93268,93288,93309,93328,93349,93368,93388,93409,93428,93449,93468,93488,93509,93528,93549,93568,93588,93609,93628,93649,93668,93688,93708,93728,93750,93769,93788,93809,93828,93849,93868,93889,93909,93928,93949,93969,93988,94008,94029,94048,94068,94088,94108,94128,94148,94168,94189,94210,94228,94248,94268,94289,94309,94328,94349,94369,94389,94409,94428,94449,94469,94488,94508,94529,94549,94569,94589,94609,94628,94649,94668,94688,94709,94729,94749,94768,94788,94809,94828,94849,94868,94889,94908,94928,94948,94968,94988,95009,95029,95049,95068,95088,95109,95129,95148,95169,95188,95209,95228,95248,95268,95289,95309,95328,95349,95368,95388,95408,95429,95449,95468,95488,95509,95529,95549,95569,95588,95608,95628,95648,95669,95688,95708,95729,95748,95769,95789,95809,95828,95848,95869,95888,95909,95929,95948,95968,95988,96009,96029,96049,96068,96089,96109,96128,96148,96168,96188,96209,96228,96249,96269,96289,96309,96329,96349,96369,96388,96409,96428,96449,96469,96488,96509,96528,96549,96568,96588,96608,96629,96648,96668,96689,96709,96728,96749,96769,96788,96810,96829,96849,96868,96889,96909,96929,96949,96968,96989,97009,97029,97049,97068,97088,97108,97128,97149,97168,97188,97208,97229,97249,97269,97288,97308,97328,97349,97369,97388,97408,97428,97448,97469,97489,97508,97529,97549,97569,97588,97609,97628,97648,97669,97687,97709,97728,97749,97769,97789,97809,97829,97849,97869,97889,97909,97929,97949,97969,97988,98008,98029,98048,98069,98089,98109,98128,98148,98169,98188,98208,98229,98249,98268,98289,98309,98329,98349,98368,98388,98408,98429,98449,98469,98490,98508,98529,98548,98569,98588,98609,98629,98649,98668,98689,98708,98729,98749,98769,98788,98808,98828,98848,98869,98888,98909,98928,98948,98968,98988,99008,99029,99048,99069,99088,99109,99128,99148,99169,99189,99209,99229,99249,99269,99288,99309,99329,99348,99369,99388,99408,99429,99449,99468,99489,99508,99528,99548,99569,99588,99609,99629,99648,99669,99689,99708,99729,99748,99769,99788,99808,99829,99849,99868,99889,99909,99929,99949,99968,99988,100009,100028,100048,100068,100088,100109,100129,100149,100169,100188,100209,100228,100248,100269,100289,100308,100329,100349,100369,100389,100408,100429,100448,100469,100488,100508,100529,100549,100568,100589,100609,100629,100648,100669,100688,100708,100728,100749,100768,100788,100809,100828,100849,100871,100889,100909,100928,100949,100969,100989,101008,101028,101048,101068,101088,101109,101129,101148,101169,101188,101209,101230,101248,101269,101288,101309,101328,101349,101369,101388,101408,101428,101449,101468,101488,101508,101528,101549,101569,101588,101609,101629,101649,101668,101689,101708,101729,101749,101769,101788,101808,101829,101849,101868,101888,101908,101928,101949,101969,101989,102008,102029,102049,102068,102089,102108,102128,102149,102168,102188,102209,102229,102249,102268,102288,102309,102329,102349,102369,102388,102408,102429,102449,102469,102488,102509,102529,102548,102569,102588,102609,102628,102648,102668,102688,102709,102728,102748,102769,102788,102809,102829,102848,102869,102888,102909,102929,102948,102969,102988,103008,103028,103048,103069,103089,103108,103129,103149,103169,103188,103209,103229,103248,103269,103288,103308,103329,103348,103369,103389,103408,103429,103448,103469,103488,103508,103528,103548,103569,103588,103608,103628,103648,103669,103688,103708,103729,103748,103768,103788,103808,103828,103849,103868,103888,103909,103929,103948,103968,103988,104009,104028,104049,104069,104089,104109,104128,104149,104169,104189,104209,104228,104248,104269,104289,104309,104329,104348,104368,104388,104409,104429,104449,104468,104488,104509,104528,104548,104568,104588,104609,104629,104648,104669,104688,104709,104729,104749,104769,104789,104809,104829,104848,104868,104888,104909,104928,104949,104969,104988,105009,105030,105050,105069,105088,105109,105128,105149,105169,105188,105209,105228,105249,105269,105290,105309,105329,105348,105369,105388,105409,105428,105449,105469,105488,105508,105529,105548,105569,105588,105609,105629,105648,105669,105689,105709,105728,105749,105768,105788,105808,105829,105849,105868,105889,105908,105928,105949,105969,105988,106009,106029,106049,106068,106089,106109,106128,106149,106169,106189,106208,106229,106248,106268,106289,106309,106328,106348,106368,106390,106409,106429,106448,106468,106489,106508,106528,106549,106568,106590,106608,106628,106649,106669,106690,106707],"xSR":741.5,"ySR":469.95,"xT1":424.9,"yT1":0,"xT2":1058.1,"yT2":0,"toosoon":0,"cond_shown":"equaldotanddens","ratio_trial":900,"smaller_num":"9","larger_num":"10","correct_side":1,"subjID":"PAULANEIRAPAEZ29","gender":"1","age":"10","school":"4"},{"start_time":1552309956445,"click_time":1552309958218,"finger_time":1552309957357,"fix_duration":1425.2963087332473,"trial":3,"RT":912,"MT":861,"sideResp":2,"stimulus":"img/900/equaldotanddens/R/11_Ratio_900_L_18_R_20.png","xmouse":[764,764,764,764,770,781,789,795,797,797,797,797,797,796,795,795,794,793,791,790,789,789,789,789,789,789,789,789,789,789,789,789,788,788,786,783,780,777,775,774,774,776,784,798,811,848,860,872,884,892,927,941,955,968,985,985,985,985,985,985,985,985,985,985,985,985,985,985,985,985,985,985,985,985,985,1289,1343,1351,1351,1352,1351,1347,1344,1342,1340,1333,1289,1234,1128],"ymouse":[531,531,531,531,531,531,531,531,531,531,531,531,531,531,530,530,530,530,529,529,529,529,529,529,529,529,529,529,529,529,529,529,529,529,529,527,527,526,525,525,525,522,514,503,493,435,413,388,358,328,206,162,120,73,1,1,1,1,1,1,1,1,1,1,1,1,1,1,1,1,1,1,1,1,1,3,10,11,11,14,28,37,40,42,43,44,45,36,6],"timestamp_mouse":[13,32,52,73,92,112,132,152,174,192,213,233,252,272,292,313,333,352,373,392,413,432,452,472,493,514,532,553,572,593,612,632,652,673,693,712,733,752,772,792,812,832,853,873,892,912,932,952,973,992,1012,1032,1053,1072,1092,1112,1132,1152,1173,1192,1213,1233,1253,1272,1292,1313,1332,1353,1372,1392,1413,1433,1452,1473,1493,1512,1532,1553,1572,1592,1614,1632,1653,1673,1692,1712,1733,1753,1773],"xSR":741.5,"ySR":469.95,"xT1":424.9,"yT1":0,"xT2":1058.1,"yT2":0,"toosoon":0,"cond_shown":"equaldotanddens","ratio_trial":900,"smaller_num":"18","larger_num":"20","correct_side":2,"subjID":"PAULANEIRAPAEZ29","gender":"1","age":"10","school":"4"},{"start_time":1552309968595,"click_time":1552309971077,"finger_time":1552309970658,"fix_duration":636.1651499220784,"trial":4,"RT":2063,"MT":419,"sideResp":2,"stimulus":"img/500/equaldotanddens/R/1_Ratio_500_L_9_R_18.png","xmouse":[784,785,785,785,785,785,785,785,785,785,785,785,785,785,785,785,785,785,785,785,785,785,785,785,785,785,785,785,785,785,785,785,785,785,785,785,785,785,785,785,785,785,785,785,785,785,785,785,785,785,785,785,785,785,785,785,785,785,785,785,785,785,785,785,785,785,785,785,785,785,785,785,785,785,785,785,785,785,785,785,785,785,785,785,785,785,785,785,785,785,785,784,783,782,781,778,778,778,777,775,771,770,770,777,792,836,838,838,837,832,811,804,802,802,809,832,839,851,865,879,921,944,971,1002,1065],"ymouse":[502,503,504,504,508,509,509,509,509,509,509,509,509,509,509,509,509,509,509,509,509,509,509,509,509,511,511,511,511,511,511,511,511,511,511,511,511,511,511,511,511,511,511,511,511,511,511,511,511,512,512,512,512,512,512,512,512,512,512,512,512,512,512,512,512,512,512,512,512,512,512,512,512,512,512,512,512,512,512,512,512,512,512,512,512,512,512,512,512,512,512,512,512,512,512,512,512,512,511,508,498,489,477,458,440,407,404,403,399,386,329,303,277,256,234,198,188,174,161,150,129,120,111,103,84],"timestamp_mouse":[10,23,51,62,83,103,123,143,163,182,203,223,242,262,283,302,323,343,362,383,402,422,443,462,482,503,523,543,563,583,603,623,643,663,682,703,722,742,763,783,803,823,843,863,882,903,923,943,963,982,1002,1022,1042,1063,1082,1103,1122,1143,1163,1182,1203,1223,1243,1263,1283,1303,1323,1342,1363,1382,1403,1422,1443,1462,1483,1502,1523,1542,1563,1582,1603,1623,1643,1663,1682,1703,1722,1742,1764,1782,1802,1822,1843,1862,1882,1903,1922,1943,1963,1983,2003,2023,2043,2063,2082,2102,2123,2142,2163,2182,2203,2222,2242,2262,2283,2302,2323,2342,2362,2382,2402,2422,2442,2462,2482],"xSR":741.5,"ySR":469.95,"xT1":424.9,"yT1":0,"xT2":1058.1,"yT2":0,"toosoon":0,"cond_shown":"equaldotanddens","ratio_trial":500,"smaller_num":"9","larger_num":"18","correct_side":2,"subjID":"PAULANEIRAPAEZ29","gender":"1","age":"10","school":"4"},{"start_time":1552309974650,"click_time":1552309978479,"finger_time":1552309975598,"fix_duration":750.9694991632826,"trial":5,"RT":948,"MT":2881,"sideResp":2,"stimulus":"img/750/equaldotanddens/R/3_Ratio_750_L_15_R_20.png","xmouse":[766,766,767,767,767,767,767,767,767,767,767,767,767,767,767,767,767,767,767,767,767,767,767,767,767,767,767,767,767,767,767,767,767,767,767,767,767,767,767,767,767,767,766,765,764,762,760,747,742,734,730,726,725,725,725,725,725,725,731,740,760,776,809,826,840,853,861,867,868,870,871,871,871,871,872,872,873,873,876,878,879,880,880,880,880,880,880,880,880,880,880,880,880,880,880,880,880,880,880,880,880,880,879,878,874,867,858,834,834,834,836,838,838,838,838,837,835,833,833,833,834,834,835,836,836,836,836,837,851,857,858,859,859,862,864,864,864,867,903,960,978,985,989,1007,1015,1018,1018,1018,1017,1017,1016,1016,1016,1014,1008,1002,999,997,991,987,983,980,976,970,969,968,967,967,967,967,967,967,967,967,968,970,971,976,980,982,987,991,998,1008,1012,1018,1024,1029,1038,1049,1057,1065],"ymouse":[496,496,495,495,495,495,495,495,495,497,498,499,499,499,499,499,499,499,499,499,499,499,499,499,499,499,499,499,499,499,499,499,499,499,499,499,499,499,499,500,500,500,500,500,499,498,490,462,442,412,405,387,383,383,383,383,382,381,367,353,333,323,306,299,293,289,287,287,287,287,287,287,287,287,286,285,282,279,272,267,266,264,264,264,264,264,264,264,264,264,264,264,264,264,264,264,264,264,264,264,266,269,274,274,266,246,228,207,207,206,206,216,224,226,228,232,240,279,303,303,304,300,279,254,254,254,253,253,282,314,325,329,329,329,329,329,329,329,306,217,194,188,184,166,157,151,150,148,148,148,148,148,148,146,131,118,109,103,94,90,87,86,85,85,84,84,84,84,84,84,84,84,84,84,83,82,81,78,76,75,73,73,70,68,67,67,66,65,63,60,58,56],"timestamp_mouse":[13,27,48,67,87,108,128,148,167,188,207,227,248,267,288,308,328,347,367,388,408,428,449,468,488,508,528,547,567,587,607,627,647,668,688,708,728,748,767,787,807,828,847,867,887,908,928,948,967,988,1008,1027,1047,1069,1088,1107,1128,1148,1168,1187,1208,1227,1248,1267,1287,1307,1327,1349,1367,1387,1407,1427,1447,1468,1488,1507,1527,1548,1568,1587,1608,1627,1648,1668,1688,1708,1727,1748,1767,1788,1808,1827,1848,1868,1888,1908,1928,1948,1967,1988,2008,2027,2049,2067,2088,2107,2128,2149,2167,2187,2207,2227,2248,2267,2288,2308,2327,2349,2367,2387,2408,2428,2448,2467,2487,2508,2528,2549,2568,2587,2607,2627,2647,2667,2687,2707,2727,2749,2767,2787,2807,2828,2848,2867,2888,2908,2927,2948,2967,2988,3007,3028,3048,3067,3088,3108,3128,3148,3167,3187,3207,3228,3248,3267,3287,3308,3327,3347,3367,3388,3407,3428,3447,3468,3487,3507,3527,3550,3567,3588,3607,3627,3648,3667,3687,3707,3727,3748,3767,3787,3807,3828],"xSR":741.5,"ySR":469.95,"xT1":424.9,"yT1":0,"xT2":1058.1,"yT2":0,"toosoon":0,"cond_shown":"equaldotanddens","ratio_trial":750,"smaller_num":"15","larger_num":"20","correct_side":2,"subjID":"PAULANEIRAPAEZ29","gender":"1","age":"10","school":"4"},{"start_time":1552309980669,"click_time":1552309982258,"finger_time":1552309981338,"fix_duration":470.4778635291168,"trial":6,"RT":669,"MT":920,"sideResp":2,"stimulus":"img/750/randomdotsizeEA/L/13_Ratio_750_L_8_R_6.png","xmouse":[786,786,786,786,786,786,786,786,786,786,786,786,786,786,786,786,786,786,786,786,786,786,786,786,786,786,787,790,791,792,792,792,791,778,770,760,753,741,741,741,741,746,755,756,756,756,759,767,775,784,791,795,797,797,797,797,797,800,802,805,810,815,825,833,844,854,859,863,863,865,866,868,885,902,921,940,964,1006,1035,1077],"ymouse":[513,517,520,520,520,520,520,520,520,520,520,520,520,520,520,520,520,520,520,520,520,520,520,520,519,518,517,508,504,499,493,487,480,455,439,419,399,355,344,329,313,295,265,258,253,247,237,219,206,194,184,176,170,168,166,165,161,155,150,145,139,135,125,116,110,104,101,98,97,96,94,93,89,86,83,82,80,79,79,72],"timestamp_mouse":[8,29,50,69,88,108,129,148,169,188,209,228,248,269,289,309,329,348,369,388,409,429,449,469,488,509,528,548,569,588,608,628,648,669,688,708,728,748,769,788,808,828,848,868,888,908,928,949,968,989,1008,1029,1048,1068,1088,1109,1128,1148,1169,1188,1208,1228,1249,1268,1288,1309,1328,1348,1368,1389,1409,1428,1448,1469,1488,1508,1528,1549,1568,1589],"xSR":741.5,"ySR":469.95,"xT1":424.9,"yT1":0,"xT2":1058.1,"yT2":0,"toosoon":0,"cond_shown":"randomdotsizeEA","ratio_trial":750,"smaller_num":"6","larger_num":"8","correct_side":1,"subjID":"PAULANEIRAPAEZ29","gender":"1","age":"10","school":"4"},{"start_time":1552310035580,"click_time":1552310042477,"finger_time":1552310038698,"fix_duration":300.3680504390217,"trial":7,"RT":3118,"MT":3779,"sideResp":2,"stimulus":"img/750/randomdotsizeEA/L/10_Ratio_750_L_4_R_3.png","xmouse":[768,768,768,768,768,768,767,767,766,766,766,766,766,766,766,766,766,765,765,763,761,760,760,760,760,760,760,760,760,760,760,758,757,755,753,752,752,752,752,752,752,752,752,752,752,752,752,752,752,752,752,752,752,752,752,752,752,752,752,752,752,752,752,752,752,752,752,752,752,752,752,752,752,752,752,752,752,752,752,752,752,752,752,753,753,753,753,753,753,753,753,753,753,753,753,755,756,757,757,757,759,760,769,771,771,771,771,771,772,773,773,773,773,773,773,773,773,773,773,773,773,773,773,773,773,773,773,773,773,773,773,773,773,773,773,773,77