[{"start_time":1552328043733,"click_time":1552328046000,"finger_time":1552328043746,"fix_duration":1288.8745963318493,"trial":0,"RT":13,"MT":2254,"sideResp":1,"stimulus":"img/500/randomdotsizeEA/R/9_Ratio_500_L_2_R_4.png","xmouse":[799,799,799,799,799,799,799,799,799,799,799,799,799,799,799,799,799,799,799,799,799,799,799,799,799,799,799,799,799,799,799,799,799,799,799,799,799,799,799,799,799,799,799,799,799,799,799,799,799,799,799,799,797,796,795,795,795,795,795,795,795,795,795,795,795,793,792,791,789,788,787,786,786,786,786,786,786,786,786,786,786,792,792,792,792,779,726,705,681,657,621,612,607,601,594,582,555,553,552,552,538,526,512,505,501,501,501,501,501,501,501,501,501,505],"ymouse":[547,547,547,547,547,547,547,547,547,547,547,547,547,547,547,547,547,547,547,547,547,547,547,547,547,547,547,547,547,547,547,547,547,547,547,547,547,547,547,547,547,547,547,547,547,547,547,547,547,547,547,547,557,564,572,575,575,575,575,575,575,575,575,575,575,576,578,579,581,583,585,586,586,586,586,586,586,586,586,586,584,559,532,532,442,395,311,298,289,282,271,265,261,255,247,235,203,190,176,164,136,121,109,103,101,101,101,101,101,101,101,101,101,96],"timestamp_mouse":[13,28,46,66,87,107,126,146,166,187,207,226,247,267,286,307,326,347,367,386,407,426,447,466,485,507,526,547,566,586,608,625,646,666,687,706,726,747,767,787,807,826,845,867,887,906,926,945,967,987,1006,1026,1046,1065,1086,1107,1126,1146,1166,1186,1206,1226,1247,1266,1286,1305,1326,1345,1367,1386,1406,1427,1447,1466,1486,1506,1527,1546,1566,1586,1606,1626,1646,1667,1687,1707,1725,1747,1766,1786,1807,1826,1846,1867,1887,1905,1927,1946,1967,1987,2007,2026,2046,2067,2086,2106,2127,2147,2166,2187,2207,2226,2246,2266],"xSR":741.5,"ySR":469.95,"xT1":424.9,"yT1":0,"xT2":1058.1,"yT2":0,"toosoon":0,"cond_shown":"randomdotsizeEA","ratio_trial":500,"smaller_num":"2","larger_num":"4","correct_side":2,"subjID":"RafaelDavidJimenez21","gender":"0","age":"10","school":"4","test":{"fix_dur":[250,1500],"timestim":300,"targets_dim":[100,100],"targets_relative_coord":[0.3,0.7],"size_stim":[880,420],"start_dim":[100,100],"size_start":[300,300],"size_fix":60,"samplingrate":20,"img_types":["equaldotsize","equaldotanddens","randomdotsizeEA"],"ratios":[250,500,750,900],"rep_conds":9,"nTrials":120,"trials_to_rest":500,"Trials_order":[77,13,20,5,46,9,69,113,4,118,19,21,3,97,27,94,55,83,99,78,80,36,22,90,14,96,67,53,119,82,39,35,1,114,65,56,47,16,45,0,70,86,84,60,116,25,93,106,41,85,74,79,105,17,104,98,34,109,42,54,100,33,91,11,95,115,61,51,75,57,38,111,89,71,43,12,24,40,18,103,28,10,102,76,31,64,117,58,112,15,37,49,59,92,81,6,66,8,32,63,62,44,23,52,110,29,2,101,68,87,73,26,88,30,50,107,72,48,7,108],"cond_shown":["randomdotsizeEA","equaldotanddens","randomdotsizeEA","randomdotsizeEA","equaldotanddens","equaldotsize","equaldotsize","randomdotsizeEA","equaldotanddens","equaldotanddens","equaldotanddens","equaldotsize","equaldotsize","equaldotanddens","equaldotsize","equaldotanddens","equaldotanddens","randomdotsizeEA","equaldotsize","equaldotsize","randomdotsizeEA","equaldotsize","equaldotanddens","equaldotsize","randomdotsizeEA","equaldotsize","equaldotanddens","randomdotsizeEA","randomdotsizeEA","equaldotanddens","equaldotsize","randomdotsizeEA","equaldotanddens","equaldotsize","randomdotsizeEA","randomdotsizeEA","randomdotsizeEA","equaldotanddens","equaldotsize","equaldotsize","equaldotanddens","randomdotsizeEA","equaldotsize","equaldotsize","randomdotsizeEA","equaldotanddens","equaldotsize","equaldotanddens","randomdotsizeEA","equaldotanddens","randomdotsizeEA","equaldotanddens","equaldotsize","randomdotsizeEA","randomdotsizeEA","randomdotsizeEA","equaldotanddens","equaldotanddens","equaldotsize","equaldotsize","equaldotanddens","equaldotsize","equaldotanddens","randomdotsizeEA","randomdotsizeEA","equaldotanddens","equaldotanddens","equaldotsize","equaldotsize","equaldotsize","randomdotsizeEA","equaldotsize","randomdotsizeEA","randomdotsizeEA","equaldotanddens","equaldotsize","equaldotsize","equaldotanddens","equaldotsize","equaldotanddens","equaldotanddens","equaldotanddens","equaldotsize","equaldotanddens","equaldotanddens","equaldotanddens","equaldotsize","equaldotanddens","equaldotanddens","equaldotsize","equaldotanddens","equaldotanddens","randomdotsizeEA","randomdotsizeEA","equaldotsize","equaldotsize","equaldotsize","randomdotsizeEA","randomdotsizeEA","equaldotsize","randomdotsizeEA","randomdotsizeEA","randomdotsizeEA","equaldotanddens","randomdotsizeEA","randomdotsizeEA","randomdotsizeEA","randomdotsizeEA","randomdotsizeEA","equaldotsize","equaldotanddens","randomdotsizeEA","equaldotanddens","equaldotsize","randomdotsizeEA","randomdotsizeEA","equaldotsize","equaldotsize","equaldotanddens","equaldotsize"],"ratio_trial":[500,250,750,500,900,900,900,500,500,900,750,900,500,250,500,900,750,900,500,750,750,250,900,750,250,250,750,500,900,900,500,900,250,750,500,750,900,500,900,250,900,250,250,250,750,250,900,900,500,250,250,750,900,500,750,250,900,250,750,750,500,900,750,900,900,750,250,500,500,900,250,500,500,900,750,250,250,500,750,750,500,900,750,500,750,500,900,900,500,500,250,250,900,750,900,750,750,750,750,500,250,750,900,500,250,500,250,500,750,500,250,250,500,750,250,900,250,250,750,250],"smaller_num":["2","5","6","5","18","18","18","4","9","18","3","18","1","3","2","18","18","18","2","6","15","6","18","18","3","4","15","9","18","9","6","9","2","3","2","3","9","1","9","4","18","3","2","3","12","6","18","18","3","1","1","3","18","2","12","5","18","2","12","9","1","9","6","9","18","3","5","9","10","18","3","1","9","9","15","6","2","1","6","15","6","18","18","4","15","2","18","18","5","2","6","3","18","15","18","18","15","9","3","2","3","15","9","9","6","5","4","4","9","1","2","4","2","15","3","9","3","1","3","3"],"larger_num":["4","20","8","10","20","20","20","8","18","20","4","20","2","12","4","20","24","20","4","8","20","24","20","24","12","16","20","18","20","10","12","10","8","4","4","4","10","2","10","16","20","12","8","12","16","24","20","20","6","4","4","4","20","4","16","20","20","8","16","12","2","10","8","10","20","4","20","18","20","20","12","2","18","10","20","24","8","2","8","20","12","20","24","8","20","4","20","20","10","4","24","12","20","20","20","24","20","12","4","4","12","20","10","18","24","10","16","8","12","2","8","16","4","20","12","10","12","4","4","12"],"correct_side":[2,2,2,1,1,2,2,1,2,1,1,1,2,1,1,1,1,1,1,2,1,1,2,1,1,2,2,1,2,2,1,2,1,1,2,1,2,2,1,2,1,2,1,2,2,1,2,1,2,2,2,1,1,2,2,2,1,1,2,2,2,2,1,2,2,1,2,2,2,1,2,2,2,1,2,1,2,2,1,2,1,2,1,1,2,1,1,1,1,1,1,2,2,1,1,1,2,2,1,1,1,2,2,2,2,2,2,1,2,2,2,1,1,2,2,2,1,2,1,2],"img_shown":["img/500/randomdotsizeEA/R/9_Ratio_500_L_2_R_4.png","img/250/equaldotanddens/R/12_Ratio_250_L_5_R_20.png","img/750/randomdotsizeEA/R/2_Ratio_750_L_6_R_8.png","img/500/randomdotsizeEA/L/7_Ratio_500_L_10_R_5.png","img/900/equaldotanddens/L/2_Ratio_900_L_20_R_18.png","img/900/equaldotsize/R/13_Ratio_900_L_18_R_20.png","img/900/equaldotsize/R/9_Ratio_900_L_18_R_20.png","img/500/randomdotsizeEA/L/8_Ratio_500_L_8_R_4.png","img/500/equaldotanddens/R/6_Ratio_500_L_9_R_18.png","img/900/equaldotanddens/L/10_Ratio_900_L_20_R_18.png","img/750/equaldotanddens/L/9_Ratio_750_L_4_R_3.png","img/900/equaldotsize/L/2_Ratio_900_L_20_R_18.png","img/500/equaldotsize/R/12_Ratio_500_L_1_R_2.png","img/250/equaldotanddens/L/15_Ratio_250_L_12_R_3.png","img/500/equaldotsize/L/5_Ratio_500_L_4_R_2.png","img/900/equaldotanddens/L/4_Ratio_900_L_20_R_18.png","img/750/equaldotanddens/L/6_Ratio_750_L_24_R_18.png","img/900/randomdotsizeEA/L/8_Ratio_900_L_20_R_18.png","img/500/equaldotsize/L/5_Ratio_500_L_4_R_2.png","img/750/equaldotsize/R/2_Ratio_750_L_6_R_8.png","img/750/randomdotsizeEA/L/1_Ratio_750_L_20_R_15.png","img/250/equaldotsize/L/5_Ratio_250_L_24_R_6.png","img/900/equaldotanddens/R/14_Ratio_900_L_18_R_20.png","img/750/equaldotsize/L/6_Ratio_750_L_24_R_18.png","img/250/randomdotsizeEA/L/15_Ratio_250_L_12_R_3.png","img/250/equaldotsize/R/10_Ratio_250_L_4_R_16.png","img/750/equaldotanddens/R/5_Ratio_750_L_15_R_20.png","img/500/randomdotsizeEA/L/4_Ratio_500_L_18_R_9.png","img/900/randomdotsizeEA/R/9_Ratio_900_L_18_R_20.png","img/900/equaldotanddens/R/6_Ratio_900_L_9_R_10.png","img/500/equaldotsize/L/11_Ratio_500_L_12_R_6.png","img/900/randomdotsizeEA/R/5_Ratio_900_L_9_R_10.png","img/250/equaldotanddens/L/1_Ratio_250_L_8_R_2.png","img/750/equaldotsize/L/8_Ratio_750_L_4_R_3.png","img/500/randomdotsizeEA/R/9_Ratio_500_L_2_R_4.png","img/750/randomdotsizeEA/L/9_Ratio_750_L_4_R_3.png","img/900/randomdotsizeEA/R/6_Ratio_900_L_9_R_10.png","img/500/equaldotanddens/R/15_Ratio_500_L_1_R_2.png","img/900/equaldotsize/L/1_Ratio_900_L_10_R_9.png","img/250/equaldotsize/R/10_Ratio_250_L_4_R_16.png","img/900/equaldotanddens/L/8_Ratio_900_L_20_R_18.png","img/250/randomdotsizeEA/R/11_Ratio_250_L_3_R_12.png","img/250/equaldotsize/L/1_Ratio_250_L_8_R_2.png","img/250/equaldotsize/R/9_Ratio_250_L_3_R_12.png","img/750/randomdotsizeEA/R/11_Ratio_750_L_12_R_16.png","img/250/equaldotanddens/L/5_Ratio_250_L_24_R_6.png","img/900/equaldotsize/R/13_Ratio_900_L_18_R_20.png","img/900/equaldotanddens/L/4_Ratio_900_L_20_R_18.png","img/500/randomdotsizeEA/R/2_Ratio_500_L_3_R_6.png","img/250/equaldotanddens/R/8_Ratio_250_L_1_R_4.png","img/250/randomdotsizeEA/R/8_Ratio_250_L_1_R_4.png","img/750/equaldotanddens/L/9_Ratio_750_L_4_R_3.png","img/900/equaldotsize/L/4_Ratio_900_L_20_R_18.png","img/500/randomdotsizeEA/R/9_Ratio_500_L_2_R_4.png","img/750/randomdotsizeEA/R/11_Ratio_750_L_12_R_16.png","img/250/randomdotsizeEA/R/12_Ratio_250_L_5_R_20.png","img/900/equaldotanddens/L/2_Ratio_900_L_20_R_18.png","img/250/equaldotanddens/L/7_Ratio_250_L_8_R_2.png","img/750/equaldotsize/R/11_Ratio_750_L_12_R_16.png","img/750/equaldotsize/R/15_Ratio_750_L_9_R_12.png","img/500/equaldotanddens/R/12_Ratio_500_L_1_R_2.png","img/900/equaldotsize/R/6_Ratio_900_L_9_R_10.png","img/750/equaldotanddens/L/14_Ratio_750_L_8_R_6.png","img/900/randomdotsizeEA/R/3_Ratio_900_L_9_R_10.png","img/900/randomdotsizeEA/R/12_Ratio_900_L_18_R_20.png","img/750/equaldotanddens/L/10_Ratio_750_L_4_R_3.png","img/250/equaldotanddens/R/12_Ratio_250_L_5_R_20.png","img/500/equaldotsize/R/1_Ratio_500_L_9_R_18.png","img/500/equaldotsize/R/3_Ratio_500_L_10_R_20.png","img/900/equaldotsize/L/4_Ratio_900_L_20_R_18.png","img/250/randomdotsizeEA/R/4_Ratio_250_L_3_R_12.png","img/500/equaldotsize/R/12_Ratio_500_L_1_R_2.png","img/500/randomdotsizeEA/R/6_Ratio_500_L_9_R_18.png","img/900/randomdotsizeEA/L/1_Ratio_900_L_10_R_9.png","img/750/equaldotanddens/R/5_Ratio_750_L_15_R_20.png","img/250/equaldotsize/L/5_Ratio_250_L_24_R_6.png","img/250/equaldotsize/R/13_Ratio_250_L_2_R_8.png","img/500/equaldotanddens/R/12_Ratio_500_L_1_R_2.png","img/750/equaldotsize/L/13_Ratio_750_L_8_R_6.png","img/750/equaldotanddens/R/4_Ratio_750_L_15_R_20.png","img/500/equaldotanddens/L/11_Ratio_500_L_12_R_6.png","img/900/equaldotanddens/R/12_Ratio_900_L_18_R_20.png","img/750/equaldotsize/L/6_Ratio_750_L_24_R_18.png","img/500/equaldotanddens/L/8_Ratio_500_L_8_R_4.png","img/750/equaldotanddens/R/3_Ratio_750_L_15_R_20.png","img/500/equaldotanddens/L/5_Ratio_500_L_4_R_2.png","img/900/equaldotsize/L/8_Ratio_900_L_20_R_18.png","img/900/equaldotanddens/L/10_Ratio_900_L_20_R_18.png","img/500/equaldotanddens/L/7_Ratio_500_L_10_R_5.png","img/500/equaldotsize/L/5_Ratio_500_L_4_R_2.png","img/250/equaldotanddens/L/5_Ratio_250_L_24_R_6.png","img/250/equaldotanddens/R/11_Ratio_250_L_3_R_12.png","img/900/randomdotsizeEA/R/12_Ratio_900_L_18_R_20.png","img/750/randomdotsizeEA/L/1_Ratio_750_L_20_R_15.png","img/900/equaldotsize/L/4_Ratio_900_L_20_R_18.png","img/750/equaldotsize/L/6_Ratio_750_L_24_R_18.png","img/750/equaldotsize/R/5_Ratio_750_L_15_R_20.png","img/750/randomdotsizeEA/R/15_Ratio_750_L_9_R_12.png","img/750/randomdotsizeEA/L/10_Ratio_750_L_4_R_3.png","img/500/equaldotsize/L/5_Ratio_500_L_4_R_2.png","img/250/randomdotsizeEA/L/15_Ratio_250_L_12_R_3.png","img/750/randomdotsizeEA/R/3_Ratio_750_L_15_R_20.png","img/900/randomdotsizeEA/R/6_Ratio_900_L_9_R_10.png","img/500/equaldotanddens/R/1_Ratio_500_L_9_R_18.png","img/250/randomdotsizeEA/R/6_Ratio_250_L_6_R_24.png","img/500/randomdotsizeEA/R/14_Ratio_500_L_5_R_10.png","img/250/randomdotsizeEA/R/10_Ratio_250_L_4_R_16.png","img/500/randomdotsizeEA/L/8_Ratio_500_L_8_R_4.png","img/750/randomdotsizeEA/R/15_Ratio_750_L_9_R_12.png","img/500/equaldotsize/R/15_Ratio_500_L_1_R_2.png","img/250/equaldotanddens/R/13_Ratio_250_L_2_R_8.png","img/250/randomdotsizeEA/L/2_Ratio_250_L_16_R_4.png","img/500/equaldotanddens/L/10_Ratio_500_L_4_R_2.png","img/750/equaldotsize/R/5_Ratio_750_L_15_R_20.png","img/250/randomdotsizeEA/R/9_Ratio_250_L_3_R_12.png","img/900/randomdotsizeEA/R/6_Ratio_900_L_9_R_10.png","img/250/equaldotsize/L/14_Ratio_250_L_12_R_3.png","img/250/equaldotsize/R/8_Ratio_250_L_1_R_4.png","img/750/equaldotanddens/L/10_Ratio_750_L_4_R_3.png","img/250/equaldotsize/R/11_Ratio_250_L_3_R_12.png"],"Rat0":[["12_Ratio_0_L_9_R_0.png","13_Ratio_0_L_6_R_0.png","5_Ratio_0_L_2_R_0.png","6_Ratio_0_L_4_R_0.png","8_Ratio_0_L_6_R_0.png"],["1_Ratio_0_L_0_R_17.png","10_Ratio_0_L_0_R_22.png","11_Ratio_0_L_0_R_1.png","14_Ratio_0_L_0_R_24.png","15_Ratio_0_L_0_R_4.png","2_Ratio_0_L_0_R_5.png","3_Ratio_0_L_0_R_17.png","4_Ratio_0_L_0_R_7.png","7_Ratio_0_L_0_R_19.png","9_Ratio_0_L_0_R_15.png"]],"Rat250":[["1_Ratio_250_L_8_R_2.png","14_Ratio_250_L_12_R_3.png","15_Ratio_250_L_12_R_3.png","2_Ratio_250_L_16_R_4.png","3_Ratio_250_L_8_R_2.png","5_Ratio_250_L_24_R_6.png","7_Ratio_250_L_8_R_2.png"],["10_Ratio_250_L_4_R_16.png","11_Ratio_250_L_3_R_12.png","12_Ratio_250_L_5_R_20.png","13_Ratio_250_L_2_R_8.png","4_Ratio_250_L_3_R_12.png","6_Ratio_250_L_6_R_24.png","8_Ratio_250_L_1_R_4.png","9_Ratio_250_L_3_R_12.png"]],"Rat500":[["10_Ratio_500_L_4_R_2.png","11_Ratio_500_L_12_R_6.png","13_Ratio_500_L_12_R_6.png","4_Ratio_500_L_18_R_9.png","5_Ratio_500_L_4_R_2.png","7_Ratio_500_L_10_R_5.png","8_Ratio_500_L_8_R_4.png"],["1_Ratio_500_L_9_R_18.png","12_Ratio_500_L_1_R_2.png","14_Ratio_500_L_5_R_10.png","15_Ratio_500_L_1_R_2.png","2_Ratio_500_L_3_R_6.png","3_Ratio_500_L_10_R_20.png","6_Ratio_500_L_9_R_18.png","9_Ratio_500_L_2_R_4.png"]],"Rat750":[["1_Ratio_750_L_20_R_15.png","10_Ratio_750_L_4_R_3.png","13_Ratio_750_L_8_R_6.png","14_Ratio_750_L_8_R_6.png","6_Ratio_750_L_24_R_18.png","8_Ratio_750_L_4_R_3.png","9_Ratio_750_L_4_R_3.png"],["11_Ratio_750_L_12_R_16.png","12_Ratio_750_L_3_R_4.png","15_Ratio_750_L_9_R_12.png","2_Ratio_750_L_6_R_8.png","3_Ratio_750_L_15_R_20.png","4_Ratio_750_L_15_R_20.png","5_Ratio_750_L_15_R_20.png","7_Ratio_750_L_3_R_4.png"]],"Rat900":[["1_Ratio_900_L_10_R_9.png","10_Ratio_900_L_20_R_18.png","2_Ratio_900_L_20_R_18.png","4_Ratio_900_L_20_R_18.png","8_Ratio_900_L_20_R_18.png"],["11_Ratio_900_L_18_R_20.png","12_Ratio_900_L_18_R_20.png","13_Ratio_900_L_18_R_20.png","14_Ratio_900_L_18_R_20.png","15_Ratio_900_L_9_R_10.png","3_Ratio_900_L_9_R_10.png","5_Ratio_900_L_9_R_10.png","6_Ratio_900_L_9_R_10.png","7_Ratio_900_L_9_R_10.png","9_Ratio_900_L_18_R_20.png"]],"Rat1000":[["10_Ratio_1000_L_16_R_16.png","11_Ratio_1000_L_6_R_6.png","12_Ratio_1000_L_14_R_14.png","13_Ratio_1000_L_20_R_20.png","15_Ratio_1000_L_15_R_15.png","2_Ratio_1000_L_17_R_17.png","4_Ratio_1000_L_9_R_9.png","5_Ratio_1000_L_6_R_6.png","6_Ratio_1000_L_19_R_19.png","8_Ratio_1000_L_14_R_14.png","9_Ratio_1000_L_25_R_25.png"],["1_Ratio_1000_L_1_R_1.png","14_Ratio_1000_L_17_R_17.png","3_Ratio_1000_L_17_R_17.png","7_Ratio_1000_L_6_R_6.png"]]}},{"start_time":1552328047411,"click_time":1552328048740,"finger_time":1552328048159,"fix_duration":250,"trial":1,"RT":748,"MT":581,"sideResp":2,"stimulus":"img/250/equaldotanddens/R/12_Ratio_250_L_5_R_20.png","xmouse":[761,761,761,761,761,761,761,761,761,761,761,761,761,761,761,761,761,761,761,761,761,761,761,761,761,761,761,761,761,761,761,761,761,762,764,765,768,781,793,807,823,852,883,894,910,928,940,959,970,985,1001,1030,1044,1047,1047,1047,1047,1047,1047,1047,1049,1049,1049,1049,1051,1056,1062],"ymouse":[605,605,605,605,605,605,605,605,605,605,605,605,605,605,605,605,605,605,605,605,605,605,605,605,605,605,605,605,605,605,605,605,605,605,604,600,593,573,557,541,519,473,409,378,351,329,314,298,288,271,245,193,145,126,113,106,101,97,94,92,88,88,88,88,87,86,83],"timestamp_mouse":[10,30,49,69,88,108,128,148,168,189,208,228,248,268,289,308,328,348,368,388,409,428,448,468,489,509,528,549,567,589,609,628,649,668,687,709,729,748,768,788,808,829,848,869,889,908,929,948,969,988,1008,1029,1047,1068,1088,1108,1128,1148,1168,1189,1208,1229,1248,1268,1289,1308,1328],"xSR":741.5,"ySR":573.95,"xT1":424.9,"yT1":0,"xT2":1058.1,"yT2":0,"toosoon":0,"cond_shown":"equaldotanddens","ratio_trial":250,"smaller_num":"5","larger_num":"20","correct_side":2,"subjID":"RafaelDavidJimenez21","gender":"0","age":"10","school":"4"},{"start_time":1552328051192,"click_time":1552328052740,"finger_time":1552328052399,"fix_duration":1392.5695085094414,"trial":2,"RT":1207,"MT":341,"sideResp":1,"stimulus":"img/750/randomdotsizeEA/R/2_Ratio_750_L_6_R_8.png","xmouse":[812,812,812,812,812,812,812,812,812,812,812,812,812,812,812,812,812,812,812,812,812,812,812,812,812,812,812,812,812,812,812,812,812,812,812,812,812,812,812,812,812,812,812,812,812,812,812,812,812,812,812,812,812,812,812,812,812,813,816,818,816,804,789,754,745,738,735,733,721,709,704,696,685,642,600,547,510,490],"ymouse":[629,629,629,629,629,629,629,629,629,629,629,629,629,629,629,629,629,629,629,629,629,629,629,629,629,629,629,629,629,629,629,629,629,629,629,629,629,629,629,629,629,629,629,629,629,629,629,629,629,629,629,629,629,629,629,629,629,629,616,602,570,539,508,460,446,431,420,406,369,337,318,300,279,226,184,143,112,93],"timestamp_mouse":[12,31,47,67,88,106,127,148,167,188,207,227,247,267,288,307,328,348,367,387,408,426,447,467,488,507,527,547,567,587,607,627,648,667,688,707,727,748,767,787,807,828,848,866,888,908,928,948,967,988,1007,1028,1048,1067,1086,1108,1128,1148,1167,1188,1207,1228,1247,1268,1287,1307,1327,1347,1368,1387,1408,1426,1446,1468,1487,1508,1528,1548],"xSR":741.5,"ySR":573.95,"xT1":424.9,"yT1":0,"xT2":1058.1,"yT2":0,"toosoon":0,"cond_shown":"randomdotsizeEA","ratio_trial":750,"smaller_num":"6","larger_num":"8","correct_side":2,"subjID":"RafaelDavidJimenez21","gender":"0","age":"10","school":"4"},{"start_time":1552328056102,"click_time":1552328057659,"finger_time":1552328056879,"fix_duration":681.603191978629,"trial":3,"RT":777,"MT":780,"sideResp":2,"stimulus":"img/500/randomdotsizeEA/L/7_Ratio_500_L_10_R_5.png","xmouse":[795,795,795,795,795,795,795,795,795,795,795,795,795,795,795,795,795,795,795,795,795,795,795,795,795,795,795,795,795,795,795,795,795,795,795,795,800,803,819,828,838,850,873,907,927,952,973,990,1024,1045,1065,1087,1093,1094,1094,1094,1094,1094,1094,1094,1094,1094,1094,1098,1100,1101,1101,1101,1101,1102,1102,1102,1102,1102,1102,1104,1116,1124],"ymouse":[594,594,594,594,594,594,594,594,594,594,594,594,594,594,594,594,594,594,594,594,594,594,594,594,594,594,594,594,594,594,594,594,594,594,594,594,591,589,557,534,512,491,457,408,376,331,294,263,220,204,190,166,151,138,138,138,138,138,138,138,138,138,138,133,129,127,127,127,127,125,123,123,123,123,123,120,108,92],"timestamp_mouse":[22,40,58,77,97,117,137,157,177,197,218,238,258,276,298,317,337,357,378,396,418,438,457,477,497,518,538,557,577,598,617,637,658,677,696,718,737,757,776,798,817,837,857,876,897,918,937,957,977,997,1017,1037,1058,1077,1097,1117,1137,1158,1177,1197,1216,1237,1258,1277,1297,1318,1337,1358,1377,1397,1417,1436,1458,1477,1497,1517,1537,1557],"xSR":741.5,"ySR":573.95,"xT1":424.9,"yT1":0,"xT2":1058.1,"yT2":0,"toosoon":0,"cond_shown":"randomdotsizeEA","ratio_trial":500,"smaller_num":"5","larger_num":"10","correct_side":1,"subjID":"RafaelDavidJimenez21","gender":"0","age":"10","school":"4"},{"start_time":1552328061755,"click_time":1552328062719,"finger_time":1552328062579,"fix_duration":1314.9007091672074,"trial":4,"RT":824,"MT":140,"sideResp":1,"stimulus":"img/900/equaldotanddens/L/2_Ratio_900_L_20_R_18.png","xmouse":[816,816,816,816,816,816,816,816,816,816,816,816,816,816,816,816,816,816,816,816,816,816,816,816,816,816,816,816,816,816,816,816,816,816,816,816,816,816,813,801,784,747,722,691,660,626,577,535,509],"ymouse":[600,600,600,600,600,600,600,600,600,600,600,600,600,600,600,600,600,600,600,600,600,600,600,600,600,600,600,600,600,600,600,600,600,600,600,600,600,600,600,594,581,530,478,415,342,262,152,56,4],"timestamp_mouse":[14,23,44,65,84,104,123,145,165,184,204,223,245,265,285,305,324,345,365,384,405,425,444,465,484,504,524,543,565,584,604,623,645,665,685,705,724,744,764,784,804,824,847,864,884,904,924,944,964],"xSR":741.5,"ySR":573.95,"xT1":424.9,"yT1":0,"xT2":1058.1,"yT2":0,"toosoon":0,"cond_shown":"equaldotanddens","ratio_trial":900,"smaller_num":"18","larger_num":"20","correct_side":1,"subjID":"RafaelDavidJimenez21","gender":"0","age":"10","school":"4"},{"start_time":1552328067121,"click_time":1552328068440,"finger_time":1552328067839,"fix_duration":1380.3201142704947,"trial":5,"RT":718,"MT":601,"sideResp":2,"stimulus":"img/900/equaldotsize/R/13_Ratio_900_L_18_R_20.png","xmouse":[810,810,810,810,810,810,810,810,810,810,810,810,810,810,810,810,810,810,810,810,810,810,810,810,810,810,810,810,810,810,810,810,810,810,804,799,797,797,798,806,808,810,811,816,826,839,856,881,913,924,936,948,963,992,1005,1024,1033,1039,1045,1046,1046,1046,1046,1049,1056,1065],"ymouse":[618,618,618,618,618,618,618,618,618,618,618,618,618,618,618,618,618,618,618,618,618,618,618,618,618,618,618,618,618,618,618,618,618,611,588,568,544,519,498,449,429,413,401,383,370,359,344,317,277,262,245,232,216,182,167,144,131,121,109,107,107,107,107,104,101,94],"timestamp_mouse":[19,49,58,78,98,118,139,159,179,198,217,238,258,278,299,318,338,358,379,397,419,438,458,478,497,519,539,559,578,598,619,638,658,678,699,718,739,758,778,798,819,839,858,878,898,918,938,958,977,998,1018,1039,1059,1078,1097,1118,1138,1158,1178,1198,1219,1237,1258,1278,1298,1318],"xSR":741.5,"ySR":573.95,"xT1":424.9,"yT1":0,"xT2":1058.1,"yT2":0,"toosoon":0,"cond_shown":"equaldotsize","ratio_trial":900,"smaller_num":"18","larger_num":"20","correct_side":2,"subjID":"RafaelDavidJimenez21","gender":"0","age":"10","school":"4"},{"start_time":1552328069991,"click_time":1552328071360,"finger_time":1552328070919,"fix_duration":530.370385006951,"trial":6,"RT":928,"MT":441,"sideResp":1,"stimulus":"img/900/equaldotsize/R/9_Ratio_900_L_18_R_20.png","xmouse":[800,800,800,800,800,800,800,800,800,800,800,800,800,800,800,800,800,800,800,800,800,800,800,800,800,800,800,800,800,800,800,800,800,800,800,800,800,800,800,800,800,801,802,804,806,811,816,816,816,816,816,804,793,779,763,749,735,728,721,713,701,665,651,631,605,576,514,478,446],"ymouse":[654,654,654,654,654,654,654,654,654,654,654,654,654,654,654,654,654,654,654,654,654,654,654,654,654,654,654,654,654,654,654,654,654,654,654,654,654,654,654,654,654,654,643,632,620,604,570,550,526,499,443,398,368,338,309,285,245,224,206,190,174,148,143,139,135,130,112,102,89],"timestamp_mouse":[23,33,49,69,87,108,128,148,167,189,208,229,248,268,288,309,328,348,369,387,408,429,448,469,488,507,529,549,568,589,608,629,648,669,689,708,729,749,768,789,808,828,848,868,888,909,928,948,968,988,1009,1028,1048,1068,1089,1109,1128,1148,1168,1188,1209,1228,1248,1269,1288,1309,1328,1348,1369],"xSR":741.5,"ySR":573.95,"xT1":424.9,"yT1":0,"xT2":1058.1,"yT2":0,"toosoon":0,"cond_shown":"equaldotsize","ratio_trial":900,"smaller_num":"18","larger_num":"20","correct_side":2,"subjID":"RafaelDavidJimenez21","gender":"0","age":"10","school":"4"},{"start_time":1552328073852,"click_time":1552328075541,"finger_time":1552328074819,"fix_duration":1490.3204995018425,"trial":7,"RT":967,"MT":722,"sideResp":1,"stimulus":"img/500/randomdotsizeEA/L/8_Ratio_500_L_8_R_4.png","xmouse":[827,827,827,827,827,827,827,827,827,827,827,827,827,827,827,827,827,827,827,827,827,827,827,827,827,827,827,827,827,827,827,827,827,823,814,809,806,805,805,805,805,805,805,805,805,805,805,805,805,805,805,805,805,809,811,813,816,819,836,848,863,877,894,917,925,930,933,933,933,933,933,933,933,928,912,906,879,856,812,790,768,736,681,546,479],"ymouse":[586,586,586,586,586,586,586,586,586,586,586,586,586,586,586,586,586,586,586,586,586,586,586,586,586,586,586,586,586,586,586,586,586,586,586,586,587,587,587,587,587,587,587,587,587,587,587,586,573,557,538,519,501,468,452,435,420,406,365,347,326,306,286,249,232,220,210,205,204,204,204,204,203,199,194,193,185,178,167,158,152,136,120,84,65],"timestamp_mouse":[10,26,48,68,88,108,127,148,168,187,207,227,248,267,287,307,328,347,367,387,406,427,447,467,487,507,528,546,567,587,607,627,648,667,687,708,727,748,767,788,809,828,848,867,886,907,928,947,967,987,1007,1027,1048,1067,1087,1107,1128,1148,1167,1188,1207,1227,1248,1266,1287,1307,1327,1347,1368,1388,1407,1427,1447,1467,1487,1507,1527,1547,1567,1587,1607,1627,1648,1667,1688],"xSR":741.5,"ySR":573.95,"xT1":424.9,"yT1":0,"xT2":1058.1,"yT2":0,"toosoon":0,"cond_shown":"randomdotsizeEA","ratio_trial":500,"smaller_num":"4","larger_num":"8","correct_side":1,"subjID":"RafaelDavidJimenez21","gender":"0","age":"10","school":"4"},{"start_time":1552328077070,"click_time":1552328078160,"finger_time":1552328077839,"fix_duration":710.1427078739823,"trial":8,"RT":769,"MT":321,"sideResp":2,"stimulus":"img/500/equaldotanddens/R/6_Ratio_500_L_9_R_18.png","xmouse":[790,790,790,790,790,790,790,790,790,790,790,790,790,790,790,790,790,790,790,790,790,790,790,790,790,790,790,790,790,790,790,790,790,790,790,791,795,800,810,818,827,835,851,862,876,887,902,924,962,975,988,1002,1035,1054,1080],"ymouse":[604,604,604,604,604,604,604,604,604,604,604,604,604,604,604,604,604,604,604,604,604,604,604,604,604,604,604,604,604,604,604,604,604,604,603,599,591,580,553,534,514,493,436,397,347,316,285,254,199,172,152,134,94,75,48],"timestamp_mouse":[12,41,49,70,90,110,129,149,169,190,210,230,249,270,289,310,329,349,369,388,408,430,449,469,488,509,529,549,570,589,610,629,649,669,689,710,729,749,769,789,808,829,849,868,890,909,930,949,969,989,1008,1029,1049,1068,1090],"xSR":741.5,"ySR":573.95,"xT1":424.9,"yT1":0,"xT2":1058.1,"yT2":0,"toosoon":0,"cond_shown":"equaldotanddens","ratio_trial":500,"smaller_num":"9","larger_num":"18","correct_side":2,"subjID":"RafaelDavidJimenez21","gender":"0","age":"10","school":"4"},{"start_time":1552328080164,"click_time":1552328081321,"finger_time":1552328080939,"fix_duration":821.4277704414022,"trial":9,"RT":775,"MT":382,"sideResp":1,"stimulus":"img/900/equaldotanddens/L/10_Ratio_900_L_20_R_18.png","xmouse":[804,804,804,804,804,804,804,804,804,804,804,804,804,804,804,804,804,804,804,804,804,804,804,804,804,804,804,804,804,804,804,804,804,804,804,804,806,808,814,814,814,808,800,774,762,750,724,717,667,651,634,617,586,571,560,551,541,511],"ymouse":[606,606,606,606,606,606,606,606,606,606,606,606,606,606,606,606,606,606,606,606,606,606,606,606,606,606,606,606,606,606,606,606,606,606,606,606,601,594,550,527,502,475,444,387,364,343,307,294,217,196,179,162,138,125,114,103,91,65],"timestamp_mouse":[15,36,55,76,96,115,135,155,175,196,215,236,255,275,295,316,335,355,376,396,415,435,455,476,495,516,536,555,576,595,615,636,655,676,695,716,735,756,775,796,815,835,856,875,895,915,936,955,975,996,1016,1035,1056,1076,1095,1115,1135,1156],"xSR":741.5,"ySR":573.95,"xT1":424.9,"yT1":0,"xT2":1058.1,"yT2":0,"toosoon":0,"cond_shown":"equaldotanddens","ratio_trial":900,"smaller_num":"18","larger_num":"20","correct_side":1,"subjID":"RafaelDavidJimenez21","gender":"0","age":"10","school":"4"},{"start_time":1552328084845,"click_time":1552328086459,"finger_time":1552328085999,"fix_duration":1004.8770464386253,"trial":10,"RT":1154,"MT":460,"sideResp":1,"stimulus":"img/750/equaldotanddens/L/9_Ratio_750_L_4_R_3.png","xmouse":[816,816,816,816,816,816,816,816,816,816,816,816,816,816,816,816,816,816,816,816,816,816,816,816,816,816,816,816,816,816,816,816,816,816,816,816,816,816,816,816,816,816,816,818,818,818,818,818,818,818,818,818,818,818,818,818,818,815,813,810,810,810,803,793,763,757,756,755,753,748,737,716,700,681,642,622,598,577,556,534,499],"ymouse":[616,616,616,616,616,616,616,616,616,616,616,616,616,616,616,616,616,616,616,616,616,616,616,616,616,616,616,616,616,616,616,616,616,616,616,616,616,616,616,616,616,616,616,615,612,610,607,606,605,605,605,605,604,602,593,586,574,562,546,502,455,436,369,327,260,248,244,242,239,229,219,203,191,174,135,117,96,80,67,57,46],"timestamp_mouse":[14,37,54,74,94,115,135,154,174,194,214,235,254,275,295,316,335,354,375,394,415,434,455,475,494,515,535,554,575,594,615,635,655,675,694,714,734,755,773,795,815,834,855,874,894,914,935,955,974,994,1015,1034,1055,1074,1094,1114,1134,1154,1175,1194,1214,1235,1254,1275,1294,1315,1334,1354,1374,1395,1415,1434,1455,1474,1495,1514,1535,1554,1574,1594,1614],"xSR":741.5,"ySR":573.95,"xT1":424.9,"yT1":0,"xT2":1058.1,"yT2":0,"toosoon":0,"cond_shown":"equaldotanddens","ratio_trial":750,"smaller_num":"3","larger_num":"4","correct_side":1,"subjID":"RafaelDavidJimenez21","gender":"0","age":"10","school":"4"},{"start_time":1552328089192,"click_time":1552328090460,"finger_time":1552328089980,"fix_duration":250,"trial":11,"RT":788,"MT":480,"sideResp":2,"stimulus":"img/900/equaldotsize/L/2_Ratio_900_L_20_R_18.png","xmouse":[793,793,793,793,793,793,793,793,793,793,793,793,793,793,793,793,793,793,793,793,793,793,793,793,793,793,793,793,793,793,793,793,793,793,793,793,793,798,808,817,820,825,833,859,875,894,913,949,960,974,988,1007,1028,1056,1061,1062,1062,1062,1062,1062,1062,1063,1064,1076],"ymouse":[628,628,628,628,628,628,628,628,628,628,628,628,628,628,628,628,628,628,628,628,628,628,628,628,628,628,628,628,628,628,628,628,628,628,628,628,628,621,592,565,533,498,466,387,358,326,292,229,202,180,161,142,126,106,103,101,101,101,101,101,101,100,100,91],"timestamp_mouse":[20,39,48,67,87,107,128,147,167,187,208,228,248,267,287,308,327,347,367,388,407,428,448,468,488,508,528,548,567,587,608,627,647,667,688,707,727,747,767,787,808,828,848,867,888,908,928,948,967,988,1007,1028,1048,1067,1088,1107,1127,1147,1168,1187,1207,1227,1248,1268],"xSR":741.5,"ySR":573.95,"xT1":424.9,"yT1":0,"xT2":1058.1,"yT2":0,"toosoon":0,"cond_shown":"equaldotsize","ratio_trial":900,"smaller_num":"18","larger_num":"20","correct_side":1,"subjID":"RafaelDavidJimenez21","gender":"0","age":"10","school":"4"},{"start_time":1552328094155,"click_time":1552328095759,"finger_time":1552328095059,"fix_duration":1213.7480114298883,"trial":12,"RT":904,"MT":700,"sideResp":2,"stimulus":"img/500/equaldotsize/R/12_Ratio_500_L_1_R_2.png","xmouse":[784,784,784,784,784,784,784,784,784,784,784,784,784,784,784,784,784,784,784,784,784,784,784,784,784,784,784,784,784,784,784,784,784,784,784,784,784,784,784,784,784,784,784,784,785,781,771,751,726,694,649,643,643,643,643,646,657,663,669,674,684,693,712,726,745,768,838,879,922,967,1012,1026,1029,1029,1030,1032,1034,1037,1044,1054,1072],"ymouse":[616,616,616,616,616,616,616,616,616,616,616,616,616,616,616,616,616,616,616,616,616,616,616,616,616,616,616,616,616,616,616,616,616,616,616,616,616,616,616,616,616,614,609,602,591,546,511,466,421,374,323,313,312,311,309,308,299,288,271,247,197,173,139,111,80,42,0,0,0,0,0,0,0,0,0,0,0,0,2,6,11],"timestamp_mouse":[12,28,44,64,84,104,125,143,165,184,204,225,244,265,285,304,324,345,364,385,404,425,444,464,485,504,525,544,564,585,604,624,645,664,685,704,725,744,764,784,804,825,844,864,884,904,924,944,964,985,1004,1024,1045,1065,1084,1104,1124,1144,1165,1184,1204,1224,1244,1264,1285,1305,1325,1344,1364,1384,1404,1424,1444,1464,1483,1504,1524,1544,1564,1584,1604],"xSR":741.5,"ySR":573.95,"xT1":424.9,"yT1":0,"xT2":1058.1,"yT2":0,"toosoon":0,"cond_shown":"equaldotsize","ratio_trial":500,"smaller_num":"1","larger_num":"2","correct_side":2,"subjID":"RafaelDavidJimenez21","gender":"0","age":"10","school":"4"},{"start_time":1552328099467,"click_time":1552328100919,"finger_time":1552328100240,"fix_duration":1006.2798444193886,"trial":13,"RT":773,"MT":679,"sideResp":1,"stimulus":"img/250/equaldotanddens/L/15_Ratio_250_L_12_R_3.png","xmouse":[791,791,791,791,791,791,791,791,791,791,791,791,791,791,791,791,791,791,791,791,791,791,791,791,791,791,791,791,791,791,791,791,791,791,791,791,791,790,788,784,776,768,758,743,720,691,678,661,647,632,607,597,587,571,563,554,554,554,554,552,542,538,535,529,528,527,527,526,526,526,526,525,522],"ymouse":[600,600,599,597,596,596,596,595,595,595,595,595,595,595,595,595,593,593,593,592,591,591,591,591,591,590,590,590,590,590,590,590,590,590,589,583,579,576,568,558,527,503,465,413,332,233,189,144,112,74,16,0,0,0,0,0,0,0,0,0,9,17,23,34,38,40,40,40,40,40,40,40,43],"timestamp_mouse":[27,32,53,72,92,113,132,153,173,192,212,233,252,273,293,312,333,352,371,393,413,432,451,473,493,512,532,552,573,592,612,633,653,672,693,712,732,752,773,793,812,832,853,872,893,912,932,952,973,992,1012,1032,1052,1072,1092,1113,1133,1153,1171,1194,1213,1232,1252,1272,1293,1312,1333,1353,1372,1392,1413,1432,1452],"xSR":741.5,"ySR":573.95,"xT1":424.9,"yT1":0,"xT2":1058.1,"yT2":0,"toosoon":0,"cond_shown":"equaldotanddens","ratio_trial":250,"smaller_num":"3","larger_num":"12","correct_side":1,"subjID":"RafaelDavidJimenez21","gender":"0","age":"10","school":"4"},{"start_time":1552328103090,"click_time":1552328104580,"finger_time":1552328103899,"fix_duration":1187.8755846939891,"trial":14,"RT":809,"MT":681,"sideResp":1,"stimulus":"img/500/equaldotsize/L/5_Ratio_500_L_4_R_2.png","xmouse":[831,831,831,831,831,831,831,831,831,831,831,831,831,831,831,831,831,831,831,831,831,831,831,831,831,831,831,831,831,831,831,831,831,831,831,831,831,831,827,822,815,809,800,789,778,778,783,789,796,811,822,827,829,829,825,816,809,797,777,750,722,716,711,705,697,683,671,655,641,629,598,581,563,546,516],"ymouse":[605,605,605,605,605,605,605,605,605,605,605,605,605,605,605,605,605,603,602,601,600,600,600,600,600,600,600,600,600,600,600,600,600,600,600,600,600,598,594,588,570,550,532,512,484,477,469,462,456,442,432,422,411,395,377,344,323,296,259,214,140,104,85,69,60,55,55,55,55,56,64,68,73,75,79],"timestamp_mouse":[12,30,49,70,88,109,129,149,170,189,210,229,250,270,289,310,329,349,370,389,410,429,449,470,489,510,530,550,569,589,609,630,650,669,689,710,729,749,770,789,809,830,849,869,889,909,929,949,969,989,1009,1029,1049,1069,1089,1109,1129,1150,1169,1189,1209,1230,1249,1268,1289,1308,1329,1349,1370,1389,1410,1430,1449,1468,1489],"xSR":741.5,"ySR":573.95,"xT1":424.9,"yT1":0,"xT2":1058.1,"yT2":0,"toosoon":0,"cond_shown":"equaldotsize","ratio_trial":500,"smaller_num":"2","larger_num":"4","correct_side":1,"subjID":"RafaelDavidJimenez21","gender":"0","age":"10","school":"4"},{"start_time":1552328105993,"click_time":1552328107880,"finger_time":1552328106859,"fix_duration":612.6181549941875,"trial":15,"RT":866,"MT":1021,"sideResp":2,"stimulus":"img/900/equaldotanddens/L/4_Ratio_900_L_20_R_18.png","xmouse":[781,781,781,781,781,781,781,781,781,781,781,781,781,781,781,781,781,781,781,781,781,781,781,781,781,781,781,781,781,781,781,781,781,781,781,781,781,781,781,781,781,783,785,785,785,785,785,785,785,781,781,781,788,802,844,867,890,910,930,947,979,999,1018,1039,1044,1055,1055,1055,1055,1055,1055,1055,1055,1055,1055,1055,1055,1055,1055,1055,1055,1055,1055,1055,1055,1055,1055,1055,1055,1055,1055,1055,1055,1057,1059],"ymouse":[610,610,610,610,610,610,610,610,610,610,610,610,610,610,610,610,610,610,610,610,610,610,610,610,610,610,610,610,610,610,610,610,610,610,610,610,610,610,610,610,610,598,583,565,544,483,457,435,414,378,361,347,327,304,241,215,193,176,163,150,124,108,95,76,71,63,63,63,63,63,63,63,63,63,63,63,63,63,63,63,63,63,63,63,63,63,63,63,63,63,63,63,63,63,63],"timestamp_mouse":[13,32,47,66,87,107,126,147,167,186,207,227,247,267,287,306,327,346,366,387,406,426,446,466,486,507,527,546,566,586,606,626,646,666,686,706,726,746,766,787,806,826,846,866,887,907,926,946,967,987,1007,1026,1047,1067,1087,1106,1126,1146,1166,1187,1205,1226,1246,1266,1286,1306,1326,1346,1366,1387,1407,1426,1447,1466,1486,1507,1527,1546,1566,1587,1606,1627,1647,1667,1687,1707,1727,1747,1766,1787,1806,1826,1847,1866,1886],"xSR":741.5,"ySR":573.95,"xT1":424.9,"yT1":0,"xT2":1058.1,"yT2":0,"toosoon":0,"cond_shown":"equaldotanddens","ratio_trial":900,"smaller_num":"18","larger_num":"20","correct_side":1,"subjID":"RafaelDavidJimenez21","gender":"0","age":"10","school":"4"},{"start_time":1552328109847,"click_time":1552328111719,"finger_time":1552328110279,"fix_duration":507.63018127016346,"trial":16,"RT":432,"MT":1440,"sideResp":1,"stimulus":"img/750/equaldotanddens/L/6_Ratio_750_L_24_R_18.png","xmouse":[832,832,832,832,832,832,832,832,832,832,832,832,832,832,832,832,831,828,821,811,786,763,730,725,725,725,725,725,725,725,725,725,727,730,736,739,743,751,755,756,758,760,766,769,774,778,784,791,791,791,791,791,791,791,792,797,799,806,807,807,807,807,807,807,807,807,807,807,807,807,807,807,807,807,785,758,716,614,565,527,501,495,488,487,485,485,485,485,482,477,473,469,453,445],"ymouse":[637,637,637,637,637,637,637,637,637,637,637,637,637,637,637,637,637,638,643,652,667,678,689,689,689,689,689,689,689,689,689,689,689,687,684,681,679,676,673,673,672,670,667,665,662,659,656,651,651,651,651,651,651,651,650,647,646,640,639,639,639,639,639,639,639,639,639,639,639,639,639,639,639,631,607,584,551,478,444,412,384,367,340,330,319,310,299,267,245,210,185,160,109,81],"timestamp_mouse":[14,32,53,71,92,113,133,152,173,193,212,233,252,273,292,312,333,351,373,392,413,432,452,473,492,512,533,552,572,593,613,632,652,672,692,712,732,752,773,793,812,832,852,872,893,913,933,952,973,991,1013,1032,1052,1073,1092,1112,1132,1152,1172,1192,1212,1232,1253,1272,1292,1313,1333,1352,1373,1392,1413,1432,1452,1472,1493,1511,1533,1552,1572,1593,1612,1632,1652,1672,1692,1713,1732,1752,1772,1792,1812,1832,1852,1872],"xSR":741.5,"ySR":573.95,"xT1":424.9,"yT1":0,"xT2":1058.1,"yT2":0,"toosoon":0,"cond_shown":"equaldotanddens","ratio_trial":750,"smaller_num":"18","larger_num":"24","correct_side":1,"subjID":"RafaelDavidJimenez21","gender":"0","age":"10","school":"4"},{"start_time":1552328113394,"click_time":1552328115740,"finger_time":1552328114299,"fix_duration":773.0702283240995,"trial":17,"RT":905,"MT":1441,"sideResp":1,"stimulus":"img/900/randomdotsizeEA/L/8_Ratio_900_L_20_R_18.png","xmouse":[802,802,802,802,802,802,802,802,802,802,802,802,802,802,802,802,802,802,802,802,802,802,802,802,802,802,802,802,802,802,802,802,802,802,802,802,802,802,802,802,802,800,798,797,796,796,797,799,801,802,802,801,797,792,784,775,756,747,734,723,714,696,690,682,678,674,673,673,680,685,692,708,714,721,732,748,756,764,766,769,772,780,787,793,799,816,823,830,838,843,849,849,849,849,849,849,846,842,836,831,792,772,751,730,717,709,709,708,708,704,685,657,639,619,595,545,526,516],"ymouse":[635,635,635,635,635,635,635,635,635,635,635,635,635,635,635,635,635,635,635,635,634,632,630,628,626,623,623,623,623,623,623,623,623,623,623,623,623,623,622,620,613,601,593,585,580,572,571,569,566,564,560,548,536,523,504,482,440,419,395,377,359,320,311,300,295,287,282,275,264,255,244,219,214,208,201,188,181,173,170,167,164,161,159,155,153,144,141,137,133,130,127,127,127,127,127,127,127,127,127,125,99,86,74,63,58,55,55,55,55,55,55,59,61,61,61,61,61,61],"timestamp_mouse":[10,34,45,66,86,105,126,146,165,186,205,225,245,266,286,305,326,345,366,385,405,426,445,466,485,506,526,545,565,585,605,626,645,665,685,705,725,746,765,785,805,825,845,865,886,905,926,946,966,986,1005,1025,1046,1066,1085,1106,1125,1145,1166,1185,1206,1226,1245,1265,1285,1306,1325,1346,1365,1385,1405,1426,1445,1465,1486,1506,1525,1545,1565,1586,1606,1625,1645,1666,1685,1706,1725,1745,1766,1785,1806,1825,1845,1866,1885,1905,1925,1946,1965,1986,2007,2025,2045,2065,2085,2106,2125,2145,2166,2185,2206,2225,2245,2267,2285,2306,2325,2345],"xSR":741.5,"ySR":573.95,"xT1":424.9,"yT1":0,"xT2":1058.1,"yT2":0,"toosoon":0,"cond_shown":"randomdotsizeEA","ratio_trial":900,"smaller_num":"18","larger_num":"20","correct_side":1,"subjID":"RafaelDavidJimenez21","gender":"0","age":"10","school":"4"},{"start_time":1552328117430,"click_time":1552328118879,"finger_time":1552328118299,"fix_duration":250,"trial":18,"RT":869,"MT":580,"sideResp":1,"stimulus":"img/500/equaldotsize/L/5_Ratio_500_L_4_R_2.png","xmouse":[815,815,815,815,815,815,815,815,815,815,815,815,815,815,815,815,815,815,815,815,815,815,815,815,815,815,815,815,815,815,815,815,815,815,815,815,815,815,815,815,815,816,820,822,826,828,829,831,834,835,835,832,828,826,817,810,802,784,745,664,623,588,557,527,461,433,425,424,424,421,421,422,426],"ymouse":[603,603,603,603,603,603,603,603,603,603,603,603,603,603,603,603,603,603,603,603,603,603,603,603,603,603,603,603,603,603,603,603,603,603,603,603,603,603,603,603,603,595,584,569,537,525,517,503,493,462,441,417,395,377,338,313,289,250,181,69,16,0,0,0,0,0,0,0,0,12,23,31,39],"timestamp_mouse":[14,31,49,69,90,109,129,150,170,189,209,229,249,270,289,310,329,350,370,390,409,430,449,469,489,509,530,549,570,589,610,630,650,669,690,710,730,749,770,789,809,829,850,869,889,909,929,950,969,989,1009,1030,1049,1069,1089,1109,1130,1150,1169,1189,1209,1229,1249,1270,1290,1309,1330,1349,1369,1389,1410,1430,1449],"xSR":741.5,"ySR":573.95,"xT1":424.9,"yT1":0,"xT2":1058.1,"yT2":0,"toosoon":0,"cond_shown":"equaldotsize","ratio_trial":500,"smaller_num":"2","larger_num":"4","correct_side":1,"subjID":"RafaelDavidJimenez21","gender":"0","age":"10","school":"4"},{"start_time":1552328120738,"click_time":1552328122220,"finger_time":1552328121480,"fix_duration":936.8350043801053,"trial":19,"RT":742,"MT":740,"sideResp":2,"stimulus":"img/750/equaldotsize/R/2_Ratio_750_L_6_R_8.png","xmouse":[796,796,796,796,796,796,796,796,796,796,796,796,796,796,795,795,794,794,794,794,794,794,794,794,794,793,793,793,793,793,793,793,793,793,793,788,785,781,779,776,774,769,764,759,753,746,746,753,756,769,781,805,810,814,826,832,833,833,832,821,817,817,816,820,850,867,886,908,932,960,970,986,999,1020,1065],"ymouse":[601,601,601,601,600,600,600,600,600,600,600,600,600,599,597,596,594,593,593,593,593,593,593,593,593,592,592,592,592,592,592,592,591,589,587,578,574,569,564,556,548,529,512,494,473,434,411,387,364,325,312,291,278,263,235,220,207,192,176,147,134,126,118,109,79,63,46,35,25,16,14,14,17,26,37],"timestamp_mouse":[1,33,41,61,81,102,122,141,161,181,201,222,242,261,281,301,322,341,363,381,402,422,440,461,481,502,521,541,561,581,601,621,641,661,681,701,721,742,761,782,801,821,842,861,881,901,922,941,962,982,1003,1021,1041,1062,1082,1101,1122,1141,1162,1182,1201,1222,1241,1261,1281,1302,1321,1341,1361,1382,1401,1421,1442,1462,1482],"xSR":741.5,"ySR":573.95,"xT1":424.9,"yT1":0,"xT2":1058.1,"yT2":0,"toosoon":0,"cond_shown":"equaldotsize","ratio_trial":750,"smaller_num":"6","larger_num":"8","correct_side":2,"subjID":"RafaelDavidJimenez21","gender":"0","age":"10","school":"4"},{"start_time":1552328124024,"click_time":1552328125739,"finger_time":1552328125059,"fix_duration":263.56686388483286,"trial":20,"RT":1035,"MT":680,"sideResp":1,"stimulus":"img/750/randomdotsizeEA/L/1_Ratio_750_L_20_R_15.png","xmouse":[765,765,765,765,765,765,765,765,765,765,765,765,765,765,765,765,765,765,765,765,765,765,765,765,765,765,765,765,765,765,765,765,765,765,765,765,765,765,765,765,765,765,765,765,765,765,765,765,765,767,784,791,793,793,784,733,720,712,703,694,673,667,666,665,665,671,676,678,678,675,652,634,611,590,564,543,541,540,540,540,533,518,503,494,490,486],"ymouse":[629,629,629,629,629,629,629,629,629,629,629,629,629,629,629,629,629,629,629,629,629,629,629,629,629,629,629,629,629,629,629,629,629,629,629,629,629,629,629,629,629,629,629,629,629,629,629,629,627,621,594,573,552,530,502,433,416,407,398,392,375,369,364,355,346,309,292,275,256,238,205,187,174,163,153,149,149,149,149,149,145,136,124,113,101,84],"timestamp_mouse":[16,38,55,75,96,116,136,154,175,195,216,236,256,275,296,315,335,355,375,396,415,435,456,475,496,516,536,556,575,594,615,635,656,675,696,716,736,756,775,795,816,835,855,875,895,915,935,956,975,995,1015,1035,1055,1074,1096,1116,1135,1155,1175,1195,1215,1234,1256,1275,1295,1315,1335,1356,1375,1395,1415,1435,1455,1475,1495,1515,1537,1555,1576,1596,1614,1636,1656,1676,1695,1715],"xSR":741.5,"ySR":573.95,"xT1":424.9,"yT1":0,"xT2":1058.1,"yT2":0,"toosoon":0,"cond_shown":"randomdotsizeEA","ratio_trial":750,"smaller_num":"15","larger_num":"20","correct_side":1,"subjID":"RafaelDavidJimenez21","gender":"0","age":"10","school":"4"},{"start_time":1552328127729,"click_time":1552328129019,"finger_time":1552328128159,"fix_duration":1187.7546564247455,"trial":21,"RT":430,"MT":860,"sideResp":1,"stimulus":"img/250/equaldotsize/L/5_Ratio_250_L_24_R_6.png","xmouse":[816,816,816,816,816,816,816,816,816,816,816,816,816,816,816,816,816,816,816,816,818,818,818,817,817,826,842,847,865,876,909,926,943,960,976,998,1004,1007,1007,1007,1004,993,993,990,979,915,858,801,727,678,561,490,430,390,364,334,330,330,330,338,351,383,400,419,436],"ymouse":[605,605,605,605,605,605,605,605,605,605,605,605,605,605,605,605,605,605,605,602,580,565,547,527,503,457,424,411,382,361,324,303,280,253,224,186,173,163,159,156,153,148,148,147,145,130,122,114,112,112,112,112,111,108,106,101,100,100,100,96,90,77,68,61,52],"timestamp_mouse":[11,37,51,71,91,110,131,151,171,191,210,231,251,270,291,310,330,351,371,390,410,430,450,470,491,510,530,551,570,591,610,631,650,670,691,710,730,751,771,790,810,831,851,870,891,909,931,951,971,990,1010,1030,1050,1071,1090,1110,1130,1151,1171,1190,1210,1230,1250,1270,1290],"xSR":741.5,"ySR":573.95,"xT1":424.9,"yT1":0,"xT2":1058.1,"yT2":0,"toosoon":0,"cond_shown":"equaldotsize","ratio_trial":250,"smaller_num":"6","larger_num":"24","correct_side":1,"subjID":"RafaelDavidJimenez21","gender":"0","age":"10","school":"4"},{"start_time":1552328130655,"click_time":1552328131499,"finger_time":1552328130860,"fix_duration":894.3158082681219,"trial":22,"RT":205,"MT":639,"sideResp":2,"stimulus":"img/900/equaldotanddens/R/14_Ratio_900_L_18_R_20.png","xmouse":[790,790,790,790,790,790,790,790,789,787,785,784,782,782,778,775,771,766,762,759,750,746,742,741,738,737,737,737,737,735,740,748,756,766,775,795,809,824,846,937,974,1019,1068],"ymouse":[590,590,590,590,590,590,590,584,581,577,569,565,561,557,543,534,522,507,497,487,456,439,426,414,398,391,385,380,373,360,349,341,332,324,317,295,281,266,244,163,125,78,36],"timestamp_mouse":[13,32,44,64,85,104,124,144,164,184,205,224,245,264,284,304,324,344,364,385,405,425,444,464,484,504,524,545,564,585,604,624,645,665,685,704,724,744,765,785,804,824,844],"xSR":741.5,"ySR":573.95,"xT1":424.9,"yT1":0,"xT2":1058.1,"yT2":0,"toosoon":0,"cond_shown":"equaldotanddens","ratio_trial":900,"smaller_num":"18","larger_num":"20","correct_side":2,"subjID":"RafaelDavidJimenez21","gender":"0","age":"10","school":"4"},{"start_time":1552328134757,"click_time":1552328135539,"finger_time":1552328135259,"fix_duration":1055.8806549682095,"trial":23,"RT":502,"MT":280,"sideResp":1,"stimulus":"img/750/equaldotsize/L/6_Ratio_750_L_24_R_18.png","xmouse":[811,811,811,811,811,811,811,811,811,811,811,811,811,811,811,811,811,811,811,811,811,811,811,811,807,799,794,789,784,781,777,774,769,759,740,693,648,597,539,485],"ymouse":[619,619,619,619,619,619,619,619,619,619,619,619,619,619,619,619,619,619,619,619,619,619,619,608,595,557,532,506,479,453,399,371,347,320,284,222,187,149,103,54],"timestamp_mouse":[14,34,42,63,82,102,122,143,163,182,202,223,243,263,283,302,322,343,362,383,402,423,442,463,483,502,523,542,562,582,602,623,643,663,683,702,722,743,762,782],"xSR":741.5,"ySR":573.95,"xT1":424.9,"yT1":0,"xT2":1058.1,"yT2":0,"toosoon":0,"cond_shown":"equaldotsize","ratio_trial":750,"smaller_num":"18","larger_num":"24","correct_side":1,"subjID":"RafaelDavidJimenez21","gender":"0","age":"10","school":"4"},{"start_time":1552328136929,"click_time":1552328141519,"finger_time":1552328140999,"fix_duration":267.25211976010763,"trial":24,"RT":4070,"MT":520,"sideResp":2,"stimulus":"img/250/randomdotsizeEA/L/15_Ratio_250_L_12_R_3.png","xmouse":[815,815,815,815,815,815,815,815,815,815,815,815,815,815,815,815,815,815,815,815,815,815,815,815,815,815,815,815,815,815,815,815,815,815,815,814,813,813,813,813,813,813,813,813,813,813,813,813,813,813,813,813,813,813,813,813,813,813,813,813,813,813,813,813,813,813,813,813,813,813,813,813,813,813,813,813,813,812,811,811,811,811,811,811,811,811,811,811,811,811,811,811,811,811,811,811,811,811,811,811,811,811,811,811,811,811,811,811,811,811,811,811,811,811,811,811,811,811,811,811,811,811,811,811,811,811,811,811,811,811,811,811,811,811,811,811,811,811,811,811,811,811,811,811,811,811,811,811,811,811,811,811,811,811,811,811,811,811,811,811,811,811,811,811,811,811,811,811,811,811,811,811,811,811,811,811,811,811,811,811,811,811,811,811,811,811,811,811,811,811,811,811,811,811,811,811,811,811,811,811,811,811,809,806,806,806,813,817,826,842,867,914,982,998,1006,1012,1020,1033,1037,1035,1029,1024,1023,1023,1023,1023,1025,1037,1050,1062],"ymouse":[616,616,616,616,616,616,616,616,616,616,616,616,616,616,616,616,616,616,616,616,616,616,616,616,616,616,616,616,616,616,616,616,616,616,616,616,616,616,616,616,616,616,616,616,616,616,616,616,616,616,616,616,616,616,616,616,616,616,616,616,616,616,616,616,616,616,616,616,616,616,616,616,616,616,616,615,605,600,598,598,598,598,598,598,598,598,598,598,598,598,598,598,598,598,598,598,598,598,598,598,598,598,598,598,598,598,598,598,598,598,598,598,598,598,598,598,598,598,598,598,598,598,598,598,598,598,598,598,598,598,598,598,598,598,598,598,598,598,598,598,598,598,598,598,598,598,598,598,598,598,598,598,598,598,598,598,598,598,598,598,598,598,598,598,598,598,598,598,598,598,598,598,598,598,598,598,598,598,598,598,598,598,598,598,598,598,598,598,598,598,598,598,598,598,598,598,598,598,598,598,598,598,580,560,537,512,474,379,337,299,272,241,213,205,200,195,188,158,131,101,71,30,20,20,20,20,19,24,31,39],"timestamp_mouse":[22,36,50,70,90,111,130,151,170,191,210,230,251,270,291,310,330,351,370,391,410,430,451,471,491,510,530,550,570,590,611,630,650,671,691,711,730,751,770,791,811,830,851,871,891,910,930,951,970,990,1011,1030,1051,1070,1091,1110,1130,1151,1170,1190,1210,1230,1250,1270,1291,1310,1330,1351,1370,1390,1411,1430,1450,1470,1490,1510,1530,1550,1571,1591,1611,1630,1651,1671,1690,1710,1730,1750,1770,1790,1809,1831,1851,1871,1890,1910,1930,1950,1970,1990,2011,2030,2051,2071,2090,2110,2130,2151,2171,2191,2210,2230,2250,2271,2290,2311,2330,2351,2370,2390,2410,2430,2450,2471,2491,2511,2530,2549,2571,2591,2610,2630,2650,2670,2690,2711,2730,2751,2770,2790,2810,2830,2851,2870,2891,2910,2930,2950,2970,2990,3010,3030,3050,3071,3090,3111,3130,3151,3171,3191,3211,3230,3251,3270,3289,3310,3330,3349,3370,3389,3411,3429,3450,3470,3489,3509,3530,3550,3571,3591,3610,3630,3649,3670,3691,3711,3730,3750,3769,3789,3810,3829,3850,3870,3891,3910,3930,3949,3971,3991,4010,4029,4051,4070,4090,4110,4131,4150,4171,4190,4209,4230,4249,4271,4291,4311,4330,4350,4371,4390,4411,4430,4450,4469,4490,4510,4530,4550,4571,4589],"xSR":741.5,"ySR":573.95,"xT1":424.9,"yT1":0,"xT2":1058.1,"yT2":0,"toosoon":0,"cond_shown":"randomdotsizeEA","ratio_trial":250,"smaller_num":"3","larger_num":"12","correct_side":1,"subjID":"RafaelDavidJimenez21","gender":"0","age":"10","school":"4"},{"start_time":1552328143013,"click_time":1552328144219,"finger_time":1552328143758,"fix_duration":472.34018790055063,"trial":25,"RT":745,"MT":461,"sideResp":2,"stimulus":"img/250/equaldotsize/R/10_Ratio_250_L_4_R_16.png","xmouse":[795,795,795,795,795,795,795,794,794,794,794,794,794,794,794,794,794,794,794,794,794,794,794,794,794,794,794,794,794,794,794,794,794,794,794,794,794,793,790,788,788,786,778,760,756,756,763,802,896,935,961,983,1001,1038,1042,1044,1044,1044,1046,1051,1064],"ymouse":[574,574,574,577,581,585,588,590,590,590,590,590,590,590,590,590,590,590,590,590,590,590,590,590,590,590,590,590,590,590,590,590,590,588,585,581,576,564,547,535,517,489,434,311,239,224,194,153,84,54,31,10,0,0,0,0,0,0,0,3,12],"timestamp_mouse":[8,26,47,66,86,105,126,145,166,185,207,226,247,266,287,306,325,346,366,386,405,426,446,466,486,505,525,546,566,587,606,625,645,666,686,707,726,745,765,786,806,827,846,865,885,905,927,946,965,985,1006,1026,1046,1067,1086,1106,1126,1146,1166,1186,1206],"xSR":741.5,"ySR":573.95,"xT1":424.9,"yT1":0,"xT2":1058.1,"yT2":0,"toosoon":0,"cond_shown":"equaldotsize","ratio_trial":250,"smaller_num":"4","larger_num":"16","correct_side":2,"subjID":"RafaelDavidJimenez21","gender":"0","age":"10","school":"4"},{"start_time":1552328146008,"click_time":1552328146918,"finger_time":1552328146339,"fix_duration":906.7506024730452,"trial":26,"RT":331,"MT":579,"sideResp":1,"stimulus":"img/750/equaldotanddens/R/5_Ratio_750_L_15_R_20.png","xmouse":[819,819,819,819,819,819,819,819,818,818,818,817,817,817,816,816,816,816,811,803,792,780,766,736,720,704,695,689,681,676,666,655,643,618,610,605,598,594,581,574,567,561,558,546,527,507],"ymouse":[584,584,584,584,584,584,584,584,584,584,584,584,584,584,583,578,568,550,506,479,443,407,367,302,275,249,237,230,213,200,183,162,143,111,103,100,98,97,95,92,88,83,77,68,63,62],"timestamp_mouse":[15,34,50,72,90,111,130,152,171,191,210,231,252,271,291,311,331,351,370,390,410,431,451,471,491,511,531,550,570,590,610,630,652,670,690,711,730,752,771,791,811,832,851,870,890,910],"xSR":741.5,"ySR":573.95,"xT1":424.9,"yT1":0,"xT2":1058.1,"yT2":0,"toosoon":0,"cond_shown":"equaldotanddens","ratio_trial":750,"smaller_num":"15","larger_num":"20","correct_side":2,"subjID":"RafaelDavidJimenez21","gender":"0","age":"10","school":"4"},{"start_time":1552328148192,"click_time":1552328149079,"finger_time":1552328148539,"fix_duration":250,"trial":27,"RT":347,"MT":540,"sideResp":2,"stimulus":"img/500/randomdotsizeEA/L/4_Ratio_500_L_18_R_9.png","xmouse":[810,810,810,810,810,810,810,810,810,809,809,808,808,808,806,806,804,800,791,777,775,775,775,775,785,799,810,823,837,871,888,906,924,941,972,978,982,985,990,995,1008,1021,1037,1051,1062],"ymouse":[632,632,632,632,632,632,632,632,632,632,632,632,632,632,631,622,592,565,531,462,434,410,391,373,338,310,295,278,261,224,202,180,162,144,115,109,106,104,102,99,91,85,79,73,69],"timestamp_mouse":[10,32,46,67,86,108,128,147,166,187,208,227,247,268,287,306,327,347,367,387,407,427,446,467,487,506,527,546,567,586,607,627,646,666,687,706,728,748,767,788,807,828,846,866,886],"xSR":741.5,"ySR":573.95,"xT1":424.9,"yT1":0,"xT2":1058.1,"yT2":0,"toosoon":0,"cond_shown":"randomdotsizeEA","ratio_trial":500,"smaller_num":"9","larger_num":"18","correct_side":1,"subjID":"RafaelDavidJimenez21","gender":"0","age":"10","school":"4"},{"start_time":1552328150942,"click_time":1552328152660,"finger_time":1552328151820,"fix_duration":1060.9880333452463,"trial":28,"RT":878,"MT":840,"sideResp":1,"stimulus":"img/900/randomdotsizeEA/R/9_Ratio_900_L_18_R_20.png","xmouse":[780,780,780,780,780,780,780,780,780,780,780,780,780,780,780,780,780,780,780,780,780,780,779,779,778,778,778,778,778,778,778,778,778,778,778,778,778,777,777,777,777,777,777,777,775,772,768,761,761,761,760,755,732,706,653,560,420,313,280,258,248,248,248,262,292,302,322,326,326,326,330,346,389,401,408,412,418,428,433,438,439,439,439,439,439,438],"ymouse":[635,635,635,635,635,635,635,635,635,635,635,635,635,635,635,635,635,635,635,635,635,635,634,630,630,630,630,630,630,630,630,630,630,630,630,627,622,614,608,603,601,596,583,569,549,523,496,430,404,376,347,312,244,212,176,143,104,73,58,49,45,45,45,58,72,75,77,77,77,77,77,74,54,46,38,27,12,0,0,0,0,0,0,0,0,2],"timestamp_mouse":[16,38,57,77,98,118,138,157,178,196,217,236,256,278,297,317,337,358,378,398,417,437,457,477,498,518,537,556,576,596,616,637,656,677,697,718,738,756,777,798,817,836,857,878,897,916,937,958,978,997,1017,1037,1056,1077,1096,1118,1138,1158,1177,1197,1217,1237,1256,1276,1297,1318,1337,1357,1378,1396,1416,1437,1456,1476,1496,1517,1537,1556,1576,1596,1617,1637,1658,1677,1696,1717],"xSR":741.5,"ySR":573.95,"xT1":424.9,"yT1":0,"xT2":1058.1,"yT2":0,"toosoon":0,"cond_shown":"randomdotsizeEA","ratio_trial":900,"smaller_num":"18","larger_num":"20","correct_side":2,"subjID":"RafaelDavidJimenez21","gender":"0","age":"10","school":"4"},{"start_time":1552328156450,"click_time":1552328158219,"finger_time":1552328157599,"fix_duration":1249.314510679492,"trial":29,"RT":1149,"MT":620,"sideResp":2,"stimulus":"img/900/equaldotanddens/R/6_Ratio_900_L_9_R_10.png","xmouse":[792,792,792,792,792,792,792,792,792,792,792,792,792,792,792,792,792,792,792,792,792,792,792,792,792,792,792,792,792,792,792,792,792,792,792,792,792,792,792,792,792,792,792,792,792,792,794,794,794,794,794,794,794,794,794,794,794,803,843,888,920,942,955,956,941,923,906,876,874,874,874,874,900,963,1037,1101,1151,1202,1203,1203,1204,1204,1204,1204,1199,1193,1185,1176,1138],"ymouse":[605,605,605,605,605,605,605,605,605,605,605,605,605,605,605,605,605,605,605,605,605,605,605,605,605,605,605,605,605,605,605,605,605,605,605,605,605,605,605,605,605,605,605,605,605,605,601,580,580,580,580,580,580,580,580,580,580,563,485,397,292,180,77,0,0,0,0,0,0,0,0,0,23,56,91,117,135,141,141,141,141,140,134,115,102,92,83,77,72],"timestamp_mouse":[20,30,48,69,88,109,129,148,169,189,210,228,249,269,290,308,329,348,369,389,409,429,449,468,488,509,529,549,570,590,610,629,649,669,688,710,730,749,769,790,810,829,849,869,888,910,930,949,968,989,1010,1030,1049,1069,1089,1109,1128,1149,1168,1190,1209,1229,1249,1269,1289,1309,1330,1350,1368,1388,1409,1428,1449,1468,1488,1508,1529,1552,1568,1588,1609,1629,1650,1669,1689,1708,1730,1749,1769],"xSR":741.5,"ySR":573.95,"xT1":424.9,"yT1":0,"xT2":1058.1,"yT2":0,"toosoon":0,"cond_shown":"equaldotanddens","ratio_trial":900,"smaller_num":"9","larger_num":"10","correct_side":2,"subjID":"RafaelDavidJimenez21","gender":"0","age":"10","school":"4"},{"start_time":1552328161803,"click_time":1552328163139,"finger_time":1552328162580,"fix_duration":1363.0614208024283,"trial":30,"RT":777,"MT":559,"sideResp":1,"stimulus":"img/500/equaldotsize/L/11_Ratio_500_L_12_R_6.png","xmouse":[809,809,809,809,809,809,809,809,809,809,809,809,809,809,809,809,809,809,809,809,809,809,809,809,809,809,809,809,809,809,809,809,809,809,811,814,814,806,776,752,696,666,631,592,546,425,365,279,232,198,176,175,175,175,175,179,200,213,238,248,262,270,287,316,362,420,510],"ymouse":[664,664,664,664,664,664,664,664,664,664,664,664,664,664,664,664,664,664,664,664,664,664,664,664,664,664,664,664,664,664,664,664,664,664,660,643,622,589,532,492,400,350,284,215,142,0,0,0,0,0,0,0,0,0,0,2,14,20,28,30,33,34,39,45,56,68,85],"timestamp_mouse":[16,35,56,76,95,116,135,157,176,196,215,236,256,277,295,316,337,357,376,396,415,437,457,476,496,516,537,557,576,596,617,636,656,675,695,716,736,755,777,796,816,836,856,876,897,915,935,956,976,996,1015,1035,1055,1076,1096,1115,1136,1157,1176,1196,1217,1235,1256,1276,1295,1316,1336],"xSR":741.5,"ySR":573.95,"xT1":424.9,"yT1":0,"xT2":1058.1,"yT2":0,"toosoon":0,"cond_shown":"equaldotsize","ratio_trial":500,"smaller_num":"6","larger_num":"12","correct_side":1,"subjID":"RafaelDavidJimenez21","gender":"0","age":"10","school":"4"},{"start_time":1552328165148,"click_time":1552328166198,"finger_time":1552328165819,"fix_duration":1227.0453472886607,"trial":31,"RT":671,"MT":379,"sideResp":2,"stimulus":"img/900/randomdotsizeEA/R/5_Ratio_900_L_9_R_10.png","xmouse":[827,827,827,827,827,827,827,827,827,827,827,827,827,827,827,827,827,827,827,827,827,827,827,827,827,827,827,827,827,827,826,819,804,671,610,580,572,572,601,644,686,737,803,866,983,1010,1026,1035,1066,1085,1104,1124,1139],"ymouse":[615,615,615,615,615,615,615,615,615,615,615,615,615,615,615,615,615,615,615,615,615,615,615,615,615,615,615,615,615,615,614,602,577,417,335,270,233,202,137,101,80,58,35,13,0,0,0,0,0,0,0,0,4],"timestamp_mouse":[10,35,51,71,91,112,131,152,171,191,210,232,250,271,292,311,330,351,371,392,410,431,450,470,492,512,531,551,571,591,610,632,651,671,690,710,731,750,771,790,810,831,851,870,891,911,931,950,972,990,1011,1030,1050],"xSR":741.5,"ySR":573.95,"xT1":424.9,"yT1":0,"xT2":1058.1,"yT2":0,"toosoon":0,"cond_shown":"randomdotsizeEA","ratio_trial":900,"smaller_num":"9","larger_num":"10","correct_side":2,"subjID":"RafaelDavidJimenez21","gender":"0","age":"10","school":"4"},{"start_time":1552328167590,"click_time":1552328168778,"finger_time":1552328168340,"fix_duration":250,"trial":32,"RT":750,"MT":438,"sideResp":1,"stimulus":"img/250/equaldotanddens/L/1_Ratio_250_L_8_R_2.png","xmouse":[822,822,822,822,822,822,822,822,822,822,822,822,822,822,822,822,822,822,822,822,822,822,822,822,822,822,822,822,822,822,823,823,826,828,830,832,841,847,853,857,858,858,858,856,849,830,804,749,733,713,692,666,608,587,569,554,542,532,525,516],"ymouse":[614,614,614,614,614,614,614,614,614,614,614,614,614,614,614,614,614,614,614,614,614,614,614,614,614,614,614,614,614,614,613,613,611,610,608,603,581,567,552,534,508,478,425,400,375,341,310,248,226,198,174,146,106,96,90,83,78,68,58,48],"timestamp_mouse":[12,31,48,70,90,109,128,150,170,188,208,230,248,270,289,309,330,349,368,388,410,430,448,468,489,508,529,548,569,590,609,630,649,669,690,709,729,750,769,790,808,828,849,869,889,910,928,948,969,990,1009,1030,1048,1069,1089,1109,1129,1148,1169,1188],"xSR":741.5,"ySR":573.95,"xT1":424.9,"yT1":0,"xT2":1058.1,"yT2":0,"toosoon":0,"cond_shown":"equaldotanddens","ratio_trial":250,"smaller_num":"2","larger_num":"8","correct_side":1,"subjID":"RafaelDavidJimenez21","gender":"0","age":"10","school":"4"},{"start_time":1552328170784,"click_time":1552328171939,"finger_time":1552328171438,"fix_duration":684.8203012851098,"trial":33,"RT":654,"MT":501,"sideResp":2,"stimulus":"img/750/equaldotsize/L/8_Ratio_750_L_4_R_3.png","xmouse":[775,775,775,775,775,775,775,775,775,775,775,775,775,775,775,775,775,775,775,773,772,770,769,768,768,768,768,768,768,768,768,769,784,789,789,789,769,751,750,750,760,772,783,808,819,828,845,878,891,902,908,911,923,944,979,1020,1040,1087],"ymouse":[578,578,578,578,578,578,578,578,578,578,578,578,578,578,577,577,577,577,577,577,577,578,579,579,579,579,579,579,579,579,579,577,563,544,479,454,361,251,209,178,143,114,94,75,69,63,56,42,36,32,31,29,24,19,16,14,14,22],"timestamp_mouse":[15,34,54,74,94,116,136,155,175,194,216,236,254,275,295,315,335,356,375,396,416,435,454,476,495,514,536,554,576,595,615,635,654,675,695,715,736,755,775,795,815,835,854,875,895,915,935,954,975,994,1014,1035,1055,1075,1095,1115,1134,1154],"xSR":741.5,"ySR":573.95,"xT1":424.9,"yT1":0,"xT2":1058.1,"yT2":0,"toosoon":0,"cond_shown":"equaldotsize","ratio_trial":750,"smaller_num":"3","larger_num":"4","correct_side":1,"subjID":"RafaelDavidJimenez21","gender":"0","age":"10","school":"4"},{"start_time":1552328173699,"click_time":1552328174998,"finger_time":1552328174439,"fix_duration":619.643935111012,"trial":34,"RT":740,"MT":559,"sideResp":1,"stimulus":"img/500/randomdotsizeEA/R/9_Ratio_500_L_2_R_4.png","xmouse":[798,798,798,798,798,798,798,798,798,797,797,797,797,797,797,797,797,797,797,797,797,797,797,797,797,797,797,797,797,797,797,797,797,797,796,793,784,752,710,666,618,566,508,406,385,378,378,378,378,378,377,377,377,377,377,377,377,377,377,377,377,377,377,389,415,459],"ymouse":[615,615,615,615,615,615,615,615,615,615,615,615,615,615,615,615,615,615,615,615,615,615,615,615,615,615,615,615,615,615,615,615,615,615,614,608,595,552,461,381,298,220,150,61,44,38,38,36,32,27,22,19,16,16,16,16,16,16,16,16,16,16,17,21,29,42],"timestamp_mouse":[10,20,40,60,79,99,120,139,159,180,200,220,240,261,279,300,321,340,359,379,400,420,439,459,481,500,521,540,560,579,599,619,640,661,680,701,720,740,759,780,800,820,839,860,880,900,921,940,959,980,1001,1020,1040,1059,1080,1099,1119,1141,1160,1180,1201,1220,1240,1260,1280,1299],"xSR":741.5,"ySR":573.95,"xT1":424.9,"yT1":0,"xT2":1058.1,"yT2":0,"toosoon":0,"cond_shown":"randomdotsizeEA","ratio_trial":500,"smaller_num":"2","larger_num":"4","correct_side":2,"subjID":"RafaelDavidJimenez21","gender":"0","age":"10","school":"4"},{"start_time":1552328176852,"click_time":1552328178259,"finger_time":1552328177458,"fix_duration":891.027960828491,"trial":35,"RT":606,"MT":801,"sideResp":2,"stimulus":"img/750/randomdotsizeEA/L/9_Ratio_750_L_4_R_3.png","xmouse":[775,775,775,776,776,776,776,776,777,777,778,778,779,779,781,781,781,781,781,781,781,781,781,781,784,784,785,785,787,787,788,788,788,788,788,788,787,785,778,771,755,747,741,738,738,804,844,881,908,959,1084,1160,1230,1291,1362,1372,1374,1376,1378,1378,1378,1377,1376,1373,1366,1337,1317,1284,1258,1216,1115],"ymouse":[595,595,595,595,594,594,594,594,594,594,594,593,593,593,592,592,592,592,592,592,592,592,591,591,589,587,585,583,576,574,572,571,570,569,564,561,555,548,528,502,411,354,310,260,205,76,26,0,0,0,0,0,0,0,0,0,0,2,10,11,15,16,16,16,16,16,18,22,27,27,32],"timestamp_mouse":[11,27,46,66,88,108,128,146,167,188,206,227,247,267,287,307,328,346,367,388,407,427,448,466,488,507,527,547,566,587,606,626,646,667,688,707,727,747,767,786,806,827,846,867,887,907,928,946,966,986,1007,1026,1047,1066,1091,1108,1126,1146,1167,1187,1209,1226,1246,1266,1289,1307,1327,1346,1367,1387,1407],"xSR":741.5,"ySR":573.95,"xT1":424.9,"yT1":0,"xT2":1058.1,"yT2":0,"toosoon":0,"cond_shown":"randomdotsizeEA","ratio_trial":750,"smaller_num":"3","larger_num":"4","correct_side":1,"subjID":"RafaelDavidJimenez21","gender":"0","age":"10","school":"4"},{"start_time":1552328180423,"click_time":1552328181419,"finger_time":1552328181158,"fix_duration":943.8626138272866,"trial":36,"RT":735,"MT":261,"sideResp":1,"stimulus":"img/900/randomdotsizeEA/R/6_Ratio_900_L_9_R_10.png","xmouse":[816,816,816,816,816,816,817,817,817,817,817,817,817,817,817,817,817,817,817,817,817,817,817,817,817,817,817,817,817,817,817,817,817,817,819,822,835,842,857,864,867,868,850,827,799,770,686,635,587,511],"ymouse":[624,624,624,624,624,624,624,624,624,624,624,624,624,624,624,624,624,624,624,624,624,624,624,624,624,624,624,624,624,624,623,621,616,610,603,595,569,553,516,487,460,434,351,309,272,240,176,147,118,77],"timestamp_mouse":[17,35,55,76,97,115,135,156,176,196,215,236,257,276,296,316,337,356,376,395,417,436,456,476,495,516,535,557,577,596,615,635,655,676,696,716,735,755,775,796,816,835,856,877,895,916,935,955,975,996],"xSR":741.5,"ySR":573.95,"xT1":424.9,"yT1":0,"xT2":1058.1,"yT2":0,"toosoon":0,"cond_shown":"randomdotsizeEA","ratio_trial":900,"smaller_num":"9","larger_num":"10","correct_side":2,"subjID":"RafaelDavidJimenez21","gender":"0","age":"10","school":"4"},{"start_time":1552328183394,"click_time":1552328184578,"finger_time":1552328184219,"fix_duration":794.690563327881,"trial":37,"RT":825,"MT":359,"sideResp":2,"stimulus":"img/500/equaldotanddens/R/15_Ratio_500_L_1_R_2.png","xmouse":[804,804,804,804,804,804,804,804,804,804,804,804,804,804,804,804,804,804,804,804,804,804,804,804,804,804,804,804,804,804,804,804,804,804,804,804,804,804,804,804,805,811,815,815,799,788,783,781,800,836,889,949,1008,1057,1093,1093,1093,1093,1093,1105],"ymouse":[604,604,604,602,602,602,602,602,602,602,602,602,602,602,602,602,602,602,602,602,602,602,602,602,602,602,602,602,602,602,602,602,602,602,602,602,602,602,601,598,592,573,555,524,430,379,338,285,222,168,103,33,0,0,0,0,0,0,0,13],"timestamp_mouse":[13,33,44,65,86,106,125,145,165,186,205,225,245,265,286,305,326,344,365,385,406,425,445,465,484,505,525,544,565,586,604,626,644,665,685,706,725,744,765,784,805,825,846,866,885,905,925,944,966,984,1004,1025,1045,1065,1086,1105,1126,1145,1164,1184],"xSR":741.5,"ySR":573.95,"xT1":424.9,"yT1":0,"xT2":1058.1,"yT2":0,"toosoon":0,"cond_shown":"equaldotanddens","ratio_trial":500,"smaller_num":"1","larger_num":"2","correct_side":2,"subjID":"RafaelDavidJimenez21","gender":"0","age":"10","school":"4"},{"start_time":1552328192752,"click_time":1552328193898,"finger_time":1552328193539,"fix_duration":810.5155228473639,"trial":38,"RT":787,"MT":359,"sideResp":2,"stimulus":"img/900/equaldotsize/L/1_Ratio_900_L_10_R_9.png","xmouse":[797,797,797,797,797,797,797,797,797,797,797,797,797,797,797,797,797,797,798,799,799,799,799,799,799,799,799,799,799,799,799,799,799,799,799,799,799,799,797,792,783,771,771,774,800,831,877,918,930,945,963,998,1011,1026,1038,1053,1069,1071],"ymouse":[603,603,603,603,603,603,603,603,603,603,603,603,603,603,603,603,603,603,603,601,600,599,599,599,599,599,599,599,599,599,599,599,599,597,595,594,592,587,581,571,557,523,502,471,424,371,303,249,235,221,208,182,172,157,144,127,101,97],"timestamp_mouse":[13,26,47,66,87,108,128,146,168,188,206,227,248,268,286,307,328,348,367,387,407,426,447,467,487,507,527,547,566,588,606,626,648,668,687,707,727,748,767,787,806,827,847,867,887,907,927,946,966,987,1007,1028,1046,1066,1088,1107,1128,1146],"xSR":741.5,"ySR":573.95,"xT1":424.9,"yT1":0,"xT2":1058.1,"yT2":0,"toosoon":0,"cond_shown":"equaldotsize","ratio_trial":900,"smaller_num":"9","larger_num":"10","correct_side":1,"subjID":"RafaelDavidJimenez21","gender":"0","age":"10","school":"4"},{"start_time":1552328195589,"click_time":1552328196998,"finger_time":1552328196458,"fix_duration":568.0122221670111,"trial":39,"RT":869,"MT":540,"sideResp":2,"stimulus":"img/250/equaldotsize/R/10_Ratio_250_L_4_R_16.png","xmouse":[772,772,772,772,772,772,772,772,772,772,772,772,772,772,772,772,772,772,772,772,772,772,772,772,772,772,772,772,772,772,773,773,773,773,773,773,773,774,774,775,780,786,793,813,830,860,872,884,896,909,932,940,943,956,967,992,1004,1016,1029,1040,1051,1056,1058,1062,1064,1064,1065,1066,1069,1076,1095],"ymouse":[619,619,619,619,619,619,619,619,619,619,619,619,619,619,619,619,619,619,619,619,619,619,619,619,619,619,619,619,619,619,619,619,619,619,619,619,619,618,618,617,614,606,593,559,530,475,454,437,423,410,390,373,365,335,317,288,276,259,241,219,176,148,143,129,126,125,124,122,118,105,65],"timestamp_mouse":[21,34,51,70,90,111,130,150,171,189,211,229,250,271,290,310,329,350,369,390,410,429,451,470,489,510,529,550,570,591,610,629,649,671,689,710,730,750,770,791,810,830,850,869,889,909,930,949,969,990,1009,1029,1050,1069,1090,1110,1130,1149,1171,1190,1209,1229,1250,1269,1291,1311,1331,1350,1370,1389,1409],"xSR":741.5,"ySR":573.95,"xT1":424.9,"yT1":0,"xT2":1058.1,"yT2":0,"toosoon":0,"cond_shown":"equaldotsize","ratio_trial":250,"smaller_num":"4","larger_num":"16","correct_side":2,"subjID":"RafaelDavidJimenez21","gender":"0","age":"10","school":"4"},{"start_time":1552328198250,"click_time":1552328199518,"finger_time":1552328199198,"fix_duration":250,"trial":40,"RT":948,"MT":320,"sideResp":1,"stimulus":"img/900/equaldotanddens/L/8_Ratio_900_L_20_R_18.png","xmouse":[799,800,800,800,800,800,800,800,800,800,800,800,800,800,801,801,801,802,802,802,802,802,802,802,802,802,802,802,802,802,802,802,802,802,802,802,802,802,802,802,802,802,802,802,795,786,775,732,665,629,587,553,507,494,486,485,484,486,494,499,500,502,502,500],"ymouse":[657,656,655,655,654,654,654,654,654,654,654,654,654,654,653,652,651,647,644,643,642,640,640,640,640,640,640,640,640,640,640,640,640,640,640,640,640,640,640,640,640,640,640,640,626,608,586,506,420,372,324,284,225,204,188,179,174,162,145,133,126,116,102,97],"timestamp_mouse":[10,32,48,70,89,110,129,148,170,189,210,229,248,270,288,310,330,349,370,389,409,429,448,469,488,509,528,549,570,589,609,629,649,668,690,708,730,748,769,789,808,830,849,869,889,909,928,948,968,990,1008,1028,1048,1069,1088,1110,1128,1148,1169,1189,1209,1228,1248,1268],"xSR":741.5,"ySR":573.95,"xT1":424.9,"yT1":0,"xT2":1058.1,"yT2":0,"toosoon":0,"cond_shown":"equaldotanddens","ratio_trial":900,"smaller_num":"18","larger_num":"20","correct_side":1,"subjID":"RafaelDavidJimenez21","gender":"0","age":"10","school":"4"},{"start_time":1552328203191,"click_time":1552328204598,"finger_time":1552328204018,"fix_duration":1231.3184816200453,"trial":41,"RT":827,"MT":580,"sideResp":2,"stimulus":"img/250/randomdotsizeEA/R/11_Ratio_250_L_3_R_12.png","xmouse":[805,805,805,805,805,805,805,805,805,805,805,805,805,805,805,805,805,805,805,805,805,805,805,805,805,805,805,805,805,805,805,805,805,805,805,805,804,798,791,785,782,780,779,779,779,779,779,780,782,786,805,820,820,820,826,837,870,886,904,924,935,952,967,981,988,991,993,996,1018,1042,1071],"ymouse":[620,620,620,620,620,620,620,620,620,620,620,620,620,620,620,620,620,620,620,620,620,620,620,620,620,620,620,620,620,620,620,620,620,620,620,620,614,605,597,587,580,573,571,570,569,568,566,565,562,549,475,340,289,253,232,212,177,162,145,118,101,79,69,63,61,60,59,59,56,52,49],"timestamp_mouse":[12,35,46,66,87,108,127,146,168,187,208,226,247,268,288,308,326,347,367,386,406,428,447,468,486,506,528,548,567,588,608,627,646,666,688,707,726,747,767,788,807,827,847,866,886,907,927,948,967,987,1007,1026,1047,1066,1087,1107,1126,1148,1167,1187,1207,1227,1246,1266,1287,1308,1327,1347,1367,1387,1407],"xSR":741.5,"ySR":573.95,"xT1":424.9,"yT1":0,"xT2":1058.1,"yT2":0,"toosoon":0,"cond_shown":"randomdotsizeEA","ratio_trial":250,"smaller_num":"3","larger_num":"12","correct_side":2,"subjID":"RafaelDavidJimenez21","gender":"0","age":"10","school":"4"},{"start_time":1552328207042,"click_time":1552328208197,"finger_time":1552328207999,"fix_duration":1043.6515760125535,"trial":42,"RT":957,"MT":198,"sideResp":1,"stimulus":"img/250/equaldotsize/L/1_Ratio_250_L_8_R_2.png","xmouse":[811,811,811,813,813,814,814,814,814,814,814,814,814,814,814,814,814,814,814,814,814,814,814,814,814,814,814,814,814,814,814,814,814,814,814,814,814,814,814,814,813,811,807,799,794,790,786,781,758,723,685,645,609,566,555,544,534,522],"ymouse":[627,627,627,620,617,613,612,612,612,612,612,612,612,612,612,612,612,612,612,612,612,610,609,606,605,604,604,604,604,604,604,604,604,604,604,604,604,604,604,604,601,601,598,593,591,588,582,564,490,415,348,284,227,144,112,77,57,40],"timestamp_mouse":[16,42,56,75,95,117,137,157,176,195,217,237,255,275,297,317,337,357,375,395,417,436,455,476,496,515,535,555,576,596,615,636,656,676,696,715,735,756,776,796,816,837,857,875,896,916,935,957,976,996,1015,1037,1057,1076,1095,1115,1136,1155],"xSR":741.5,"ySR":573.95,"xT1":424.9,"yT1":0,"xT2":1058.1,"yT2":0,"toosoon":0,"cond_shown":"equaldotsize","ratio_trial":250,"smaller_num":"2","larger_num":"8","correct_side":1,"subjID":"RafaelDavidJimenez21","gender":"0","age":"10","school":"4"},{"start_time":1552328210630,"click_time":1552328212338,"finger_time":1552328212078,"fix_duration":1171.8456128904452,"trial":43,"RT":1448,"MT":260,"sideResp":2,"stimulus":"img/250/equaldotsize/R/9_Ratio_250_L_3_R_12.png","xmouse":[803,803,803,803,803,803,803,803,803,803,803,803,803,802,802,802,802,802,802,802,802,802,802,801,801,801,801,801,800,800,800,800,800,800,800,800,800,800,800,800,800,800,800,800,800,800,800,800,800,799,799,799,799,799,799,799,799,799,799,799,799,799,799,799,799,799,799,799,799,799,799,798,798,798,798,813,829,853,878,908,969,1002,1028,1051,1076,1108],"ymouse":[620,620,620,620,620,620,620,620,620,620,620,620,620,620,620,620,620,620,620,620,620,620,620,620,620,620,620,620,620,620,620,620,620,620,620,620,620,620,620,620,620,620,620,620,620,620,620,620,620,619,616,614,613,612,611,611,610,608,607,606,604,603,603,603,603,603,602,602,601,600,593,584,570,550,518,453,408,368,334,303,245,213,186,161,132,76],"timestamp_mouse":[11,34,48,67,89,108,129,148,169,189,209,227,248,267,289,308,327,348,369,389,407,428,448,467,489,508,528,549,568,587,607,629,649,669,687,707,728,747,767,789,807,828,849,869,889,909,928,948,968,988,1008,1028,1049,1068,1089,1107,1128,1149,1168,1188,1207,1229,1248,1268,1288,1307,1329,1349,1368,1388,1408,1428,1448,1467,1488,1508,1529,1547,1568,1587,1607,1629,1648,1668,1688,1707],"xSR":741.5,"ySR":573.95,"xT1":424.9,"yT1":0,"xT2":1058.1,"yT2":0,"toosoon":0,"cond_shown":"equaldotsize","ratio_trial":250,"smaller_num":"3","larger_num":"12","correct_side":2,"subjID":"RafaelDavidJimenez21","gender":"0","age":"10","school":"4"},{"start_time":1552328213371,"click_time":1552328214558,"finger_time":1552328214377,"fix_duration":250,"trial":44,"RT":1006,"MT":181,"sideResp":1,"stimulus":"img/750/randomdotsizeEA/R/11_Ratio_750_L_12_R_16.png","xmouse":[755,755,755,755,755,755,755,755,755,755,755,755,755,755,755,755,755,755,755,755,755,755,755,755,755,755,755,755,755,755,755,755,755,755,755,755,755,755,755,755,755,755,755,755,755,755,755,755,755,751,738,711,681,614,557,539,491,471,440,432],"ymouse":[612,612,612,612,612,612,612,612,612,612,612,612,612,612,612,612,612,612,612,612,612,612,612,612,612,612,612,612,612,612,612,612,612,612,612,612,612,612,612,612,612,612,612,612,612,612,612,612,604,578,533,468,401,293,229,211,162,140,101,89],"timestamp_mouse":[11,30,47,68,88,106,128,147,166,188,207,227,246,266,287,307,328,346,368,388,406,427,448,468,486,507,527,548,567,587,607,628,647,667,687,708,728,746,766,786,808,828,847,867,887,908,927,948,966,987,1006,1027,1047,1067,1087,1107,1127,1147,1167,1187],"xSR":741.5,"ySR":573.95,"xT1":424.9,"yT1":0,"xT2":1058.1,"yT2":0,"toosoon":0,"cond_shown":"randomdotsizeEA","ratio_trial":750,"smaller_num":"12","larger_num":"16","correct_side":2,"subjID":"RafaelDavidJimenez21","gender":"0","age":"10","school":"4"},{"start_time":1552328216502,"click_time":1552328218098,"finger_time":1552328217537,"fix_duration":1082.8557870582476,"trial":45,"RT":1035,"MT":561,"sideResp":1,"stimulus":"img/250/equaldotanddens/L/5_Ratio_250_L_24_R_6.png","xmouse":[764,764,764,764,764,764,764,764,764,764,764,764,765,765,765,765,765,765,765,765,765,765,765,765,765,765,765,765,766,767,767,767,768,769,770,771,771,771,771,771,771,771,771,771,771,771,771,772,772,772,769,758,728,717,705,692,671,644,622,610,602,589,581,573,565,560,559,559,559,558,557,551,548,545,543,542,540,525,510,491],"ymouse":[615,615,615,615,615,615,615,615,615,615,615,615,615,615,615,615,615,615,615,615,615,615,615,615,615,615,615,614,614,614,613,613,612,612,611,610,610,610,610,610,610,610,610,610,610,610,610,607,603,595,576,549,487,462,433,401,349,304,274,261,249,229,221,212,206,203,202,200,196,189,179,160,155,150,146,145,142,120,103,83],"timestamp_mouse":[16,36,56,76,97,115,135,156,176,197,217,236,256,275,296,317,335,357,376,397,416,435,457,476,495,516,536,556,576,596,616,636,656,677,696,717,736,757,775,797,815,836,857,876,896,915,935,955,976,996,1016,1035,1055,1077,1096,1116,1135,1156,1176,1196,1217,1236,1256,1276,1296,1315,1336,1355,1376,1395,1415,1437,1456,1476,1496,1515,1537,1556,1577,1596],"xSR":741.5,"ySR":573.95,"xT1":424.9,"yT1":0,"xT2":1058.1,"yT2":0,"toosoon":0,"cond_shown":"equaldotanddens","ratio_trial":250,"smaller_num":"6","larger_num":"24","correct_side":1,"subjID":"RafaelDavidJimenez21","gender":"0","age":"10","school":"4"},{"start_time":1552328219652,"click_time":1552328220939,"finger_time":1552328220598,"fix_duration":471.20528087396684,"trial":46,"RT":946,"MT":341,"sideResp":2,"stimulus":"img/900/equaldotsize/R/13_Ratio_900_L_18_R_20.png","xmouse":[821,821,821,821,821,821,821,821,821,821,821,821,821,821,821,821,821,821,821,821,821,821,819,819,819,819,819,819,819,819,819,819,819,819,819,818,816,813,812,809,808,808,808,808,808,808,808,808,811,816,831,834,836,842,848,868,885,906,947,995,1024,1047,1062,1073,1085],"ymouse":[620,620,620,620,620,620,620,620,620,620,620,620,620,620,620,620,620,620,620,620,620,620,620,620,620,620,620,620,620,620,620,620,620,620,617,610,602,593,587,578,576,576,576,576,576,576,574,570,559,545,498,477,460,443,429,407,396,384,362,323,284,238,181,123,36],"timestamp_mouse":[13,31,46,66,87,107,126,147,165,186,207,227,246,265,285,306,327,346,366,387,406,425,446,466,486,507,527,546,567,585,606,625,647,667,687,705,726,745,766,787,805,826,846,865,887,907,926,946,967,986,1007,1026,1045,1065,1086,1106,1126,1146,1166,1187,1205,1226,1247,1266,1287],"xSR":741.5,"ySR":573.95,"xT1":424.9,"yT1":0,"xT2":1058.1,"yT2":0,"toosoon":0,"cond_shown":"equaldotsize","ratio_trial":900,"smaller_num":"18","larger_num":"20","correct_side":2,"subjID":"RafaelDavidJimenez21","gender":"0","age":"10","school":"4"},{"start_time":1552328223222,"click_time":1552328224358,"finger_time":1552328223558,"fix_duration":1023.273338117177,"trial":47,"RT":336,"MT":800,"sideResp":1,"stimulus":"img/900/equaldotanddens/L/4_Ratio_900_L_20_R_18.png","xmouse":[774,774,774,774,774,774,775,775,775,775,776,776,777,777,777,778,778,778,779,779,779,780,780,780,780,780,780,780,780,780,780,780,780,781,783,786,794,801,801,788,768,706,675,648,626,611,589,578,557,545,538,536,536,536,535,534,492],"ymouse":[584,584,584,584,584,584,583,583,582,581,580,579,577,576,575,574,572,571,571,569,569,567,567,567,567,567,567,565,565,563,559,553,537,525,510,488,437,376,335,284,235,147,110,85,69,59,48,44,41,40,40,40,40,40,40,40,40],"timestamp_mouse":[16,37,55,76,97,115,136,156,176,196,216,237,257,275,295,317,336,357,376,395,415,436,456,476,495,515,536,556,576,596,616,635,655,676,697,717,735,755,776,796,816,835,855,876,895,916,936,957,976,996,1017,1036,1057,1077,1096,1116,1136],"xSR":741.5,"ySR":573.95,"xT1":424.9,"yT1":0,"xT2":1058.1,"yT2":0,"toosoon":0,"cond_shown":"equaldotanddens","ratio_trial":900,"smaller_num":"18","larger_num":"20","correct_side":1,"subjID":"RafaelDavidJimenez21","gender":"0","age":"10","school":"4"},{"start_time":1552328227791,"click_time":1552328228918,"finger_time":1552328228598,"fix_duration":692.3081276311674,"trial":48,"RT":807,"MT":320,"sideResp":2,"stimulus":"img/500/randomdotsizeEA/R/2_Ratio_500_L_3_R_6.png","xmouse":[788,788,788,788,788,788,788,788,788,788,788,788,788,788,788,788,788,788,788,790,790,790,790,791,791,791,791,791,791,791,791,791,791,791,791,791,791,791,792,794,800,817,855,898,962,980,994,1007,1026,1061,1081,1100,1115,1125,1135,1136,1136],"ymouse":[599,599,599,599,599,599,599,599,599,599,599,599,599,599,599,599,599,599,599,599,599,598,598,598,598,598,598,598,598,598,598,598,598,598,598,598,598,597,595,579,562,536,486,426,333,301,277,260,244,222,209,195,181,167,131,112,93],"timestamp_mouse":[19,38,47,68,87,108,127,148,167,187,207,228,246,268,286,306,327,348,368,388,407,427,446,468,488,507,527,546,568,588,606,628,648,666,688,707,727,747,767,787,807,826,847,867,886,907,927,948,967,987,1007,1027,1047,1067,1086,1107,1127],"xSR":741.5,"ySR":573.95,"xT1":424.9,"yT1":0,"xT2":1058.1,"yT2":0,"toosoon":0,"cond_shown":"randomdotsizeEA","ratio_trial":500,"smaller_num":"3","larger_num":"6","correct_side":2,"subjID":"RafaelDavidJimenez21","gender":"0","age":"10","school":"4"},{"start_time":1552328230813,"click_time":1552328232078,"finger_time":1552328231539,"fix_duration":674.243951211808,"trial":49,"RT":726,"MT":539,"sideResp":2,"stimulus":"img/250/equaldotanddens/R/8_Ratio_250_L_1_R_4.png","xmouse":[809,809,809,809,809,809,809,809,809,809,809,809,809,809,809,809,809,809,809,809,809,809,809,809,809,809,809,809,809,809,809,809,809,809,807,803,792,766,750,749,749,749,749,750,754,759,766,782,809,826,839,846,858,901,943,983,1019,1038,1059,1062,1062,1063,1063,1064],"ymouse":[609,609,609,609,609,609,609,609,609,609,609,609,609,609,609,609,609,609,609,609,609,609,609,609,609,609,609,609,609,609,609,609,609,598,590,577,560,529,507,504,503,502,501,499,497,494,490,471,421,376,332,305,285,250,226,204,180,166,141,124,113,110,106,98],"timestamp_mouse":[12,31,44,66,86,104,126,146,165,185,205,225,244,265,285,306,325,344,365,386,404,426,445,466,486,506,526,545,566,586,605,626,644,664,685,705,726,745,764,784,805,826,845,865,886,905,924,944,964,984,1005,1024,1046,1064,1085,1105,1125,1146,1165,1185,1205,1225,1245,1264],"xSR":741.5,"ySR":573.95,"xT1":424.9,"yT1":0,"xT2":1058.1,"yT2":0,"toosoon":0,"cond_shown":"equaldotanddens","ratio_trial":250,"smaller_num":"1","larger_num":"4","correct_side":2,"subjID":"RafaelDavidJimenez21","gender":"0","age":"10","school":"4"},{"start_time":1552328233740,"click_time":1552328235018,"finger_time":1552328234297,"fix_duration":780.0061405897291,"trial":50,"RT":557,"MT":721,"sideResp":2,"stimulus":"img/250/randomdotsizeEA/R/8_Ratio_250_L_1_R_4.png","xmouse":[805,805,805,805,805,805,805,805,805,805,805,805,805,806,807,808,810,811,811,812,812,813,813,815,817,820,825,827,827,827,827,827,828,837,857,876,889,891,892,893,893,893,892,892,892,891,891,898,905,914,921,935,941,946,951,957,970,983,991,1002,1016,1043,1055,1062],"ymouse":[627,627,627,627,627,627,627,627,627,627,627,627,627,625,625,623,621,619,618,617,616,614,613,608,602,594,578,570,569,569,569,569,568,561,544,528,513,507,504,502,501,499,493,488,478,464,436,410,393,373,354,315,298,285,272,259,230,195,167,140,113,62,43,28],"timestamp_mouse":[23,39,58,77,98,119,138,157,177,199,218,237,257,278,298,317,338,359,378,399,418,438,458,478,498,517,538,557,578,598,618,637,658,677,697,718,738,757,778,798,818,838,857,879,898,918,938,958,979,998,1018,1038,1057,1077,1097,1118,1138,1157,1178,1197,1217,1238,1258,1278],"xSR":741.5,"ySR":573.95,"xT1":424.9,"yT1":0,"xT2":1058.1,"yT2":0,"toosoon":0,"cond_shown":"randomdotsizeEA","ratio_trial":250,"smaller_num":"1","larger_num":"4","correct_side":2,"subjID":"RafaelDavidJimenez21","gender":"0","age":"10","school":"4"},{"start_time":1552328236400,"click_time":1552328237518,"finger_time":1552328237158,"fix_duration":280.2462907362596,"trial":51,"RT":758,"MT":360,"sideResp":2,"stimulus":"img/750/equaldotanddens/L/9_Ratio_750_L_4_R_3.png","xmouse":[785,785,785,785,785,785,785,785,785,785,785,785,785,785,785,785,785,785,785,785,785,785,785,785,785,785,785,785,785,785,785,785,785,785,789,796,805,811,817,823,827,829,834,838,847,854,862,878,928,963,989,1013,1028,1042,1065,1072],"ymouse":[626,626,626,626,626,626,626,626,626,626,626,626,626,626,626,626,626,626,626,626,626,626,626,626,626,626,626,626,626,626,626,626,626,626,617,601,581,555,529,494,483,474,459,449,427,410,393,369,307,264,232,208,187,164,104,78],"timestamp_mouse":[18,38,58,77,99,119,137,159,178,197,218,238,258,278,299,319,339,359,377,399,419,437,458,479,499,517,537,559,579,597,619,638,659,677,698,718,738,758,777,798,817,837,858,878,898,918,937,958,978,997,1018,1038,1058,1078,1097,1117],"xSR":741.5,"ySR":573.95,"xT1":424.9,"yT1":0,"xT2":1058.1,"yT2":0,"toosoon":0,"cond_shown":"equaldotanddens","ratio_trial":750,"smaller_num":"3","larger_num":"4","correct_side":1,"subjID":"RafaelDavidJimenez21","gender":"0","age":"10","school":"4"},{"start_time":1552328238771,"click_time":1552328239997,"finger_time":1552328239298,"fix_duration":250,"trial":52,"RT":527,"MT":699,"sideResp":1,"stimulus":"img/900/equaldotsize/L/4_Ratio_900_L_20_R_18.png","xmouse":[774,774,774,774,774,774,774,774,774,774,774,774,773,773,773,773,773,772,772,771,770,766,764,761,758,756,750,749,745,745,744,743,743,743,745,746,747,735,720,705,684,643,614,593,571,559,539,537,536,536,536,536,536,534,532,532,532,532,532,532,529,519],"ymouse":[631,631,631,631,631,631,631,631,631,631,630,628,625,624,623,623,623,622,621,619,616,606,602,595,589,586,572,565,559,553,551,540,528,512,479,457,404,370,335,308,276,217,183,154,121,102,74,70,68,68,68,68,68,67,67,67,67,67,67,67,67,65],"timestamp_mouse":[26,38,48,68,87,108,127,147,168,187,207,227,247,267,286,307,328,346,366,386,407,426,447,467,486,507,527,548,568,587,607,626,648,667,687,706,726,747,767,786,806,827,847,867,887,907,928,946,966,987,1007,1027,1047,1066,1087,1107,1128,1148,1167,1186,1207,1226],"xSR":741.5,"ySR":573.95,"xT1":424.9,"yT1":0,"xT2":1058.1,"yT2":0,"toosoon":0,"cond_shown":"equaldotsize","ratio_trial":900,"smaller_num":"18","larger_num":"20","correct_side":1,"subjID":"RafaelDavidJimenez21","gender":"0","age":"10","school":"4"},{"start_time":1552328241994,"click_time":1552328242918,"finger_time":1552328242698,"fix_duration":555.3664694479949,"trial":53,"RT":704,"MT":220,"sideResp":2,"stimulus":"img/500/randomdotsizeEA/R/9_Ratio_500_L_2_R_4.png","xmouse":[771,771,771,771,771,771,771,771,771,771,771,771,771,771,771,771,771,771,771,771,771,771,771,771,771,771,771,771,771,771,771,771,771,771,772,783,794,816,836,858,910,924,964,992,1012,1052,1070],"ymouse":[610,610,610,610,610,610,610,610,610,610,610,610,610,610,610,610,610,610,610,610,610,610,610,610,610,610,610,610,610,610,610,610,610,610,601,563,524,463,405,341,216,197,154,134,120,91,74],"timestamp_mouse":[12,30,45,64,83,103,125,144,164,185,204,223,244,264,285,303,323,344,365,383,403,424,443,464,483,503,525,545,563,584,604,624,644,663,684,704,723,743,764,784,805,825,844,864,883,904,923],"xSR":741.5,"ySR":573.95,"xT1":424.9,"yT1":0,"xT2":1058.1,"yT2":0,"toosoon":0,"cond_shown":"randomdotsizeEA","ratio_trial":500,"smaller_num":"2","larger_num":"4","correct_side":2,"subjID":"RafaelDavidJimenez21","gender":"0","age":"10","school":"4"},{"start_time":1552328244174,"click_time":1552328245438,"finger_time":1552328244958,"fix_duration":335.2824644289631,"trial":54,"RT":784,"MT":480,"sideResp":2,"stimulus":"img/750/randomdotsizeEA/R/11_Ratio_750_L_12_R_16.png","xmouse":[772,772,772,772,772,772,772,772,772,772,772,772,772,772,772,772,772,772,772,772,772,772,772,772,772,772,772,772,772,772,772,772,772,772,772,773,775,776,778,780,786,807,836,867,905,951,1090,1161,1222,1275,1305,1320,1320,1320,1318,1306,1278,1262,1247,1235,1221,1208,1166,1153],"ymouse":[609,609,609,609,609,609,609,609,609,609,609,609,609,609,609,609,609,609,609,609,609,609,609,609,609,609,609,609,609,609,609,609,609,609,609,607,598,591,582,570,554,514,467,425,377,326,197,140,92,51,25,7,6,6,6,9,13,15,17,18,20,22,35,44],"timestamp_mouse":[20,36,44,63,83,105,124,143,165,184,204,224,245,264,284,303,325,343,365,383,404,423,443,463,484,505,524,543,563,584,605,623,645,663,685,704,724,744,764,784,805,824,844,864,884,904,924,944,964,984,1004,1025,1043,1064,1084,1104,1124,1144,1164,1184,1204,1223,1243,1263],"xSR":741.5,"ySR":573.95,"xT1":424.9,"yT1":0,"xT2":1058.1,"yT2":0,"toosoon":0,"cond_shown":"randomdotsizeEA","ratio_trial":750,"smaller_num":"12","larger_num":"16","correct_side":2,"subjID":"RafaelDavidJimenez21","gender":"0","age":"10","school":"4"},{"start_time":1552328247053,"click_time":1552328248118,"finger_time":1552328247677,"fix_duration":733.31685749089,"trial":55,"RT":624,"MT":441,"sideResp":2,"stimulus":"img/250/randomdotsizeEA/R/12_Ratio_250_L_5_R_20.png","xmouse":[792,793,793,793,793,793,793,793,793,793,793,793,793,793,793,793,793,793,793,793,793,793,793,793,793,793,793,793,795,796,799,802,809,825,834,851,858,890,935,955,975,993,1004,1024,1029,1036,1044,1060,1074,1076,1077,1078,1078,1082],"ymouse":[597,595,593,593,593,593,593,593,593,593,593,593,593,593,593,593,593,593,593,593,593,593,593,593,593,593,593,593,587,582,575,566,550,513,492,456,445,397,337,313,291,271,256,221,201,178,157,132,113,108,106,105,105,97],"timestamp_mouse":[4,24,44,65,85,104,126,145,164,184,205,225,246,266,284,306,326,344,365,386,406,426,446,465,486,505,525,545,566,585,605,624,645,664,685,705,726,745,766,785,804,824,844,864,885,906,926,945,965,984,1005,1026,1046,1065],"xSR":741.5,"ySR":573.95,"xT1":424.9,"yT1":0,"xT2":1058.1,"yT2":0,"toosoon":0,"cond_shown":"randomdotsizeEA","ratio_trial":250,"smaller_num":"5","larger_num":"20","correct_side":2,"subjID":"RafaelDavidJimenez21","gender":"0","age":"10","school":"4"},{"start_time":1552328250939,"click_time":1552328251738,"finger_time":1552328251517,"fix_duration":479.5142552119387,"trial":56,"RT":578,"MT":221,"sideResp":2,"stimulus":"img/900/equaldotanddens/L/2_Ratio_900_L_20_R_18.png","xmouse":[771,771,771,771,771,771,771,772,773,776,777,777,777,777,777,777,777,777,777,777,777,777,777,777,779,785,790,793,797,808,822,831,843,856,883,898,923,957,1000,1043,1118],"ymouse":[612,612,612,612,612,612,610,609,605,598,596,596,595,595,595,595,595,595,595,595,595,595,595,595,593,589,585,583,579,568,555,543,527,508,476,457,424,377,315,250,91],"timestamp_mouse":[1,30,40,59,78,99,120,139,159,179,199,219,239,259,278,299,319,339,360,379,400,420,438,459,478,499,519,539,560,578,598,619,639,659,678,699,719,739,758,779,799],"xSR":741.5,"ySR":573.95,"xT1":424.9,"yT1":0,"xT2":1058.1,"yT2":0,"toosoon":0,"cond_shown":"equaldotanddens","ratio_trial":900,"smaller_num":"18","larger_num":"20","correct_side":1,"subjID":"RafaelDavidJimenez21","gender":"0","age":"10","school":"4"},{"start_time":1552328255852,"click_time":1552328256938,"finger_time":1552328256418,"fix_duration":772.1071261387041,"trial":57,"RT":566,"MT":520,"sideResp":1,"stimulus":"img/250/equaldotanddens/L/7_Ratio_250_L_8_R_2.png","xmouse":[808,808,808,808,808,808,808,808,808,808,808,808,808,808,808,808,808,808,808,808,808,808,808,808,808,808,808,805,798,787,782,778,774,769,761,755,749,737,721,656,620,543,489,456,447,447,447,447,447,453,461,463,469,475,477],"ymouse":[614,614,614,614,614,614,614,614,614,614,614,614,614,614,614,614,614,614,614,614,614,614,614,614,614,614,597,588,573,541,530,515,501,482,446,423,400,374,344,265,230,177,143,126,121,121,121,121,120,116,110,108,104,100,99],"timestamp_mouse":[19,27,45,66,85,107,126,146,166,185,207,227,245,267,286,307,326,346,367,386,406,426,446,467,486,505,527,546,566,586,606,626,646,665,685,707,725,745,765,786,807,826,846,865,886,906,926,947,967,985,1005,1025,1045,1066,1086],"xSR":741.5,"ySR":573.95,"xT1":424.9,"yT1":0,"xT2":1058.1,"yT2":0,"toosoon":0,"cond_shown":"equaldotanddens","ratio_trial":250,"smaller_num":"2","larger_num":"8","correct_side":1,"subjID":"RafaelDavidJimenez21","gender":"0","age":"10","school":"4"},{"start_time":1552328263314,"click_time":1552328264698,"finger_time":1552328263998,"fix_duration":914.200152697746,"trial":58,"RT":684,"MT":700,"sideResp":2,"stimulus":"img/750/equaldotsize/R/11_Ratio_750_L_12_R_16.png","xmouse":[816,816,816,816,816,816,816,816,816,816,816,816,816,816,816,816,814,812,811,810,808,807,807,807,807,807,807,807,807,807,807,807,806,803,802,802,818,848,874,903,925,945,978,1005,1039,1064,1092,1097,1100,1102,1103,1105,1110,1113,1113,1113,1111,1111,1111,1111,1111,1111,1111,1111,1111,1111,1111,1111,1110,1108],"ymouse":[606,606,606,606,606,606,606,606,606,606,606,606,606,606,606,606,608,610,611,612,614,615,615,615,615,615,615,615,615,615,615,615,606,586,552,541,491,444,414,384,362,342,310,285,258,240,219,212,207,198,188,177,148,134,121,118,112,112,112,111,111,111,111,111,111,111,111,109,101,93],"timestamp_mouse":[15,25,44,64,85,104,124,145,165,185,204,225,244,265,285,304,324,344,364,385,404,425,445,464,485,506,525,545,565,584,605,625,644,664,684,705,724,745,764,785,804,826,844,864,884,905,925,944,964,984,1004,1024,1044,1065,1084,1104,1125,1144,1165,1184,1205,1226,1245,1264,1289,1305,1325,1344,1364,1384],"xSR":741.5,"ySR":573.95,"xT1":424.9,"yT1":0,"xT2":1058.1,"yT2":0,"toosoon":0,"cond_shown":"equaldotsize","ratio_trial":750,"smaller_num":"12","larger_num":"16","correct_side":2,"subjID":"RafaelDavidJimenez21","gender":"0","age":"10","school":"4"},{"start_time":1552328267152,"click_time":1552328268319,"finger_time":1552328267918,"fix_duration":1451.1592819452112,"trial":59,"RT":766,"MT":401,"sideResp":2,"stimulus":"img/750/equaldotsize/R/15_Ratio_750_L_9_R_12.png","xmouse":[782,782,782,782,782,782,782,782,782,782,782,782,782,782,782,782,782,782,782,782,782,782,782,782,782,782,782,782,782,782,782,782,782,782,782,782,782,779,771,763,737,723,710,693,688,685,689,693,700,713,750,778,829,878,938,1056,1087,1109,1120],"ymouse":[598,598,598,598,598,598,598,598,598,598,598,598,598,598,598,598,598,598,598,598,598,598,598,598,598,598,598,598,598,598,598,598,598,598,598,597,592,582,563,541,483,441,400,337,306,274,265,260,255,247,222,201,169,147,130,109,104,101,98],"timestamp_mouse":[9,26,47,66,87,108,126,147,168,187,206,226,247,267,286,308,327,347,367,387,406,426,447,466,487,506,527,546,568,587,606,627,646,668,688,706,726,746,766,786,806,826,847,866,886,906,926,946,966,986,1006,1027,1047,1067,1087,1107,1126,1148,1167],"xSR":741.5,"ySR":573.95,"xT1":424.9,"yT1":0,"xT2":1058.1,"yT2":0,"toosoon":0,"cond_shown":"equaldotsize","ratio_trial":750,"smaller_num":"9","larger_num":"12","correct_side":2,"subjID":"RafaelDavidJimenez21","gender":"0","age":"10","school":"4"},{"start_time":1552328270314,"click_time":1552328271478,"finger_time":1552328271178,"fix_duration":953.0569527149117,"trial":60,"RT":864,"MT":300,"sideResp":2,"stimulus":"img/500/equaldotanddens/R/12_Ratio_500_L_1_R_2.png","xmouse":[793,793,793,793,793,793,791,788,786,784,783,783,783,783,783,783,783,783,783,783,783,782,782,782,782,782,782,782,782,782,782,782,782,782,782,782,781,781,779,778,777,775,773,754,736,719,711,710,710,713,716,723,741,790,844,913,981,1046,1152],"ymouse":[622,622,622,622,622,622,622,622,622,622,621,621,621,621,621,621,621,621,621,621,621,620,620,620,620,620,620,620,620,620,620,620,620,620,620,617,614,610,602,598,594,588,580,534,505,483,470,466,464,463,461,458,447,405,356,300,236,178,95],"timestamp_mouse":[4,24,45,64,85,104,124,145,164,185,205,224,244,264,284,305,326,345,365,385,404,425,445,465,485,505,525,545,564,585,605,624,645,665,684,705,724,744,764,784,805,824,844,864,885,905,925,945,964,984,1004,1025,1044,1064,1084,1104,1125,1145,1164],"xSR":741.5,"ySR":573.95,"xT1":424.9,"yT1":0,"xT2":1058.1,"yT2":0,"toosoon":0,"cond_shown":"equaldotanddens","ratio_trial":500,"smaller_num":"1","larger_num":"2","correct_side":2,"subjID":"RafaelDavidJimenez21","gender":"0","age":"10","school":"4"},{"start_time":1552328273070,"click_time":1552328274439,"finger_time":1552328274258,"fix_duration":671.879796069518,"trial":61,"RT":1188,"MT":181,"sideResp":2,"stimulus":"img/900/equaldotsize/R/6_Ratio_900_L_9_R_10.png","xmouse":[796,796,796,796,796,796,796,796,796,796,796,796,796,796,796,796,796,796,796,796,796,796,796,796,796,796,796,796,796,796,796,796,796,796,796,796,796,796,796,796,796,796,796,796,796,796,796,796,797,797,798,798,798,798,798,798,798,800,809,827,874,917,994,1036,1066,1103,1117,1129,1134],"ymouse":[629,629,629,629,629,629,629,629,629,629,629,629,629,629,629,629,629,629,629,629,629,629,629,629,629,629,629,629,629,629,629,629,629,629,629,629,629,629,629,629,629,629,629,629,629,629,629,629,627,626,624,623,623,623,623,623,622,614,597,568,502,439,342,293,254,186,151,120,94],"timestamp_mouse":[15,32,48,69,88,108,128,148,168,188,209,228,249,269,289,308,328,348,369,390,409,429,448,469,489,509,529,548,569,589,609,629,648,669,688,709,729,748,769,788,808,828,849,868,889,909,929,950,968,989,1008,1030,1049,1068,1089,1108,1128,1149,1168,1188,1208,1229,1249,1268,1288,1308,1328,1348,1369],"xSR":741.5,"ySR":573.95,"xT1":424.9,"yT1":0,"xT2":1058.1,"yT2":0,"toosoon":0,"cond_shown":"equaldotsize","ratio_trial":900,"smaller_num":"9","larger_num":"10","correct_side":2,"subjID":"RafaelDavidJimenez21","gender":"0","age":"10","school":"4"},{"start_time":1552328276167,"click_time":1552328277158,"finger_time":1552328276938,"fix_duration":847.0609639413871,"trial":62,"RT":771,"MT":220,"sideResp":1,"stimulus":"img/750/equaldotanddens/L/14_Ratio_750_L_8_R_6.png","xmouse":[786,786,786,786,786,786,786,786,786,786,786,786,786,786,786,786,786,786,786,786,786,786,786,786,786,786,786,786,786,786,786,786,786,786,786,786,791,795,800,805,809,809,802,788,774,712,621,567,534,522],"ymouse":[601,601,601,601,601,601,601,601,601,601,601,601,601,601,601,601,601,601,601,601,601,601,601,601,601,601,601,601,601,601,601,601,601,601,601,601,591,574,550,514,479,419,392,362,327,240,156,109,81,67],"timestamp_mouse":[20,32,53,71,92,111,131,151,172,191,212,231,251,272,291,311,332,353,371,391,411,431,452,471,492,511,532,551,572,591,611,632,652,671,692,711,732,751,771,792,811,831,852,871,891,912,932,951,972,991],"xSR":741.5,"ySR":573.95,"xT1":424.9,"yT1":0,"xT2":1058.1,"yT2":0,"toosoon":0,"cond_shown":"equaldotanddens","ratio_trial":750,"smaller_num":"6","larger_num":"8","correct_side":1,"subjID":"RafaelDavidJimenez21","gender":"0","age":"10","school":"4"},{"start_time":1552328280171,"click_time":1552328280998,"finger_time":1552328280419,"fix_duration":751.9227151376787,"trial":63,"RT":248,"MT":579,"sideResp":2,"stimulus":"img/900/randomdotsizeEA/R/3_Ratio_900_L_9_R_10.png","xmouse":[790,791,792,793,795,798,799,800,801,802,802,803,804,806,807,811,823,831,841,851,871,882,894,905,914,921,924,925,929,935,958,968,978,987,995,1025,1033,1040,1046,1051,1057,1064],"ymouse":[605,603,601,600,596,588,585,582,580,579,576,574,571,564,560,550,512,491,469,447,403,380,361,341,324,305,293,289,281,273,240,224,207,186,167,127,116,106,95,85,75,64],"timestamp_mouse":[13,36,47,69,87,108,127,147,168,187,208,227,248,267,288,307,327,347,368,387,408,427,447,467,487,507,527,548,567,587,608,627,649,667,688,708,727,748,767,787,808,827],"xSR":741.5,"ySR":573.95,"xT1":424.9,"yT1":0,"xT2":1058.1,"yT2":0,"toosoon":0,"cond_shown":"randomdotsizeEA","ratio_trial":900,"smaller_num":"9","larger_num":"10","correct_side":2,"subjID":"RafaelDavidJimenez21","gender":"0","age":"10","school":"4"},{"start_time":1552328284481,"click_time":1552328286118,"finger_time":1552328286019,"fix_duration":1179.8889713550393,"trial":64,"RT":1538,"MT":99,"sideResp":2,"stimulus":"img/900/randomdotsizeEA/R/12_Ratio_900_L_18_R_20.p