[{"start_time":1552327299223,"click_time":1552327300788,"finger_time":1552327300486,"fix_duration":1449.4395077737704,"trial":0,"RT":1263,"MT":302,"sideResp":2,"stimulus":[],"xmouse":[776,776,776,776,776,776,776,776,776,776,776,776,776,776,776,776,776,776,776,776,776,776,776,776,776,776,776,776,776,776,776,776,776,776,776,776,776,776,776,776,776,776,776,776,776,776,776,776,776,776,776,776,776,776,776,776,776,776,776,776,776,776,779,833,890,934,965,982,1032,1064,1085,1109,1134,1155,1159,1160,1160,1160,1152],"ymouse":[483,483,483,483,483,483,483,483,483,483,483,483,483,483,483,483,483,483,483,483,483,483,483,483,483,483,483,483,483,483,483,483,483,483,483,483,483,483,483,483,483,483,483,483,483,483,483,483,483,483,483,483,483,483,483,483,483,483,483,483,483,483,483,459,441,422,403,388,345,317,287,235,178,102,80,63,47,44,43],"timestamp_mouse":[9,38,44,63,84,104,123,143,165,185,204,223,244,265,285,303,324,344,363,385,404,424,444,463,483,505,524,544,563,583,605,625,644,663,683,704,723,743,763,784,805,825,843,863,884,903,923,944,964,984,1004,1023,1044,1063,1084,1104,1123,1144,1163,1183,1203,1224,1245,1263,1283,1303,1324,1344,1363,1384,1404,1425,1445,1463,1483,1504,1524,1544,1564],"xSR":741.5,"ySR":469.95,"xT1":424.9,"yT1":0,"xT2":1058.1,"yT2":0,"toosoon":0,"cond_shown":"Incongruent","ratio_trial":200,"L_num":3,"L_den":4,"R_num":11,"R_den":20,"correct_side":1,"subjID":"RafaelDavidJimenezNomesque21","gender":"0","age":"10","school":"4","test":{"fix_dur":[250,1500],"timestim":1000,"targets_dim":[100,100],"targets_relative_coord":[0.3,0.7],"size_stim":[880,420],"start_dim":[100,100],"size_start":[300,300],"size_fix":60,"samplingrate":20,"img_types":["Congruent","Incongruent"],"ratios":[100,200,300],"rep_conds":19,"nTrials":120,"trials_to_rest":500,"Trials_order":[39,69,65,80,18,79,78,83,116,71,10,62,118,75,73,84,115,89,38,25,61,29,63,119,106,77,59,20,101,86,14,30,47,34,50,12,9,94,70,105,0,58,57,113,33,51,54,44,1,23,93,74,41,37,67,111,15,102,2,5,55,13,117,96,110,46,22,32,60,43,4,100,98,53,6,85,76,45,66,108,95,36,24,87,91,82,52,97,11,72,7,26,31,35,88,3,114,27,104,42,90,92,21,28,49,19,17,99,40,8,107,112,103,68,48,56,81,16,64,109],"cond_shown":["Incongruent","Incongruent","Incongruent","Congruent","Congruent","Incongruent","Congruent","Incongruent","Congruent","Incongruent","Congruent","Congruent","Congruent","Incongruent","Incongruent","Congruent","Incongruent","Incongruent","Congruent","Incongruent","Incongruent","Incongruent","Incongruent","Incongruent","Congruent","Incongruent","Incongruent","Congruent","Incongruent","Congruent","Congruent","Congruent","Incongruent","Congruent","Congruent","Congruent","Incongruent","Congruent","Congruent","Incongruent","Congruent","Congruent","Incongruent","Incongruent","Incongruent","Incongruent","Congruent","Congruent","Incongruent","Incongruent","Incongruent","Congruent","Incongruent","Incongruent","Incongruent","Incongruent","Incongruent","Congruent","Congruent","Incongruent","Incongruent","Incongruent","Incongruent","Congruent","Congruent","Congruent","Congruent","Congruent","Congruent","Incongruent","Congruent","Congruent","Congruent","Incongruent","Congruent","Incongruent","Congruent","Incongruent","Congruent","Congruent","Incongruent","Congruent","Congruent","Incongruent","Incongruent","Congruent","Congruent","Incongruent","Incongruent","Congruent","Incongruent","Congruent","Incongruent","Incongruent","Congruent","Incongruent","Congruent","Incongruent","Congruent","Congruent","Congruent","Congruent","Incongruent","Congruent","Incongruent","Incongruent","Incongruent","Incongruent","Congruent","Congruent","Incongruent","Congruent","Incongruent","Congruent","Congruent","Congruent","Incongruent","Congruent","Congruent","Incongruent"],"ratio_trial":[200,200,300,200,100,100,100,300,200,300,300,200,300,200,100,100,100,300,200,100,100,300,200,300,300,300,300,200,300,200,200,100,300,300,200,100,200,300,300,200,100,300,200,300,200,200,100,200,100,300,200,200,300,100,100,200,200,100,200,300,100,100,200,100,200,300,300,200,100,100,300,300,200,300,100,100,300,200,100,100,300,100,100,200,100,300,300,100,300,100,100,200,100,300,300,200,100,200,200,100,100,200,200,300,100,100,300,200,300,200,300,300,100,200,100,200,200,300,300,100],"left_num":[3,7,3,4,2,4,8,4,6,3,1,12,4,9,2,2,9,1,3,12,6,4,14,2,1,4,13,8,8,7,7,6,2,1,16,4,9,1,1,7,2,1,7,4,4,7,9,13,6,4,7,7,4,9,12,4,3,4,8,2,6,2,4,6,9,20,3,3,4,12,1,8,3,4,3,4,4,7,7,10,4,4,2,7,10,4,8,4,1,11,2,9,1,8,11,7,4,4,3,3,8,7,9,3,13,2,8,4,11,3,13,20,6,6,9,6,7,1,12,6],"right_num":[11,4,4,3,6,8,2,2,11,4,19,6,13,8,8,11,20,3,11,2,3,2,12,6,8,2,12,2,9,2,2,5,6,8,12,6,8,11,3,14,6,8,14,8,6,8,8,14,3,2,6,2,2,6,9,6,1,15,7,6,7,8,1,5,4,5,4,9,15,2,3,10,11,2,4,8,1,12,9,3,8,6,6,4,8,1,10,8,2,6,8,4,8,9,2,14,6,1,14,4,2,18,8,11,6,8,14,14,2,11,12,14,3,11,8,3,14,19,2,3],"left_den":[4,15,6,10,5,8,16,20,20,6,3,15,20,15,4,5,10,2,10,30,12,20,30,4,30,20,26,15,10,21,21,20,4,30,20,8,15,5,5,10,5,30,10,5,5,10,15,26,12,20,15,21,20,18,24,5,10,10,15,4,10,4,30,20,20,25,6,12,10,30,5,15,10,20,20,8,10,10,14,25,5,8,5,15,25,10,15,8,2,22,4,20,2,10,22,10,8,30,6,20,16,15,15,12,26,4,10,6,22,10,26,25,12,20,15,15,10,3,24,12],"right_den":[20,6,20,15,12,20,5,4,22,20,30,10,26,10,20,22,25,15,22,4,5,4,18,30,24,4,15,6,18,15,15,25,30,24,20,10,10,22,6,28,12,24,28,16,10,16,16,20,5,4,9,15,4,10,15,10,2,30,21,30,14,20,3,25,16,10,5,20,30,4,6,12,22,4,16,20,10,24,15,10,16,10,12,6,16,10,12,20,10,15,20,16,20,18,10,28,10,3,20,16,5,27,10,20,10,20,28,30,10,22,15,28,5,22,16,15,28,30,10,5],"correct_side":[1,2,1,1,2,1,1,2,2,1,2,1,2,2,1,2,1,1,2,2,2,2,2,1,2,2,2,1,1,1,1,1,1,2,1,2,2,2,2,1,2,2,1,1,1,1,1,2,2,2,2,1,2,2,2,1,2,2,1,1,1,1,2,1,1,1,2,2,2,2,2,2,2,2,2,1,1,1,2,1,1,2,2,2,2,1,2,1,1,1,1,1,1,1,1,1,2,2,2,2,1,2,2,2,2,1,1,1,1,2,2,1,2,2,1,1,1,2,1,2],"img_shown":["img2/200/Incongruent/L/I_Dist_200_LN_3_LD_4_RN_11_RD_20_0.png","img2/200/Incongruent/R/I_Dist_200_LN_7_LD_15_RN_4_RD_6_1.png","img2/300/Incongruent/L/I_Dist_300_LN_3_LD_6_RN_4_RD_20_0.png","img2/200/Congruent/L/C_Dist_200_LN_4_LD_10_RN_3_RD_15_0.png","img2/100/Congruent/R/C_Dist_100_LN_2_LD_5_RN_6_RD_12_1.png","img2/100/Incongruent/L/I_Dist_100_LN_4_LD_8_RN_8_RD_20_0.png","img2/100/Congruent/L/C_Dist_100_LN_8_LD_16_RN_2_RD_5_0.png","img2/300/Incongruent/R/I_Dist_300_LN_4_LD_20_RN_2_RD_4_1.png","img2/200/Congruent/R/C_Dist_200_LN_6_LD_20_RN_11_RD_22_1.png","img2/300/Incongruent/L/I_Dist_300_LN_3_LD_6_RN_4_RD_20_0.png","img2/300/Congruent/R/C_Dist_300_LN_1_LD_3_RN_19_RD_30_1.png","img2/200/Congruent/L/C_Dist_200_LN_12_LD_15_RN_6_RD_10_0.png","img2/300/Congruent/R/C_Dist_300_LN_4_LD_20_RN_13_RD_26_1.png","img2/200/Incongruent/R/I_Dist_200_LN_9_LD_15_RN_8_RD_10_1.png","img2/100/Incongruent/L/I_Dist_100_LN_2_LD_4_RN_8_RD_20_0.png","img2/100/Congruent/R/C_Dist_100_LN_2_LD_5_RN_11_RD_22_1.png","img2/100/Incongruent/L/I_Dist_100_LN_9_LD_10_RN_20_RD_25_0.png","img2/300/Incongruent/L/I_Dist_300_LN_1_LD_2_RN_3_RD_15_0.png","img2/200/Congruent/R/C_Dist_200_LN_3_LD_10_RN_11_RD_22_1.png","img2/100/Incongruent/R/I_Dist_100_LN_12_LD_30_RN_2_RD_4_1.png","img2/100/Incongruent/R/I_Dist_100_LN_6_LD_12_RN_3_RD_5_1.png","img2/300/Incongruent/R/I_Dist_300_LN_4_LD_20_RN_2_RD_4_1.png","img2/200/Incongruent/R/I_Dist_200_LN_14_LD_30_RN_12_RD_18_1.png","img2/300/Incongruent/L/I_Dist_300_LN_2_LD_4_RN_6_RD_30_0.png","img2/300/Congruent/R/C_Dist_300_LN_1_LD_30_RN_8_RD_24_1.png","img2/300/Incongruent/R/I_Dist_300_LN_4_LD_20_RN_2_RD_4_1.png","img2/300/Incongruent/R/I_Dist_300_LN_13_LD_26_RN_12_RD_15_1.png","img2/200/Congruent/L/C_Dist_200_LN_8_LD_15_RN_2_RD_6_0.png","img2/300/Incongruent/L/I_Dist_300_LN_8_LD_10_RN_9_RD_18_0.png","img2/200/Congruent/L/C_Dist_200_LN_7_LD_21_RN_2_RD_15_0.png","img2/200/Congruent/L/C_Dist_200_LN_7_LD_21_RN_2_RD_15_0.png","img2/100/Congruent/L/C_Dist_100_LN_6_LD_20_RN_5_RD_25_0.png","img2/300/Incongruent/L/I_Dist_300_LN_2_LD_4_RN_6_RD_30_0.png","img2/300/Congruent/R/C_Dist_300_LN_1_LD_30_RN_8_RD_24_1.png","img2/200/Congruent/L/C_Dist_200_LN_16_LD_20_RN_12_RD_20_0.png","img2/100/Congruent/R/C_Dist_100_LN_4_LD_8_RN_6_RD_10_1.png","img2/200/Incongruent/R/I_Dist_200_LN_9_LD_15_RN_8_RD_10_1.png","img2/300/Congruent/R/C_Dist_300_LN_1_LD_5_RN_11_RD_22_1.png","img2/300/Congruent/R/C_Dist_300_LN_1_LD_5_RN_3_RD_6_1.png","img2/200/Incongruent/L/I_Dist_200_LN_7_LD_10_RN_14_RD_28_0.png","img2/100/Congruent/R/C_Dist_100_LN_2_LD_5_RN_6_RD_12_1.png","img2/300/Congruent/R/C_Dist_300_LN_1_LD_30_RN_8_RD_24_1.png","img2/200/Incongruent/L/I_Dist_200_LN_7_LD_10_RN_14_RD_28_0.png","img2/300/Incongruent/L/I_Dist_300_LN_4_LD_5_RN_8_RD_16_0.png","img2/200/Incongruent/L/I_Dist_200_LN_4_LD_5_RN_6_RD_10_0.png","img2/200/Incongruent/L/I_Dist_200_LN_7_LD_10_RN_8_RD_16_0.png","img2/100/Congruent/L/C_Dist_100_LN_9_LD_15_RN_8_RD_16_0.png","img2/200/Congruent/R/C_Dist_200_LN_13_LD_26_RN_14_RD_20_1.png","img2/100/Incongruent/R/I_Dist_100_LN_6_LD_12_RN_3_RD_5_1.png","img2/300/Incongruent/R/I_Dist_300_LN_4_LD_20_RN_2_RD_4_1.png","img2/200/Incongruent/R/I_Dist_200_LN_7_LD_15_RN_6_RD_9_1.png","img2/200/Congruent/L/C_Dist_200_LN_7_LD_21_RN_2_RD_15_0.png","img2/300/Incongruent/R/I_Dist_300_LN_4_LD_20_RN_2_RD_4_1.png","img2/100/Incongruent/R/I_Dist_100_LN_9_LD_18_RN_6_RD_10_1.png","img2/100/Incongruent/R/I_Dist_100_LN_12_LD_24_RN_9_RD_15_1.png","img2/200/Incongruent/L/I_Dist_200_LN_4_LD_5_RN_6_RD_10_0.png","img2/200/Incongruent/R/I_Dist_200_LN_3_LD_10_RN_1_RD_2_1.png","img2/100/Congruent/R/C_Dist_100_LN_4_LD_10_RN_15_RD_30_1.png","img2/200/Congruent/L/C_Dist_200_LN_8_LD_15_RN_7_RD_21_0.png","img2/300/Incongruent/L/I_Dist_300_LN_2_LD_4_RN_6_RD_30_0.png","img2/100/Incongruent/L/I_Dist_100_LN_6_LD_10_RN_7_RD_14_0.png","img2/100/Incongruent/L/I_Dist_100_LN_2_LD_4_RN_8_RD_20_0.png","img2/200/Incongruent/R/I_Dist_200_LN_4_LD_30_RN_1_RD_3_1.png","img2/100/Congruent/L/C_Dist_100_LN_6_LD_20_RN_5_RD_25_0.png","img2/200/Congruent/L/C_Dist_200_LN_9_LD_20_RN_4_RD_16_0.png","img2/300/Congruent/L/C_Dist_300_LN_20_LD_25_RN_5_RD_10_0.png","img2/300/Congruent/R/C_Dist_300_LN_3_LD_6_RN_4_RD_5_1.png","img2/200/Congruent/R/C_Dist_200_LN_3_LD_12_RN_9_RD_20_1.png","img2/100/Congruent/R/C_Dist_100_LN_4_LD_10_RN_15_RD_30_1.png","img2/100/Incongruent/R/I_Dist_100_LN_12_LD_30_RN_2_RD_4_1.png","img2/300/Congruent/R/C_Dist_300_LN_1_LD_5_RN_3_RD_6_1.png","img2/300/Congruent/R/C_Dist_300_LN_8_LD_15_RN_10_RD_12_1.png","img2/200/Congruent/R/C_Dist_200_LN_3_LD_10_RN_11_RD_22_1.png","img2/300/Incongruent/R/I_Dist_300_LN_4_LD_20_RN_2_RD_4_1.png","img2/100/Congruent/R/C_Dist_100_LN_3_LD_20_RN_4_RD_16_1.png","img2/100/Incongruent/L/I_Dist_100_LN_4_LD_8_RN_8_RD_20_0.png","img2/300/Congruent/L/C_Dist_300_LN_4_LD_10_RN_1_RD_10_0.png","img2/200/Incongruent/L/I_Dist_200_LN_7_LD_10_RN_12_RD_24_0.png","img2/100/Congruent/R/C_Dist_100_LN_7_LD_14_RN_9_RD_15_1.png","img2/100/Congruent/L/C_Dist_100_LN_10_LD_25_RN_3_RD_10_0.png","img2/300/Incongruent/L/I_Dist_300_LN_4_LD_5_RN_8_RD_16_0.png","img2/100/Congruent/R/C_Dist_100_LN_4_LD_8_RN_6_RD_10_1.png","img2/100/Congruent/R/C_Dist_100_LN_2_LD_5_RN_6_RD_12_1.png","img2/200/Incongruent/R/I_Dist_200_LN_7_LD_15_RN_4_RD_6_1.png","img2/100/Incongruent/R/I_Dist_100_LN_10_LD_25_RN_8_RD_16_1.png","img2/300/Congruent/L/C_Dist_300_LN_4_LD_10_RN_1_RD_10_0.png","img2/300/Congruent/R/C_Dist_300_LN_8_LD_15_RN_10_RD_12_1.png","img2/100/Incongruent/L/I_Dist_100_LN_4_LD_8_RN_8_RD_20_0.png","img2/300/Incongruent/L/I_Dist_300_LN_1_LD_2_RN_2_RD_10_0.png","img2/100/Congruent/L/C_Dist_100_LN_11_LD_22_RN_6_RD_15_0.png","img2/100/Incongruent/L/I_Dist_100_LN_2_LD_4_RN_8_RD_20_0.png","img2/200/Congruent/L/C_Dist_200_LN_9_LD_20_RN_4_RD_16_0.png","img2/100/Incongruent/L/I_Dist_100_LN_1_LD_2_RN_8_RD_20_0.png","img2/300/Incongruent/L/I_Dist_300_LN_8_LD_10_RN_9_RD_18_0.png","img2/300/Congruent/L/C_Dist_300_LN_11_LD_22_RN_2_RD_10_0.png","img2/200/Incongruent/L/I_Dist_200_LN_7_LD_10_RN_14_RD_28_0.png","img2/100/Congruent/R/C_Dist_100_LN_4_LD_8_RN_6_RD_10_1.png","img2/200/Incongruent/R/I_Dist_200_LN_4_LD_30_RN_1_RD_3_1.png","img2/200/Congruent/R/C_Dist_200_LN_3_LD_6_RN_14_RD_20_1.png","img2/100/Congruent/R/C_Dist_100_LN_3_LD_20_RN_4_RD_16_1.png","img2/100/Congruent/L/C_Dist_100_LN_8_LD_16_RN_2_RD_5_0.png","img2/200/Congruent/R/C_Dist_200_LN_7_LD_15_RN_18_RD_27_1.png","img2/200/Incongruent/R/I_Dist_200_LN_9_LD_15_RN_8_RD_10_1.png","img2/300/Congruent/R/C_Dist_300_LN_3_LD_12_RN_11_RD_20_1.png","img2/100/Incongruent/R/I_Dist_100_LN_13_LD_26_RN_6_RD_10_1.png","img2/100/Incongruent/L/I_Dist_100_LN_2_LD_4_RN_8_RD_20_0.png","img2/300/Incongruent/L/I_Dist_300_LN_8_LD_10_RN_14_RD_28_0.png","img2/200/Incongruent/L/I_Dist_200_LN_4_LD_6_RN_14_RD_30_0.png","img2/300/Congruent/L/C_Dist_300_LN_11_LD_22_RN_2_RD_10_0.png","img2/200/Congruent/R/C_Dist_200_LN_3_LD_10_RN_11_RD_22_1.png","img2/300/Incongruent/R/I_Dist_300_LN_13_LD_26_RN_12_RD_15_1.png","img2/300/Congruent/L/C_Dist_300_LN_20_LD_25_RN_14_RD_28_0.png","img2/100/Incongruent/R/I_Dist_100_LN_6_LD_12_RN_3_RD_5_1.png","img2/200/Congruent/R/C_Dist_200_LN_6_LD_20_RN_11_RD_22_1.png","img2/100/Congruent/L/C_Dist_100_LN_9_LD_15_RN_8_RD_16_0.png","img2/200/Congruent/L/C_Dist_200_LN_6_LD_15_RN_3_RD_15_0.png","img2/200/Incongruent/L/I_Dist_200_LN_7_LD_10_RN_14_RD_28_0.png","img2/300/Congruent/R/C_Dist_300_LN_1_LD_3_RN_19_RD_30_1.png","img2/300/Congruent/L/C_Dist_300_LN_12_LD_24_RN_2_RD_10_0.png","img2/100/Incongruent/R/I_Dist_100_LN_6_LD_12_RN_3_RD_5_1.png"],"dist100_C":[["C_Dist_100_LN_10_LD_25_RN_3_RD_10_0.png","C_Dist_100_LN_11_LD_22_RN_4_RD_10_0.png","C_Dist_100_LN_11_LD_22_RN_6_RD_15_0.png","C_Dist_100_LN_15_LD_25_RN_13_RD_26_0.png","C_Dist_100_LN_3_LD_6_RN_2_RD_5_0.png","C_Dist_100_LN_6_LD_20_RN_5_RD_25_0.png","C_Dist_100_LN_8_LD_16_RN_2_RD_5_0.png","C_Dist_100_LN_9_LD_15_RN_8_RD_16_0.png"],["C_Dist_100_LN_1_LD_2_RN_18_RD_30_1.png","C_Dist_100_LN_1_LD_2_RN_3_RD_5_1.png","C_Dist_100_LN_12_LD_30_RN_13_RD_26_1.png","C_Dist_100_LN_2_LD_5_RN_11_RD_22_1.png","C_Dist_100_LN_2_LD_5_RN_6_RD_12_1.png","C_Dist_100_LN_3_LD_20_RN_4_RD_16_1.png","C_Dist_100_LN_4_LD_10_RN_15_RD_30_1.png","C_Dist_100_LN_4_LD_8_RN_6_RD_10_1.png","C_Dist_100_LN_6_LD_12_RN_15_RD_25_1.png","C_Dist_100_LN_7_LD_14_RN_15_RD_25_1.png","C_Dist_100_LN_7_LD_14_RN_9_RD_15_1.png"]],"dist100_I":[["I_Dist_100_LN_1_LD_2_RN_8_RD_20_0.png","I_Dist_100_LN_2_LD_4_RN_6_RD_15_0.png","I_Dist_100_LN_2_LD_4_RN_8_RD_20_0.png","I_Dist_100_LN_3_LD_5_RN_11_RD_22_0.png","I_Dist_100_LN_3_LD_5_RN_8_RD_16_0.png","I_Dist_100_LN_3_LD_6_RN_4_RD_10_0.png","I_Dist_100_LN_3_LD_9_RN_7_RD_30_0.png","I_Dist_100_LN_4_LD_8_RN_8_RD_20_0.png","I_Dist_100_LN_6_LD_10_RN_11_RD_22_0.png","I_Dist_100_LN_6_LD_10_RN_13_RD_26_0.png","I_Dist_100_LN_6_LD_10_RN_7_RD_14_0.png","I_Dist_100_LN_9_LD_10_RN_20_RD_25_0.png","I_Dist_100_LN_9_LD_15_RN_13_RD_26_0.png","I_Dist_100_LN_9_LD_15_RN_14_RD_28_0.png"],["I_Dist_100_LN_10_LD_25_RN_8_RD_16_1.png","I_Dist_100_LN_10_LD_25_RN_9_RD_18_1.png","I_Dist_100_LN_11_LD_22_RN_9_RD_15_1.png","I_Dist_100_LN_12_LD_24_RN_9_RD_15_1.png","I_Dist_100_LN_12_LD_30_RN_2_RD_4_1.png","I_Dist_100_LN_13_LD_26_RN_12_RD_20_1.png","I_Dist_100_LN_13_LD_26_RN_6_RD_10_1.png","I_Dist_100_LN_17_LD_30_RN_10_RD_15_1.png","I_Dist_100_LN_6_LD_12_RN_3_RD_5_1.png","I_Dist_100_LN_8_LD_16_RN_6_RD_10_1.png","I_Dist_100_LN_8_LD_20_RN_1_RD_2_1.png","I_Dist_100_LN_9_LD_18_RN_6_RD_10_1.png"]],"dist100_S":[["E_Dist_100_LN_2_LD_12_RN_2_RD_30_0.png","E_Dist_100_LN_6_LD_10_RN_6_RD_12_0.png"],["E_Dist_100_LN_6_LD_12_RN_6_RD_10_1.png"]],"dist200_C":[["C_Dist_200_LN_11_LD_22_RN_3_RD_10_0.png","C_Dist_200_LN_12_LD_15_RN_6_RD_10_0.png","C_Dist_200_LN_12_LD_20_RN_6_RD_15_0.png","C_Dist_200_LN_14_LD_28_RN_6_RD_20_0.png","C_Dist_200_LN_15_LD_25_RN_4_RD_10_0.png","C_Dist_200_LN_16_LD_20_RN_12_RD_20_0.png","C_Dist_200_LN_16_LD_30_RN_9_RD_27_0.png","C_Dist_200_LN_20_LD_25_RN_9_RD_15_0.png","C_Dist_200_LN_21_LD_30_RN_2_RD_4_0.png","C_Dist_200_LN_4_LD_10_RN_3_RD_15_0.png","C_Dist_200_LN_4_LD_8_RN_3_RD_10_0.png","C_Dist_200_LN_6_LD_15_RN_3_RD_15_0.png","C_Dist_200_LN_7_LD_21_RN_2_RD_15_0.png","C_Dist_200_LN_8_LD_15_RN_2_RD_6_0.png","C_Dist_200_LN_8_LD_15_RN_3_RD_9_0.png","C_Dist_200_LN_8_LD_15_RN_7_RD_21_0.png","C_Dist_200_LN_9_LD_20_RN_4_RD_16_0.png"],["C_Dist_200_LN_1_LD_2_RN_21_RD_30_1.png","C_Dist_200_LN_13_LD_26_RN_14_RD_20_1.png","C_Dist_200_LN_3_LD_10_RN_11_RD_22_1.png","C_Dist_200_LN_3_LD_10_RN_14_RD_28_1.png","C_Dist_200_LN_3_LD_10_RN_7_RD_14_1.png","C_Dist_200_LN_3_LD_12_RN_9_RD_20_1.png","C_Dist_200_LN_3_LD_6_RN_14_RD_20_1.png","C_Dist_200_LN_5_LD_10_RN_14_RD_20_1.png","C_Dist_200_LN_6_LD_12_RN_7_RD_10_1.png","C_Dist_200_LN_6_LD_20_RN_11_RD_22_1.png","C_Dist_200_LN_7_LD_15_RN_18_RD_27_1.png","C_Dist_200_LN_9_LD_30_RN_13_RD_26_1.png"]],"dist200_I":[["I_Dist_200_LN_1_LD_2_RN_3_RD_10_0.png","I_Dist_200_LN_1_LD_3_RN_2_RD_15_0.png","I_Dist_200_LN_3_LD_4_RN_11_RD_20_0.png","I_Dist_200_LN_4_LD_5_RN_6_RD_10_0.png","I_Dist_200_LN_4_LD_6_RN_14_RD_30_0.png","I_Dist_200_LN_7_LD_10_RN_12_RD_24_0.png","I_Dist_200_LN_7_LD_10_RN_14_RD_28_0.png","I_Dist_200_LN_7_LD_10_RN_8_RD_16_0.png"],["I_Dist_200_LN_11_LD_20_RN_3_RD_4_1.png","I_Dist_200_LN_14_LD_30_RN_12_RD_18_1.png","I_Dist_200_LN_14_LD_30_RN_6_RD_9_1.png","I_Dist_200_LN_3_LD_10_RN_1_RD_2_1.png","I_Dist_200_LN_4_LD_30_RN_1_RD_3_1.png","I_Dist_200_LN_6_LD_20_RN_3_RD_6_1.png","I_Dist_200_LN_7_LD_15_RN_4_RD_6_1.png","I_Dist_200_LN_7_LD_15_RN_6_RD_9_1.png","I_Dist_200_LN_9_LD_15_RN_8_RD_10_1.png"]],"dist200_S":[["E_Dist_200_LN_3_LD_6_RN_3_RD_10_0.png"],["E_Dist_200_LN_3_LD_10_RN_3_RD_6_1.png"]],"dist300_C":[["C_Dist_300_LN_11_LD_22_RN_1_RD_5_0.png","C_Dist_300_LN_11_LD_22_RN_2_RD_10_0.png","C_Dist_300_LN_11_LD_22_RN_4_RD_20_0.png","C_Dist_300_LN_12_LD_24_RN_2_RD_10_0.png","C_Dist_300_LN_18_LD_20_RN_9_RD_15_0.png","C_Dist_300_LN_20_LD_25_RN_13_RD_26_0.png","C_Dist_300_LN_20_LD_25_RN_14_RD_28_0.png","C_Dist_300_LN_20_LD_25_RN_5_RD_10_0.png","C_Dist_300_LN_20_LD_25_RN_8_RD_16_0.png","C_Dist_300_LN_20_LD_25_RN_9_RD_18_0.png","C_Dist_300_LN_24_LD_30_RN_2_RD_4_0.png","C_Dist_300_LN_24_LD_30_RN_8_RD_16_0.png","C_Dist_300_LN_3_LD_6_RN_2_RD_10_0.png","C_Dist_300_LN_4_LD_10_RN_1_RD_10_0.png","C_Dist_300_LN_4_LD_5_RN_2_RD_4_0.png","C_Dist_300_LN_8_LD_16_RN_1_RD_5_0.png","C_Dist_300_LN_9_LD_10_RN_3_RD_5_0.png"],["C_Dist_300_LN_1_LD_20_RN_7_RD_20_1.png","C_Dist_300_LN_1_LD_3_RN_19_RD_30_1.png","C_Dist_300_LN_1_LD_30_RN_8_RD_24_1.png","C_Dist_300_LN_1_LD_5_RN_11_RD_22_1.png","C_Dist_300_LN_1_LD_5_RN_3_RD_6_1.png","C_Dist_300_LN_1_LD_5_RN_6_RD_12_1.png","C_Dist_300_LN_2_LD_10_RN_12_RD_24_1.png","C_Dist_300_LN_2_LD_20_RN_10_RD_25_1.png","C_Dist_300_LN_3_LD_12_RN_11_RD_20_1.png","C_Dist_300_LN_3_LD_6_RN_4_RD_5_1.png","C_Dist_300_LN_4_LD_20_RN_13_RD_26_1.png","C_Dist_300_LN_5_LD_25_RN_6_RD_12_1.png","C_Dist_300_LN_5_LD_25_RN_7_RD_14_1.png","C_Dist_300_LN_7_LD_14_RN_20_RD_25_1.png","C_Dist_300_LN_8_LD_15_RN_10_RD_12_1.png"]],"dist300_I":[["I_Dist_300_LN_1_LD_2_RN_2_RD_10_0.png","I_Dist_300_LN_1_LD_2_RN_3_RD_15_0.png","I_Dist_300_LN_2_LD_4_RN_6_RD_30_0.png","I_Dist_300_LN_3_LD_6_RN_4_RD_20_0.png","I_Dist_300_LN_4_LD_5_RN_6_RD_12_0.png","I_Dist_300_LN_4_LD_5_RN_8_RD_16_0.png","I_Dist_300_LN_7_LD_10_RN_8_RD_20_0.png","I_Dist_300_LN_8_LD_10_RN_14_RD_28_0.png","I_Dist_300_LN_8_LD_10_RN_9_RD_18_0.png"],["I_Dist_300_LN_13_LD_26_RN_12_RD_15_1.png","I_Dist_300_LN_4_LD_20_RN_2_RD_4_1.png"]],"dist300_S":[["E_Dist_300_LN_9_LD_12_RN_9_RD_20_0.png"],["E_Dist_300_LN_18_LD_30_RN_18_RD_20_1.png","E_Dist_300_LN_3_LD_10_RN_3_RD_5_1.png","E_Dist_300_LN_9_LD_20_RN_9_RD_12_1.png"]],"dist500_C":[["C_Dist_500_LN_10_LD_13_RN_7_RD_26_0.png","C_Dist_500_LN_10_LD_15_RN_4_RD_24_0.png","C_Dist_500_LN_12_LD_16_RN_3_RD_12_0.png","C_Dist_500_LN_12_LD_18_RN_4_RD_24_0.png","C_Dist_500_LN_15_LD_18_RN_5_RD_15_0.png","C_Dist_500_LN_15_LD_20_RN_1_RD_4_0.png","C_Dist_500_LN_18_LD_27_RN_1_RD_6_0.png","C_Dist_500_LN_20_LD_24_RN_1_RD_3_0.png","C_Dist_500_LN_20_LD_24_RN_3_RD_9_0.png","C_Dist_500_LN_20_LD_24_RN_7_RD_21_0.png","C_Dist_500_LN_20_LD_28_RN_3_RD_14_0.png","C_Dist_500_LN_21_LD_28_RN_6_RD_24_0.png","C_Dist_500_LN_22_LD_28_RN_2_RD_7_0.png","C_Dist_500_LN_25_LD_30_RN_9_RD_27_0.png","C_Dist_500_LN_4_LD_6_RN_1_RD_6_0.png","C_Dist_500_LN_5_LD_6_RN_2_RD_6_0.png","C_Dist_500_LN_6_LD_9_RN_1_RD_6_0.png","C_Dist_500_LN_7_LD_10_RN_1_RD_5_0.png","C_Dist_500_LN_8_LD_12_RN_1_RD_6_0.png","C_Dist_500_LN_8_LD_12_RN_4_RD_24_0.png"],["C_Dist_500_LN_1_LD_4_RN_12_RD_16_1.png","C_Dist_500_LN_1_LD_4_RN_9_RD_12_1.png","C_Dist_500_LN_1_LD_9_RN_11_RD_18_1.png","C_Dist_500_LN_10_LD_24_RN_22_RD_24_1.png","C_Dist_500_LN_2_LD_12_RN_10_RD_15_1.png","C_Dist_500_LN_2_LD_12_RN_12_RD_18_1.png","C_Dist_500_LN_2_LD_12_RN_4_RD_6_1.png","C_Dist_500_LN_2_LD_24_RN_7_RD_12_1.png","C_Dist_500_LN_2_LD_5_RN_18_RD_20_1.png","C_Dist_500_LN_2_LD_5_RN_9_RD_10_1.png","C_Dist_500_LN_2_LD_8_RN_12_RD_16_1.png","C_Dist_500_LN_2_LD_8_RN_21_RD_28_1.png","C_Dist_500_LN_3_LD_10_RN_4_RD_5_1.png","C_Dist_500_LN_3_LD_12_RN_15_RD_20_1.png","C_Dist_500_LN_3_LD_30_RN_6_RD_10_1.png","C_Dist_500_LN_3_LD_8_RN_14_RD_16_1.png","C_Dist_500_LN_4_LD_16_RN_15_RD_20_1.png","C_Dist_500_LN_4_LD_24_RN_12_RD_18_1.png","C_Dist_500_LN_5_LD_14_RN_6_RD_7_1.png","C_Dist_500_LN_7_LD_21_RN_20_RD_24_1.png","C_Dist_500_LN_7_LD_28_RN_12_RD_16_1.png","C_Dist_500_LN_7_LD_28_RN_9_RD_12_1.png","C_Dist_500_LN_9_LD_27_RN_20_RD_24_1.png"]],"dist500_I":[["I_Dist_500_LN_2_LD_3_RN_4_RD_24_0.png","I_Dist_500_LN_5_LD_6_RN_6_RD_18_0.png","I_Dist_500_LN_7_LD_8_RN_9_RD_24_0.png"],["I_Dist_500_LN_7_LD_21_RN_5_RD_6_1.png"]],"dist500_S":[["E_Dist_500_LN_6_LD_8_RN_6_RD_24_0.png"],["E_Dist_500_LN_2_LD_12_RN_2_RD_3_1.png","E_Dist_500_LN_6_LD_24_RN_6_RD_8_1.png"]]}},{"start_time":1552327303851,"click_time":1552327305808,"finger_time":1552327304608,"fix_duration":1483.4486048036645,"trial":1,"RT":757,"MT":1200,"sideResp":2,"stimulus":[],"xmouse":[760,760,760,760,760,760,760,760,760,760,760,760,760,760,760,760,760,760,760,760,760,760,760,760,760,760,760,760,760,760,760,760,760,760,760,760,759,714,632,538,450,380,379,379,379,379,379,379,379,380,381,382,383,385,387,387,387,387,387,387,387,388,391,393,393,393,393,393,393,393,394,394,439,473,497,508,511,513,519,525,536,545,579,615,671,756,913,966,991,1004,1012,1015,1018,1023,1044,1084,1125,1157],"ymouse":[491,491,491,491,491,491,491,491,491,491,491,491,491,491,491,491,491,491,491,491,491,491,491,491,491,491,491,491,491,491,491,491,491,491,491,491,490,435,356,276,199,123,115,113,113,113,113,113,112,108,106,103,101,95,88,83,77,75,75,75,75,74,74,74,74,74,74,74,74,74,74,74,157,204,233,245,247,249,253,256,260,260,252,244,231,219,197,188,179,172,164,161,158,153,143,128,110,85],"timestamp_mouse":[16,38,57,75,96,117,136,155,176,196,217,236,255,276,297,316,336,355,376,396,417,436,456,475,497,515,536,555,577,597,616,636,656,677,697,715,735,757,776,795,815,838,856,875,896,916,937,957,976,995,1016,1036,1056,1076,1096,1116,1136,1156,1175,1196,1215,1237,1255,1276,1296,1315,1336,1355,1376,1395,1415,1436,1456,1477,1496,1516,1537,1555,1576,1595,1615,1636,1655,1676,1697,1716,1737,1756,1775,1796,1816,1836,1855,1875,1896,1916,1936,1956],"xSR":741.5,"ySR":469.95,"xT1":424.9,"yT1":0,"xT2":1058.1,"yT2":0,"toosoon":0,"cond_shown":"Incongruent","ratio_trial":200,"L_num":7,"L_den":15,"R_num":4,"R_den":6,"correct_side":2,"subjID":"RafaelDavidJimenezNomesque21","gender":"0","school":"4","age":"10"},{"start_time":1552327308741,"click_time":1552327310707,"finger_time":1552327310306,"fix_duration":472.60421900023175,"trial":2,"RT":1565,"MT":401,"sideResp":1,"stimulus":[],"xmouse":[805,805,805,805,805,805,805,805,805,805,805,805,805,805,805,805,805,805,805,805,805,805,805,805,805,805,805,805,805,805,805,805,805,805,805,805,805,805,805,805,805,805,805,805,805,805,805,805,805,805,805,805,805,805,805,805,805,805,805,805,805,805,805,805,805,805,805,805,805,805,805,805,805,805,805,805,805,805,804,790,762,715,669,618,611,610,610,610,610,610,608,601,594,588,586,578,571,543,501],"ymouse":[503,503,503,503,503,503,503,503,503,503,503,503,503,503,503,503,503,503,503,503,503,503,503,503,503,503,503,503,503,503,503,503,503,503,503,503,503,503,503,503,503,503,503,503,503,503,503,503,503,503,503,503,503,503,503,503,503,503,503,503,503,503,503,503,503,503,503,503,503,503,503,503,503,503,503,503,503,503,469,406,341,251,171,65,43,34,34,34,34,34,33,34,35,38,40,45,50,57,70],"timestamp_mouse":[26,28,47,67,86,106,127,146,165,187,205,226,245,265,286,305,326,345,366,386,406,426,445,466,486,505,525,546,565,586,606,626,646,665,686,706,727,746,765,786,805,826,845,867,885,907,926,946,965,985,1006,1027,1046,1065,1085,1105,1127,1146,1166,1185,1206,1225,1245,1265,1286,1305,1327,1346,1365,1385,1406,1427,1446,1465,1487,1506,1526,1547,1565,1586,1605,1626,1646,1666,1686,1707,1725,1746,1765,1786,1806,1826,1846,1867,1885,1905,1925,1945,1966],"xSR":741.5,"ySR":469.95,"xT1":424.9,"yT1":0,"xT2":1058.1,"yT2":0,"toosoon":0,"cond_shown":"Incongruent","ratio_trial":300,"L_num":3,"L_den":6,"R_num":4,"R_den":20,"correct_side":1,"subjID":"RafaelDavidJimenezNomesque21","gender":"0","school":"4","age":"10"},{"start_time":1552327313392,"click_time":1552327315067,"finger_time":1552327314766,"fix_duration":1083.0772668324705,"trial":3,"RT":1374,"MT":301,"sideResp":1,"stimulus":[],"xmouse":[779,779,779,779,779,779,779,779,779,779,779,779,779,779,779,779,779,779,779,779,779,779,779,779,779,779,779,779,779,779,779,779,779,779,779,779,779,779,779,779,779,779,779,779,779,779,779,779,779,779,779,779,779,779,779,779,779,779,779,779,779,779,779,779,779,780,782,782,777,769,760,737,726,717,705,674,656,634,608,577,511,472,453,443],"ymouse":[505,505,505,505,505,505,505,505,505,505,505,505,505,505,505,505,505,505,505,505,505,505,505,505,505,505,505,505,505,505,505,505,505,505,505,505,505,505,505,505,505,505,505,505,505,505,505,505,505,505,505,505,505,505,505,505,505,505,505,505,505,505,505,505,505,504,490,479,466,453,438,399,381,365,348,310,290,268,246,225,174,133,107,90],"timestamp_mouse":[15,37,55,75,96,116,135,156,176,195,216,234,254,276,296,315,336,354,375,394,416,435,455,475,496,514,534,555,575,595,615,636,655,674,696,714,735,754,776,796,814,834,855,876,895,916,934,954,976,994,1014,1034,1055,1076,1095,1114,1135,1154,1176,1195,1215,1235,1254,1275,1296,1316,1336,1355,1374,1394,1415,1435,1454,1474,1494,1516,1535,1554,1575,1596,1617,1634,1654,1674],"xSR":741.5,"ySR":469.95,"xT1":424.9,"yT1":0,"xT2":1058.1,"yT2":0,"toosoon":0,"cond_shown":"Congruent","ratio_trial":200,"L_num":4,"L_den":10,"R_num":3,"R_den":15,"correct_side":1,"subjID":"RafaelDavidJimenezNomesque21","gender":"0","school":"4","age":"10"},{"start_time":1552327318211,"click_time":1552327319968,"finger_time":1552327319547,"fix_duration":1003.8543216452143,"trial":4,"RT":1336,"MT":421,"sideResp":2,"stimulus":[],"xmouse":[795,795,795,795,795,795,795,795,795,795,795,795,795,795,795,795,795,795,795,795,795,795,795,795,795,795,795,795,795,795,795,795,795,795,795,795,795,795,795,795,795,795,795,795,795,795,795,795,795,795,795,799,804,809,813,816,816,816,816,816,816,816,816,816,817,829,848,876,900,947,1025,1065,1095,1112,1117,1119,1119,1119,1119,1119,1119,1118,1118,1118,1118,1118,1118,1118],"ymouse":[497,497,497,497,497,497,497,497,497,497,497,497,497,497,497,497,497,497,497,497,497,497,497,497,497,497,497,497,497,497,497,497,497,497,497,497,497,497,497,497,497,497,497,497,497,497,497,497,497,497,497,497,494,491,489,487,487,487,487,487,487,487,487,487,487,474,458,436,415,375,309,268,221,183,163,145,144,144,141,131,113,110,109,109,109,109,106,87],"timestamp_mouse":[15,44,57,75,96,115,135,155,175,196,216,237,256,276,296,315,336,355,376,395,415,435,455,476,497,516,536,555,575,596,616,636,656,677,697,715,737,757,777,796,815,837,855,877,895,915,936,955,976,995,1017,1036,1057,1076,1097,1115,1136,1157,1175,1196,1216,1237,1255,1276,1295,1316,1336,1355,1376,1396,1416,1435,1456,1477,1496,1517,1535,1555,1576,1596,1616,1635,1656,1675,1695,1716,1736,1757],"xSR":741.5,"ySR":469.95,"xT1":424.9,"yT1":0,"xT2":1058.1,"yT2":0,"toosoon":0,"cond_shown":"Congruent","ratio_trial":100,"L_num":2,"L_den":5,"R_num":6,"R_den":12,"correct_side":2,"subjID":"RafaelDavidJimenezNomesque21","gender":"0","school":"4","age":"10"},{"start_time":1552327321419,"click_time":1552327323088,"finger_time":1552327322767,"fix_duration":250,"trial":5,"RT":1348,"MT":321,"sideResp":2,"stimulus":[],"xmouse":[809,809,809,809,809,809,809,809,809,809,809,809,809,809,809,809,809,809,809,809,809,809,809,809,809,809,809,809,809,809,809,809,809,809,809,809,809,809,809,809,809,809,809,809,809,809,809,809,809,809,809,809,809,809,809,809,809,809,809,811,812,815,815,815,817,819,828,845,858,873,905,924,948,981,1031,1081,1139,1154,1159,1161,1162,1162,1161,1158],"ymouse":[488,488,488,488,488,488,488,488,488,488,488,488,488,488,488,488,488,488,488,488,488,488,488,488,488,488,488,488,488,488,488,488,488,488,488,488,488,488,488,488,488,488,488,488,488,488,488,488,488,488,488,488,488,488,488,488,488,488,488,488,488,486,486,486,485,483,478,468,457,446,418,402,382,358,322,284,218,182,162,147,138,116,105,95],"timestamp_mouse":[10,39,48,68,87,109,128,147,168,189,208,228,247,268,289,309,328,348,369,389,408,428,448,468,489,509,528,548,567,587,608,629,648,669,689,709,728,747,768,788,809,828,848,868,887,909,929,947,968,989,1007,1028,1048,1069,1087,1107,1128,1148,1167,1188,1208,1229,1248,1269,1288,1308,1327,1348,1368,1388,1409,1427,1448,1467,1487,1508,1528,1548,1568,1588,1607,1628,1648,1669],"xSR":741.5,"ySR":469.95,"xT1":424.9,"yT1":0,"xT2":1058.1,"yT2":0,"toosoon":0,"cond_shown":"Incongruent","ratio_trial":100,"L_num":4,"L_den":8,"R_num":8,"R_den":20,"correct_side":1,"subjID":"RafaelDavidJimenezNomesque21","gender":"0","school":"4","age":"10"},{"start_time":1552327325559,"click_time":1552327326607,"finger_time":1552327326347,"fix_duration":1171.9235317780417,"trial":6,"RT":788,"MT":260,"sideResp":1,"stimulus":[],"xmouse":[784,784,784,784,784,784,784,784,784,784,784,784,784,784,784,784,784,784,784,784,784,784,784,784,784,784,784,784,784,784,784,784,784,784,784,784,784,784,788,795,795,794,792,790,774,752,722,686,635,570,546,526,509],"ymouse":[497,497,497,497,497,497,497,497,497,497,497,497,497,497,497,497,497,497,497,497,497,497,497,497,497,497,497,497,497,497,497,497,497,497,497,497,497,496,491,461,450,440,433,426,394,365,325,285,229,143,98,64,30],"timestamp_mouse":[21,46,47,69,88,108,128,148,167,187,207,229,247,267,287,307,329,348,368,387,408,428,449,468,487,508,529,548,568,587,609,627,648,668,689,709,729,748,767,788,807,828,848,868,887,909,928,948,969,988,1007,1029,1048],"xSR":741.5,"ySR":469.95,"xT1":424.9,"yT1":0,"xT2":1058.1,"yT2":0,"toosoon":0,"cond_shown":"Congruent","ratio_trial":100,"L_num":8,"L_den":16,"R_num":2,"R_den":5,"correct_side":1,"subjID":"RafaelDavidJimenezNomesque21","gender":"0","school":"4","age":"10"},{"start_time":1552327328937,"click_time":1552327330688,"finger_time":1552327329848,"fix_duration":849.1743789867071,"trial":7,"RT":911,"MT":840,"sideResp":2,"stimulus":[],"xmouse":[799,799,799,799,799,799,799,799,799,799,799,799,799,799,799,799,799,799,799,799,799,799,799,799,799,799,799,799,799,799,799,799,799,799,799,799,799,799,799,799,799,799,799,799,799,792,778,771,768,768,768,768,768,768,768,768,768,768,768,768,768,768,767,766,765,765,764,765,775,785,795,819,840,855,865,891,936,969,992,1010,1023,1039,1046,1052,1061,1079,1092,1095],"ymouse":[480,480,480,480,480,480,480,480,480,480,480,480,480,480,480,480,480,480,480,480,480,480,480,480,480,480,480,480,480,480,480,480,480,480,480,480,480,480,480,480,480,480,480,480,480,463,439,427,422,422,422,422,422,422,422,422,422,422,422,422,422,422,422,423,424,424,430,440,450,455,455,439,419,397,378,341,294,260,229,204,181,151,142,136,131,119,107,95],"timestamp_mouse":[13,41,50,69,89,110,130,151,170,191,210,229,249,271,290,309,330,349,371,390,411,429,449,471,491,510,529,551,570,589,610,630,651,669,689,710,730,750,770,791,810,830,850,871,890,911,929,951,971,989,1011,1030,1050,1069,1091,1111,1131,1150,1170,1190,1210,1229,1249,1270,1290,1310,1331,1351,1370,1391,1410,1430,1449,1471,1490,1512,1530,1550,1571,1591,1610,1631,1650,1669,1689,1711,1729,1750],"xSR":741.5,"ySR":469.95,"xT1":424.9,"yT1":0,"xT2":1058.1,"yT2":0,"toosoon":0,"cond_shown":"Incongruent","ratio_trial":300,"L_num":4,"L_den":20,"R_num":2,"R_den":4,"correct_side":2,"subjID":"RafaelDavidJimenezNomesque21","gender":"0","school":"4","age":"10"},{"start_time":1552327334247,"click_time":1552327336368,"finger_time":1552327335886,"fix_duration":1457.1480678306305,"trial":8,"RT":1639,"MT":482,"sideResp":1,"stimulus":[],"xmouse":[789,789,789,789,789,789,789,789,789,789,789,789,789,789,790,791,791,791,791,791,791,791,791,791,791,791,791,791,791,791,791,791,791,791,791,791,791,791,791,791,791,791,791,791,791,791,791,791,791,791,791,791,791,791,791,791,791,791,791,791,791,791,791,791,791,791,791,791,791,791,791,791,791,791,791,791,791,792,792,792,792,764,709,623,532,462,403,399,399,399,399,399,399,400,408,414,434,439,443,446,450,452,454,457,459,460,461],"ymouse":[525,525,525,525,525,525,525,525,525,525,525,525,525,525,525,525,525,525,525,525,525,525,525,525,525,525,525,525,525,525,525,525,525,525,525,525,525,525,525,525,525,525,525,525,525,525,525,525,525,525,525,525,525,525,525,525,525,525,525,525,525,525,525,525,525,525,525,525,525,525,525,525,525,525,525,525,525,525,525,525,519,482,443,392,335,289,243,239,239,239,239,239,238,233,223,214,189,181,172,164,154,147,141,130,116,100,74],"timestamp_mouse":[2,35,40,64,80,101,119,139,160,181,200,220,239,259,281,300,319,339,361,381,399,421,440,460,480,500,521,540,560,580,600,620,641,659,681,699,719,741,760,779,801,819,841,860,881,899,919,941,961,979,1000,1020,1040,1060,1080,1099,1119,1140,1159,1179,1201,1220,1240,1260,1280,1300,1320,1341,1359,1380,1399,1419,1440,1461,1479,1501,1520,1540,1561,1579,1599,1620,1639,1660,1680,1701,1720,1740,1760,1779,1799,1820,1840,1861,1881,1900,1920,1941,1959,1980,1999,2020,2041,2060,2079,2100,2120],"xSR":741.5,"ySR":469.95,"xT1":424.9,"yT1":0,"xT2":1058.1,"yT2":0,"toosoon":0,"cond_shown":"Congruent","ratio_trial":200,"L_num":6,"L_den":20,"R_num":11,"R_den":22,"correct_side":2,"subjID":"RafaelDavidJimenezNomesque21","gender":"0","school":"4","age":"10"},{"start_time":1552327340992,"click_time":1552327343387,"finger_time":1552327343027,"fix_duration":803.8067048204416,"trial":9,"RT":2035,"MT":360,"sideResp":1,"stimulus":[],"xmouse":[782,782,782,782,782,782,782,782,782,782,782,782,782,782,782,782,782,782,782,782,782,782,782,782,782,782,782,782,782,782,782,782,782,782,782,782,782,782,782,782,782,782,782,782,782,782,782,782,782,782,782,782,782,782,782,782,782,782,782,782,782,782,782,782,782,782,782,782,782,782,782,782,782,782,782,785,789,796,799,805,806,806,806,806,806,806,806,806,806,806,806,806,806,806,806,806,806,806,806,806,806,800,788,754,663,619,587,568,550,543,542,542,541,541,539,535,533,528,521,492],"ymouse":[503,503,503,503,503,503,503,503,503,503,503,503,503,503,503,503,503,503,503,503,503,503,503,503,503,503,503,503,503,503,503,503,503,503,503,503,503,503,503,503,503,503,503,503,503,503,503,503,503,503,503,503,503,503,503,503,503,503,503,503,503,503,503,503,503,503,503,503,503,503,503,503,503,503,503,500,497,488,485,473,471,471,471,471,471,471,471,471,471,471,471,471,471,471,471,471,471,471,471,471,471,461,449,422,337,288,255,227,199,184,183,182,181,180,172,166,157,144,129,88],"timestamp_mouse":[14,37,54,75,95,116,135,155,175,196,214,234,256,276,295,315,334,354,375,395,416,435,456,475,496,515,535,554,576,596,614,636,655,676,694,716,735,754,776,794,816,835,854,876,894,915,936,954,975,994,1016,1035,1056,1074,1094,1116,1136,1155,1176,1196,1215,1234,1255,1275,1296,1315,1335,1354,1376,1394,1414,1436,1454,1475,1494,1515,1536,1556,1575,1594,1614,1635,1655,1676,1694,1716,1736,1755,1774,1796,1815,1835,1855,1874,1895,1914,1934,1954,1975,1996,2014,2035,2056,2075,2094,2114,2135,2155,2175,2195,2216,2235,2255,2275,2295,2315,2336,2354,2374,2394],"xSR":741.5,"ySR":469.95,"xT1":424.9,"yT1":0,"xT2":1058.1,"yT2":0,"toosoon":0,"cond_shown":"Incongruent","ratio_trial":300,"L_num":3,"L_den":6,"R_num":4,"R_den":20,"correct_side":1,"subjID":"RafaelDavidJimenezNomesque21","gender":"0","school":"4","age":"10"},{"start_time":1552327345132,"click_time":1552327346588,"finger_time":1552327346108,"fix_duration":303.7433933849435,"trial":10,"RT":976,"MT":480,"sideResp":2,"stimulus":[],"xmouse":[793,793,793,793,793,793,793,793,793,793,793,793,793,793,793,793,793,793,793,793,793,793,793,793,793,793,793,793,793,793,793,793,793,793,794,800,803,804,804,804,804,804,804,804,804,804,804,804,817,824,839,853,887,907,924,940,954,978,988,991,994,996,999,1000,1000,1000,1002,1004,1007,1015,1024,1035,1072],"ymouse":[491,491,491,491,491,491,491,491,491,491,491,491,491,491,491,491,491,491,491,491,491,491,491,491,491,491,491,491,491,491,491,491,491,491,490,487,485,485,485,485,485,485,485,485,485,485,485,484,466,459,441,422,374,348,327,306,285,242,218,208,196,184,157,144,135,128,123,116,111,100,91,79,51],"timestamp_mouse":[20,41,54,75,96,114,136,155,175,194,214,236,255,276,295,316,334,354,375,396,415,435,455,476,495,514,535,555,575,595,615,635,655,676,696,714,736,755,776,796,814,835,854,874,894,915,934,954,975,996,1016,1034,1055,1074,1096,1116,1135,1156,1175,1195,1215,1235,1256,1275,1295,1316,1334,1356,1374,1395,1415,1435,1456],"xSR":741.5,"ySR":469.95,"xT1":424.9,"yT1":0,"xT2":1058.1,"yT2":0,"toosoon":0,"cond_shown":"Congruent","ratio_trial":300,"L_num":1,"L_den":3,"R_num":19,"R_den":30,"correct_side":2,"subjID":"RafaelDavidJimenezNomesque21","gender":"0","school":"4","age":"10"},{"start_time":1552327349518,"click_time":1552327351007,"finger_time":1552327350527,"fix_duration":250,"trial":11,"RT":1009,"MT":480,"sideResp":1,"stimulus":[],"xmouse":[759,757,755,752,752,751,751,756,772,777,777,777,777,777,777,777,777,777,777,777,777,777,777,777,777,777,777,777,777,777,777,777,777,777,777,777,777,777,777,777,777,777,777,777,777,777,777,776,772,750,738,722,707,687,648,626,604,585,572,553,548,545,544,544,544,544,544,544,543,531,524,518,514,511,504],"ymouse":[495,496,497,499,499,500,500,503,505,506,506,506,506,506,506,506,506,506,506,506,506,506,506,506,506,506,506,506,506,506,506,506,506,506,506,506,506,506,506,506,506,506,506,506,506,506,506,504,498,470,453,433,416,392,341,317,290,269,250,209,197,191,187,184,172,166,159,150,146,131,125,119,115,107,94],"timestamp_mouse":[13,34,50,69,89,110,129,148,170,188,210,230,249,270,289,309,329,348,368,389,409,429,449,470,489,509,528,550,568,588,608,628,649,669,690,710,730,749,769,790,809,830,849,870,888,909,929,949,970,989,1009,1029,1050,1070,1090,1109,1130,1149,1169,1189,1210,1229,1249,1269,1289,1309,1329,1349,1370,1389,1409,1428,1450,1470,1488],"xSR":741.5,"ySR":469.95,"xT1":424.9,"yT1":0,"xT2":1058.1,"yT2":0,"toosoon":0,"cond_shown":"Congruent","ratio_trial":200,"L_num":12,"L_den":15,"R_num":6,"R_den":10,"correct_side":1,"subjID":"RafaelDavidJimenezNomesque21","gender":"0","school":"4","age":"10"},{"start_time":1552327353333,"click_time":1552327354787,"finger_time":1552327354388,"fix_duration":524.6017670128682,"trial":12,"RT":1055,"MT":399,"sideResp":2,"stimulus":[],"xmouse":[804,804,804,804,804,804,804,804,804,804,804,804,804,804,804,804,804,804,804,804,804,804,804,804,804,804,804,804,804,804,804,804,804,804,804,804,804,804,804,804,804,804,804,804,804,804,804,804,813,821,830,838,846,856,874,886,898,912,926,932,938,943,946,950,961,972,986,1002,1036,1052,1066,1077,1084],"ymouse":[533,532,532,532,532,532,532,532,532,532,532,532,532,532,532,532,532,532,532,532,532,532,532,532,532,532,532,532,532,532,532,532,532,532,532,532,532,532,532,532,532,532,532,532,532,532,532,532,516,504,489,475,459,443,410,389,370,345,318,306,294,282,268,256,231,212,194,178,148,134,117,103,90],"timestamp_mouse":[19,45,53,74,95,113,134,154,173,193,215,234,254,274,294,314,335,355,373,394,413,433,454,473,494,515,534,557,574,593,614,634,654,674,694,714,734,755,774,793,815,833,853,874,894,914,934,954,974,995,1014,1035,1055,1074,1094,1115,1134,1153,1174,1195,1214,1233,1253,1274,1294,1314,1334,1353,1375,1394,1414,1435,1454],"xSR":741.5,"ySR":469.95,"xT1":424.9,"yT1":0,"xT2":1058.1,"yT2":0,"toosoon":0,"cond_shown":"Congruent","ratio_trial":300,"L_num":4,"L_den":20,"R_num":13,"R_den":26,"correct_side":2,"subjID":"RafaelDavidJimenezNomesque21","gender":"0","school":"4","age":"10"},{"start_time":1552327356957,"click_time":1552327358687,"finger_time":1552327358268,"fix_duration":648.5036364312186,"trial":13,"RT":1311,"MT":419,"sideResp":1,"stimulus":[],"xmouse":[785,785,785,785,785,785,785,786,786,785,785,785,785,785,785,785,785,785,785,785,785,785,785,785,784,784,784,784,784,784,784,784,784,784,784,784,784,784,784,784,784,784,784,784,784,784,784,784,784,784,784,784,784,784,784,784,784,784,784,784,784,784,784,775,754,733,708,684,643,630,615,604,593,579,578,578,578,578,577,576,575,571,556,543,534,525,514],"ymouse":[527,527,527,527,527,527,527,527,528,529,529,529,529,529,529,529,529,529,529,529,529,529,529,529,529,529,529,529,529,529,529,529,529,529,529,529,529,529,529,529,529,529,529,529,529,529,529,529,529,529,529,529,529,529,529,529,529,529,529,529,529,529,529,516,489,463,429,396,329,305,281,261,242,210,199,187,176,168,153,147,144,139,121,105,93,80,68],"timestamp_mouse":[13,32,51,70,89,110,130,151,170,189,209,230,251,270,291,309,330,349,370,390,410,431,449,470,491,511,531,550,570,591,609,629,651,670,690,711,729,749,770,791,810,830,851,870,889,910,931,951,970,989,1009,1029,1051,1070,1090,1109,1130,1151,1170,1191,1210,1231,1251,1269,1291,1311,1330,1350,1369,1389,1410,1430,1449,1469,1490,1510,1530,1550,1569,1591,1611,1630,1652,1669,1691,1710,1730],"xSR":741.5,"ySR":469.95,"xT1":424.9,"yT1":0,"xT2":1058.1,"yT2":0,"toosoon":0,"cond_shown":"Incongruent","ratio_trial":200,"L_num":9,"L_den":15,"R_num":8,"R_den":10,"correct_side":2,"subjID":"RafaelDavidJimenezNomesque21","gender":"0","school":"4","age":"10"},{"start_time":1552327381480,"click_time":1552327382447,"finger_time":1552327382008,"fix_duration":250,"trial":14,"RT":528,"MT":439,"sideResp":1,"stimulus":[],"xmouse":[787,787,787,787,787,787,787,787,787,787,787,787,787,787,787,787,787,787,787,787,787,787,787,787,780,770,761,750,738,713,704,697,692,687,675,668,656,649,642,637,622,610,598,579,547,533,528,525,523],"ymouse":[520,520,520,520,520,520,520,520,520,520,520,520,520,520,520,520,520,520,520,520,520,517,512,507,492,475,459,442,422,388,375,362,349,335,304,287,266,256,246,238,213,198,184,167,135,117,108,101,98],"timestamp_mouse":[14,40,47,66,88,107,127,148,168,187,206,227,246,267,287,306,326,346,368,388,408,427,448,467,487,506,528,548,568,588,607,628,647,667,688,707,726,746,767,788,808,827,847,866,889,906,927,946,967],"xSR":741.5,"ySR":469.95,"xT1":424.9,"yT1":0,"xT2":1058.1,"yT2":0,"toosoon":0,"cond_shown":"Incongruent","ratio_trial":100,"L_num":2,"L_den":4,"R_num":8,"R_den":20,"correct_side":1,"subjID":"RafaelDavidJimenezNomesque21","gender":"0","school":"4","age":"10"},{"start_time":1552327385456,"click_time":1552327386448,"finger_time":1552327385827,"fix_duration":1386.797480020724,"trial":15,"RT":371,"MT":621,"sideResp":2,"stimulus":[],"xmouse":[762,762,762,762,762,762,762,762,762,762,762,762,762,762,762,762,778,794,812,829,844,876,893,911,929,942,963,967,969,971,972,978,983,986,990,995,999,1004,1008,1013,1017,1024,1025,1031,1038,1038,1041,1043,1052,1066],"ymouse":[492,492,492,492,492,492,492,492,492,492,492,492,492,492,492,492,488,477,466,457,447,424,407,387,367,350,315,304,297,289,284,271,262,254,245,228,202,186,171,154,140,122,114,106,95,94,91,89,86,79],"timestamp_mouse":[13,33,51,70,91,112,131,151,171,191,212,232,251,271,290,312,331,352,371,392,411,430,451,470,490,511,530,552,572,592,611,631,651,670,690,711,731,752,770,790,810,830,852,872,891,910,932,951,972,991],"xSR":741.5,"ySR":469.95,"xT1":424.9,"yT1":0,"xT2":1058.1,"yT2":0,"toosoon":0,"cond_shown":"Congruent","ratio_trial":100,"L_num":2,"L_den":5,"R_num":11,"R_den":22,"correct_side":2,"subjID":"RafaelDavidJimenezNomesque21","gender":"0","school":"4","age":"10"},{"start_time":1552327388545,"click_time":1552327389788,"finger_time":1552327389127,"fix_duration":816.8078323330465,"trial":16,"RT":582,"MT":661,"sideResp":1,"stimulus":[],"xmouse":[808,808,808,808,808,808,808,808,808,808,808,808,808,808,808,808,808,808,808,808,808,808,808,808,808,808,804,794,766,732,697,662,615,599,589,583,580,579,579,579,579,579,580,581,581,581,581,568,561,555,548,544,541,540,540,540,539,538,537,536,534,529,518],"ymouse":[515,515,515,515,515,515,515,515,515,515,515,515,515,515,515,515,515,515,515,515,515,515,515,515,515,515,511,500,476,451,420,388,330,307,286,268,253,235,231,229,226,224,215,209,202,192,181,150,137,125,113,107,99,98,96,94,93,88,88,86,84,81,73],"timestamp_mouse":[10,22,42,62,81,103,122,142,163,183,202,221,241,261,282,303,323,342,363,382,403,422,441,462,483,503,522,541,563,582,602,622,643,661,681,703,723,742,761,783,802,821,841,862,881,903,922,942,963,983,1002,1023,1042,1061,1081,1101,1121,1143,1162,1182,1203,1223,1243],"xSR":741.5,"ySR":469.95,"xT1":424.9,"yT1":0,"xT2":1058.1,"yT2":0,"toosoon":0,"cond_shown":"Incongruent","ratio_trial":100,"L_num":9,"L_den":10,"R_num":20,"R_den":25,"correct_side":1,"subjID":"RafaelDavidJimenezNomesque21","gender":"0","school":"4","age":"10"},{"start_time":1552327392240,"click_time":1552327393146,"finger_time":1552327392668,"fix_duration":250,"trial":17,"RT":428,"MT":478,"sideResp":2,"stimulus":[],"xmouse":[832,832,832,832,830,830,829,828,828,828,828,828,827,826,825,825,824,820,820,820,825,829,839,853,870,885,898,910,947,970,980,991,1002,1010,1015,1020,1024,1030,1042,1048,1051,1053,1054,1056,1056,1059],"ymouse":[538,538,538,538,537,535,534,532,532,532,532,532,532,531,531,530,529,522,513,495,475,458,432,413,390,371,353,334,271,240,225,212,198,184,175,167,160,151,133,124,117,111,106,100,100,96],"timestamp_mouse":[12,32,47,67,87,107,126,148,166,186,206,226,247,267,287,306,328,348,366,387,408,428,448,466,487,507,528,546,568,587,607,627,649,666,687,707,727,746,767,787,808,827,846,867,887,906],"xSR":741.5,"ySR":469.95,"xT1":424.9,"yT1":0,"xT2":1058.1,"yT2":0,"toosoon":0,"cond_shown":"Incongruent","ratio_trial":300,"L_num":1,"L_den":2,"R_num":3,"R_den":15,"correct_side":1,"subjID":"RafaelDavidJimenezNomesque21","gender":"0","school":"4","age":"10"},{"start_time":1552327397630,"click_time":1552327398568,"finger_time":1552327398007,"fix_duration":501.61516410708606,"trial":18,"RT":377,"MT":561,"sideResp":1,"stimulus":[],"xmouse":[761,761,761,761,761,761,761,761,761,761,761,761,763,765,766,766,766,766,723,689,659,614,582,495,446,398,361,352,352,352,352,352,352,352,352,352,352,352,352,352,352,352,352,354,385,411,442],"ymouse":[514,514,514,514,514,514,514,514,514,514,514,514,514,513,511,510,506,496,445,412,379,320,276,162,108,58,20,8,8,8,8,8,8,8,8,8,8,8,8,8,8,8,8,2,27,46,69],"timestamp_mouse":[18,42,57,77,98,116,136,156,177,196,216,238,257,276,297,316,337,357,377,396,417,437,458,477,497,517,536,556,577,598,616,637,657,677,698,718,738,756,777,797,816,836,857,877,897,916,938],"xSR":741.5,"ySR":469.95,"xT1":424.9,"yT1":0,"xT2":1058.1,"yT2":0,"toosoon":0,"cond_shown":"Congruent","ratio_trial":200,"L_num":3,"L_den":10,"R_num":11,"R_den":22,"correct_side":2,"subjID":"RafaelDavidJimenezNomesque21","gender":"0","school":"4","age":"10"},{"start_time":1552327400864,"click_time":1552327402268,"finger_time":1552327401847,"fix_duration":1175.8285447512342,"trial":19,"RT":983,"MT":421,"sideResp":1,"stimulus":[],"xmouse":[809,809,809,809,809,809,809,809,809,809,809,809,809,809,809,809,809,809,809,809,809,809,809,809,809,809,809,809,809,809,809,809,809,809,809,809,809,809,809,809,809,809,809,809,809,809,809,809,809,809,804,795,787,784,784,784,784,784,778,773,766,758,746,709,680,653,631,608,556,533,509],"ymouse":[534,534,534,534,534,534,534,534,534,534,534,534,534,534,534,534,534,534,534,534,534,534,534,534,534,534,534,534,534,534,534,534,534,534,534,534,534,534,534,534,534,534,534,534,534,533,528,514,473,444,419,394,376,352,344,335,324,312,271,256,244,229,213,178,154,131,112,92,53,42,33],"timestamp_mouse":[10,23,46,63,83,102,124,144,163,184,203,222,242,263,284,304,324,343,363,382,403,422,443,464,483,502,524,543,564,584,603,623,642,663,682,702,723,743,762,784,804,822,844,864,884,902,923,943,964,983,1003,1023,1042,1063,1083,1103,1122,1143,1163,1183,1203,1223,1243,1262,1283,1304,1323,1343,1362,1383,1403],"xSR":741.5,"ySR":469.95,"xT1":424.9,"yT1":0,"xT2":1058.1,"yT2":0,"toosoon":0,"cond_shown":"Incongruent","ratio_trial":100,"L_num":12,"L_den":30,"R_num":2,"R_den":4,"correct_side":2,"subjID":"RafaelDavidJimenezNomesque21","gender":"0","school":"4","age":"10"},{"start_time":1552327404588,"click_time":1552327406328,"finger_time":1552327406027,"fix_duration":858.9187969674266,"trial":20,"RT":1439,"MT":301,"sideResp":2,"stimulus":[],"xmouse":[803,803,803,803,803,803,803,803,803,803,803,803,803,803,803,803,803,803,803,803,803,803,803,803,803,803,803,803,803,803,803,803,803,803,803,803,803,803,803,803,803,803,803,803,803,803,803,803,803,803,803,803,803,803,803,803,803,803,803,803,803,803,803,803,803,803,803,803,803,803,803,806,831,844,862,884,914,966,981,999,1016,1030,1046,1050,1052,1054,1056,1060],"ymouse":[490,490,490,490,490,490,490,490,490,490,490,490,490,490,490,490,490,490,490,490,490,490,490,490,490,490,490,490,490,490,490,490,490,490,490,490,490,490,490,490,490,490,490,490,490,490,490,490,490,490,490,490,490,490,490,490,490,490,490,490,490,490,490,490,490,490,490,490,490,490,490,486,441,419,392,363,326,247,210,169,130,107,77,67,61,59,54,44],"timestamp_mouse":[1,20,40,71,79,99,120,138,158,180,198,218,238,260,280,300,319,338,358,380,400,420,438,459,478,498,520,539,559,579,598,620,639,659,680,699,719,739,759,780,800,819,838,858,878,898,920,939,959,980,999,1019,1038,1058,1078,1099,1119,1139,1160,1179,1198,1219,1239,1258,1279,1300,1318,1338,1359,1378,1398,1419,1439,1460,1479,1499,1520,1540,1558,1580,1600,1620,1639,1659,1678,1698,1720,1740],"xSR":741.5,"ySR":469.95,"xT1":424.9,"yT1":0,"xT2":1058.1,"yT2":0,"toosoon":0,"cond_shown":"Incongruent","ratio_trial":100,"L_num":6,"L_den":12,"R_num":3,"R_den":5,"correct_side":2,"subjID":"RafaelDavidJimenezNomesque21","gender":"0","school":"4","age":"10"},{"start_time":1552327408101,"click_time":1552327409847,"finger_time":1552327409526,"fix_duration":432.4731370137509,"trial":21,"RT":1425,"MT":321,"sideResp":2,"stimulus":[],"xmouse":[807,807,807,807,807,807,807,807,807,807,807,807,807,807,807,807,807,807,807,807,807,807,807,807,807,807,807,807,807,807,807,807,807,807,807,807,807,807,807,807,807,807,807,807,807,807,807,807,807,807,807,807,807,807,807,807,807,807,807,807,807,807,807,807,807,807,807,807,807,809,810,810,810,810,810,810,810,812,817,832,857,930,976,1000,1026,1050,1065,1088],"ymouse":[531,531,531,531,531,531,531,531,531,531,531,531,531,531,531,531,531,531,531,531,531,531,531,531,531,531,531,531,531,531,531,531,531,531,531,531,531,531,531,531,531,531,531,531,531,531,531,531,531,531,531,531,531,531,531,531,531,531,531,531,531,531,531,531,531,531,531,531,524,505,482,461,423,414,409,403,402,395,383,365,346,292,244,210,172,138,114,81],"timestamp_mouse":[13,25,45,67,86,107,126,145,166,187,207,226,246,267,287,305,327,346,366,386,405,426,447,466,487,506,526,547,566,586,607,626,646,666,686,705,727,747,767,786,806,825,847,867,887,906,926,947,965,986,1006,1026,1046,1066,1086,1105,1127,1145,1166,1186,1205,1226,1246,1267,1286,1307,1326,1346,1365,1386,1407,1425,1445,1466,1501,1505,1526,1546,1566,1585,1607,1627,1646,1666,1686,1706,1725,1745],"xSR":741.5,"ySR":469.95,"xT1":424.9,"yT1":0,"xT2":1058.1,"yT2":0,"toosoon":0,"cond_shown":"Incongruent","ratio_trial":300,"L_num":4,"L_den":20,"R_num":2,"R_den":4,"correct_side":2,"subjID":"RafaelDavidJimenezNomesque21","gender":"0","school":"4","age":"10"},{"start_time":1552327412493,"click_time":1552327413906,"finger_time":1552327413447,"fix_duration":1444.6810804114973,"trial":22,"RT":954,"MT":459,"sideResp":1,"stimulus":[],"xmouse":[789,789,789,789,789,789,789,789,789,789,789,789,789,789,789,789,789,789,789,789,789,789,789,789,789,789,789,789,789,789,789,789,789,789,789,789,789,789,789,789,789,789,789,789,789,787,783,778,775,772,772,772,779,782,785,787,788,790,790,789,784,779,765,750,731,710,675,589,552,526,498],"ymouse":[504,504,504,504,504,504,504,504,504,504,504,504,504,504,504,504,504,504,504,504,504,504,504,504,504,504,504,504,504,504,504,504,504,504,504,504,504,504,504,504,504,504,504,504,504,488,477,439,421,399,383,361,331,313,295,278,262,235,225,216,202,193,174,161,149,136,117,81,66,56,48],"timestamp_mouse":[13,33,54,73,94,115,134,153,175,194,215,234,253,275,295,314,335,353,373,393,414,433,453,473,495,515,534,553,574,594,615,634,653,673,694,715,733,753,773,793,814,834,855,873,894,914,935,954,974,994,1015,1034,1054,1074,1093,1114,1134,1154,1173,1193,1213,1234,1254,1273,1293,1315,1334,1354,1373,1394,1413],"xSR":741.5,"ySR":469.95,"xT1":424.9,"yT1":0,"xT2":1058.1,"yT2":0,"toosoon":0,"cond_shown":"Incongruent","ratio_trial":200,"L_num":14,"L_den":30,"R_num":12,"R_den":18,"correct_side":2,"subjID":"RafaelDavidJimenezNomesque21","gender":"0","school":"4","age":"10"},{"start_time":1552327416192,"click_time":1552327417686,"finger_time":1552327417248,"fix_duration":843.1767565090258,"trial":23,"RT":1056,"MT":438,"sideResp":1,"stimulus":[],"xmouse":[796,796,796,796,796,796,796,796,796,796,796,796,796,796,796,796,796,796,796,796,796,796,796,796,796,796,796,796,796,796,796,796,796,796,796,796,796,796,796,796,796,796,796,796,796,796,796,796,795,791,787,784,786,790,790,788,785,777,770,764,756,750,728,716,690,670,648,601,574,548,525,508,488,484,482],"ymouse":[514,514,514,514,514,514,514,514,514,514,514,514,514,514,514,514,514,514,514,514,514,514,514,514,514,514,514,514,514,514,514,514,514,514,514,514,514,514,514,514,514,514,514,514,514,514,514,514,513,507,501,490,458,424,399,377,354,322,305,292,279,268,240,226,205,192,180,155,145,133,123,116,103,100,96],"timestamp_mouse":[21,47,55,74,95,114,135,155,174,194,215,235,255,274,295,316,334,354,374,396,416,436,455,476,495,514,534,556,575,596,614,634,655,676,695,715,734,755,776,795,814,834,856,875,895,916,935,955,975,995,1015,1035,1056,1074,1094,1115,1136,1157,1175,1194,1214,1235,1256,1274,1295,1315,1334,1356,1375,1395,1415,1436,1457,1474,1494],"xSR":741.5,"ySR":469.95,"xT1":424.9,"yT1":0,"xT2":1058.1,"yT2":0,"toosoon":0,"cond_shown":"Incongruent","ratio_trial":300,"L_num":2,"L_den":4,"R_num":6,"R_den":30,"correct_side":1,"subjID":"RafaelDavidJimenezNomesque21","gender":"0","school":"4","age":"10"},{"start_time":1552327420354,"click_time":1552327421908,"finger_time":1552327421666,"fix_duration":1464.4048515612517,"trial":24,"RT":1312,"MT":242,"sideResp":1,"stimulus":[],"xmouse":[828,828,828,828,828,828,828,828,828,828,828,828,828,828,828,828,828,828,828,828,828,828,828,828,828,828,828,828,828,828,828,828,828,828,828,828,828,828,828,828,828,828,828,828,828,828,828,828,828,828,828,828,828,828,828,828,828,828,828,828,828,828,825,822,819,800,785,771,760,749,725,710,695,676,642,569,541,516],"ymouse":[545,545,545,545,545,545,545,545,545,545,545,545,545,545,545,545,545,545,545,545,545,545,545,545,545,545,545,545,545,545,545,545,545,545,545,545,545,545,545,545,545,545,545,545,545,545,545,545,545,545,545,545,545,545,545,545,545,545,545,545,545,541,532,522,506,436,390,338,297,256,195,169,150,134,109,73,57,43],"timestamp_mouse":[13,46,53,73,92,113,134,154,173,194,214,232,253,274,294,312,333,353,374,393,414,434,453,473,492,514,533,554,574,594,614,633,653,673,692,713,734,754,773,793,814,833,853,873,892,912,933,952,972,992,1013,1033,1053,1073,1092,1114,1133,1153,1173,1192,1212,1233,1254,1274,1293,1312,1334,1352,1373,1393,1412,1432,1454,1474,1493,1513,1534,1554],"xSR":741.5,"ySR":469.95,"xT1":424.9,"yT1":0,"xT2":1058.1,"yT2":0,"toosoon":0,"cond_shown":"Congruent","ratio_trial":300,"L_num":1,"L_den":30,"R_num":8,"R_den":24,"correct_side":2,"subjID":"RafaelDavidJimenezNomesque21","gender":"0","school":"4","age":"10"},{"start_time":1552327426855,"click_time":1552327428227,"finger_time":1552327427647,"fix_duration":1104.3327513955362,"trial":25,"RT":792,"MT":580,"sideResp":2,"stimulus":[],"xmouse":[819,819,819,819,819,819,819,819,819,819,819,819,819,819,819,819,819,819,819,819,819,819,819,819,819,819,819,819,819,819,819,819,819,819,819,818,822,826,833,844,858,891,901,906,913,920,934,944,951,961,972,993,1004,1013,1022,1024,1037,1042,1048,1054,1060,1067,1067,1067,1067,1067,1068,1076,1090],"ymouse":[498,498,498,498,498,498,498,498,498,498,498,498,498,498,498,498,498,498,498,498,498,498,498,498,498,498,498,498,498,498,498,498,498,498,498,498,489,482,471,457,443,411,401,390,375,363,341,329,316,294,272,224,202,186,166,161,143,136,130,124,118,112,112,112,112,112,112,107,99],"timestamp_mouse":[14,43,52,71,91,111,131,151,173,193,211,232,253,271,291,311,333,352,373,392,413,433,451,471,493,511,533,552,572,592,612,632,651,673,691,713,732,753,771,792,812,831,851,873,893,912,933,951,971,992,1012,1032,1052,1071,1092,1111,1131,1152,1172,1193,1212,1232,1252,1273,1291,1312,1332,1352,1371],"xSR":741.5,"ySR":469.95,"xT1":424.9,"yT1":0,"xT2":1058.1,"yT2":0,"toosoon":0,"cond_shown":"Incongruent","ratio_trial":300,"L_num":4,"L_den":20,"R_num":2,"R_den":4,"correct_side":2,"subjID":"RafaelDavidJimenezNomesque21","gender":"0","school":"4","age":"10"},{"start_time":1552327430022,"click_time":1552327431607,"finger_time":1552327431286,"fix_duration":433.99481681091225,"trial":26,"RT":1264,"MT":321,"sideResp":2,"stimulus":[],"xmouse":[793,793,793,793,793,793,793,793,793,793,793,793,793,793,793,793,793,793,793,793,793,793,793,793,793,793,793,793,793,793,793,793,793,793,793,793,793,793,793,793,793,793,793,793,793,793,793,793,793,793,793,793,793,793,793,793,793,793,793,793,793,793,795,818,856,910,974,1008,1063,1096,1137,1176,1199,1213,1213,1213,1213,1213,1213,1157],"ymouse":[495,495,495,495,495,495,495,495,495,495,495,495,495,495,495,495,495,495,495,495,495,495,495,495,495,495,495,495,495,495,495,495,495,495,495,495,495,495,495,495,495,495,495,495,495,495,495,495,495,495,495,495,495,495,495,495,495,495,495,495,495,495,494,468,436,389,330,283,205,170,139,110,90,69,67,66,66,66,66,47],"timestamp_mouse":[12,37,46,66,85,105,126,145,165,185,204,224,244,266,285,305,324,345,366,384,404,426,445,464,485,506,525,544,564,585,605,624,646,665,685,704,724,746,764,786,806,824,845,865,885,904,924,945,964,984,1005,1025,1046,1064,1085,1105,1126,1144,1164,1184,1205,1226,1245,1264,1286,1306,1325,1346,1364,1384,1404,1425,1445,1464,1484,1505,1524,1544,1564,1585],"xSR":741.5,"ySR":469.95,"xT1":424.9,"yT1":0,"xT2":1058.1,"yT2":0,"toosoon":0,"cond_shown":"Incongruent","ratio_trial":300,"L_num":13,"L_den":26,"R_num":12,"R_den":15,"correct_side":2,"subjID":"RafaelDavidJimenezNomesque21","gender":"0","school":"4","age":"10"},{"start_time":1552327434085,"click_time":1552327435528,"finger_time":1552327435208,"fix_duration":1075.0782348243258,"trial":27,"RT":1123,"MT":320,"sideResp":2,"stimulus":[],"xmouse":[771,771,771,771,771,771,771,771,771,771,771,771,771,771,771,771,771,771,771,771,771,771,771,771,771,771,771,771,771,771,771,771,771,771,771,771,771,771,771,771,771,771,771,771,771,771,771,771,771,771,771,771,771,771,773,775,776,779,784,791,803,811,816,822,839,862,943,980,1001,1017,1031,1062,1073],"ymouse":[506,506,506,506,506,506,506,506,506,506,506,506,506,506,506,506,506,506,506,506,506,506,506,506,506,506,506,506,506,506,506,506,506,506,506,506,506,506,506,506,506,506,506,506,506,506,506,506,506,506,506,506,506,506,495,480,422,390,367,348,324,312,307,299,284,267,209,179,159,143,128,101,92],"timestamp_mouse":[13,37,42,62,82,102,123,141,163,183,201,221,242,261,282,301,323,343,361,382,402,422,441,463,481,502,523,541,561,583,601,623,641,661,683,701,721,743,761,781,802,823,842,863,883,903,923,942,963,983,1002,1021,1042,1063,1081,1102,1123,1142,1163,1181,1204,1222,1242,1262,1281,1302,1321,1341,1361,1382,1402,1422,1442],"xSR":741.5,"ySR":469.95,"xT1":424.9,"yT1":0,"xT2":1058.1,"yT2":0,"toosoon":0,"cond_shown":"Congruent","ratio_trial":200,"L_num":8,"L_den":15,"R_num":2,"R_den":6,"correct_side":1,"subjID":"RafaelDavidJimenezNomesque21","gender":"0","school":"4","age":"10"},{"start_time":1552327437280,"click_time":1552327439247,"finger_time":1552327438186,"fix_duration":511.90185515124284,"trial":28,"RT":906,"MT":1061,"sideResp":1,"stimulus":[],"xmouse":[769,769,769,769,769,769,769,769,769,769,769,769,769,769,769,769,769,769,769,769,769,769,769,769,769,769,769,769,769,769,769,769,769,769,769,769,769,769,769,769,769,769,769,775,778,780,780,780,780,780,780,780,780,780,780,780,783,784,784,784,784,784,784,784,784,784,784,784,784,784,784,784,794,800,805,810,817,821,824,827,832,835,836,836,838,838,838,834,831,828,824,817,806,781,737,675,553,509,469],"ymouse":[515,515,515,515,515,515,515,515,515,515,515,515,515,515,515,515,515,515,515,515,515,515,515,515,515,515,515,515,515,515,515,515,515,515,515,515,515,515,515,515,515,515,515,504,488,461,422,416,415,415,415,415,415,415,412,409,397,390,388,386,386,386,386,386,386,386,386,386,386,386,386,386,372,364,358,351,341,336,330,325,314,304,300,295,290,284,266,258,250,246,242,236,234,227,214,196,143,122,98],"timestamp_mouse":[13,42,47,68,87,107,127,148,168,186,206,227,248,267,287,306,328,347,367,387,408,428,447,467,487,508,528,547,568,586,606,626,647,667,687,707,727,747,767,788,807,826,846,866,887,906,926,947,967,986,1006,1027,1048,1067,1088,1108,1128,1146,1166,1187,1206,1227,1248,1268,1288,1308,1327,1347,1367,1388,1408,1426,1447,1467,1487,1507,1526,1546,1567,1588,1608,1627,1647,1666,1687,1707,1727,1746,1766,1786,1806,1827,1847,1867,1888,1908,1927,1946,1966],"xSR":741.5,"ySR":469.95,"xT1":424.9,"yT1":0,"xT2":1058.1,"yT2":0,"toosoon":0,"cond_shown":"Incongruent","ratio_trial":300,"L_num":8,"L_den":10,"R_num":9,"R_den":18,"correct_side":1,"subjID":"RafaelDavidJimenezNomesque21","gender":"0","school":"4","age":"10"},{"start_time":1552327441522,"click_time":1552327443426,"finger_time":1552327442648,"fix_duration":714.0999915798881,"trial":29,"RT":1126,"MT":778,"sideResp":2,"stimulus":[],"xmouse":[812,812,812,812,812,812,812,812,812,812,812,812,812,812,812,812,812,812,812,812,812,812,812,812,812,812,812,812,812,812,812,812,812,812,812,812,812,812,812,812,812,812,812,812,812,812,812,812,812,812,812,812,812,812,813,820,834,841,845,848,848,848,848,849,849,850,850,850,850,847,847,846,846,846,849,875,899,910,916,926,930,935,941,946,951,965,974,983,995,1017,1023,1029,1034,1041,1050,1069],"ymouse":[503,503,503,503,503,503,503,503,503,503,503,503,503,503,503,503,503,503,503,503,503,503,503,503,503,503,503,503,503,503,503,503,503,503,503,503,503,503,503,503,503,503,503,503,503,503,503,503,503,503,503,503,503,503,500,480,450,429,412,392,391,390,390,389,388,380,374,367,358,353,351,351,345,332,319,296,275,261,249,224,206,188,172,157,146,129,121,116,109,96,91,89,86,81,78,70],"timestamp_mouse":[13,36,44,64,85,104,125,146,164,185,204,226,244,264,285,304,324,346,365,384,405,424,445,466,485,505,524,546,564,585,604,625,646,666,685,705,725,746,764,785,805,824,846,865,885,905,926,946,965,985,1004,1024,1045,1065,1085,1106,1126,1145,1164,1186,1204,1224,1245,1265,1286,1304,1324,1345,1364,1385,1405,1425,1445,1464,1485,1505,1526,1544,1564,1586,1604,1625,1645,1665,1686,1704,1725,1745,1765,1786,1804,1825,1846,1865,1884,1904],"xSR":741.5,"ySR":469.95,"xT1":424.9,"yT1":0,"xT2":1058.1,"yT2":0,"toosoon":0,"cond_shown":"Congruent","ratio_trial":200,"L_num":7,"L_den":21,"R_num":2,"R_den":15,"correct_side":1,"subjID":"RafaelDavidJimenezNomesque21","gender":"0","school":"4","age":"10"},{"start_time":1552327448172,"click_time":1552327450128,"finger_time":1552327449807,"fix_duration":1202.2335373874557,"trial":30,"RT":1635,"MT":321,"sideResp":1,"stimulus":[],"xmouse":[808,808,808,808,808,808,808,808,808,808,808,808,808,808,808,808,808,808,808,808,808,808,808,808,808,808,808,808,808,808,808,808,808,808,808,808,808,808,808,808,808,808,808,808,808,808,808,808,808,808,808,808,808,808,808,808,808,808,808,808,808,808,808,808,808,808,808,808,808,808,808,808,808,808,808,808,808,808,805,800,793,782,768,732,711,695,679,666,645,634,628,622,609,601,590,576,548,470],"ymouse":[545,545,545,545,545,545,545,545,545,545,545,545,545,545,545,545,545,545,545,545,545,545,545,545,545,545,545,545,545,545,545,545,545,545,545,545,545,545,545,545,545,545,545,545,545,545,545,545,545,545,545,545,545,545,545,545,545,545,545,545,545,545,545,545,545,545,545,545,545,545,545,545,545,545,545,545,545,545,537,515,492,464,431,368,342,323,308,296,280,269,261,252,238,228,215,189,153,78],"timestamp_mouse":[14,34,54,74,96,116,135,154,175,196,215,235,254,276,295,316,335,355,375,394,414,436,455,475,494,514,534,554,574,596,616,636,654,675,695,715,735,755,775,794,814,835,855,874,895,915,936,955,975,995,1014,1034,1055,1076,1095,1116,1134,1154,1175,1195,1216,1235,1254,1276,1294,1315,1336,1355,1376,1395,1415,1434,1454,1476,1495,1516,1536,1554,1574,1595,1615,1635,1655,1676,1695,1716,1735,1755,1774,1794,1814,1835,1855,1874,1895,1915,1935,1955],"xSR":741.5,"ySR":469.95,"xT1":424.9,"yT1":0,"xT2":1058.1,"yT2":0,"toosoon":0,"cond_shown":"Congruent","ratio_trial":200,"L_num":7,"L_den":21,"R_num":2,"R_den":15,"correct_side":1,"subjID":"RafaelDavidJimenezNomesque21","gender":"0","school":"4","age":"10"},{"start_time":1552327452754,"click_time":1552327454546,"finger_time":1552327454146,"fix_duration":1145.6733084934576,"trial":31,"RT":1392,"MT":400,"sideResp":1,"stimulus":[],"xmouse":[803,803,803,803,803,803,803,803,803,803,803,803,803,803,803,803,803,803,803,803,803,803,803,803,803,803,803,803,803,803,803,803,803,803,803,803,803,803,803,803,803,803,803,803,803,803,803,803,803,803,803,803,803,803,803,803,803,803,803,803,803,803,803,803,803,803,803,803,803,794,788,781,773,762,706,653,588,534,504,493,493,493,493,493,493,492,492,492,492,492],"ymouse":[517,517,517,517,517,517,517,517,517,517,517,517,517,517,517,517,517,517,517,517,517,517,517,517,517,517,517,517,517,517,517,517,517,517,517,517,517,517,517,517,517,517,517,517,517,517,517,517,517,517,517,517,517,517,517,517,517,517,517,517,517,517,517,517,517,517,517,510,482,420,391,364,340,319,272,242,212,189,171,159,156,156,156,156,156,156,154,139,124,88],"timestamp_mouse":[22,38,52,72,93,114,134,152,173,193,212,233,253,274,294,312,332,354,373,394,412,432,453,474,494,512,532,552,572,594,614,633,654,673,693,713,734,754,774,793,813,834,853,873,893,914,934,952,973,994,1014,1033,1052,1074,1093,1112,1133,1153,1174,1193,1212,1234,1253,1272,1292,1313,1332,1354,1374,1392,1413,1432,1454,1473,1492,1512,1532,1553,1572,1592,1613,1633,1654,1674,1694,1713,1733,1752,1772,1792],"xSR":741.5,"ySR":469.95,"xT1":424.9,"yT1":0,"xT2":1058.1,"yT2":0,"toosoon":0,"cond_shown":"Congruent","ratio_trial":100,"L_num":6,"L_den":20,"R_num":5,"R_den":25,"correct_side":1,"subjID":"RafaelDavidJimenezNomesque21","gender":"0","school":"4","age":"10"},{"start_time":1552327457806,"click_time":1552327459567,"finger_time":1552327459347,"fix_duration":577.5715340098003,"trial":32,"RT":1541,"MT":220,"sideResp":1,"stimulus":[],"xmouse":[794,794,794,794,794,794,794,794,794,794,794,794,794,794,794,794,794,794,794,794,794,794,794,794,794,794,794,794,794,794,794,794,794,794,794,794,794,794,794,794,794,794,794,794,794,794,794,794,794,794,794,794,794,794,794,794,794,794,794,794,794,794,794,794,794,794,794,794,794,794,794,794,794,794,792,790,790,790,784,772,757,743,715,694,658,625,586,527,510],"ymouse":[531,531,531,531,531,531,531,531,531,531,531,531,531,531,531,531,531,531,531,531,531,531,531,531,531,531,531,531,531,531,531,531,531,531,531,531,531,531,531,531,531,531,531,531,531,531,531,531,531,531,531,531,531,531,531,531,531,531,531,531,531,531,531,531,531,531,531,531,531,531,531,531,531,529,512,497,475,423,393,359,324,291,228,194,150,120,92,48,34],"timestamp_mouse":[10,20,40,60,80,100,122,140,160,182,201,220,240,260,281,302,321,341,361,380,401,421,440,460,480,500,522,540,560,581,600,622,640,661,681,702,721,740,761,781,801,822,841,860,881,901,922,941,962,981,1000,1021,1040,1060,1081,1102,1121,1140,1161,1182,1202,1220,1241,1260,1281,1302,1322,1341,1361,1380,1401,1420,1440,1460,1480,1501,1522,1541,1560,1581,1601,1621,1641,1661,1681,1701,1721,1742,1760],"xSR":741.5,"ySR":469.95,"xT1":424.9,"yT1":0,"xT2":1058.1,"yT2":0,"toosoon":0,"cond_shown":"Incongruent","ratio_trial":300,"L_num":2,"L_den":4,"R_num":6,"R_den":30,"correct_side":1,"subjID":"RafaelDavidJimenezNomesque21","gender":"0","school":"4","age":"10"},{"start_time":1552327460979,"click_time":1552327463067,"finger_time":1552327462868,"fix_duration":250,"trial":33,"RT":1889,"MT":199,"sideResp":1,"stimulus":[],"xmouse":[770,763,763,762,762,762,762,762,762,762,762,762,762,762,762,762,762,762,762,762,762,762,762,762,762,762,762,762,762,762,762,762,762,762,762,762,762,762,762,762,762,762,762,762,762,762,762,762,762,762,762,762,762,762,762,762,762,762,762,762,762,762,762,762,762,762,762,762,762,762,762,762,762,762,762,762,762,762,762,762,762,762,762,762,762,760,760,760,760,760,760,760,760,760,760,760,760,755,744,700,676,638,600,534,495],"ymouse":[502,513,513,516,516,516,516,516,516,516,516,516,516,516,516,516,516,516,516,516,516,516,516,516,516,516,516,516,516,516,516,516,516,516,516,516,516,516,516,516,516,516,516,516,516,516,516,516,516,516,516,516,516,516,516,516,516,516,516,516,516,516,516,516,516,516,516,516,516,516,516,516,516,516,516,516,516,516,516,516,516,516,516,516,511,507,505,505,505,505,505,505,505,498,433,381,329,279,228,142,111,77,53,22,14],"timestamp_mouse":[13,43,47,69,89,108,128,148,169,187,207,228,247,268,289,308,327,347,369,388,408,427,448,467,489,509,527,548,568,587,609,628,647,669,688,708,727,747,767,788,809,827,848,869,888,908,927,948,969,987,1007,1028,1049,1067,1088,1108,1129,1148,1168,1189,1207,1227,1249,1267,1288,1309,1327,1348,1369,1387,1407,1427,1448,1467,1489,1509,1529,1548,1568,1588,1609,1628,1648,1668,1687,1707,1727,1749,1769,1789,1809,1828,1847,1868,1889,1908,1927,1948,1967,1987,2008,2029,2049,2070,2087],"xSR":741.5,"ySR":469.95,"xT1":424.9,"yT1":0,"xT2":1058.1,"yT2":0,"toosoon":0,"cond_shown":"Congruent","ratio_trial":300,"L_num":1,"L_den":30,"R_num":8,"R_den":24,"correct_side":2,"subjID":"RafaelDavidJimenezNomesque21","gender":"0","school":"4","age":"10"},{"start_time":1552327465596,"click_time":1552327467168,"finger_time":1552327466607,"fix_duration":1487.225804880033,"trial":34,"RT":1011,"MT":561,"sideResp":2,"stimulus":[],"xmouse":[770,769,769,769,769,769,769,769,769,769,769,769,769,769,769,769,769,769,769,769,769,769,769,769,769,769,769,769,769,769,769,769,769,769,769,769,769,769,769,769,769,769,769,769,769,769,769,769,766,761,754,749,744,739,739,739,740,745,758,767,778,797,817,862,881,896,906,915,923,955,983,1022,1041,1049,1049,1049,1049,1050,1059],"ymouse":[495,495,495,495,495,495,495,495,495,495,495,495,495,495,495,495,495,495,495,495,495,495,495,495,495,495,495,495,495,495,495,495,495,495,495,495,495,495,495,495,495,495,495,495,495,495,495,495,486,470,443,426,410,378,363,349,332,313,276,256,243,224,214,192,180,170,163,154,145,119,101,80,68,62,62,62,62,63,70],"timestamp_mouse":[13,36,52,70,92,112,131,152,171,190,211,231,252,271,291,310,332,351,370,391,412,432,450,470,490,512,532,550,571,592,612,630,651,670,691,712,730,751,770,792,810,831,852,871,892,912,930,951,971,991,1011,1032,1051,1070,1091,1111,1131,1151,1171,1190,1210,1230,1251,1272,1291,1311,1331,1351,1371,1391,1410,1432,1451,1470,1490,1510,1531,1552,1572],"xSR":741.5,"ySR":469.95,"xT1":424.9,"yT1":0,"xT2":1058.1,"yT2":0,"toosoon":0,"cond_shown":"Congruent","ratio_trial":200,"L_num":16,"L_den":20,"R_num":12,"R_den":20,"correct_side":1,"subjID":"RafaelDavidJimenezNomesque21","gender":"0","school":"4","age":"10"},{"start_time":1552327469977,"click_time":1552327472026,"finger_time":1552327471387,"fix_duration":1447.5994821079469,"trial":35,"RT":1410,"MT":639,"sideResp":1,"stimulus":[],"xmouse":[815,815,815,815,815,815,815,815,815,815,815,815,815,815,815,815,815,815,815,815,815,815,815,815,815,815,815,815,815,815,815,815,815,815,815,815,815,815,815,815,815,815,815,815,815,815,815,815,815,815,815,815,815,815,815,815,815,815,815,815,815,815,815,815,815,815,815,815,814,807,795,784,773,758,740,697,672,637,579,579,579,579,579,579,579,579,579,579,579,579,579,579,290,287,287,287,287,291,297,312,376,412,443],"ymouse":[504,504,504,504,504,504,504,504,504,504,504,504,504,504,504,504,504,504,504,504,504,504,504,504,504,504,504,504,504,504,504,504,504,504,504,504,504,504,504,504,504,504,504,504,504,504,504,504,504,504,504,504,504,504,504,504,504,504,504,504,504,504,504,504,504,504,504,504,504,493,466,446,423,387,324,195,138,79,4,4,4,4,4,4,4,4,4,4,4,4,4,4,1,6,11,21,28,34,39,44,45,45,45],"timestamp_mouse":[12,41,51,71,90,109,130,151,170,190,210,229,249,269,290,309,331,351,371,391,409,429,449,470,489,511,530,550,570,591,609,631,651,671,689,709,731,751,769,791,809,829,851,871,890,910,930,949,969,990,1009,1030,1051,1069,1089,1111,1130,1149,1170,1189,1209,1229,1251,1271,1289,1309,1329,1351,1370,1391,1410,1430,1449,1469,1489,1510,1530,1551,1569,1589,1609,1630,1649,1671,1690,1711,1730,1751,1769,1790,1810,1830,1850,1870,1889,1909,1929,1950,1969,1991,2010,2030,2049],"xSR":741.5,"ySR":469.95,"xT1":424.9,"yT1":0,"xT2":1058.1,"yT2":0,"toosoon":0,"cond_shown":"Congruent","ratio_trial":100,"L_num":4,"L_den":8,"R_num":6,"R_den":10,"correct_side":2,"subjID":"RafaelDavidJimenezNomesque21","gender":"0","school":"4","age":"10"},{"start_time":1552327475061,"click_time":1552327476888,"finger_time":1552327475727,"fix_duration":392.8086530494986,"trial":36,"RT":666,"MT":1161,"sideResp":2,"stimulus":[],"xmouse":[817,817,817,817,817,817,817,817,812,805,797,783,780,779,779,779,779,779,779,779,779,779,779,779,779,779,779,779,779,779,779,779,778,777,774,772,766,764,764,764,764,764,764,764,764,764,764,764,764,764,764,764,764,764,764,764,764,764,764,764,764,766,784,799,809,819,830,848,860,880,934,934,934,934,934,934,934,934,934,934,934,934,934,934,934,934,934,934,934,934,934,1142],"ymouse":[500,500,500,500,500,500,500,500,499,499,497,495,494,494,494,494,494,494,494,494,494,494,494,494,494,494,494,494,494,493,493,487,472,455,437,424,400,393,392,392,392,392,392,392,392,392,392,392,392,392,392,392,392,392,392,389,350,325,292,261,224,161,118,98,83,73,63,51,43,30,1,1,1,1,1,1,1,1,1,1,1,1,1,1,1,1,1,1,1,1,1,6],"timestamp_mouse":[12,40,45,65,87,106,125,146,166,186,206,226,247,267,286,306,325,347,365,386,406,426,447,466,487,507,526,545,566,587,607,625,646,666,686,705,726,747,765,786,807,826,845,865,886,906,926,947,967,987,1006,1026,1046,1067,1087,1106,1127,1146,1166,1187,1207,1227,1245,1266,1286,1307,1326,1346,1365,1386,1406,1427,1447,1467,1486,1506,1527,1546,1565,1586,1605,1626,1645,1667,1686,1706,1726,1747,1767,1786,1806,1827],"xSR":741.5,"ySR":469.95,"xT1":424.9,"yT1":0,"xT2":1058.1,"yT2":0,"toosoon":0,"cond_shown":"Incongruent","ratio_trial":200,"L_num":9,"L_den":15,"R_num":8,"R_den":10,"correct_side":2,"subjID":"RafaelDavidJimenezNomesque21","gender":"0","school":"4","age":"10"},{"start_time":1552327481621,"click_time":1552327483187,"finger_time":1552327482426,"fix_duration":1031.15273511874,"trial":37,"RT":805,"MT":761,"sideResp":1,"stimulus":[],"xmouse":[832,832,832,832,832,832,832,832,832,832,832,831,831,831,831,831,831,831,830,830,828,828,827,825,812,807,804,802,800,788,777,754,748,742,742,742,742,742,742,742,741,745,750,754,756,756,756,756,756,756,756,757,759,762,763,764,765,766,767,772,772,772,763,726,667,667,667,667,667,667,667,667,667,667,667,667,667,667,506],"ymouse":[524,524,524,524,524,524,524,524,524,524,524,524,524,524,524,524,524,524,525,525,525,525,526,527,529,529,530,530,530,532,534,537,538,539,539,539,539,539,539,539,538,537,534,533,532,532,532,532,532,532,532,531,522,509,499,496,491,486,480,448,422,379,314,191,17,17,17,17,17,17,17,17,17,17,17,17,17,17,13],"timestamp_mouse":[10,40,46,66,85,107,126,145,166,187,205,226,247,266,287,305,326,346,366,385,405,425,445,467,485,506,527,545,566,585,606,626,647,666,685,706,727,747,766,786,805,826,845,867,887,907,925,947,966,985,1005,1025,1046,1066,1085,1106,1126,1145,1166,1185,1207,1227,1246,1265,1286,1306,1326,1346,1365,1386,1405,1426,1445,1466,1486,1506,1527,1546,1566],"xSR":741.5,"ySR":469.95,"xT1":424.9,"yT1":0,"xT2":1058.1,"yT2":0,"toosoon":0,"cond_shown":"Congruent","ratio_trial":300,"L_num":1,"L_den":5,"R_num":11,"R_den":22,"correct_side":2,"subjID":"RafaelDavidJimenezNomesque21","gender":"0","school":"4","age":"10"},{"start_time":1552327487735,"click_time":1552327489848,"finger_time":1552327489267,"fix_duration":1466.4968250277113,"trial":38,"RT":1532,"MT":581,"sideResp":2,"stimulus":[],"xmouse":[793,793,793,793,793,793,793,793,793,793,793,793,793,793,793,793,793,793,793,793,793,793,793,793,793,793,793,793,793,793,793,793,793,793,793,793,793,793,793,793,793,793,793,793,793,793,793,793,793,793,793,793,793,793,793,793,793,793,793,793,793,793,793,793,793,793,793,793,793,793,793,793,793,793,793,793,795,798,802,813,822,833,849,864,901,920,945,979,1020,1095,1130,1168,1202,1221,1221,1221,1221,1221,1221,1221,1221,1221,1221,1221,1221,1117],"ymouse":[512,512,512,512,512,512,512,512,512,512,512,512,512,512,512,512,512,512,512,512,512,512,512,512,512,512,512,512,512,512,512,512,512,512,512,512,512,512,512,512,512,512,512,512,512,512,512,512,512,512,512,512,512,512,512,512,512,512,512,512,512,512,512,512,512,512,512,512,512,512,512,512,511,502,483,471,454,432,412,364,344,328,311,295,265,253,241,221,196,142,111,76,42,12,12,12,12,12,12,12,12,12,12,12,12,10],"timestamp_mouse":[13,37,51,73,92,112,133,152,173,193,212,233,251,273,291,313,333,352,371,391,413,432,452,472,492,511,533,551,571,591,611,633,651,671,692,713,731,753,771,793,813,833,851,872,893,913,932,952,973,993,1012,1032,1051,1072,1091,1111,1133,1152,1173,1191,1212,1232,1253,1273,1293,1311,1333,1352,1373,1392,1412,1431,1452,1472,1492,1512,1532,1553,1572,1592,1612,1633,1653,1672,1692,1712,1731,1752,1771,1792,1812,1832,1852,1873,1893,1912,1932,1951,1972,1992,2012,2032,2052,2072,2093,2113],"xSR":741.5,"ySR":469.95,"xT1":424.9,"yT1":0,"xT2":1058.1,"yT2":0,"toosoon":0,"cond_shown":"Congruent","ratio_trial":300,"L_num":1,"L_den":5,"R_num":3,"R_den":6,"correct_side":2,"subjID":"RafaelDavidJimenezNomesque21","gender":"0","school":"4","age":"10"},{"start_time":1552327491373,"click_time":1552327493028,"finger_time":1552327492408,"fix_duration":323.7294312296437,"trial":39,"RT":1035,"MT":620,"sideResp":1,"stimulus":[],"xmouse":[779,779,779,779,781,782,785,787,787,787,787,787,787,787,787,787,787,787,787,787,787,787,787,787,787,787,787,787,787,787,787,787,787,787,787,787,787,787,788,788,788,789,789,790,790,790,790,790,790,789,782,774,765,764,764,764,764,766,767,767,767,767,767,767,767,762,755,739,735,735,735,735,726,716,699,684,664,646,613,591,575,558,523],"ymouse":[558,558,558,558,554,552,547,543,543,543,543,543,543,543,543,543,543,543,543,543,543,543,543,543,543,543,543,543,543,543,543,543,543,543,543,543,543,543,539,537,535,533,530,528,527,527,527,519,510,493,474,441,395,373,350,333,320,313,312,312,312,312,309,298,286,265,246,209,195,191,189,184,171,164,153,144,131,121,101,88,81,77,71],"timestamp_mouse":[13,39,53,74,94,115,135,155,174,193,215,233,253,275,295,314,333,354,374,394,415,435,455,474,495,514,534,553,575,594,614,633,653,673,694,713,734,753,774,795,814,834,854,874,893,913,935,954,974,994,1014,1035,1053,1075,1093,1114,1135,1154,1174,1194,1215,1233,1254,1274,1293,1314,1334,1354,1373,1393,1413,1434,1454,1473,1494,1515,1535,1554,1573,1593,1613,1635,1654],"xSR":741.5,"ySR":469.95,"xT1":424.9,"yT1":0,"xT2":1058.1,"yT2":0,"toosoon":0,"cond_shown":"Incongruent","ratio_trial":200,"L_num":7,"L_den":10,"R_num":14,"R_den":28,"correct_side":1,"subjID":"RafaelDavidJimenezNomesque21","gender":"0","school":"4","age":"10"},{"start_time":1552327495602,"click_time":1552327497247,"finger_time":1552327496427,"fix_duration":1373.3176862038097,"trial":40,"RT":825,"MT":820,"sideResp":2,"stimulus":[],"xmouse":[781,781,781,781,781,781,781,781,781,781,781,781,781,781,781,781,781,782,782,782,782,782,782,782,782,782,782,782,782,782,782,782,782,782,782,782,782,789,792,795,797,798,798,798,798,798,798,798,798,794,791,786,781,780,780,779,778,777,777,777,780,787,801,811,817,821,822,837,847,860,873,881,886,889,897,911,927,958,971,985,1006,1026,1060],"ymouse":[516,516,516,516,516,516,516,516,516,516,516,516,516,516,516,516,516,516,516,516,516,516,516,516,516,516,516,516,516,516,516,516,516,516,516,516,516,501,495,483,472,455,452,451,451,450,450,450,448,441,435,428,421,419,419,417,413,380,358,329,302,272,212,183,163,150,146,136,131,125,120,117,114,112,109,103,96,79,71,63,54,44,28],"timestamp_mouse":[12,24,45,64,86,105,125,146,164,184,205,226,246,266,285,306,324,345,365,384,405,426,444,465,486,505,526,545,565,586,605,624,645,665,685,706,726,745,764,785,805,825,844,866,885,905,926,946,964,984,1004,1024,1045,1065,1084,1105,1125,1144,1166,1185,1205,1225,1245,1265,1284,1304,1324,1344,1365,1384,1405,1425,1445,1466,1486,1505,1524,1545,1566,1584,1604,1625,1644],"xSR":741.5,"ySR":469.95,"xT1":424.9,"yT1":0,"xT2":1058.1,"yT2":0,"toosoon":0,"cond_shown":"Congruent","ratio_trial":100,"L_num":2,"L_den":5,"R_num":6,"R_den":12,"correct_side":2,"subjID":"RafaelDavidJimenezNomesque21","gender":"0","school":"4","age":"10"},{"start_time":1552327500093,"click_time":1552327501907,"finger_time":1552327500807,"fix_duration":404.80606463978074,"trial":41,"RT":714,"MT":1100,"sideResp":2,"stimulus":[],"xmouse":[824,824,824,824,824,824,824,824,824,824,824,824,824,824,824,824,824,824,823,823,823,823,823,823,823,823,823,823,823,823,823,823,823,819,808,799,791,783,782,782,782,782,782,782,782,782,783,785,787,788,788,790,793,797,800,805,809,813,816,816,816,816,816,817,823,833,845,877,897,910,915,918,922,937,946,955,965,965,965,965,965,965,1160,1173,1173,1174,1174,1171,1165,1159,1153],"ymouse":[508,508,508,508,508,508,508,508,508,508,508,508,508,508,508,508,508,508,507,506,505,503,503,503,503,503,503,503,503,503,503,503,502,492,479,467,456,446,445,445,445,445,445,445,441,437,433,428,420,418,416,413,405,399,392,384,374,365,350,341,338,336,335,330,316,297,275,215,185,143,116,92,69,27,14,6,0,0,0,0,0,0,6,10,10,10,11,13,16,19,23],"timestamp_mouse":[14,33,55,74,93,113,134,153,173,193,215,233,253,273,293,314,334,353,375,394,414,435,454,475,494,515,534,554,574,594,614,634,654,674,693,714,734,755,773,793,814,834,854,873,894,913,933,954,973,994,1014,1035,1054,1073,1093,1114,1134,1154,1174,1194,1213,1234,1254,1274,1295,1314,1335,1354,1373,1393,1413,1434,1454,1474,1495,1514,1534,1554,1575,1594,1614,1634,1653,1673,1694,1714,1734,1753,1774,1795,1814],"xSR":741.5,"ySR":469.95,"xT1":424.9,"yT1":0,"xT2":1058.1,"yT2":0,"toosoon":0,"cond_shown":"Congruent","ratio_trial":300,"L_num":1,"L_den":30,"R_num":8,"R_den":24,"correct_side":2,"subjID":"RafaelDavidJimenezNomesque21","gender":"0","school":"4","age":"10"},{"start_time":1552327504177,"click_time":1552327505349,"finger_time":1552327504747,"fix_duration":928.9968958925884,"trial":42,"RT":570,"MT":602,"sideResp":2,"stimulus":[],"xmouse":[795,795,796,799,800,800,800,800,801,802,803,803,803,803,803,803,803,803,803,803,803,803,803,803,803,803,803,803,801,789,783,774,770,763,762,762,762,762,762,768,771,776,784,810,827,838,847,855,865,882,893,907,923,946,1000,1020,1037,1051,1083],"ymouse":[492,492,493,493,493,493,493,493,493,492,492,492,492,492,492,492,492,492,492,492,492,492,492,492,492,492,492,492,463,431,409,390,372,351,348,348,347,347,345,323,311,298,284,243,215,199,182,170,157,143,137,128,119,106,80,72,66,61,52],"timestamp_mouse":[13,35,51,70,89,109,130,150,170,190,210,231,250,271,291,310,330,349,371,390,410,430,450,470,490,510,530,550,570,589,610,630,650,671,689,711,731,750,769,789,810,829,850,871,890,910,930,950,969,989,1010,1030,1049,1069,1090,1111,1129,1149,1172],"xSR":741.5,"ySR":469.95,"xT1":424.9,"yT1":0,"xT2":1058.1,"yT2":0,"toosoon":0,"cond_shown":"Incongruent","ratio_trial":200,"L_num":7,"L_den":10,"R_num":14,"R_den":28,"correct_side":1,"subjID":"RafaelDavidJimenezNomesque21","gender":"0","school":"4","age":"10"},{"start_time":1552327507760,"click_time":1552327509248,"finger_time":1552327508366,"fix_duration":1170.4443295184017,"trial":43,"RT":606,"MT":882,"sideResp":2,"stimulus":[],"xmouse":[805,805,805,805,805,805,805,805,805,805,805,805,805,805,805,805,805,805,805,805,805,805,805,805,805,805,805,805,795,778,725,709,703,703,707,715,719,727,738,750,761,785,797,800,807,810,811,807,797,786,759,748,745,744,744,744,744,744,744,744,744,744,744,753,762,804,831,860,891,930,1004,1031,1046,1056,1061],"ymouse":[536,536,536,536,536,536,536,536,536,536,536,536,536,536,536,536,536,536,536,536,536,536,536,536,536,536,536,536,522,504,446,428,410,406,394,383,379,370,360,350,337,305,285,281,264,250,216,194,171,148,115,107,105,105,105,105,105,105,105,105,105,105,104,102,100,90,84,81,81,81,81,81,77,74,72],"timestamp_mouse":[16,42,48,66,87,106,126,147,167,187,206,226,247,266,287,308,328,347,367,386,407,427,448,466,487,508,527,547,567,587,606,626,647,667,688,707,726,746,767,787,806,826,847,867,888,906,927,947,968,988,1008,1026,1047,1067,1086,1106,1127,1147,1168,1187,1208,1227,1247,1267,1286,1307,1328,1347,1367,1387,1407,1426,1447,1467,1488],"xSR":741.5,"ySR":469.95,"xT1":424.9,"yT1":0,"xT2":1058.1,"yT2":0,"toosoon":0,"cond_shown":"Incongruent","ratio_trial":300,"L_num":4,"L_den":5,"R_num":8,"R_den":16,"correct_side":1,"subjID":"RafaelDavidJimenezNomesque21","gender":"0","school":"4","age":"10"},{"start_time":1552327510845,"click_time":1552327512146,"finger_time":1552327511487,"fix_duration":395.06419338167444,"trial":44,"RT":642,"MT":659,"sideResp":1,"stimulus":[],"xmouse":[787,787,787,787,787,787,787,787,787,787,787,787,787,787,787,787,787,787,787,787,787,787,787,787,787,787,787,787,787,787,787,787,784,779,774,768,764,763,763,763,763,763,763,763,763,763,760,756,749,740,726,699,688,677,669,662,656,656,656,656,650,635,581,553,532,519],"ymouse":[481,481,481,481,481,481,481,481,481,481,481,481,481,481,481,481,481,481,481,481,481,481,481,481,481,481,481,481,481,481,481,470,454,445,432,420,411,400,391,383,373,362,338,322,306,289,259,243,217,199,176,135,119,105,97,90,84,84,84,84,84,84,84,84,84,84],"timestamp_mouse":[11,37,42,63,83,102,122,143,162,183,202,222,242,262,283,303,322,343,362,383,402,422,442,462,482,502,522,541,561,582,602,622,642,661,682,701,723,741,761,782,803,821,842,862,881,901,923,941,962,982,1002,1022,1041,1062,1082,1102,1123,1141,1161,1182,1202,1221,1242,1262,1282,1301],"xSR":741.5,"ySR":469.95,"xT1":424.9,"yT1":0,"xT2":1058.1,"yT2":0,"toosoon":0,"cond_shown":"Incongruent","ratio_trial":200,"L_num":4,"L_den":5,"R_num":6,"R_den":10,"correct_side":1,"subjID":"RafaelDavidJimenezNomesque21","gender":"0","school":"4","age":"10"},{"start_time":1552327515152,"click_time":1552327516747,"finger_time":1552327515947,"fix_duration":403.64762841333646,"trial":45,"RT":795,"MT":800,"sideResp":2,"stimulus":[],"xmouse":[783,783,783,783,783,783,783,783,783,783,783,783,783,783,783,783,783,783,783,783,783,783,783,783,783,783,783,783,783,783,783,783,783,783,783,783,783,784,783,779,778,775,775,777,779,779,776,773,771,769,765,764,764,764,764,767,783,794,807,817,829,840,849,864,887,914,980,1009,1031,1041,1041,1041,1041,1041,1041,1041,1041,1043,1056,1081],"ymouse":[514,514,514,514,514,514,514,514,514,514,514,514,514,514,514,514,514,514,514,514,514,514,514,514,514,514,514,514,514,514,514,514,514,514,514,514,514,481,470,450,444,418,413,404,392,373,330,309,289,271,249,226,214,200,187,170,127,110,97,89,83,77,73,68,62,57,52,52,55,56,56,56,56,56,56,56,56,56,56,57],"timestamp_mouse":[20,44,56,75,95,114,136,156,175,196,215,234,255,274,294,315,335,354,375,396,415,435,456,474,496,515,535,554,575,596,614,636,655,676,695,716,736,754,774,795,816,835,855,875,895,916,934,955,975,995,1015,1035,1055,1075,1096,1115,1135,1154,1175,1195,1215,1235,1255,1274,1294,1315,1335,1355,1375,1395,1415,1435,1456,1475,1496,1515,1534,1554,1574,1595],"xSR":741.5,"ySR":469.95,"xT1":424.9,"yT1":0,"xT2":1058.1,"yT2":0,"toosoon":0,"cond_shown":"Incongruent","ratio_trial":200,"L_num":7,"L_den":10,"R_num":8,"R_den":16,"correct_side":1,"subjID":"RafaelDavidJimenezNomesque21","gender":"0","school":"4","age":"10"},{"start_time":1552327518778,"click_time":1552327520588,"finger_time":1552327519606,"fix_duration":250,"trial":46,"RT":828,"MT":982,"sideResp":1,"stimulus":[],"xmouse":[743,743,743,743,747,749,750,751,751,751,751,751,751,751,751,751,751,751,751,751,751,751,751,751,751,751,751,751,751,751,751,751,751,751,751,751,751,751,751,755,761,764,768,768,768,764,764,764,764,764,764,764,764,764,748,738,722,711,700,671,649,623,596,573,539,526,513,505,503,503,503,503,503,503,505,506,509,511,511,513,513,513,513,513,513,513,513,513,513,513],"ymouse":[489,491,492,495,499,502,502,504,504,504,504,504,504,504,504,504,504,504,504,504,504,504,504,504,504,504,504,504,504,504,504,504,504,504,504,504,504,504,504,476,453,426,391,360,337,303,296,293,293,293,293,293,290,277,251,239,214,200,186,167,160,154,150,145,136,132,128,127,127,127,127,127,127,126,124,122,118,116,113,105,103,103,103,103,103,103,103,103,103,98],"timestamp_mouse":[32,50,69,88,109,129,149,169,189,209,229,248,269,289,309,329,348,369,389,409,429,449,468,490,509,529,548,568,590,608,630,648,670,689,709,728,748,770,789,809,828,850,870,889,910,930,948,968,989,1010,1028,1050,1069,1090,1110,1128,1150,1170,1188,1210,1228,1249,1268,1290,1310,1329,1350,1369,1388,1409,1428,1450,1470,1490,1510,1528,1549,1568,1589,1609,1629,1649,1670,1688,1710,1728,1749,1769,1790,1809],"xSR":741.5,"ySR":469.95,"xT1":424.9,"yT1":0,"xT2":1058.1,"yT2":0,"toosoon":0,"cond_shown":"Congruent","ratio_trial":100,"L_num":9,"L_den":15,"R_num":8,"R_den":16,"correct_side":1,"subjID":"RafaelDavidJimenezNomesque21","gender":"0","school":"4","age":"10"},{"start_time":1552327527393,"click_time":1552327529528,"finger_time":1552327528947,"fix_duration":1344.9661580248862,"trial":47,"RT":1554,"MT":581,"sideResp":2,"stimulus":[],"xmouse":[760,760,760,760,760,760,760,760,760,760,760,760,760,760,760,760,760,760,760,760,760,760,760,760,760,760,760,760,760,760,760,760,760,760,760,760,760,760,760,760,760,760,760,760,760,760,760,760,760,760,760,760,760,760,760,760,760,760,760,760,760,760,760,760,760,760,760,760,760,760,760,760,760,760,760,760,760,760,747,738,727,724,721,721,719,713,709,707,706,706,706,707,707,711,716,737,751,763,777,794,813,857,875,900,944,1041,1086],"ymouse":[475,475,475,475,475,475,475,475,475,475,475,475,475,475,475,475,475,475,475,475,475,475,475,475,475,475,475,475,475,475,475,475,475,475,475,475,475,475,475,475,475,475,475,475,475,475,475,475,475,475,475,475,475,475,475,475,475,475,475,475,475,475,475,475,475,475,475,475,475,475,475,475,475,475,475,475,475,452,405,388,359,350,338,326,313,292,279,268,257,245,230,195,172,161,151,133,122,114,106,96,87,66,58,48,37,19,10],"timestamp_mouse":[14,48,54,74,94,113,134,155,174,194,214,234,255,274,294,313,335,354,375,393,413,433,455,475,494,513,534,555,575,594,614,634,654,674,694,714,734,754,773,793,814,833,854,875,894,914,934,954,973,993,1014,1034,1054,1075,1093,1113,1133,1155,1174,1194,1214,1233,1254,1273,1294,1313,1334,1353,1373,1394,1414,1435,1455,1474,1495,1514,1533,1554,1574,1594,1615,1633,1653,1675,1695,1714,1734,1754,1773,1793,1815,1835,1854,1874,1894,1915,1934,1953,1974,1994,2013,2034,2055,2074,2094,2114,2134],"xSR":741.5,"ySR":469.95,"xT1":424.9,"yT1":0,"xT2":1058.1,"yT2":0,"toosoon":0,"cond_shown":"Congruent","ratio_trial":200,"L_num":13,"L_den":26,"R_num":14,"R_den":20,"correct_side":2,"subjID":"RafaelDavidJimenezNomesque21","gender":"0","school":"4","age":"10"},{"start_time":1552327535119,"click_time":1552327536686,"finger_time":1552327535927,"fix_duration":250,"trial":48,"RT":808,"MT":759,"sideResp":1,"stimulus":[],"xmouse":[750,750,750,750,750,750,750,750,750,750,750,750,750,750,750,750,750,750,750,750,750,750,750,750,750,750,750,750,750,750,750,752,752,756,757,759,759,760,761,763,768,768,768,772,777,776,739,713,713,713,713,713,713,713,713,713,713,713,713,713,713,80,110,172,257,418,467,492,507,511,513,513,513,513,514,515,511,503,490],"ymouse":[522,522,522,522,522,522,522,522,522,522,522,522,522,522,522,522,522,522,522,522,522,522,522,522,522,522,522,522,522,522,522,518,517,509,504,499,498,497,495,491,456,436,418,384,344,189,80,27,27,27,27,27,27,27,27,27,27,27,27,27,27,1,34,73,115,169,177,178,176,174,173,173,173,173,169,139,126,111,94],"timestamp_mouse":[12,38,48,67,88,107,127,149,168,187,208,228,247,267,289,308,327,347,369,388,408,428,449,468,489,507,527,549,567,588,607,628,649,668,687,708,728,747,768,789,808,827,847,869,888,908,929,948,968,988,1008,1028,1047,1068,1087,1109,1128,1148,1168,1188,1208,1228,1247,1267,1287,1308,1327,1348,1369,1389,1408,1427,1448,1467,1488,1508,1527,1547,1567],"xSR":741.5,"ySR":469.95,"xT1":424.9,"yT1":0,"xT2":1058.1,"yT2":0,"toosoon":0,"cond_shown":"Incongruent","ratio_trial":100,"L_num":6,"L_den":12,"R_num":3,"R_den":5,"correct_side":2,"subjID":"RafaelDavidJimenezNomesque21","gender":"0","school":"4","age":"10"},{"start_time":1552327543385,"click_time":1552327544566,"finger_time":1552327543947,"fix_duration":716.3139739127313,"trial":49,"RT":562,"MT":619,"sideResp":2,"stimulus":[],"xmouse":[783,783,783,783,783,783,783,783,783,783,783,783,783,783,783,783,783,783,783,783,783,783,784,784,784,784,784,785,788,789,789,786,776,747,738,718,701,561,238,123,64,52,52,52,52,52,52,52,52,52,52,52,52,1434,1460,1464,1464,1443,1237,1067],"ymouse":[531,531,531,531,531,531,531,531,531,531,531,531,531,531,531,531,531,531,531,531,531,531,529,518,506,500,488,480,459,449,441,432,423,407,402,392,381,333,190,123,55,32,32,32,32,32,32,32,32,32,32,32,32,19,30,33,34,34,34,34],"timestamp_mouse":[12,22,45,63,82,101,122,141,162,181,202,221,242,261,281,302,323,342,361,382,402,422,443,462,481,501,522,542,562,582,602,622,641,663,681,702,723,743,761,781,801,823,841,862,882,901,922,942,961,982,1001,1022,1042,1062,1081,1101,1122,1143,1162,1181],"xSR":741.5,"ySR":469.95,"xT1":424.9,"yT1":0,"xT2":1058.1,"yT2":0,"toosoon":0,"cond_shown":"Incongruent","ratio_trial":300,"L_num":4,"L_den":20,"R_num":2,"R_den":4,"correct_side":2,"subjID":"RafaelDavidJimenezNomesque21","gender":"0","school":"4","age":"10"},{"start_time":1552327547688,"click_time":1552327548627,"finger_time":1552327547886,"fix_duration":819.4410307066004,"trial":50,"RT":198,"MT":741,"sideResp":1,"stimulus":[],"xmouse":[819,819,819,819,819,819,819,819,815,812,808,804,794,790,787,785,783,778,773,772,772,772,772,772,770,764,757,749,723,717,715,715,726,858,1032,1246,1438,1438,1438,1438,1569,1498,1207,1005,783,607,494],"ymouse":[490,490,490,490,490,490,490,487,474,465,452,440,413,403,388,374,359,327,312,307,307,306,291,278,263,248,238,226,183,170,160,151,140,102,98,108,119,119,119,119,146,127,68,41,29,29,40],"timestamp_mouse":[33,38,58,79,99,120,140,158,180,198,218,239,260,278,298,318,338,360,379,399,419,439,460,479,499,519,540,559,578,599,618,640,659,679,699,719,740,761,779,799,818,839,860,879,900,919,939],"xSR":741.5,"ySR":469.95,"xT1":424.9,"yT1":0,"xT2":1058.1,"yT2":0,"toosoon":0,"cond_shown":"Incongruent","ratio_trial":200,"L_num":7,"L_den":15,"R_num":6,"R_den":9,"correct_side":2,"subjID":"RafaelDavidJimenezNomesque21","gender":"0","school":"4","age":"10"},{"start_time":1552327554184,"click_time":1552327555907,"finger_time":1552327554686,"fix_duration":1115.7574412383258,"trial":51,"RT":502,"MT":1221,"sideResp":2,"stimulus":[],"xmouse":[749,749,749,749,749,749,749,749,749,749,749,749,749,749,749,749,749,749,749,749,749,749,749,750,752,753,755,757,758,761,761,761,761,761,761,761,761,761,762,762,762,762,762,762,763,764,766,767,770,773,775,776,777,778,779,779,779,779,779,779,779,779,780,782,788,792,797,800,803,812,832,856,895,945,1023,1023,1023,1023,1023,1023,1023,1023,1023,1023,1023,1023,1108],"ymouse":[474,474,474,474,474,474,474,474,474,474,474,474,474,473,473,473,473,473,473,473,473,473,471,470,470,469,468,467,466,464,464,464,464,464,464,464,464,464,463,463,463,463,461,461,455,451,443,434,420,394,379,371,367,361,347,338,331,321,313,302,298,294,284,270,245,239,235,233,231,222,196,164,118,70,0,0,0,0,0,0,0,0,0,0,0,0,42],"timestamp_mouse":[12,38,42,63,83,104,122,143,164,183,203,222,244,263,283,303,322,344,363,383,403,423,443,463,482,502,523,544,564,584,602,622,643,663,684,703,722,743,763,783,803,823,844,864,884,902,923,944,964,984,1003,1023,1043,1063,1084,1102,1122,1142,1163,1184,1202,1223,1243,1263,1283,1302,1322,1343,1363,1384,1403,1422,1443,1463,1482,1502,1523,1543,1563,1583,1603,1622,1642,1664,1683,1702,1723],"xSR":741.5,"ySR":469.95,"xT1":424.9,"yT1":0,"xT2":1058.1,"yT2":0,"toosoon":0,"cond_shown":"Congruent","ratio_trial":200,"L_num":7,"L_den":21,"R_num":2,"R_den":15,"correct_side":1,"subjID":"RafaelDavidJimenezNomesque21","gender":"0","school":"4","age":"10"},{"start_time":1552327558421,"click_time":1552327560888,"finger_time":1552327559188,"fix_duration":1051.6539033257347,"trial":52,"RT":767,"MT":1700,"sideResp":1,"stimulus":[],"xmouse":[782,782,782,782,782,782,782,782,782,782,782,782,782,782,783,784,784,784,784,784,784,784,784,784,784,784,784,784,784,784,784,784,784,784,780,774,754,747,724,716,715,715,715,715,715,715,715,715,715,715,715,715,715,715,715,715,715,715,715,715,715,715,715,715,715,715,715,715,715,715,715,715,715,715,715,715,715,715,715,715,715,715,715,715,715,715,715,715,715,715,715,715,714,716,719,721,723,724,724,724,724,724,724,725,729,731,738,753,771,775,779,785,791,797,797,797,792,786,749,723,682,642,586,452],"ymouse":[514,514,514,514,514,514,514,514,514,514,514,514,514,514,509,504,504,504,504,504,504,504,504,504,504,504,504,504,504,504,504,504,504,504,511,522,554,563,583,588,589,589,589,589,589,589,589,589,589,589,589,589,589,589,589,589,589,589,589,589,589,589,589,589,589,589,589,589,589,589,589,589,589,589,589,589,589,589,589,589,589,589,589,589,589,589,589,589,589,589,589,589,589,583,579,573,566,562,556,552,548,545,542,537,526,520,506,479,437,421,408,395,378,349,334,321,305,294,262,245,220,194,162,96],"timestamp_mouse":[13,36,45,66,87,105,125,146,167,185,205,227,247,266,287,306,326,347,367,385,405,425,446,467,486,506,525,546,567,586,606,625,647,665,685,706,726,747,767,786,806,825,846,865,886,906,927,947,967,986,1006,1027,1047,1066,1085,1106,1125,1146,1166,1186,1205,1226,1247,1267,1287,1306,1325,1346,1365,1387,1407,1426,1446,1465,1485,1505,1525,1547,1565,1585,1607,1626,1646,1666,1686,1706,1725,1747,1766,1786,1807,1826,1846,1866,1887,1907,1926,1947,1966,1986,2007,2026,2046,2065,2086,2106,2126,2145,2165,2187,2206,2226,2246,2266,2285,2305,2325,2346,2365,2386,2405,2426,2445,2467],"xSR":741.5,"ySR":469.95,"xT1":424.9,"yT1":0,"xT2":1058.1,"yT2":0,"toosoon":0,"cond_shown":"Incongruent","ratio_trial":300,"L_num":4,"L_den":20,"R_num":2,"R_den":4,"correct_side":2,"subjID":"RafaelDavidJimenezNomesque21","gender":"0","school":"4","age":"10"},{"start_time":1552327563853,"click_time":1552327565027,"finger_time":1552327564308,"fix_duration":422.1369449080826,"trial":53,"RT":455,"MT":719,"sideResp":1,"stimulus":[],"xmouse":[789,789,789,789,789,789,789,789,789,789,789,789,789,789,789,789,789,789,789,789,789,789,789,789,789,789,789,789,790,791,792,790,762,715,664,627,604,604,604,610,615,644,688,748,820,937,1179,1179,1179,1179,1179,1179,1179,1179,1179,1179,714,572,514],"ymouse":[529,529,529,529,529,529,529,529,529,529,529,529,529,529,529,529,529,529,529,529,524,491,447,417,389,362,331,285,270,263,260,250,229,202,173,151,137,137,136,132,130,113,93,77,59,39,5,5,5,5,5,5,5,5,5,5,0,10,12],"timestamp_mouse":[14,39,54,75,94,113,135,154,176,193,213,234,254,274,295,314,334,353,375,395,414,434,455,474,495,515,534,554,574,593,613,634,653,674,694,714,735,753,775,793,813,834,854,874,894,913,934,954,973,994,1014,1034,1054,1074,1095,1114,1134,1153,1173],"xSR":741.5,"ySR":469.95,"xT1":424.9,"yT1":0,"xT2":1058.1,"yT2":0,"toosoon":0,"cond_shown":"Incongruent","ratio_trial":100,"L_num":9,"L_den":18,"R_num":6,"R_den":10,"correct_side":2,"subjID":"RafaelDavidJimenezNomesque21","gender":"0","school":"4","age":"10"},{"start_time":1552327570471,"click_time":1552327574527,"finger_time":1552327572227,"fix_duration":502.07849530409334,"trial":54,"RT":1756,"MT":2300,"sideResp":2,"stimulus":[],"xmouse":[761,761,761,761,761,761,761,761,761,761,761,761,761,761,761,761,761,761,761,761,761,761,761,761,761,761,761,761,761,761,761,761,761,764,765,766,768,769,769,769,769,769,769,769,769,769,769,769,769,769,769,769,770,771,771,771,772,772,772,772,772,772,772,772,772,772,772,772,772,772,772,772,772,772,772,772,772,772,772,772,772,772,773,775,775,776,777,778,778,778,778,778,778,778,778,778,778,778,778,778,778,778,779,779,779,779,779,779,779,779,779,779,779,780,780,781,781,781,781,781,781,781,781,781,781,781,781,781,782,783,784,784,784,784,784,784,784,784,784,784,784,784,784,784,7