[{"start_time":1552308734903,"click_time":1552308737349,"finger_time":1552308734914,"fix_duration":250,"trial":0,"RT":11,"MT":2435,"sideResp":2,"stimulus":[],"xmouse":[766,766,766,766,766,766,766,766,766,766,766,766,766,766,766,766,766,766,766,766,766,766,766,766,766,766,766,766,766,766,766,766,766,766,766,766,768,771,775,783,790,804,816,828,835,842,851,866,874,878,883,888,894,896,898,901,906,907,907,908,908,906,899,893,888,879,868,840,822,806,794,786,782,782,782,782,782,782,781,778,775,771,752,745,741,738,736,736,736,735,734,732,724,713,700,688,675,659,658,658,658,658,710,754,789,831,863,893,895,895,895,895,899,900,901,908,923,975,1011,1051,1088,1116,1153],"ymouse":[569,569,569,569,569,569,569,569,569,569,569,569,569,569,569,569,569,569,569,569,569,569,569,569,569,569,569,569,569,569,569,569,569,569,569,569,568,562,553,538,525,492,476,451,432,411,388,340,318,300,285,271,250,242,234,224,203,192,181,167,155,145,134,131,131,134,139,160,174,188,199,207,214,214,214,214,214,214,218,223,228,233,257,266,269,271,271,271,271,271,271,273,282,294,307,317,326,338,340,341,341,343,339,332,324,317,310,303,302,302,302,302,304,305,305,302,290,237,203,169,139,114,58],"timestamp_mouse":[10,26,46,66,86,106,127,147,167,187,207,226,246,266,287,307,326,346,367,387,406,426,446,466,486,506,527,546,566,586,607,626,646,666,687,707,727,746,767,785,807,827,845,867,885,907,927,946,966,987,1006,1025,1047,1066,1085,1105,1127,1146,1166,1187,1207,1226,1247,1266,1285,1307,1326,1347,1367,1387,1407,1425,1446,1466,1487,1506,1527,1546,1566,1587,1605,1627,1646,1666,1686,1706,1727,1746,1766,1786,1806,1825,1847,1866,1885,1906,1926,1946,1966,1987,2005,2026,2045,2067,2086,2106,2127,2147,2166,2186,2206,2226,2247,2267,2286,2306,2326,2347,2366,2386,2407,2426,2445],"xSR":741.5,"ySR":501.8,"xT1":424.9,"yT1":0,"xT2":1058.1,"yT2":0,"toosoon":0,"cond_shown":"Congruent","ratio_trial":300,"L_num":20,"L_den":25,"R_num":9,"R_den":18,"correct_side":1,"subjID":"samanthagomezhamon34","gender":"1","age":"10","school":"4","test":{"fix_dur":[250,1500],"timestim":1000,"targets_dim":[100,100],"targets_relative_coord":[0.3,0.7],"size_stim":[880,420],"start_dim":[100,100],"size_start":[300,300],"size_fix":60,"samplingrate":20,"img_types":["Congruent","Incongruent"],"ratios":[100,200,300],"rep_conds":19,"nTrials":120,"trials_to_rest":500,"Trials_order":[4,53,81,66,64,56,79,18,8,49,99,114,26,109,45,73,65,31,51,102,84,2,71,76,20,13,41,22,28,113,82,40,17,68,78,11,111,5,59,104,100,69,94,7,6,32,36,19,67,88,117,93,15,85,27,50,25,72,75,16,9,96,57,14,35,86,74,110,107,37,63,118,108,55,10,60,116,43,30,77,46,38,42,105,90,47,119,12,0,54,58,34,112,98,29,97,115,70,33,106,61,39,48,23,91,92,83,95,21,80,44,87,89,24,3,103,1,52,62,101],"cond_shown":["Congruent","Incongruent","Incongruent","Congruent","Congruent","Congruent","Incongruent","Congruent","Congruent","Incongruent","Incongruent","Congruent","Congruent","Incongruent","Incongruent","Incongruent","Incongruent","Incongruent","Incongruent","Congruent","Congruent","Congruent","Incongruent","Congruent","Congruent","Incongruent","Incongruent","Congruent","Congruent","Incongruent","Congruent","Congruent","Incongruent","Congruent","Congruent","Incongruent","Incongruent","Incongruent","Incongruent","Congruent","Congruent","Incongruent","Congruent","Incongruent","Congruent","Congruent","Congruent","Incongruent","Incongruent","Congruent","Incongruent","Incongruent","Incongruent","Incongruent","Incongruent","Congruent","Incongruent","Congruent","Incongruent","Congruent","Incongruent","Congruent","Incongruent","Congruent","Incongruent","Congruent","Congruent","Congruent","Incongruent","Incongruent","Incongruent","Congruent","Congruent","Incongruent","Congruent","Congruent","Congruent","Incongruent","Congruent","Incongruent","Congruent","Congruent","Congruent","Incongruent","Congruent","Incongruent","Incongruent","Congruent","Congruent","Congruent","Congruent","Congruent","Congruent","Congruent","Incongruent","Incongruent","Incongruent","Congruent","Incongruent","Congruent","Incongruent","Incongruent","Congruent","Incongruent","Incongruent","Congruent","Incongruent","Incongruent","Incongruent","Congruent","Congruent","Incongruent","Incongruent","Congruent","Incongruent","Incongruent","Incongruent","Congruent","Congruent","Incongruent"],"ratio_trial":[300,300,200,100,300,200,100,100,200,100,200,100,200,100,200,100,300,100,200,100,100,200,300,300,200,100,300,300,300,300,300,300,300,200,100,300,200,300,300,200,300,200,300,100,100,200,100,100,100,300,200,200,200,100,200,200,100,100,200,300,200,100,200,200,300,200,200,200,300,100,200,300,100,100,300,100,200,100,100,300,300,200,100,200,100,300,300,100,100,100,300,300,300,200,300,100,100,300,200,300,100,200,100,300,100,200,300,300,200,200,200,200,300,100,200,100,100,300,200,300],"left_num":[20,7,7,11,12,6,2,4,8,6,3,11,11,2,4,13,7,10,14,15,2,16,8,5,4,2,4,1,2,4,20,12,1,6,6,4,7,7,4,3,3,7,20,2,1,9,9,13,6,11,7,4,7,10,7,12,2,7,4,1,4,3,11,8,1,6,3,3,13,12,4,11,12,8,1,10,7,10,7,2,1,16,9,3,10,8,4,9,9,4,4,20,11,12,13,17,6,20,1,11,17,1,2,13,9,21,3,1,9,4,12,14,13,2,1,13,12,12,1,4],"right_num":[9,8,8,6,2,11,8,15,3,3,11,6,3,8,6,6,8,9,6,13,6,9,9,6,3,6,8,7,12,8,5,2,2,7,5,2,4,8,8,14,4,8,5,8,18,4,8,6,7,1,6,1,6,9,12,6,8,15,14,8,6,2,3,2,2,7,14,7,12,2,14,1,13,1,7,3,18,8,9,6,7,12,8,11,3,9,6,8,8,15,1,8,4,6,12,10,11,8,3,2,10,2,6,12,6,2,4,3,8,3,6,6,12,11,2,12,2,2,21,6],"left_den":[25,10,10,22,24,20,4,10,15,12,4,22,22,4,5,26,10,25,30,25,5,30,10,25,8,4,5,20,10,5,25,24,2,12,20,20,15,10,5,10,6,10,25,4,2,20,15,26,10,22,15,30,15,25,10,20,4,14,6,30,5,6,20,15,2,12,10,10,26,30,6,22,30,20,20,25,15,25,14,4,20,20,15,4,25,10,5,15,15,10,10,25,22,15,26,30,10,25,2,22,30,3,5,26,18,30,6,2,15,8,15,30,26,5,3,26,30,24,2,5],"right_den":[18,20,16,15,10,22,20,30,9,5,20,15,10,20,10,10,20,18,9,26,12,27,18,12,10,15,16,20,24,16,10,10,10,10,25,4,6,20,16,28,5,16,10,20,30,16,16,10,14,5,9,3,9,18,24,15,20,25,30,24,10,5,4,6,10,10,28,14,15,4,30,5,26,2,20,10,27,16,15,30,20,20,16,20,10,18,12,16,16,30,10,16,20,10,15,15,22,16,10,10,15,15,12,15,10,4,20,15,10,10,10,9,15,22,15,20,4,10,30,12],"correct_side":[1,1,1,1,1,2,1,2,1,2,1,1,1,1,1,2,1,2,2,1,2,1,1,2,1,1,1,2,2,1,1,1,1,2,1,2,2,1,1,2,2,1,1,1,2,1,1,2,1,1,2,2,2,2,1,1,1,2,1,2,1,1,2,1,1,2,2,2,2,2,1,1,2,2,2,1,2,2,2,1,2,1,1,1,1,1,1,1,1,2,1,1,1,1,2,2,1,1,1,1,2,1,2,2,2,1,1,1,2,1,1,2,2,2,1,2,2,1,2,1],"img_shown":["img2/300/Congruent/L/C_Dist_300_LN_20_LD_25_RN_9_RD_18_0.png","img2/300/Incongruent/L/I_Dist_300_LN_7_LD_10_RN_8_RD_20_0.png","img2/200/Incongruent/L/I_Dist_200_LN_7_LD_10_RN_8_RD_16_0.png","img2/100/Congruent/L/C_Dist_100_LN_11_LD_22_RN_6_RD_15_0.png","img2/300/Congruent/L/C_Dist_300_LN_12_LD_24_RN_2_RD_10_0.png","img2/200/Congruent/R/C_Dist_200_LN_6_LD_20_RN_11_RD_22_1.png","img2/100/Incongruent/L/I_Dist_100_LN_2_LD_4_RN_8_RD_20_0.png","img2/100/Congruent/R/C_Dist_100_LN_4_LD_10_RN_15_RD_30_1.png","img2/200/Congruent/L/C_Dist_200_LN_8_LD_15_RN_3_RD_9_0.png","img2/100/Incongruent/R/I_Dist_100_LN_6_LD_12_RN_3_RD_5_1.png","img2/200/Incongruent/L/I_Dist_200_LN_3_LD_4_RN_11_RD_20_0.png","img2/100/Congruent/L/C_Dist_100_LN_11_LD_22_RN_6_RD_15_0.png","img2/200/Congruent/L/C_Dist_200_LN_11_LD_22_RN_3_RD_10_0.png","img2/100/Incongruent/L/I_Dist_100_LN_2_LD_4_RN_8_RD_20_0.png","img2/200/Incongruent/L/I_Dist_200_LN_4_LD_5_RN_6_RD_10_0.png","img2/100/Incongruent/R/I_Dist_100_LN_13_LD_26_RN_6_RD_10_1.png","img2/300/Incongruent/L/I_Dist_300_LN_7_LD_10_RN_8_RD_20_0.png","img2/100/Incongruent/R/I_Dist_100_LN_10_LD_25_RN_9_RD_18_1.png","img2/200/Incongruent/R/I_Dist_200_LN_14_LD_30_RN_6_RD_9_1.png","img2/100/Congruent/L/C_Dist_100_LN_15_LD_25_RN_13_RD_26_0.png","img2/100/Congruent/R/C_Dist_100_LN_2_LD_5_RN_6_RD_12_1.png","img2/200/Congruent/L/C_Dist_200_LN_16_LD_30_RN_9_RD_27_0.png","img2/300/Incongruent/L/I_Dist_300_LN_8_LD_10_RN_9_RD_18_0.png","img2/300/Congruent/R/C_Dist_300_LN_5_LD_25_RN_6_RD_12_1.png","img2/200/Congruent/L/C_Dist_200_LN_4_LD_8_RN_3_RD_10_0.png","img2/100/Incongruent/L/I_Dist_100_LN_2_LD_4_RN_6_RD_15_0.png","img2/300/Incongruent/L/I_Dist_300_LN_4_LD_5_RN_8_RD_16_0.png","img2/300/Congruent/R/C_Dist_300_LN_1_LD_20_RN_7_RD_20_1.png","img2/300/Congruent/R/C_Dist_300_LN_2_LD_10_RN_12_RD_24_1.png","img2/300/Incongruent/L/I_Dist_300_LN_4_LD_5_RN_8_RD_16_0.png","img2/300/Congruent/L/C_Dist_300_LN_20_LD_25_RN_5_RD_10_0.png","img2/300/Congruent/L/C_Dist_300_LN_12_LD_24_RN_2_RD_10_0.png","img2/300/Incongruent/L/I_Dist_300_LN_1_LD_2_RN_2_RD_10_0.png","img2/200/Congruent/R/C_Dist_200_LN_6_LD_12_RN_7_RD_10_1.png","img2/100/Congruent/L/C_Dist_100_LN_6_LD_20_RN_5_RD_25_0.png","img2/300/Incongruent/R/I_Dist_300_LN_4_LD_20_RN_2_RD_4_1.png","img2/200/Incongruent/R/I_Dist_200_LN_7_LD_15_RN_4_RD_6_1.png","img2/300/Incongruent/L/I_Dist_300_LN_7_LD_10_RN_8_RD_20_0.png","img2/300/Incongruent/L/I_Dist_300_LN_4_LD_5_RN_8_RD_16_0.png","img2/200/Congruent/R/C_Dist_200_LN_3_LD_10_RN_14_RD_28_1.png","img2/300/Congruent/R/C_Dist_300_LN_3_LD_6_RN_4_RD_5_1.png","img2/200/Incongruent/L/I_Dist_200_LN_7_LD_10_RN_8_RD_16_0.png","img2/300/Congruent/L/C_Dist_300_LN_20_LD_25_RN_5_RD_10_0.png","img2/100/Incongruent/L/I_Dist_100_LN_2_LD_4_RN_8_RD_20_0.png","img2/100/Congruent/R/C_Dist_100_LN_1_LD_2_RN_18_RD_30_1.png","img2/200/Congruent/L/C_Dist_200_LN_9_LD_20_RN_4_RD_16_0.png","img2/100/Congruent/L/C_Dist_100_LN_9_LD_15_RN_8_RD_16_0.png","img2/100/Incongruent/R/I_Dist_100_LN_13_LD_26_RN_6_RD_10_1.png","img2/100/Incongruent/L/I_Dist_100_LN_6_LD_10_RN_7_RD_14_0.png","img2/300/Congruent/L/C_Dist_300_LN_11_LD_22_RN_1_RD_5_0.png","img2/200/Incongruent/R/I_Dist_200_LN_7_LD_15_RN_6_RD_9_1.png","img2/200/Incongruent/R/I_Dist_200_LN_4_LD_30_RN_1_RD_3_1.png","img2/200/Incongruent/R/I_Dist_200_LN_7_LD_15_RN_6_RD_9_1.png","img2/100/Incongruent/R/I_Dist_100_LN_10_LD_25_RN_9_RD_18_1.png","img2/200/Incongruent/L/I_Dist_200_LN_7_LD_10_RN_12_RD_24_0.png","img2/200/Congruent/L/C_Dist_200_LN_12_LD_20_RN_6_RD_15_0.png","img2/100/Incongruent/L/I_Dist_100_LN_2_LD_4_RN_8_RD_20_0.png","img2/100/Congruent/R/C_Dist_100_LN_7_LD_14_RN_15_RD_25_1.png","img2/200/Incongruent/L/I_Dist_200_LN_4_LD_6_RN_14_RD_30_0.png","img2/300/Congruent/R/C_Dist_300_LN_1_LD_30_RN_8_RD_24_1.png","img2/200/Incongruent/L/I_Dist_200_LN_4_LD_5_RN_6_RD_10_0.png","img2/100/Congruent/L/C_Dist_100_LN_3_LD_6_RN_2_RD_5_0.png","img2/200/Incongruent/R/I_Dist_200_LN_11_LD_20_RN_3_RD_4_1.png","img2/200/Congruent/L/C_Dist_200_LN_8_LD_15_RN_2_RD_6_0.png","img2/300/Incongruent/L/I_Dist_300_LN_1_LD_2_RN_2_RD_10_0.png","img2/200/Congruent/R/C_Dist_200_LN_6_LD_12_RN_7_RD_10_1.png","img2/200/Congruent/R/C_Dist_200_LN_3_LD_10_RN_14_RD_28_1.png","img2/200/Congruent/R/C_Dist_200_LN_3_LD_10_RN_7_RD_14_1.png","img2/300/Incongruent/R/I_Dist_300_LN_13_LD_26_RN_12_RD_15_1.png","img2/100/Incongruent/R/I_Dist_100_LN_12_LD_30_RN_2_RD_4_1.png","img2/200/Incongruent/L/I_Dist_200_LN_4_LD_6_RN_14_RD_30_0.png","img2/300/Congruent/L/C_Dist_300_LN_11_LD_22_RN_1_RD_5_0.png","img2/100/Congruent/R/C_Dist_100_LN_12_LD_30_RN_13_RD_26_1.png","img2/100/Incongruent/R/I_Dist_100_LN_8_LD_20_RN_1_RD_2_1.png","img2/300/Congruent/R/C_Dist_300_LN_1_LD_20_RN_7_RD_20_1.png","img2/100/Congruent/L/C_Dist_100_LN_10_LD_25_RN_3_RD_10_0.png","img2/200/Congruent/R/C_Dist_200_LN_7_LD_15_RN_18_RD_27_1.png","img2/100/Incongruent/R/I_Dist_100_LN_10_LD_25_RN_8_RD_16_1.png","img2/100/Congruent/R/C_Dist_100_LN_7_LD_14_RN_9_RD_15_1.png","img2/300/Incongruent/L/I_Dist_300_LN_2_LD_4_RN_6_RD_30_0.png","img2/300/Congruent/R/C_Dist_300_LN_1_LD_20_RN_7_RD_20_1.png","img2/200/Congruent/L/C_Dist_200_LN_16_LD_20_RN_12_RD_20_0.png","img2/100/Congruent/L/C_Dist_100_LN_9_LD_15_RN_8_RD_16_0.png","img2/200/Incongruent/L/I_Dist_200_LN_3_LD_4_RN_11_RD_20_0.png","img2/100/Congruent/L/C_Dist_100_LN_10_LD_25_RN_3_RD_10_0.png","img2/300/Incongruent/L/I_Dist_300_LN_8_LD_10_RN_9_RD_18_0.png","img2/300/Incongruent/L/I_Dist_300_LN_4_LD_5_RN_6_RD_12_0.png","img2/100/Congruent/L/C_Dist_100_LN_9_LD_15_RN_8_RD_16_0.png","img2/100/Congruent/L/C_Dist_100_LN_9_LD_15_RN_8_RD_16_0.png","img2/100/Congruent/R/C_Dist_100_LN_4_LD_10_RN_15_RD_30_1.png","img2/300/Congruent/L/C_Dist_300_LN_4_LD_10_RN_1_RD_10_0.png","img2/300/Congruent/L/C_Dist_300_LN_20_LD_25_RN_8_RD_16_0.png","img2/300/Congruent/L/C_Dist_300_LN_11_LD_22_RN_4_RD_20_0.png","img2/200/Congruent/L/C_Dist_200_LN_12_LD_15_RN_6_RD_10_0.png","img2/300/Incongruent/R/I_Dist_300_LN_13_LD_26_RN_12_RD_15_1.png","img2/100/Incongruent/R/I_Dist_100_LN_17_LD_30_RN_10_RD_15_1.png","img2/100/Incongruent/L/I_Dist_100_LN_6_LD_10_RN_11_RD_22_0.png","img2/300/Congruent/L/C_Dist_300_LN_20_LD_25_RN_8_RD_16_0.png","img2/200/Incongruent/L/I_Dist_200_LN_1_LD_2_RN_3_RD_10_0.png","img2/300/Congruent/L/C_Dist_300_LN_11_LD_22_RN_2_RD_10_0.png","img2/100/Incongruent/R/I_Dist_100_LN_17_LD_30_RN_10_RD_15_1.png","img2/200/Incongruent/L/I_Dist_200_LN_1_LD_3_RN_2_RD_15_0.png","img2/100/Congruent/R/C_Dist_100_LN_2_LD_5_RN_6_RD_12_1.png","img2/300/Incongruent/R/I_Dist_300_LN_13_LD_26_RN_12_RD_15_1.png","img2/100/Incongruent/R/I_Dist_100_LN_9_LD_18_RN_6_RD_10_1.png","img2/200/Congruent/L/C_Dist_200_LN_21_LD_30_RN_2_RD_4_0.png","img2/300/Incongruent/L/I_Dist_300_LN_3_LD_6_RN_4_RD_20_0.png","img2/300/Incongruent/L/I_Dist_300_LN_1_LD_2_RN_3_RD_15_0.png","img2/200/Incongruent/R/I_Dist_200_LN_9_LD_15_RN_8_RD_10_1.png","img2/200/Congruent/L/C_Dist_200_LN_4_LD_8_RN_3_RD_10_0.png","img2/200/Congruent/L/C_Dist_200_LN_12_LD_15_RN_6_RD_10_0.png","img2/200/Incongruent/R/I_Dist_200_LN_14_LD_30_RN_6_RD_9_1.png","img2/300/Incongruent/R/I_Dist_300_LN_13_LD_26_RN_12_RD_15_1.png","img2/100/Congruent/R/C_Dist_100_LN_2_LD_5_RN_11_RD_22_1.png","img2/200/Incongruent/L/I_Dist_200_LN_1_LD_3_RN_2_RD_15_0.png","img2/100/Incongruent/R/I_Dist_100_LN_13_LD_26_RN_12_RD_20_1.png","img2/100/Incongruent/R/I_Dist_100_LN_12_LD_30_RN_2_RD_4_1.png","img2/300/Congruent/L/C_Dist_300_LN_12_LD_24_RN_2_RD_10_0.png","img2/200/Congruent/R/C_Dist_200_LN_1_LD_2_RN_21_RD_30_1.png","img2/300/Incongruent/L/I_Dist_300_LN_4_LD_5_RN_6_RD_12_0.png"],"dist100_C":[["C_Dist_100_LN_10_LD_25_RN_3_RD_10_0.png","C_Dist_100_LN_11_LD_22_RN_4_RD_10_0.png","C_Dist_100_LN_11_LD_22_RN_6_RD_15_0.png","C_Dist_100_LN_15_LD_25_RN_13_RD_26_0.png","C_Dist_100_LN_3_LD_6_RN_2_RD_5_0.png","C_Dist_100_LN_6_LD_20_RN_5_RD_25_0.png","C_Dist_100_LN_8_LD_16_RN_2_RD_5_0.png","C_Dist_100_LN_9_LD_15_RN_8_RD_16_0.png"],["C_Dist_100_LN_1_LD_2_RN_18_RD_30_1.png","C_Dist_100_LN_1_LD_2_RN_3_RD_5_1.png","C_Dist_100_LN_12_LD_30_RN_13_RD_26_1.png","C_Dist_100_LN_2_LD_5_RN_11_RD_22_1.png","C_Dist_100_LN_2_LD_5_RN_6_RD_12_1.png","C_Dist_100_LN_3_LD_20_RN_4_RD_16_1.png","C_Dist_100_LN_4_LD_10_RN_15_RD_30_1.png","C_Dist_100_LN_4_LD_8_RN_6_RD_10_1.png","C_Dist_100_LN_6_LD_12_RN_15_RD_25_1.png","C_Dist_100_LN_7_LD_14_RN_15_RD_25_1.png","C_Dist_100_LN_7_LD_14_RN_9_RD_15_1.png"]],"dist100_I":[["I_Dist_100_LN_1_LD_2_RN_8_RD_20_0.png","I_Dist_100_LN_2_LD_4_RN_6_RD_15_0.png","I_Dist_100_LN_2_LD_4_RN_8_RD_20_0.png","I_Dist_100_LN_3_LD_5_RN_11_RD_22_0.png","I_Dist_100_LN_3_LD_5_RN_8_RD_16_0.png","I_Dist_100_LN_3_LD_6_RN_4_RD_10_0.png","I_Dist_100_LN_3_LD_9_RN_7_RD_30_0.png","I_Dist_100_LN_4_LD_8_RN_8_RD_20_0.png","I_Dist_100_LN_6_LD_10_RN_11_RD_22_0.png","I_Dist_100_LN_6_LD_10_RN_13_RD_26_0.png","I_Dist_100_LN_6_LD_10_RN_7_RD_14_0.png","I_Dist_100_LN_9_LD_10_RN_20_RD_25_0.png","I_Dist_100_LN_9_LD_15_RN_13_RD_26_0.png","I_Dist_100_LN_9_LD_15_RN_14_RD_28_0.png"],["I_Dist_100_LN_10_LD_25_RN_8_RD_16_1.png","I_Dist_100_LN_10_LD_25_RN_9_RD_18_1.png","I_Dist_100_LN_11_LD_22_RN_9_RD_15_1.png","I_Dist_100_LN_12_LD_24_RN_9_RD_15_1.png","I_Dist_100_LN_12_LD_30_RN_2_RD_4_1.png","I_Dist_100_LN_13_LD_26_RN_12_RD_20_1.png","I_Dist_100_LN_13_LD_26_RN_6_RD_10_1.png","I_Dist_100_LN_17_LD_30_RN_10_RD_15_1.png","I_Dist_100_LN_6_LD_12_RN_3_RD_5_1.png","I_Dist_100_LN_8_LD_16_RN_6_RD_10_1.png","I_Dist_100_LN_8_LD_20_RN_1_RD_2_1.png","I_Dist_100_LN_9_LD_18_RN_6_RD_10_1.png"]],"dist100_S":[["E_Dist_100_LN_2_LD_12_RN_2_RD_30_0.png","E_Dist_100_LN_6_LD_10_RN_6_RD_12_0.png"],["E_Dist_100_LN_6_LD_12_RN_6_RD_10_1.png"]],"dist200_C":[["C_Dist_200_LN_11_LD_22_RN_3_RD_10_0.png","C_Dist_200_LN_12_LD_15_RN_6_RD_10_0.png","C_Dist_200_LN_12_LD_20_RN_6_RD_15_0.png","C_Dist_200_LN_14_LD_28_RN_6_RD_20_0.png","C_Dist_200_LN_15_LD_25_RN_4_RD_10_0.png","C_Dist_200_LN_16_LD_20_RN_12_RD_20_0.png","C_Dist_200_LN_16_LD_30_RN_9_RD_27_0.png","C_Dist_200_LN_20_LD_25_RN_9_RD_15_0.png","C_Dist_200_LN_21_LD_30_RN_2_RD_4_0.png","C_Dist_200_LN_4_LD_10_RN_3_RD_15_0.png","C_Dist_200_LN_4_LD_8_RN_3_RD_10_0.png","C_Dist_200_LN_6_LD_15_RN_3_RD_15_0.png","C_Dist_200_LN_7_LD_21_RN_2_RD_15_0.png","C_Dist_200_LN_8_LD_15_RN_2_RD_6_0.png","C_Dist_200_LN_8_LD_15_RN_3_RD_9_0.png","C_Dist_200_LN_8_LD_15_RN_7_RD_21_0.png","C_Dist_200_LN_9_LD_20_RN_4_RD_16_0.png"],["C_Dist_200_LN_1_LD_2_RN_21_RD_30_1.png","C_Dist_200_LN_13_LD_26_RN_14_RD_20_1.png","C_Dist_200_LN_3_LD_10_RN_11_RD_22_1.png","C_Dist_200_LN_3_LD_10_RN_14_RD_28_1.png","C_Dist_200_LN_3_LD_10_RN_7_RD_14_1.png","C_Dist_200_LN_3_LD_12_RN_9_RD_20_1.png","C_Dist_200_LN_3_LD_6_RN_14_RD_20_1.png","C_Dist_200_LN_5_LD_10_RN_14_RD_20_1.png","C_Dist_200_LN_6_LD_12_RN_7_RD_10_1.png","C_Dist_200_LN_6_LD_20_RN_11_RD_22_1.png","C_Dist_200_LN_7_LD_15_RN_18_RD_27_1.png","C_Dist_200_LN_9_LD_30_RN_13_RD_26_1.png"]],"dist200_I":[["I_Dist_200_LN_1_LD_2_RN_3_RD_10_0.png","I_Dist_200_LN_1_LD_3_RN_2_RD_15_0.png","I_Dist_200_LN_3_LD_4_RN_11_RD_20_0.png","I_Dist_200_LN_4_LD_5_RN_6_RD_10_0.png","I_Dist_200_LN_4_LD_6_RN_14_RD_30_0.png","I_Dist_200_LN_7_LD_10_RN_12_RD_24_0.png","I_Dist_200_LN_7_LD_10_RN_14_RD_28_0.png","I_Dist_200_LN_7_LD_10_RN_8_RD_16_0.png"],["I_Dist_200_LN_11_LD_20_RN_3_RD_4_1.png","I_Dist_200_LN_14_LD_30_RN_12_RD_18_1.png","I_Dist_200_LN_14_LD_30_RN_6_RD_9_1.png","I_Dist_200_LN_3_LD_10_RN_1_RD_2_1.png","I_Dist_200_LN_4_LD_30_RN_1_RD_3_1.png","I_Dist_200_LN_6_LD_20_RN_3_RD_6_1.png","I_Dist_200_LN_7_LD_15_RN_4_RD_6_1.png","I_Dist_200_LN_7_LD_15_RN_6_RD_9_1.png","I_Dist_200_LN_9_LD_15_RN_8_RD_10_1.png"]],"dist200_S":[["E_Dist_200_LN_3_LD_6_RN_3_RD_10_0.png"],["E_Dist_200_LN_3_LD_10_RN_3_RD_6_1.png"]],"dist300_C":[["C_Dist_300_LN_11_LD_22_RN_1_RD_5_0.png","C_Dist_300_LN_11_LD_22_RN_2_RD_10_0.png","C_Dist_300_LN_11_LD_22_RN_4_RD_20_0.png","C_Dist_300_LN_12_LD_24_RN_2_RD_10_0.png","C_Dist_300_LN_18_LD_20_RN_9_RD_15_0.png","C_Dist_300_LN_20_LD_25_RN_13_RD_26_0.png","C_Dist_300_LN_20_LD_25_RN_14_RD_28_0.png","C_Dist_300_LN_20_LD_25_RN_5_RD_10_0.png","C_Dist_300_LN_20_LD_25_RN_8_RD_16_0.png","C_Dist_300_LN_20_LD_25_RN_9_RD_18_0.png","C_Dist_300_LN_24_LD_30_RN_2_RD_4_0.png","C_Dist_300_LN_24_LD_30_RN_8_RD_16_0.png","C_Dist_300_LN_3_LD_6_RN_2_RD_10_0.png","C_Dist_300_LN_4_LD_10_RN_1_RD_10_0.png","C_Dist_300_LN_4_LD_5_RN_2_RD_4_0.png","C_Dist_300_LN_8_LD_16_RN_1_RD_5_0.png","C_Dist_300_LN_9_LD_10_RN_3_RD_5_0.png"],["C_Dist_300_LN_1_LD_20_RN_7_RD_20_1.png","C_Dist_300_LN_1_LD_3_RN_19_RD_30_1.png","C_Dist_300_LN_1_LD_30_RN_8_RD_24_1.png","C_Dist_300_LN_1_LD_5_RN_11_RD_22_1.png","C_Dist_300_LN_1_LD_5_RN_3_RD_6_1.png","C_Dist_300_LN_1_LD_5_RN_6_RD_12_1.png","C_Dist_300_LN_2_LD_10_RN_12_RD_24_1.png","C_Dist_300_LN_2_LD_20_RN_10_RD_25_1.png","C_Dist_300_LN_3_LD_12_RN_11_RD_20_1.png","C_Dist_300_LN_3_LD_6_RN_4_RD_5_1.png","C_Dist_300_LN_4_LD_20_RN_13_RD_26_1.png","C_Dist_300_LN_5_LD_25_RN_6_RD_12_1.png","C_Dist_300_LN_5_LD_25_RN_7_RD_14_1.png","C_Dist_300_LN_7_LD_14_RN_20_RD_25_1.png","C_Dist_300_LN_8_LD_15_RN_10_RD_12_1.png"]],"dist300_I":[["I_Dist_300_LN_1_LD_2_RN_2_RD_10_0.png","I_Dist_300_LN_1_LD_2_RN_3_RD_15_0.png","I_Dist_300_LN_2_LD_4_RN_6_RD_30_0.png","I_Dist_300_LN_3_LD_6_RN_4_RD_20_0.png","I_Dist_300_LN_4_LD_5_RN_6_RD_12_0.png","I_Dist_300_LN_4_LD_5_RN_8_RD_16_0.png","I_Dist_300_LN_7_LD_10_RN_8_RD_20_0.png","I_Dist_300_LN_8_LD_10_RN_14_RD_28_0.png","I_Dist_300_LN_8_LD_10_RN_9_RD_18_0.png"],["I_Dist_300_LN_13_LD_26_RN_12_RD_15_1.png","I_Dist_300_LN_4_LD_20_RN_2_RD_4_1.png"]],"dist300_S":[["E_Dist_300_LN_9_LD_12_RN_9_RD_20_0.png"],["E_Dist_300_LN_18_LD_30_RN_18_RD_20_1.png","E_Dist_300_LN_3_LD_10_RN_3_RD_5_1.png","E_Dist_300_LN_9_LD_20_RN_9_RD_12_1.png"]],"dist500_C":[["C_Dist_500_LN_10_LD_13_RN_7_RD_26_0.png","C_Dist_500_LN_10_LD_15_RN_4_RD_24_0.png","C_Dist_500_LN_12_LD_16_RN_3_RD_12_0.png","C_Dist_500_LN_12_LD_18_RN_4_RD_24_0.png","C_Dist_500_LN_15_LD_18_RN_5_RD_15_0.png","C_Dist_500_LN_15_LD_20_RN_1_RD_4_0.png","C_Dist_500_LN_18_LD_27_RN_1_RD_6_0.png","C_Dist_500_LN_20_LD_24_RN_1_RD_3_0.png","C_Dist_500_LN_20_LD_24_RN_3_RD_9_0.png","C_Dist_500_LN_20_LD_24_RN_7_RD_21_0.png","C_Dist_500_LN_20_LD_28_RN_3_RD_14_0.png","C_Dist_500_LN_21_LD_28_RN_6_RD_24_0.png","C_Dist_500_LN_22_LD_28_RN_2_RD_7_0.png","C_Dist_500_LN_25_LD_30_RN_9_RD_27_0.png","C_Dist_500_LN_4_LD_6_RN_1_RD_6_0.png","C_Dist_500_LN_5_LD_6_RN_2_RD_6_0.png","C_Dist_500_LN_6_LD_9_RN_1_RD_6_0.png","C_Dist_500_LN_7_LD_10_RN_1_RD_5_0.png","C_Dist_500_LN_8_LD_12_RN_1_RD_6_0.png","C_Dist_500_LN_8_LD_12_RN_4_RD_24_0.png"],["C_Dist_500_LN_1_LD_4_RN_12_RD_16_1.png","C_Dist_500_LN_1_LD_4_RN_9_RD_12_1.png","C_Dist_500_LN_1_LD_9_RN_11_RD_18_1.png","C_Dist_500_LN_10_LD_24_RN_22_RD_24_1.png","C_Dist_500_LN_2_LD_12_RN_10_RD_15_1.png","C_Dist_500_LN_2_LD_12_RN_12_RD_18_1.png","C_Dist_500_LN_2_LD_12_RN_4_RD_6_1.png","C_Dist_500_LN_2_LD_24_RN_7_RD_12_1.png","C_Dist_500_LN_2_LD_5_RN_18_RD_20_1.png","C_Dist_500_LN_2_LD_5_RN_9_RD_10_1.png","C_Dist_500_LN_2_LD_8_RN_12_RD_16_1.png","C_Dist_500_LN_2_LD_8_RN_21_RD_28_1.png","C_Dist_500_LN_3_LD_10_RN_4_RD_5_1.png","C_Dist_500_LN_3_LD_12_RN_15_RD_20_1.png","C_Dist_500_LN_3_LD_30_RN_6_RD_10_1.png","C_Dist_500_LN_3_LD_8_RN_14_RD_16_1.png","C_Dist_500_LN_4_LD_16_RN_15_RD_20_1.png","C_Dist_500_LN_4_LD_24_RN_12_RD_18_1.png","C_Dist_500_LN_5_LD_14_RN_6_RD_7_1.png","C_Dist_500_LN_7_LD_21_RN_20_RD_24_1.png","C_Dist_500_LN_7_LD_28_RN_12_RD_16_1.png","C_Dist_500_LN_7_LD_28_RN_9_RD_12_1.png","C_Dist_500_LN_9_LD_27_RN_20_RD_24_1.png"]],"dist500_I":[["I_Dist_500_LN_2_LD_3_RN_4_RD_24_0.png","I_Dist_500_LN_5_LD_6_RN_6_RD_18_0.png","I_Dist_500_LN_7_LD_8_RN_9_RD_24_0.png"],["I_Dist_500_LN_7_LD_21_RN_5_RD_6_1.png"]],"dist500_S":[["E_Dist_500_LN_6_LD_8_RN_6_RD_24_0.png"],["E_Dist_500_LN_2_LD_12_RN_2_RD_3_1.png","E_Dist_500_LN_6_LD_24_RN_6_RD_8_1.png"]]}},{"start_time":1552308743861,"click_time":1552308747431,"finger_time":1552308746909,"fix_duration":250,"trial":1,"RT":3048,"MT":522,"sideResp":2,"stimulus":[],"xmouse":[774,774,774,774,774,774,774,774,774,774,774,774,774,774,774,774,774,774,774,774,774,774,774,774,774,774,774,774,774,774,774,774,774,774,774,774,774,774,774,774,774,774,774,774,774,774,774,774,774,774,774,774,774,774,774,774,774,774,774,774,774,774,774,774,774,774,774,774,774,774,774,774,774,774,774,774,774,774,774,774,774,774,774,774,774,774,774,774,774,774,774,774,774,774,774,774,774,774,774,774,774,774,774,774,774,774,774,774,774,774,774,774,774,774,774,774,774,774,774,774,774,774,774,774,774,774,774,774,774,774,774,774,774,774,774,774,774,774,774,774,774,774,774,774,774,774,775,776,777,780,785,790,798,809,819,864,900,939,984,1019,1064,1070,1073,1074,1074,1074,1074,1074,1074,1074,1074,1074,1074,1074,1075,1076,1078,1080,1082],"ymouse":[615,615,615,615,615,615,615,615,615,615,615,615,615,615,615,615,615,615,615,615,615,615,615,615,615,615,615,615,615,615,615,615,615,615,615,615,615,615,615,615,615,615,615,615,615,615,615,615,615,615,615,615,615,615,615,615,615,615,615,615,615,615,615,615,615,615,615,615,615,615,615,615,615,615,615,615,615,615,615,615,615,615,615,615,615,615,615,615,615,615,615,615,615,615,615,615,615,615,615,615,615,615,615,615,615,615,615,615,615,615,615,615,615,615,615,615,615,615,615,615,615,615,615,615,615,615,615,615,615,615,615,615,615,615,615,615,615,615,615,615,615,615,615,615,615,615,610,608,604,598,587,579,567,551,533,464,410,350,287,236,161,146,135,129,125,120,120,120,120,120,120,120,120,120,119,116,110,102,92],"timestamp_mouse":[10,30,61,68,88,109,128,148,169,188,208,228,248,269,287,308,329,349,369,389,408,429,449,469,489,509,529,549,567,587,609,629,648,669,688,708,728,748,769,789,808,829,849,869,889,908,928,947,967,989,1009,1028,1048,1067,1087,1107,1128,1149,1169,1188,1209,1229,1249,1268,1287,1309,1329,1349,1368,1388,1408,1427,1448,1468,1488,1509,1528,1548,1568,1588,1608,1627,1648,1668,1689,1708,1729,1747,1769,1787,1807,1828,1848,1868,1889,1909,1928,1949,1969,1988,2008,2028,2049,2068,2089,2108,2129,2148,2168,2188,2208,2228,2249,2269,2289,2309,2328,2349,2368,2389,2409,2429,2449,2469,2489,2509,2528,2548,2569,2588,2609,2629,2648,2669,2689,2709,2728,2747,2767,2788,2809,2829,2849,2868,2887,2909,2928,2947,2968,2989,3008,3028,3048,3068,3087,3108,3128,3148,3168,3188,3208,3230,3248,3268,3288,3308,3328,3348,3367,3389,3409,3429,3449,3469,3489,3508,3528,3548,3569],"xSR":741.5,"ySR":573.95,"xT1":424.9,"yT1":0,"xT2":1058.1,"yT2":0,"toosoon":0,"cond_shown":"Incongruent","ratio_trial":300,"L_num":7,"L_den":10,"R_num":8,"R_den":20,"correct_side":1,"subjID":"samanthagomezhamon34","gender":"1","school":"4","age":"10"},{"start_time":1552308750049,"click_time":1552308753630,"finger_time":1552308752270,"fix_duration":1377.1779116696307,"trial":2,"RT":2221,"MT":1360,"sideResp":2,"stimulus":[],"xmouse":[779,780,780,780,780,780,780,780,780,780,780,782,782,782,782,782,782,782,782,782,782,782,782,782,782,782,782,782,782,782,782,782,782,782,782,782,782,782,782,782,782,782,782,782,782,782,782,782,782,782,782,782,782,782,782,782,782,782,782,782,782,782,782,782,782,782,782,782,782,782,782,782,782,782,782,782,782,782,782,782,782,782,782,782,782,782,782,782,782,782,782,782,782,782,782,782,782,782,782,782,782,782,782,782,782,782,782,782,782,786,791,806,814,823,829,835,844,850,852,862,871,877,893,902,910,916,921,934,943,950,954,958,963,965,967,967,967,969,969,969,969,969,970,973,976,980,986,997,1003,1004,1005,1005,1005,1005,1006,1010,1015,1027,1034,1041,1042,1042,1042,1042,1042,1042,1042,1042,1044,1047,1049,1051,1052,1052,1053,1054,1056,1057,1058,1062],"ymouse":[606,604,600,600,600,600,600,600,600,600,600,603,604,604,604,604,604,604,604,604,604,604,604,604,604,604,604,604,604,604,604,604,604,604,604,604,604,604,604,604,604,604,604,604,604,604,604,604,604,604,604,604,604,604,604,604,604,604,604,604,604,604,604,604,604,604,604,604,604,604,604,604,604,604,604,604,604,604,604,604,604,604,604,604,604,604,604,604,604,604,604,604,604,604,604,604,604,604,604,604,604,604,604,604,604,604,604,604,604,590,575,541,525,509,494,480,454,435,430,408,390,372,330,309,289,271,253,219,201,176,159,144,115,101,89,77,67,58,58,58,58,58,57,57,57,57,57,57,57,57,57,57,57,57,57,57,57,57,58,59,59,59,59,59,59,59,59,59,59,58,56,55,55,55,54,53,51,50,49,47],"timestamp_mouse":[1,21,40,61,81,100,120,141,160,179,200,220,240,261,280,300,320,341,361,380,400,421,440,461,481,501,520,541,559,580,600,621,640,661,680,701,721,741,761,781,801,821,840,861,879,900,920,940,961,980,1001,1021,1039,1060,1081,1100,1120,1141,1159,1181,1201,1221,1241,1261,1280,1301,1320,1341,1360,1379,1400,1420,1440,1460,1481,1500,1521,1540,1561,1580,1600,1621,1641,1660,1681,1701,1720,1741,1761,1780,1801,1820,1840,1861,1881,1900,1921,1939,1960,1979,2001,2020,2040,2060,2080,2100,2121,2140,2160,2181,2199,2221,2239,2261,2280,2300,2321,2340,2360,2380,2400,2419,2440,2461,2479,2500,2520,2540,2560,2580,2600,2620,2641,2660,2680,2701,2721,2741,2761,2781,2801,2821,2841,2860,2880,2900,2919,2939,2960,2980,3001,3021,3041,3061,3080,3100,3120,3141,3160,3180,3199,3221,3241,3261,3281,3301,3320,3341,3360,3380,3400,3421,3439,3460,3481,3500,3522,3539,3560,3580],"xSR":741.5,"ySR":573.95,"xT1":424.9,"yT1":0,"xT2":1058.1,"yT2":0,"toosoon":0,"cond_shown":"Incongruent","ratio_trial":200,"L_num":7,"L_den":10,"R_num":8,"R_den":16,"correct_side":1,"subjID":"samanthagomezhamon34","gender":"1","school":"4","age":"10"},{"start_time":1552308757580,"click_time":1552308759748,"finger_time":1552308759349,"fix_duration":427.04701468620976,"trial":3,"RT":1769,"MT":399,"sideResp":2,"stimulus":[],"xmouse":[785,785,785,785,785,785,785,785,785,785,785,785,785,785,785,785,785,785,785,785,785,785,785,785,785,785,785,785,785,785,785,785,785,785,785,785,785,785,785,785,785,785,785,785,785,785,785,785,785,785,785,785,785,785,785,785,785,785,785,785,785,785,785,785,785,785,785,785,785,785,785,785,785,785,785,785,785,785,785,785,785,785,785,785,785,785,786,789,793,801,822,836,854,877,901,956,986,1026,1056,1075,1087,1099,1102,1104,1106,1106,1106,1106,1106],"ymouse":[626,626,626,626,626,626,626,626,626,624,624,624,624,624,624,624,624,624,624,624,624,624,624,624,624,624,624,624,624,624,624,624,624,624,624,624,624,624,624,624,624,624,624,624,624,624,624,624,624,624,624,624,624,624,624,624,624,624,624,624,624,624,624,624,624,624,624,624,624,624,624,624,624,624,624,624,624,621,618,615,607,604,603,601,598,591,585,575,561,531,477,447,415,373,328,230,162,83,8,0,0,0,0,0,0,0,0,0,2],"timestamp_mouse":[14,39,49,69,89,110,129,150,168,189,209,229,250,270,290,309,330,349,369,389,408,430,449,470,489,508,529,549,570,588,609,630,649,670,690,709,728,749,768,790,810,830,848,868,889,910,930,950,970,989,1009,1030,1050,1070,1090,1109,1128,1148,1168,1190,1210,1229,1250,1270,1289,1310,1330,1350,1369,1390,1410,1430,1449,1469,1489,1510,1530,1550,1569,1589,1609,1628,1649,1669,1689,1708,1730,1749,1769,1789,1808,1828,1848,1869,1890,1909,1929,1949,1969,1989,2010,2029,2049,2069,2088,2110,2130,2148,2168],"xSR":741.5,"ySR":573.95,"xT1":424.9,"yT1":0,"xT2":1058.1,"yT2":0,"toosoon":0,"cond_shown":"Congruent","ratio_trial":100,"L_num":11,"L_den":22,"R_num":6,"R_den":15,"correct_side":1,"subjID":"samanthagomezhamon34","gender":"1","school":"4","age":"10"},{"start_time":1552308761592,"click_time":1552308763729,"finger_time":1552308762408,"fix_duration":701.9265194438849,"trial":4,"RT":816,"MT":1321,"sideResp":1,"stimulus":[],"xmouse":[794,794,794,794,794,794,794,794,794,794,794,794,794,794,794,794,794,794,794,794,794,794,794,794,794,794,794,794,794,793,789,785,783,780,776,769,765,763,760,757,751,748,745,739,731,710,700,692,686,681,678,677,677,677,677,677,677,677,677,677,677,677,677,676,675,672,672,669,667,663,655,650,645,639,633,618,613,609,607,606,605,605,605,604,600,589,585,581,578,572,561,553,548,540,533,521,518,518,517,517,517,517,517,517,517,517,517],"ymouse":[623,623,623,623,623,623,623,623,623,623,623,623,623,623,623,623,623,623,623,623,623,623,623,623,623,623,623,623,621,620,615,611,608,604,600,593,590,587,582,578,567,561,554,544,531,482,464,447,431,420,408,407,407,407,407,407,407,407,407,407,405,401,397,393,387,376,370,362,354,343,314,299,287,272,259,233,228,225,224,224,223,223,223,223,219,210,207,200,192,183,166,154,145,135,125,110,107,105,105,105,105,105,105,105,105,102,99],"timestamp_mouse":[18,39,58,77,97,118,137,158,178,197,218,238,257,277,296,318,337,357,378,397,418,437,458,477,498,518,536,557,578,597,617,637,657,676,697,717,737,757,778,796,816,837,857,876,897,916,936,957,976,997,1016,1036,1056,1077,1098,1117,1137,1157,1177,1198,1217,1238,1257,1277,1298,1317,1337,1357,1378,1398,1417,1439,1458,1477,1497,1517,1538,1557,1577,1597,1617,1638,1657,1678,1698,1717,1737,1756,1777,1797,1816,1837,1857,1877,1898,1917,1938,1957,1978,1998,2018,2037,2058,2077,2097,2117,2136],"xSR":741.5,"ySR":573.95,"xT1":424.9,"yT1":0,"xT2":1058.1,"yT2":0,"toosoon":0,"cond_shown":"Congruent","ratio_trial":300,"L_num":12,"L_den":24,"R_num":2,"R_den":10,"correct_side":1,"subjID":"samanthagomezhamon34","gender":"1","school":"4","age":"10"},{"start_time":1552308768914,"click_time":1552308769790,"finger_time":1552308769250,"fix_duration":1142.1614281806735,"trial":5,"RT":336,"MT":540,"sideResp":1,"stimulus":[],"xmouse":[782,784,784,785,785,785,785,785,785,785,785,785,784,784,780,754,706,660,612,520,483,457,438,427,405,394,392,388,387,387,396,405,414,424,432,441,445,447,450,459,463,467,469,469],"ymouse":[620,628,628,634,640,641,641,641,641,641,641,641,642,642,641,619,583,544,504,411,373,343,313,293,242,209,200,180,173,171,165,163,160,156,152,144,140,137,135,127,119,112,101,96],"timestamp_mouse":[21,52,56,74,96,116,135,154,175,196,215,234,256,276,295,316,335,355,376,396,414,435,454,476,496,515,535,554,575,594,614,634,656,674,695,714,735,755,776,796,814,835,855,876],"xSR":741.5,"ySR":573.95,"xT1":424.9,"yT1":0,"xT2":1058.1,"yT2":0,"toosoon":0,"cond_shown":"Congruent","ratio_trial":200,"L_num":6,"L_den":20,"R_num":11,"R_den":22,"correct_side":2,"subjID":"samanthagomezhamon34","gender":"1","school":"4","age":"10"},{"start_time":1552308772060,"click_time":1552308781930,"finger_time":1552308779970,"fix_duration":747.5848731841447,"trial":6,"RT":7910,"MT":1960,"sideResp":1,"stimulus":[],"xmouse":[815,815,815,815,815,815,815,815,815,815,815,815,815,815,815,813,813,813,813,813,813,813,813,813,813,813,813,812,812,812,812,812,812,812,812,812,811,811,811,811,810,810,809,809,809,809,809,809,809,809,809,809,809,809,809,809,809,809,809,809,809,809,809,809,809,809,809,809,809,809,809,809,809,809,809,809,809,809,809,809,809,806,802,801,801,801,801,801,801,801,801,801,801,801,801,801,801,801,801,801,801,801,801,801,801,801,801,801,801,801,801,801,801,801,801,801,801,801,801,801,801,801,801,801,801,801,801,801,801,801,801,801,801,801,801,801,801,801,801,801,801,801,801,801,800,798,798,798,798,798,798,798,798,798,798,798,798,798,796,794,794,794,794,794,794,794,794,794,794,794,794,794,794,794,794,794,794,794,794,794,794,794,794,794,794,794,794,794,794,794,794,794,794,794,794,794,794,794,794,794,794,794,794,794,794,794,794,794,794,794,794,794,794,794,794,794,794,794,794,794,794,794,794,794,794,794,794,794,794,794,794,794,794,794,794,794,794,794,794,794,794,794,794,794,794,794,794,794,794,794,794,794,794,794,794,794,794,794,794,794,794,794,794,794,794,794,794,794,794,794,794,794,794,794,794,794,794,794,794,794,794,794,794,794,794,794,794,794,794,794,794,794,794,794,794,794,794,794,794,794,794,794,794,794,794,794,794,794,794,794,794,794,794,794,794,794,794,794,794,794,794,794,794,794,794,794,794,794,794,794,794,794,794,794,794,794,794,794,794,794,794,794,794,794,794,794,794,794,794,794,794,794,794,794,794,794,794,794,794,794,794,794,794,794,794,794,794,794,794,794,794,794,794,794,794,794,794,794,794,794,794,794,794,794,794,794,794,793,791,788,788,786,785,783,779,776,774,774,774,774,774,774,774,774,774,774,774,774,774,774,774,774,774,774,774,774,774,774,774,774,774,774,774,774,774,774,774,774,774,774,774,774,774,774,725,627,534,437,335,130,37,0,0,0,0,0,0,0,0,0,0,0,0,0,0,0,3,13,22,23,22,22,22,22,38,54,63,76,84,86,86,86,87,87,87,83,76,67,54,49,65,115,176,267,310,318,331,361,404,456,466,474,480,489],"ymouse":[633,633,633,633,633,633,633,633,633,633,633,633,633,633,633,633,633,633,633,633,633,633,633,633,633,633,633,633,633,633,633,633,633,633,633,633,633,633,633,633,633,633,634,634,634,634,634,634,634,634,634,634,634,634,634,634,634,634,634,634,634,634,634,634,634,634,634,634,634,634,634,634,634,634,634,634,634,634,634,634,633,628,624,623,623,623,623,623,623,623,623,623,623,623,623,623,623,623,623,623,623,623,623,623,623,623,623,623,623,623,623,623,623,623,623,623,623,623,623,623,623,623,623,623,623,623,623,623,623,623,623,623,623,623,623,623,623,623,623,623,623,623,623,623,623,621,620,620,619,619,619,619,619,619,619,619,619,619,618,618,618,618,618,618,618,618,618,618,618,618,618,618,618,618,618,618,618,618,618,618,618,618,618,618,618,618,618,618,618,618,618,618,618,618,618,618,618,618,618,618,618,618,618,618,618,618,618,618,618,618,618,618,618,618,618,618,618,618,618,618,618,618,618,618,618,618,618,618,618,618,618,618,618,618,618,618,618,618,618,618,618,618,618,618,618,618,618,618,618,618,618,618,618,618,618,618,618,618,618,618,618,618,618,618,618,618,618,618,618,618,618,618,618,618,618,618,618,618,618,618,618,618,618,618,618,618,618,618,618,618,618,618,618,618,618,618,618,618,618,618,618,618,618,618,618,618,618,618,618,618,618,618,618,618,618,618,618,618,618,618,618,618,618,618,618,618,618,618,618,618,618,618,618,618,618,618,618,618,618,618,618,618,618,618,618,618,618,618,618,618,618,618,618,618,618,618,618,618,618,618,618,618,618,618,618,618,618,618,618,618,618,618,618,618,618,618,618,618,618,618,618,618,618,618,618,618,619,621,625,631,633,635,639,647,662,675,682,688,693,695,695,696,696,696,696,696,696,696,696,696,696,696,696,696,696,696,696,696,696,696,696,696,696,696,696,696,696,696,696,696,696,696,696,696,669,600,527,438,332,108,30,0,0,0,47,90,125,137,152,153,153,153,157,159,180,198,245,293,338,366,396,401,403,409,457,485,502,523,547,601,629,648,656,658,658,658,658,652,635,610,399,247,99,0,0,0,0,0,0,0,0,0,0,12],"timestamp_mouse":[9,39,49,69,89,109,130,149,169,189,210,230,250,270,290,309,330,350,369,389,409,430,450,470,490,509,530,549,568,589,609,630,650,670,688,709,730,749,770,790,810,830,850,869,889,909,929,949,969,989,1010,1029,1049,1070,1090,1108,1129,1150,1170,1189,1210,1230,1250,1270,1288,1309,1329,1349,1370,1389,1409,1429,1450,1469,1489,1510,1529,1550,1570,1590,1609,1629,1648,1672,1689,1710,1730,1750,1769,1790,1810,1829,1849,1870,1890,1908,1928,1950,1970,1989,2010,2029,2050,2069,2089,2110,2129,2150,2170,2190,2209,2229,2250,2269,2290,2309,2329,2349,2370,2389,2409,2429,2449,2469,2490,2508,2529,2550,2569,2589,2609,2628,2649,2668,2689,2710,2729,2749,2770,2788,2810,2829,2850,2870,2888,2910,2930,2949,2968,2988,3010,3030,3048,3069,3090,3110,3129,3149,3169,3188,3210,3230,3248,3269,3290,3310,3329,3350,3370,3389,3410,3430,3450,3470,3489,3509,3529,3549,3570,3589,3610,3630,3650,3670,3690,3709,3730,3749,3769,3788,3810,3828,3848,3870,3890,3910,3930,3949,3970,3990,4009,4030,4049,4070,4090,4109,4130,4149,4168,4190,4210,4230,4250,4269,4289,4309,4330,4350,4370,4389,4410,4429,4450,4469,4490,4510,4530,4550,4570,4588,4610,4629,4650,4668,4689,4710,4730,4749,4770,4790,4809,4829,4850,4870,4889,4910,4930,4950,4970,4990,5010,5029,5049,5069,5089,5109,5130,5149,5168,5190,5210,5229,5250,5269,5289,5309,5330,5350,5370,5390,5410,5430,5450,5469,5490,5509,5529,5550,5569,5589,5610,5630,5649,5670,5690,5708,5730,5749,5770,5788,5809,5829,5849,5870,5889,5909,5930,5949,5969,5988,6009,6030,6049,6069,6089,6109,6129,6150,6169,6190,6210,6230,6249,6270,6290,6310,6329,6350,6370,6389,6409,6430,6450,6469,6489,6510,6529,6550,6570,6589,6609,6630,6649,6669,6689,6710,6729,6749,6770,6789,6808,6829,6850,6869,6889,6909,6929,6950,6969,6989,7010,7030,7050,7069,7089,7109,7130,7149,7169,7189,7210,7230,7250,7269,7288,7309,7330,7349,7369,7389,7409,7430,7450,7470,7490,7509,7530,7550,7570,7590,7610,7630,7649,7670,7690,7709,7730,7749,7770,7790,7810,7829,7850,7871,7889,7910,7930,7949,7969,7990,8010,8028,8049,8070,8090,8109,8130,8149,8170,8189,8210,8230,8249,8270,8289,8309,8329,8350,8369,8390,8410,8429,8450,8470,8490,8510,8529,8549,8568,8589,8610,8629,8649,8669,8688,8711,8729,8750,8769,8789,8811,8829,8849,8870,8890,8909,8929,8949,8969,8989,9009,9030,9049,9069,9091,9110,9129,9149,9169,9189,9210,9228,9249,9269,9289,9309,9328,9349,9369,9389,9409,9429,9450,9470,9489,9510,9529,9550,9570,9589,9609,9629,9649,9669,9690,9708,9729,9748,9769,9790,9809,9828,9850,9870],"xSR":741.5,"ySR":573.95,"xT1":424.9,"yT1":0,"xT2":1058.1,"yT2":0,"toosoon":0,"cond_shown":"Incongruent","ratio_trial":100,"L_num":2,"L_den":4,"R_num":8,"R_den":20,"correct_side":1,"subjID":"samanthagomezhamon34","gender":"1","school":"4","age":"10"},{"start_time":1552308786017,"click_time":1552308790849,"finger_time":1552308789649,"fix_duration":625.7357315802327,"trial":7,"RT":3632,"MT":1200,"sideResp":1,"stimulus":[],"xmouse":[830,830,830,830,830,830,830,830,830,830,830,830,830,830,830,830,830,830,830,830,830,830,830,830,830,830,830,830,830,830,830,830,830,830,830,830,830,830,830,830,830,830,830,830,830,830,830,830,830,830,830,830,830,830,830,830,830,830,830,830,830,830,830,830,830,830,830,830,830,830,830,830,830,830,830,830,830,830,830,830,830,830,830,830,830,830,830,830,830,830,830,830,830,830,830,830,830,830,830,830,830,830,830,830,830,830,830,830,830,830,830,830,830,830,830,830,830,830,830,830,830,830,830,830,830,830,830,830,830,830,830,830,830,830,830,830,830,830,830,830,830,830,830,830,830,830,830,830,830,830,830,830,830,830,830,830,830,830,830,830,830,830,830,830,830,829,827,821,818,816,815,813,810,808,807,805,804,800,798,795,793,792,788,788,787,786,785,782,781,779,776,770,762,758,754,751,750,749,748,748,748,745,735,727,716,703,692,671,664,656,651,648,641,636,629,621,614,608,594,586,580,572,565,561,558,555,552,547,543,539,535,530,526,523,520,518,515,512,510,508,506,503],"ymouse":[636,636,636,636,636,636,636,636,636,636,636,636,636,636,636,636,636,636,636,636,636,636,636,636,636,636,636,636,636,636,636,636,636,636,636,636,636,636,636,636,636,636,636,636,636,636,636,636,636,636,636,636,636,636,636,636,636,636,636,636,636,636,636,636,636,636,636,636,636,636,636,636,636,636,636,636,636,636,636,636,636,636,636,636,636,636,636,636,636,636,636,636,636,636,636,636,636,636,636,636,636,636,636,636,636,636,636,636,636,636,636,636,636,636,636,636,636,636,636,636,636,636,636,636,636,636,636,636,636,636,636,636,636,636,636,636,636,636,636,636,636,636,636,636,636,636,636,636,636,636,636,636,636,636,636,636,636,636,636,636,636,636,636,636,636,635,632,623,620,616,615,611,606,602,600,596,592,585,581,577,574,571,566,565,564,563,561,559,557,556,553,549,542,540,537,534,533,532,531,531,531,527,516,508,498,485,475,455,448,441,434,430,421,413,402,390,377,365,339,329,319,306,291,282,273,263,253,232,220,212,203,190,171,162,153,144,137,124,117,110,105,98],"timestamp_mouse":[12,45,52,73,92,112,133,152,172,192,212,233,253,272,293,313,332,352,373,392,412,432,452,472,492,512,533,553,573,593,612,633,652,673,692,712,732,752,773,793,812,833,853,873,893,913,933,952,973,992,1012,1032,1052,1073,1093,1112,1132,1152,1173,1192,1213,1232,1252,1273,1293,1312,1332,1353,1372,1393,1412,1432,1452,1472,1492,1512,1532,1552,1573,1593,1612,1632,1653,1673,1692,1712,1732,1752,1773,1792,1813,1832,1852,1873,1892,1912,1933,1952,1971,1993,2012,2032,2052,2073,2093,2112,2133,2152,2173,2193,2212,2233,2252,2272,2292,2313,2332,2352,2372,2393,2412,2432,2452,2472,2492,2512,2533,2552,2572,2593,2612,2633,2652,2672,2692,2713,2732,2752,2772,2792,2813,2832,2852,2871,2892,2912,2932,2952,2973,2992,3013,3033,3053,3072,3093,3112,3132,3153,3173,3192,3213,3233,3252,3273,3293,3312,3331,3352,3373,3393,3413,3433,3452,3473,3493,3512,3532,3552,3572,3593,3612,3632,3652,3673,3692,3712,3733,3753,3772,3792,3812,3833,3852,3873,3892,3912,3933,3952,3973,3992,4013,4032,4052,4074,4092,4112,4131,4153,4173,4192,4212,4233,4252,4273,4292,4313,4332,4352,4372,4392,4412,4432,4452,4472,4492,4513,4532,4552,4573,4592,4613,4633,4652,4671,4692,4712,4732,4752,4774,4792,4812,4832],"xSR":741.5,"ySR":573.95,"xT1":424.9,"yT1":0,"xT2":1058.1,"yT2":0,"toosoon":0,"cond_shown":"Congruent","ratio_trial":100,"L_num":4,"L_den":10,"R_num":15,"R_den":30,"correct_side":2,"subjID":"samanthagomezhamon34","gender":"1","school":"4","age":"10"},{"start_time":1552308799411,"click_time":1552308811012,"finger_time":1552308805529,"fix_duration":798.9268050626571,"trial":8,"RT":6118,"MT":5483,"sideResp":2,"stimulus":[],"xmouse":[786,786,786,786,788,788,789,789,789,789,789,789,789,789,789,789,789,789,789,789,789,789,789,789,789,789,789,789,789,789,789,789,789,789,789,789,789,789,789,789,789,789,789,789,789,789,789,789,789,789,789,789,789,789,789,789,789,789,789,789,789,789,789,789,789,789,789,789,789,789,789,789,789,789,789,789,789,789,789,789,789,789,789,789,789,789,789,789,789,789,789,789,789,789,789,789,789,789,789,789,789,789,789,789,789,789,789,789,789,789,789,789,789,789,789,789,789,789,789,789,789,789,789,789,789,789,789,789,789,789,789,789,789,789,789,789,789,789,789,789,789,789,789,789,789,789,789,789,789,789,789,789,789,789,789,789,789,789,789,789,789,789,789,789,789,789,789,789,789,789,789,789,789,789,789,789,789,789,789,789,789,789,789,789,789,789,789,789,789,789,789,789,789,789,789,789,789,789,789,789,789,789,789,789,789,789,789,789,789,789,789,789,789,789,789,789,789,789,789,789,789,789,789,789,789,789,789,789,789,789,790,790,791,791,791,791,791,791,791,791,791,791,791,791,791,791,791,791,791,791,791,791,791,791,791,791,792,793,793,794,794,794,794,794,794,794,794,794,794,794,794,794,794,794,794,794,794,794,794,794,794,794,794,795,795,796,796,796,796,796,796,796,796,796,796,796,796,796,794,793,793,792,792,791,790,787,787,786,783,783,783,783,783,782,774,769,764,758,756,751,750,750,750,749,749,749,750,756,762,790,809,826,840,845,846,846,846,846,846,846,846,846,846,846,846,846,846,846,846,847,845,843,842,841,837,830,822,816,813,812,812,812,812,812,812,812,812,812,812,812,812,812,812,812,812,812,812,812,812,812,812,812,812,812,812,812,812,812,812,812,812,812,812,812,812,812,812,812,812,812,812,812,812,812,812,812,812,812,812,812,812,812,812,812,812,812,812,812,812,812,812,812,812,812,812,812,812,812,812,812,812,812,813,813,813,813,813,813,813,815,815,816,817,818,819,819,820,820,820,820,820,820,820,820,820,820,820,820,820,820,820,821,822,822,822,822,822,822,822,822,822,822,822,822,822,822,822,822,822,822,823,824,824,825,825,825,825,825,824,824,824,824,824,824,824,824,824,824,824,824,824,824,824,824,824,824,824,824,824,823,822,822,822,822,822,822,822,822,822,822,822,822,822,822,822,822,822,822,822,822,822,822,820,817,800,788,777,768,762,754,750,746,744,743,743,743,743,749,764,817,845,872,887,903,912,927,932,936,940,943,947,947,947,952,970,979,986,991,995,997,999,1001,1005,1010,1031,1040,1046,1052,1056,1063],"ymouse":[621,621,621,621,619,618,617,617,617,617,617,617,617,617,617,617,617,617,617,617,617,617,617,617,617,617,617,617,617,617,617,617,617,617,617,617,617,617,617,617,617,617,617,617,617,617,617,617,617,617,617,617,617,617,617,617,617,617,617,617,617,617,617,617,617,617,617,617,617,617,617,617,617,617,617,617,617,617,617,617,617,617,617,617,617,617,617,617,617,617,617,617,617,617,617,617,617,617,617,617,617,617,617,617,617,617,617,617,617,617,617,617,617,617,617,617,617,617,617,617,617,617,617,617,617,617,617,617,617,617,617,617,617,617,617,617,617,617,617,617,617,617,617,617,617,617,617,617,617,617,617,617,617,617,617,617,617,617,617,617,617,617,617,617,617,617,617,617,617,617,617,617,617,617,617,617,617,617,617,617,617,617,617,617,617,617,617,617,617,617,617,617,617,617,617,617,617,617,617,617,617,617,617,617,617,617,617,617,617,617,617,617,617,617,617,617,617,617,617,617,617,617,617,617,617,617,617,617,618,619,620,620,622,622,622,622,622,622,622,622,622,622,622,622,622,622,622,622,622,622,622,622,622,622,622,622,622,623,623,623,623,623,623,623,623,623,623,623,623,623,623,623,623,623,623,623,623,623,623,623,623,623,623,625,626,627,627,627,627,627,627,627,627,627,627,627,623,618,607,603,600,599,597,591,585,571,561,555,548,548,548,548,548,548,558,566,574,581,587,600,604,609,611,614,617,620,623,627,630,636,638,640,640,640,640,640,640,640,640,640,640,640,640,640,640,640,640,640,640,640,638,637,637,636,634,629,624,620,618,617,617,617,617,617,617,617,617,617,617,617,617,617,617,617,617,617,617,617,617,617,617,617,617,617,617,617,617,617,617,617,617,617,617,617,617,617,617,617,617,617,617,617,617,617,617,617,617,617,617,617,617,617,617,617,617,617,617,617,617,617,617,617,617,617,617,617,617,617,617,617,617,617,618,618,618,618,618,618,617,614,612,609,606,601,597,595,593,593,593,593,593,593,593,593,593,593,595,596,599,605,609,613,616,617,617,617,617,617,617,616,613,609,605,601,597,597,597,601,606,630,640,645,649,650,650,650,648,646,637,611,599,592,588,587,587,590,602,617,629,645,646,646,646,646,646,646,646,646,646,642,634,623,613,605,604,604,604,604,605,608,613,618,626,634,647,649,649,649,649,649,649,649,649,648,640,632,623,613,599,562,540,516,491,462,377,336,292,240,178,47,0,0,0,0,0,0,0,0,0,0,0,0,0,3,10,13,17,18,18,19,19,19,20,20,24,26,28,29,29,29],"timestamp_mouse":[19,39,58,80,98,118,139,159,178,199,219,239,259,279,298,319,338,358,378,398,419,438,459,479,498,517,538,559,578,598,619,639,659,679,698,719,739,759,779,799,818,839,858,879,899,919,938,958,979,999,1019,1038,1059,1079,1098,1119,1139,1159,1179,1198,1219,1239,1258,1279,1299,1318,1338,1359,1378,1398,1419,1438,1459,1478,1499,1519,1538,1558,1579,1598,1618,1639,1658,1679,1699,1719,1739,1758,1784,1798,1819,1839,1858,1878,1899,1919,1939,1959,1979,1999,2019,2039,2059,2078,2099,2118,2139,2159,2179,2198,2218,2238,2259,2278,2298,2318,2338,2358,2378,2399,2418,2438,2458,2478,2498,2519,2539,2559,2578,2599,2619,2639,2659,2679,2699,2718,2738,2758,2779,2798,2818,2839,2859,2878,2899,2919,2938,2959,2978,2998,3019,3039,3058,3079,3099,3120,3139,3159,3178,3199,3218,3239,3259,3279,3299,3318,3338,3358,3379,3398,3418,3439,3458,3478,3499,3519,3539,3559,3579,3598,3618,3639,3658,3679,3699,3719,3738,3758,3778,3798,3819,3839,3858,3879,3898,3918,3939,3959,3979,3998,4019,4038,4059,4079,4098,4118,4139,4158,4178,4199,4218,4239,4259,4279,4299,4318,4338,4359,4379,4399,4418,4439,4459,4479,4498,4518,4539,4558,4578,4599,4619,4639,4658,4678,4698,4718,4739,4758,4779,4799,4818,4838,4858,4878,4898,4918,4939,4959,4978,4998,5019,5038,5058,5078,5098,5119,5138,5158,5178,5198,5218,5238,5259,5279,5298,5318,5339,5358,5378,5398,5418,5438,5458,5479,5498,5518,5538,5559,5579,5598,5619,5639,5659,5679,5698,5718,5738,5758,5779,5799,5819,5839,5858,5878,5917,5918,5938,5959,5979,5997,6019,6039,6059,6079,6098,6118,6138,6158,6179,6198,6218,6238,6258,6279,6298,6319,6338,6359,6378,6399,6419,6438,6458,6479,6499,6518,6538,6558,6579,6599,6619,6638,6659,6679,6699,6719,6739,6757,6779,6799,6819,6838,6859,6878,6897,6918,6939,6958,6978,6998,7019,7039,7057,7079,7099,7118,7138,7159,7177,7198,7219,7239,7258,7278,7299,7318,7339,7359,7379,7398,7419,7438,7458,7478,7498,7518,7538,7559,7579,7598,7619,7639,7658,7678,7698,7719,7738,7758,7779,7798,7818,7839,7859,7878,7898,7918,7938,7958,7978,7998,8019,8038,8059,8079,8099,8119,8138,8159,8179,8199,8218,8238,8259,8278,8298,8319,8338,8359,8379,8399,8418,8439,8459,8479,8499,8518,8537,8559,8579,8598,8618,8639,8658,8679,8698,8718,8738,8759,8778,8797,8819,8839,8859,8878,8898,8919,8938,8958,8979,8997,9018,9038,9057,9078,9098,9118,9139,9158,9178,9198,9219,9238,9259,9279,9298,9319,9338,9359,9378,9399,9419,9439,9458,9478,9498,9518,9539,9558,9579,9598,9619,9639,9659,9679,9698,9718,9738,9757,9779,9798,9819,9838,9859,9879,9898,9918,9938,9958,9978,9997,10018,10039,10059,10078,10098,10119,10137,10159,10179,10198,10218,10238,10258,10278,10299,10319,10338,10359,10378,10399,10419,10439,10457,10479,10498,10518,10539,10559,10579,10597,10619,10638,10658,10679,10698,10718,10739,10758,10778,10798,10818,10838,10857,10878,10898,10919,10938,10957,10979,10998,11018,11038,11058,11079,11099,11119,11138,11158,11178,11199,11218,11238,11259,11279,11298,11317,11338,11358,11379,11398,11418,11438,11459,11478,11499,11518,11537,11558,11579,11601],"xSR":741.5,"ySR":573.95,"xT1":424.9,"yT1":0,"xT2":1058.1,"yT2":0,"toosoon":0,"cond_shown":"Congruent","ratio_trial":200,"L_num":8,"L_den":15,"R_num":3,"R_den":9,"correct_side":1,"subjID":"samanthagomezhamon34","gender":"1","school":"4","age":"10"},{"start_time":1552308815128,"click_time":1552308824969,"finger_time":1552308822130,"fix_duration":778.3455543509243,"trial":9,"RT":7002,"MT":2839,"sideResp":2,"stimulus":[],"xmouse":[762,755,751,751,750,750,750,750,750,750,750,750,751,752,756,764,765,767,767,767,767,767,767,767,767,767,767,767,767,767,767,767,767,767,767,767,767,767,767,767,767,767,767,767,767,767,767,767,767,767,767,767,767,767,767,767,767,767,767,767,767,767,767,767,767,767,767,767,767,767,767,767,767,767,767,767,767,767,767,767,767,767,767,767,767,767,767,767,767,767,767,767,767,767,767,767,767,767,767,767,767,767,767,767,767,767,767,767,767,767,767,767,767,767,767,767,767,767,767,767,767,767,767,767,767,767,767,767,767,767,767,767,767,767,767,767,767,767,767,767,767,767,767,767,767,767,767,767,767,767,767,767,767,767,767,767,767,767,767,767,767,767,767,767,767,767,767,767,767,767,767,767,767,767,767,767,767,767,767,767,767,767,767,767,767,767,767,767,767,767,767,767,767,767,767,767,767,767,767,767,767,767,767,767,767,767,767,767,767,767,767,767,767,767,767,767,767,767,767,767,767,767,767,767,767,767,767,767,767,767,767,767,767,767,767,767,767,767,767,767,767,767,767,767,767,767,767,767,767,767,767,767,767,767,767,767,767,767,767,767,767,767,767,767,767,767,767,767,767,767,767,767,767,767,767,767,767,767,767,767,767,767,767,767,767,767,767,767,767,767,767,767,767,767,767,767,767,767,767,767,767,767,767,767,767,767,767,767,767,767,767,767,767,767,767,767,767,767,767,767,767,769,771,772,772,772,772,773,774,775,777,778,780,781,783,784,786,786,787,787,787,788,788,789,789,791,792,793,794,795,796,796,797,797,797,797,798,798,798,798,799,799,799,800,800,800,801,801,801,801,801,801,801,801,801,801,801,801,801,801,801,801,801,801,801,801,801,801,801,801,801,801,801,801,801,801,802,802,802,802,802,802,802,802,802,802,802,802,802,802,802,802,800,799,797,796,796,796,795,795,795,795,795,795,794,794,790,789,786,786,785,784,783,783,783,783,782,780,778,774,769,751,746,740,737,735,734,734,734,734,734,734,734,734,734,734,734,734,734,734,734,734,734,734,734,734,735,737,740,743,746,752,756,760,764,770,780,784,788,790,794,800,804,809,820,832,856,869,889,912,942,1057,1077],"ymouse":[654,658,660,660,661,661,661,661,661,661,661,661,659,658,655,649,647,646,646,646,646,646,646,646,646,646,646,646,646,646,646,646,646,646,646,646,646,646,646,646,646,646,646,646,646,646,646,646,646,646,646,646,646,646,646,646,646,646,646,646,646,646,646,646,646,646,646,646,646,646,646,646,646,646,646,646,646,646,646,646,646,646,646,646,646,646,646,646,646,646,646,646,646,646,646,646,646,646,646,646,646,646,646,646,646,646,646,646,646,646,646,646,646,646,646,646,646,646,646,646,646,646,646,646,646,646,646,646,646,646,646,646,646,646,646,646,646,646,646,646,646,646,646,646,646,646,646,646,646,646,646,646,646,646,646,646,646,646,646,646,646,646,646,646,646,646,646,646,646,646,646,646,646,646,646,646,646,646,646,646,646,646,646,646,646,646,646,646,646,646,646,646,646,646,646,646,646,646,646,646,646,646,646,646,646,646,646,646,646,646,646,646,646,646,646,646,646,646,646,646,646,646,646,646,646,646,646,646,646,646,646,646,646,646,646,646,646,646,646,646,646,646,646,646,646,646,646,646,646,646,646,646,646,646,646,646,646,646,646,646,646,646,646,646,646,646,646,646,646,646,646,646,646,646,646,646,646,646,646,646,646,646,646,646,646,646,646,646,646,646,646,646,646,646,646,646,646,646,646,646,646,646,646,646,646,646,646,646,646,646,646,646,646,646,646,646,646,646,646,646,645,641,638,635,633,633,633,632,630,629,626,622,618,615,611,608,602,601,599,598,597,596,596,594,592,587,586,582,579,577,572,572,571,571,570,570,569,568,567,565,564,562,561,560,558,555,555,554,552,552,552,552,552,552,552,552,552,552,552,552,552,552,552,552,552,552,552,552,552,552,552,552,552,549,544,536,519,513,510,509,509,509,509,509,509,509,509,509,509,509,509,514,521,526,532,537,541,541,542,542,543,544,546,547,550,554,562,567,571,575,579,583,585,585,585,586,589,593,596,603,611,636,644,655,659,666,667,668,668,668,668,668,668,668,668,668,668,668,668,668,668,668,668,668,668,668,668,664,660,655,651,642,638,633,629,623,612,606,600,593,586,553,533,504,466,425,340,299,258,216,170,44,23],"timestamp_mouse":[2,29,52,61,81,101,121,142,161,181,202,222,242,261,282,301,322,342,361,382,403,421,441,461,482,501,521,542,562,581,602,621,641,662,681,701,721,741,762,781,801,822,841,861,881,901,922,942,962,980,1002,1021,1041,1062,1082,1102,1121,1140,1161,1181,1201,1222,1241,1260,1282,1301,1322,1342,1360,1381,1403,1421,1441,1462,1481,1502,1522,1541,1562,1582,1602,1622,1642,1662,1681,1702,1721,1740,1761,1782,1802,1822,1842,1862,1882,1902,1922,1942,1961,1981,2001,2021,2042,2061,2081,2102,2122,2142,2161,2181,2202,2221,2240,2262,2282,2301,2322,2340,2362,2382,2401,2422,2440,2460,2481,2502,2521,2542,2562,2582,2601,2622,2641,2662,2681,2701,2721,2741,2762,2781,2802,2821,2841,2862,2881,2901,2922,2941,2961,2981,3001,3022,3042,3062,3081,3101,3121,3142,3162,3182,3201,3222,3241,3262,3282,3302,3321,3342,3362,3382,3403,3422,3442,3461,3482,3501,3521,3542,3562,3582,3601,3622,3642,3662,3680,3702,3722,3741,3762,3782,3801,3821,3841,3861,3882,3901,3922,3941,3961,3982,4002,4021,4042,4062,4081,4101,4121,4141,4162,4181,4201,4222,4241,4262,4282,4301,4322,4342,4361,4382,4402,4422,4442,4461,4481,4502,4521,4540,4561,4581,4602,4622,4642,4662,4682,4701,4720,4740,4762,4782,4801,4822,4842,4862,4881,4902,4922,4942,4961,4982,5001,5022,5042,5062,5081,5102,5122,5141,5161,5182,5202,5220,5240,5262,5282,5301,5322,5342,5362,5382,5402,5421,5442,5461,5482,5502,5522,5542,5561,5580,5601,5622,5641,5661,5682,5702,5721,5742,5762,5781,5802,5821,5842,5861,5882,5902,5922,5941,5962,5982,6001,6022,6042,6062,6081,6102,6121,6141,6160,6181,6201,6227,6242,6261,6282,6302,6321,6341,6362,6380,6400,6421,6442,6461,6481,6502,6521,6541,6562,6582,6602,6621,6641,6662,6681,6701,6721,6741,6762,6781,6802,6821,6841,6861,6880,6902,6921,6942,6962,6981,7002,7020,7041,7061,7082,7101,7121,7142,7161,7181,7202,7221,7241,7261,7281,7303,7321,7341,7360,7382,7402,7421,7442,7461,7481,7502,7521,7541,7562,7581,7602,7621,7641,7662,7681,7702,7721,7742,7761,7781,7801,7821,7841,7862,7881,7901,7921,7942,7961,7981,8002,8021,8042,8061,8082,8103,8122,8141,8161,8181,8202,8222,8241,8261,8281,8301,8320,8342,8361,8381,8403,8421,8441,8461,8480,8501,8521,8542,8561,8582,8602,8622,8641,8662,8681,8702,8721,8742,8762,8782,8802,8821,8841,8861,8881,8903,8920,8941,8961,8981,9002,9021,9041,9061,9082,9102,9121,9141,9161,9181,9201,9222,9241,9262,9281,9301,9321,9342,9361,9381,9401,9421,9442,9461,9481,9502,9521,9541,9561,9582,9602,9621,9642,9661,9681,9702,9721,9741,9762,9781,9802,9821,9841],"xSR":741.5,"ySR":573.95,"xT1":424.9,"yT1":0,"xT2":1058.1,"yT2":0,"toosoon":0,"cond_shown":"Incongruent","ratio_trial":100,"L_num":6,"L_den":12,"R_num":3,"R_den":5,"correct_side":2,"subjID":"samanthagomezhamon34","gender":"1","school":"4","age":"10"},{"start_time":1552308826592,"click_time":1552308831209,"finger_time":1552308830409,"fix_duration":361.43756777905077,"trial":10,"RT":3817,"MT":800,"sideResp":2,"stimulus":[],"xmouse":[781,781,781,781,781,781,781,782,782,782,782,782,782,782,782,782,782,782,782,782,782,782,782,782,782,782,782,782,782,782,782,782,782,782,782,782,782,782,782,782,782,782,782,782,782,782,782,782,782,782,782,782,782,782,782,782,782,782,782,782,782,782,782,782,782,782,782,782,782,782,782,782,782,782,782,782,782,782,782,782,782,782,782,782,782,782,782,782,782,782,782,782,782,782,782,782,782,782,782,782,782,782,782,782,782,782,782,782,782,782,782,782,782,782,782,782,782,782,782,782,782,782,782,782,782,782,782,782,782,782,782,782,782,782,782,782,782,782,782,782,782,782,782,782,782,782,782,782,782,782,782,782,782,782,782,782,782,782,782,782,782,782,782,782,782,782,782,782,781,780,779,779,779,779,779,779,779,779,779,779,779,779,779,779,779,779,779,780,783,786,792,794,801,833,857,882,889,905,922,925,925,925,925,925,925,925,925,925,931,942,956,969,985,1012,1030,1037,1042,1045,1049,1050,1051,1052,1054,1055,1056,1056,1057,1057,1057,1058,1061],"ymouse":[606,608,610,614,617,618,620,621,621,622,622,622,622,622,622,622,622,622,622,622,622,622,622,622,622,622,622,622,622,622,622,622,622,622,622,622,622,622,622,622,622,622,622,622,622,622,622,622,622,622,622,622,622,622,622,622,622,622,622,622,622,622,622,622,622,622,622,622,622,622,622,622,622,622,622,622,622,622,622,622,622,622,622,622,622,622,622,622,622,622,622,622,622,622,622,622,622,622,622,622,622,622,622,622,622,622,622,622,622,622,622,622,622,622,622,622,622,622,622,622,622,622,622,622,622,622,622,622,622,622,622,621,621,620,620,620,620,620,620,620,620,620,620,620,620,620,620,620,620,620,620,620,620,620,620,620,620,620,620,620,620,620,620,620,621,622,624,627,629,632,633,633,633,633,633,633,633,633,629,625,622,620,620,620,620,619,618,613,595,582,562,537,496,344,280,224,208,173,126,112,103,96,86,84,83,83,83,83,84,87,88,88,88,86,80,76,73,70,63,60,58,57,54,52,51,51,51,51,51,51,50],"timestamp_mouse":[18,37,57,77,97,118,137,157,178,198,218,237,258,278,298,317,337,358,378,396,418,437,457,477,497,518,537,557,578,598,618,638,657,678,698,717,737,758,778,797,818,837,858,878,898,918,938,958,977,998,1018,1037,1058,1077,1098,1118,1137,1157,1178,1197,1217,1238,1258,1277,1298,1318,1337,1358,1378,1398,1418,1438,1458,1477,1498,1518,1538,1557,1578,1598,1618,1638,1658,1678,1697,1718,1737,1758,1777,1797,1817,1838,1857,1876,1897,1917,1937,1957,1978,1997,2017,2037,2057,2077,2097,2118,2138,2158,2177,2198,2218,2238,2257,2277,2298,2318,2337,2357,2378,2397,2417,2438,2458,2477,2498,2518,2537,2558,2577,2598,2617,2638,2658,2677,2697,2718,2738,2758,2777,2798,2818,2836,2858,2878,2898,2918,2938,2958,2978,2998,3018,3038,3057,3078,3098,3118,3137,3157,3178,3198,3217,3237,3258,3277,3297,3317,3338,3358,3378,3397,3417,3438,3457,3478,3497,3518,3537,3557,3578,3598,3617,3637,3658,3677,3697,3717,3737,3758,3777,3797,3817,3838,3857,3877,3897,3918,3937,3958,3978,3998,4017,4037,4058,4078,4097,4117,4138,4157,4178,4197,4217,4238,4258,4278,4297,4318,4337,4358,4377,4397,4417,4437,4458,4477,4498,4517,4537,4558,4577,4598,4617],"xSR":741.5,"ySR":573.95,"xT1":424.9,"yT1":0,"xT2":1058.1,"yT2":0,"toosoon":0,"cond_shown":"Incongruent","ratio_trial":200,"L_num":3,"L_den":4,"R_num":11,"R_den":20,"correct_side":1,"subjID":"samanthagomezhamon34","gender":"1","school":"4","age":"10"},{"start_time":1552308833699,"click_time":1552308838349,"finger_time":1552308837889,"fix_duration":1047.604330607432,"trial":11,"RT":4190,"MT":460,"sideResp":2,"stimulus":[],"xmouse":[785,785,785,785,785,785,785,785,787,789,789,789,789,790,790,790,790,790,790,790,790,790,790,790,790,790,790,790,790,790,790,790,790,790,790,790,790,790,790,790,790,790,790,790,790,790,790,790,790,790,790,790,790,790,790,790,790,790,790,790,790,790,790,790,790,790,790,790,790,790,790,790,790,790,790,790,790,790,790,791,792,792,792,792,792,792,792,792,792,792,792,792,792,792,792,792,792,792,792,792,792,792,792,792,792,792,792,792,792,792,792,792,792,792,792,792,792,792,792,793,795,795,796,798,798,798,798,798,798,798,798,798,798,798,798,798,798,798,798,798,798,798,798,798,799,799,799,799,799,799,799,799,799,799,799,799,799,798,796,793,791,788,786,782,782,782,782,782,782,782,782,782,781,778,776,775,774,773,773,773,773,773,773,773,773,773,773,773,773,773,773,773,774,781,787,794,796,797,797,797,797,798,799,799,800,802,803,803,812,820,830,842,852,878,901,942,975,998,1017,1019,1026,1029,1036,1042,1051,1056,1058,1059,1060,1060,1060,1061,1064],"ymouse":[612,610,610,607,606,605,604,602,596,594,593,593,593,592,592,592,592,592,591,591,591,591,591,591,591,591,591,591,591,591,591,591,591,591,591,591,591,591,591,591,591,591,591,591,591,591,591,591,591,591,591,591,591,591,591,591,591,591,591,591,591,591,591,591,591,591,591,591,591,591,591,591,591,591,591,591,591,591,592,593,595,595,595,595,595,596,596,597,597,597,597,597,597,597,597,597,597,597,597,597,598,598,598,598,598,598,598,598,598,598,598,598,598,598,598,598,598,598,598,599,601,602,604,605,605,605,605,605,605,605,605,605,605,605,605,605,605,605,605,605,605,605,605,604,603,603,603,603,603,603,603,603,603,603,603,603,603,604,606,608,609,611,612,613,613,613,613,613,613,613,613,611,610,602,598,594,591,590,590,590,590,590,590,590,590,590,590,590,590,590,590,590,590,589,587,584,582,581,581,581,581,581,581,581,581,582,582,581,575,568,558,544,530,485,450,378,320,264,164,121,82,54,29,9,0,0,0,0,0,0,0,0,3],"timestamp_mouse":[19,38,50,70,91,110,131,151,170,191,210,230,251,270,290,311,330,350,370,390,411,431,450,471,490,511,531,550,571,590,611,630,651,671,690,711,730,751,771,790,811,831,850,871,891,911,931,951,971,990,1010,1029,1051,1071,1091,1110,1131,1149,1170,1191,1210,1231,1250,1271,1290,1311,1330,1351,1371,1390,1411,1431,1450,1471,1490,1511,1531,1550,1570,1590,1610,1630,1651,1670,1691,1710,1730,1751,1771,1791,1811,1831,1851,1870,1890,1910,1930,1951,1970,1991,2010,2030,2051,2071,2090,2110,2130,2151,2171,2191,2211,2230,2250,2271,2291,2311,2330,2350,2371,2390,2410,2431,2450,2470,2491,2510,2531,2550,2570,2591,2611,2631,2651,2671,2691,2711,2730,2751,2769,2791,2810,2831,2851,2870,2890,2910,2930,2951,2971,2989,3011,3030,3050,3070,3091,3111,3130,3151,3170,3190,3210,3230,3251,3270,3290,3311,3331,3350,3371,3390,3409,3431,3449,3470,3491,3510,3530,3550,3571,3591,3611,3630,3649,3671,3691,3710,3731,3751,3770,3791,3810,3831,3850,3871,3891,3910,3931,3950,3971,3990,4011,4031,4049,4070,4090,4111,4130,4151,4170,4190,4210,4229,4251,4271,4290,4310,4330,4351,4370,4389,4411,4431,4450,4470,4490,4511,4531,4550,4569,4590,4609,4631,4650],"xSR":741.5,"ySR":573.95,"xT1":424.9,"yT1":0,"xT2":1058.1,"yT2":0,"toosoon":0,"cond_shown":"Congruent","ratio_trial":100,"L_num":11,"L_den":22,"R_num":6,"R_den":15,"correct_side":1,"subjID":"samanthagomezhamon34","gender":"1","school":"4","age":"10"},{"start_time":1552308839780,"click_time":1552308842389,"finger_time":1552308842009,"fix_duration":250,"trial":12,"RT":2229,"MT":380,"sideResp":1,"stimulus":[],"xmouse":[773,773,773,773,773,773,773,773,773,773,773,773,773,773,773,773,773,773,773,773,773,773,773,773,773,773,773,773,773,773,773,773,773,773,773,773,773,773,773,773,773,773,773,773,773,773,773,773,773,773,773,773,773,773,773,773,773,773,773,773,773,773,773,773,773,773,773,773,773,773,773,773,773,773,773,773,773,773,773,773,773,773,773,773,773,773,773,773,773,773,773,773,773,773,773,773,773,773,773,773,773,773,773,773,773,773,774,774,774,774,774,774,773,770,768,760,757,749,742,728,696,676,653,628,596,543,516,496,476,451,425],"ymouse":[599,599,599,599,599,599,599,599,599,599,599,599,599,599,599,599,599,599,599,599,599,599,599,599,599,599,599,599,599,599,599,599,599,599,599,599,599,599,599,599,599,599,599,599,599,599,599,599,599,599,599,599,599,599,599,599,599,599,599,599,599,599,599,599,599,599,599,599,599,599,599,599,599,599,599,599,599,599,599,599,599,599,599,599,599,599,599,599,599,599,599,599,599,599,599,599,599,599,599,599,599,599,599,599,599,598,596,593,590,587,576,572,566,560,552,533,522,506,489,461,414,387,354,316,269,199,167,146,129,112,95],"timestamp_mouse":[10,34,49,68,90,110,128,150,168,189,210,230,249,269,290,309,328,349,369,390,408,430,450,469,489,509,530,550,570,590,609,630,649,669,690,709,730,749,770,790,809,829,849,869,890,909,930,950,970,989,1009,1030,1049,1069,1089,1110,1129,1150,1170,1190,1209,1229,1250,1270,1288,1310,1330,1350,1369,1390,1409,1429,1450,1470,1489,1510,1529,1550,1568,1588,1610,1630,1649,1669,1690,1710,1730,1750,1769,1789,1810,1829,1849,1870,1889,1910,1929,1950,1969,1989,2010,2029,2049,2069,2089,2109,2129,2148,2170,2188,2209,2229,2249,2269,2289,2309,2330,2349,2370,2389,2409,2430,2449,2469,2489,2508,2529,2549,2569,2590,2609],"xSR":741.5,"ySR":573.95,"xT1":424.9,"yT1":0,"xT2":1058.1,"yT2":0,"toosoon":0,"cond_shown":"Congruent","ratio_trial":200,"L_num":11,"L_den":22,"R_num":3,"R_den":10,"correct_side":1,"subjID":"samanthagomezhamon34","gender":"1","school":"4","age":"10"},{"start_time":1552308844861,"click_time":1552308846650,"finger_time":1552308845390,"fix_duration":250,"trial":13,"RT":529,"MT":1260,"sideResp":1,"stimulus":[],"xmouse":[800,800,803,803,803,803,803,803,803,803,803,803,803,803,803,803,803,803,803,803,803,803,803,801,799,795,790,789,788,788,787,787,787,787,787,787,787,787,787,787,787,787,787,787,787,787,787,787,787,787,787,787,785,784,783,783,783,783,783,783,782,782,780,780,780,780,762,748,733,716,696,667,644,636,612,601,585,575,565,553,542,519,512,504,500,495,488,486,484,481],"ymouse":[618,620,621,621,621,621,621,621,621,621,621,621,621,621,621,621,621,621,621,621,621,621,621,615,605,595,573,564,557,553,551,551,551,551,551,551,551,551,551,551,551,551,551,551,551,551,551,551,551,551,551,550,558,565,570,576,586,591,596,602,607,611,614,614,614,615,592,574,554,533,508,458,418,403,357,332,280,253,231,210,191,157,144,133,126,119,109,106,100,95],"timestamp_mouse":[10,36,49,69,89,109,128,149,169,188,208,227,249,268,288,308,329,348,368,388,408,429,449,468,488,509,528,548,568,588,608,629,649,668,689,708,728,748,768,789,808,829,848,869,889,908,929,948,969,988,1008,1028,1048,1069,1088,1108,1128,1148,1169,1189,1207,1229,1248,1269,1289,1309,1328,1349,1369,1388,1409,1428,1447,1468,1487,1509,1529,1548,1568,1589,1607,1629,1648,1668,1688,1709,1729,1748,1770,1789],"xSR":741.5,"ySR":573.95,"xT1":424.9,"yT1":0,"xT2":1058.1,"yT2":0,"toosoon":0,"cond_shown":"Incongruent","ratio_trial":100,"L_num":2,"L_den":4,"R_num":8,"R_den":20,"correct_side":1,"subjID":"samanthagomezhamon34","gender":"1","school":"4","age":"10"},{"start_time":1552308849174,"click_time":1552308850609,"finger_time":1552308850229,"fix_duration":503.6748766372313,"trial":14,"RT":1055,"MT":380,"sideResp":1,"stimulus":[],"xmouse":[778,778,778,778,778,778,778,778,778,778,778,778,778,778,778,778,778,778,778,778,778,778,778,778,778,778,778,778,778,778,778,778,778,778,778,778,778,778,778,778,778,778,778,778,778,778,778,778,778,778,778,755,735,713,684,655,616,607,603,600,596,587,581,577,573,567,553,542,531,521,511,494],"ymouse":[626,626,625,624,622,621,621,621,621,621,621,621,621,621,621,621,621,621,621,621,621,621,621,621,621,621,621,621,621,621,621,621,621,621,621,621,621,621,621,621,621,621,621,621,621,621,621,621,621,619,615,589,567,541,502,458,391,372,358,348,337,312,299,283,267,244,205,183,161,140,120,86],"timestamp_mouse":[15,46,55,75,95,115,135,155,175,196,216,235,256,276,295,315,336,355,375,396,414,436,456,475,496,515,534,556,576,596,615,636,656,676,695,715,736,756,775,795,816,834,855,875,895,915,935,954,976,995,1016,1035,1055,1075,1095,1116,1135,1155,1175,1195,1216,1235,1255,1276,1295,1316,1335,1356,1375,1396,1416,1435],"xSR":741.5,"ySR":573.95,"xT1":424.9,"yT1":0,"xT2":1058.1,"yT2":0,"toosoon":0,"cond_shown":"Incongruent","ratio_trial":200,"L_num":4,"L_den":5,"R_num":6,"R_den":10,"correct_side":1,"subjID":"samanthagomezhamon34","gender":"1","school":"4","age":"10"},{"start_time":1552308852523,"click_time":1552308855250,"finger_time":1552308852909,"fix_duration":971.1582213449218,"trial":15,"RT":386,"MT":2341,"sideResp":2,"stimulus":[],"xmouse":[769,769,769,769,769,769,768,767,767,773,780,787,794,796,797,797,797,794,787,702,633,566,514,486,457,450,449,449,449,449,449,449,449,449,457,470,489,525,552,598,608,612,614,614,621,627,645,652,670,679,684,689,695,706,731,745,754,760,765,767,769,771,773,775,779,781,781,782,784,788,789,790,790,790,790,791,791,791,791,791,791,790,789,787,786,784,782,781,780,776,775,773,773,773,773,773,773,773,773,773,773,773,773,773,773,773,773,773,773,773,773,773,773,773,773,773,773,773,773,773,774,778,785,795,828,844,882,919,955,982,1043,1062,1076,1088,1105,1112,1120],"ymouse":[600,600,600,600,600,602,604,609,611,619,622,623,624,624,624,624,624,623,618,575,550,531,515,502,475,450,442,425,416,408,407,407,407,407,406,405,402,399,397,397,398,400,405,413,446,463,492,499,521,542,552,562,571,583,597,601,604,606,606,606,606,606,604,603,602,602,602,602,602,604,605,606,606,608,609,615,623,626,634,641,642,642,642,642,642,642,641,640,639,636,635,633,633,633,633,633,633,633,633,633,633,633,633,633,633,631,629,625,623,622,622,622,622,622,622,622,622,622,622,620,613,604,588,566,507,478,421,378,337,303,235,209,185,164,125,105,76],"timestamp_mouse":[11,27,46,66,86,105,126,147,167,186,207,225,246,266,285,306,326,346,367,386,405,426,446,466,486,506,526,547,567,586,607,626,646,666,686,705,726,746,766,786,807,827,846,867,886,906,926,946,967,986,1006,1026,1046,1067,1086,1106,1127,1146,1166,1186,1207,1227,1246,1266,1286,1307,1327,1346,1366,1386,1407,1427,1447,1466,1486,1507,1526,1547,1566,1586,1607,1627,1646,1667,1687,1707,1726,1746,1766,1786,1807,1827,1847,1866,1887,1907,1926,1946,1966,1986,2006,2027,2046,2067,2086,2107,2127,2146,2165,2186,2207,2226,2247,2267,2285,2307,2326,2347,2367,2387,2407,2427,2447,2466,2486,2506,2527,2546,2567,2586,2606,2627,2647,2667,2686,2706,2727],"xSR":741.5,"ySR":573.95,"xT1":424.9,"yT1":0,"xT2":1058.1,"yT2":0,"toosoon":0,"cond_shown":"Incongruent","ratio_trial":100,"L_num":13,"L_den":26,"R_num":6,"R_den":10,"correct_side":2,"subjID":"samanthagomezhamon34","gender":"1","school":"4","age":"10"},{"start_time":1552308857004,"click_time":1552308863089,"finger_time":1552308862329,"fix_duration":253.67758073919987,"trial":16,"RT":5325,"MT":760,"sideResp":2,"stimulus":[],"xmouse":[778,778,778,778,778,778,778,778,778,778,778,778,778,778,778,778,778,778,778,778,778,778,778,778,778,778,778,778,778,778,778,778,778,778,778,778,778,778,778,778,778,778,778,778,778,778,778,778,778,778,778,778,778,778,778,778,778,778,778,778,778,778,778,778,778,778,778,778,778,778,778,778,778,778,778,778,778,778,778,778,778,778,778,778,778,778,778,778,778,778,778,778,778,778,778,778,778,778,778,778,778,778,778,778,778,778,778,778,778,778,778,778,778,778,778,778,778,778,778,778,778,778,778,778,778,778,778,778,778,778,778,778,778,778,778,778,778,778,778,778,778,778,778,778,778,778,778,778,778,778,778,778,778,778,778,778,778,778,778,778,779,784,786,787,789,789,789,789,789,789,789,789,789,789,789,789,789,789,789,789,789,789,789,789,789,789,789,789,789,789,789,789,789,789,789,789,789,789,789,789,789,789,789,789,789,789,789,789,789,789,789,789,789,789,789,789,789,789,789,789,789,789,789,789,789,789,789,789,789,789,789,789,789,789,789,789,790,791,791,791,791,791,791,791,791,791,791,791,791,791,791,791,791,791,791,791,791,791,791,791,791,791,791,791,791,792,793,795,797,800,805,823,841,870,904,934,1055,1117,1183,1237,1281,1286,1287,1287,1287,1287,1287,1287,1287,1284,1282,1273,1267,1260,1253,1247,1237,1232,1230,1227,1222,1197,1179,1161,1149],"ymouse":[615,615,615,615,615,615,615,615,615,615,615,615,615,615,615,615,615,615,615,615,615,615,615,615,615,615,615,615,615,615,615,615,615,615,615,615,615,615,615,615,615,615,615,615,615,615,615,615,615,615,615,615,615,615,615,615,615,615,615,615,615,615,615,615,615,615,615,615,615,615,615,615,615,615,615,615,615,615,615,615,615,615,615,615,615,615,615,615,615,615,615,615,615,615,615,615,615,615,615,615,615,615,615,615,615,615,615,615,615,615,615,615,615,615,615,615,615,615,615,615,615,615,615,615,615,615,615,615,615,615,615,615,615,615,615,615,615,615,615,615,615,615,615,615,615,615,615,615,615,615,615,615,615,615,615,615,615,615,615,615,615,612,610,609,608,608,608,608,608,608,608,608,608,608,608,608,608,608,608,608,608,608,608,608,608,608,608,608,608,608,608,608,608,608,608,608,608,608,608,608,608,608,608,608,608,608,608,608,608,608,608,608,608,608,608,608,608,608,608,608,608,608,608,608,608,608,608,608,608,608,608,608,608,608,608,608,608,606,606,606,606,606,606,606,606,606,606,606,606,606,606,606,606,606,606,606,606,604,602,599,596,590,587,584,580,577,565,555,544,528,500,454,428,393,360,328,209,139,66,4,0,0,0,0,0,0,0,1,3,6,11,25,33,42,52,59,66,67,67,67,67,57,48,37,29],"timestamp_mouse":[14,38,46,65,86,104,125,145,166,186,206,225,244,266,285,305,325,346,366,385,405,426,446,466,484,505,525,546,565,585,605,625,646,665,686,706,724,746,766,786,805,826,846,865,886,906,924,946,965,986,1006,1025,1045,1065,1086,1105,1125,1145,1166,1186,1204,1226,1245,1266,1285,1305,1326,1346,1365,1384,1406,1426,1445,1466,1485,1504,1525,1546,1565,1585,1606,1626,1646,1665,1686,1706,1726,1745,1765,1786,1805,1826,1845,1864,1886,1906,1925,1946,1966,1984,2005,2026,2045,2065,2084,2106,2125,2145,2166,2185,2206,2226,2245,2265,2286,2306,2325,2346,2366,2386,2404,2426,2445,2466,2486,2506,2525,2546,2566,2586,2606,2626,2646,2665,2685,2706,2726,2745,2766,2786,2805,2826,2844,2865,2885,2906,2925,2946,2966,2985,3006,3025,3046,3066,3085,3105,3126,3145,3166,3186,3205,3225,3246,3265,3284,3306,3325,3345,3366,3385,3405,3424,3445,3466,3484,3506,3526,3546,3566,3586,3604,3626,3646,3665,3685,3706,3725,3746,3766,3785,3805,3825,3846,3865,3885,3906,3925,3946,3964,3986,4006,4024,4046,4066,4084,4105,4126,4146,4165,4185,4206,4225,4245,4266,4285,4306,4325,4344,4365,4386,4406,4426,4445,4465,4486,4506,4526,4545,4566,4584,4605,4626,4646,4666,4686,4705,4725,4745,4764,4786,4805,4825,4845,4866,4885,4906,4925,4946,4965,4986,5005,5025,5046,5066,5086,5106,5124,5145,5165,5186,5205,5225,5245,5266,5285,5305,5325,5344,5365,5385,5405,5425,5446,5465,5486,5504,5525,5545,5565,5585,5605,5625,5645,5666,5685,5704,5725,5745,5766,5785,5805,5828,5846,5865,5885,5906,5926,5945,5965,5986,6005,6025,6047,6066,6085],"xSR":741.5,"ySR":573.95,"xT1":424.9,"yT1":0,"xT2":1058.1,"yT2":0,"toosoon":0,"cond_shown":"Incongruent","ratio_trial":300,"L_num":7,"L_den":10,"R_num":8,"R_den":20,"correct_side":1,"subjID":"samanthagomezhamon34","gender":"1","school":"4","age":"10"},{"start_time":1552308867964,"click_time":1552308872209,"finger_time":1552308871049,"fix_duration":1212.015063316307,"trial":17,"RT":3085,"MT":1160,"sideResp":2,"stimulus":[],"xmouse":[777,777,777,777,777,777,777,777,777,777,777,777,778,780,781,781,781,781,781,781,781,781,781,781,781,781,781,781,781,781,781,781,781,781,781,781,781,781,781,781,781,781,781,781,781,781,781,781,781,781,781,781,781,781,781,781,781,781,781,781,781,781,781,781,781,781,781,781,781,781,781,781,781,781,781,781,781,781,781,781,781,781,781,781,781,781,781,781,781,781,781,781,781,781,781,781,781,781,781,781,781,781,781,781,781,781,781,781,781,781,781,781,781,781,781,781,781,781,781,781,781,781,781,781,781,781,781,781,781,781,781,781,781,781,781,781,781,781,781,781,781,781,781,781,781,781,781,781,781,781,781,781,781,784,787,791,798,803,811,815,818,821,825,831,837,850,861,873,890,897,902,906,909,915,916,919,919,924,932,938,944,949,953,955,961,962,968,973,987,995,1003,1009,1018,1029,1033,1037,1042,1047,1052,1053,1053,1054,1054,1054,1054,1054,1055,1055,1056,1057,1058,1059],"ymouse":[614,614,614,614,614,614,614,614,614,614,614,614,614,614,614,614,614,614,614,614,614,614,614,614,614,614,614,614,614,614,614,614,614,614,614,614,614,614,614,614,614,614,614,614,614,614,614,614,614,614,614,614,614,614,614,614,614,614,614,614,614,614,614,614,614,614,614,614,614,614,614,614,614,614,614,614,614,614,614,614,614,614,614,614,614,614,614,614,614,614,614,614,614,614,614,614,614,614,614,614,614,614,614,614,614,614,614,614,614,614,614,614,614,614,614,614,614,614,614,614,614,614,614,614,614,614,614,614,614,614,614,614,614,614,614,614,614,614,614,614,614,614,614,614,614,614,614,614,614,613,606,596,584,549,529,513,488,472,443,429,417,405,393,367,350,326,307,291,261,248,236,227,220,211,208,205,204,198,189,185,181,178,177,176,174,174,172,170,164,160,156,152,147,139,135,129,120,112,104,101,100,99,99,99,98,97,96,96,93,92,90,89],"timestamp_mouse":[9,45,65,86,105,125,145,166,185,206,226,245,266,285,306,325,345,365,385,406,424,446,465,486,505,526,545,565,585,605,625,646,664,686,704,725,746,766,785,805,826,844,866,885,905,926,946,965,986,1005,1026,1045,1065,1084,1105,1126,1146,1166,1185,1206,1225,1245,1265,1286,1305,1326,1346,1366,1385,1405,1426,1445,1466,1486,1505,1526,1544,1565,1586,1605,1626,1645,1666,1685,1706,1726,1746,1766,1785,1805,1825,1845,1866,1885,1905,1926,1945,1965,1985,2005,2025,2046,2065,2085,2106,2124,2146,2165,2185,2205,2224,2246,2266,2285,2306,2326,2344,2365,2385,2405,2425,2445,2465,2485,2506,2524,2546,2565,2586,2606,2625,2646,2664,2685,2706,2726,2745,2766,2784,2806,2825,2846,2865,2885,2906,2926,2945,2966,2986,3005,3025,3046,3065,3085,3105,3126,3145,3164,3185,3205,3225,3245,3266,3286,3305,3325,3344,3365,3386,3404,3426,3445,3465,3486,3504,3525,3546,3565,3585,3605,3625,3646,3665,3685,3706,3726,3744,3766,3785,3805,3825,3845,3865,3886,3904,3926,3944,3966,3986,4006,4026,4046,4065,4085,4104,4125,4146,4165,4185,4204,4226,4245],"xSR":741.5,"ySR":573.95,"xT1":424.9,"yT1":0,"xT2":1058.1,"yT2":0,"toosoon":0,"cond_shown":"Incongruent","ratio_trial":100,"L_num":10,"L_den":25,"R_num":9,"R_den":18,"correct_side":2,"subjID":"samanthagomezhamon34","gender":"1","school":"4","age":"10"},{"start_time":1552308874123,"click_time":1552308877049,"finger_time":1552308876709,"fix_duration":250,"trial":18,"RT":2586,"MT":340,"sideResp":2,"stimulus":[],"xmouse":[761,761,761,761,761,761,761,763,767,769,770,771,771,771,771,771,771,771,771,770,769,768,768,768,768,767,767,767,767,766,766,766,766,766,766,766,766,766,766,766,766,765,764,763,763,763,763,763,763,763,763,763,763,763,763,763,763,763,763,763,763,763,763,763,763,763,763,763,763,763,763,763,763,763,763,763,763,763,763,763,763,763,763,763,763,763,763,763,763,763,763,763,763,763,763,763,763,763,763,763,763,763,763,763,763,763,763,763,763,763,763,763,763,763,763,763,763,763,763,763,763,763,763,763,763,763,763,774,787,809,835,857,908,938,966,986,1011,1024,1045,1054,1062,1068,1074,1074,1076,1076,1079],"ymouse":[622,622,622,622,622,622,622,625,629,631,632,632,632,632,632,632,632,632,632,632,629,626,626,625,624,624,624,624,624,622,622,622,622,622,622,621,621,621,621,621,621,620,618,618,616,616,616,616,616,616,616,616,616,616,616,616,616,616,616,616,616,616,616,616,616,616,616,616,616,616,616,616,616,616,616,616,616,616,616,616,616,616,616,616,615,615,615,615,615,615,615,615,615,615,615,615,615,615,615,615,615,615,615,615,615,615,615,615,615,615,615,615,615,615,615,615,615,615,614,614,614,614,614,614,614,614,612,595,577,523,456,378,224,144,37,0,0,0,0,0,0,0,0,0,0,0,1],"timestamp_mouse":[11,26,46,67,86,105,127,147,167,187,207,227,246,267,287,307,326,347,366,386,406,426,447,466,486,505,527,546,565,585,605,627,646,665,686,706,726,746,767,786,806,826,847,866,887,907,927,947,967,986,1006,1027,1047,1066,1087,1107,1125,1147,1166,1186,1207,1226,1246,1267,1286,1306,1326,1346,1367,1386,1406,1427,1446,1466,1485,1506,1526,1547,1567,1586,1607,1626,1647,1667,1686,1705,1727,1747,1766,1787,1806,1827,1847,1866,1887,1906,1926,1945,1965,1985,2006,2027,2047,2066,2087,2106,2126,2147,2166,2187,2206,2226,2246,2267,2285,2307,2326,2346,2366,2386,2406,2426,2446,2467,2486,2505,2527,2546,2567,2586,2606,2627,2647,2665,2686,2706,2726,2746,2766,2786,2807,2827,2848,2866,2887,2906,2926],"xSR":741.5,"ySR":573.95,"xT1":424.9,"yT1":0,"xT2":1058.1,"yT2":0,"toosoon":0,"cond_shown":"Incongruent","ratio_trial":200,"L_num":14,"L_den":30,"R_num":6,"R_den":9,"correct_side":2,"subjID":"samanthagomezhamon34","gender":"1","school":"4","age":"10"},{"start_time":1552308879568,"click_time":1552308881570,"finger_time":1552308880850,"fix_duration":497.6448127318228,"trial":19,"RT":1282,"MT":720,"sideResp":1,"stimulus":[],"xmouse":[774,774,774,774,774,774,774,774,774,774,774,774,774,774,774,774,774,774,774,774,774,774,774,774,774,774,774,774,774,774,774,774,774,774,774,774,774,774,774,774,774,774,774,774,774,774,774,774,774,774,774,774,774,774,774,774,774,774,774,774,774,773,774,778,782,806,817,832,844,856,857,858,858,860,862,868,871,878,884,893,903,919,924,924,923,914,903,887,867,843,815,749,728,703,680,656,613,595,574,556,513],"ymouse":[605,605,605,605,605,605,605,605,605,605,605,605,605,605,605,605,605,605,605,605,605,605,605,605,605,605,605,605,605,605,605,605,605,605,605,605,605,605,605,605,605,605,605,605,605,605,605,605,605,605,605,605,605,605,605,605,605,605,605,605,605,605,602,591,568,490,457,422,393,350,344,335,327,315,306,289,283,274,266,255,244,221,203,196,191,183,179,176,174,174,171,166,160,153,143,135,119,110,95,86,65],"timestamp_mouse":[9,22,42,73,81,101,122,140,161,182,202,221,242,261,282,301,320,342,361,382,402,421,442,462,482,501,521,541,561,582,601,621,642,661,682,702,721,742,767,782,802,821,842,860,881,902,922,940,962,981,1002,1020,1040,1062,1082,1102,1121,1141,1162,1181,1201,1221,1241,1261,1282,1302,1321,1341,1361,1388,1403,1421,1441,1462,1482,1502,1520,1541,1562,1582,1602,1622,1642,1662,1680,1702,1721,1741,1762,1781,1801,1821,1841,1861,1881,1901,1921,1942,1962,1981,2002],"xSR":741.5,"ySR":573.95,"xT1":424.9,"yT1":0,"xT2":1058.1,"yT2":0,"toosoon":0,"cond_shown":"Congruent","ratio_trial":100,"L_num":15,"L_den":25,"R_num":13,"R_den":26,"correct_side":1,"subjID":"samanthagomezhamon34","gender":"1","school":"4","age":"10"},{"start_time":1552308884241,"click_time":1552308888950,"finger_time":1552308887910,"fix_duration":250,"trial":20,"RT":3669,"MT":1040,"sideResp":2,"stimulus":[],"xmouse":[789,789,789,786,785,785,785,785,788,794,798,800,805,810,815,821,828,836,838,839,839,839,839,839,839,839,839,840,840,840,840,840,840,840,840,840,840,840,840,840,840,840,840,840,840,840,840,840,840,840,840,840,840,840,840,840,840,840,840,840,840,840,840,840,840,840,840,840,840,840,840,840,840,840,840,840,840,840,840,840,840,840,840,840,840,840,840,840,840,840,840,840,840,840,840,840,840,840,840,840,840,840,840,840,840,840,840,840,840,840,840,840,840,840,840,840,840,840,840,840,840,840,840,840,840,840,840,840,840,840,840,840,840,840,840,840,840,840,840,840,840,840,840,840,840,840,840,840,840,840,840,840,840,840,840,840,840,840,840,840,840,840,840,840,840,840,840,840,840,840,840,840,840,840,840,840,840,840,840,840,840,841,840,831,829,830,834,837,837,837,837,838,838,838,838,838,838,838,838,838,838,840,844,867,909,1012,1090,1207,1229,1240,1246,1247,1247,1247,1247,1246,1246,1246,1241,1230,1217,1206,1196,1185,1182,1180,1171,1163,1161,1158,1156,1150,1139,1135,1133,1130],"ymouse":[597,597,597,599,599,600,600,600,600,600,600,600,600,600,600,600,600,600,600,600,600,600,600,600,600,600,600,600,600,600,600,600,600,600,600,600,600,600,600,600,600,600,600,600,600,600,600,600,600,600,600,600,600,600,600,600,600,600,600,600,600,600,600,600,600,600,600,600,600,600,600,600,600,600,600,600,600,600,600,600,600,600,600,600,600,600,600,600,600,600,600,600,600,600,600,600,600,600,600,600,600,600,600,600,600,600,600,600,600,600,600,600,600,600,600,600,600,600,600,600,600,600,600,600,600,600,600,600,600,600,600,600,600,600,600,600,600,600,600,600,600,600,600,600,600,600,600,600,600,600,600,600,600,600,600,600,600,600,600,600,600,600,600,600,600,600,600,600,600,600,600,600,600,600,600,600,600,600,600,600,600,594,586,536,492,482,464,460,460,460,460,460,459,459,459,459,459,459,459,459,459,456,451,441,424,370,320,223,188,161,135,114,96,82,77,73,71,70,68,69,73,75,76,75,68,59,38,7,0,0,0,0,0,0,0,3],"timestamp_mouse":[10,40,48,69,88,109,129,149,169,189,208,229,249,269,289,309,329,349,368,388,407,428,448,468,489,508,528,549,568,589,608,629,648,668,689,708,728,748,768,788,809,829,848,869,889,908,929,948,969,988,1008,1029,1049,1068,1089,1109,1129,1148,1168,1188,1209,1228,1248,1269,1288,1309,1329,1349,1369,1388,1407,1428,1447,1467,1488,1509,1529,1547,1569,1589,1608,1629,1648,1668,1689,1709,1729,1748,1769,1789,1808,1828,1849,1868,1889,1907,1929,1949,1968,1989,2009,2027,2049,2069,2088,2109,2129,2148,2168,2188,2209,2228,2249,2269,2290,2308,2329,2349,2368,2388,2408,2428,2449,2468,2489,2508,2529,2548,2568,2589,2609,2629,2648,2668,2689,2708,2729,2749,2769,2787,2809,2828,2848,2867,2888,2908,2928,2948,2969,2989,3007,3028,3049,3068,3089,3109,3128,3147,3169,3189,3209,3229,3248,3267,3288,3308,3327,3349,3368,3389,3408,3429,3449,3469,3489,3509,3528,3548,3569,3588,3609,3628,3648,3669,3688,3708,3728,3748,3769,3789,3807,3828,3848,3868,3888,3908,3927,3949,3968,3989,4007,4029,4048,4067,4089,4108,4129,4148,4168,4188,4208,4229,4248,4268,4288,4309,4328,4348,4369,4389,4408,4428,4448,4467,4488,4508,4528,4548,4568,4588,4608,4628,4651,4667,4688,4709],"xSR":741.5,"ySR":573.95,"xT1":424.9,"yT1":0,"xT2":1058.1,"yT2":0,"toosoon":0,"cond_shown":"Congruent","ratio_trial":100,"L_num":2,"L_den":5,"R_num":6,"R_den":12,"correct_side":2,"subjID":"samanthagomezhamon34","gender":"1","school":"4","age":"10"},{"start_time":1552308890965,"click_time":1552308899629,"finger_time":1552308894930,"fix_duration":734.4807614922205,"trial":21,"RT":3965,"MT":4699,"sideResp":2,"stimulus":[],"xmouse":[791,791,791,791,791,791,791,791,791,791,791,791,791,791,791,791,791,791,791,791,791,791,791,791,791,791,791,791,791,791,791,791,791,791,791,791,791,791,791,791,791,791,791,791,791,791,791,791,791,791,791,791,791,791,791,791,791,791,791,791,791,791,791,791,791,791,791,791,791,791,791,791,791,791,791,791,791,791,791,791,791,791,791,791,791,791,791,791,791,791,791,791,791,791,791,791,791,791,791,791,791,791,791,791,791,791,791,791,791,791,791,791,791,791,791,791,791,791,791,791,791,791,791,791,791,791,791,791,791,791,791,791,791,791,791,791,791,791,791,791,791,791,791,791,791,791,791,791,791,791,791,791,791,791,791,791,791,791,791,791,791,791,791,791,791,791,791,791,791,791,791,791,791,791,791,791,791,791,791,791,791,791,791,791,791,791,791,791,791,791,791,791,791,791,791,791,791,802,813,822,848,893,909,909,910,910,912,937,955,966,974,988,1022,1023,1020,1015,1015,1020,1046,1071,1089,1101,1147,1173,1193,1203,1204,1202,1202,1202,1202,1202,1202,1202,1202,1201,1201,1201,1201,1201,1201,1201,1201,1201,1201,1199,1199,1195,1191,1180,1175,1157,1113,1094,1076,1068,1063,1062,1060,1055,1046,1035,1014,1007,999,997,994,993,993,992,990,979,937,908,870,825,797,791,791,791,791,791,791,791,791,791,791,791,791,791,791,791,791,787,782,780,778,778,778,778,778,778,778,779,779,781,783,784,784,784,784,784,784,784,784,785,786,786,786,786,786,786,785,785,785,785,785,785,785,784,783,783,782,782,781,781,781,782,784,785,789,791,791,791,791,791,791,791,792,793,793,792,779,766,757,755,755,755,759,773,788,803,828,829,829,830,824,809,808,807,807,807,806,810,813,814,814,814,808,788,771,762,758,759,761,764,769,779,784,784,784,784,784,784,784,784,784,783,782,780,779,777,773,769,767,763,760,758,756,756,756,756,756,756,756,756,756,756,756,756,760,765,779,836,868,897,925,951,1000,1019,1040,1058,1093,1112],"ymouse":[601,601,601,601,601,601,601,601,601,601,601,601,601,601,601,601,601,601,601,601,601,601,601,601,601,601,601,601,601,601,601,601,601,601,601,601,601,601,601,601,601,601,601,601,601,601,601,601,601,601,601,601,601,601,601,601,601,601,601,601,601,601,601,601,601,601,601,601,601,601,601,601,601,601,601,601,601,601,601,601,601,601,601,601,601,601,601,601,601,601,601,601,601,601,601,601,601,601,601,601,601,601,601,601,601,601,601,601,601,601,601,601,601,601,601,601,601,601,601,601,601,601,601,601,601,601,601,601,601,601,601,601,601,601,601,601,601,601,601,601,601,601,601,601,601,601,601,601,601,601,601,601,601,601,601,601,601,601,601,601,601,601,601,601,601,601,601,601,601,601,601,601,601,601,601,601,601,601,601,601,601,601,601,601,601,601,601,601,601,601,601,601,601,601,601,601,601,579,558,540,509,471,428,419,416,416,416,469,493,509,521,532,550,554,558,563,563,563,562,562,560,558,569,576,582,586,586,586,586,586,586,586,586,586,586,587,587,587,587,587,587,587,587,587,587,587,586,584,583,583,583,584,590,591,591,591,591,591,591,592,594,595,599,600,600,600,600,600,600,600,600,601,603,603,605,609,614,617,617,617,617,617,617,617,617,617,617,617,617,617,617,617,617,619,623,626,627,627,627,627,627,627,626,622,620,612,603,593,592,592,592,592,592,593,594,599,603,610,613,615,618,620,622,622,623,623,623,623,623,621,620,617,606,602,599,597,596,594,592,592,591,591,591,591,591,591,591,591,591,591,592,596,612,625,631,632,632,630,622,610,602,595,590,590,590,591,599,610,612,612,612,612,612,608,606,605,605,605,612,623,632,635,637,626,617,612,592,571,555,551,550,550,550,550,550,550,551,552,554,557,560,563,573,582,585,597,607,623,632,635,637,638,638,638,638,638,638,638,638,638,630,622,606,547,514,475,438,400,286,241,206,170,109,77],"timestamp_mouse":[14,24,45,64,84,104,124,144,164,185,204,224,244,265,283,304,324,344,364,384,404,424,443,464,484,505,525,543,564,584,604,624,644,664,684,705,724,743,764,783,804,825,845,864,884,904,924,943,964,984,1003,1025,1044,1064,1083,1104,1125,1144,1164,1185,1204,1225,1244,1265,1284,1305,1325,1344,1365,1385,1404,1425,1444,1464,1484,1505,1524,1545,1565,1585,1605,1624,1645,1665,1684,1705,1725,1744,1764,1785,1805,1825,1845,1864,1885,1904,1924,1945,1965,1985,2004,2024,2043,2064,2085,2104,2125,2144,2163,2183,2204,2225,2244,2264,2284,2305,2325,2344,2364,2384,2405,2424,2443,2465,2484,2505,2524,2543,2566,2585,2604,2624,2645,2665,2685,2704,2725,2745,2765,2785,2805,2825,2845,2864,2885,2905,2925,2945,2964,2985,3004,3025,3044,3064,3084,3105,3124,3144,3164,3185,3203,3225,3245,3264,3284,3305,3325,3344,3365,3385,3404,3425,3445,3464,3485,3505,3525,3545,3565,3584,3604,3625,3645,3665,3685,3704,3725,3745,3765,3785,3804,3825,3845,3865,3885,3904,3925,3943,3965,3985,4005,4025,4045,4064,4084,4105,4125,4144,4164,4184,4204,4224,4245,4264,4284,4305,4324,4344,4365,4384,4404,4424,4443,4464,4485,4505,4524,4544,4564,4584,4604,4624,4644,4665,4685,4704,4723,4744,4765,4785,4804,4824,4844,4864,4884,4905,4924,4943,4964,4984,5004,5025,5044,5064,5085,5104,5124,5144,5165,5184,5204,5224,5244,5264,5284,5305,5324,5344,5364,5384,5404,5424,5444,5464,5484,5504,5525,5543,5565,5584,5605,5623,5644,5665,5683,5703,5724,5745,5765,5784,5805,5825,5845,5864,5884,5905,5924,5945,5963,5985,6005,6025,6044,6064,6084,6104,6124,6144,6163,6184,6205,6225,6244,6264,6285,6304,6324,6344,6365,6383,6404,6425,6444,6465,6484,6504,6525,6545,6564,6584,6604,6625,6644,6665,6685,6705,6725,6744,6764,6784,6804,6825,6844,6865,6885,6905,6924,6944,6964,6985,7005,7023,7044,7065,7083,7105,7125,7144,7165,7185,7204,7225,7244,7264,7283,7305,7324,7345,7365,7383,7405,7425,7445,7465,7483,7505,7524,7544,7563,7584,7605,7624,7644,7663,7684,7704,7724,7744,7764,7784,7804,7825,7845,7865,7883,7905,7925,7944,7964,7984,8005,8025,8044,8063,8084,8104,8126,8144,8165,8184,8204,8223,8245,8264,8284,8304,8324,8344,8364,8385,8405,8425,8445,8465,8484,8505,8524,8544,8565,8584,8605,8624,8645,8663],"xSR":741.5,"ySR":573.95,"xT1":424.9,"yT1":0,"xT2":1058.1,"yT2":0,"toosoon":0,"cond_shown":"Congruent","ratio_trial":200,"L_num":16,"L_den":30,"R_num":9,"R_den":27,"correct_side":1,"subjID":"samanthagomezhamon34","gender":"1","school":"4","age":"10"},{"start_time":1552308902236,"click_time":1552308903610,"finger_time":1552308903089,"fix_duration":1085.520172330114,"trial":22,"RT":853,"MT":521,"sideResp":1,"stimulus":[],"xmouse":[794,794,794,795,795,795,796,797,800,801,801,801,801,801,800,800,800,800,800,800,799,799,799,799,799,799,799,799,799,799,799,799,799,798,795,794,794,794,794,793,793,793,790,784,782,777,771,749,694,637,604,571,538,502,431,418,401,384,376,373,373,373,373,373,378,383,391,411,433],"ymouse":[620,620,620,619,617,613,608,605,598,593,591,589,588,587,587,587,587,586,585,583,581,581,581,581,581,581,581,581,581,581,581,581,581,580,577,577,576,576,576,574,574,574,570,564,562,557,551,522,423,256,132,11,0,0,0,0,0,0,0,0,0,0,0,2,12,20,32,59,76],"timestamp_mouse":[14,36,54,73,93,114,132,154,174,192,212,233,254,274,293,312,334,353,373,392,414,434,453,474,493,513,533,553,573,593,613,634,653,673,694,713,733,754,772,793,812,834,853,873,893,914,934,953,974,993,1012,1033,1053,1074,1094,1113,1133,1154,1174,1194,1213,1234,1253,1273,1294,1312,1334,1354,1374],"xSR":741.5,"ySR":573.95,"xT1":424.9,"yT1":0,"xT2":1058.1,"yT2":0,"toosoon":0,"cond_shown":"Incongruent","ratio_trial":300,"L_num":8,"L_den":10,"R_num":9,"R_den":18,"correct_side":1,"subjID":"samanthagomezhamon34","gender":"1","school":"4","age":"10"},{"start_time":1552308908746,"click_time":1552308910089,"finger_time":1552308909168,"fix_duration":793.5433858938211,"trial":23,"RT":422,"MT":921,"sideResp":2,"stimulus":[],"xmouse":[764,764,764,764,764,764,764,764,764,764,764,764,764,765,771,774,774,774,774,774,761,741,709,661,601,535,525,523,523,529,540,543,546,547,553,567,587,617,662,734,944,1018,1067,1093,1111,1125,1127,1130,1135,1149,1185,1203,1215,1219,1219,1206,1195,1182,1173,1168,1164,1163,1163,1163,1163,1163,1161,1156],"ymouse":[638,638,638,638,638,638,638,638,638,638,638,638,637,636,630,629,629,629,629,629,629,629,629,626,616,595,582,566,547,534,520,519,519,519,519,516,509,500,481,454,385,361,348,340,334,327,321,311,297,273,237,222,207,197,189,164,148,132,122,114,107,105,105,105,105,101,93,82],"timestamp_mouse":[9,24,45,63,84,104,122,144,164,184,204,223,243,263,284,303,323,343,364,384,403,422,443,464,483,504,523,542,563,584,603,623,643,664,683,704,724,744,762,783,803,824,843,864,883,904,923,943,963,984,1002,1023,1043,1064,1083,1103,1124,1143,1163,1183,1203,1223,1242,1263,1283,1304,1323,1343],"xSR":741.5,"ySR":573.95,"xT1":424.9,"yT1":0,"xT2":1058.1,"yT2":0,"toosoon":0,"cond_shown":"Congruent","ratio_trial":300,"L_num":5,"L_den":25,"R_num":6,"R_den":12,"correct_side":2,"subjID":"samanthagomezhamon34","gender":"1","school":"4","age":"10"},{"start_time":1552308912676,"click_time":1552308917209,"finger_time":1552308912730,"fix_duration":525.9893070296422,"trial":24,"RT":54,"MT":4479,"sideResp":2,"stimulus":[],"xmouse":[803,836,873,897,907,907,907,901,880,855,830,795,789,788,788,788,789,790,793,794,794,794,794,794,795,791,788,787,787,787,787,787,787,785,785,785,787,789,790,791,792,796,800,803,805,805,805,805,802,790,787,782,781,779,777,776,775,775,775,776,779,784,785,787,787,787,787,787,787,797,801,805,806,806,806,806,806,806,806,806,806,806,806,806,806,806,806,806,806,806,806,805,804,803,802,802,802,802,802,802,802,803,804,806,812,816,817,819,821,828,829,829,829,830,831,831,832,833,834,834,834,834,834,834,834,834,834,834,834,834,834,834,834,834,834,834,834,834,834,834,834,834,834,834,834,834,834,834,834,834,834,834,834,834,834,834,834,834,834,834,834,834,834,834,834,834,834,834,834,834,834,834,834,834,834,834,834,834,834,834,834,835,836,836,837,839,842,844,846,847,848,849,849,849,849,849,849,849,849,849,849,849,849,849,849,849,849,849,849,849,849,849,847,845,843,845,848,856,877,890,923,949,980,1026,1046,1070,1090],"ymouse":[627,630,633,633,633,633,633,633,631,627,623,619,616,615,613,610,608,607,604,603,603,603,603,603,606,610,613,614,614,614,614,614,614,606,599,595,590,587,585,585,585,585,587,589,590,592,593,595,597,600,600,601,601,601,598,596,592,588,582,579,575,570,569,568,568,568,568,568,568,581,586,593,598,605,605,606,606,606,606,606,606,606,606,606,606,606,606,606,606,608,609,613,618,626,629,631,632,632,632,632,634,635,637,638,641,643,643,643,643,643,643,643,643,643,641,638,635,633,629,629,629,629,629,629,629,629,629,629,629,629,629,629,629,629,629,629,629,629,629,629,629,629,629,629,629,629,629,629,629,629,629,629,629,629,629,629,629,629,629,629,629,629,629,629,629,629,629,629,629,629,629,629,629,629,629,629,629,629,629,629,629,629,630,630,625,608,593,581,568,565,563,562,562,562,562,562,562,562,562,562,562,562,562,562,560,554,549,546,545,545,539,530,516,503,480,467,455,438,392,364,312,276,230,172,148,119,91],"timestamp_mouse":[16,36,54,73,94,113,134,154,173,192,213,234,254,272,294,314,334,353,373,394,414,433,453,474,494,512,533,554,573,594,612,633,654,673,693,714,734,754,774,793,813,833,854,872,893,913,934,953,973,994,1014,1034,1052,1073,1093,1113,1133,1153,1173,1194,1214,1233,1253,1274,1293,1313,1334,1353,1373,1394,1414,1434,1453,1473,1493,1514,1534,1552,1574,1594,1613,1633,1654,1672,1693,1713,1732,1753,1773,1794,1814,1833,1853,1874,1893,1913,1933,1953,1974,1994,2014,2033,2052,2073,2093,2113,2133,2154,2173,2193,2213,2234,2253,2273,2294,2314,2333,2353,2374,2393,2414,2434,2454,2474,2493,2513,2533,2553,2574,2594,2613,2633,2654,2674,2693,2714,2734,2753,2774,2794,2814,2834,2854,2873,2894,2913,2932,2954,2974,2994,3014,3032,3054,3072,3093,3113,3132,3153,3172,3193,3214,3234,3253,3274,3292,3314,3334,3354,3373,3392,3414,3434,3453,3472,3492,3514,3534,3553,3574,3594,3613,3633,3653,3674,3693,3714,3733,3754,3774,3792,3814,3832,3854,3873,3894,3913,3934,3953,3974,3994,4013,4034,4053,4074,4093,4113,4134,4153,4173,4193,4214,4234,4254,4274,4294,4313,4333,4353,4375,4392,4414,4433,4454,4474,4493,4513,4533],"xSR":741.5,"ySR":573.95,"xT1":424.9,"yT1":0,"xT2":1058.1,"yT2":0,"toosoon":0,"cond_shown":"Congruent","ratio_trial":200,"L_num":4,"L_den":8,"R_num":3,"R_den":10,"correct_side":1,"subjID":"samanthagomezhamon34","gender":"1","school":"4","age":"10"},{"start_time":1552308919470,"click_time":1552308920969,"finger_time":1552308920049,"fix_duration":1497.1745842001733,"trial":25,"RT":579,"MT":920,"sideResp":2,"stimulus":[],"xmouse":[819,819,819,819,819,819,819,819,819,819,819,819,819,819,819,820,820,820,820,820,820,820,820,820,819,807,802,796,795,794,790,789,787,785,784,780,777,773,772,771,776,789,809,832,867,935,952,967,977,984,1007,1015,1020,1025,1027,1028,1028,1026,1021,1019,1017,1017,1017,1017,1017,1017,1017,1017,1019,1024,1035,1039,1044,1049,1054,1065],"ymouse":[616,616,616,616,616,616,616,616,616,616,616,616,616,615,615,615,615,615,615,615,615,615,615,614,612,600,592,582,576,568,549,540,533,526,519,505,495,486,480,475,456,441,427,413,397,368,356,341,322,304,255,241,230,220,213,201,194,188,177,174,166,165,164,164,164,164,164,163,159,153,134,123,112,100,88,66],"timestamp_mouse":[1,19,46,58,79,100,120,139,159,179,200,220,240,260,279,299,320,339,359,379,399,418,438,460,480,499,520,539,559,579,599,620,639,660,679,700,719,739,759,778,798,820,839,860,880,899,919,939,959,979,999,1020,1040,1060,1080,1099,1120,1139,1159,1179,1199,1218,1240,1259,1280,1299,1320,1340,1360,1380,1399,1420,1439,1460,1479,1499],"xSR":741.5,"ySR":573.95,"xT1":424.9,"yT1":0,"xT2":1058.1,"yT2":0,"toosoon":0,"cond_shown":"Incongruent","ratio_trial":100,"L_num":2,"L_den":4,"R_num":6,"R_den":15,"correct_side":1,"subjID":"samanthagomezhamon34","gender":"1","school":"4","age":"10"},{"start_time":1552308925021,"click_time":1552308925989,"finger_time":1552308925729,"fix_duration":250,"trial":26,"RT":708,"MT":260,"sideResp":1,"stimulus":[],"xmouse":[793,793,791,791,790,790,789,7