[{"start_time":1552309849714,"click_time":1552309851807,"finger_time":1552309849750,"fix_duration":302.65802633946606,"trial":0,"RT":36,"MT":2057,"sideResp":2,"stimulus":"img/900/randomdotsizeEA/L/10_Ratio_900_L_20_R_18.png","xmouse":[736,734,733,733,733,733,733,733,733,733,733,733,733,733,733,733,733,733,733,734,735,736,737,737,737,737,737,737,737,737,737,737,737,737,737,738,739,739,739,739,739,739,739,739,739,739,739,739,742,746,751,757,760,760,760,760,760,760,760,760,760,760,761,761,761,761,761,761,761,761,761,761,758,748,743,740,738,737,737,738,741,747,767,787,805,825,840,863,872,880,889,899,926,939,954,969,984,999,1022,1031,1040,1048,1056,1068],"ymouse":[582,596,598,598,598,599,599,599,599,599,599,599,599,599,599,597,597,595,594,590,586,583,576,571,571,571,571,571,571,571,571,571,571,565,559,556,553,552,551,551,549,547,544,541,540,540,540,540,539,538,537,537,537,536,536,536,536,536,536,536,536,536,536,536,536,537,537,537,537,537,525,517,498,442,433,428,426,424,423,421,415,406,378,350,336,324,317,305,297,291,283,270,235,221,207,193,180,166,143,132,122,114,106,97],"timestamp_mouse":[35,51,73,91,111,131,153,173,192,212,232,252,271,292,312,331,352,372,392,412,432,452,472,492,512,532,553,572,592,612,632,652,671,692,712,732,752,772,792,812,833,853,872,891,912,931,953,973,991,1013,1032,1053,1072,1093,1113,1131,1152,1172,1191,1213,1233,1253,1273,1292,1312,1333,1352,1371,1392,1413,1432,1451,1471,1492,1512,1532,1552,1572,1592,1612,1631,1651,1673,1692,1711,1732,1751,1773,1792,1813,1831,1852,1873,1892,1912,1932,1952,1973,1991,2013,2033,2052,2071,2093],"xSR":741.5,"ySR":501.8,"xT1":424.9,"yT1":0,"xT2":1058.1,"yT2":0,"toosoon":0,"cond_shown":"randomdotsizeEA","ratio_trial":900,"smaller_num":"18","larger_num":"20","correct_side":1,"subjID":"samantha gomez hamon 34","gender":"1","age":"10","school":"4","test":{"fix_dur":[250,1500],"timestim":300,"targets_dim":[100,100],"targets_relative_coord":[0.3,0.7],"size_stim":[880,420],"start_dim":[100,100],"size_start":[300,300],"size_fix":60,"samplingrate":20,"img_types":["equaldotsize","equaldotanddens","randomdotsizeEA"],"ratios":[250,500,750,900],"rep_conds":9,"nTrials":120,"trials_to_rest":500,"Trials_order":[59,97,19,37,91,18,73,2,117,6,27,41,118,51,1,93,85,17,115,86,10,49,24,3,111,112,7,104,66,50,29,53,5,23,35,11,12,13,110,56,83,60,75,39,72,57,79,0,80,62,101,47,78,119,45,67,68,8,32,77,74,9,28,26,87,44,88,84,102,82,46,55,63,81,22,103,69,38,94,21,105,31,52,16,116,36,43,42,95,40,25,113,65,107,106,64,34,89,96,71,108,92,14,30,98,48,58,90,61,33,4,100,99,76,15,20,70,114,54,109],"cond_shown":["randomdotsizeEA","equaldotanddens","equaldotanddens","equaldotanddens","equaldotanddens","equaldotsize","equaldotanddens","randomdotsizeEA","equaldotsize","equaldotsize","equaldotsize","randomdotsizeEA","equaldotanddens","equaldotsize","equaldotanddens","equaldotsize","equaldotanddens","randomdotsizeEA","equaldotanddens","randomdotsizeEA","equaldotanddens","equaldotanddens","equaldotsize","equaldotsize","equaldotsize","equaldotanddens","equaldotanddens","randomdotsizeEA","equaldotsize","randomdotsizeEA","randomdotsizeEA","randomdotsizeEA","randomdotsizeEA","randomdotsizeEA","randomdotsizeEA","randomdotsizeEA","equaldotsize","equaldotanddens","randomdotsizeEA","randomdotsizeEA","randomdotsizeEA","equaldotsize","equaldotsize","equaldotsize","equaldotsize","equaldotsize","equaldotanddens","equaldotsize","randomdotsizeEA","randomdotsizeEA","randomdotsizeEA","randomdotsizeEA","equaldotsize","randomdotsizeEA","equaldotsize","equaldotanddens","randomdotsizeEA","randomdotsizeEA","randomdotsizeEA","randomdotsizeEA","randomdotsizeEA","equaldotsize","equaldotanddens","randomdotsizeEA","equaldotsize","randomdotsizeEA","equaldotanddens","equaldotsize","equaldotsize","equaldotanddens","equaldotanddens","equaldotanddens","equaldotsize","equaldotsize","equaldotanddens","equaldotanddens","equaldotsize","randomdotsizeEA","equaldotanddens","equaldotsize","equaldotsize","equaldotanddens","equaldotanddens","equaldotanddens","randomdotsizeEA","equaldotsize","equaldotanddens","equaldotsize","randomdotsizeEA","equaldotanddens","equaldotanddens","randomdotsizeEA","randomdotsizeEA","randomdotsizeEA","equaldotanddens","equaldotanddens","equaldotanddens","randomdotsizeEA","equaldotsize","randomdotsizeEA","equaldotsize","randomdotsizeEA","randomdotsizeEA","equaldotsize","randomdotsizeEA","equaldotsize","equaldotanddens","equaldotsize","equaldotanddens","equaldotsize","equaldotanddens","equaldotanddens","equaldotsize","equaldotanddens","equaldotsize","randomdotsizeEA","equaldotanddens","equaldotsize","equaldotsize","equaldotanddens"],"ratio_trial":[900,250,750,250,750,750,250,250,900,750,500,500,900,500,250,900,250,500,750,250,900,250,250,500,500,500,750,750,750,250,500,500,500,900,900,900,250,250,250,750,900,250,500,500,250,900,750,250,750,250,500,900,750,900,900,750,750,750,750,500,250,900,500,250,500,750,500,250,750,900,900,750,500,900,900,750,900,250,900,900,900,750,500,500,750,250,750,750,900,500,250,500,500,900,900,500,900,500,250,900,250,750,250,750,250,250,900,750,250,900,500,500,500,500,500,750,900,750,750,250],"smaller_num":["18","6","3","6","3","3","2","3","9","18","9","2","18","10","2","9","4","10","12","2","18","4","6","6","2","5","18","15","3","4","3","9","5","18","18","9","6","4","2","6","18","2","6","4","6","9","9","4","9","4","5","18","3","18","18","18","15","15","3","5","3","18","6","2","1","15","10","2","15","18","18","12","2","9","9","3","18","3","18","9","18","15","2","10","6","3","15","3","9","5","3","3","4","18","9","2","9","2","3","18","3","3","1","3","2","2","9","18","2","9","3","9","5","5","2","15","9","15","15","3"],"larger_num":["20","24","4","24","4","4","8","12","10","24","18","4","20","20","8","10","16","20","16","8","20","16","24","12","4","10","24","20","4","16","6","18","10","20","20","10","24","16","8","8","20","8","12","8","24","10","12","16","12","16","10","20","4","20","20","24","20","20","4","10","12","20","12","8","2","20","20","8","20","20","20","16","4","10","10","4","20","12","20","10","20","20","4","20","8","12","20","4","10","10","12","6","8","20","10","4","10","4","12","20","12","4","4","4","8","8","10","24","8","10","6","18","10","10","4","20","10","20","20","12"],"correct_side":[1,2,2,1,2,1,2,2,2,1,1,1,2,2,1,2,2,2,2,2,2,1,2,1,1,2,1,2,1,1,2,1,1,2,1,1,1,1,2,1,1,1,1,1,2,2,2,2,2,1,1,2,1,2,2,1,2,2,2,1,1,1,1,1,2,1,2,1,2,1,1,2,2,2,2,1,1,2,1,1,2,2,1,2,1,2,2,2,2,1,1,2,1,1,1,2,1,2,1,1,2,1,2,1,1,1,2,1,1,2,2,2,2,2,1,2,2,1,2,2],"img_shown":["img/900/randomdotsizeEA/L/10_Ratio_900_L_20_R_18.png","img/250/equaldotanddens/R/6_Ratio_250_L_6_R_24.png","img/750/equaldotanddens/R/12_Ratio_750_L_3_R_4.png","img/250/equaldotanddens/L/5_Ratio_250_L_24_R_6.png","img/750/equaldotanddens/R/7_Ratio_750_L_3_R_4.png","img/750/equaldotsize/L/9_Ratio_750_L_4_R_3.png","img/250/equaldotanddens/R/13_Ratio_250_L_2_R_8.png","img/250/randomdotsizeEA/R/11_Ratio_250_L_3_R_12.png","img/900/equaldotsize/R/3_Ratio_900_L_9_R_10.png","img/750/equaldotsize/L/6_Ratio_750_L_24_R_18.png","img/500/equaldotsize/L/4_Ratio_500_L_18_R_9.png","img/500/randomdotsizeEA/L/5_Ratio_500_L_4_R_2.png","img/900/equaldotanddens/R/14_Ratio_900_L_18_R_20.png","img/500/equaldotsize/R/3_Ratio_500_L_10_R_20.png","img/250/equaldotanddens/L/1_Ratio_250_L_8_R_2.png","img/900/equaldotsize/R/6_Ratio_900_L_9_R_10.png","img/250/equaldotanddens/R/10_Ratio_250_L_4_R_16.png","img/500/randomdotsizeEA/R/3_Ratio_500_L_10_R_20.png","img/750/equaldotanddens/R/11_Ratio_750_L_12_R_16.png","img/250/randomdotsizeEA/R/13_Ratio_250_L_2_R_8.png","img/900/equaldotanddens/R/9_Ratio_900_L_18_R_20.png","img/250/equaldotanddens/L/2_Ratio_250_L_16_R_4.png","img/250/equaldotsize/R/6_Ratio_250_L_6_R_24.png","img/500/equaldotsize/L/13_Ratio_500_L_12_R_6.png","img/500/equaldotsize/L/5_Ratio_500_L_4_R_2.png","img/500/equaldotanddens/R/14_Ratio_500_L_5_R_10.png","img/750/equaldotanddens/L/6_Ratio_750_L_24_R_18.png","img/750/randomdotsizeEA/R/3_Ratio_750_L_15_R_20.png","img/750/equaldotsize/L/8_Ratio_750_L_4_R_3.png","img/250/randomdotsizeEA/L/2_Ratio_250_L_16_R_4.png","img/500/randomdotsizeEA/R/2_Ratio_500_L_3_R_6.png","img/500/randomdotsizeEA/L/4_Ratio_500_L_18_R_9.png","img/500/randomdotsizeEA/L/7_Ratio_500_L_10_R_5.png","img/900/randomdotsizeEA/R/9_Ratio_900_L_18_R_20.png","img/900/randomdotsizeEA/L/4_Ratio_900_L_20_R_18.png","img/900/randomdotsizeEA/L/1_Ratio_900_L_10_R_9.png","img/250/equaldotsize/L/5_Ratio_250_L_24_R_6.png","img/250/equaldotanddens/L/2_Ratio_250_L_16_R_4.png","img/250/randomdotsizeEA/R/13_Ratio_250_L_2_R_8.png","img/750/randomdotsizeEA/L/14_Ratio_750_L_8_R_6.png","img/900/randomdotsizeEA/L/8_Ratio_900_L_20_R_18.png","img/250/equaldotsize/L/1_Ratio_250_L_8_R_2.png","img/500/equaldotsize/L/13_Ratio_500_L_12_R_6.png","img/500/equaldotsize/L/8_Ratio_500_L_8_R_4.png","img/250/equaldotsize/R/6_Ratio_250_L_6_R_24.png","img/900/equaldotsize/R/7_Ratio_900_L_9_R_10.png","img/750/equaldotanddens/R/15_Ratio_750_L_9_R_12.png","img/250/equaldotsize/R/10_Ratio_250_L_4_R_16.png","img/750/randomdotsizeEA/R/15_Ratio_750_L_9_R_12.png","img/250/randomdotsizeEA/L/2_Ratio_250_L_16_R_4.png","img/500/randomdotsizeEA/L/7_Ratio_500_L_10_R_5.png","img/900/randomdotsizeEA/R/9_Ratio_900_L_18_R_20.png","img/750/equaldotsize/L/9_Ratio_750_L_4_R_3.png","img/900/randomdotsizeEA/R/9_Ratio_900_L_18_R_20.png","img/900/equaldotsize/R/13_Ratio_900_L_18_R_20.png","img/750/equaldotanddens/L/6_Ratio_750_L_24_R_18.png","img/750/randomdotsizeEA/R/5_Ratio_750_L_15_R_20.png","img/750/randomdotsizeEA/R/4_Ratio_750_L_15_R_20.png","img/750/randomdotsizeEA/R/7_Ratio_750_L_3_R_4.png","img/500/randomdotsizeEA/L/7_Ratio_500_L_10_R_5.png","img/250/randomdotsizeEA/L/14_Ratio_250_L_12_R_3.png","img/900/equaldotsize/L/2_Ratio_900_L_20_R_18.png","img/500/equaldotanddens/L/11_Ratio_500_L_12_R_6.png","img/250/randomdotsizeEA/L/1_Ratio_250_L_8_R_2.png","img/500/equaldotsize/R/15_Ratio_500_L_1_R_2.png","img/750/randomdotsizeEA/L/1_Ratio_750_L_20_R_15.png","img/500/equaldotanddens/R/3_Ratio_500_L_10_R_20.png","img/250/equaldotsize/L/1_Ratio_250_L_8_R_2.png","img/750/equaldotsize/R/5_Ratio_750_L_15_R_20.png","img/900/equaldotanddens/L/4_Ratio_900_L_20_R_18.png","img/900/equaldotanddens/L/2_Ratio_900_L_20_R_18.png","img/750/equaldotanddens/R/11_Ratio_750_L_12_R_16.png","img/500/equaldotsize/R/9_Ratio_500_L_2_R_4.png","img/900/equaldotsize/R/15_Ratio_900_L_9_R_10.png","img/900/equaldotanddens/R/3_Ratio_900_L_9_R_10.png","img/750/equaldotanddens/L/10_Ratio_750_L_4_R_3.png","img/900/equaldotsize/L/4_Ratio_900_L_20_R_18.png","img/250/randomdotsizeEA/R/11_Ratio_250_L_3_R_12.png","img/900/equaldotanddens/L/2_Ratio_900_L_20_R_18.png","img/900/equaldotsize/L/1_Ratio_900_L_10_R_9.png","img/900/equaldotsize/R/14_Ratio_900_L_18_R_20.png","img/750/equaldotanddens/R/3_Ratio_750_L_15_R_20.png","img/500/equaldotanddens/L/5_Ratio_500_L_4_R_2.png","img/500/equaldotanddens/R/3_Ratio_500_L_10_R_20.png","img/750/randomdotsizeEA/L/14_Ratio_750_L_8_R_6.png","img/250/equaldotsize/R/4_Ratio_250_L_3_R_12.png","img/750/equaldotanddens/R/5_Ratio_750_L_15_R_20.png","img/750/equaldotsize/R/7_Ratio_750_L_3_R_4.png","img/900/randomdotsizeEA/R/15_Ratio_900_L_9_R_10.png","img/500/equaldotanddens/L/7_Ratio_500_L_10_R_5.png","img/250/equaldotanddens/L/15_Ratio_250_L_12_R_3.png","img/500/randomdotsizeEA/R/2_Ratio_500_L_3_R_6.png","img/500/randomdotsizeEA/L/8_Ratio_500_L_8_R_4.png","img/900/randomdotsizeEA/L/2_Ratio_900_L_20_R_18.png","img/900/equaldotanddens/L/1_Ratio_900_L_10_R_9.png","img/500/equaldotanddens/R/9_Ratio_500_L_2_R_4.png","img/900/equaldotanddens/L/1_Ratio_900_L_10_R_9.png","img/500/randomdotsizeEA/R/9_Ratio_500_L_2_R_4.png","img/250/equaldotsize/L/14_Ratio_250_L_12_R_3.png","img/900/randomdotsizeEA/L/10_Ratio_900_L_20_R_18.png","img/250/equaldotsize/R/9_Ratio_250_L_3_R_12.png","img/750/randomdotsizeEA/L/8_Ratio_750_L_4_R_3.png","img/250/randomdotsizeEA/R/8_Ratio_250_L_1_R_4.png","img/750/equaldotsize/L/8_Ratio_750_L_4_R_3.png","img/250/randomdotsizeEA/L/1_Ratio_250_L_8_R_2.png","img/250/equaldotsize/L/1_Ratio_250_L_8_R_2.png","img/900/equaldotanddens/R/3_Ratio_900_L_9_R_10.png","img/750/equaldotsize/L/6_Ratio_750_L_24_R_18.png","img/250/equaldotanddens/L/1_Ratio_250_L_8_R_2.png","img/900/equaldotsize/R/3_Ratio_900_L_9_R_10.png","img/500/equaldotanddens/R/2_Ratio_500_L_3_R_6.png","img/500/equaldotanddens/R/6_Ratio_500_L_9_R_18.png","img/500/equaldotsize/R/14_Ratio_500_L_5_R_10.png","img/500/equaldotanddens/R/14_Ratio_500_L_5_R_10.png","img/500/equaldotsize/L/5_Ratio_500_L_4_R_2.png","img/750/randomdotsizeEA/R/3_Ratio_750_L_15_R_20.png","img/900/equaldotanddens/R/6_Ratio_900_L_9_R_10.png","img/750/equaldotsize/L/1_Ratio_750_L_20_R_15.png","img/750/equaldotsize/R/4_Ratio_750_L_15_R_20.png","img/250/equaldotanddens/R/9_Ratio_250_L_3_R_12.png"],"Rat0":[["12_Ratio_0_L_9_R_0.png","13_Ratio_0_L_6_R_0.png","5_Ratio_0_L_2_R_0.png","6_Ratio_0_L_4_R_0.png","8_Ratio_0_L_6_R_0.png"],["1_Ratio_0_L_0_R_17.png","10_Ratio_0_L_0_R_22.png","11_Ratio_0_L_0_R_1.png","14_Ratio_0_L_0_R_24.png","15_Ratio_0_L_0_R_4.png","2_Ratio_0_L_0_R_5.png","3_Ratio_0_L_0_R_17.png","4_Ratio_0_L_0_R_7.png","7_Ratio_0_L_0_R_19.png","9_Ratio_0_L_0_R_15.png"]],"Rat250":[["1_Ratio_250_L_8_R_2.png","14_Ratio_250_L_12_R_3.png","15_Ratio_250_L_12_R_3.png","2_Ratio_250_L_16_R_4.png","3_Ratio_250_L_8_R_2.png","5_Ratio_250_L_24_R_6.png","7_Ratio_250_L_8_R_2.png"],["10_Ratio_250_L_4_R_16.png","11_Ratio_250_L_3_R_12.png","12_Ratio_250_L_5_R_20.png","13_Ratio_250_L_2_R_8.png","4_Ratio_250_L_3_R_12.png","6_Ratio_250_L_6_R_24.png","8_Ratio_250_L_1_R_4.png","9_Ratio_250_L_3_R_12.png"]],"Rat500":[["10_Ratio_500_L_4_R_2.png","11_Ratio_500_L_12_R_6.png","13_Ratio_500_L_12_R_6.png","4_Ratio_500_L_18_R_9.png","5_Ratio_500_L_4_R_2.png","7_Ratio_500_L_10_R_5.png","8_Ratio_500_L_8_R_4.png"],["1_Ratio_500_L_9_R_18.png","12_Ratio_500_L_1_R_2.png","14_Ratio_500_L_5_R_10.png","15_Ratio_500_L_1_R_2.png","2_Ratio_500_L_3_R_6.png","3_Ratio_500_L_10_R_20.png","6_Ratio_500_L_9_R_18.png","9_Ratio_500_L_2_R_4.png"]],"Rat750":[["1_Ratio_750_L_20_R_15.png","10_Ratio_750_L_4_R_3.png","13_Ratio_750_L_8_R_6.png","14_Ratio_750_L_8_R_6.png","6_Ratio_750_L_24_R_18.png","8_Ratio_750_L_4_R_3.png","9_Ratio_750_L_4_R_3.png"],["11_Ratio_750_L_12_R_16.png","12_Ratio_750_L_3_R_4.png","15_Ratio_750_L_9_R_12.png","2_Ratio_750_L_6_R_8.png","3_Ratio_750_L_15_R_20.png","4_Ratio_750_L_15_R_20.png","5_Ratio_750_L_15_R_20.png","7_Ratio_750_L_3_R_4.png"]],"Rat900":[["1_Ratio_900_L_10_R_9.png","10_Ratio_900_L_20_R_18.png","2_Ratio_900_L_20_R_18.png","4_Ratio_900_L_20_R_18.png","8_Ratio_900_L_20_R_18.png"],["11_Ratio_900_L_18_R_20.png","12_Ratio_900_L_18_R_20.png","13_Ratio_900_L_18_R_20.png","14_Ratio_900_L_18_R_20.png","15_Ratio_900_L_9_R_10.png","3_Ratio_900_L_9_R_10.png","5_Ratio_900_L_9_R_10.png","6_Ratio_900_L_9_R_10.png","7_Ratio_900_L_9_R_10.png","9_Ratio_900_L_18_R_20.png"]],"Rat1000":[["10_Ratio_1000_L_16_R_16.png","11_Ratio_1000_L_6_R_6.png","12_Ratio_1000_L_14_R_14.png","13_Ratio_1000_L_20_R_20.png","15_Ratio_1000_L_15_R_15.png","2_Ratio_1000_L_17_R_17.png","4_Ratio_1000_L_9_R_9.png","5_Ratio_1000_L_6_R_6.png","6_Ratio_1000_L_19_R_19.png","8_Ratio_1000_L_14_R_14.png","9_Ratio_1000_L_25_R_25.png"],["1_Ratio_1000_L_1_R_1.png","14_Ratio_1000_L_17_R_17.png","3_Ratio_1000_L_17_R_17.png","7_Ratio_1000_L_6_R_6.png"]]}},{"start_time":1552309854455,"click_time":1552309855846,"finger_time":1552309855127,"fix_duration":1428.4478184821535,"trial":1,"RT":672,"MT":719,"sideResp":2,"stimulus":"img/250/equaldotanddens/R/6_Ratio_250_L_6_R_24.png","xmouse":[767,767,767,767,766,765,765,762,762,762,762,762,761,761,761,761,761,761,761,761,761,761,761,761,761,761,763,772,779,784,789,792,800,803,808,820,830,851,861,871,881,890,906,911,917,918,918,918,918,918,918,918,919,922,927,935,950,970,979,986,991,994,996,997,1000,1006,1013,1036,1047,1059],"ymouse":[531,531,531,531,534,536,537,542,543,544,544,544,545,545,545,545,545,545,545,545,545,545,545,545,545,545,542,529,519,511,503,494,477,465,452,429,414,387,374,360,344,322,273,251,234,230,223,223,223,223,223,223,221,216,208,201,187,162,150,142,134,129,128,126,123,118,112,94,85,77],"timestamp_mouse":[12,31,64,70,90,112,132,150,171,190,212,230,250,272,291,311,332,352,370,392,410,432,451,470,490,512,531,550,571,592,611,630,651,672,690,710,731,750,771,791,812,830,851,871,891,911,930,951,970,992,1010,1031,1051,1072,1091,1112,1131,1150,1171,1191,1211,1231,1251,1272,1291,1310,1330,1351,1370,1391],"xSR":741.5,"ySR":469.95,"xT1":424.9,"yT1":0,"xT2":1058.1,"yT2":0,"toosoon":0,"cond_shown":"equaldotanddens","ratio_trial":250,"smaller_num":"6","larger_num":"24","correct_side":2,"subjID":"samantha gomez hamon 34","gender":"1","age":"10","school":"4"},{"start_time":1552309857627,"click_time":1552309859526,"finger_time":1552309858326,"fix_duration":458.5122863163894,"trial":2,"RT":699,"MT":1200,"sideResp":2,"stimulus":"img/750/equaldotanddens/R/12_Ratio_750_L_3_R_4.png","xmouse":[761,761,761,761,761,761,761,761,761,761,761,761,761,761,761,761,761,761,761,761,761,761,761,761,761,761,761,761,761,761,761,760,757,751,745,730,724,721,714,705,684,676,670,668,664,664,664,664,664,668,669,672,674,678,696,709,738,759,780,815,828,840,851,865,895,919,936,952,964,970,982,987,992,998,1008,1014,1019,1025,1030,1037,1040,1041,1041,1041,1041,1041,1041,1042,1042,1043,1043,1043,1044,1046,1055,1063],"ymouse":[541,541,541,541,541,541,541,541,541,541,541,541,541,541,541,541,541,541,541,541,541,541,541,541,541,541,541,541,541,541,541,537,528,516,506,485,476,472,461,449,426,419,416,413,405,403,402,401,400,398,397,396,395,394,387,381,368,358,350,331,323,314,305,294,266,232,215,199,188,179,162,155,148,142,136,130,121,113,104,92,88,87,87,87,87,86,86,85,85,84,84,84,83,83,79,77],"timestamp_mouse":[3,24,38,58,78,100,119,140,158,178,199,219,239,258,278,298,318,338,359,379,398,420,440,459,480,498,520,540,558,579,598,619,638,659,679,699,719,739,760,779,798,820,839,860,879,900,919,939,958,979,998,1018,1038,1060,1080,1099,1119,1138,1159,1179,1198,1219,1239,1260,1280,1298,1319,1338,1358,1379,1398,1419,1439,1458,1479,1498,1519,1539,1558,1579,1598,1618,1639,1659,1680,1700,1719,1739,1759,1779,1798,1819,1838,1858,1880,1899],"xSR":741.5,"ySR":469.95,"xT1":424.9,"yT1":0,"xT2":1058.1,"yT2":0,"toosoon":0,"cond_shown":"equaldotanddens","ratio_trial":750,"smaller_num":"3","larger_num":"4","correct_side":2,"subjID":"samantha gomez hamon 34","gender":"1","age":"10","school":"4"},{"start_time":1552309862218,"click_time":1552309863226,"finger_time":1552309862706,"fix_duration":1369.4884173043072,"trial":3,"RT":488,"MT":520,"sideResp":1,"stimulus":"img/250/equaldotanddens/L/5_Ratio_250_L_24_R_6.png","xmouse":[765,765,765,765,765,765,765,765,765,765,765,765,765,765,765,765,765,765,765,766,767,767,767,767,759,751,747,745,742,738,726,718,710,702,688,661,649,637,625,609,577,564,557,552,547,542,537,534,531,529,520],"ymouse":[510,510,510,510,510,510,510,510,510,510,510,510,510,510,510,510,510,510,510,506,502,496,488,475,451,422,411,400,392,377,336,312,284,256,214,158,136,116,99,82,55,43,34,26,21,18,16,16,16,18,25],"timestamp_mouse":[9,28,48,69,87,108,129,148,168,187,209,229,249,268,287,307,327,349,368,389,407,429,448,469,488,507,528,549,569,588,607,629,649,668,688,708,728,747,769,788,808,827,848,868,888,908,929,947,967,987,1007],"xSR":741.5,"ySR":469.95,"xT1":424.9,"yT1":0,"xT2":1058.1,"yT2":0,"toosoon":0,"cond_shown":"equaldotanddens","ratio_trial":250,"smaller_num":"6","larger_num":"24","correct_side":1,"subjID":"samantha gomez hamon 34","gender":"1","age":"10","school":"4"},{"start_time":1552309865200,"click_time":1552309866926,"finger_time":1552309865866,"fix_duration":632.7935094179428,"trial":4,"RT":666,"MT":1060,"sideResp":2,"stimulus":"img/750/equaldotanddens/R/7_Ratio_750_L_3_R_4.png","xmouse":[796,796,796,796,796,796,796,796,796,796,796,796,796,796,796,796,796,796,796,796,796,796,796,796,796,796,796,796,797,799,804,821,834,855,868,877,893,898,901,905,911,927,938,948,963,970,984,987,989,993,997,1002,1007,1013,1017,1019,1021,1021,1021,1022,1023,1029,1033,1041,1044,1047,1048,1049,1049,1050,1050,1051,1053,1055,1055,1057,1058,1058,1058,1058,1058,1058,1058,1058,1058,1058,1061],"ymouse":[540,540,540,540,540,540,540,540,540,540,540,540,540,540,540,540,540,540,540,540,540,540,540,540,540,540,540,540,540,538,532,517,507,491,481,471,443,432,421,410,397,370,351,326,292,272,242,232,219,207,194,180,170,153,142,134,125,123,121,116,113,99,91,78,73,68,66,65,65,64,64,64,61,60,59,58,57,57,57,57,57,57,57,57,57,57,57],"timestamp_mouse":[10,25,47,66,86,106,127,145,166,186,207,227,246,265,286,306,326,345,366,386,407,427,446,467,486,507,525,545,566,586,607,625,646,666,686,706,726,746,766,786,806,826,846,866,885,907,926,946,965,986,1007,1025,1045,1065,1085,1106,1125,1145,1165,1186,1206,1225,1246,1266,1287,1305,1326,1347,1367,1386,1405,1426,1445,1465,1486,1506,1527,1546,1565,1586,1605,1626,1647,1666,1687,1706,1725],"xSR":741.5,"ySR":469.95,"xT1":424.9,"yT1":0,"xT2":1058.1,"yT2":0,"toosoon":0,"cond_shown":"equaldotanddens","ratio_trial":750,"smaller_num":"3","larger_num":"4","correct_side":2,"subjID":"samantha gomez hamon 34","gender":"1","age":"10","school":"4"},{"start_time":1552309869005,"click_time":1552309870146,"finger_time":1552309869626,"fix_duration":657.3745513803989,"trial":5,"RT":621,"MT":520,"sideResp":1,"stimulus":"img/750/equaldotsize/L/9_Ratio_750_L_4_R_3.png","xmouse":[779,779,779,779,779,779,779,779,779,779,779,779,779,779,779,779,779,779,779,779,779,779,779,779,779,779,779,775,768,761,752,731,722,711,703,700,678,666,647,632,625,622,621,620,616,606,584,573,564,555,549,543,535,534,532,530,525,523],"ymouse":[525,525,525,525,525,525,525,525,525,525,525,525,525,525,525,525,525,525,525,525,525,525,525,525,525,525,524,517,508,500,491,468,455,438,423,417,383,363,344,333,327,319,302,287,264,232,185,169,156,146,137,130,121,118,114,109,99,94],"timestamp_mouse":[9,22,41,69,82,100,120,140,161,180,202,221,242,261,280,301,321,340,360,381,401,422,441,460,480,502,521,541,562,581,602,621,640,661,681,701,722,741,761,781,801,821,842,861,880,900,922,940,961,980,1000,1021,1040,1061,1081,1101,1122,1141],"xSR":741.5,"ySR":469.95,"xT1":424.9,"yT1":0,"xT2":1058.1,"yT2":0,"toosoon":0,"cond_shown":"equaldotsize","ratio_trial":750,"smaller_num":"3","larger_num":"4","correct_side":1,"subjID":"samantha gomez hamon 34","gender":"1","age":"10","school":"4"},{"start_time":1552309871955,"click_time":1552309873446,"finger_time":1552309872725,"fix_duration":328.5888683883913,"trial":6,"RT":770,"MT":721,"sideResp":2,"stimulus":"img/250/equaldotanddens/R/13_Ratio_250_L_2_R_8.png","xmouse":[770,770,770,770,770,770,770,770,770,770,770,770,770,770,770,770,770,770,770,770,770,770,770,770,770,770,770,770,770,770,770,773,777,785,800,805,812,819,825,840,849,862,880,890,905,913,920,927,936,951,957,961,968,972,980,983,988,994,998,1008,1009,1009,1014,1019,1025,1028,1030,1032,1035,1039,1042,1046,1049,1056,1063],"ymouse":[535,535,535,535,535,535,535,535,535,535,535,535,535,535,535,535,535,535,535,535,535,535,535,535,535,535,535,535,535,535,535,533,530,524,508,499,486,471,456,422,403,383,354,338,308,294,278,263,246,218,207,201,191,186,175,170,161,151,142,125,123,123,114,106,95,89,86,81,78,73,70,67,66,63,62],"timestamp_mouse":[11,41,51,71,90,112,131,152,171,190,211,231,252,272,291,311,332,351,370,392,411,430,452,471,492,511,531,552,570,591,612,631,652,672,691,711,732,750,770,791,810,831,851,871,891,911,930,950,972,990,1010,1032,1051,1071,1091,1111,1131,1151,1171,1191,1211,1231,1250,1270,1290,1311,1332,1351,1371,1391,1411,1431,1451,1470,1491],"xSR":741.5,"ySR":469.95,"xT1":424.9,"yT1":0,"xT2":1058.1,"yT2":0,"toosoon":0,"cond_shown":"equaldotanddens","ratio_trial":250,"smaller_num":"2","larger_num":"8","correct_side":2,"subjID":"samantha gomez hamon 34","gender":"1","age":"10","school":"4"},{"start_time":1552309875391,"click_time":1552309876587,"finger_time":1552309875946,"fix_duration":344.67198534466814,"trial":7,"RT":555,"MT":641,"sideResp":1,"stimulus":"img/250/randomdotsizeEA/R/11_Ratio_250_L_3_R_12.png","xmouse":[751,750,749,749,749,749,749,749,749,749,749,749,749,749,749,749,749,749,746,746,746,746,746,746,746,746,746,746,745,742,739,738,738,739,741,744,747,750,745,732,715,697,672,669,664,659,652,639,593,577,569,564,560,560,558,556,552,541,531,523],"ymouse":[536,536,538,539,539,539,539,539,539,539,539,539,539,539,539,539,539,539,538,536,533,529,516,507,496,482,470,443,426,409,395,386,378,373,364,354,338,294,254,224,197,182,167,165,163,159,154,144,121,115,112,109,104,103,99,95,89,74,59,51],"timestamp_mouse":[14,34,54,85,94,114,135,155,175,195,214,234,256,274,295,315,336,356,374,395,416,435,455,475,495,516,534,554,574,594,614,634,655,674,695,714,735,756,774,795,814,835,856,874,895,915,935,955,975,995,1014,1034,1055,1074,1095,1114,1134,1156,1174,1195],"xSR":741.5,"ySR":469.95,"xT1":424.9,"yT1":0,"xT2":1058.1,"yT2":0,"toosoon":0,"cond_shown":"randomdotsizeEA","ratio_trial":250,"smaller_num":"3","larger_num":"12","correct_side":2,"subjID":"samantha gomez hamon 34","gender":"1","age":"10","school":"4"},{"start_time":1552309878828,"click_time":1552309880186,"finger_time":1552309879346,"fix_duration":661.7870532555495,"trial":8,"RT":518,"MT":840,"sideResp":2,"stimulus":"img/900/equaldotsize/R/3_Ratio_900_L_9_R_10.png","xmouse":[785,785,785,785,785,785,785,785,785,785,785,785,785,785,785,785,787,787,787,790,793,801,808,817,827,841,862,873,883,893,907,912,917,922,928,940,957,964,969,974,976,978,979,981,987,996,1012,1022,1029,1032,1036,1040,1042,1043,1045,1048,1050,1050,1050,1050,1050,1050,1050,1050,1050,1050,1055,1061],"ymouse":[529,529,529,529,529,529,529,529,529,529,529,529,529,529,529,529,529,529,528,526,523,516,507,496,483,462,424,400,376,351,306,288,270,255,239,215,182,170,161,154,150,147,147,145,142,137,126,120,115,112,106,97,92,88,82,76,72,72,72,72,72,72,72,72,72,72,71,70],"timestamp_mouse":[18,38,67,79,98,118,137,158,179,199,219,239,258,278,299,319,338,358,377,398,418,437,458,478,497,517,537,558,577,599,620,637,657,679,698,718,738,757,777,797,819,838,858,877,897,919,937,957,978,998,1018,1038,1058,1078,1097,1118,1138,1157,1178,1197,1218,1238,1258,1277,1298,1317,1337,1358],"xSR":741.5,"ySR":469.95,"xT1":424.9,"yT1":0,"xT2":1058.1,"yT2":0,"toosoon":0,"cond_shown":"equaldotsize","ratio_trial":900,"smaller_num":"9","larger_num":"10","correct_side":2,"subjID":"samantha gomez hamon 34","gender":"1","age":"10","school":"4"},{"start_time":1552309883174,"click_time":1552309888147,"finger_time":1552309883218,"fix_duration":1306.4100589876389,"trial":9,"RT":44,"MT":4929,"sideResp":2,"stimulus":"img/750/equaldotsize/L/6_Ratio_750_L_24_R_18.png","xmouse":[841,849,849,869,886,892,893,895,895,895,895,895,895,895,895,895,895,895,895,895,895,895,895,899,907,912,917,918,918,918,918,919,920,922,929,934,938,940,941,942,942,942,942,942,942,942,942,943,944,944,944,944,944,944,944,945,945,945,945,945,945,945,946,946,948,948,948,948,949,949,949,950,950,950,950,950,950,950,950,950,950,950,950,950,950,950,950,950,950,950,950,950,950,950,951,952,953,953,953,953,953,953,953,953,953,953,953,953,953,953,953,953,953,953,953,953,953,953,953,953,944,938,930,921,905,891,879,868,861,852,849,846,841,836,830,817,815,814,814,814,813,813,811,810,803,798,796,794,791,788,784,782,781,778,771,767,765,761,757,751,748,745,744,744,744,744,744,744,744,744,744,744,745,745,745,745,745,745,745,745,745,748,750,758,764,765,765,765,765,765,765,766,766,766,766,766,766,766,766,766,765,761,757,755,755,755,755,755,755,755,755,755,755,755,755,755,755,757,761,774,781,785,788,793,801,819,836,855,878,933,958,982,1004,1025,1046,1094,1111,1128,1141,1166,1174,1179,1184,1186,1187,1181,1174,1166,1156],"ymouse":[507,507,507,507,508,511,512,513,514,514,514,514,514,514,514,514,514,514,514,514,514,514,514,513,507,503,498,498,498,498,498,498,498,498,496,490,486,482,479,478,478,478,478,478,478,478,476,475,473,472,472,472,472,472,472,471,471,471,471,471,471,471,470,470,469,469,469,469,469,469,469,469,469,469,469,469,469,469,469,469,469,469,469,469,469,469,469,469,469,469,469,469,469,469,469,469,469,469,469,469,469,469,469,469,469,469,469,469,469,469,469,469,469,469,469,469,469,469,469,469,469,471,472,473,473,473,471,471,471,471,471,471,473,476,478,486,488,490,492,494,496,497,499,501,505,508,508,510,511,513,514,515,515,516,518,520,522,523,525,530,532,535,536,537,539,542,544,545,546,546,546,546,546,546,546,546,546,546,546,546,546,548,548,549,549,549,549,549,549,549,549,549,549,549,549,549,549,549,549,549,548,545,544,544,544,544,544,544,544,544,544,544,544,544,544,543,543,542,540,536,534,532,530,525,512,487,472,457,442,413,402,392,382,371,354,309,290,267,253,223,212,200,183,167,144,110,93,80,69],"timestamp_mouse":[17,44,51,71,91,111,133,153,172,193,213,231,252,271,292,311,333,353,372,392,412,432,451,473,492,511,532,552,573,592,613,632,651,672,692,711,731,752,772,792,812,833,852,873,892,912,931,952,971,992,1012,1032,1052,1072,1092,1112,1132,1152,1172,1192,1212,1232,1252,1272,1292,1312,1331,1352,1372,1392,1411,1433,1453,1473,1492,1512,1531,1552,1571,1593,1613,1632,1653,1672,1692,1711,1732,1752,1772,1793,1812,1832,1852,1871,1893,1912,1932,1952,1973,1993,2012,2031,2052,2072,2092,2111,2133,2152,2172,2192,2211,2232,2252,2272,2292,2311,2332,2352,2372,2392,2411,2431,2451,2473,2493,2512,2532,2551,2571,2593,2611,2632,2653,2672,2691,2711,2731,2753,2772,2792,2813,2832,2851,2873,2892,2913,2932,2951,2971,2992,3012,3032,3053,3072,3092,3112,3131,3153,3172,3192,3211,3231,3252,3271,3291,3311,3332,3352,3371,3391,3411,3432,3453,3471,3492,3513,3533,3552,3572,3592,3612,3631,3652,3672,3692,3712,3733,3753,3773,3792,3813,3833,3851,3873,3891,3911,3932,3951,3973,3993,4012,4032,4052,4072,4091,4111,4132,4152,4172,4192,4213,4233,4253,4271,4292,4311,4333,4352,4371,4392,4412,4432,4452,4473,4491,4511,4531,4552,4571,4593,4612,4632,4652,4672,4692,4713,4731,4751,4772,4794,4811,4832,4852,4872,4893,4911,4931,4952,4972],"xSR":741.5,"ySR":469.95,"xT1":424.9,"yT1":0,"xT2":1058.1,"yT2":0,"toosoon":0,"cond_shown":"equaldotsize","ratio_trial":750,"smaller_num":"18","larger_num":"24","correct_side":1,"subjID":"samantha gomez hamon 34","gender":"1","age":"10","school":"4"},{"start_time":1552309889857,"click_time":1552309890946,"finger_time":1552309890486,"fix_duration":828.2860168330194,"trial":10,"RT":629,"MT":460,"sideResp":1,"stimulus":"img/500/equaldotsize/L/4_Ratio_500_L_18_R_9.png","xmouse":[759,761,761,761,761,761,761,761,761,761,761,761,761,761,761,761,761,761,761,761,761,761,761,761,761,761,761,761,759,752,745,727,718,705,690,675,655,650,646,639,634,624,618,609,602,595,582,574,559,554,542,534,530,527,522],"ymouse":[545,542,542,542,542,542,542,542,542,542,542,542,542,542,542,542,542,542,542,542,542,542,542,542,542,542,539,533,527,513,503,471,451,422,389,357,312,300,288,272,261,240,227,212,198,186,155,136,109,103,88,81,79,77,75],"timestamp_mouse":[9,29,49,68,89,109,129,150,170,188,208,228,250,270,290,308,328,350,370,390,408,428,450,468,489,508,529,549,569,590,610,629,649,669,689,709,728,749,768,788,809,828,849,868,889,909,929,948,968,989,1009,1029,1049,1069,1088],"xSR":741.5,"ySR":469.95,"xT1":424.9,"yT1":0,"xT2":1058.1,"yT2":0,"toosoon":0,"cond_shown":"equaldotsize","ratio_trial":500,"smaller_num":"9","larger_num":"18","correct_side":1,"subjID":"samantha gomez hamon 34","gender":"1","age":"10","school":"4"},{"start_time":1552309893744,"click_time":1552309895167,"finger_time":1552309894506,"fix_duration":977.2776887124135,"trial":11,"RT":762,"MT":661,"sideResp":2,"stimulus":"img/500/randomdotsizeEA/L/5_Ratio_500_L_4_R_2.png","xmouse":[774,774,774,774,774,774,774,774,774,774,772,772,771,771,771,770,770,770,770,770,770,770,770,770,770,770,770,770,770,770,769,768,767,767,767,767,767,767,767,766,764,764,772,772,802,848,887,940,960,973,984,995,1015,1047,1063,1078,1089,1095,1096,1096,1096,1096,1097,1098,1098,1098,1098,1098,1098,1098,1098,1098],"ymouse":[524,524,524,524,524,524,524,524,524,524,524,524,524,524,524,524,524,524,524,524,524,524,524,524,524,524,524,524,524,524,523,521,508,499,491,484,478,470,449,437,426,414,393,392,377,357,343,327,318,310,301,292,274,247,235,223,213,205,189,182,174,166,160,147,140,133,132,128,118,112,103,93],"timestamp_mouse":[3,21,47,61,82,103,123,142,161,183,202,221,243,262,282,302,322,342,362,381,401,422,441,462,483,501,522,542,563,582,601,623,642,661,682,702,723,741,762,782,802,822,842,861,882,902,921,942,962,981,1002,1021,1043,1063,1082,1101,1121,1142,1161,1181,1202,1221,1242,1262,1282,1302,1323,1342,1361,1381,1401,1422],"xSR":741.5,"ySR":469.95,"xT1":424.9,"yT1":0,"xT2":1058.1,"yT2":0,"toosoon":0,"cond_shown":"randomdotsizeEA","ratio_trial":500,"smaller_num":"2","larger_num":"4","correct_side":1,"subjID":"samantha gomez hamon 34","gender":"1","age":"10","school":"4"},{"start_time":1552309897389,"click_time":1552309898406,"finger_time":1552309897926,"fix_duration":882.298124725571,"trial":12,"RT":537,"MT":480,"sideResp":1,"stimulus":"img/900/equaldotanddens/R/14_Ratio_900_L_18_R_20.png","xmouse":[748,748,748,748,748,748,748,748,748,748,748,748,748,748,748,748,748,748,748,748,750,751,752,752,752,744,739,731,716,705,674,648,627,614,605,604,604,604,604,604,600,596,593,591,578,569,558,549,542,529,515],"ymouse":[559,559,559,559,559,559,559,559,559,559,559,559,559,559,559,559,559,559,559,558,554,550,545,536,524,491,471,446,412,389,340,302,274,254,238,233,232,232,232,232,222,212,202,193,154,135,115,98,87,70,50],"timestamp_mouse":[22,37,61,77,98,117,137,158,176,196,218,237,258,277,297,316,337,358,376,396,417,437,457,477,498,517,537,557,576,597,617,637,656,676,697,717,736,757,777,797,817,837,858,877,899,917,937,958,978,997,1017],"xSR":741.5,"ySR":469.95,"xT1":424.9,"yT1":0,"xT2":1058.1,"yT2":0,"toosoon":0,"cond_shown":"equaldotanddens","ratio_trial":900,"smaller_num":"18","larger_num":"20","correct_side":2,"subjID":"samantha gomez hamon 34","gender":"1","age":"10","school":"4"},{"start_time":1552309899924,"click_time":1552309900987,"finger_time":1552309900446,"fix_duration":335.5693880671481,"trial":13,"RT":522,"MT":541,"sideResp":2,"stimulus":"img/500/equaldotsize/R/3_Ratio_500_L_10_R_20.png","xmouse":[787,787,787,787,787,787,787,787,787,787,787,787,787,787,787,787,787,787,787,787,787,787,787,787,796,814,841,871,896,941,957,982,1000,1020,1063,1083,1097,1109,1115,1120,1123,1123,1123,1123,1123,1123,1123,1124,1124,1124,1124,1124,1123,1122],"ymouse":[526,526,526,526,526,526,526,526,526,526,526,526,526,526,526,526,526,526,526,526,526,526,526,526,518,498,466,431,403,367,356,339,327,312,279,255,233,215,205,191,183,177,170,164,152,145,141,138,136,133,128,117,109,98],"timestamp_mouse":[9,23,42,61,81,101,121,142,161,181,202,222,243,261,283,302,323,341,362,382,401,423,442,461,481,501,522,543,562,582,601,622,642,661,682,701,721,742,763,782,801,821,842,861,882,902,923,942,962,982,1001,1022,1043,1063],"xSR":741.5,"ySR":469.95,"xT1":424.9,"yT1":0,"xT2":1058.1,"yT2":0,"toosoon":0,"cond_shown":"equaldotsize","ratio_trial":500,"smaller_num":"10","larger_num":"20","correct_side":2,"subjID":"samantha gomez hamon 34","gender":"1","age":"10","school":"4"},{"start_time":1552309903577,"click_time":1552309904987,"finger_time":1552309904186,"fix_duration":1370.3554761994212,"trial":14,"RT":609,"MT":801,"sideResp":1,"stimulus":"img/250/equaldotanddens/L/1_Ratio_250_L_8_R_2.png","xmouse":[776,776,776,776,775,775,775,775,773,773,773,773,773,772,772,772,772,772,772,772,772,772,772,772,772,772,772,767,760,751,744,738,726,721,715,709,702,676,669,664,662,661,660,659,656,651,638,638,638,631,623,616,604,594,594,587,559,548,541,539,537,537,537,537,532,531,517,517,515,512,509],"ymouse":[516,516,516,516,516,517,517,517,518,518,518,518,518,518,518,518,518,518,518,518,518,518,518,518,518,518,518,505,489,472,454,439,401,382,363,341,319,258,239,232,227,222,221,218,214,204,186,186,186,179,170,165,155,149,149,145,132,126,123,121,121,121,121,121,118,115,105,105,103,100,95],"timestamp_mouse":[11,42,48,68,89,110,129,149,169,190,210,229,249,270,290,309,329,349,368,389,409,429,450,468,489,510,529,549,568,588,609,630,649,670,688,709,729,749,768,789,808,830,848,869,889,909,930,949,969,990,1009,1030,1048,1070,1089,1110,1131,1148,1169,1189,1209,1230,1249,1270,1288,1308,1330,1349,1369,1389,1410],"xSR":741.5,"ySR":469.95,"xT1":424.9,"yT1":0,"xT2":1058.1,"yT2":0,"toosoon":0,"cond_shown":"equaldotanddens","ratio_trial":250,"smaller_num":"2","larger_num":"8","correct_side":1,"subjID":"samantha gomez hamon 34","gender":"1","age":"10","school":"4"},{"start_time":1552309906701,"click_time":1552309907526,"finger_time":1552309907126,"fix_duration":254.40251543909397,"trial":15,"RT":425,"MT":400,"sideResp":2,"stimulus":"img/900/equaldotsize/R/6_Ratio_900_L_9_R_10.png","xmouse":[779,779,779,779,779,779,779,779,779,779,779,779,779,779,779,779,779,779,779,779,780,784,791,803,815,831,863,886,890,905,915,938,951,966,982,998,1027,1035,1044,1052,1055,1061],"ymouse":[518,518,518,518,518,518,518,518,518,518,518,518,518,518,518,518,518,514,495,487,470,445,428,412,400,388,365,345,342,322,306,264,243,219,197,178,150,140,132,118,112,98],"timestamp_mouse":[9,26,44,66,84,105,125,146,165,186,206,226,245,264,284,305,325,346,365,385,405,425,445,465,485,504,524,544,566,586,605,624,645,666,685,705,725,745,764,786,805,825],"xSR":741.5,"ySR":469.95,"xT1":424.9,"yT1":0,"xT2":1058.1,"yT2":0,"toosoon":0,"cond_shown":"equaldotsize","ratio_trial":900,"smaller_num":"9","larger_num":"10","correct_side":2,"subjID":"samantha gomez hamon 34","gender":"1","age":"10","school":"4"},{"start_time":1552309909339,"click_time":1552309910986,"finger_time":1552309910766,"fix_duration":250,"trial":16,"RT":1427,"MT":220,"sideResp":2,"stimulus":"img/250/equaldotanddens/R/10_Ratio_250_L_4_R_16.png","xmouse":[746,747,748,748,749,750,751,752,753,753,753,753,754,756,756,758,758,759,760,762,762,763,763,763,763,763,763,763,763,763,763,763,763,763,763,763,763,763,763,763,763,763,763,763,763,763,763,763,763,763,763,763,763,763,763,763,763,763,763,763,763,763,763,763,763,763,763,763,763,763,763,764,765,766,779,806,840,880,924,1047,1102,1113,1151],"ymouse":[491,491,491,491,491,491,491,491,490,490,490,490,490,489,489,489,488,488,486,485,484,483,483,483,483,483,483,483,483,483,483,483,483,483,483,483,483,483,483,483,483,483,483,483,483,483,483,483,483,483,483,483,483,483,483,483,483,483,483,482,478,477,475,474,473,472,472,472,472,472,472,469,469,465,444,407,367,323,282,166,113,101,53],"timestamp_mouse":[11,34,47,68,86,107,127,147,168,187,206,226,247,268,287,306,328,348,367,387,407,427,447,468,486,507,528,546,567,587,607,626,647,668,687,708,727,748,766,786,808,828,848,867,888,908,927,947,968,987,1006,1027,1047,1068,1088,1106,1128,1148,1167,1187,1207,1227,1247,1267,1287,1308,1327,1348,1367,1388,1407,1427,1447,1467,1487,1506,1526,1547,1566,1587,1606,1627,1647],"xSR":741.5,"ySR":469.95,"xT1":424.9,"yT1":0,"xT2":1058.1,"yT2":0,"toosoon":0,"cond_shown":"equaldotanddens","ratio_trial":250,"smaller_num":"4","larger_num":"16","correct_side":2,"subjID":"samantha gomez hamon 34","gender":"1","age":"10","school":"4"},{"start_time":1552309912996,"click_time":1552309913728,"finger_time":1552309913447,"fix_duration":268.48251291089633,"trial":17,"RT":451,"MT":281,"sideResp":2,"stimulus":"img/500/randomdotsizeEA/R/3_Ratio_500_L_10_R_20.png","xmouse":[797,797,797,797,797,797,797,797,797,797,797,797,797,797,797,797,797,797,798,800,802,807,845,867,898,926,944,972,985,998,1010,1029,1034,1038,1044,1050,1063],"ymouse":[496,496,496,496,496,496,496,496,496,496,496,496,496,496,496,496,496,496,496,496,496,488,418,378,327,284,252,213,194,177,163,132,117,101,86,70,50],"timestamp_mouse":[9,30,61,70,90,110,131,149,171,191,211,231,250,271,290,311,330,351,369,390,410,430,451,470,489,510,529,550,569,589,611,632,649,670,691,710,732],"xSR":741.5,"ySR":469.95,"xT1":424.9,"yT1":0,"xT2":1058.1,"yT2":0,"toosoon":0,"cond_shown":"randomdotsizeEA","ratio_trial":500,"smaller_num":"10","larger_num":"20","correct_side":2,"subjID":"samantha gomez hamon 34","gender":"1","age":"10","school":"4"},{"start_time":1552309916336,"click_time":1552309917146,"finger_time":1552309916906,"fix_duration":888.8425305588711,"trial":18,"RT":570,"MT":240,"sideResp":2,"stimulus":"img/750/equaldotanddens/R/11_Ratio_750_L_12_R_16.png","xmouse":[788,788,788,788,788,788,788,788,788,788,788,788,788,788,788,788,788,788,788,788,788,788,788,788,788,788,791,803,820,840,887,931,948,988,1012,1030,1034,1039,1041,1045,1063],"ymouse":[481,481,481,481,481,481,481,481,481,481,481,481,481,481,481,481,481,481,481,481,481,481,481,481,481,481,482,474,461,447,403,340,313,232,178,115,96,80,73,67,53],"timestamp_mouse":[10,30,50,71,90,109,129,151,170,190,210,230,249,269,289,310,330,350,369,414,414,430,450,471,490,510,530,550,570,590,610,629,650,670,690,710,730,750,770,791,810],"xSR":741.5,"ySR":469.95,"xT1":424.9,"yT1":0,"xT2":1058.1,"yT2":0,"toosoon":0,"cond_shown":"equaldotanddens","ratio_trial":750,"smaller_num":"12","larger_num":"16","correct_side":2,"subjID":"samantha gomez hamon 34","gender":"1","age":"10","school":"4"},{"start_time":1552309923259,"click_time":1552309924688,"finger_time":1552309924086,"fix_duration":1369.7931336806153,"trial":19,"RT":827,"MT":602,"sideResp":2,"stimulus":"img/250/randomdotsizeEA/R/13_Ratio_250_L_2_R_8.png","xmouse":[777,777,777,777,777,777,777,777,777,777,777,777,777,777,777,777,777,777,777,777,777,777,777,777,777,777,777,777,777,777,777,777,777,777,777,777,777,777,779,786,823,847,875,911,923,930,932,933,933,933,935,939,945,955,967,984,991,996,1002,1010,1022,1024,1025,1026,1028,1033,1037,1043,1050,1059,1074,1082],"ymouse":[512,512,512,512,512,512,512,512,512,512,512,512,512,512,512,512,512,512,512,512,512,512,512,512,512,512,512,512,512,512,512,512,512,512,512,512,512,512,509,504,475,454,432,402,385,362,357,355,355,355,353,349,343,328,301,256,233,214,197,185,173,171,171,170,168,162,156,147,137,124,100,87],"timestamp_mouse":[10,38,47,66,87,108,127,147,168,188,207,228,248,266,287,307,326,347,367,388,408,427,447,466,486,508,527,547,566,587,606,627,647,668,687,708,727,747,767,787,806,827,847,867,886,907,927,947,966,988,1007,1027,1047,1067,1086,1107,1127,1148,1166,1187,1206,1227,1247,1268,1287,1307,1327,1348,1367,1387,1407,1428],"xSR":741.5,"ySR":469.95,"xT1":424.9,"yT1":0,"xT2":1058.1,"yT2":0,"toosoon":0,"cond_shown":"randomdotsizeEA","ratio_trial":250,"smaller_num":"2","larger_num":"8","correct_side":2,"subjID":"samantha gomez hamon 34","gender":"1","age":"10","school":"4"},{"start_time":1552309926954,"click_time":1552309928268,"finger_time":1552309927066,"fix_duration":1005.9525341892589,"trial":20,"RT":112,"MT":1202,"sideResp":2,"stimulus":"img/900/equaldotanddens/R/9_Ratio_900_L_18_R_20.png","xmouse":[766,765,765,762,759,753,752,752,752,752,752,752,752,752,752,752,752,752,752,752,752,756,767,780,794,822,841,852,863,877,906,920,930,937,944,949,960,971,978,985,992,992,992,992,992,992,993,1003,1018,1033,1046,1046,1044,1039,1033,1031,1031,1031,1031,1031,1034,1038,1043,1048,1054,1060],"ymouse":[546,550,550,559,566,579,584,587,591,591,591,591,591,591,591,591,591,591,591,591,590,580,566,547,528,492,464,450,437,427,402,391,381,371,363,353,334,317,304,293,282,282,282,282,282,282,282,274,265,256,235,216,195,177,161,139,132,124,119,115,102,91,78,65,53,42],"timestamp_mouse":[19,50,51,72,93,112,133,153,172,191,213,233,252,272,291,313,333,353,373,393,412,432,451,473,492,512,531,552,572,592,612,631,652,673,693,712,733,752,772,792,812,832,852,873,892,912,932,952,973,991,1012,1032,1052,1072,1091,1112,1132,1151,1171,1191,1212,1232,1252,1272,1292,1313],"xSR":741.5,"ySR":469.95,"xT1":424.9,"yT1":0,"xT2":1058.1,"yT2":0,"toosoon":0,"cond_shown":"equaldotanddens","ratio_trial":900,"smaller_num":"18","larger_num":"20","correct_side":2,"subjID":"samantha gomez hamon 34","gender":"1","age":"10","school":"4"},{"start_time":1552309930063,"click_time":1552309931226,"finger_time":1552309930585,"fix_duration":916.9610501896576,"trial":21,"RT":522,"MT":641,"sideResp":1,"stimulus":"img/250/equaldotanddens/L/2_Ratio_250_L_16_R_4.png","xmouse":[749,749,749,749,749,749,749,749,749,749,749,749,749,749,749,749,749,749,749,749,749,749,749,749,749,749,749,744,731,715,711,678,665,660,655,649,649,640,633,630,630,626,620,616,612,598,564,554,550,547,547,541,538,536,536,536,529,523,513],"ymouse":[540,540,540,540,540,540,540,540,540,540,540,540,540,540,540,540,540,540,540,540,540,540,540,540,529,490,469,447,416,383,376,333,316,311,305,299,299,288,274,264,262,244,231,222,215,193,144,131,126,118,118,113,112,111,111,111,105,100,92],"timestamp_mouse":[9,24,45,63,83,103,124,143,163,184,203,224,243,264,282,302,324,342,364,383,404,422,443,464,482,503,522,542,563,583,603,622,642,662,682,704,723,743,763,784,803,823,842,864,883,904,922,943,963,984,1003,1022,1043,1063,1084,1104,1122,1143,1163],"xSR":741.5,"ySR":469.95,"xT1":424.9,"yT1":0,"xT2":1058.1,"yT2":0,"toosoon":0,"cond_shown":"equaldotanddens","ratio_trial":250,"smaller_num":"4","larger_num":"16","correct_side":1,"subjID":"samantha gomez hamon 34","gender":"1","age":"10","school":"4"},{"start_time":1552309935294,"click_time":1552309936426,"finger_time":1552309935965,"fix_duration":1406.7665737226962,"trial":22,"RT":671,"MT":461,"sideResp":2,"stimulus":"img/250/equaldotsize/R/6_Ratio_250_L_6_R_24.png","xmouse":[765,765,764,764,764,764,764,764,764,764,764,764,764,764,764,764,764,764,764,764,764,764,764,764,764,764,764,764,766,776,790,808,826,847,912,949,985,998,1008,1024,1030,1036,1042,1046,1056,1060,1060,1060,1060,1061,1061,1061,1061,1062,1063,1067,1070],"ymouse":[541,542,542,542,544,545,545,545,545,545,545,545,545,545,545,545,545,545,545,545,545,545,545,545,545,545,545,546,545,529,511,494,480,467,417,387,348,326,297,252,233,212,193,178,158,148,144,140,139,137,137,136,134,131,121,108,98],"timestamp_mouse":[15,31,60,71,92,111,133,151,172,192,213,231,252,272,293,312,333,352,373,393,413,432,451,471,493,513,532,552,572,591,611,633,652,671,693,712,732,751,773,793,811,832,852,873,892,911,932,952,972,992,1012,1032,1052,1072,1092,1111,1132],"xSR":741.5,"ySR":469.95,"xT1":424.9,"yT1":0,"xT2":1058.1,"yT2":0,"toosoon":0,"cond_shown":"equaldotsize","ratio_trial":250,"smaller_num":"6","larger_num":"24","correct_side":2,"subjID":"samantha gomez hamon 34","gender":"1","age":"10","school":"4"},{"start_time":1552309937838,"click_time":1552309939206,"finger_time":1552309938086,"fix_duration":250,"trial":23,"RT":248,"MT":1120,"sideResp":1,"stimulus":"img/500/equaldotsize/L/13_Ratio_500_L_12_R_6.png","xmouse":[794,794,794,793,793,793,792,783,773,765,755,746,739,739,739,739,739,739,738,738,738,738,738,738,738,738,738,722,706,690,675,675,662,659,647,630,614,585,585,577,565,555,544,541,540,540,540,540,540,540,540,540,540,538,537,535,534,531,529,528,526,525,522,520,517,513,512,509,506],"ymouse":[492,486,481,476,476,476,475,477,478,478,480,482,483,483,483,483,483,483,484,485,485,485,487,487,487,487,485,453,431,408,390,389,374,369,355,335,314,269,269,258,245,234,222,217,215,215,215,213,210,208,202,194,183,160,150,140,133,125,121,119,116,115,111,110,108,105,105,100,97],"timestamp_mouse":[8,28,48,68,89,108,127,148,169,188,208,227,248,268,288,308,328,348,369,388,407,429,449,468,487,508,529,549,567,587,608,627,649,668,688,707,727,749,767,788,809,828,849,868,888,907,928,947,968,988,1008,1028,1047,1067,1088,1109,1128,1149,1167,1188,1207,1227,1249,1267,1289,1309,1329,1349,1368],"xSR":741.5,"ySR":469.95,"xT1":424.9,"yT1":0,"xT2":1058.1,"yT2":0,"toosoon":0,"cond_shown":"equaldotsize","ratio_trial":500,"smaller_num":"6","larger_num":"12","correct_side":1,"subjID":"samantha gomez hamon 34","gender":"1","age":"10","school":"4"},{"start_time":1552309942199,"click_time":1552309943867,"finger_time":1552309942867,"fix_duration":1491.4988562628462,"trial":24,"RT":668,"MT":1000,"sideResp":1,"stimulus":"img/500/equaldotsize/L/5_Ratio_500_L_4_R_2.png","xmouse":[780,780,780,780,780,780,780,780,780,780,780,780,780,780,780,780,780,780,780,780,780,780,780,780,780,780,780,780,780,779,779,779,775,768,761,749,749,749,749,748,738,729,722,716,709,707,707,707,707,707,703,678,659,624,600,571,560,551,546,540,531,526,526,524,522,521,521,518,513,509,507,506,505,505,504,504,504,504,503,502,498,494,482,464],"ymouse":[516,516,516,516,516,516,516,516,516,516,516,516,516,516,516,516,516,516,516,516,516,516,516,516,516,516,516,516,516,515,510,504,491,459,438,409,409,409,409,407,392,379,367,358,349,347,347,347,347,347,343,322,306,278,259,230,220,212,209,205,200,197,197,195,194,193,193,187,178,168,155,147,140,135,133,132,132,132,132,132,126,119,103,83],"timestamp_mouse":[10,27,47,68,87,108,127,146,168,187,206,227,248,268,287,307,328,346,367,388,407,428,447,467,486,508,528,547,566,587,607,627,648,668,687,707,727,747,766,787,806,827,846,866,887,908,928,947,967,988,1006,1027,1046,1066,1087,1107,1127,1146,1167,1186,1207,1228,1247,1267,1288,1308,1327,1346,1366,1386,1406,1427,1447,1467,1488,1508,1528,1548,1568,1586,1607,1627,1648,1668],"xSR":741.5,"ySR":469.95,"xT1":424.9,"yT1":0,"xT2":1058.1,"yT2":0,"toosoon":0,"cond_shown":"equaldotsize","ratio_trial":500,"smaller_num":"2","larger_num":"4","correct_side":1,"subjID":"samantha gomez hamon 34","gender":"1","age":"10","school":"4"},{"start_time":1552309946493,"click_time":1552309947608,"finger_time":1552309947126,"fix_duration":904.180036938152,"trial":25,"RT":633,"MT":482,"sideResp":2,"stimulus":"img/500/equaldotanddens/R/14_Ratio_500_L_5_R_10.png","xmouse":[771,771,771,771,771,771,771,771,771,771,771,771,771,771,771,771,771,771,771,771,771,771,771,771,771,770,770,770,772,778,784,816,846,863,919,978,1001,1010,1016,1017,1018,1022,1022,1024,1031,1037,1037,1037,1037,1037,1037,1037,1038,1040,1046,1064],"ymouse":[539,539,539,539,539,539,539,539,539,539,539,539,539,539,539,539,539,539,539,539,539,539,539,539,539,533,525,517,505,492,478,422,376,355,292,226,197,178,160,154,126,105,102,96,85,76,76,76,76,76,76,76,75,75,74,71],"timestamp_mouse":[19,34,55,74,94,114,134,153,173,194,213,233,253,273,293,313,334,354,372,392,412,432,454,474,492,513,533,554,573,592,613,633,652,673,692,714,732,753,773,794,814,832,853,873,893,914,933,953,973,993,1014,1034,1053,1074,1093,1115],"xSR":741.5,"ySR":469.95,"xT1":424.9,"yT1":0,"xT2":1058.1,"yT2":0,"toosoon":0,"cond_shown":"equaldotanddens","ratio_trial":500,"smaller_num":"5","larger_num":"10","correct_side":2,"subjID":"samantha gomez hamon 34","gender":"1","age":"10","school":"4"},{"start_time":1552309948918,"click_time":1552309950186,"finger_time":1552309949646,"fix_duration":250,"trial":26,"RT":728,"MT":540,"sideResp":1,"stimulus":"img/750/equaldotanddens/L/6_Ratio_750_L_24_R_18.png","xmouse":[745,745,745,745,745,745,745,745,745,745,745,745,745,745,745,745,745,745,746,747,747,747,747,747,748,748,749,751,755,756,756,754,754,754,754,746,733,718,706,687,674,672,672,672,672,669,667,667,667,663,646,640,632,627,621,607,599,586,576,564,541,536,529,523],"ymouse":[529,529,529,529,529,529,529,529,529,529,529,529,530,531,532,533,533,533,534,534,534,534,534,534,534,534,532,524,513,503,495,487,487,487,487,476,459,439,414,370,304,277,244,218,195,155,147,147,147,141,117,111,108,107,106,104,103,102,100,98,92,91,90,87],"timestamp_mouse":[12,28,47,69,88,109,128,149,167,188,208,229,248,267,289,308,328,348,368,388,408,428,449,469,489,508,527,547,568,587,609,628,649,667,687,707,728,748,768,788,808,828,849,868,887,907,928,947,968,988,1008,1028,1048,1067,1088,1107,1127,1147,1168,1189,1208,1228,1248,1268],"xSR":741.5,"ySR":469.95,"xT1":424.9,"yT1":0,"xT2":1058.1,"yT2":0,"toosoon":0,"cond_shown":"equaldotanddens","ratio_trial":750,"smaller_num":"18","larger_num":"24","correct_side":1,"subjID":"samantha gomez hamon 34","gender":"1","age":"10","school":"4"},{"start_time":1552309952931,"click_time":1552309953727,"finger_time":1552309953586,"fix_duration":1163.826992978246,"trial":27,"RT":655,"MT":141,"sideResp":2,"stimulus":"img/750/randomdotsizeEA/R/3_Ratio_750_L_15_R_20.png","xmouse":[762,762,762,762,762,762,763,763,764,764,764,764,764,764,764,764,764,764,764,764,764,764,764,767,770,776,787,792,795,799,811,820,835,861,917,961,1012,1033,1055,1114],"ymouse":[546,546,546,546,546,546,546,546,546,545,545,545,545,545,545,545,545,545,545,545,545,544,542,537,531,522,513,510,506,502,487,471,445,398,312,254,190,163,126,25],"timestamp_mouse":[15,50,55,76,96,115,135,156,174,195,215,235,256,275,295,314,335,355,376,395,416,436,455,474,495,516,535,556,575,595,615,635,655,676,695,715,735,756,775,795],"xSR":741.5,"ySR":469.95,"xT1":424.9,"yT1":0,"xT2":1058.1,"yT2":0,"toosoon":0,"cond_shown":"randomdotsizeEA","ratio_trial":750,"smaller_num":"15","larger_num":"20","correct_side":2,"subjID":"samantha gomez hamon 34","gender":"1","age":"10","school":"4"},{"start_time":1552309955461,"click_time":1552309956767,"finger_time":1552309956007,"fix_duration":272.43858328650873,"trial":28,"RT":546,"MT":760,"sideResp":1,"stimulus":"img/750/equaldotsize/L/8_Ratio_750_L_4_R_3.png","xmouse":[761,761,761,761,758,758,758,758,758,758,758,758,758,758,758,758,758,758,758,758,758,759,763,777,783,784,784,783,780,764,752,738,722,696,684,673,665,662,657,646,641,634,627,613,606,601,590,578,569,566,562,560,559,559,556,555,555,555,554,549,546,542,539,530,525,521],"ymouse":[523,527,531,531,542,543,543,543,543,543,543,543,543,543,543,543,543,543,543,543,545,537,525,493,478,473,471,465,453,416,402,388,375,352,340,326,313,304,292,269,254,238,223,179,153,136,98,66,44,35,30,26,26,26,25,25,25,25,25,27,28,30,30,32,34,35],"timestamp_mouse":[4,26,52,65,85,106,126,145,165,185,205,226,245,265,285,305,325,346,366,386,404,426,445,465,484,504,526,546,566,586,605,625,645,666,685,705,725,744,764,786,805,825,845,866,885,905,925,945,966,986,1005,1026,1045,1066,1084,1106,1126,1146,1165,1185,1205,1226,1245,1266,1284,1305],"xSR":741.5,"ySR":469.95,"xT1":424.9,"yT1":0,"xT2":1058.1,"yT2":0,"toosoon":0,"cond_shown":"equaldotsize","ratio_trial":750,"smaller_num":"3","larger_num":"4","correct_side":1,"subjID":"samantha gomez hamon 34","gender":"1","age":"10","school":"4"},{"start_time":1552309958859,"click_time":1552309959946,"finger_time":1552309959366,"fix_duration":250,"trial":29,"RT":507,"MT":580,"sideResp":1,"stimulus":"img/250/randomdotsizeEA/L/2_Ratio_250_L_16_R_4.png","xmouse":[762,762,762,762,762,762,762,762,762,762,762,762,762,762,762,762,762,762,762,762,762,762,765,766,768,768,761,752,745,732,724,715,707,698,689,687,687,686,684,675,666,657,648,636,606,584,578,556,550,540,535,533,529,526,520],"ymouse":[524,524,524,524,524,524,524,524,524,524,524,524,524,524,524,524,524,524,524,524,524,524,515,503,487,465,437,419,404,383,375,366,359,351,341,331,326,306,292,253,238,226,211,189,145,114,105,82,77,70,68,68,67,67,67],"timestamp_mouse":[9,27,46,68,88,107,127,148,168,188,208,226,247,268,287,308,327,348,367,387,407,427,447,467,487,507,527,547,566,588,607,627,647,667,687,706,727,748,767,787,807,828,848,868,886,907,926,946,967,986,1007,1027,1047,1068,1087],"xSR":741.5,"ySR":469.95,"xT1":424.9,"yT1":0,"xT2":1058.1,"yT2":0,"toosoon":0,"cond_shown":"randomdotsizeEA","ratio_trial":250,"smaller_num":"4","larger_num":"16","correct_side":1,"subjID":"samantha gomez hamon 34","gender":"1","age":"10","school":"4"},{"start_time":1552309962999,"click_time":1552309963866,"finger_time":1552309963327,"fix_duration":250,"trial":30,"RT":328,"MT":539,"sideResp":2,"stimulus":"img/500/randomdotsizeEA/R/2_Ratio_500_L_3_R_6.png","xmouse":[754,754,754,754,754,754,754,753,752,752,752,752,752,752,752,752,752,752,749,746,744,742,738,736,734,732,728,724,721,720,719,719,730,742,758,780,811,859,901,942,969,1000,1046,1064],"ymouse":[548,548,548,548,548,541,538,492,473,470,470,470,470,470,470,470,468,466,450,433,419,406,378,367,359,354,347,330,314,303,290,276,244,227,210,195,178,151,132,114,103,91,71,63],"timestamp_mouse":[9,38,47,67,87,107,128,147,168,187,208,226,248,267,288,307,328,347,367,387,407,426,448,466,486,508,527,548,567,587,607,626,647,666,688,707,726,747,766,787,808,827,848,867],"xSR":741.5,"ySR":469.95,"xT1":424.9,"yT1":0,"xT2":1058.1,"yT2":0,"toosoon":0,"cond_shown":"randomdotsizeEA","ratio_trial":500,"smaller_num":"3","larger_num":"6","correct_side":2,"subjID":"samantha gomez hamon 34","gender":"1","age":"10","school":"4"},{"start_time":1552309966399,"click_time":1552309967466,"finger_time":1552309967045,"fix_duration":1031.3033505384417,"trial":31,"RT":646,"MT":421,"sideResp":2,"stimulus":"img/500/randomdotsizeEA/L/4_Ratio_500_L_18_R_9.png","xmouse":[749,749,749,749,749,749,749,749,749,749,749,749,749,749,749,749,749,749,749,749,749,749,749,749,749,749,749,749,749,749,749,749,749,762,790,804,853,884,928,942,955,961,969,971,973,977,981,983,1000,1009,1025,1041,1052,1081],"ymouse":[526,526,526,526,526,526,526,526,526,526,526,526,526,526,526,526,526,526,526,526,526,526,526,526,526,526,526,526,526,516,503,485,464,412,353,331,258,214,153,135,122,114,107,106,105,103,102,101,97,97,93,91,90,84],"timestamp_mouse":[9,41,48,66,87,107,128,148,168,187,207,227,246,268,288,307,328,348,367,387,408,426,447,466,486,506,526,546,566,587,606,626,646,666,687,706,726,746,766,787,806,826,848,866,887,907,927,946,967,986,1006,1026,1046,1066],"xSR":741.5,"ySR":469.95,"xT1":424.9,"yT1":0,"xT2":1058.1,"yT2":0,"toosoon":0,"cond_shown":"randomdotsizeEA","ratio_trial":500,"smaller_num":"9","larger_num":"18","correct_side":1,"subjID":"samantha gomez hamon 34","gender":"1","age":"10","school":"4"},{"start_time":1552309969113,"click_time":1552309970426,"finger_time":1552309969586,"fix_duration":526.3479207251033,"trial":32,"RT":473,"MT":840,"sideResp":2,"stimulus":"img/500/randomdotsizeEA/L/7_Ratio_500_L_10_R_5.png","xmouse":[771,771,771,771,771,771,771,771,771,771,771,771,771,771,771,771,771,771,771,771,771,771,763,763,758,755,751,745,742,735,728,722,718,712,711,710,710,710,710,710,710,710,710,719,737,763,797,873,895,909,912,914,920,930,942,958,971,993,1004,1011,1015,1015,1027,1043,1058,1069],"ymouse":[516,516,516,516,516,516,516,516,516,516,516,516,516,515,514,513,512,510,508,503,499,497,471,465,444,427,412,392,380,359,343,330,320,309,306,305,304,303,303,303,303,303,303,300,296,294,293,294,300,307,309,309,307,296,278,255,231,184,157,143,134,134,123,113,103,98],"timestamp_mouse":[13,47,54,73,94,112,132,154,173,192,213,233,254,274,294,313,334,352,374,393,413,432,452,473,494,513,533,553,572,593,614,633,652,672,692,712,732,752,773,793,814,832,853,872,893,912,933,953,973,993,1013,1034,1053,1073,1093,1112,1133,1153,1174,1193,1214,1233,1253,1272,1292,1313],"xSR":741.5,"ySR":469.95,"xT1":424.9,"yT1":0,"xT2":1058.1,"yT2":0,"toosoon":0,"cond_shown":"randomdotsizeEA","ratio_trial":500,"smaller_num":"5","larger_num":"10","correct_side":1,"subjID":"samantha gomez hamon 34","gender":"1","age":"10","school":"4"},{"start_time":1552309971897,"click_time":1552309973306,"finger_time":1552309972486,"fix_duration":368.5705376736854,"trial":33,"RT":589,"MT":820,"sideResp":1,"stimulus":"img/900/randomdotsizeEA/R/9_Ratio_900_L_18_R_20.png","xmouse":[790,790,790,790,790,790,790,790,790,790,790,790,790,790,790,790,790,790,790,790,790,790,790,790,790,790,788,776,761,717,700,687,676,662,650,638,622,598,582,566,565,565,565,565,565,565,565,565,565,565,565,565,565,565,556,558,559,559,556,556,555,554,552,547,546,544,540,535,528,525,524],"ymouse":[530,530,530,530,530,530,530,530,530,530,530,530,530,530,530,530,530,530,530,530,530,530,530,530,530,530,529,503,479,399,367,340,314,275,252,223,178,119,77,10,3,3,3,3,3,3,3,3,3,3,3,3,3,3,7,17,24,32,44,45,45,45,45,45,45,45,45,45,47,47,47],"timestamp_mouse":[11,29,49,69,89,109,130,149,168,190,210,229,250,268,290,310,329,350,369,389,410,429,450,470,490,510,540,548,568,589,609,628,649,669,689,709,729,748,769,788,810,830,850,869,889,909,928,948,968,988,1009,1029,1049,1069,1089,1110,1129,1149,1169,1188,1208,1229,1250,1270,1289,1309,1328,1349,1370,1388,1409],"xSR":741.5,"ySR":469.95,"xT1":424.9,"yT1":0,"xT2":1058.1,"yT2":0,"toosoon":0,"cond_shown":"randomdotsizeEA","ratio_trial":900,"smaller_num":"18","larger_num":"20","correct_side":2,"subjID":"samantha gomez hamon 34","gender":"1","age":"10","school":"4"},{"start_time":1552309976836,"click_time":1552309977767,"finger_time":1552309977206,"fix_duration":1347.6039488858075,"trial":34,"RT":370,"MT":561,"sideResp":1,"stimulus":"img/900/randomdotsizeEA/L/4_Ratio_900_L_20_R_18.png","xmouse":[792,792,792,792,792,792,792,792,792,792,792,792,792,792,792,792,792,791,787,783,774,767,745,723,709,702,695,682,675,660,652,644,631,621,609,601,599,597,595,592,587,579,568,561,547,531,515],"ymouse":[510,510,510,510,510,510,510,510,510,510,510,510,510,510,510,510,507,481,448,438,414,400,359,320,289,274,256,223,209,177,160,140,116,105,94,90,88,88,87,87,87,86,83,82,80,78,76],"timestamp_mouse":[10,31,49,71,89,110,130,151,171,191,210,229,250,271,290,310,331,349,370,389,410,429,450,469,489,510,531,550,569,590,610,629,649,670,690,710,730,750,771,790,811,830,850,870,889,910,931],"xSR":741.5,"ySR":469.95,"xT1":424.9,"yT1":0,"xT2":1058.1,"yT2":0,"toosoon":0,"cond_shown":"randomdotsizeEA","ratio_trial":900,"smaller_num":"18","larger_num":"20","correct_side":1,"subjID":"samantha gomez hamon 34","gender":"1","age":"10","school":"4"},{"start_time":1552309994050,"click_time":1552309995226,"finger_time":1552309994665,"fix_duration":1102.3149359685142,"trial":35,"RT":615,"MT":561,"sideResp":2,"stimulus":"img/900/randomdotsizeEA/L/1_Ratio_900_L_10_R_9.png","xmouse":[763,763,763,763,763,763,763,763,763,763,761,760,760,760,760,760,760,760,760,760,760,760,760,760,758,757,757,757,759,764,777,782,789,805,820,832,844,853,864,873,892,902,909,947,965,980,986,993,1019,1042,1055,1070,1083,1099,1105,1111,1117,1120,1123],"ymouse":[528,528,528,528,528,528,528,528,528,528,529,529,529,529,529,529,530,530,530,530,530,530,530,530,530,529,522,511,486,477,456,449,441,423,402,382,365,350,329,314,289,279,272,238,219,204,199,194,180,167,159,149,138,127,121,112,105,101,91],"timestamp_mouse":[16,42,56,76,96,115,136,157,175,197,216,237,257,275,295,315,337,357,377,395,417,435,456,477,495,515,536,555,576,595,615,636,656,676,696,716,736,755,775,796,816,835,856,876,896,916,936,957,975,995,1017,1037,1055,1076,1096,1116,1136,1155,1175],"xSR":741.5,"ySR":469.95,"xT1":424.9,"yT1":0,"xT2":1058.1,"yT2":0,"toosoon":0,"cond_shown":"randomdotsizeEA","ratio_trial":900,"smaller_num":"9","larger_num":"10","correct_side":1,"subjID":"samantha gomez hamon 34","gender":"1","age":"10","school":"4"},{"start_time":1552309998838,"click_time":1552309999666,"finger_time":1552309999566,"fix_duration":250,"trial":36,"RT":728,"MT":100,"sideResp":2,"stimulus":"img/250/equaldotsize/L/5_Ratio_250_L_24_R_6.png","xmouse":[806,806,806,806,806,806,806,806,806,806,806,806,806,806,806,806,806,806,806,806,806,806,806,806,806,806,806,806,806,806,806,806,806,809,812,819,833,857,890,931,1025,1068],"ymouse":[477,477,477,477,477,477,477,477,477,477,477,477,477,477,477,477,477,477,477,477,477,477,477,477,477,477,477,477,477,477,477,477,482,485,485,476,448,384,311,249,125,79],"timestamp_mouse":[13,28,47,67,87,109,127,149,169,188,209,228,249,267,287,308,328,347,368,388,407,428,448,469,488,508,529,547,568,589,608,627,648,667,688,707,728,747,769,789,809,828],"xSR":741.5,"ySR":469.95,"xT1":424.9,"yT1":0,"xT2":1058.1,"yT2":0,"toosoon":0,"cond_shown":"equaldotsize","ratio_trial":250,"smaller_num":"6","larger_num":"24","correct_side":1,"subjID":"samantha gomez hamon 34","gender":"1","age":"10","school":"4"},{"start_time":1552310002834,"click_time":1552310004186,"finger_time":1552310003465,"fix_duration":1126.8071024140024,"trial":37,"RT":631,"MT":721,"sideResp":1,"stimulus":"img/250/equaldotanddens/L/2_Ratio_250_L_16_R_4.png","xmouse":[791,791,791,791,791,791,791,791,791,791,792,792,792,792,792,792,792,792,792,792,792,792,792,792,792,789,784,778,771,765,747,742,726,708,677,570,502,485,380,328,295,295,295,295,295,295,295,295,295,295,295,295,295,295,295,295,295,295,295,295,295,295,295,295,295,295,295,425],"ymouse":[527,527,527,527,527,527,527,527,527,527,527,524,522,521,519,518,518,518,518,518,518,518,518,518,516,512,504,499,493,488,475,469,458,447,423,345,281,261,136,67,16,16,16,16,16,16,16,16,16,16,16,16,16,16,16,16,16,16,16,16,16,16,16,16,16,16,16,2],"timestamp_mouse":[13,42,52,72,93,112,133,152,172,192,213,231,253,272,292,311,332,353,372,392,412,432,451,471,493,511,533,551,572,592,612,631,652,672,692,711,731,753,773,792,813,833,852,872,892,912,933,951,971,992,1011,1032,1052,1072,1093,1113,1132,1151,1172,1191,1211,1232,1252,1273,1292,1312,1333,1352],"xSR":741.5,"ySR":469.95,"xT1":424.9,"yT1":0,"xT2":1058.1,"yT2":0,"toosoon":0,"cond_shown":"equaldotanddens","ratio_trial":250,"smaller_num":"4","larger_num":"16","correct_side":1,"subjID":"samantha gomez hamon 34","gender":"1","age":"10","school":"4"},{"start_time":1552310006673,"click_time":1552310007465,"finger_time":1552310007085,"fix_duration":1125.3731914834761,"trial":38,"RT":412,"MT":380,"sideResp":2,"stimulus":"img/250/randomdotsizeEA/R/13_Ratio_250_L_2_R_8.png","xmouse":[801,801,801,801,801,801,801,801,801,801,801,801,801,801,801,801,801,801,805,815,837,870,910,961,997,1013,1020,1022,1023,1024,1027,1032,1036,1050,1060,1068,1073,1084,1101,1107],"ymouse":[504,504,504,504,504,504,504,504,504,504,504,504,504,504,504,504,504,504,494,473,435,389,338,295,269,259,255,254,250,246,237,224,214,191,175,160,148,133,101,89],"timestamp_mouse":[14,33,53,72,94,114,133,153,173,192,214,232,252,273,294,313,334,354,373,392,412,433,452,474,492,513,534,554,574,592,614,633,653,673,692,712,733,753,774,792],"xSR":741.5,"ySR":469.95,"xT1":424.9,"yT1":0,"xT2":1058.1,"yT2":0,"toosoon":0,"cond_shown":"randomdotsizeEA","ratio_trial":250,"smaller_num":"2","larger_num":"8","correct_side":2,"subjID":"samantha gomez hamon 34","gender":"1","age":"10","school":"4"},{"start_time":1552310012707,"click_time":1552310014146,"finger_time":1552310013346,"fix_duration":499.2304226527187,"trial":39,"RT":639,"MT":800,"sideResp":1,"stimulus":"img/750/randomdotsizeEA/L/14_Ratio_750_L_8_R_6.png","xmouse":[749,749,749,749,749,749,749,749,749,749,749,749,749,749,749,749,749,749,749,749,749,750,752,752,753,753,753,753,753,750,746,739,718,701,681,669,669,603,572,537,523,515,511,503,488,472,452,410,398,396,396,396,396,397,398,399,400,400,400,401,404,405,405,405,405,405,405,405,405,409,417,427],"ymouse":[533,533,533,533,533,533,533,533,533,533,533,533,533,533,533,533,533,533,533,533,530,526,515,513,511,511,511,511,508,497,480,465,419,395,368,357,357,308,289,275,270,266,260,251,237,225,211,184,177,176,176,176,174,171,167,159,150,120,97,85,79,76,75,75,75,75,75,75,75,75,76,77],"timestamp_mouse":[20,46,60,80,99,119,139,158,178,200,218,238,260,278,298,319,339,359,379,398,419,439,458,478,499,520,539,559,580,598,619,639,659,678,699,718,740,759,778,799,819,839,859,878,898,918,938,958,979,1000,1018,1040,1059,1080,1099,1120,1139,1159,1180,1199,1219,1238,1259,1279,1299,1320,1340,1359,1380,1399,1420,1439],"xSR":741.5,"ySR":469.95,"xT1":424.9,"yT1":0,"xT2":1058.1,"yT2":0,"toosoon":0,"cond_shown":"randomdotsizeEA","ratio_trial":750,"smaller_num":"6","larger_num":"8","correct_side":1,"subjID":"samantha gomez hamon 34","gender":"1","age":"10","school":"4"},{"start_time":1552310016870,"click_time":1552310018087,"finger_time":1552310017545,"fix_duration":1322.2024071057058,"trial":40,"RT":675,"MT":542,"sideResp":2,"stimulus":"img/900/randomdotsizeEA/L/8_Ratio_900_L_20_R_18.png","xmouse":[806,806,806,806,806,806,806,806,806,806,806,806,806,806,806,806,806,806,806,806,806,806,806,806,806,806,803,800,799,798,797,796,796,796,808,822,841,872,905,944,1000,1003,1003,1003,995,994,993,993,993,993,993,993,993,997,999,1008,1015,1022,1035,1056,1071],"ymouse":[518,518,518,518,518,518,518,518,518,518,518,518,518,518,518,518,518,518,518,518,518,518,518,518,518,518,515,508,504,499,493,487,477,464,425,401,375,340,308,273,216,210,202,195,177,171,165,160,154,149,138,137,136,134,132,131,129,124,118,105,92],"timestamp_mouse":[15,38,56,77,95,116,137,157,177,196,215,236,257,275,295,317,336,355,377,396,417,435,456,476,496,515,536,556,576,595,617,635,656,675,697,715,736,755,776,795,816,836,856,876,897,915,935,955,975,996,1016,1035,1056,1076,1096,1115,1136,1156,1176,1197,1217],"xSR":741.5,"ySR":469.95,"xT1":424.9,"yT1":0,"xT2":1058.1,"yT2":0,"toosoon":0,"cond_shown":"randomdotsizeEA","ratio_trial":900,"smaller_num":"18","larger_num":"20","correct_side":1,"subjID":"samantha gomez hamon 34","gender":"1","age":"10","school":"4"},{"start_time":1552310020781,"click_time":1552310022286,"finger_time":1552310021526,"fix_duration":1053.7009885909274,"trial":41,"RT":745,"MT":760,"sideResp":2,"stimulus":"img/250/equaldotsize/L/1_Ratio_250_L_8_R_2.png","xmouse":[768,768,768,768,768,768,768,768,768,768,768,768,768,768,768,768,768,768,768,768,768,768,768,768,768,768,768,768,768,768,768,768,768,769,770,774,777,780,783,785,791,795,800,809,813,813,813,813,813,813,813,813,813,811,808,804,801,799,795,792,784,778,773,769,765,763,763,763,763,763,763,776,801,843,909,1059],"ymouse":[533,533,533,533,533,533,533,533,533,533,533,533,533,533,533,533,533,533,533,533,533,533,533,533,533,533,533,533,533,533,533,533,532,526,517,490,478,469,462,455,433,416,397,369,355,345,344,343,343,343,343,343,344,348,361,396,418,434,453,471,505,523,533,541,545,548,548,548,548,548,547,500,417,312,202,32],"timestamp_mouse":[10,25,45,64,84,106,126,144,166,186,204,224,246,265,284,305,326,346,365,385,406,425,446,466,486,506,525,546,565,585,604,626,644,665,685,704,724,745,765,786,805,825,845,865,885,905,925,945,966,985,1006,1026,1044,1066,1086,1105,1125,1144,1164,1184,1205,1225,1244,1265,1285,1304,1325,1345,1366,1385,1404,1425,1444,1466,1485,1505],"xSR":741.5,"ySR":469.95,"xT1":424.9,"yT1":0,"xT2":1058.1,"yT2":0,"toosoon":0,"cond_shown":"equaldotsize","ratio_trial":250,"smaller_num":"2","larger_num":"8","correct_side":1,"subjID":"samantha gomez hamon 34","gender":"1","age":"10","school":"4"},{"start_time":1552310025615,"click_time":1552310026766,"finger_time":1552310026047,"fix_duration":425.482367154546,"trial":42,"RT":432,"MT":719,"sideResp":1,"stimulus":"img/500/equaldotsize/L/13_Ratio_500_L_12_R_6.png","xmouse":[749,749,749,749,749,749,749,749,749,749,749,749,749,749,749,750,750,750,751,751,747,739,725,704,694,688,679,671,664,640,627,613,602,590,585,579,572,563,534,513,494,488,485,483,476,473,470,468,466,465,465,465,464,464,464,464,467,476],"ymouse":[547,547,547,547,547,547,547,547,547,547,547,547,547,547,546,546,545,544,540,534,524,506,484,453,440,432,419,404,388,348,331,311,294,271,262,255,248,238,204,178,162,158,154,150,144,141,137,134,130,130,130,130,129,129,125,120,110,91],"timestamp_mouse":[13,31,50,72,92,111,131,151,171,192,211,231,251,271,290,311,330,351,371,391,410,432,451,472,490,510,531,551,571,592,611,631,651,671,691,711,730,751,772,791,811,830,851,872,890,912,931,952,973,990,1011,1031,1051,1071,1090,1111,1132,1151],"xSR":741.5,"ySR":469.95,"xT1":424.9,"yT1":0,"xT2":1058.1,"yT2":0,"toosoon":0,"cond_shown":"equaldotsize","ratio_trial":500,"smaller_num":"6","larger_num":"12","correct_side":1,"subjID":"samantha gomez hamon 34","gender":"1","age":"10","school":"4"},{"start_time":1552310029412,"click_time":1552310030806,"finger_time":1552310030105,"fix_duration":1106.1436828769647,"trial":43,"RT":693,"MT":701,"sideResp":1,"stimulus":"img/500/equaldotsize/L/8_Ratio_500_L_8_R_4.png","xmouse":[784,784,784,784,784,784,784,784,784,784,784,784,784,784,784,784,784,784,784,784,784,784,784,784,784,783,783,783,782,779,779,776,774,772,766,745,726,712,706,691,676,655,636,605,543,523,499,481,459,410,388,377,364,361,361,368,384,395,406,420,422,423,423,423,423,423,423,424,424,425],"ymouse":[534,534,534,534,534,534,534,534,534,534,534,534,534,534,534,534,534,534,534,534,534,534,534,534,534,534,530,520,509,491,486,482,479,475,469,454,443,436,433,419,405,388,372,347,303,288,268,253,234,193,174,163,149,139,117,106,88,75,66,56,54,54,54,54,54,54,54,54,54,54],"timestamp_mouse":[13,47,55,75,95,114,133,153,175,194,215,233,254,275,294,315,333,355,373,394,414,434,454,473,494,514,533,555,574,594,613,635,654,673,693,713,734,754,774,794,814,834,854,875,894,915,934,954,974,994,1014,1034,1054,1075,1094,1114,1134,1154,1173,1194,1214,1234,1253,1275,1294,1314,1335,1355,1374,1394],"xSR":741.5,"ySR":469.95,"xT1":424.9,"yT1":0,"xT2":1058.1,"yT2":0,"toosoon":0,"cond_shown":"equaldotsize","ratio_trial":500,"smaller_num":"4","larger_num":"8","correct_side":1,"subjID":"samantha gomez hamon 34","gender":"1","age":"10","school":"4"},{"start_time":1552310033670,"click_time":1552310035026,"finger_time":1552310034425,"fix_duration":1422.8947208111797,"trial":44,"RT":755,"MT":601,"sideResp":2,"stimulus":"img/250/equaldotsize/R/6_Ratio_250_L_6_R_24.png","xmouse":[784,784,784,784,784,784,784,784,784,784,784,784,784,784,784,784,784,784,784,784,784,784,784,784,784,784,784,784,784,784,784,784,787,793,802,807,823,884,920,954,978,1027,1035,1038,1040,1042,1047,1050,1053,1057,1058,1060,1060,1060,1060,1060,1060,1060,1060,1062,1064,1068,1072,1074,1075,1079,1082,1090],"ymouse":[528,528,528,528,528,528,528,528,528,528,528,528,528,528,528,528,528,528,528,528,528,528,528,528,528,528,528,528,528,528,528,528,528,523,516,513,500,458,434,408,386,342,332,325,318,310,278,255,235,217,204,192,173,169,165,162,157,153,153,148,143,133,124,120,117,112,106,90],"timestamp_mouse":[20,37,56,77,95,117,136,155,176,197,215,236,257,276,295,316,336,356,375,396,416,435,455,476,497,515,536,557,577,597,616,636,657,675,696,716,736,755,776,796,816,836,856,876,896,916,937,956,976,995,1016,1036,1056,1075,1096,1115,1137,1156,1176,1196,1216,1235,1255,1276,1297,1316,1336,1355],"xSR":741.5,"ySR":469.95,"xT1":424.9,"yT1":0,"xT2":1058.1,"yT2":0,"toosoon":0,"cond_shown":"equaldotsize","ratio_trial":250,"smaller_num":"6","larger_num":"24","correct_side":2,"subjID":"samantha gomez hamon 34","gender":"1","age":"10","school":"4"},{"start_time":1552310048634,"click_time":1552310049647,"finger_time":1552310049065,"fix_duration":386.14606438731505,"trial":45,"RT":431,"MT":582,"sideResp":2,"stimulus":"img/900/equaldotsize/R/7_Ratio_900_L_9_R_10.png","xmouse":[750,752,760,763,764,766,768,771,777,784,797,800,802,803,804,804,804,804,804,804,805,812,822,835,847,870,888,903,923,944,964,992,1001,1005,1009,1028,1056,1071,1075,1077,1078,1080,1084,1088,1095,1101,1103,1105,1107,1107,1109],"ymouse":[535,533,525,524,523,522,522,522,522,522,522,522,524,524,525,525,525,525,525,522,483,449,416,391,375,348,334,322,306,291,273,238,222,209,196,171,153,145,141,140,137,134,130,125,120,115,113,110,107,104,97],"timestamp_mouse":[20,41,52,72,92,111,131,153,172,192,211,231,252,272,292,312,331,352,373,391,412,431,453,472,491,512,531,552,571,592,612,631,653,672,693,713,732,752,772,791,812,831,852,872,892,912,932,952,972,992,1013],"xSR":741.5,"ySR":469.95,"xT1":424.9,"yT1":0,"xT2":1058.1,"yT2":0,"toosoon":0,"cond_shown":"equaldotsize","ratio_trial":900,"smaller_num":"9","larger_num":"10","correct_side":2,"subjID":"samantha gomez hamon 34","gender":"1","age":"10","school":"4"},{"start_time":1552310051313,"click_time":1552310052526,"finger_time":1552310051966,"fix_duration":686.3154028447807,"trial":46,"RT":653,"MT":560,"sideResp":2,"stimulus":"img/750/equaldotanddens/R/15_Ratio_750_L_9_R_12.png","xmouse":[786,786,786,786,786,786,786,786,786,786,786,786,786,786,786,786,786,786,786,786,786,786,786,786,786,786,786,786,789,793,807,814,870,889,905,921,938,943,950,956,962,969,976,983,990,999,1017,1024,1031,1038,1044,1056,1063,1068,1070,1072,1074,1077,1077,1078,1078],"ymouse":[530,530,530,531,531,531,531,531,531,531,531,531,531,531,531,531,531,531,531,531,531,531,531,531,531,531,528,525,520,515,501,495,452,438,421,400,357,341,316,294,274,250,227,213,197,183,158,150,144,139,134,123,118,114,111,109,107,102,101,100,98],"timestamp_mouse":[13,49,54,73,93,114,133,154,173,193,212,233,253,272,294,314,334,353,374,393,414,432,454,472,494,512,533,553,572,592,613,632,653,673,693,713,734,752,773,793,813,834,853,872,893,913,934,952,974,993,1013,1034,1052,1072,1094,1113,1133,1153,1173,1193,1213],"xSR":741.5,"ySR":469.95,"xT1":424.9,"yT1":0,"xT2":1058.1,"yT2":0,"toosoon":0,"cond_shown":"equaldotanddens","ratio_trial":750,"smaller_num":"9","larger_num":"12","correct_side":2,"subjID":"samantha gomez hamon 34","gender":"1","age":"10","school":"4"},{"start_time":1552310056642,"click_time":1552310057587,"finger_time":1552310057045,"fix_duration":1374.3921887883796,"trial":47,"RT":403,"MT":542,"sideResp":2,"stimulus":"img/250/equaldotsize/R/10_Ratio_250_L_4_R_16.png","xmouse":[810,810,810,810,810,810,810,810,810,810,810,812,816,821,826,830,834,835,838,838,843,847,862,877,887,894,902,904,907,913,919,936,955,970,985,1001,1027,1037,1042,1043,1043,1043,1043,1044,1045,1047,1055,1063],"ymouse":[518,517,515,515,514,514,513,511,510,508,507,506,504,501,498,495,490,489,486,484,477,465,423,357,302,258,193,180,173,161,150,121,96,79,64,51,29,21,20,19,19,19,19,19,19,19,21,25],"timestamp_mouse":[10,24,48,65,84,105,123,143,165,184,205,224,245,263,284,304,324,344,364,384,403,424,444,464,485,504,525,543,564,584,604,624,644,664,684,703,724,745,765,784,803,825,844,863,884,904,924,945],"xSR":741.5,"ySR":469.95,"xT1":424.9,"yT1":0,"xT2":1058.1,"yT2":0,"toosoon":0,"cond_shown":"equaldotsize","ratio_trial":250,"smaller_num":"4","larger_num":"16","correct_side":2,"subjID":"samantha gomez hamon 34","gender":"1","age":"10","school":"4"},{"start_time":1552310059701,"click_time":1552310060606,"finger_time":1552310060185,"fix_duration":933.4802394276613,"trial":48,"RT":484,"MT":421,"sideResp":2,"stimulus":"img/750/randomdotsizeEA/R/15_Ratio_750_L_9_R_12.png","xmouse":[788,788,788,788,788,788,788,788,788,788,788,788,788,788,788,788,788,788,788,788,788,788,791,815,835,859,878,889,893,893,895,898,901,916,922,923,930,944,956,980,992,1002,1014,1041,1054,1063],"ymouse":[503,503,503,503,503,503,503,503,503,503,503,503,503,503,503,503,503,503,503,503,503,501,498,472,452,432,415,404,394,387,376,361,343,303,287,285,272,250,237,211,199,184,163,117,100,87],"timestamp_mouse":[9,42,45,66,85,106,124,145,164,186,205,226,244,265,285,305,324,346,365,386,406,425,445,465,484,505,525,545,566,584,605,625,645,666,684,706,725,745,764,785,805,825,846,866,885,905],"xSR":741.5,"ySR":469.95,"xT1":424.9,"yT1":0,"xT2":1058.1,"yT2":0,"toosoon":0,"cond_shown":"randomdotsizeEA","ratio_trial":750,"smaller_num":"9","larger_num":"12","correct_side":2,"subjID":"samantha gomez hamon 34","gender":"1","age":"10","school":"4"},{"start_time":1552310063283,"click_time":1552310065086,"finger_time":1552310063985,"fix_duration":1074.5706725705506,"trial":49,"RT":702,"MT":1101,"sideResp":1,"stimulus":"img/250/randomdotsizeEA/L/2_Ratio_250_L_16_R_4.png","xmouse":[769,769,769,769,769,769,769,769,769,769,769,769,769,770,770,772,772,772,772,772,772,772,772,772,772,772,773,775,777,780,787,794,802,814,833,882,935,946,965,968,968,968,969,970,973,986,994,1007,1032,1042,1050,1050,1050,1050,1050,1040,1027,1014,996,978,938,916,890,863,828,754,721,702,681,659,605,572,537,501,469,422,412,410,410,410,409,408,408,408,408,408,409,412,416,420,427],"ymouse":[514,514,514,514,514,514,514,514,514,514,514,514,514,514,514,514,514,514,514,514,514,514,514,514,514,514,514,514,514,514,514,512,510,506,500,475,444,440,432,430,430,430,430,429,424,409,400,386,364,352,340,340,340,339,339,336,335,333,330,328,315,305,292,279,264,241,229,224,217,209,189,179,170,159,145,125,121,121,121,121,118,113,109,105,102,96,92,90,87,85,80],"timestamp_mouse":[13,34,43,63,84,104,123,144,163,184,203,223,243,264,283,303,324,344,363,382,403,423,444,463,483,504,523,542,562,583,604,622,642,663,684,702,724,744,763,783,803,824,843,863,882,903,923,943,963,983,1003,1024,1043,1063,1084,1103,1124,1142,1163,1184,1202,1224,1243,1263,1282,1303,1323,1343,1363,1383,1403,1422,1444,1463,1483,1503,1523,1543,1562,1583,1602,1624,1644,1663,1682,1703,1723,1743,1764,1784,1803],"xSR":741.5,"ySR":469.95,"xT1":424.9,"yT1":0,"xT2":1058.1,"yT2":0,"toosoon":0,"cond_shown":"randomdotsizeEA","ratio_trial":250,"smaller_num":"4","larger_num":"16","correct_side":1,"subjID":"samantha gomez hamon 34","gender":"1","age":"10","school":"4"},{"start_time":1552310068268,"click_time":1552310069105,"finger_time":1552310068906,"fix_duration":1300.4971075190626,"trial":50,"RT":638,"MT":199,"sideResp":1,"stimulus":"img/500/randomdotsizeEA/L/7_Ratio_500_L_10_R_5.png","xmouse":[807,807,807,807,808,811,811,811,811,811,811,811,811,811,811,811,812,812,812,812,812,812,813,813,813,813,813,813,813,810,804,784,768,745,724,696,614,575,559,540,499,485],"ymouse":[550,550,550,550,550,550,550,550,550,550,550,550,550,550,550,550,550,550,550,550,550,550,550,550,550,549,548,542,532,515,497,458,430,399,373,343,254,211,190,170,113,88],"timestamp_mouse":[17,37,58,79,99,118,139,157,179,198,218,239,258,277,298,319,338,359,379,397,417,438,459,478,499,519,538,557,579,598,618,638,657,678,699,718,739,758,778,798,819,837],"xSR":741.5,"ySR":469.95,"xT1":424.9,"yT1":0,"xT2":1058.1,"yT2":0,"toosoon":0,"cond_shown":"randomdotsizeEA","ratio_trial":500,"smaller_num":"5","larger_num":"10","correct_side":1,"subjID":"samantha gomez hamon 34","gender":"1","age":"10","school":"4"},{"start_time":1552310070715,"click_time":1552310071688,"finger_time":1552310071386,"fix_duration":387.3428389533293,"trial":51,"RT":671,"MT":302,"sideResp":1,"stimulus":"img/900/randomdotsizeEA/R/9_Ratio_900_L_18_R_20.png","xmouse":[783,783,783,783,783,783,783,783,783,783,783,783,783,783,783,783,783,783,783,783,783,783,783,783,783,783,783,783,783,783,780,765,761,739,708,697,694,690,684,666,654,641,621,611,588,577,566,550,516],"ymouse":[540,540,540,540,540,540,540,540,540,540,540,540,540,540,540,540,540,540,540,540,540,540,540,540,540,540,540,540,540,536,522,484,472,416,345,313,306,291,277,239,222,206,182,170,146,137,127,112,84],"timestamp_mouse":[21,38,51,70,92,111,130,151,171,192,211,232,252,271,291,311,331,352,372,391,412,430,451,472,491,511,531,551,572,591,610,630,651,671,690,711,731,750,772,791,811,831,851,871,891,911,931,950,973],"xSR":741.5,"ySR":469.95,"xT1":424.9,"yT1":0,"xT2":1058.1,"yT2":0,"toosoon":0,"cond_shown":"randomdotsizeEA","ratio_trial":900,"smaller_num":"18","larger_num":"20","correct_side":2,"subjID":"samantha gomez hamon 34","gender":"1","age":"10","school":"4"},{"start_time":1552310073510,"click_time":1552310074406,"finger_time":1552310073966,"fix_duration":642.1991492021034,"trial":52,"RT":456,"MT":440,"sideResp":1,"stimulus":"img/750/equaldotsize/L/9_Ratio_750_L_4_R_3.png","xmouse":[765,765,765,765,765,765,765,765,766,766,766,766,766,766,766,766,767,769,783,818,830,839,840,840,842,843,843,843,844,844,844,843,841,840,836,830,820,805,783,709,631,594,534,504,458],"ymouse":[509,509,509,509,509,509,509,509,509,509,509,509,509,509,509,509,509,508,502,486,478,470,468,467,463,461,460,460,460,459,457,454,451,449,443,437,428,416,397,338,252,210,142,109,47],"timestamp_mouse":[15,43,57,75,97,117,137,155,176,196,217,237,255,275,296,317,337,356,375,395,416,435,456,476,496,517,536,556,576,596,617,636,656,676,696,716,736,756,777,796,816,836,857,876,896],"xSR":741.5,"ySR":469.95,"xT1":424.9,"yT1":0,"xT2":1058.1,"yT2":0,"toosoon":0,"cond_shown":"equaldotsize","ratio_trial":750,"smaller_num":"3","larger_num":"4","correct_side":1,"subjID":"samantha gomez hamon 34","gender":"1","age":"10","school":"4"},{"start_time":1552310075817,"click_time":1552310077307,"finger_time":1552310076205,"fix_duration":250,"trial":53,"RT":388,"MT":1102,"sideResp":1,"stimulus":"img/900/randomdotsizeEA/R/9_Ratio_900_L_18_R_20.png","xmouse":[799,799,799,799,799,799,799,799,799,799,799,800,800,800,800,800,801,806,815,845,858,875,892,909,947,959,969,976,980,985,986,989,992,999,1025,1045,1062,1078,1090,1102,1104,1104,1104,1104,1104,1098,1087,1074,1059,1032,1019,1005,978,930,873,782,763,744,720,648,614,581,546,522,492,490,490,490,489,487,480,479,481,484,488],"ymouse":[511,511,511,511,511,511,511,511,511,511,511,512,512,512,512,512,512,511,508,489,476,462,448,435,408,401,392,385,378,366,361,353,340,325,269,244,219,202,183,160,155,153,152,152,151,149,149,150,155,162,166,173,196,233,283,351,357,361,361,342,323,303,279,260,232,226,217,208,199,190,143,123,110,102,92],"timestamp_mouse":[8,29,50,68,90,110,130,148,169,190,210,228,249,269,288,310,328,349,369,388,408,429,449,470,490,509,529,549,569,590,610,629,649,670,690,709,728,750,769,790,809,828,849,869,888,910,929,950,969,989,1009,1029,1050,1069,1089,1110,1129,1149,1169,1189,1209,1229,1250,1270,1290,1308,1329,1350,1369,1389,1409,1430,1449,1470,1490],"xSR":741.5,"ySR":469.95,"xT1":424.9,"yT1":0,"xT2":1058.1,"yT2":0,"toosoon":0,"cond_shown":"randomdotsizeEA","ratio_trial":900,"smaller_num":"18","larger_num":"20","correct_side":2,"subjID":"samantha gomez hamon 34","gender":"1","age":"10","school":"4"},{"start_time":1552310079667,"click_time":1552310080367,"finger_time":1552310080206,"fix_duration":1279.9189682572726,"trial":54,"RT":539,"MT":161,"sideResp":2,"stimulus":"img/900/equaldotsize/R/13_Ratio_900_L_18_R_20.png","xmouse":[786,786,786,787,787,787,787,787,787,787,787,787,787,787,787,787,787,787,787,787,790,792,796,810,820,829,839,848,879,906,935,969,989,1029,1051,1062],"ymouse":[534,534,534,533,533,533,533,533,533,533,533,533,533,533,533,533,533,533,533,533,530,528,524,508,495,484,470,454,397,349,299,241,206,130,93,71],"timestamp_mouse":[1,19,43,60,80,100,120,139,160,179,199,220,240,259,280,299,319,339,359,380,399,418,439,460,479,500,519,539,559,580,599,618,639,659,678,700],"xSR":741.5,"ySR":469.95,"xT1":424.9,"yT1":0,"xT2":1058.1,"yT2":0,"toosoon":0,"cond_shown":"equaldotsize","ratio_trial":900,"smaller_num":"18","larger_num":"20","correct_side":2,"subjID":"samantha gomez hamon 34","gender":"1","age":"10","school":"4"},{"start_time":1552310082321,"click_time":1552310083247,"finger_time":1552310082906,"fix_duration":753.9636393697465,"trial":55,"RT":585,"MT":341,"sideResp":1,"stimulus":"img/750/equaldotanddens/L/6_Ratio_750_L_24_R_18.png","xmouse":[791,791,791,791,792,792,792,792,793,793,794,794,794,794,794,795,795,795,795,795,795,795,795,795,795,791,789,781,778,777,772,764,753,737,714,662,631,618,613,610,599,591,578,566,554,532,523],"ymouse":[539,539,539,538,537,537,536,536,535,535,534,534,534,534,533,533,533,533,532,531,531,529,528,525,521,503,497,479,471,464,439,414,376,328,270,190,157,147,142,138,129,122,111,99,90,73,66],"timestamp_mouse":[12,38,45,64,85,105,126,144,165,185,205,225,245,266,286,305,325,346,365,385,405,424,444,465,485,505,525,544,565,585,605,624,645,665,685,705,725,745,765,785,805,825,846,866,884,905,926],"xSR":741.5,"ySR":469.95,"xT1":424.9,"yT1":0,"xT2":1058.1,"yT2":0,"toosoon":0,"cond_shown":"equaldotanddens","ratio_trial":750,"smaller_num":"18","larger_num":"24","correct_side":1,"subjID":"samantha gomez hamon 34","gender":"1","age":"10","school":"4"},{"start_time":1552310085119,"click_time":1552310086127,"finger_time":1552310085526,"fix_duration":250,"trial":56,"RT":407,"MT":601,"sideResp":2,"stimulus":"img/750/randomdotsizeEA/R/5_Ratio_750_L_15_R_20.png","xmouse":[793,794,795,795,795,795,795,795,796,796,796,796,796,796,797,801,804,808,813,823,863,900,931,951,962,966,967,969,970,972,976,985,992,999,1013,1021,1038,1042,1043,1043,1043,1043,1044,1044,1047,1051,1052,1054,1055,1056,1060],"ymouse":[535,536,537,537,537,537,537,537,538,538,538,538,538,538,538,538,538,537,535,532,507,477,452,436,427,422,421,416,414,407,398,366,343,310,261,219,162,153,150,149,148,148,146,144,137,125,118,113,110,104,97],"timestamp_mouse":[6,29,47,68,86,106,127,146,167,186,207,226,247,267,287,308,327,347,368,386,407,426,447,467,488,507,526,547,567,588,607,628,646,667,687,707,728,747,767,788,807,827,847,867,887,908,926,947,967,986,1008],"xSR":741.5,"ySR":469.95,"xT1":424.9,"yT1":0,"xT2":1058.1,"yT2":0,"toosoon":0,"cond_shown":"randomdotsizeEA","ratio_trial":750,"smaller_num":"15","larger_num":"20","correct_side":2,"subjID":"samantha gomez hamon 34","gender":"1","age":"10","school":"4"},{"start_time":1552310090045,"click_time":1552310091446,"finger_time":1552310090887,"fix_duration":1397.1250557338558,"trial":57,"RT":842,"MT":559,"sideResp":1,"stimulus":"img/750/randomdotsizeEA/R/4_Ratio_750_L_15_R_20.png","xmouse":[794,794,794,794,794,794,794,794,794,794,794,794,794,794,794,794,794,794,794,794,794,794,794,794,794,794,794,794,794,794,794,794,794,794,794,794,794,794,794,794,794,788,778,768,758,745,741,736,731,722,695,683,671,660,652,637,620,606,591,578,561,557,554,551,548,543,533,530,527,525,517],"ymouse":[518,518,518,518,518,518,518,518,518,518,518,518,518,518,518,518,518,518,518,518,518,518,518,518,518,518,518,518,518,518,518,518,518,518,518,518,518,518,518,517,502,482,458,438,418,391,376,347,324,293,222,195,173,156,146,127,109,96,83,73,62,60,59,58,58,57,55,55,55,55,57],"timestamp_mouse":[9,21,44,61,81,101,122,140,160,182,201,221,242,261,281,301,320,342,362,380,401,422,440,461,482,502,521,540,562,580,602,622,642,661,681,700,722,740,762,781,801,820,842,861,881,901,922,940,961,981,1000,1021,1040,1060,1081,1101,1121,1141,1161,1180,1201,1220,1242,1261,1281,1300,1321,1341,1360,1381,1401],"xSR":741.5,"ySR":469.95,"xT1":424.9,"yT1":0,"xT2":1058.1,"yT2":0,"toosoon":0,"cond_shown":"randomdotsizeEA","ratio_trial":750,"smaller_num":"15","larger_num":"20","correct_side":2,"subjID":"samantha gomez hamon 34","gender":"1","age":"10","school":"4"},{"start_time":1552310093941,"click_time":1552310094986,"finger_time":1552310094506,"fix_duration":1132.3975788076755,"trial":58,"RT":565,"MT":480,"sideResp":2,"stimulus":"img/750/randomdotsizeEA/R/7_Ratio_750_L_3_R_4.png","xmouse":[783,783,783,783,783,783,783,783,783,783,783,783,783,783,783,783,783,783,783,783,783,785,789,793,796,800,815,831,851,871,904,913,915,920,923,942,956,971,986,1008,1032,1042,1051,1056,1059,1063,1065,1066,1066,1067,1069,1073,1075],"ymouse":[516,516,516,516,516,516,516,516,516,516,516,516,516,516,516,516,516,516,516,516,516,516,516,516,515,513,504,490,473,456,428,422,420,417,414,400,388,371,354,326,288,266,243,217,196,163,154,147,142,137,126,103,90],"timestamp_mouse":[10,36,45,64,84,105,124,144,165,185,205,226,246,265,284,304,326,346,364,386,405,425,445,466,485,505,525,544,565,584,606,624,645,665,685,705,725,746,765,786,806,825,844,864,885,906,925,945,964,984,1005,1026,1045],"xSR":741.5,"ySR":469.95,"xT1":424.9,"yT1":0,"xT2":1058.1,"yT2":0,"toosoon":0,"cond_shown":"randomdotsizeEA","ratio_trial":750,"smaller_num":"3","larger_num":"4","correct_side":2,"subjID":"samantha gomez hamon 34","gender":"1","age":"10","school":"4"},{"start_time":1552310096882,"click_time":1552310098348,"finger_time":1552310097725,"fix_duration":913.5347675906062,"trial":59,"RT":843,"MT":623,"sideResp":2,"stimulus":"img/500/randomdotsizeEA/L/7_Ratio_500_L_10_R_5.png","xmouse":[757,757,757,757,757,757,757,757,757,757,757,757,757,757,757,757,757,757,758,759,759,759,759,760,760,760,760,760,760,760,760,760,760,760,760,760,760,758,757,754,751,746,741,733,731,729,727,727,727,728,732,734,747,779,799,822,844,863,892,904,919,924,935,943,956,963,970,978,983,1001,1018,1025,1047,1072],"ymouse":[523,523,523,523,523,523,524,524,524,524,524,524,524,524,524,524,524,524,524,524,524,524,524,524,524,524,524,524,524,524,524,524,524,524,520,516,513,511,509,504,497,485,473,445,434,422,410,403,396,388,381,378,368,352,340,327,311,297,266,250,228,221,205,196,184,178,172,164,155,135,115,108,87,64],"timestamp_mouse":[12,37,44,64,85,105,125,144,164,184,203,225,244,265,284,304,325,345,365,385,405,424,445,464,484,503,524,545,565,585,603,624,643,664,685,704,724,744,763,783,804,824,843,865,884,905,924,944,964,984,1004,1024,1045,1066,1084,1104,1125,1144,1165,1184,1203,1223,1244,1264,1283,1305,1324,1344,1365,1384,1403,1423,1444,1466],"xSR":741.5,"ySR":469.95,"xT1":424.9,"yT1":0,"xT2":1058.1,"yT2":0,"toosoon":0,"cond_shown":"randomdotsizeEA","ratio_trial":500,"smaller_num":"5","larger_num":"10","correct_side":1,"subjID":"samantha gomez hamon 34","gender":"1","age":"10","school":"4"},{"start_time":1552310100582,"click_time":1552310109306,"finger_time":1552310103887,"fix_duration":814.5770107035007,"trial":60,"RT":3305,"MT":5419,"sideResp":1,"stimulus":"img/250/randomdotsizeEA/L/14_Ratio_250_L_12_R_3.png","xmouse":[799,799,799,799,800,800,800,800,800,800,800,800,800,801,802,802,803,803,803,803,803,803,803,803,803,803,803,803,803,803,803,803,803,803,803,803,803,803,803,803,803,803,803,803,803,803,803,803,803,803,803,803,803,803,805,805,805,805,805,805,805,805,805,805,805,805,805,805,805,805,805,805,805,805,805,805,805,805,805,805,805,805,805,805,805,805,805,805,805,805,805,805,805,805,805,805,805,805,805,805,805,807,808,810,812,813,814,815,815,815,815,815,815,815,815,815,815,815,816,816,818,819,820,820,820,820,821,821,822,823,823,823,823,823,823,823,823,823,823,823,823,823,823,823,823,823,823,823,823,823,823,823,823,823,823,823,823,823,823,823,823,823,824,828,831,844,845,845,845,845,845,845,845,845,845,845,845,845,845,845,845,845,845,845,845,845,845,845,845,845,845,845,845,845,845,845,846,846,846,846,846,846,846,846,846,846,846,846,846,846,846,846,846,846,846,846,846,847,848,848,850,851,851,852,852,852,852,852,852,852,852,852,852,852,852,852,852,852,852,852,852,852,852,852,852,852,852,852,852,852,852,852,852,852,852,852,852,852,852,852,852,852,850,848,840,822,814,810,808,808,808,808,808,808,808,808,804,799,784,761,717,712,712,712,712,716,721,726,731,732,735,737,737,737,737,737,737,737,737,737,737,737,737,737,737,737,738,738,738,738,738,739,739,739,739,740,741,741,741,741,741,742,742,742,743,743,743,743,743,743,743,743,743,743,744,745,745,746,746,746,748,748,749,749,749,750,750,750,750,750,750,750,750,750,750,750,750,750,750,750,750,750,750,750,750,750,750,750,750,750,750,750,750,750,750,750,750,750,750,749,749,749,749,749,749,749,749,749,749,749,749,749,749,749,749,748,744,736,727,718,706,696,688,679,669,643,629,607,601,589,565,553,537,524,512,490,485,479,475,467,450,441,429,419,413,410,409,408,408,408,408,408,410,412,416,424,427],"ymouse":[527,527,527,527,526,526,526,526,526,526,526,526,526,526,526,526,526,526,526,526,526,526,526,526,526,526,526,526,526,526,526,526,526,526,526,526,526,526,526,526,526,526,526,526,526,526,526,526,526,526,526,526,526,526,525,525,525,525,525,525,525,525,525,525,525,525,525,525,525,525,525,525,525,525,525,525,525,525,525,525,525,525,525,525,525,525,525,525,525,525,525,525,525,525,525,525,525,525,525,525,525,525,525,525,525,525,525,525,525,525,525,525,525,525,525,525,525,525,525,526,529,531,531,531,531,532,533,534,535,536,536,536,536,536,536,536,536,536,536,536,536,536,536,536,536,536,536,536,536,536,536,536,536,536,536,536,536,536,536,536,536,536,537,537,538,540,540,540,540,540,540,540,540,540,540,540,540,540,540,540,540,540,540,540,540,540,540,540,540,540,540,540,540,540,540,540,540,540,540,540,540,541,541,542,542,542,542,542,542,542,542,542,542,542,542,542,542,542,543,544,547,548,548,548,548,548,548,548,548,548,548,548,548,548,548,548,548,548,548,548,548,548,548,548,548,548,548,548,548,548,548,548,548,548,548,548,548,548,548,548,548,548,544,542,536,523,517,513,511,511,511,511,511,511,511,511,511,512,516,521,528,528,528,528,528,528,528,528,527,527,527,527,527,527,527,527,527,527,527,527,527,527,527,527,527,527,527,527,527,527,527,527,527,529,532,534,535,535,536,536,537,538,538,538,539,539,539,539,539,540,540,541,541,541,542,544,545,546,547,548,553,556,557,557,557,558,559,559,559,559,559,559,559,559,559,559,559,559,559,559,559,559,559,559,559,559,559,559,559,559,559,559,559,559,559,559,559,559,557,557,554,554,554,554,554,554,554,554,554,554,554,554,554,554,553,550,542,530,517,504,481,466,455,443,428,399,380,352,345,330,301,288,267,252,236,209,201,193,184,174,146,134,117,107,100,95,92,89,89,87,85,83,81,79,78,74,73],"timestamp_mouse":[12,24,47,63,84,105,125,144,163,183,205,225,243,263,284,305,325,344,365,383,403,424,444,464,483,505,524,544,564,584,605,624,645,663,684,705,724,744,763,783,805,824,845,865,883,905,923,945,965,983,1005,1024,1044,1065,1084,1104,1125,1144,1163,1184,1204,1225,1243,1264,1285,1304,1324,1345,1365,1383,1404,1423,1444,1465,1484,1503,1523,1543,1565,1584,1605,1623,1644,1665,1684,1704,1724,1743,1764,1785,1805,1825,1843,1864,1885,1904,1924,1944,1965,1984,2005,2024,2044,2063,2083,2104,2123,2145,2164,2184,2203,2225,2245,2264,2283,2304,2325,2344,2364,2384,2405,2425,2445,2463,2484,2504,2525,2544,2563,2584,2605,2625,2643,2664,2683,2705,2725,2745,2764,2783,2804,2824,2845,2865,2883,2905,2925,2945,2963,2985,3005,3025,3044,3063,3085,3105,3125,3144,3164,3184,3204,3225,3244,3263,3283,3305,3325,3345,3364,3383,3403,3424,3444,3464,3484,3503,3524,3543,3565,3585,3604,3625,3644,3663,3685,3704,3724,3745,3764,3784,3804,3825,3843,3864,3885,3905,3924,3944,3965,3985,4004,4023,4043,4063,4083,4105,4125,4144,4164,4185,4203,4224,4245,4264,4285,4305,4324,4345,4364,4385,4403,4423,4444,4464,4485,4505,4525,4545,4564,4583,4604,4624,4644,4664,4685,4704,4724,4743,4764,4785,4803,4824,4845,4864,4885,4903,4924,4945,4965,4985,5005,5024,5043,5064,5085,5103,5124,5144,5165,5184,5204,5224,5243,5265,5283,5304,5323,5344,5365,5385,5404,5424,5444,5465,5484,5505,5524,5543,5564,5583,5604,5624,5645,5664,5683,5703,5724,5744,5763,5784,5804,5824,5844,5864,5883,5903,5924,5944,5964,5985,6003,6025,6043,6064,6085,6104,6125,6144,6163,6185,6204,6224,6243,6264,6284,6304,6323,6343,6364,6385,6404,6424,6444,6464,6484,6503,6525,6545,6564,6584,6605,6624,6644,6664,6684,6705,6723,6744,6764,6785,6803,6824,6843,6863,6884,6905,6924,6943,6964,6984,7004,7025,7045,7065,7084,7104,7125,7145,7163,7184,7204,7224,7244,7264,7283,7304,7324,7345,7363,7384,7405,7424,7443,7465,7484,7503,7525,7544,7564,7584,7603,7625,7644,7665,7683,7705,7724,7743,7764,7785,7804,7825,7843,7864,7884,7904,7923,7943,7963,7985,8004,8024,8044,8064,8083,8103,8127,8143,8163,8185,8203,8225,8243,8265,8283,8303,8323,8344,8364,8384,8404,8425,8443,8464,8484,8504,8523,8545,8564,8585,8604,8623,8643,8663,8683,8704,8724],"xSR":741.5,"ySR":469.95,"xT1":424.9,"yT1":0,"xT2":1058.1,"yT2":0,"toosoon":0,"cond_shown":"randomdotsizeEA","ratio_trial":250,"smaller_num":"3","larger_num":"12","correct_side":1,"subjID":"samantha gomez hamon 34","gender":"1","age":"10","school":"4"},{"start_time":1552310111028,"click_time":1552310112687,"finger_time":1552310111847,"fix_duration":339.6916080367885,"trial":61,"RT":819,"MT":840,"sideResp":1,"stimulus":"img/900/equaldotsize/L/2_Ratio_900_L_20_R_18.png","xmouse":[774,774,774,774,774,774,774,774,774,774,774,774,774,774,774,774,774,774,774,774,774,774,774,773,773,773,773,773,773,773,773,773,773,773,781,787,802,816,837,839,840,841,841,842,843,843,844,844,844,844,844,844,844,784,726,662,635,635,635,635,635,635,635,635,635,635,635,635,635,635,635,635,635,635,635,635,635,635,635,635,635,635,635,471],"ymouse":[520,520,520,520,520,520,520,520,520,520,520,520,520,520,520,520,520,520,520,520,520,520,520,520,520,520,520,520,520,520,520,520,520,520,511,505,497,490,479,475,471,468,465,460,458,456,455,454,454,454,453,452,445,271,127,32,3,3,3,3,3,3,3,3,3,3,3,3,3,3,3,3,3,3,3,3,3,3,3,3,3,3,3,5],"timestamp_mouse":[1,18,39,57,78,97,119,137,157,179,199,217,239,259,279,298,318,338,358,379,398,419,439,458,478,498,519,539,557,579,598,618,639,658,677,698,717,737,758,779,798,819,838,859,878,898,919,938,957,977,998,1018,1038,1058,1078,1098,1118,1139,1158,1178,1198,1219,1239,1259,1279,1298,1318,1339,1358,1378,1398,1419,1438,1458,1478,1499,1519,1538,1559,1578,1599,1618,1639,1659],"xSR":741.5,"ySR":469.95,"xT1":424.9,"yT1":0,"xT2":1058.1,"yT2":0,"toosoon":0,"cond_shown":"equaldotsize","ratio_trial":900,"smaller_num":"18","larger_num":"20","correct_side":1,"subjID":"samantha gomez hamon 34","gender":"1","age":"10","school":"4"},{"start_time":1552310119007,"click_time":1552310120447,"finger_time":1552310119647,"fix_duration":799.7855952796826,"trial":62,"RT":640,"MT":800,"sideResp":1,"stimulus":"img/500/equaldotanddens/L/11_Ratio_500_L_12_R_6.png","xmouse":[750,750,750,750,750,750,750,750,750,750,750,750,750,750,750,750,750,750,750,750,750,750,750,750,750,750,750,750,750,750,750,744,734,724,715,701,695,688,674,660,634,626,620,614,607,581,563,551,543,534,528,519,512,506,500,494,489,489,488,488,488,487,486,485,484,484,483,481,478,476,475,475,475],"ymouse":[545,545,545,545,545,545,545,545,545,545,545,545,545,545,545,545,545,545,545,545,545,545,545,545,545,545,545,545,545,545,545,535,522,509,502,491,487,481,470,458,439,430,419,410,399,351,319,299,285,268,256,233,221,208,196,188,175,173,171,169,161,157,153,148,143,132,126,122,117,113,108,105,98],"timestamp_mouse":[1,18,41,59,80,99,118,140,159,179,200,219,239,259,279,300,320,339,358,379,400,419,439,460,478,500,519,538,560,578,599,619,640,659,679,700,720,739,760,779,799,818,840,859,880,899,919,938,959,979,999,1020,1039,1059,1080,1099,1119,1138,1159,1180,1199,1218,1240,1260,1280,1300,1320,1339,1359,1379,1399,1420,1440