[{"start_time":1552054033007,"click_time":1552054037828,"finger_time":1552054033019,"fix_duration":874.352062297648,"trial":0,"RT":12,"MT":4809,"sideResp":2,"stimulus":[],"xmouse":[742,742,742,742,742,742,744,745,752,758,761,765,785,820,863,908,915,922,922,922,922,922,922,922,922,922,922,922,922,922,924,924,925,926,926,927,930,934,940,946,958,963,970,978,986,1007,1017,1021,1021,1021,1021,1023,1025,1025,1028,1030,1030,1031,1031,1032,1034,1034,1034,1034,1034,1030,1026,1018,1006,992,965,950,935,920,904,857,807,767,739,719,691,684,679,675,671,662,659,655,652,652,651,651,651,651,657,666,666,667,669,671,677,681,686,691,695,701,702,704,706,708,715,717,721,723,723,723,723,723,724,724,731,733,735,737,737,737,737,737,737,737,738,738,738,738,738,738,738,739,741,743,745,745,745,745,745,746,757,786,816,835,850,850,850,850,850,850,850,849,848,846,839,834,829,827,824,824,824,824,823,823,821,821,821,821,821,821,821,821,821,821,821,821,821,821,821,821,821,821,821,821,821,821,821,821,821,821,821,821,821,821,827,838,852,868,881,909,921,933,941,950,958,966,970,974,979,985,988,993,998,1003,1019,1026,1036,1052,1065,1077,1097,1105,1111,1116,1120,1120,1120,1120,1120,1118,1112,1108,1104,1101,1095,1089],"ymouse":[298,298,298,298,298,298,297,296,296,297,298,299,299,296,293,288,288,286,286,286,285,283,283,282,282,278,272,268,263,257,251,250,248,247,247,242,235,226,215,205,186,179,169,158,149,133,128,126,126,126,126,126,125,124,123,123,123,123,123,123,122,122,122,122,122,123,126,130,137,147,166,178,191,208,229,291,360,408,440,465,502,515,526,534,542,560,567,572,578,581,583,583,583,584,585,586,586,586,586,586,586,586,588,590,592,594,595,595,595,595,594,594,594,594,594,594,594,594,594,594,590,587,585,584,584,584,584,583,583,583,582,582,582,582,582,582,582,582,582,582,583,583,583,583,583,583,586,594,603,609,616,616,616,616,616,616,616,616,616,615,613,611,610,609,609,608,608,608,608,608,608,608,608,608,608,608,608,608,608,608,608,608,608,608,608,608,608,608,608,608,608,608,608,608,608,608,608,608,608,607,603,595,583,570,559,533,520,509,499,490,481,468,460,453,443,428,419,409,398,385,359,344,322,286,251,221,175,156,142,131,121,120,120,118,117,115,113,111,109,107,102,98],"timestamp_mouse":[11,25,40,60,81,101,121,140,161,180,200,221,241,260,281,300,320,340,360,380,400,420,441,461,481,501,520,540,560,580,600,620,641,660,680,699,720,739,760,781,801,819,841,860,881,901,921,940,961,980,1001,1020,1040,1061,1080,1100,1120,1140,1161,1181,1200,1220,1241,1260,1281,1300,1321,1339,1360,1381,1400,1421,1440,1460,1481,1500,1520,1540,1560,1580,1599,1620,1641,1661,1681,1699,1720,1740,1761,1781,1800,1821,1841,1861,1881,1900,1921,1940,1960,1980,2000,2021,2041,2059,2080,2100,2121,2140,2161,2179,2200,2220,2240,2260,2280,2300,2321,2340,2361,2381,2400,2420,2440,2461,2480,2500,2520,2540,2561,2580,2600,2620,2641,2661,2681,2701,2721,2740,2761,2781,2800,2820,2841,2861,2881,2900,2920,2940,2960,2980,3000,3020,3041,3060,3079,3100,3120,3140,3160,3180,3199,3220,3241,3260,3281,3300,3320,3341,3361,3381,3400,3420,3440,3461,3480,3499,3521,3541,3561,3581,3600,3619,3639,3661,3681,3700,3721,3741,3761,3781,3801,3820,3841,3861,3881,3901,3921,3940,3960,3980,4000,4020,4040,4061,4081,4100,4120,4139,4160,4180,4201,4221,4241,4261,4280,4301,4320,4340,4360,4381,4401,4420,4440,4460,4480,4500,4520,4541,4561,4580,4601,4620,4640,4659,4680,4701,4721,4740,4760,4781,4801,4820],"xSR":741.5,"ySR":501.8,"xT1":424.9,"yT1":0,"xT2":1058.1,"yT2":0,"toosoon":0,"cond_shown":"Incongruent","ratio_trial":200,"L_num":3,"L_den":4,"R_num":11,"R_den":20,"correct_side":1,"subjID":"Samuel Avellaneda 29","gender":"0","age":" 9 años","school":"4","test":{"fix_dur":[250,1500],"timestim":1000,"targets_dim":[100,100],"targets_relative_coord":[0.3,0.7],"size_stim":[880,420],"start_dim":[100,100],"size_start":[300,300],"size_fix":60,"samplingrate":20,"img_types":["Congruent","Incongruent"],"ratios":[100,200,300],"rep_conds":19,"nTrials":120,"trials_to_rest":500,"Trials_order":[93,97,47,11,112,30,4,27,41,17,23,91,76,88,102,94,117,105,50,52,48,63,96,38,45,13,74,85,10,40,1,60,109,107,84,86,59,15,68,25,80,118,119,113,65,71,12,62,79,18,70,21,106,2,24,89,56,92,75,69,44,34,110,14,26,82,39,83,16,31,116,5,29,77,8,32,111,95,33,46,99,19,73,66,98,37,115,6,35,108,87,64,51,57,54,101,53,90,61,22,103,42,36,49,78,3,114,20,55,43,28,7,67,9,104,81,100,0,58,72],"cond_shown":["Incongruent","Incongruent","Incongruent","Incongruent","Congruent","Congruent","Congruent","Incongruent","Incongruent","Incongruent","Incongruent","Incongruent","Congruent","Congruent","Congruent","Congruent","Incongruent","Incongruent","Congruent","Congruent","Congruent","Incongruent","Congruent","Congruent","Incongruent","Incongruent","Congruent","Incongruent","Congruent","Congruent","Incongruent","Congruent","Incongruent","Incongruent","Congruent","Congruent","Incongruent","Incongruent","Congruent","Incongruent","Congruent","Congruent","Incongruent","Incongruent","Incongruent","Incongruent","Congruent","Congruent","Incongruent","Congruent","Congruent","Incongruent","Congruent","Congruent","Congruent","Incongruent","Congruent","Congruent","Incongruent","Incongruent","Congruent","Congruent","Congruent","Congruent","Congruent","Congruent","Incongruent","Incongruent","Congruent","Incongruent","Congruent","Incongruent","Incongruent","Incongruent","Congruent","Congruent","Incongruent","Incongruent","Incongruent","Congruent","Incongruent","Incongruent","Incongruent","Congruent","Congruent","Incongruent","Incongruent","Congruent","Incongruent","Congruent","Incongruent","Congruent","Incongruent","Incongruent","Congruent","Incongruent","Incongruent","Congruent","Incongruent","Congruent","Incongruent","Congruent","Congruent","Incongruent","Congruent","Incongruent","Congruent","Congruent","Incongruent","Incongruent","Congruent","Incongruent","Incongruent","Incongruent","Congruent","Incongruent","Congruent","Congruent","Congruent","Congruent"],"ratio_trial":[200,100,300,300,300,100,300,200,300,300,300,100,300,300,100,300,200,200,200,300,100,200,100,200,200,100,200,100,300,300,100,100,100,300,100,200,300,200,200,100,200,300,300,300,300,300,100,200,100,100,300,200,300,200,100,300,200,200,200,200,200,300,200,200,200,300,200,300,300,100,200,300,300,300,200,200,200,300,200,300,200,100,100,100,200,100,100,100,300,100,200,300,200,200,100,300,300,100,100,300,100,100,100,100,100,200,100,200,100,100,300,100,100,200,200,200,300,100,300,100],"left_num":[3,9,8,3,11,10,11,1,7,13,4,6,20,24,15,20,7,3,9,9,4,7,3,8,1,12,12,10,1,12,13,3,13,7,15,4,2,14,6,9,12,20,8,4,8,13,7,13,13,8,24,1,4,3,11,8,7,8,7,4,20,3,8,3,12,20,4,13,9,3,4,4,13,7,6,7,1,4,14,24,1,2,3,6,6,11,9,7,7,9,7,20,3,7,10,4,8,6,3,8,9,15,6,3,2,9,2,9,3,10,3,6,6,7,8,1,3,9,1,2],"right_num":[11,6,14,4,4,3,1,3,8,12,2,7,9,8,13,14,14,11,13,3,6,12,2,3,2,2,6,8,3,2,12,2,12,8,13,3,6,6,3,6,6,5,9,2,14,12,9,14,6,2,2,2,13,9,6,14,2,3,12,6,9,2,3,11,6,8,6,12,3,7,3,8,12,8,7,18,2,2,12,2,3,6,8,15,7,9,20,9,8,8,6,14,1,12,3,6,14,15,8,1,6,13,15,7,11,8,6,4,7,9,4,7,11,14,7,2,11,8,19,11],"left_den":[4,18,10,6,22,25,22,2,10,26,20,10,25,30,25,25,10,4,30,10,8,10,6,15,3,30,20,25,5,24,26,6,26,10,25,10,4,30,15,18,15,25,10,20,10,26,14,26,26,16,30,3,20,12,22,10,21,15,10,5,25,6,15,10,15,25,5,26,10,9,8,5,26,10,12,15,3,20,30,30,2,4,5,12,12,22,10,14,10,15,15,25,10,10,25,5,10,12,5,16,18,25,12,9,5,15,5,20,9,25,6,10,10,10,15,3,12,15,3,5],"right_den":[20,10,28,20,20,10,5,10,20,15,4,14,18,16,26,28,28,20,26,5,10,24,5,9,15,4,15,16,6,10,20,5,20,20,26,15,30,9,15,10,10,10,18,4,28,15,15,20,10,5,4,15,26,20,15,28,15,9,24,10,15,10,9,22,10,16,10,15,5,30,10,16,15,20,10,27,15,4,18,4,10,15,16,25,10,15,25,15,20,16,9,28,2,24,10,12,28,25,16,5,10,26,25,30,22,10,12,16,30,18,5,14,22,28,21,15,20,16,30,22],"correct_side":[1,2,1,1,1,1,1,1,1,2,2,1,1,1,1,1,1,1,2,1,2,1,1,1,1,2,1,2,2,1,2,1,2,1,1,1,1,2,1,2,1,1,1,2,1,2,2,2,2,1,1,1,2,2,1,1,1,1,1,1,1,1,1,2,1,1,1,2,1,1,1,1,2,1,2,2,1,2,2,1,1,1,1,2,2,2,1,2,1,1,2,1,2,1,1,1,1,2,1,1,2,1,2,1,2,2,2,1,1,2,2,1,1,1,1,1,2,1,2,2],"img_shown":["img2/200/Incongruent/L/I_Dist_200_LN_3_LD_4_RN_11_RD_20_0.png","img2/100/Incongruent/R/I_Dist_100_LN_9_LD_18_RN_6_RD_10_1.png","img2/300/Incongruent/L/I_Dist_300_LN_8_LD_10_RN_14_RD_28_0.png","img2/300/Incongruent/L/I_Dist_300_LN_3_LD_6_RN_4_RD_20_0.png","img2/300/Congruent/L/C_Dist_300_LN_11_LD_22_RN_4_RD_20_0.png","img2/100/Congruent/L/C_Dist_100_LN_10_LD_25_RN_3_RD_10_0.png","img2/300/Congruent/L/C_Dist_300_LN_11_LD_22_RN_1_RD_5_0.png","img2/200/Incongruent/L/I_Dist_200_LN_1_LD_2_RN_3_RD_10_0.png","img2/300/Incongruent/L/I_Dist_300_LN_7_LD_10_RN_8_RD_20_0.png","img2/300/Incongruent/R/I_Dist_300_LN_13_LD_26_RN_12_RD_15_1.png","img2/300/Incongruent/R/I_Dist_300_LN_4_LD_20_RN_2_RD_4_1.png","img2/100/Incongruent/L/I_Dist_100_LN_6_LD_10_RN_7_RD_14_0.png","img2/300/Congruent/L/C_Dist_300_LN_20_LD_25_RN_9_RD_18_0.png","img2/300/Congruent/L/C_Dist_300_LN_24_LD_30_RN_8_RD_16_0.png","img2/100/Congruent/L/C_Dist_100_LN_15_LD_25_RN_13_RD_26_0.png","img2/300/Congruent/L/C_Dist_300_LN_20_LD_25_RN_14_RD_28_0.png","img2/200/Incongruent/L/I_Dist_200_LN_7_LD_10_RN_14_RD_28_0.png","img2/200/Incongruent/L/I_Dist_200_LN_3_LD_4_RN_11_RD_20_0.png","img2/200/Congruent/R/C_Dist_200_LN_9_LD_30_RN_13_RD_26_1.png","img2/300/Congruent/L/C_Dist_300_LN_9_LD_10_RN_3_RD_5_0.png","img2/100/Congruent/R/C_Dist_100_LN_4_LD_8_RN_6_RD_10_1.png","img2/200/Incongruent/L/I_Dist_200_LN_7_LD_10_RN_12_RD_24_0.png","img2/100/Congruent/L/C_Dist_100_LN_3_LD_6_RN_2_RD_5_0.png","img2/200/Congruent/L/C_Dist_200_LN_8_LD_15_RN_3_RD_9_0.png","img2/200/Incongruent/L/I_Dist_200_LN_1_LD_3_RN_2_RD_15_0.png","img2/100/Incongruent/R/I_Dist_100_LN_12_LD_30_RN_2_RD_4_1.png","img2/200/Congruent/L/C_Dist_200_LN_12_LD_20_RN_6_RD_15_0.png","img2/100/Incongruent/R/I_Dist_100_LN_10_LD_25_RN_8_RD_16_1.png","img2/300/Congruent/R/C_Dist_300_LN_1_LD_5_RN_3_RD_6_1.png","img2/300/Congruent/L/C_Dist_300_LN_12_LD_24_RN_2_RD_10_0.png","img2/100/Incongruent/R/I_Dist_100_LN_13_LD_26_RN_12_RD_20_1.png","img2/100/Congruent/L/C_Dist_100_LN_3_LD_6_RN_2_RD_5_0.png","img2/100/Incongruent/R/I_Dist_100_LN_13_LD_26_RN_12_RD_20_1.png","img2/300/Incongruent/L/I_Dist_300_LN_7_LD_10_RN_8_RD_20_0.png","img2/100/Congruent/L/C_Dist_100_LN_15_LD_25_RN_13_RD_26_0.png","img2/200/Congruent/L/C_Dist_200_LN_4_LD_10_RN_3_RD_15_0.png","img2/300/Incongruent/L/I_Dist_300_LN_2_LD_4_RN_6_RD_30_0.png","img2/200/Incongruent/R/I_Dist_200_LN_14_LD_30_RN_6_RD_9_1.png","img2/200/Congruent/L/C_Dist_200_LN_6_LD_15_RN_3_RD_15_0.png","img2/100/Incongruent/R/I_Dist_100_LN_9_LD_18_RN_6_RD_10_1.png","img2/200/Congruent/L/C_Dist_200_LN_12_LD_15_RN_6_RD_10_0.png","img2/300/Congruent/L/C_Dist_300_LN_20_LD_25_RN_5_RD_10_0.png","img2/300/Incongruent/L/I_Dist_300_LN_8_LD_10_RN_9_RD_18_0.png","img2/300/Incongruent/R/I_Dist_300_LN_4_LD_20_RN_2_RD_4_1.png","img2/300/Incongruent/L/I_Dist_300_LN_8_LD_10_RN_14_RD_28_0.png","img2/300/Incongruent/R/I_Dist_300_LN_13_LD_26_RN_12_RD_15_1.png","img2/100/Congruent/R/C_Dist_100_LN_7_LD_14_RN_9_RD_15_1.png","img2/200/Congruent/R/C_Dist_200_LN_13_LD_26_RN_14_RD_20_1.png","img2/100/Incongruent/R/I_Dist_100_LN_13_LD_26_RN_6_RD_10_1.png","img2/100/Congruent/L/C_Dist_100_LN_8_LD_16_RN_2_RD_5_0.png","img2/300/Congruent/L/C_Dist_300_LN_24_LD_30_RN_2_RD_4_0.png","img2/200/Incongruent/L/I_Dist_200_LN_1_LD_3_RN_2_RD_15_0.png","img2/300/Congruent/R/C_Dist_300_LN_4_LD_20_RN_13_RD_26_1.png","img2/200/Congruent/R/C_Dist_200_LN_3_LD_12_RN_9_RD_20_1.png","img2/100/Congruent/L/C_Dist_100_LN_11_LD_22_RN_6_RD_15_0.png","img2/300/Incongruent/L/I_Dist_300_LN_8_LD_10_RN_14_RD_28_0.png","img2/200/Congruent/L/C_Dist_200_LN_7_LD_21_RN_2_RD_15_0.png","img2/200/Congruent/L/C_Dist_200_LN_8_LD_15_RN_3_RD_9_0.png","img2/200/Incongruent/L/I_Dist_200_LN_7_LD_10_RN_12_RD_24_0.png","img2/200/Incongruent/L/I_Dist_200_LN_4_LD_5_RN_6_RD_10_0.png","img2/200/Congruent/L/C_Dist_200_LN_20_LD_25_RN_9_RD_15_0.png","img2/300/Congruent/L/C_Dist_300_LN_3_LD_6_RN_2_RD_10_0.png","img2/200/Congruent/L/C_Dist_200_LN_8_LD_15_RN_3_RD_9_0.png","img2/200/Congruent/R/C_Dist_200_LN_3_LD_10_RN_11_RD_22_1.png","img2/200/Congruent/L/C_Dist_200_LN_12_LD_15_RN_6_RD_10_0.png","img2/300/Congruent/L/C_Dist_300_LN_20_LD_25_RN_8_RD_16_0.png","img2/200/Incongruent/L/I_Dist_200_LN_4_LD_5_RN_6_RD_10_0.png","img2/300/Incongruent/R/I_Dist_300_LN_13_LD_26_RN_12_RD_15_1.png","img2/300/Congruent/L/C_Dist_300_LN_9_LD_10_RN_3_RD_5_0.png","img2/100/Incongruent/L/I_Dist_100_LN_3_LD_9_RN_7_RD_30_0.png","img2/200/Congruent/L/C_Dist_200_LN_4_LD_8_RN_3_RD_10_0.png","img2/300/Incongruent/L/I_Dist_300_LN_4_LD_5_RN_8_RD_16_0.png","img2/300/Incongruent/R/I_Dist_300_LN_13_LD_26_RN_12_RD_15_1.png","img2/300/Incongruent/L/I_Dist_300_LN_7_LD_10_RN_8_RD_20_0.png","img2/200/Congruent/R/C_Dist_200_LN_6_LD_12_RN_7_RD_10_1.png","img2/200/Congruent/R/C_Dist_200_LN_7_LD_15_RN_18_RD_27_1.png","img2/200/Incongruent/L/I_Dist_200_LN_1_LD_3_RN_2_RD_15_0.png","img2/300/Incongruent/R/I_Dist_300_LN_4_LD_20_RN_2_RD_4_1.png","img2/200/Incongruent/R/I_Dist_200_LN_14_LD_30_RN_12_RD_18_1.png","img2/300/Congruent/L/C_Dist_300_LN_24_LD_30_RN_2_RD_4_0.png","img2/200/Incongruent/L/I_Dist_200_LN_1_LD_2_RN_3_RD_10_0.png","img2/100/Incongruent/L/I_Dist_100_LN_2_LD_4_RN_6_RD_15_0.png","img2/100/Incongruent/L/I_Dist_100_LN_3_LD_5_RN_8_RD_16_0.png","img2/100/Congruent/R/C_Dist_100_LN_6_LD_12_RN_15_RD_25_1.png","img2/200/Congruent/R/C_Dist_200_LN_6_LD_12_RN_7_RD_10_1.png","img2/100/Incongruent/R/I_Dist_100_LN_11_LD_22_RN_9_RD_15_1.png","img2/100/Incongruent/L/I_Dist_100_LN_9_LD_10_RN_20_RD_25_0.png","img2/100/Congruent/R/C_Dist_100_LN_7_LD_14_RN_9_RD_15_1.png","img2/300/Incongruent/L/I_Dist_300_LN_7_LD_10_RN_8_RD_20_0.png","img2/100/Congruent/L/C_Dist_100_LN_9_LD_15_RN_8_RD_16_0.png","img2/200/Incongruent/R/I_Dist_200_LN_7_LD_15_RN_6_RD_9_1.png","img2/300/Congruent/L/C_Dist_300_LN_20_LD_25_RN_14_RD_28_0.png","img2/200/Incongruent/R/I_Dist_200_LN_3_LD_10_RN_1_RD_2_1.png","img2/200/Incongruent/L/I_Dist_200_LN_7_LD_10_RN_12_RD_24_0.png","img2/100/Congruent/L/C_Dist_100_LN_10_LD_25_RN_3_RD_10_0.png","img2/300/Incongruent/L/I_Dist_300_LN_4_LD_5_RN_6_RD_12_0.png","img2/300/Incongruent/L/I_Dist_300_LN_8_LD_10_RN_14_RD_28_0.png","img2/100/Congruent/R/C_Dist_100_LN_6_LD_12_RN_15_RD_25_1.png","img2/100/Incongruent/L/I_Dist_100_LN_3_LD_5_RN_8_RD_16_0.png","img2/300/Congruent/L/C_Dist_300_LN_8_LD_16_RN_1_RD_5_0.png","img2/100/Incongruent/R/I_Dist_100_LN_9_LD_18_RN_6_RD_10_1.png","img2/100/Congruent/L/C_Dist_100_LN_15_LD_25_RN_13_RD_26_0.png","img2/100/Congruent/R/C_Dist_100_LN_6_LD_12_RN_15_RD_25_1.png","img2/100/Incongruent/L/I_Dist_100_LN_3_LD_9_RN_7_RD_30_0.png","img2/100/Congruent/R/C_Dist_100_LN_2_LD_5_RN_11_RD_22_1.png","img2/200/Incongruent/R/I_Dist_200_LN_9_LD_15_RN_8_RD_10_1.png","img2/100/Congruent/R/C_Dist_100_LN_2_LD_5_RN_6_RD_12_1.png","img2/200/Congruent/L/C_Dist_200_LN_9_LD_20_RN_4_RD_16_0.png","img2/100/Incongruent/L/I_Dist_100_LN_3_LD_9_RN_7_RD_30_0.png","img2/100/Incongruent/R/I_Dist_100_LN_10_LD_25_RN_9_RD_18_1.png","img2/300/Congruent/R/C_Dist_300_LN_3_LD_6_RN_4_RD_5_1.png","img2/100/Incongruent/L/I_Dist_100_LN_6_LD_10_RN_7_RD_14_0.png","img2/100/Incongruent/L/I_Dist_100_LN_6_LD_10_RN_11_RD_22_0.png","img2/200/Incongruent/L/I_Dist_200_LN_7_LD_10_RN_14_RD_28_0.png","img2/200/Congruent/L/C_Dist_200_LN_8_LD_15_RN_7_RD_21_0.png","img2/200/Incongruent/L/I_Dist_200_LN_1_LD_3_RN_2_RD_15_0.png","img2/300/Congruent/R/C_Dist_300_LN_3_LD_12_RN_11_RD_20_1.png","img2/100/Congruent/L/C_Dist_100_LN_9_LD_15_RN_8_RD_16_0.png","img2/300/Congruent/R/C_Dist_300_LN_1_LD_3_RN_19_RD_30_1.png","img2/100/Congruent/R/C_Dist_100_LN_2_LD_5_RN_11_RD_22_1.png"],"dist100_C":[["C_Dist_100_LN_10_LD_25_RN_3_RD_10_0.png","C_Dist_100_LN_11_LD_22_RN_4_RD_10_0.png","C_Dist_100_LN_11_LD_22_RN_6_RD_15_0.png","C_Dist_100_LN_15_LD_25_RN_13_RD_26_0.png","C_Dist_100_LN_3_LD_6_RN_2_RD_5_0.png","C_Dist_100_LN_6_LD_20_RN_5_RD_25_0.png","C_Dist_100_LN_8_LD_16_RN_2_RD_5_0.png","C_Dist_100_LN_9_LD_15_RN_8_RD_16_0.png"],["C_Dist_100_LN_1_LD_2_RN_18_RD_30_1.png","C_Dist_100_LN_1_LD_2_RN_3_RD_5_1.png","C_Dist_100_LN_12_LD_30_RN_13_RD_26_1.png","C_Dist_100_LN_2_LD_5_RN_11_RD_22_1.png","C_Dist_100_LN_2_LD_5_RN_6_RD_12_1.png","C_Dist_100_LN_3_LD_20_RN_4_RD_16_1.png","C_Dist_100_LN_4_LD_10_RN_15_RD_30_1.png","C_Dist_100_LN_4_LD_8_RN_6_RD_10_1.png","C_Dist_100_LN_6_LD_12_RN_15_RD_25_1.png","C_Dist_100_LN_7_LD_14_RN_15_RD_25_1.png","C_Dist_100_LN_7_LD_14_RN_9_RD_15_1.png"]],"dist100_I":[["I_Dist_100_LN_1_LD_2_RN_8_RD_20_0.png","I_Dist_100_LN_2_LD_4_RN_6_RD_15_0.png","I_Dist_100_LN_2_LD_4_RN_8_RD_20_0.png","I_Dist_100_LN_3_LD_5_RN_11_RD_22_0.png","I_Dist_100_LN_3_LD_5_RN_8_RD_16_0.png","I_Dist_100_LN_3_LD_6_RN_4_RD_10_0.png","I_Dist_100_LN_3_LD_9_RN_7_RD_30_0.png","I_Dist_100_LN_4_LD_8_RN_8_RD_20_0.png","I_Dist_100_LN_6_LD_10_RN_11_RD_22_0.png","I_Dist_100_LN_6_LD_10_RN_13_RD_26_0.png","I_Dist_100_LN_6_LD_10_RN_7_RD_14_0.png","I_Dist_100_LN_9_LD_10_RN_20_RD_25_0.png","I_Dist_100_LN_9_LD_15_RN_13_RD_26_0.png","I_Dist_100_LN_9_LD_15_RN_14_RD_28_0.png"],["I_Dist_100_LN_10_LD_25_RN_8_RD_16_1.png","I_Dist_100_LN_10_LD_25_RN_9_RD_18_1.png","I_Dist_100_LN_11_LD_22_RN_9_RD_15_1.png","I_Dist_100_LN_12_LD_24_RN_9_RD_15_1.png","I_Dist_100_LN_12_LD_30_RN_2_RD_4_1.png","I_Dist_100_LN_13_LD_26_RN_12_RD_20_1.png","I_Dist_100_LN_13_LD_26_RN_6_RD_10_1.png","I_Dist_100_LN_17_LD_30_RN_10_RD_15_1.png","I_Dist_100_LN_6_LD_12_RN_3_RD_5_1.png","I_Dist_100_LN_8_LD_16_RN_6_RD_10_1.png","I_Dist_100_LN_8_LD_20_RN_1_RD_2_1.png","I_Dist_100_LN_9_LD_18_RN_6_RD_10_1.png"]],"dist100_S":[["E_Dist_100_LN_2_LD_12_RN_2_RD_30_0.png","E_Dist_100_LN_6_LD_10_RN_6_RD_12_0.png"],["E_Dist_100_LN_6_LD_12_RN_6_RD_10_1.png"]],"dist200_C":[["C_Dist_200_LN_11_LD_22_RN_3_RD_10_0.png","C_Dist_200_LN_12_LD_15_RN_6_RD_10_0.png","C_Dist_200_LN_12_LD_20_RN_6_RD_15_0.png","C_Dist_200_LN_14_LD_28_RN_6_RD_20_0.png","C_Dist_200_LN_15_LD_25_RN_4_RD_10_0.png","C_Dist_200_LN_16_LD_20_RN_12_RD_20_0.png","C_Dist_200_LN_16_LD_30_RN_9_RD_27_0.png","C_Dist_200_LN_20_LD_25_RN_9_RD_15_0.png","C_Dist_200_LN_21_LD_30_RN_2_RD_4_0.png","C_Dist_200_LN_4_LD_10_RN_3_RD_15_0.png","C_Dist_200_LN_4_LD_8_RN_3_RD_10_0.png","C_Dist_200_LN_6_LD_15_RN_3_RD_15_0.png","C_Dist_200_LN_7_LD_21_RN_2_RD_15_0.png","C_Dist_200_LN_8_LD_15_RN_2_RD_6_0.png","C_Dist_200_LN_8_LD_15_RN_3_RD_9_0.png","C_Dist_200_LN_8_LD_15_RN_7_RD_21_0.png","C_Dist_200_LN_9_LD_20_RN_4_RD_16_0.png"],["C_Dist_200_LN_1_LD_2_RN_21_RD_30_1.png","C_Dist_200_LN_13_LD_26_RN_14_RD_20_1.png","C_Dist_200_LN_3_LD_10_RN_11_RD_22_1.png","C_Dist_200_LN_3_LD_10_RN_14_RD_28_1.png","C_Dist_200_LN_3_LD_10_RN_7_RD_14_1.png","C_Dist_200_LN_3_LD_12_RN_9_RD_20_1.png","C_Dist_200_LN_3_LD_6_RN_14_RD_20_1.png","C_Dist_200_LN_5_LD_10_RN_14_RD_20_1.png","C_Dist_200_LN_6_LD_12_RN_7_RD_10_1.png","C_Dist_200_LN_6_LD_20_RN_11_RD_22_1.png","C_Dist_200_LN_7_LD_15_RN_18_RD_27_1.png","C_Dist_200_LN_9_LD_30_RN_13_RD_26_1.png"]],"dist200_I":[["I_Dist_200_LN_1_LD_2_RN_3_RD_10_0.png","I_Dist_200_LN_1_LD_3_RN_2_RD_15_0.png","I_Dist_200_LN_3_LD_4_RN_11_RD_20_0.png","I_Dist_200_LN_4_LD_5_RN_6_RD_10_0.png","I_Dist_200_LN_4_LD_6_RN_14_RD_30_0.png","I_Dist_200_LN_7_LD_10_RN_12_RD_24_0.png","I_Dist_200_LN_7_LD_10_RN_14_RD_28_0.png","I_Dist_200_LN_7_LD_10_RN_8_RD_16_0.png"],["I_Dist_200_LN_11_LD_20_RN_3_RD_4_1.png","I_Dist_200_LN_14_LD_30_RN_12_RD_18_1.png","I_Dist_200_LN_14_LD_30_RN_6_RD_9_1.png","I_Dist_200_LN_3_LD_10_RN_1_RD_2_1.png","I_Dist_200_LN_4_LD_30_RN_1_RD_3_1.png","I_Dist_200_LN_6_LD_20_RN_3_RD_6_1.png","I_Dist_200_LN_7_LD_15_RN_4_RD_6_1.png","I_Dist_200_LN_7_LD_15_RN_6_RD_9_1.png","I_Dist_200_LN_9_LD_15_RN_8_RD_10_1.png"]],"dist200_S":[["E_Dist_200_LN_3_LD_6_RN_3_RD_10_0.png"],["E_Dist_200_LN_3_LD_10_RN_3_RD_6_1.png"]],"dist300_C":[["C_Dist_300_LN_11_LD_22_RN_1_RD_5_0.png","C_Dist_300_LN_11_LD_22_RN_2_RD_10_0.png","C_Dist_300_LN_11_LD_22_RN_4_RD_20_0.png","C_Dist_300_LN_12_LD_24_RN_2_RD_10_0.png","C_Dist_300_LN_18_LD_20_RN_9_RD_15_0.png","C_Dist_300_LN_20_LD_25_RN_13_RD_26_0.png","C_Dist_300_LN_20_LD_25_RN_14_RD_28_0.png","C_Dist_300_LN_20_LD_25_RN_5_RD_10_0.png","C_Dist_300_LN_20_LD_25_RN_8_RD_16_0.png","C_Dist_300_LN_20_LD_25_RN_9_RD_18_0.png","C_Dist_300_LN_24_LD_30_RN_2_RD_4_0.png","C_Dist_300_LN_24_LD_30_RN_8_RD_16_0.png","C_Dist_300_LN_3_LD_6_RN_2_RD_10_0.png","C_Dist_300_LN_4_LD_10_RN_1_RD_10_0.png","C_Dist_300_LN_4_LD_5_RN_2_RD_4_0.png","C_Dist_300_LN_8_LD_16_RN_1_RD_5_0.png","C_Dist_300_LN_9_LD_10_RN_3_RD_5_0.png"],["C_Dist_300_LN_1_LD_20_RN_7_RD_20_1.png","C_Dist_300_LN_1_LD_3_RN_19_RD_30_1.png","C_Dist_300_LN_1_LD_30_RN_8_RD_24_1.png","C_Dist_300_LN_1_LD_5_RN_11_RD_22_1.png","C_Dist_300_LN_1_LD_5_RN_3_RD_6_1.png","C_Dist_300_LN_1_LD_5_RN_6_RD_12_1.png","C_Dist_300_LN_2_LD_10_RN_12_RD_24_1.png","C_Dist_300_LN_2_LD_20_RN_10_RD_25_1.png","C_Dist_300_LN_3_LD_12_RN_11_RD_20_1.png","C_Dist_300_LN_3_LD_6_RN_4_RD_5_1.png","C_Dist_300_LN_4_LD_20_RN_13_RD_26_1.png","C_Dist_300_LN_5_LD_25_RN_6_RD_12_1.png","C_Dist_300_LN_5_LD_25_RN_7_RD_14_1.png","C_Dist_300_LN_7_LD_14_RN_20_RD_25_1.png","C_Dist_300_LN_8_LD_15_RN_10_RD_12_1.png"]],"dist300_I":[["I_Dist_300_LN_1_LD_2_RN_2_RD_10_0.png","I_Dist_300_LN_1_LD_2_RN_3_RD_15_0.png","I_Dist_300_LN_2_LD_4_RN_6_RD_30_0.png","I_Dist_300_LN_3_LD_6_RN_4_RD_20_0.png","I_Dist_300_LN_4_LD_5_RN_6_RD_12_0.png","I_Dist_300_LN_4_LD_5_RN_8_RD_16_0.png","I_Dist_300_LN_7_LD_10_RN_8_RD_20_0.png","I_Dist_300_LN_8_LD_10_RN_14_RD_28_0.png","I_Dist_300_LN_8_LD_10_RN_9_RD_18_0.png"],["I_Dist_300_LN_13_LD_26_RN_12_RD_15_1.png","I_Dist_300_LN_4_LD_20_RN_2_RD_4_1.png"]],"dist300_S":[["E_Dist_300_LN_9_LD_12_RN_9_RD_20_0.png"],["E_Dist_300_LN_18_LD_30_RN_18_RD_20_1.png","E_Dist_300_LN_3_LD_10_RN_3_RD_5_1.png","E_Dist_300_LN_9_LD_20_RN_9_RD_12_1.png"]],"dist500_C":[["C_Dist_500_LN_10_LD_13_RN_7_RD_26_0.png","C_Dist_500_LN_10_LD_15_RN_4_RD_24_0.png","C_Dist_500_LN_12_LD_16_RN_3_RD_12_0.png","C_Dist_500_LN_12_LD_18_RN_4_RD_24_0.png","C_Dist_500_LN_15_LD_18_RN_5_RD_15_0.png","C_Dist_500_LN_15_LD_20_RN_1_RD_4_0.png","C_Dist_500_LN_18_LD_27_RN_1_RD_6_0.png","C_Dist_500_LN_20_LD_24_RN_1_RD_3_0.png","C_Dist_500_LN_20_LD_24_RN_3_RD_9_0.png","C_Dist_500_LN_20_LD_24_RN_7_RD_21_0.png","C_Dist_500_LN_20_LD_28_RN_3_RD_14_0.png","C_Dist_500_LN_21_LD_28_RN_6_RD_24_0.png","C_Dist_500_LN_22_LD_28_RN_2_RD_7_0.png","C_Dist_500_LN_25_LD_30_RN_9_RD_27_0.png","C_Dist_500_LN_4_LD_6_RN_1_RD_6_0.png","C_Dist_500_LN_5_LD_6_RN_2_RD_6_0.png","C_Dist_500_LN_6_LD_9_RN_1_RD_6_0.png","C_Dist_500_LN_7_LD_10_RN_1_RD_5_0.png","C_Dist_500_LN_8_LD_12_RN_1_RD_6_0.png","C_Dist_500_LN_8_LD_12_RN_4_RD_24_0.png"],["C_Dist_500_LN_1_LD_4_RN_12_RD_16_1.png","C_Dist_500_LN_1_LD_4_RN_9_RD_12_1.png","C_Dist_500_LN_1_LD_9_RN_11_RD_18_1.png","C_Dist_500_LN_10_LD_24_RN_22_RD_24_1.png","C_Dist_500_LN_2_LD_12_RN_10_RD_15_1.png","C_Dist_500_LN_2_LD_12_RN_12_RD_18_1.png","C_Dist_500_LN_2_LD_12_RN_4_RD_6_1.png","C_Dist_500_LN_2_LD_24_RN_7_RD_12_1.png","C_Dist_500_LN_2_LD_5_RN_18_RD_20_1.png","C_Dist_500_LN_2_LD_5_RN_9_RD_10_1.png","C_Dist_500_LN_2_LD_8_RN_12_RD_16_1.png","C_Dist_500_LN_2_LD_8_RN_21_RD_28_1.png","C_Dist_500_LN_3_LD_10_RN_4_RD_5_1.png","C_Dist_500_LN_3_LD_12_RN_15_RD_20_1.png","C_Dist_500_LN_3_LD_30_RN_6_RD_10_1.png","C_Dist_500_LN_3_LD_8_RN_14_RD_16_1.png","C_Dist_500_LN_4_LD_16_RN_15_RD_20_1.png","C_Dist_500_LN_4_LD_24_RN_12_RD_18_1.png","C_Dist_500_LN_5_LD_14_RN_6_RD_7_1.png","C_Dist_500_LN_7_LD_21_RN_20_RD_24_1.png","C_Dist_500_LN_7_LD_28_RN_12_RD_16_1.png","C_Dist_500_LN_7_LD_28_RN_9_RD_12_1.png","C_Dist_500_LN_9_LD_27_RN_20_RD_24_1.png"]],"dist500_I":[["I_Dist_500_LN_2_LD_3_RN_4_RD_24_0.png","I_Dist_500_LN_5_LD_6_RN_6_RD_18_0.png","I_Dist_500_LN_7_LD_8_RN_9_RD_24_0.png"],["I_Dist_500_LN_7_LD_21_RN_5_RD_6_1.png"]],"dist500_S":[["E_Dist_500_LN_6_LD_8_RN_6_RD_24_0.png"],["E_Dist_500_LN_2_LD_12_RN_2_RD_3_1.png","E_Dist_500_LN_6_LD_24_RN_6_RD_8_1.png"]]}},{"start_time":1552054042619,"click_time":1552054045727,"finger_time":1552054044287,"fix_duration":250,"trial":1,"RT":1668,"MT":1440,"sideResp":2,"stimulus":[],"xmouse":[810,811,811,811,811,811,811,811,811,811,811,811,811,811,811,811,811,811,811,811,811,811,811,811,811,811,811,811,811,811,811,811,811,811,811,811,811,811,811,811,811,811,811,811,811,811,811,808,805,801,801,801,801,801,801,801,801,801,801,801,801,801,801,801,801,801,801,801,801,801,801,801,801,801,801,801,801,800,800,797,794,789,783,774,758,749,741,734,725,704,699,696,693,692,689,688,688,688,688,688,688,688,688,688,688,688,688,688,688,688,688,688,688,688,688,688,688,688,688,688,688,688,689,695,715,760,788,826,852,884,958,984,1002,1016,1039,1048,1058,1069,1072,1077,1079,1079,1076,1072,1067,1060,1059,1059,1062,1070,1075,1077,1081,1081,1082],"ymouse":[648,647,647,647,647,647,647,647,647,647,647,647,647,647,647,647,647,647,647,647,647,647,647,647,647,647,647,647,647,647,647,647,647,647,647,647,647,647,647,647,647,647,647,645,645,643,642,641,639,637,637,637,637,637,637,637,637,637,637,637,637,637,637,637,637,637,637,637,637,637,637,637,637,637,637,637,637,635,632,608,593,580,565,546,519,507,498,493,487,473,468,464,461,458,454,452,452,452,452,452,452,452,452,452,452,452,452,452,452,452,452,452,452,452,452,452,452,452,452,452,452,452,452,451,450,450,450,447,439,431,405,391,380,370,347,335,320,296,288,270,250,240,231,221,213,199,191,182,164,135,123,110,102,100,99],"timestamp_mouse":[17,54,68,88,109,128,149,169,187,208,228,248,268,289,309,328,348,369,388,409,428,448,468,488,508,529,548,569,589,608,629,648,669,688,709,729,748,768,789,808,828,847,869,888,909,928,948,968,989,1009,1029,1048,1068,1088,1108,1129,1149,1169,1188,1209,1229,1248,1269,1289,1308,1329,1349,1368,1389,1408,1428,1449,1469,1489,1508,1529,1549,1569,1589,1608,1629,1648,1668,1689,1708,1728,1748,1768,1788,1808,1827,1848,1868,1888,1908,1928,1949,1968,1988,2008,2029,2049,2069,2088,2109,2128,2149,2168,2187,2209,2229,2249,2268,2289,2308,2328,2348,2368,2389,2408,2429,2448,2468,2488,2507,2527,2547,2568,2588,2608,2628,2648,2668,2688,2709,2728,2748,2768,2788,2808,2828,2848,2868,2888,2908,2928,2948,2969,2988,3009,3027,3048,3068,3089,3108],"xSR":741.5,"ySR":573.95,"xT1":424.9,"yT1":0,"xT2":1058.1,"yT2":0,"toosoon":0,"cond_shown":"Incongruent","ratio_trial":100,"L_num":9,"L_den":18,"R_num":6,"R_den":10,"correct_side":2,"subjID":"Samuel Avellaneda 29","gender":"0","school":"4","age":" 9 años"},{"start_time":1552054052251,"click_time":1552054054008,"finger_time":1552054053667,"fix_duration":803.1684652435777,"trial":2,"RT":1416,"MT":341,"sideResp":1,"stimulus":[],"xmouse":[775,775,775,775,775,775,775,775,775,775,775,775,775,775,775,775,775,775,775,775,775,775,775,775,775,775,775,775,775,775,775,775,775,775,775,775,775,775,775,775,775,775,775,775,775,775,775,775,775,775,775,775,775,775,775,775,775,775,775,775,775,775,775,775,775,775,775,775,775,775,762,742,726,721,721,717,710,701,694,685,676,666,653,626,580,551,522,500],"ymouse":[624,624,624,624,624,624,624,624,624,624,624,624,624,624,624,624,624,624,624,624,624,624,624,624,624,624,624,624,624,624,624,624,624,624,624,624,624,624,624,624,624,624,624,624,624,624,624,624,624,624,624,624,624,624,624,624,624,624,624,624,624,624,624,624,624,624,624,622,619,606,555,512,455,371,333,266,243,227,219,209,202,193,185,169,144,127,107,91],"timestamp_mouse":[16,43,57,77,96,117,137,156,176,197,216,236,257,276,296,317,335,356,377,397,416,437,457,477,496,516,536,556,577,597,616,636,657,677,696,717,737,757,777,797,817,837,857,876,897,915,937,957,977,996,1016,1036,1056,1077,1096,1117,1137,1157,1177,1196,1217,1237,1256,1277,1296,1317,1337,1356,1375,1397,1416,1436,1457,1476,1496,1517,1536,1556,1576,1597,1616,1636,1656,1676,1697,1715,1736,1757],"xSR":741.5,"ySR":573.95,"xT1":424.9,"yT1":0,"xT2":1058.1,"yT2":0,"toosoon":0,"cond_shown":"Incongruent","ratio_trial":300,"L_num":8,"L_den":10,"R_num":14,"R_den":28,"correct_side":1,"subjID":"Samuel Avellaneda 29","gender":"0","school":"4","age":" 9 años"},{"start_time":1552054060300,"click_time":1552054063708,"finger_time":1552054062067,"fix_duration":250,"trial":3,"RT":1767,"MT":1641,"sideResp":2,"stimulus":[],"xmouse":[775,775,775,775,775,775,775,775,775,775,775,775,775,775,775,775,775,775,775,775,775,775,775,775,775,775,775,775,775,775,775,775,775,775,775,775,775,775,775,775,775,775,775,775,775,775,775,775,775,776,776,776,776,776,776,775,773,773,773,773,773,773,773,773,773,773,773,773,773,773,773,773,773,773,773,773,773,773,773,773,773,773,773,773,773,773,779,785,824,833,840,845,850,863,868,872,875,877,882,883,884,886,891,909,918,924,931,932,934,937,938,940,940,940,940,940,940,940,940,940,940,940,940,940,940,940,940,940,940,940,940,940,940,940,940,940,940,940,943,946,951,955,956,957,960,961,964,971,976,987,991,995,997,1006,1011,1015,1018,1021,1025,1030,1036,1045,1052,1056,1059,1061,1063,1069,1079,1086,1092],"ymouse":[615,615,615,615,615,615,615,615,615,615,615,615,615,615,615,615,615,615,615,615,615,615,615,615,615,615,615,615,615,615,615,615,615,615,615,615,615,615,615,615,615,615,615,615,615,615,615,615,615,614,610,606,603,595,592,590,588,587,587,587,587,587,587,587,587,587,587,587,587,587,587,587,587,587,587,587,587,587,587,587,587,587,587,587,587,587,581,574,542,532,524,517,509,490,481,474,468,461,448,444,440,433,420,381,361,342,325,322,318,313,311,308,307,307,307,307,307,307,307,307,307,307,307,307,307,307,307,307,307,307,307,307,307,307,307,307,307,307,304,300,293,288,287,284,279,275,271,261,251,232,226,219,216,201,195,190,187,183,179,173,165,156,148,144,140,137,134,127,113,103,95],"timestamp_mouse":[13,39,46,67,88,107,128,146,167,187,207,227,248,267,287,307,327,348,368,387,408,427,448,468,487,508,528,547,568,586,608,627,647,668,686,708,728,746,768,787,806,828,848,867,887,908,927,948,968,987,1007,1028,1047,1067,1087,1108,1127,1148,1167,1188,1208,1228,1248,1267,1288,1308,1327,1347,1368,1388,1407,1428,1447,1468,1488,1507,1528,1547,1568,1588,1607,1628,1648,1668,1687,1707,1727,1748,1767,1787,1807,1827,1846,1868,1887,1907,1927,1948,1967,1987,2007,2028,2048,2068,2087,2107,2127,2147,2167,2187,2207,2227,2248,2267,2287,2307,2328,2347,2368,2387,2408,2427,2447,2468,2487,2507,2528,2547,2567,2588,2608,2627,2647,2667,2687,2707,2728,2748,2767,2787,2807,2827,2847,2868,2887,2907,2927,2948,2967,2987,3007,3027,3048,3068,3087,3108,3127,3147,3168,3187,3207,3227,3247,3267,3287,3308,3327,3347,3368,3387,3407],"xSR":741.5,"ySR":573.95,"xT1":424.9,"yT1":0,"xT2":1058.1,"yT2":0,"toosoon":0,"cond_shown":"Incongruent","ratio_trial":300,"L_num":3,"L_den":6,"R_num":4,"R_den":20,"correct_side":1,"subjID":"Samuel Avellaneda 29","gender":"0","school":"4","age":" 9 años"},{"start_time":1552054071874,"click_time":1552054074529,"finger_time":1552054072347,"fix_duration":1166.6922639489976,"trial":4,"RT":473,"MT":2182,"sideResp":1,"stimulus":[],"xmouse":[780,780,780,780,780,780,780,780,780,780,780,780,780,780,780,780,780,780,780,780,780,783,786,791,792,793,793,793,793,793,793,793,793,793,793,793,793,793,793,793,793,793,793,793,793,793,793,793,793,792,789,789,789,788,788,788,787,787,787,787,787,787,787,787,787,787,787,787,787,787,787,787,787,787,787,787,787,787,787,787,787,787,787,787,787,787,787,787,787,787,787,787,787,787,787,787,787,787,786,786,785,781,778,773,769,765,756,751,744,738,730,716,712,711,711,711,710,709,704,699,692,675,670,664,659,647,615,594,576,560,547,529,517],"ymouse":[606,606,606,606,606,606,606,606,606,606,606,606,606,606,606,606,606,606,606,606,606,600,591,569,565,561,561,561,561,561,561,561,561,561,561,561,561,561,561,561,561,561,561,561,561,561,561,561,561,565,575,578,580,583,585,588,594,595,595,595,595,595,595,595,595,595,595,595,595,595,595,595,595,595,595,595,595,595,595,595,595,595,595,595,595,595,595,595,595,595,595,595,595,595,595,595,595,595,596,594,592,586,581,577,574,572,559,542,520,495,469,420,397,369,352,333,284,256,226,197,177,158,156,153,151,145,131,122,112,103,92,63,42],"timestamp_mouse":[15,44,53,74,94,114,134,154,174,193,213,233,253,274,294,313,334,353,373,394,413,433,453,473,493,514,533,553,573,593,614,633,653,673,694,714,733,753,774,794,814,834,853,874,893,913,933,953,974,993,1015,1033,1053,1073,1094,1113,1134,1154,1174,1193,1214,1234,1253,1273,1294,1312,1332,1354,1374,1394,1414,1434,1454,1473,1494,1513,1533,1553,1573,1594,1613,1633,1653,1674,1693,1714,1734,1754,1774,1793,1813,1834,1854,1873,1893,1914,1934,1954,1974,1993,2014,2033,2053,2073,2094,2114,2133,2154,2173,2193,2213,2233,2254,2272,2294,2314,2333,2353,2373,2394,2413,2433,2454,2472,2494,2513,2535,2553,2574,2593,2614,2633,2654],"xSR":741.5,"ySR":573.95,"xT1":424.9,"yT1":0,"xT2":1058.1,"yT2":0,"toosoon":0,"cond_shown":"Congruent","ratio_trial":300,"L_num":11,"L_den":22,"R_num":4,"R_den":20,"correct_side":1,"subjID":"Samuel Avellaneda 29","gender":"0","school":"4","age":" 9 años"},{"start_time":1552054079720,"click_time":1552054081687,"finger_time":1552054081128,"fix_duration":512.402694099907,"trial":5,"RT":1408,"MT":559,"sideResp":2,"stimulus":[],"xmouse":[765,764,764,764,764,764,764,764,764,764,764,764,762,761,758,754,752,751,750,750,750,750,750,750,750,750,750,750,750,750,750,750,750,750,750,750,750,750,750,750,750,750,750,750,750,750,750,750,750,750,750,750,750,750,750,750,750,750,750,750,750,750,750,750,750,754,759,781,799,818,854,870,884,893,899,909,916,923,937,946,965,979,992,1006,1032,1040,1048,1054,1056,1056,1056,1056,1056,1060,1067,1070,1073,1079,1083],"ymouse":[629,629,629,628,628,628,628,628,628,628,628,628,627,627,625,625,624,623,622,622,622,622,622,622,622,622,622,622,622,622,622,622,622,622,622,622,622,622,622,622,622,622,622,622,622,622,622,622,622,622,622,622,622,622,622,622,622,622,622,622,622,622,622,622,622,621,619,607,596,584,555,541,525,515,506,490,478,466,444,426,380,351,319,284,223,203,188,173,169,169,168,168,166,158,141,132,121,100,83],"timestamp_mouse":[19,39,47,66,88,108,127,147,168,187,208,227,247,268,287,308,326,347,368,388,408,427,448,468,488,507,527,546,567,588,608,627,648,667,688,708,727,748,767,788,808,827,848,867,888,908,927,948,968,988,1007,1028,1047,1068,1086,1108,1127,1148,1168,1188,1207,1227,1248,1267,1287,1307,1327,1348,1368,1387,1408,1427,1447,1467,1487,1507,1528,1547,1567,1586,1607,1627,1647,1667,1688,1706,1727,1747,1767,1787,1807,1827,1847,1867,1888,1907,1927,1947,1967],"xSR":741.5,"ySR":573.95,"xT1":424.9,"yT1":0,"xT2":1058.1,"yT2":0,"toosoon":0,"cond_shown":"Congruent","ratio_trial":100,"L_num":10,"L_den":25,"R_num":3,"R_den":10,"correct_side":1,"subjID":"Samuel Avellaneda 29","gender":"0","school":"4","age":" 9 años"},{"start_time":1552054099477,"click_time":1552054104149,"finger_time":1552054102429,"fix_duration":268.91830902303,"trial":6,"RT":2952,"MT":1720,"sideResp":1,"stimulus":[],"xmouse":[827,825,825,825,824,824,823,822,822,819,816,813,812,810,807,806,803,802,801,801,801,801,801,801,801,801,801,801,801,801,801,801,801,801,801,801,801,801,801,801,801,801,801,801,801,801,801,801,801,801,801,801,801,801,801,801,801,801,801,801,801,801,801,801,801,801,801,801,801,800,800,800,800,800,799,799,799,799,799,799,799,799,799,799,799,799,799,799,799,799,799,799,799,799,799,799,799,799,799,799,799,799,799,799,799,799,799,799,799,799,799,799,799,799,799,799,801,801,802,802,802,802,802,803,803,804,804,804,804,804,804,804,804,804,807,808,809,809,809,809,809,809,809,809,809,806,804,800,799,795,794,794,794,794,794,794,794,794,794,794,794,794,794,794,794,794,794,794,794,794,794,794,794,794,794,794,794,794,794,794,794,794,792,791,789,789,788,788,788,788,788,788,786,786,785,785,785,785,785,785,785,784,783,779,772,768,762,757,749,717,701,687,675,663,646,638,631,624,620,610,606,605,602,601,595,589,584,577,569,544,533,516,496,475],"ymouse":[635,640,640,642,643,643,643,643,643,643,643,642,641,641,640,639,638,637,636,636,636,636,636,636,636,636,636,636,636,636,636,636,636,636,636,636,636,636,636,636,636,636,636,636,636,636,636,636,636,636,636,636,636,636,636,636,636,636,636,636,636,636,636,636,636,636,636,636,636,636,635,634,632,631,631,631,631,631,631,631,631,631,631,631,631,631,631,631,631,631,631,631,631,631,631,631,631,631,631,631,631,631,631,631,631,631,631,631,631,631,631,631,629,628,625,623,621,619,618,618,618,617,616,614,613,612,611,611,611,610,609,608,605,603,593,589,584,582,581,581,581,581,580,579,578,576,574,570,568,563,563,563,563,563,563,563,563,563,563,563,563,563,563,563,563,563,563,563,563,563,563,563,563,563,563,563,563,563,563,563,563,563,562,561,557,557,556,556,556,556,556,555,555,555,555,555,555,555,555,555,555,554,552,549,535,524,511,495,473,411,383,359,337,316,285,273,261,250,240,211,199,191,183,181,176,174,172,167,162,142,136,126,111,93],"timestamp_mouse":[17,41,51,72,90,111,132,152,171,190,211,230,251,271,291,310,330,351,371,391,411,432,450,471,491,510,530,550,572,591,612,630,651,670,691,712,730,750,771,792,811,830,851,871,891,910,930,952,971,991,1011,1032,1050,1072,1090,1110,1130,1151,1170,1192,1211,1230,1252,1270,1291,1310,1332,1351,1372,1391,1411,1432,1451,1471,1490,1510,1531,1550,1571,1591,1611,1632,1652,1671,1691,1712,1732,1751,1770,1790,1812,1831,1850,1871,1891,1911,1931,1950,1972,1991,2010,2030,2051,2070,2091,2112,2131,2151,2170,2192,2211,2231,2251,2270,2290,2310,2332,2350,2371,2390,2411,2431,2450,2470,2492,2510,2531,2552,2572,2590,2611,2630,2651,2670,2690,2710,2730,2750,2772,2792,2810,2830,2851,2871,2891,2910,2931,2952,2970,2990,3011,3032,3051,3071,3091,3112,3131,3150,3171,3190,3211,3231,3251,3270,3290,3310,3332,3352,3371,3391,3411,3430,3452,3471,3491,3510,3530,3551,3572,3591,3612,3632,3651,3670,3690,3712,3730,3751,3770,3791,3812,3831,3851,3871,3891,3912,3932,3950,3970,3990,4011,4030,4050,4071,4090,4110,4130,4150,4172,4190,4211,4231,4251,4271,4290,4310,4331,4351,4370,4390,4410,4430,4452,4470,4491,4511,4532,4550,4571,4590,4611,4631,4651,4672],"xSR":741.5,"ySR":573.95,"xT1":424.9,"yT1":0,"xT2":1058.1,"yT2":0,"toosoon":0,"cond_shown":"Congruent","ratio_trial":300,"L_num":11,"L_den":22,"R_num":1,"R_den":5,"correct_side":1,"subjID":"Samuel Avellaneda 29","gender":"0","school":"4","age":" 9 años"},{"start_time":1552054119884,"click_time":1552054122048,"finger_time":1552054120287,"fix_duration":1333.5729774435129,"trial":7,"RT":403,"MT":1761,"sideResp":1,"stimulus":[],"xmouse":[777,777,777,778,778,778,779,780,780,780,781,781,781,781,781,781,781,781,781,781,784,788,790,792,793,795,795,795,795,795,795,795,795,795,794,794,788,787,787,787,787,788,789,789,789,789,789,789,790,790,790,789,789,789,789,789,789,789,789,789,789,789,789,789,789,789,788,784,777,769,754,725,715,711,709,707,704,696,689,683,673,664,660,655,651,647,640,637,634,629,624,605,595,586,579,575,566,560,548,540,538,534,534,534,534,534,529,525,521],"ymouse":[601,601,601,598,597,596,594,592,591,590,589,588,588,587,587,587,587,585,582,575,566,551,544,540,537,533,529,527,527,527,527,527,527,527,528,530,547,555,561,566,568,573,575,575,575,575,575,575,575,571,569,563,562,562,562,562,562,562,562,562,562,562,562,562,562,562,560,559,556,553,544,526,517,510,505,502,496,483,471,458,435,405,389,373,357,342,313,296,281,265,245,201,183,169,156,150,138,129,112,101,98,90,90,90,90,90,87,83,81],"timestamp_mouse":[10,38,44,63,83,105,124,143,163,184,204,223,244,264,283,303,323,344,365,383,403,423,444,464,484,503,523,544,564,584,604,623,643,663,685,703,724,743,763,783,804,824,845,864,884,903,923,943,964,983,1004,1023,1043,1063,1084,1103,1123,1144,1165,1184,1204,1224,1244,1264,1284,1304,1325,1344,1363,1384,1404,1423,1443,1463,1483,1504,1523,1543,1563,1584,1603,1623,1643,1663,1684,1705,1724,1744,1763,1784,1804,1823,1844,1863,1883,1903,1924,1958,1965,1984,2005,2023,2044,2064,2083,2103,2124,2143,2164],"xSR":741.5,"ySR":573.95,"xT1":424.9,"yT1":0,"xT2":1058.1,"yT2":0,"toosoon":0,"cond_shown":"Incongruent","ratio_trial":200,"L_num":1,"L_den":2,"R_num":3,"R_den":10,"correct_side":1,"subjID":"Samuel Avellaneda 29","gender":"0","school":"4","age":" 9 años"},{"start_time":1552054130662,"click_time":1552054133869,"finger_time":1552054132327,"fix_duration":691.35798043953,"trial":8,"RT":1665,"MT":1542,"sideResp":2,"stimulus":[],"xmouse":[764,764,764,764,764,764,764,764,764,764,764,764,764,764,764,764,764,764,764,764,764,764,764,764,764,764,764,764,764,764,764,764,764,764,764,764,764,764,764,764,764,764,764,764,764,764,764,764,764,764,764,764,764,764,764,764,764,764,764,764,764,764,764,764,764,764,764,764,764,764,764,764,764,764,764,764,764,764,764,764,764,764,764,754,749,746,746,746,746,746,746,746,746,746,746,746,746,746,746,746,746,746,746,746,746,746,746,746,746,746,746,746,746,746,746,746,746,746,746,746,746,746,746,746,746,746,746,746,746,746,746,746,748,753,772,784,806,813,853,928,974,1028,1074,1115,1216,1248,1268,1281,1292,1293,1293,1293,1293,1293,1293,1286,1259,1235,1201,1163,1156],"ymouse":[595,595,595,595,595,595,595,595,595,595,595,595,595,595,595,595,595,595,595,595,595,595,595,595,595,595,595,595,595,595,595,595,595,595,595,595,595,595,595,595,595,595,595,595,595,595,595,595,595,595,595,595,595,595,595,595,595,595,595,595,595,595,595,595,595,595,595,595,595,595,595,595,595,595,595,595,595,595,595,595,595,593,589,560,550,545,544,543,543,543,543,543,543,543,543,543,543,543,543,543,543,543,543,543,543,543,543,543,543,543,543,543,543,543,543,543,543,543,543,543,543,543,543,543,543,543,543,543,543,543,543,543,542,540,533,528,518,512,473,373,305,236,178,136,42,11,0,0,0,0,0,0,0,0,0,2,19,33,45,53,54],"timestamp_mouse":[14,33,45,67,85,105,126,145,166,186,205,227,247,265,286,306,326,346,365,386,405,426,445,466,487,505,525,546,567,585,605,626,646,667,686,706,725,747,767,785,806,825,847,865,886,905,926,945,966,985,1005,1025,1045,1065,1087,1106,1126,1146,1166,1186,1207,1227,1246,1266,1286,1307,1325,1346,1365,1387,1405,1425,1445,1466,1487,1505,1525,1546,1566,1586,1606,1625,1645,1665,1685,1705,1725,1747,1767,1786,1806,1826,1846,1866,1885,1907,1926,1947,1966,1987,2006,2026,2046,2066,2087,2107,2125,2146,2166,2186,2207,2225,2246,2266,2286,2305,2325,2345,2367,2385,2406,2426,2445,2466,2485,2505,2526,2546,2566,2586,2606,2626,2645,2665,2685,2705,2725,2746,2766,2785,2805,2826,2845,2865,2885,2905,2925,2946,2966,2987,3005,3026,3046,3067,3085,3106,3125,3146,3166,3185,3206],"xSR":741.5,"ySR":573.95,"xT1":424.9,"yT1":0,"xT2":1058.1,"yT2":0,"toosoon":0,"cond_shown":"Incongruent","ratio_trial":300,"L_num":7,"L_den":10,"R_num":8,"R_den":20,"correct_side":1,"subjID":"Samuel Avellaneda 29","gender":"0","school":"4","age":" 9 años"},{"start_time":1552054139069,"click_time":1552054141028,"finger_time":1552054140548,"fix_duration":719.7093313205456,"trial":9,"RT":1479,"MT":480,"sideResp":2,"stimulus":[],"xmouse":[785,785,785,785,785,785,785,785,785,785,785,785,785,785,785,785,785,785,785,785,785,785,785,785,785,785,785,785,785,785,785,785,785,785,785,785,785,785,785,785,785,785,785,785,785,785,785,785,785,785,785,785,785,785,787,792,796,798,798,798,798,798,798,798,798,798,798,798,798,798,800,801,803,806,823,831,841,848,855,863,873,883,895,930,953,970,970,970,970,970,973,976,976,976,977,984,1001,1032,1077],"ymouse":[612,612,612,612,612,612,612,612,612,612,612,612,612,612,612,612,612,612,612,612,612,612,612,612,612,612,612,612,612,612,612,612,612,612,612,612,612,612,612,612,612,612,612,612,612,612,612,612,612,612,612,612,612,612,612,611,611,610,610,610,610,610,610,610,610,610,610,610,610,610,607,605,599,593,562,542,523,507,490,473,435,402,362,282,218,181,180,180,180,178,157,147,144,143,142,127,101,59,12],"timestamp_mouse":[6,21,40,59,79,98,118,138,160,178,198,220,238,258,280,299,320,338,359,380,398,418,439,460,479,498,518,539,558,578,598,619,640,659,679,699,719,740,759,779,800,820,838,859,878,899,919,939,958,979,998,1020,1039,1059,1079,1099,1118,1140,1160,1178,1198,1220,1238,1259,1278,1299,1320,1339,1358,1379,1398,1418,1438,1458,1479,1499,1518,1539,1558,1578,1598,1620,1640,1658,1678,1699,1718,1738,1758,1779,1798,1818,1838,1859,1878,1899,1918,1939,1959],"xSR":741.5,"ySR":573.95,"xT1":424.9,"yT1":0,"xT2":1058.1,"yT2":0,"toosoon":0,"cond_shown":"Incongruent","ratio_trial":300,"L_num":13,"L_den":26,"R_num":12,"R_den":15,"correct_side":2,"subjID":"Samuel Avellaneda 29","gender":"0","school":"4","age":" 9 años"},{"start_time":1552054146143,"click_time":1552054148067,"finger_time":1552054147248,"fix_duration":813.2589130866661,"trial":10,"RT":1105,"MT":819,"sideResp":1,"stimulus":[],"xmouse":[819,819,819,819,819,819,819,819,819,819,819,819,819,819,819,819,819,819,819,819,819,818,817,817,817,817,817,817,817,817,816,816,816,816,816,816,816,816,816,816,816,816,816,816,816,816,816,816,816,815,815,815,815,815,815,815,823,830,832,835,836,837,837,837,837,838,840,840,842,842,842,842,842,842,842,842,842,843,845,846,846,846,846,846,846,846,840,829,813,781,733,649,624,595,565,540,517],"ymouse":[605,605,605,605,605,605,605,605,605,605,605,605,605,605,605,605,605,605,605,605,605,605,605,605,605,605,605,605,605,605,605,605,603,603,603,603,603,603,603,603,603,603,602,602,601,600,599,599,598,598,598,596,594,589,582,573,536,504,491,479,474,470,470,469,468,465,458,455,454,454,454,454,454,454,454,454,454,451,450,450,450,450,450,446,443,435,405,390,373,346,304,230,192,153,113,91,77],"timestamp_mouse":[14,38,46,64,84,106,126,145,165,185,204,226,246,265,284,304,326,345,365,384,404,425,445,464,485,504,524,544,564,586,605,625,645,665,685,706,726,744,764,786,804,825,845,865,886,906,924,944,964,985,1005,1024,1044,1065,1084,1105,1124,1146,1164,1184,1204,1224,1244,1265,1284,1304,1325,1345,1365,1384,1404,1424,1445,1465,1484,1505,1524,1544,1564,1584,1605,1625,1653,1665,1684,1704,1724,1745,1764,1785,1804,1824,1844,1864,1884,1905,1924],"xSR":741.5,"ySR":573.95,"xT1":424.9,"yT1":0,"xT2":1058.1,"yT2":0,"toosoon":0,"cond_shown":"Incongruent","ratio_trial":300,"L_num":4,"L_den":20,"R_num":2,"R_den":4,"correct_side":2,"subjID":"Samuel Avellaneda 29","gender":"0","school":"4","age":" 9 años"},{"start_time":1552054157016,"click_time":1552054158208,"finger_time":1552054157187,"fix_duration":1027.8855586174793,"trial":11,"RT":171,"MT":1021,"sideResp":1,"stimulus":[],"xmouse":[795,795,795,795,795,795,795,787,659,590,573,573,573,572,572,572,572,575,601,628,640,645,646,646,646,646,646,646,646,646,646,646,646,646,647,647,641,632,623,597,591,586,583,584,588,588,588,588,588,588,588,588,588,587,578,567,555,549,535,502],"ymouse":[609,609,609,609,609,609,608,607,568,556,554,554,554,554,553,548,542,527,481,448,437,432,432,432,432,432,432,432,432,432,432,432,432,432,431,428,411,388,367,320,297,264,222,155,133,118,108,94,86,75,69,68,68,68,68,72,76,78,79,73],"timestamp_mouse":[16,41,53,72,91,112,131,151,171,191,212,232,252,272,292,311,333,353,371,392,412,432,451,472,492,511,532,552,571,591,611,632,651,672,691,711,731,752,772,792,812,831,851,871,891,911,931,951,971,991,1011,1032,1053,1071,1091,1112,1131,1152,1171,1191],"xSR":741.5,"ySR":573.95,"xT1":424.9,"yT1":0,"xT2":1058.1,"yT2":0,"toosoon":0,"cond_shown":"Incongruent","ratio_trial":100,"L_num":6,"L_den":10,"R_num":7,"R_den":14,"correct_side":1,"subjID":"Samuel Avellaneda 29","gender":"0","school":"4","age":" 9 años"},{"start_time":1552054162400,"click_time":1552054165207,"finger_time":1552054164888,"fix_duration":250,"trial":12,"RT":2488,"MT":319,"sideResp":1,"stimulus":[],"xmouse":[772,772,772,772,772,772,772,772,772,772,772,772,772,772,772,772,772,772,772,772,772,772,772,772,772,772,772,772,772,772,772,772,772,772,772,772,772,772,772,772,772,772,772,772,772,772,772,772,772,772,772,772,772,772,772,772,772,772,772,772,772,772,772,772,772,772,772,772,772,772,772,772,772,772,772,772,772,772,772,772,772,772,772,772,772,772,772,772,772,772,772,772,772,772,772,772,772,772,772,772,772,772,772,772,772,772,772,772,772,772,772,772,772,772,772,772,772,772,772,772,772,772,763,756,733,670,635,618,611,603,583,565,542,527,518,508,506,504,501,499,496],"ymouse":[642,642,642,642,642,642,642,642,642,642,642,642,642,642,642,642,642,642,642,642,642,642,642,642,642,642,642,642,642,642,642,642,642,642,642,642,642,642,642,642,642,642,642,642,642,642,642,642,642,642,642,642,642,642,642,642,642,642,642,642,642,642,642,642,642,642,642,642,642,642,642,642,642,642,642,642,642,642,642,642,642,642,642,642,642,642,642,642,642,642,642,642,642,642,642,642,642,642,642,642,642,642,642,642,642,642,642,642,642,642,642,642,642,642,642,642,642,642,642,642,642,642,632,622,595,518,481,464,456,444,403,364,320,289,263,209,191,177,161,143,98],"timestamp_mouse":[10,39,48,68,88,108,128,149,168,188,209,227,247,268,287,308,329,347,367,388,407,428,449,468,488,508,527,549,567,588,608,627,648,668,688,708,727,747,768,788,808,827,848,869,887,907,927,949,969,988,1007,1027,1047,1069,1088,1108,1128,1147,1169,1189,1208,1228,1248,1267,1289,1307,1328,1347,1369,1387,1409,1428,1448,1467,1487,1507,1529,1548,1569,1587,1607,1629,1647,1667,1688,1709,1728,1748,1768,1788,1807,1829,1849,1867,1887,1907,1929,1949,1967,1988,2007,2028,2048,2068,2089,2108,2129,2148,2167,2187,2207,2227,2247,2269,2288,2308,2328,2347,2367,2387,2407,2429,2448,2468,2488,2508,2527,2547,2568,2587,2608,2628,2648,2668,2687,2707,2729,2749,2769,2788,2807],"xSR":741.5,"ySR":573.95,"xT1":424.9,"yT1":0,"xT2":1058.1,"yT2":0,"toosoon":0,"cond_shown":"Congruent","ratio_trial":300,"L_num":20,"L_den":25,"R_num":9,"R_den":18,"correct_side":1,"subjID":"Samuel Avellaneda 29","gender":"0","school":"4","age":" 9 años"},{"start_time":1552054168079,"click_time":1552054169488,"finger_time":1552054169387,"fix_duration":250,"trial":13,"RT":1308,"MT":101,"sideResp":1,"stimulus":[],"xmouse":[762,762,762,762,762,762,762,762,762,762,762,762,762,762,762,762,762,762,762,762,762,762,762,762,762,762,762,762,762,762,762,762,762,762,762,762,762,762,762,762,762,762,762,762,762,762,762,762,762,762,762,762,762,762,762,762,762,762,762,762,762,762,762,761,757,744,726,666,626,565,509],"ymouse":[637,637,637,637,637,637,637,637,637,637,637,637,637,637,637,637,637,637,637,637,637,637,637,637,637,637,637,637,637,637,637,637,637,637,637,637,637,637,637,637,637,637,637,637,637,637,637,637,637,637,637,637,637,637,637,637,637,637,637,637,637,637,637,629,607,566,509,389,331,232,91],"timestamp_mouse":[13,44,50,69,88,110,130,148,169,189,210,229,250,269,288,309,329,348,369,388,408,430,449,470,489,509,528,549,570,589,609,629,649,668,689,710,728,748,768,789,809,829,848,870,889,910,929,948,969,988,1008,1029,1049,1070,1089,1108,1128,1148,1170,1189,1208,1230,1249,1268,1289,1308,1328,1348,1368,1388,1408],"xSR":741.5,"ySR":573.95,"xT1":424.9,"yT1":0,"xT2":1058.1,"yT2":0,"toosoon":0,"cond_shown":"Congruent","ratio_trial":300,"L_num":24,"L_den":30,"R_num":8,"R_den":16,"correct_side":1,"subjID":"Samuel Avellaneda 29","gender":"0","school":"4","age":" 9 años"},{"start_time":1552054172182,"click_time":1552054174528,"finger_time":1552054173527,"fix_duration":1231.0427351336775,"trial":14,"RT":1345,"MT":1001,"sideResp":1,"stimulus":[],"xmouse":[804,804,804,804,804,804,804,804,804,804,804,804,804,804,804,804,804,804,804,804,804,804,804,804,804,804,804,804,804,804,804,804,804,804,804,804,804,804,804,804,804,804,804,804,804,804,804,804,804,804,804,804,804,804,804,804,804,804,804,804,804,804,804,804,804,804,805,821,831,843,855,867,899,909,916,918,919,919,919,919,919,919,919,919,919,919,919,919,919,919,919,919,919,919,919,919,919,917,913,911,909,909,907,906,906,904,900,886,872,850,815,751,612,575,542,508,485,470],"ymouse":[607,607,606,606,606,606,606,606,606,606,606,606,606,606,606,606,606,606,606,606,606,606,606,606,606,606,606,606,606,606,606,606,606,606,606,606,606,606,606,606,606,606,606,606,606,606,606,606,606,606,606,606,606,606,606,606,606,606,606,606,606,606,606,606,604,602,595,552,530,508,491,471,395,350,325,315,312,312,312,312,312,312,312,312,312,312,312,312,312,312,312,312,312,312,312,313,314,321,325,328,330,331,332,333,334,336,338,343,345,345,343,326,269,239,202,155,117,74],"timestamp_mouse":[15,26,45,65,85,105,125,145,165,186,206,225,245,267,285,305,326,345,365,385,407,425,446,466,486,505,526,547,566,586,606,625,645,665,685,707,727,747,767,786,806,826,845,866,885,906,925,946,965,986,1005,1027,1046,1066,1086,1106,1126,1146,1166,1186,1205,1225,1245,1266,1285,1306,1325,1345,1366,1387,1406,1426,1445,1465,1485,1505,1525,1545,1566,1586,1607,1626,1646,1666,1685,1706,1727,1746,1766,1786,1806,1825,1847,1865,1885,1906,1926,1945,1965,1985,2005,2025,2045,2066,2085,2106,2125,2146,2165,2185,2206,2226,2246,2265,2286,2305,2325,2346],"xSR":741.5,"ySR":573.95,"xT1":424.9,"yT1":0,"xT2":1058.1,"yT2":0,"toosoon":0,"cond_shown":"Congruent","ratio_trial":100,"L_num":15,"L_den":25,"R_num":13,"R_den":26,"correct_side":1,"subjID":"Samuel Avellaneda 29","gender":"0","school":"4","age":" 9 años"},{"start_time":1552054176074,"click_time":1552054177189,"finger_time":1552054176867,"fix_duration":264.85846158096535,"trial":15,"RT":793,"MT":322,"sideResp":1,"stimulus":[],"xmouse":[795,796,798,798,798,798,798,798,798,798,798,798,798,798,798,798,798,798,798,798,798,798,798,798,798,798,798,798,798,798,798,798,798,798,798,798,798,795,771,755,734,709,663,597,570,559,525,507,486,482,480,480,480,480,480,480],"ymouse":[635,634,631,631,631,631,631,631,631,631,631,631,631,631,631,631,631,631,631,631,631,631,631,631,631,631,631,631,631,631,631,631,631,631,631,631,629,625,580,552,521,483,401,308,294,288,265,249,217,206,195,183,169,131,109,87],"timestamp_mouse":[29,43,54,74,93,114,134,153,174,194,214,234,253,273,294,313,335,355,374,394,414,435,454,475,494,513,533,554,574,594,615,633,653,674,693,714,734,753,773,793,813,833,853,873,895,914,935,954,973,993,1013,1035,1054,1073,1093,1114],"xSR":741.5,"ySR":573.95,"xT1":424.9,"yT1":0,"xT2":1058.1,"yT2":0,"toosoon":0,"cond_shown":"Congruent","ratio_trial":300,"L_num":20,"L_den":25,"R_num":14,"R_den":28,"correct_side":1,"subjID":"Samuel Avellaneda 29","gender":"0","school":"4","age":" 9 años"},{"start_time":1552054178661,"click_time":1552054179908,"finger_time":1552054179608,"fix_duration":250,"trial":16,"RT":947,"MT":300,"sideResp":1,"stimulus":[],"xmouse":[831,831,831,830,830,830,828,828,828,828,827,827,827,827,826,826,826,824,824,824,823,823,823,823,823,823,823,823,823,823,823,823,823,823,823,823,823,822,821,820,819,815,810,804,778,763,744,728,718,715,715,715,715,715,715,715,714,712,702,629,562,486,433],"ymouse":[630,630,630,630,630,629,629,629,628,627,627,627,627,626,626,626,626,626,626,626,627,627,627,627,627,627,627,627,627,627,627,627,627,627,627,627,627,627,628,630,630,631,631,631,616,602,586,569,557,550,549,549,549,549,549,549,547,542,522,378,263,150,44],"timestamp_mouse":[11,34,46,68,86,107,126,147,167,186,208,227,246,268,287,307,326,347,366,387,406,426,447,468,487,507,527,548,566,586,607,628,646,667,688,707,728,747,767,786,806,828,846,867,886,906,926,947,966,986,1008,1028,1046,1068,1088,1107,1126,1148,1166,1188,1206,1226,1246],"xSR":741.5,"ySR":573.95,"xT1":424.9,"yT1":0,"xT2":1058.1,"yT2":0,"toosoon":0,"cond_shown":"Incongruent","ratio_trial":200,"L_num":7,"L_den":10,"R_num":14,"R_den":28,"correct_side":1,"subjID":"Samuel Avellaneda 29","gender":"0","school":"4","age":" 9 años"},{"start_time":1552054182427,"click_time":1552054183868,"finger_time":1552054183127,"fix_duration":1198.0771236993028,"trial":17,"RT":700,"MT":741,"sideResp":1,"stimulus":[],"xmouse":[816,816,816,816,816,816,816,816,816,816,816,816,816,816,816,816,816,816,816,816,816,816,816,816,816,816,816,816,815,814,813,808,802,791,774,725,628,573,521,470,352,318,309,303,301,299,299,299,299,299,299,299,299,301,307,325,369,392,409,418,419,419,420,420,419,418,418,418,418,419,423,429],"ymouse":[625,625,625,625,625,625,625,625,625,625,625,625,625,625,625,625,625,625,625,625,625,625,625,625,625,624,623,622,621,620,618,613,604,589,566,499,367,305,246,182,72,38,21,4,0,0,0,0,0,0,0,0,0,3,10,31,65,76,81,83,83,83,83,75,66,62,60,60,60,58,56,54],"timestamp_mouse":[13,45,62,81,100,120,141,161,182,200,220,241,261,281,302,321,340,361,381,400,421,440,462,480,501,522,541,561,581,600,620,640,661,680,700,720,741,760,781,800,821,840,861,881,901,921,940,961,980,1001,1020,1040,1061,1080,1101,1120,1142,1161,1181,1201,1222,1241,1261,1281,1300,1320,1342,1361,1381,1402,1421,1441],"xSR":741.5,"ySR":573.95,"xT1":424.9,"yT1":0,"xT2":1058.1,"yT2":0,"toosoon":0,"cond_shown":"Incongruent","ratio_trial":200,"L_num":3,"L_den":4,"R_num":11,"R_den":20,"correct_side":1,"subjID":"Samuel Avellaneda 29","gender":"0","school":"4","age":" 9 años"},{"start_time":1552054185810,"click_time":1552054187327,"finger_time":1552054187107,"fix_duration":442.7376713976282,"trial":18,"RT":1297,"MT":220,"sideResp":2,"stimulus":[],"xmouse":[804,804,804,804,804,804,804,804,804,804,804,804,804,804,804,804,804,804,804,802,801,800,799,797,790,787,786,786,786,786,786,786,786,786,786,786,786,786,785,785,785,786,786,787,787,787,787,787,787,788,790,791,794,796,796,796,796,796,796,796,796,796,796,796,803,822,854,942,987,1026,1059,1080,1096,1096,1094,1094],"ymouse":[587,587,587,587,587,587,587,587,587,587,587,587,587,587,587,587,587,587,587,587,584,583,581,580,576,575,575,575,575,575,575,575,575,575,575,575,575,575,574,574,574,574,574,574,574,574,574,574,574,574,574,574,574,574,574,574,574,574,574,574,574,574,574,574,569,553,527,464,429,383,341,290,173,124,108,98],"timestamp_mouse":[17,39,65,77,98,119,138,158,177,199,217,238,257,278,299,317,337,357,379,397,417,438,457,479,497,518,538,558,578,598,617,638,657,679,699,719,738,758,777,798,819,839,858,878,899,918,938,957,979,998,1018,1038,1057,1077,1098,1119,1138,1159,1177,1198,1217,1237,1257,1279,1297,1317,1337,1357,1377,1398,1417,1438,1457,1478,1498,1517],"xSR":741.5,"ySR":573.95,"xT1":424.9,"yT1":0,"xT2":1058.1,"yT2":0,"toosoon":0,"cond_shown":"Congruent","ratio_trial":200,"L_num":9,"L_den":30,"R_num":13,"R_den":26,"correct_side":2,"subjID":"Samuel Avellaneda 29","gender":"0","school":"4","age":" 9 años"},{"start_time":1552054189524,"click_time":1552054191748,"finger_time":1552054190528,"fix_duration":854.5950806115922,"trial":19,"RT":1004,"MT":1220,"sideResp":1,"stimulus":[],"xmouse":[817,817,817,817,817,817,817,817,817,817,817,817,817,817,817,817,817,817,817,817,817,817,817,817,817,817,817,818,818,818,818,818,818,818,818,818,818,818,818,818,818,818,818,818,818,818,818,818,822,829,843,860,898,908,914,914,914,914,914,914,914,914,914,914,914,914,914,914,914,914,914,914,914,914,914,914,914,914,914,914,914,914,914,914,914,914,914,914,914,914,914,914,914,914,914,914,914,914,914,914,914,914,914,909,891,851,745,581,517,474,442,429],"ymouse":[590,590,590,590,590,590,590,590,590,590,590,590,590,590,590,590,590,590,590,590,590,590,590,590,590,590,590,590,590,590,590,590,590,590,590,590,590,590,590,590,590,590,590,590,590,590,590,590,588,583,574,564,538,530,527,527,527,527,527,527,527,527,527,527,527,527,527,527,527,527,527,527,527,527,527,527,527,527,527,527,527,527,527,527,527,527,527,527,527,527,527,527,527,527,527,527,527,527,527,527,527,527,527,521,505,477,402,284,231,177,126,82],"timestamp_mouse":[15,28,44,63,83,103,123,143,163,184,203,223,244,263,284,303,323,343,365,383,403,423,445,463,484,504,525,543,563,584,605,624,643,663,685,705,724,743,764,783,804,824,845,864,883,904,923,944,963,984,1004,1025,1043,1063,1084,1104,1124,1145,1164,1184,1203,1224,1244,1264,1283,1305,1325,1344,1365,1384,1404,1424,1444,1463,1484,1504,1524,1544,1563,1583,1604,1623,1644,1665,1684,1704,1724,1743,1764,1783,1804,1824,1844,1863,1884,1905,1923,1944,1963,1983,2004,2023,2043,2064,2084,2104,2123,2143,2164,2184,2203,2224],"xSR":741.5,"ySR":573.95,"xT1":424.9,"yT1":0,"xT2":1058.1,"yT2":0,"toosoon":0,"cond_shown":"Congruent","ratio_trial":300,"L_num":9,"L_den":10,"R_num":3,"R_den":5,"correct_side":1,"subjID":"Samuel Avellaneda 29","gender":"0","school":"4","age":" 9 años"},{"start_time":1552054195679,"click_time":1552054198107,"finger_time":1552054197168,"fix_duration":250,"trial":20,"RT":1489,"MT":939,"sideResp":2,"stimulus":[],"xmouse":[797,797,797,797,797,796,796,795,793,792,792,790,789,788,786,784,784,784,784,784,784,784,784,784,784,784,784,784,784,784,784,784,784,784,784,784,784,784,784,784,784,784,784,784,784,783,782,774,769,765,762,762,762,762,762,762,762,762,762,762,762,762,762,762,762,762,762,762,762,762,762,762,761,759,756,753,753,753,753,753,753,753,753,753,753,753,753,753,754,755,757,757,757,757,758,787,809,849,890,918,942,946,951,960,976,993,993,985,976,974,974,977,979,982,987,1006,1017,1024,1028,1032,1048,1067],"ymouse":[611,611,611,611,611,611,611,611,611,610,610,610,609,608,607,605,605,605,605,605,605,605,605,605,605,605,605,605,605,605,605,605,605,605,605,605,605,605,605,605,605,605,605,605,605,605,604,595,590,585,582,582,582,582,582,582,582,582,582,582,582,582,582,582,582,582,582,582,582,582,582,582,580,576,571,567,567,567,567,567,567,567,567,567,567,567,567,567,567,566,564,564,564,564,564,551,536,507,467,435,394,374,340,282,230,164,127,106,85,74,63,60,58,55,52,41,35,32,29,29,28,28],"timestamp_mouse":[10,37,49,69,89,109,129,148,169,189,209,229,249,268,289,308,328,349,369,390,408,428,450,468,489,508,529,548,569,590,608,628,649,670,690,709,728,749,770,789,809,829,849,869,889,908,930,949,969,988,1008,1028,1049,1070,1090,1108,1128,1149,1168,1190,1209,1229,1250,1268,1288,1309,1328,1348,1369,1388,1409,1430,1449,1468,1489,1508,1529,1549,1568,1589,1609,1629,1650,1670,1688,1708,1728,1748,1768,1788,1809,1829,1849,1868,1890,1908,1928,1948,1969,1989,2008,2030,2048,2068,2088,2108,2129,2148,2169,2188,2208,2228,2249,2268,2289,2308,2328,2348,2369,2388,2408,2428],"xSR":741.5,"ySR":573.95,"xT1":424.9,"yT1":0,"xT2":1058.1,"yT2":0,"toosoon":0,"cond_shown":"Congruent","ratio_trial":100,"L_num":4,"L_den":8,"R_num":6,"R_den":10,"correct_side":2,"subjID":"Samuel Avellaneda 29","gender":"0","school":"4","age":" 9 años"},{"start_time":1552054201760,"click_time":1552054202968,"finger_time":1552054202587,"fix_duration":250,"trial":21,"RT":827,"MT":381,"sideResp":1,"stimulus":[],"xmouse":[765,765,765,765,765,765,765,765,765,765,765,765,765,765,765,765,765,765,765,765,766,769,774,775,775,775,775,775,775,775,775,775,775,775,775,775,775,775,775,772,769,748,691,660,638,628,622,617,614,610,605,586,575,563,547,536,523,511,508,499,497],"ymouse":[598,598,598,598,598,598,598,598,598,600,601,601,601,601,601,601,601,601,601,601,601,597,589,589,589,589,589,589,589,589,589,589,589,589,589,589,589,589,588,582,575,529,433,393,366,354,343,329,322,306,292,261,246,229,205,185,153,129,120,102,96],"timestamp_mouse":[8,35,47,67,87,108,127,148,168,189,208,228,249,269,288,308,327,348,369,389,407,427,448,468,489,509,527,548,567,589,608,628,647,668,689,707,727,747,768,787,807,827,848,868,887,907,927,947,968,987,1008,1028,1047,1068,1088,1108,1128,1147,1168,1187,1208],"xSR":741.5,"ySR":573.95,"xT1":424.9,"yT1":0,"xT2":1058.1,"yT2":0,"toosoon":0,"cond_shown":"Incongruent","ratio_trial":200,"L_num":7,"L_den":10,"R_num":12,"R_den":24,"correct_side":1,"subjID":"Samuel Avellaneda 29","gender":"0","school":"4","age":" 9 años"},{"start_time":1552054204860,"click_time":1552054207568,"finger_time":1552054206427,"fix_duration":250,"trial":22,"RT":1567,"MT":1141,"sideResp":1,"stimulus":[],"xmouse":[809,809,809,809,809,809,809,809,809,809,809,809,809,809,809,809,809,809,809,809,809,809,809,809,809,809,809,809,809,809,809,809,809,809,809,809,809,809,809,809,809,809,809,809,809,809,809,809,809,809,809,809,809,809,809,809,809,809,809,809,809,809,809,809,809,809,809,809,809,809,809,809,809,809,809,809,811,819,825,834,847,860,895,907,913,917,918,918,918,918,918,918,918,918,918,918,918,918,918,918,918,918,918,918,918,918,918,918,917,916,912,906,889,877,869,860,849,814,787,745,702,664,602,586,572,561,550,532,524,515,508,506,501,498,496,494],"ymouse":[658,658,658,658,658,658,658,658,658,658,658,658,658,658,658,658,658,658,658,658,658,658,658,658,658,658,658,658,658,658,658,658,658,658,658,658,658,658,658,658,658,658,658,658,658,658,658,658,658,658,658,658,658,658,658,658,658,658,658,658,658,658,658,658,658,658,658,658,658,658,658,658,658,658,656,648,634,581,556,532,510,488,442,428,421,416,415,415,415,415,415,415,415,415,415,415,415,415,415,415,415,415,415,415,415,414,414,413,411,410,406,402,395,388,384,379,374,357,343,320,302,286,254,240,227,214,201,179,169,158,148,142,128,116,107,99],"timestamp_mouse":[13,28,47,68,87,107,129,147,168,187,209,227,247,268,288,308,328,348,369,388,408,427,449,467,487,507,529,549,569,588,608,627,649,669,688,708,729,748,768,788,808,829,847,868,889,908,927,949,967,988,1009,1028,1048,1067,1088,1109,1127,1147,1168,1187,1209,1227,1247,1269,1287,1307,1329,1347,1367,1389,1407,1427,1448,1469,1489,1507,1527,1547,1567,1588,1607,1627,1647,1667,1688,1709,1728,1749,1768,1789,1807,1829,1848,1867,1888,1908,1929,1947,1968,1987,2007,2028,2049,2067,2088,2108,2128,2147,2167,2188,2207,2228,2248,2269,2287,2309,2327,2347,2369,2387,2407,2427,2447,2468,2487,2507,2527,2547,2569,2587,2607,2628,2647,2667,2687,2708],"xSR":741.5,"ySR":573.95,"xT1":424.9,"yT1":0,"xT2":1058.1,"yT2":0,"toosoon":0,"cond_shown":"Congruent","ratio_trial":100,"L_num":3,"L_den":6,"R_num":2,"R_den":5,"correct_side":1,"subjID":"Samuel Avellaneda 29","gender":"0","school":"4","age":" 9 años"},{"start_time":1552054209905,"click_time":1552054211788,"finger_time":1552054211308,"fix_duration":697.3438157611854,"trial":23,"RT":1403,"MT":480,"sideResp":1,"stimulus":[],"xmouse":[799,799,799,799,799,799,799,799,799,799,799,799,799,799,799,799,799,799,799,799,799,799,799,799,799,799,799,799,799,799,799,799,799,799,799,799,799,799,799,799,799,799,799,799,799,799,799,799,799,799,799,799,799,799,799,799,799,799,799,799,799,799,799,799,799,799,799,799,799,800,801,760,735,709,689,669,638,625,615,607,589,580,572,565,557,552,550,549,546,543,543,538,535,530,521],"ymouse":[643,643,643,643,643,643,643,643,643,643,643,643,643,643,643,643,643,643,643,643,643,643,643,643,643,643,643,643,643,643,643,643,643,643,643,643,643,643,643,643,643,643,643,643,643,643,643,643,643,643,643,643,643,643,643,643,643,643,643,643,643,643,643,643,643,643,643,643,639,627,564,402,316,249,206,167,112,90,73,59,32,21,11,4,0,0,0,0,0,0,0,1,4,8,14],"timestamp_mouse":[11,39,43,63,82,103,122,143,163,183,203,224,243,263,284,302,323,343,364,383,402,422,444,462,482,503,523,543,564,582,602,623,642,662,683,704,724,743,762,783,802,823,843,862,882,903,922,943,964,982,1002,1023,1042,1064,1082,1102,1123,1142,1163,1183,1203,1222,1242,1262,1282,1303,1322,1343,1362,1382,1403,1424,1444,1462,1482,1502,1522,1542,1562,1583,1603,1622,1642,1662,1682,1704,1723,1743,1763,1783,1804,1823,1843,1864,1883],"xSR":741.5,"ySR":573.95,"xT1":424.9,"yT1":0,"xT2":1058.1,"yT2":0,"toosoon":0,"cond_shown":"Congruent","ratio_trial":200,"L_num":8,"L_den":15,"R_num":3,"R_den":9,"correct_side":1,"subjID":"Samuel Avellaneda 29","gender":"0","school":"4","age":" 9 años"},{"start_time":1552054216786,"click_time":1552054219868,"finger_time":1552054218347,"fix_duration":777.7433816638105,"trial":24,"RT":1561,"MT":1521,"sideResp":1,"stimulus":[],"xmouse":[784,784,784,784,784,784,784,784,784,784,784,784,784,784,784,784,784,784,784,784,784,784,784,784,784,784,784,784,784,784,784,784,784,784,784,784,784,784,784,784,784,784,784,784,784,784,784,784,784,784,784,784,784,784,784,784,784,784,784,784,784,784,784,784,784,784,784,784,784,784,784,784,784,784,784,784,789,798,808,821,838,857,882,884,884,884,884,884,884,884,884,884,884,884,884,884,884,884,884,884,884,884,884,884,884,884,884,878,872,867,860,855,850,824,802,782,766,750,750,749,749,749,750,753,756,756,756,756,756,756,756,756,756,756,756,756,756,756,756,756,756,751,741,696,666,637,613,572,557,549,542,537,528,525,519],"ymouse":[596,596,596,596,596,596,596,596,596,596,596,596,596,596,596,596,596,596,596,596,596,596,596,596,596,596,596,596,596,596,596,596,596,596,596,596,596,596,596,596,596,596,596,596,596,596,596,596,596,596,596,596,596,596,596,596,596,596,596,596,596,596,596,596,596,596,596,596,596,596,596,596,596,596,596,596,591,580,569,557,543,530,514,513,513,513,513,513,513,513,513,513,513,513,513,513,513,513,513,513,513,513,513,513,513,513,513,517,520,522,525,526,529,541,550,560,564,568,568,569,569,570,572,575,577,577,577,577,577,577,577,577,577,577,577,577,577,577,577,577,572,560,539,469,426,377,335,243,210,189,173,153,94,69,43],"timestamp_mouse":[11,21,41,62,82,103,121,141,161,182,202,222,242,261,283,303,321,341,362,383,401,423,442,463,481,501,521,542,561,582,602,622,641,663,682,701,723,743,763,782,801,823,841,861,882,902,922,943,961,981,1002,1022,1041,1062,1082,1101,1121,1141,1163,1181,1201,1221,1242,1263,1283,1302,1322,1343,1362,1381,1402,1421,1442,1462,1482,1502,1521,1543,1561,1581,1601,1622,1642,1661,1682,1702,1721,1742,1761,1781,1802,1822,1843,1861,1881,1901,1923,1942,1962,1981,2001,2021,2043,2061,2081,2102,2121,2142,2161,2181,2201,2221,2242,2261,2282,2301,2321,2342,2362,2381,2401,2421,2442,2461,2482,2502,2523,2542,2562,2583,2602,2622,2642,2661,2681,2701,2722,2742,2762,2782,2802,2822,2842,2863,2882,2901,2921,2942,2962,2981,3001,3023,3042,3061,3081],"xSR":741.5,"ySR":573.95,"xT1":424.9,"yT1":0,"xT2":1058.1,"yT2":0,"toosoon":0,"cond_shown":"Incongruent","ratio_trial":200,"L_num":1,"L_den":3,"R_num":2,"R_den":15,"correct_side":1,"subjID":"Samuel Avellaneda 29","gender":"0","school":"4","age":" 9 años"},{"start_time":1552054223219,"click_time":1552054225149,"finger_time":1552054224747,"fix_duration":250,"trial":25,"RT":1528,"MT":402,"sideResp":2,"stimulus":[],"xmouse":[766,766,766,766,766,766,765,765,765,765,765,765,765,765,765,765,765,765,765,765,765,765,765,765,765,765,765,765,765,765,765,765,765,765,765,765,765,765,765,765,765,765,765,765,765,765,765,765,765,765,765,765,765,765,764,764,763,763,763,763,763,763,763,763,763,763,763,763,763,763,763,763,763,763,762,762,775,786,808,841,875,953,1003,1050,1092,1123,1143,1146,1148,1149,1150,1150,1150,1150,1150,1150,1145],"ymouse":[576,576,576,576,576,576,578,578,578,578,578,578,578,578,578,578,578,578,578,578,578,578,578,578,578,578,578,578,578,578,578,578,578,578,578,578,578,578,578,578,578,578,578,578,578,578,578,578,578,578,578,578,578,578,578,578,578,578,578,578,578,578,578,578,578,578,578,578,578,578,578,578,578,578,576,574,545,526,487,421,358,220,141,64,0,0,0,0,0,0,0,0,0,0,0,0,9],"timestamp_mouse":[21,38,50,68,88,109,128,148,170,189,209,229,248,269,288,309,330,350,369,389,409,429,449,469,489,508,529,548,568,590,609,629,648,668,688,709,729,748,770,789,809,829,850,869,889,908,930,949,969,989,1008,1028,1049,1070,1089,1109,1128,1148,1170,1188,1208,1229,1250,1268,1290,1308,1330,1348,1369,1389,1410,1429,1448,1469,1488,1510,1528,1550,1568,1589,1608,1628,1648,1669,1689,1709,1730,1748,1768,1788,1808,1828,1850,1868,1889,1909,1930],"xSR":741.5,"ySR":573.95,"xT1":424.9,"yT1":0,"xT2":1058.1,"yT2":0,"toosoon":0,"cond_shown":"Incongruent","ratio_trial":100,"L_num":12,"L_den":30,"R_num":2,"R_den":4,"correct_side":2,"subjID":"Samuel Avellaneda 29","gender":"0","school":"4","age":" 9 años"},{"start_time":1552054228353,"click_time":1552054232108,"finger_time":1552054231528,"fix_duration":1403.20566106344,"trial":26,"RT":3175,"MT":580,"sideResp":1,"stimulus":[],"xmouse":[768,768,768,768,768,768,768,768,768,768,768,768,768,768,768,768,768,768,768,768,768,768,768,768,768,768,768,768,768,768,768,768,768,768,768,768,768,768,768,768,768,768,768,768,768,768,768,768,768,767,767,764,764,763,763,763,763,762,761,758,755,754,754,754,754,752,750,747,746,745,744,744,744,744,744,744,744,744,744,744,744,744,744,744,744,744,744,744,744,744,744,744,744,744,744,744,744,744,744,744,744,744,744,744,744,744,744,744,744,744,744,744,744,744,744,744,744,744,744,744,744,744,744,744,744,744,744,744,744,744,744,744,744,744,744,744,744,744,744,744,744,744,744,744,744,744,744,744,744,744,744,744,744,744,744,744,744,742,740,735,719,707,679,640,594,476,450,439,434,432,428,426,426,424,424,425,428,430,434,442,456,461,463,463,463,465,466,468],"ymouse":[642,642,642,642,642,642,642,642,642,642,642,642,642,642,642,642,642,642,642,642,642,642,642,642,642,642,642,642,642,642,642,642,642,642,642,642,642,642,642,642,642,642,642,642,642,642,642,642,642,642,642,642,642,642,642,642,642,642,642,641,641,641,641,641,641,641,640,639,639,639,638,638,638,638,638,638,638,638,638,638,638,638,638,638,638,638,638,638,638,638,638,638,638,638,638,638,638,638,638,638,638,638,638,638,638,638,638,638,638,638,638,638,638,638,638,638,638,638,638,638,638,638,638,638,638,638,638,638,638,638,638,638,638,638,638,638,638,638,638,638,638,638,638,638,638,638,638,638,638,638,638,638,638,638,638,638,638,637,635,626,593,566,516,457,398,255,213,185,172,166,154,147,142,138,136,132,128,127,124,118,108,106,104,104,104,102,100,97],"timestamp_mouse":[15,43,54,74,94,116,135,154,176,194,214,236,255,275,294,314,335,356,375,396,414,435,454,475,496,514,534,556,576,594,614,635,656,675,695,715,736,754,775,796,815,836,854,874,895,915,935,954,976,994,1015,1034,1054,1074,1096,1115,1134,1154,1174,1194,1214,1235,1256,1274,1294,1314,1334,1355,1374,1395,1415,1436,1454,1476,1494,1514,1535,1556,1576,1595,1616,1635,1655,1675,1696,1714,1736,1755,1774,1794,1815,1835,1854,1875,1896,1916,1934,1955,1974,1995,2015,2034,2054,2074,2096,2115,2134,2154,2176,2196,2215,2235,2255,2276,2295,2314,2334,2355,2375,2395,2414,2435,2456,2475,2494,2514,2535,2556,2575,2595,2614,2636,2656,2674,2696,2714,2734,2755,2774,2795,2816,2836,2856,2875,2895,2914,2936,2954,2974,2995,3014,3036,3054,3074,3096,3116,3135,3155,3175,3194,3214,3235,3255,3274,3295,3314,3336,3354,3376,3394,3414,3434,3455,3474,3496,3515,3535,3554,3575,3594,3616,3634,3655,3675,3694,3714,3735,3755],"xSR":741.5,"ySR":573.95,"xT1":424.9,"yT1":0,"xT2":1058.1,"yT2":0,"toosoon":0,"cond_shown":"Congruent","ratio_trial":200,"L_num":12,"L_den":20,"R_num":6,"R_den":15,"correct_side":1,"subjID":"Samuel Avellaneda 29","gender":"0","school":"4","age":" 9 años"},{"start_time":1552054234783,"click_time":1552054236467,"finger_time":1552054235888,"fix_duration":513.923353551146,"trial":27,"RT":1105,"MT":579,"sideResp":2,"stimulus":[],"xmouse":[818,818,818,818,818,818,818,818,818,818,818,818,818,818,818,818,818,818,818,818,818,818,818,818,818,818,818,818,818,818,818,818,818,818,818,818,818,818,818,818,818,818,818,818,818,818,818,818,818,818,818,818,818,818,818,833,844,856,875,941,986,1023,1046,1058,1070,1071,1071,1069,1066,1063,1061,1060,1059,1058,1058,1058,1058,1058,1058,1065,1070,1075,1076,1078,1079],"ymouse":[605,605,605,605,605,605,605,605,605,605,605,605,605,605,605,605,605,605,605,605,605,605,605,605,605,605,605,605,605,605,605,605,605,605,605,605,605,605,605,605,605,605,605,605,605,605,605,605,605,605,605,605,605,605,602,571,551,530,503,419,365,311,280,259,225,216,207,198,192,184,181,177,173,169,161,152,148,142,138,125,117,109,105,100,95],"timestamp_mouse":[10,39,44,65,84,105,125,144,166,186,205,224,245,266,285,304,325,345,365,384,405,426,446,465,485,505,526,544,564,586,606,626,645,664,686,706,725,745,764,785,805,824,845,866,885,904,924,944,966,986,1005,1025,1045,1065,1084,1105,1124,1146,1164,1184,1204,1225,1244,1264,1285,1304,1325,1344,1365,1385,1404,1424,1444,1465,1484,1505,1524,1545,1564,1584,1604,1626,1645,1665,1684],"xSR":741.5,"ySR":573.95,"xT1":424.9,"yT1":0,"xT2":1058.1,"yT2":0,"toosoon":0,"cond_shown":"Incongruent","ratio_trial":100,"L_num":10,"L_den":25,"R_num":8,"R_den":16,"correct_side":2,"subjID":"Samuel Avellaneda 29","gender":"0","school":"4","age":" 9 años"},{"start_time":1552054238011,"click_time":1552054239888,"finger_time":1552054239487,"fix_duration":362.7785182172227,"trial":28,"RT":1476,"MT":401,"sideResp":2,"stimulus":[],"xmouse":[811,811,811,811,811,811,811,811,811,811,811,811,811,811,811,811,811,811,811,811,811,811,811,811,811,811,811,811,811,811,811,811,811,811,811,811,811,811,811,811,811,811,811,811,811,811,811,811,811,811,811,811,811,811,811,811,811,811,811,811,811,811,811,811,811,811,811,811,811,814,816,824,833,852,865,884,914,954,1037,1090,1172,1214,1243,1267,1267,1260,1250,1236,1215,1209,1200,1185,1164,1119],"ymouse":[591,591,591,591,591,591,591,591,591,591,591,591,591,591,591,591,591,591,591,591,591,591,591,591,591,591,591,591,591,591,591,591,591,591,591,591,591,591,591,591,591,591,591,591,591,591,591,591,591,591,591,591,591,591,591,591,591,591,591,591,591,591,591,591,591,591,591,591,591,589,588,582,575,549,532,507,480,447,367,314,228,180,127,23,0,0,0,0,0,0,6,26,51,99],"timestamp_mouse":[21,36,58,78,97,118,136,156,177,197,216,237,258,276,296,317,337,357,377,396,417,437,458,477,496,517,538,557,577,598,616,636,656,677,697,717,736,757,777,798,816,836,857,876,896,917,938,956,976,998,1017,1036,1056,1077,1098,1118,1137,1156,1177,1196,1216,1238,1257,1277,1296,1317,1336,1357,1376,1396,1418,1437,1456,1476,1497,1517,1537,1557,1577,1597,1616,1637,1656,1676,1696,1716,1738,1758,1777,1798,1816,1837,1858,1876],"xSR":741.5,"ySR":573.95,"xT1":424.9,"yT1":0,"xT2":1058.1,"yT2":0,"toosoon":0,"cond_shown":"Congruent","ratio_trial":300,"L_num":1,"L_den":5,"R_num":3,"R_den":6,"correct_side":2,"subjID":"Samuel Avellaneda 29","gender":"0","school":"4","age":" 9 años"},{"start_time":1552054242387,"click_time":1552054244208,"finger_time":1552054243287,"fix_duration":1417.2605767923774,"trial":29,"RT":900,"MT":921,"sideResp":1,"stimulus":[],"xmouse":[811,811,811,811,811,811,811,811,811,811,811,811,811,811,811,811,811,811,811,811,811,811,811,811,811,811,811,811,811,811,811,811,811,811,811,811,811,811,812,812,813,813,814,814,815,816,816,816,816,817,817,817,817,817,817,817,817,817,817,816,804,788,758,726,695,676,646,641,636,636,636,636,636,636,636,633,628,618,592,581,546,495,467,445,431,427,427,430,435,436,438,445],"ymouse":[587,587,587,587,587,587,587,587,587,587,587,587,587,587,587,587,587,587,587,587,587,587,587,587,587,587,587,587,587,587,587,587,587,587,587,587,585,584,582,581,579,579,577,576,574,572,570,570,569,568,568,568,568,568,568,568,568,567,567,566,559,551,536,516,495,472,429,403,370,323,254,235,222,214,210,203,197,189,179,176,166,158,151,143,134,128,118,113,109,107,105,99],"timestamp_mouse":[11,33,41,60,80,101,121,140,161,180,202,221,240,261,281,302,321,341,362,381,402,421,441,462,482,502,521,540,560,582,600,620,640,661,681,702,720,740,760,780,801,820,841,860,880,900,920,942,962,980,1001,1020,1042,1061,1080,1100,1120,1140,1161,1180,1200,1220,1240,1260,1280,1300,1320,1341,1361,1381,1400,1420,1440,1460,1480,1501,1520,1541,1561,1580,1600,1621,1640,1661,1680,1701,1722,1740,1761,1781,1800,1821],"xSR":741.5,"ySR":573.95,"xT1":424.9,"yT1":0,"xT2":1058.1,"yT2":0,"toosoon":0,"cond_shown":"Congruent","ratio_trial":300,"L_num":12,"L_den":24,"R_num":2,"R_den":10,"correct_side":1,"subjID":"Samuel Avellaneda 29","gender":"0","school":"4","age":" 9 años"},{"start_time":1552054245859,"click_time":1552054247667,"finger_time":1552054247209,"fix_duration":390.4691142908564,"trial":30,"RT":1350,"MT":458,"sideResp":2,"stimulus":[],"xmouse":[821,821,821,821,821,821,821,821,821,821,821,822,822,822,822,822,822,822,822,822,822,822,822,822,822,822,822,822,822,822,822,822,822,822,822,822,822,822,822,822,822,822,822,822,822,822,822,822,822,822,822,822,822,822,822,822,822,822,822,822,822,822,822,822,822,825,830,843,852,861,866,875,909,935,956,965,968,971,971,971,972,976,985,988,990,990,992,1008,1027,1052,1075],"ymouse":[610,610,610,610,610,610,610,610,610,610,610,609,609,609,609,609,609,609,609,609,609,609,609,609,609,609,609,609,609,609,609,609,609,609,609,609,609,609,609,609,609,609,609,609,609,609,609,609,609,609,609,609,609,609,609,609,609,609,609,609,609,609,609,609,609,607,602,572,552,519,463,411,308,268,229,214,204,190,180,165,150,135,116,112,112,112,110,96,83,70,63],"timestamp_mouse":[22,41,50,70,89,109,129,149,168,188,209,229,248,268,288,309,329,348,368,389,409,429,448,468,488,508,529,549,568,588,609,628,648,670,688,709,728,748,769,789,808,829,849,869,889,910,929,949,969,990,1009,1028,1048,1068,1089,1110,1130,1149,1169,1189,1208,1229,1249,1269,1289,1309,1329,1350,1368,1388,1408,1429,1449,1470,1489,1509,1528,1548,1568,1589,1608,1628,1649,1670,1689,1709,1728,1749,1768,1788,1808],"xSR":741.5,"ySR":573.95,"xT1":424.9,"yT1":0,"xT2":1058.1,"yT2":0,"toosoon":0,"cond_shown":"Incongruent","ratio_trial":100,"L_num":13,"L_den":26,"R_num":12,"R_den":20,"correct_side":2,"subjID":"Samuel Avellaneda 29","gender":"0","school":"4","age":" 9 años"},{"start_time":1552054251558,"click_time":1552054253248,"finger_time":1552054253007,"fix_duration":250,"trial":31,"RT":1449,"MT":241,"sideResp":1,"stimulus":[],"xmouse":[763,764,764,764,764,764,764,764,764,764,764,764,764,764,764,764,764,764,764,764,764,764,764,764,764,764,764,764,764,764,764,764,764,764,764,764,764,764,764,764,764,764,764,764,764,764,764,764,764,764,764,764,764,764,764,764,764,764,764,764,764,764,764,764,764,764,764,764,764,764,764,761,722,691,646,611,576,527,519,513,510,506,500,497,496],"ymouse":[626,623,623,622,622,622,622,622,622,622,622,622,622,622,622,622,622,622,622,622,622,622,622,622,622,622,622,622,622,622,622,622,622,622,622,622,622,622,622,622,622,622,622,622,622,622,622,622,622,622,622,622,622,622,622,622,622,622,622,622,622,622,622,622,622,622,622,622,622,619,613,595,505,435,358,294,242,175,160,150,140,132,111,100,91],"timestamp_mouse":[10,31,49,69,89,109,129,149,170,189,209,229,250,269,289,309,329,349,369,389,409,430,449,470,491,510,530,550,571,591,610,631,651,669,691,710,731,749,770,789,810,831,850,870,890,911,929,950,969,991,1009,1031,1050,1069,1089,1111,1129,1149,1170,1191,1210,1229,1249,1270,1290,1309,1331,1350,1370,1390,1409,1429,1449,1469,1490,1511,1530,1550,1569,1589,1610,1631,1649,1669,1690],"xSR":741.5,"ySR":573.95,"xT1":424.9,"yT1":0,"xT2":1058.1,"yT2":0,"toosoon":0,"cond_shown":"Congruent","ratio_trial":100,"L_num":3,"L_den":6,"R_num":2,"R_den":5,"correct_side":1,"subjID":"Samuel Avellaneda 29","gender":"0","school":"4","age":" 9 años"},{"start_time":1552054257131,"click_time":1552054258988,"finger_time":1552054258627,"fix_duration":922.0366842627072,"trial":32,"RT":1496,"MT":361,"sideResp":2,"stimulus":[],"xmouse":[808,808,808,808,808,808,808,808,808,808,808,808,808,808,808,808,808,808,808,808,808,808,808,808,808,808,808,808,808,808,808,808,808,808,808,808,808,808,808,808,808,808,808,808,808,808,808,808,808,808,808,808,808,808,808,808,808,808,808,808,808,808,808,808,808,808,808,808,808,808,810,813,819,826,846,869,891,915,937,977,994,1006,1014,1017,1019,1020,1022,1024,1029,1041,1049,1057,1062],"ymouse":[611,611,611,611,611,611,611,611,611,611,611,611,611,611,611,611,611,611,611,611,611,611,611,611,611,611,611,611,611,611,611,611,611,611,611,611,611,611,611,611,611,611,611,611,611,611,611,611,611,611,611,611,611,611,611,611,611,611,611,611,611,611,611,611,611,611,611,611,611,611,608,603,594,579,536,494,457,419,382,311,279,258,246,241,236,230,225,217,191,145,118,99,90],"timestamp_mouse":[17,41,58,76,97,118,138,157,177,197,217,237,258,277,296,316,337,356,376,397,417,437,458,477,498,518,537,557,576,596,617,637,656,678,696,716,738,757,777,796,817,837,857,877,898,916,937,956,978,997,1016,1037,1057,1078,1097,1118,1138,1158,1177,1197,1217,1238,1258,1277,1297,1316,1337,1357,1378,1396,1416,1437,1458,1477,1496,1517,1536,1556,1576,1596,1618,1638,1658,1676,1696,1716,1736,1757,1776,1797,1817,1838,1857],"xSR":741.5,"ySR":573.95,"xT1":424.9,"yT1":0,"xT2":1058.1,"yT2":0,"toosoon":0,"cond_shown":"Incongruent","ratio_trial":100,"L_num":13,"L_den":26,"R_num":12,"R_den":20,"correct_side":2,"subjID":"Samuel Avellaneda 29","gender":"0","school":"4","age":" 9 años"},{"start_time":1552054262897,"click_time":1552054264588,"finger_time":1552054264227,"fix_duration":446.4236605720944,"trial":33,"RT":1330,"MT":361,"sideResp":1,"stimulus":[],"xmouse":[760,760,760,760,760,761,766,770,770,770,770,770,770,770,770,770,770,770,770,770,770,770,770,770,770,770,770,770,770,770,770,770,770,770,770,770,770,771,771,771,771,771,771,771,771,771,771,771,771,771,771,771,771,771,771,771,771,771,771,771,771,771,770,766,760,749,732,688,657,625,597,574,533,513,507,492,486,484,484,484,484,484,484,484,484],"ymouse":[637,637,637,637,638,639,640,641,641,641,641,641,641,641,641,641,641,641,641,641,641,641,641,641,641,641,641,641,641,641,641,641,641,641,641,641,641,641,641,641,641,641,641,641,641,641,641,641,641,641,641,641,641,641,641,641,641,641,641,641,641,641,638,632,622,599,565,488,440,391,358,327,270,239,228,201,190,175,166,158,150,140,119,100,90],"timestamp_mouse":[20,31,51,70,90,111,132,150,170,190,211,232,251,272,290,312,331,351,371,390,410,431,450,470,490,511,531,550,571,591,611,630,650,671,692,711,731,750,770,792,810,830,850,870,890,912,930,950,972,991,1010,1030,1050,1072,1090,1111,1132,1151,1171,1191,1211,1230,1250,1271,1290,1310,1330,1351,1371,1391,1411,1431,1450,1471,1491,1511,1530,1551,1571,1591,1612,1631,1650,1672,1691],"xSR":741.5,"ySR":573.95,"xT1":424.9,"yT1":0,"xT2":1058.1,"yT2":0,"toosoon":0,"cond_shown":"Incongruent","ratio_trial":300,"L_num":7,"L_den":10,"R_num":8,"R_den":20,"correct_side":1,"subjID":"Samuel Avellaneda 29","gender":"0","school":"4","age":" 9 años"},{"start_time":1552054266019,"click_time":1552054268047,"finger_time":1552054267967,"fix_duration":250,"trial":34,"RT":1948,"MT":80,"sideResp":1,"stimulus":[],"xmouse":[773,773,773,773,773,773,773,773,773,773,773,773,773,773,773,773,773,773,773,773,773,773,773,773,773,773,773,773,773,773,773,773,773,773,773,773,773,773,773,773,773,773,773,773,773,773,773,773,773,773,773,773,773,773,773,773,773,773,773,773,773,773,773,773,773,773,773,773,773,774,774,774,774,774,774,774,774,774,776,776,778,779,779,779,779,779,779,779,779,779,779,779,777,775,772,769,752,732,698,655,593,487],"ymouse":[641,641,641,641,641,641,641,641,641,641,641,641,641,641,641,641,641,641,641,641,641,641,641,641,641,641,641,641,641,641,641,641,641,641,641,641,641,641,641,641,641,641,641,641,641,641,641,641,641,641,641,641,641,641,641,641,641,641,641,641,641,641,641,641,641,641,641,639,634,630,629,627,627,627,627,627,627,627,625,624,623,622,622,622,622,622,622,622,622,622,622,621,620,619,618,616,586,537,462,362,253,78],"timestamp_mouse":[10,33,49,68,88,110,130,150,168,188,208,229,249,268,290,308,328,348,370,389,408,429,448,470,488,508,528,548,570,589,610,630,648,668,690,709,730,748,768,789,809,828,848,869,890,908,928,950,969,988,1008,1029,1049,1068,1089,1108,1129,1149,1170,1190,1209,1229,1249,1268,1289,1308,1330,1348,1368,1388,1408,1430,1450,1468,1489,1510,1530,1548,1569,1589,1610,1629,1649,1670,1688,1709,1729,1748,1768,1790,1808,1828,1848,1869,1888,1909,1928,1948,1968,1989,2008,2028],"xSR":741.5,"ySR":573.95,"xT1":424.9,"yT1":0,"xT2":1058.1,"yT2":0,"toosoon":0,"cond_shown":"Congruent","ratio_trial":100,"L_num":15,"L_den":25,"R_num":13,"R_den":26,"correct_side":1,"subjID":"Samuel Avellaneda 29","gender":"0","school":"4","age":" 9 años"},{"start_time":1552054271580,"click_time":1552054274088,"finger_time":1552054272668,"fix_duration":910.4764697805684,"trial":35,"RT":1088,"MT":1420,"sideResp":1,"stimulus":[],"xmouse":[779,779,779,779,779,779,779,779,779,779,779,779,779,779,779,779,779,779,779,779,779,779,779,779,779,779,779,779,779,779,779,779,779,779,779,779,779,779,779,779,779,779,779,779,779,779,779,779,779,779,779,779,780,790,819,830,837,847,853,867,874,879,882,885,890,893,895,895,895,895,895,895,895,895,895,895,895,895,895,895,895,895,895,893,890,888,885,883,882,880,880,879,879,877,859,847,836,832,828,811,795,775,751,727,686,664,621,592,549,541,539,539,544,548,549,549,549,547,546,546,546,546,546,545,536,518],"ymouse":[646,646,646,646,646,646,646,646,646,646,646,646,646,646,646,646,646,646,646,646,646,646,646,646,646,646,646,646,646,646,646,646,646,646,646,646,646,646,646,646,646,646,646,646,646,646,646,646,646,646,646,640,630,607,554,538,527,507,488,448,427,410,398,389,376,368,364,363,363,363,363,363,363,363,363,363,363,363,363,363,363,363,364,365,370,372,376,377,379,380,381,381,382,382,381,377,374,373,372,366,361,355,346,336,311,296,256,213,125,88,64,48,36,29,17,10,4,0,0,0,0,0,0,0,4,15],"timestamp_mouse":[10,33,47,68,88,109,128,147,169,187,208,229,247,269,287,308,327,349,367,387,409,428,447,467,487,509,528,549,567,587,609,627,648,669,689,707,728,749,769,788,807,827,848,867,888,907,927,947,969,989,1007,1027,1047,1068,1088,1108,1128,1148,1167,1188,1207,1227,1247,1268,1287,1308,1327,1348,1368,1387,1408,1428,1448,1469,1488,1507,1528,1549,1569,1587,1608,1628,1647,1669,1688,1708,1728,1748,1767,1787,1807,1828,1847,1867,1887,1908,1928,1947,1967,1987,2007,2027,2049,2068,2087,2107,2127,2149,2169,2187,2208,2228,2247,2269,2287,2309,2328,2347,2367,2387,2408,2427,2447,2468,2488,2508],"xSR":741.5,"ySR":573.95,"xT1":424.9,"yT1":0,"xT2":1058.1,"yT2":0,"toosoon":0,"cond_shown":"Congruent","ratio_trial":200,"L_num":4,"L_den":10,"R_num":3,"R_den":15,"correct_side":1,"subjID":"Samuel Avellaneda 29","gender":"0","school":"4","age":" 9 años"},{"start_time":1552054276300,"click_time":1552054277527,"finger_time":1552054277408,"fix_duration":1011.22496276456,"trial":36,"RT":1108,"MT":119,"sideResp":1,"stimulus":[],"xmouse":[804,804,804,804,804,804,804,804,804,804,804,804,804,804,804,804,804,804,804,804,804,804,804,804,804,804,804,804,804,804,804,804,804,804,804,804,804,804,804,804,804,804,804,804,804,804,804,804,804,804,804,804,804,794,780,760,727,663,586,555,521,493],"ymouse":[625,625,625,625,625,625,625,625,625,625,625,625,625,625,625,625,625,625,625,625,625,625,625,625,625,625,625,625,625,625,625,625,625,625,625,625,625,625,625,625,625,625,625,625,625,625,625,625,625,625,625,625,625,604,577,529,456,339,217,166,101,36],"timestamp_mouse":[10,38,49,69,87,109,129,149,168,188,208,227,248,268,288,308,327,349,369,388,407,427,448,469,487,509,529,549,568,589,608,629,648,669,688,708,728,749,768,788,808,829,848,867,888,908,927,949,969,987,1008,1027,1047,1067,1088,1108,1129,1147,1167,1187,1207,1227],"xSR":741.5,"ySR":573.95,"xT1":424.9,"yT1":0,"xT2":1058.1,"yT2":0,"toosoon":0,"cond_shown":"Incongruent","ratio_trial":300,"L_num":2,"L_den":4,"R_num":6,"R_den":30,"correct_side":1,"subjID":"Samuel Avellaneda 29","gender":"0","school":"4","age":" 9 años"},{"start_time":1552054280028,"click_time":1552054282269,"finger_time":1552054280787,"fix_duration":1077.8633058147823,"trial":37,"RT":759,"MT":1482,"sideResp":2,"stimulus":[],"xmouse":[811,811,811,811,811,811,811,811,811,811,811,811,811,811,811,811,811,811,811,811,811,811,811,811,811,811,811,811,811,811,811,811,811,811,811,811,813,818,850,868,870,870,870,870,870,870,870,870,870,870,870,870,870,866,866,866,866,864,864,867,868,868,864,857,854,854,854,861,879,886,894,899,906,924,935,948,959,967,974,974,974,974,976,980,980,980,980,981,987,993,998,1001,1004,1004,1004,1004,1004,1004,1006,1015,1034,1043,1046,1046,1047,1049,1052,1054,1055,1055,1055,1056,1064],"ymouse":[616,616,616,616,616,616,616,616,616,616,616,616,616,616,616,616,616,616,616,616,616,616,616,616,616,616,616,616,616,616,616,616,616,616,616,616,615,611,587,572,570,570,570,570,570,570,570,570,570,570,570,570,570,553,532,503,467,427,376,359,350,343,322,307,294,280,264,245,212,201,185,177,169,150,142,135,129,123,116,115,114,111,107,102,102,102,101,99,91,86,83,82,81,81,81,81,81,81,80,78,75,75,75,75,75,75,75,74,74,74,74,74,74],"timestamp_mouse":[1,20,40,60,81,99,119,139,161,180,201,221,239,261,281,300,320,340,361,379,400,420,440,461,481,500,520,541,561,580,600,621,641,659,680,699,721,740,759,779,800,820,841,861,879,899,920,939,960,979,1000,1021,1041,1060,1080,1100,1119,1139,1159,1179,1201,1220,1241,1260,1279,1300,1319,1340,1359,1379,1400,1419,1440,1461,1479,1500,1521,1540,1560,1579,1600,1619,1641,1661,1680,1701,1720,1740,1759,1780,1801,1821,1841,1859,1880,1901,1920,1940,1959,1980,2000,2020,2041,2060,2081,2100,2121,2140,2159,2180,2201,2220,2241],"xSR":741.5,"ySR":573.95,"xT1":424.9,"yT1":0,"xT2":1058.1,"yT2":0,"toosoon":0,"cond_shown":"Incongruent","ratio_trial":200,"L_num":14,"L_den":30,"R_num":6,"R_den":9,"correct_side":2,"subjID":"Samuel Avellaneda 29","gender":"0","school":"4","age":" 9 años"},{"start_time":1552054287792,"click_time":1552054289128,"finger_time":1552054288989,"fix_duration":781.9327610469604,"trial":38,"RT":1197,"MT":139,"sideResp":1,"stimulus":[],"xmouse":[796,796,796,796,796,796,796,796,796,796,796,796,796,796,796,796,796,796,796,796,796,796,796,796,796,796,796,796,796,796,796,796,796,796,796,796,796,796,796,796,796,796,796,796,796,796,796,796,796,796,796,796,795,794,792,792,792,790,785,777,774,772,771,744,666,587,496],"ymouse":[635,635,635,635,635,635,635,635,635,635,635,635,635,635,635,635,635,635,635,635,635,635,635,635,635,635,635,635,635,635,635,635,635,635,635,635,635,635,635,635,635,635,635,635,635,635,635,635,635,635,635,635,634,634,632,631,630,628,608,554,525,497,466,393,210,121,48],"timestamp_mouse":[29,41,56,77,96,116,137,155,176,195,217,236,255,277,295,317,336,357,376,397,415,437,455,477,496,515,536,556,575,597,615,636,655,677,696,716,735,757,775,796,815,835,857,875,895,915,937,955,976,996,1016,1036,1055,1076,1097,1117,1136,1155,1175,1197,1216,1235,1255,1277,1297,1315,1336],"xSR":741.5,"ySR":573.95,"xT1":424.9,"yT1":0,"xT2":1058.1,"yT2":0,"toosoon":0,"cond_shown":"Congruent","ratio_trial":200,"L_num":6,"L_den":15,"R_num":3,"R_den":15,"correct_side":1,"subjID":"Samuel Avellaneda 29","gender":"0","school":"4","age":" 9 años"},{"start_time":1552054292278,"click_time":1552054294007,"finger_time":1552054293487,"fix_duration":708.414866746204,"trial":39,"RT":1209,"MT":520,"sideResp":2,"stimulus":[],"xmouse":[801,801,801,801,801,801,801,801,801,801,801,801,801,801,801,801,801,801,801,801,801,801,801,801,801,801,801,801,801,801,801,801,801,801,801,801,801,801,801,801,801,801,801,801,801,801,801,801,801,801,801,801,801,801,803,804,809,815,822,835,851,867,867,866,863,861,861,861,858,855,853,852,852,853,859,877,970,1032,1086,1116,1130,1135,1135,1135,1136,1137,1140],"ymouse":[659,659,659,659,659,659,659,659,659,659,659,659,659,659,659,659,659,659,659,659,659,659,659,659,659,659,659,659,659,659,659,659,659,659,659,659,659,659,659,659,659,659,659,658,657,657,657,657,657,657,656,656,656,656,655,654,646,634,617,581,514,352,310,280,249,221,152,119,93,78,71,70,70,72,80,100,145,162,168,168,167,156,142,126,115,109,98],"timestamp_mouse":[13,45,50,69,89,109,131,149,171,191,211,230,249,269,290,309,330,349,370,390,410,430,449,470,490,509,531,551,570,589,610,629,651,670,691,710,730,750,770,789,811,830,849,870,889,909,931,949,969,990,1010,1031,1050,1071,1091,1110,1129,1149,1170,1190,1209,1229,1251,1269,1291,1311,1330,1349,1370,1390,1409,1430,1450,1469,1490,1509,1530,1549,1570,1589,1610,1630,1649,1670,1689,1709,1729],"xSR":741.5,"ySR":573.95,"xT1":424.9,"yT1":0,"xT2":1058.1,"yT2":0,"toosoon":0,"cond_shown":"Incongruent","ratio_trial":100,"L_num":9,"L_den":18,"R_num":6,"R_den":10,"correct_side":2,"subjID":"Samuel Avellaneda 29","gender":"0","school":"4","age":" 9 años"},{"start_time":1552054299569,"click_time":1552054301408,"finger_time":1552054300868,"fix_duration":1059.9286491343876,"trial":40,"RT":1299,"MT":540,"sideResp":2,"stimulus":[],"xmouse":[786,786,786,786,786,786,786,786,786,786,786,786,786,786,786,786,786,786,786,786,786,786,786,786,786,786,786,786,786,786,786,786,786,786,786,786,786,786,786,786,786,786,786,786,786,786,786,786,786,786,786,786,786,786,786,786,786,786,786,786,786,786,787,801,819,848,871,894,935,951,960,968,975,989,994,994,991,989,996,1007,1025,1043,1058,1069,1069,1069,1069,1069,1069,1069,1069,1071,1076],"ymouse":[604,604,604,604,604,604,604,604,604,604,604,604,604,604,604,604,604,604,604,604,604,604,604,604,604,604,604,604,604,604,604,604,604,604,604,604,604,604,604,604,604,604,604,604,604,604,604,604,604,604,604,604,604,604,604,604,604,604,604,604,604,604,602,591,576,549,518,481,398,355,323,296,273,223,169,106,67,52,31,20,8,0,0,0,0,0,0,0,0,0,0,0,5],"timestamp_mouse":[1,19,39,60,78,98,120,138,159,180,200,219,240,259,279,299,318,339,359,380,398,419,439,459,479,498,518,540,558,579,598,619,640,659,678,698,720,739,760,779,798,819,839,860,878,898,920,938,960,980,999,1019,1040,1059,1079,1098,1118,1140,1158,1179,1200,1220,1240,1258,1279,1299,1319,1339,1358,1378,1398,1418,1439,1459,1480,1498,1518,1539,1560,1579,1599,1619,1639,1659,1680,1698,1718,1738,1759,1778,1799,1820,1839],"xSR":741.5,"ySR":573.95,"xT1":424.9,"yT1":0,"xT2":1058.1,"yT2":0,"toosoon":0,"cond_shown":"Congruent","ratio_trial":200,"L_num":12,"L_den":15,"R_num":6,"R_den":10,"correct_side":1,"subjID":"Samuel Avellaneda 29","gender":"0","school":"4","age":" 9 años"},{"start_time":1552054303718,"click_time":1552054305328,"finger_time":1552054305008,"fix_duration":907.3418253314942,"trial":41,"RT":1290,"MT":320,"sideResp":1,"stimulus":[],"xmouse":[835,835,835,835,835,835,835,835,835,835,835,835,835,835,835,835,835,835,835,835,836,836,836,836,836,836,836,836,836,836,836,836,836,836,836,836,836,836,836,836,836,836,836,836,836,836,833,826,814,804,794,776,770,761,757,754,752,752,752,752,752,752,751,751,751,740,717,662,605,562,543,543,543,544,546,546,547,547,547,540,486],"ymouse":[578,578,578,578,578,578,578,578,578,578,578,578,578,578,578,578,578,578,578,577,577,577,577,577,577,577,577,577,577,577,576,576,576,576,576,576,576,576,576,576,576,576,576,576,576,576,576,576,577,580,584,596,599,605,608,610,612,612,612,612,612,612,605,597,566,483,352,220,96,16,0,0,0,0,0,0,0,0,0,3,55],"timestamp_mouse":[11,43,51,69,89,110,130,151,170,190,210,230,250,271,290,311,329,350,369,390,410,431,449,469,491,510,529,550,569,589,610,630,649,671,689,710,730,751,770,790,810,831,851,870,889,910,930,949,969,989,1011,1030,1050,1069,1089,1110,1131,1151,1169,1189,1210,1231,1250,1269,1290,1310,1331,1350,1370,1389,1411,1429,1449,1469,1490,1510,1531,1550,1569,1590,1610],"xSR":741.5,"ySR":573.95,"xT1":424.9,"yT1":0,"xT2":1058.1,"yT2":0,"toosoon":0,"cond_shown":"Congruent","ratio_trial":300,"L_num":20,"L_den":25,"R_num":5,"R_den":10,"correct_side":1,"subjID":"Samuel Avellaneda 29","gender":"0","school":"4","age":" 9 años"},{"start_time":1552054310549,"click_time":1552054312407,"finger_time":1552054311889,"fix_duration":619.995601913138,"trial":42,"RT":1340,"MT":518,"sideResp":1,"stimulus":[],"xmouse":[784,784,784,784,784,784,784,784,784,784,784,784,784,784,784,784,784,784,784,784,784,784,784,784,784,784,784,784,784,784,784,784,784,784,784,784,784,784,784,784,784,784,784,784,784,784,784,784,784,784,784,784,784,784,784,784,784,784,784,784,784,785,785,782,774,770,767,765,762,757,754,750,748,743,732,726,721,711,697,659,641,622,601,581,550,540,534,530,529,523,519,512,501],"ymouse":[633,633,633,633,633,633,633,633,633,633,633,633,633,633,633,633,633,633,633,633,633,633,633,633,633,633,633,633,633,633,633,633,633,633,633,633,633,633,633,633,633,633,633,633,633,633,633,633,633,633,633,633,633,633,633,633,633,633,633,633,633,632,627,617,588,575,562,551,541,525,516,504,492,481,457,444,430,413,390,321,292,258,221,188,148,138,133,130,130,128,125,110,88],"timestamp_mouse":[27,40,58,78,98,119,139,160,178,200,220,239,258,279,300,318,339,358,380,400,418,439,458,478,499,518,538,560,580,600,618,638,660,679,698,719,740,760,779,799,818,840,860,878,898,918,938,960,979,998,1019,1039,1058,1080,1098,1119,1140,1159,1178,1199,1218,1238,1259,1280,1298,1318,1340,1360,1378,1398,1419,1438,1459,1480,1498,1519,1540,1559,1579,1599,1620,1638,1658,1680,1698,1718,1738,1759,1779,1799,1818,1838,1858],"xSR":741.5,"ySR":573.95,"xT1":424.9,"yT1":0,"xT2":1058.1,"yT2":0,"toosoon":0,"cond_shown":"Incongruent","ratio_trial":300,"L_num":8,"L_den":10,"R_num":9,"R_den":18,"correct_side":1,"subjID":"Samuel Avellaneda 29","gender":"0","school":"4","age":" 9 años"},{"start_time":1552054316085,"click_time":1552054317987,"finger_time":1552054317449,"fix_duration":295.07004616189056,"trial":43,"RT":1364,"MT":538,"sideResp":2,"stimulus":[],"xmouse":[780,780,780,780,780,780,780,780,780,780,780,780,780,780,780,780,780,780,780,780,780,780,780,780,780,780,780,780,780,780,780,780,780,780,780,780,780,780,780,780,780,780,780,780,780,780,780,780,780,780,780,780,780,780,780,780,780,780,780,780,780,780,780,780,785,792,802,813,837,850,856,872,883,897,939,956,971,981,988,997,1001,1010,1019,1030,1050,1058,1063,1065,1067,1067,1067,1067,1067,1069,1076,1080],"ymouse":[613,613,613,613,613,613,613,613,613,613,613,613,613,613,613,613,613,613,613,613,613,613,613,613,613,613,613,613,613,613,613,613,613,613,613,613,613,613,613,613,613,613,613,613,613,613,613,613,613,613,613,613,613,613,613,613,613,613,613,613,613,613,613,613,608,599,588,577,556,542,536,514,494,470,405,383,362,342,327,308,301,290,280,271,249,237,226,218,208,190,181,163,151,133,100,87],"timestamp_mouse":[12,37,42,63,84,104,124,143,162,183,204,224,242,263,283,304,323,344,363,382,404,424,444,462,483,504,524,543,563,583,602,622,644,664,683,703,722,743,764,783,804,822,842,863,883,902,922,943,964,983,1002,1023,1043,1064,1083,1102,1124,1144,1164,1182,1202,1224,1242,1262,1282,1303,1324,1344,1364,1383,1403,1422,1442,1463,1483,1503,1523,1544,1563,1583,1603,1623,1642,1662,1683,1702,1723,1743,1763,1783,1802,1822,1844,1864,1884,1902],"xSR":741.5,"ySR":573.95,"xT1":424.9,"yT1":0,"xT2":1058.1,"yT2":0,"toosoon":0,"cond_shown":"Incongruent","ratio_trial":300,"L_num":4,"L_den":20,"R_num":2,"R_den":4,"correct_side":2,"subjID":"Samuel Avellaneda 29","gender":"0","school":"4","age":" 9 años"},{"start_time":1552054319543,"click_