[{"start_time":1552054923876,"click_time":1552054925985,"finger_time":1552054924825,"fix_duration":1463.2969947755075,"trial":0,"RT":949,"MT":1160,"sideResp":1,"stimulus":"img/750/randomdotsizeEA/L/8_Ratio_750_L_4_R_3.png","xmouse":[806,806,806,806,806,806,806,806,806,806,806,806,806,806,806,806,806,806,806,806,806,806,806,806,806,806,806,806,806,806,806,806,806,806,806,806,806,806,806,806,806,806,806,806,805,813,834,870,920,1014,1026,1031,1031,1031,1031,1031,1031,1031,1031,1029,1029,1029,1029,1029,1029,1029,1029,1028,1027,1022,1017,1013,1009,1001,990,973,967,963,961,960,955,950,943,935,925,894,876,860,847,826,816,802,787,771,754,730,718,698,689,652,592,572,562,550,540,501],"ymouse":[549,549,549,549,549,549,549,549,549,549,549,549,549,549,549,549,549,549,549,549,549,549,549,549,549,549,549,549,549,549,549,549,549,549,549,549,549,549,549,549,549,549,549,549,548,539,525,501,463,347,310,287,269,259,256,256,256,254,254,251,251,251,251,251,251,251,251,251,251,252,255,257,259,264,270,281,284,287,290,291,295,297,299,301,302,306,309,309,309,309,305,303,301,301,298,296,296,294,292,276,219,193,177,161,148,96],"timestamp_mouse":[11,40,49,69,89,109,130,149,169,190,209,229,250,270,290,309,329,349,369,390,410,429,449,470,489,509,529,549,569,589,609,630,649,669,689,709,730,749,770,791,810,829,850,869,889,909,930,949,970,990,1011,1030,1050,1070,1089,1109,1129,1149,1169,1190,1210,1229,1251,1269,1290,1309,1329,1349,1369,1389,1409,1430,1449,1470,1490,1509,1529,1550,1570,1590,1610,1629,1650,1670,1690,1709,1729,1749,1770,1790,1810,1829,1849,1869,1890,1909,1929,1949,1970,1989,2009,2029,2050,2070,2090,2109],"xSR":741.5,"ySR":501.8,"xT1":424.9,"yT1":0,"xT2":1058.1,"yT2":0,"toosoon":0,"cond_shown":"randomdotsizeEA","ratio_trial":750,"smaller_num":"3","larger_num":"4","correct_side":1,"subjID":"Samuel Avellaneda29","gender":"0","age":"9","school":"4","test":{"fix_dur":[250,1500],"timestim":300,"targets_dim":[100,100],"targets_relative_coord":[0.3,0.7],"size_stim":[880,420],"start_dim":[100,100],"size_start":[300,300],"size_fix":60,"samplingrate":20,"img_types":["equaldotsize","equaldotanddens","randomdotsizeEA"],"ratios":[250,500,750,900],"rep_conds":9,"nTrials":120,"trials_to_rest":500,"Trials_order":[56,6,35,54,18,43,31,9,0,8,92,106,71,22,91,48,76,118,69,51,100,17,97,85,109,94,57,37,32,74,25,5,24,59,40,81,86,1,49,62,27,119,21,65,110,10,68,60,99,98,52,82,47,14,83,44,50,105,4,46,103,53,33,12,72,34,45,16,107,30,108,113,117,87,96,93,79,89,102,64,78,26,63,42,28,75,13,15,36,20,67,95,101,19,114,2,104,29,55,84,7,61,112,111,116,41,66,80,77,39,23,115,11,88,70,3,90,58,73,38],"cond_shown":["randomdotsizeEA","equaldotsize","randomdotsizeEA","equaldotsize","equaldotsize","equaldotanddens","equaldotanddens","equaldotsize","equaldotsize","randomdotsizeEA","randomdotsizeEA","equaldotanddens","randomdotsizeEA","equaldotanddens","equaldotanddens","equaldotsize","equaldotanddens","equaldotanddens","equaldotsize","equaldotsize","equaldotanddens","randomdotsizeEA","equaldotanddens","equaldotanddens","equaldotanddens","equaldotanddens","equaldotsize","equaldotanddens","randomdotsizeEA","randomdotsizeEA","equaldotanddens","randomdotsizeEA","equaldotsize","randomdotsizeEA","equaldotanddens","equaldotsize","randomdotsizeEA","equaldotanddens","equaldotanddens","randomdotsizeEA","equaldotsize","randomdotsizeEA","equaldotsize","randomdotsizeEA","randomdotsizeEA","equaldotanddens","randomdotsizeEA","equaldotsize","equaldotsize","randomdotsizeEA","equaldotanddens","equaldotanddens","randomdotsizeEA","randomdotsizeEA","randomdotsizeEA","randomdotsizeEA","randomdotsizeEA","equaldotsize","equaldotanddens","equaldotanddens","equaldotanddens","randomdotsizeEA","equaldotsize","equaldotsize","equaldotsize","equaldotanddens","equaldotsize","equaldotanddens","randomdotsizeEA","equaldotsize","equaldotsize","randomdotsizeEA","equaldotsize","equaldotsize","equaldotsize","equaldotsize","equaldotanddens","randomdotsizeEA","equaldotsize","equaldotanddens","equaldotsize","randomdotsizeEA","equaldotsize","equaldotsize","equaldotanddens","equaldotsize","equaldotanddens","equaldotsize","equaldotsize","randomdotsizeEA","equaldotanddens","randomdotsizeEA","randomdotsizeEA","equaldotanddens","equaldotsize","randomdotsizeEA","randomdotsizeEA","randomdotsizeEA","equaldotanddens","equaldotsize","equaldotanddens","equaldotanddens","equaldotanddens","equaldotsize","randomdotsizeEA","randomdotsizeEA","equaldotsize","randomdotsizeEA","randomdotsizeEA","equaldotsize","randomdotsizeEA","equaldotanddens","randomdotsizeEA","equaldotanddens","equaldotanddens","equaldotsize","equaldotsize","equaldotanddens","equaldotanddens","randomdotsizeEA"],"ratio_trial":[750,750,900,750,750,750,750,900,250,750,750,900,900,900,750,250,500,900,900,500,500,500,250,250,250,900,900,250,750,250,250,500,250,900,500,900,250,250,250,250,500,900,900,500,250,900,750,250,500,250,500,900,900,250,900,750,250,900,500,900,750,500,900,250,250,900,900,500,900,750,250,500,900,500,250,900,750,500,750,500,750,250,500,750,500,500,250,500,250,750,750,900,500,750,750,250,750,500,750,250,750,250,500,500,750,500,750,750,500,500,900,750,900,500,900,500,750,900,250,250],"smaller_num":["3","3","18","3","9","18","3","18","1","3","6","9","9","18","15","6","2","18","18","3","10","5","6","5","6","9","9","3","3","2","3","5","2","9","1","18","2","5","5","6","5","18","18","2","2","9","3","4","6","2","5","18","18","3","9","3","6","18","1","9","3","10","18","4","6","9","9","2","9","15","1","1","9","10","2","9","15","1","6","5","6","4","6","6","1","9","6","2","3","3","15","18","2","3","3","2","15","9","15","2","3","4","4","1","3","9","15","15","1","9","9","3","9","10","18","5","3","9","3","3"],"larger_num":["4","4","20","4","12","24","4","20","4","4","8","10","10","20","20","24","4","20","20","6","20","10","24","20","24","10","10","12","4","8","12","10","8","10","2","20","8","20","20","24","10","20","20","4","8","10","4","16","12","8","10","20","20","12","10","4","24","20","2","10","4","20","20","16","24","10","10","4","10","20","4","2","10","20","8","10","20","2","8","10","8","16","12","8","2","18","24","4","12","4","20","20","4","4","4","8","20","18","20","8","4","16","8","2","4","18","20","20","2","18","10","4","10","20","20","10","4","10","12","12"],"correct_side":[1,2,1,1,2,1,2,1,2,1,2,2,1,1,2,1,1,2,1,2,2,1,2,2,1,1,2,2,1,1,2,1,1,1,2,2,2,2,2,2,2,1,1,1,1,1,2,1,1,1,2,1,2,1,2,2,1,1,2,1,1,2,2,1,2,2,2,1,1,1,2,2,2,2,2,2,2,2,1,1,1,1,1,1,2,1,2,2,1,1,2,1,2,1,2,1,2,1,2,1,2,2,1,2,1,2,2,2,2,1,2,1,2,2,1,2,1,1,1,2],"img_shown":["img/750/randomdotsizeEA/L/8_Ratio_750_L_4_R_3.png","img/750/equaldotsize/R/7_Ratio_750_L_3_R_4.png","img/900/randomdotsizeEA/L/4_Ratio_900_L_20_R_18.png","img/750/equaldotsize/L/9_Ratio_750_L_4_R_3.png","img/750/equaldotsize/R/15_Ratio_750_L_9_R_12.png","img/750/equaldotanddens/L/6_Ratio_750_L_24_R_18.png","img/750/equaldotanddens/R/7_Ratio_750_L_3_R_4.png","img/900/equaldotsize/L/4_Ratio_900_L_20_R_18.png","img/250/equaldotsize/R/8_Ratio_250_L_1_R_4.png","img/750/randomdotsizeEA/L/10_Ratio_750_L_4_R_3.png","img/750/randomdotsizeEA/R/2_Ratio_750_L_6_R_8.png","img/900/equaldotanddens/R/7_Ratio_900_L_9_R_10.png","img/900/randomdotsizeEA/L/1_Ratio_900_L_10_R_9.png","img/900/equaldotanddens/L/10_Ratio_900_L_20_R_18.png","img/750/equaldotanddens/R/5_Ratio_750_L_15_R_20.png","img/250/equaldotsize/L/5_Ratio_250_L_24_R_6.png","img/500/equaldotanddens/L/10_Ratio_500_L_4_R_2.png","img/900/equaldotanddens/R/12_Ratio_900_L_18_R_20.png","img/900/equaldotsize/L/10_Ratio_900_L_20_R_18.png","img/500/equaldotsize/R/2_Ratio_500_L_3_R_6.png","img/500/equaldotanddens/R/3_Ratio_500_L_10_R_20.png","img/500/randomdotsizeEA/L/7_Ratio_500_L_10_R_5.png","img/250/equaldotanddens/R/6_Ratio_250_L_6_R_24.png","img/250/equaldotanddens/R/12_Ratio_250_L_5_R_20.png","img/250/equaldotanddens/L/5_Ratio_250_L_24_R_6.png","img/900/equaldotanddens/L/1_Ratio_900_L_10_R_9.png","img/900/equaldotsize/R/15_Ratio_900_L_9_R_10.png","img/250/equaldotanddens/R/9_Ratio_250_L_3_R_12.png","img/750/randomdotsizeEA/L/8_Ratio_750_L_4_R_3.png","img/250/randomdotsizeEA/L/3_Ratio_250_L_8_R_2.png","img/250/equaldotanddens/R/9_Ratio_250_L_3_R_12.png","img/500/randomdotsizeEA/L/7_Ratio_500_L_10_R_5.png","img/250/equaldotsize/L/1_Ratio_250_L_8_R_2.png","img/900/randomdotsizeEA/L/1_Ratio_900_L_10_R_9.png","img/500/equaldotanddens/R/15_Ratio_500_L_1_R_2.png","img/900/equaldotsize/R/12_Ratio_900_L_18_R_20.png","img/250/randomdotsizeEA/R/13_Ratio_250_L_2_R_8.png","img/250/equaldotanddens/R/12_Ratio_250_L_5_R_20.png","img/250/equaldotanddens/R/12_Ratio_250_L_5_R_20.png","img/250/randomdotsizeEA/R/6_Ratio_250_L_6_R_24.png","img/500/equaldotsize/R/14_Ratio_500_L_5_R_10.png","img/900/randomdotsizeEA/L/2_Ratio_900_L_20_R_18.png","img/900/equaldotsize/L/2_Ratio_900_L_20_R_18.png","img/500/randomdotsizeEA/L/10_Ratio_500_L_4_R_2.png","img/250/randomdotsizeEA/L/1_Ratio_250_L_8_R_2.png","img/900/equaldotanddens/L/1_Ratio_900_L_10_R_9.png","img/750/randomdotsizeEA/R/12_Ratio_750_L_3_R_4.png","img/250/equaldotsize/L/2_Ratio_250_L_16_R_4.png","img/500/equaldotsize/L/11_Ratio_500_L_12_R_6.png","img/250/randomdotsizeEA/L/7_Ratio_250_L_8_R_2.png","img/500/equaldotanddens/R/14_Ratio_500_L_5_R_10.png","img/900/equaldotanddens/L/2_Ratio_900_L_20_R_18.png","img/900/randomdotsizeEA/R/12_Ratio_900_L_18_R_20.png","img/250/randomdotsizeEA/L/14_Ratio_250_L_12_R_3.png","img/900/randomdotsizeEA/R/6_Ratio_900_L_9_R_10.png","img/750/randomdotsizeEA/R/7_Ratio_750_L_3_R_4.png","img/250/randomdotsizeEA/L/5_Ratio_250_L_24_R_6.png","img/900/equaldotsize/L/8_Ratio_900_L_20_R_18.png","img/500/equaldotanddens/R/12_Ratio_500_L_1_R_2.png","img/900/equaldotanddens/L/1_Ratio_900_L_10_R_9.png","img/750/equaldotanddens/L/10_Ratio_750_L_4_R_3.png","img/500/randomdotsizeEA/R/3_Ratio_500_L_10_R_20.png","img/900/equaldotsize/R/13_Ratio_900_L_18_R_20.png","img/250/equaldotsize/L/2_Ratio_250_L_16_R_4.png","img/250/equaldotsize/R/6_Ratio_250_L_6_R_24.png","img/900/equaldotanddens/R/7_Ratio_900_L_9_R_10.png","img/900/equaldotsize/R/5_Ratio_900_L_9_R_10.png","img/500/equaldotanddens/L/10_Ratio_500_L_4_R_2.png","img/900/randomdotsizeEA/L/1_Ratio_900_L_10_R_9.png","img/750/equaldotsize/L/1_Ratio_750_L_20_R_15.png","img/250/equaldotsize/R/8_Ratio_250_L_1_R_4.png","img/500/randomdotsizeEA/R/15_Ratio_500_L_1_R_2.png","img/900/equaldotsize/R/3_Ratio_900_L_9_R_10.png","img/500/equaldotsize/R/3_Ratio_500_L_10_R_20.png","img/250/equaldotsize/R/13_Ratio_250_L_2_R_8.png","img/900/equaldotsize/R/7_Ratio_900_L_9_R_10.png","img/750/equaldotanddens/R/3_Ratio_750_L_15_R_20.png","img/500/randomdotsizeEA/R/12_Ratio_500_L_1_R_2.png","img/750/equaldotsize/L/14_Ratio_750_L_8_R_6.png","img/500/equaldotanddens/L/7_Ratio_500_L_10_R_5.png","img/750/equaldotsize/L/14_Ratio_750_L_8_R_6.png","img/250/randomdotsizeEA/L/2_Ratio_250_L_16_R_4.png","img/500/equaldotsize/L/13_Ratio_500_L_12_R_6.png","img/750/equaldotsize/L/14_Ratio_750_L_8_R_6.png","img/500/equaldotanddens/R/12_Ratio_500_L_1_R_2.png","img/500/equaldotsize/L/4_Ratio_500_L_18_R_9.png","img/250/equaldotanddens/R/6_Ratio_250_L_6_R_24.png","img/500/equaldotsize/R/9_Ratio_500_L_2_R_4.png","img/250/equaldotsize/L/15_Ratio_250_L_12_R_3.png","img/750/randomdotsizeEA/L/8_Ratio_750_L_4_R_3.png","img/750/equaldotanddens/R/5_Ratio_750_L_15_R_20.png","img/900/randomdotsizeEA/L/8_Ratio_900_L_20_R_18.png","img/500/randomdotsizeEA/R/9_Ratio_500_L_2_R_4.png","img/750/equaldotanddens/L/10_Ratio_750_L_4_R_3.png","img/750/equaldotsize/R/12_Ratio_750_L_3_R_4.png","img/250/randomdotsizeEA/L/1_Ratio_250_L_8_R_2.png","img/750/randomdotsizeEA/R/5_Ratio_750_L_15_R_20.png","img/500/randomdotsizeEA/L/4_Ratio_500_L_18_R_9.png","img/750/equaldotanddens/R/3_Ratio_750_L_15_R_20.png","img/250/equaldotsize/L/3_Ratio_250_L_8_R_2.png","img/750/equaldotanddens/R/12_Ratio_750_L_3_R_4.png","img/250/equaldotanddens/R/10_Ratio_250_L_4_R_16.png","img/500/equaldotanddens/L/8_Ratio_500_L_8_R_4.png","img/500/equaldotsize/R/12_Ratio_500_L_1_R_2.png","img/750/randomdotsizeEA/L/8_Ratio_750_L_4_R_3.png","img/500/randomdotsizeEA/R/1_Ratio_500_L_9_R_18.png","img/750/equaldotsize/R/5_Ratio_750_L_15_R_20.png","img/750/randomdotsizeEA/R/5_Ratio_750_L_15_R_20.png","img/500/randomdotsizeEA/R/12_Ratio_500_L_1_R_2.png","img/500/equaldotsize/L/4_Ratio_500_L_18_R_9.png","img/900/randomdotsizeEA/R/15_Ratio_900_L_9_R_10.png","img/750/equaldotanddens/L/9_Ratio_750_L_4_R_3.png","img/900/randomdotsizeEA/R/7_Ratio_900_L_9_R_10.png","img/500/equaldotanddens/R/3_Ratio_500_L_10_R_20.png","img/900/equaldotanddens/L/2_Ratio_900_L_20_R_18.png","img/500/equaldotsize/R/14_Ratio_500_L_5_R_10.png","img/750/equaldotsize/L/9_Ratio_750_L_4_R_3.png","img/900/equaldotanddens/L/1_Ratio_900_L_10_R_9.png","img/250/equaldotanddens/L/14_Ratio_250_L_12_R_3.png","img/250/randomdotsizeEA/R/4_Ratio_250_L_3_R_12.png"],"Rat0":[["12_Ratio_0_L_9_R_0.png","13_Ratio_0_L_6_R_0.png","5_Ratio_0_L_2_R_0.png","6_Ratio_0_L_4_R_0.png","8_Ratio_0_L_6_R_0.png"],["1_Ratio_0_L_0_R_17.png","10_Ratio_0_L_0_R_22.png","11_Ratio_0_L_0_R_1.png","14_Ratio_0_L_0_R_24.png","15_Ratio_0_L_0_R_4.png","2_Ratio_0_L_0_R_5.png","3_Ratio_0_L_0_R_17.png","4_Ratio_0_L_0_R_7.png","7_Ratio_0_L_0_R_19.png","9_Ratio_0_L_0_R_15.png"]],"Rat250":[["1_Ratio_250_L_8_R_2.png","14_Ratio_250_L_12_R_3.png","15_Ratio_250_L_12_R_3.png","2_Ratio_250_L_16_R_4.png","3_Ratio_250_L_8_R_2.png","5_Ratio_250_L_24_R_6.png","7_Ratio_250_L_8_R_2.png"],["10_Ratio_250_L_4_R_16.png","11_Ratio_250_L_3_R_12.png","12_Ratio_250_L_5_R_20.png","13_Ratio_250_L_2_R_8.png","4_Ratio_250_L_3_R_12.png","6_Ratio_250_L_6_R_24.png","8_Ratio_250_L_1_R_4.png","9_Ratio_250_L_3_R_12.png"]],"Rat500":[["10_Ratio_500_L_4_R_2.png","11_Ratio_500_L_12_R_6.png","13_Ratio_500_L_12_R_6.png","4_Ratio_500_L_18_R_9.png","5_Ratio_500_L_4_R_2.png","7_Ratio_500_L_10_R_5.png","8_Ratio_500_L_8_R_4.png"],["1_Ratio_500_L_9_R_18.png","12_Ratio_500_L_1_R_2.png","14_Ratio_500_L_5_R_10.png","15_Ratio_500_L_1_R_2.png","2_Ratio_500_L_3_R_6.png","3_Ratio_500_L_10_R_20.png","6_Ratio_500_L_9_R_18.png","9_Ratio_500_L_2_R_4.png"]],"Rat750":[["1_Ratio_750_L_20_R_15.png","10_Ratio_750_L_4_R_3.png","13_Ratio_750_L_8_R_6.png","14_Ratio_750_L_8_R_6.png","6_Ratio_750_L_24_R_18.png","8_Ratio_750_L_4_R_3.png","9_Ratio_750_L_4_R_3.png"],["11_Ratio_750_L_12_R_16.png","12_Ratio_750_L_3_R_4.png","15_Ratio_750_L_9_R_12.png","2_Ratio_750_L_6_R_8.png","3_Ratio_750_L_15_R_20.png","4_Ratio_750_L_15_R_20.png","5_Ratio_750_L_15_R_20.png","7_Ratio_750_L_3_R_4.png"]],"Rat900":[["1_Ratio_900_L_10_R_9.png","10_Ratio_900_L_20_R_18.png","2_Ratio_900_L_20_R_18.png","4_Ratio_900_L_20_R_18.png","8_Ratio_900_L_20_R_18.png"],["11_Ratio_900_L_18_R_20.png","12_Ratio_900_L_18_R_20.png","13_Ratio_900_L_18_R_20.png","14_Ratio_900_L_18_R_20.png","15_Ratio_900_L_9_R_10.png","3_Ratio_900_L_9_R_10.png","5_Ratio_900_L_9_R_10.png","6_Ratio_900_L_9_R_10.png","7_Ratio_900_L_9_R_10.png","9_Ratio_900_L_18_R_20.png"]],"Rat1000":[["10_Ratio_1000_L_16_R_16.png","11_Ratio_1000_L_6_R_6.png","12_Ratio_1000_L_14_R_14.png","13_Ratio_1000_L_20_R_20.png","15_Ratio_1000_L_15_R_15.png","2_Ratio_1000_L_17_R_17.png","4_Ratio_1000_L_9_R_9.png","5_Ratio_1000_L_6_R_6.png","6_Ratio_1000_L_19_R_19.png","8_Ratio_1000_L_14_R_14.png","9_Ratio_1000_L_25_R_25.png"],["1_Ratio_1000_L_1_R_1.png","14_Ratio_1000_L_17_R_17.png","3_Ratio_1000_L_17_R_17.png","7_Ratio_1000_L_6_R_6.png"]]}},{"start_time":1552054928005,"click_time":1552054929165,"finger_time":1552054928785,"fix_duration":1018.4189831510108,"trial":1,"RT":780,"MT":380,"sideResp":2,"stimulus":"img/750/equaldotsize/R/7_Ratio_750_L_3_R_4.png","xmouse":[752,752,752,752,752,752,752,752,752,752,752,752,752,752,752,752,752,752,752,752,752,752,752,752,752,752,752,752,752,752,752,752,752,752,752,752,760,767,788,824,844,916,983,1062,1197,1225,1236,1240,1240,1240,1240,1240,1236,1231,1217,1207,1194,1176,1157],"ymouse":[502,502,502,502,502,502,502,502,502,502,502,502,502,502,502,502,502,502,502,502,502,502,502,502,502,502,502,502,502,502,502,502,502,502,502,502,501,497,480,423,379,303,262,220,162,148,139,135,132,130,124,115,105,96,76,66,59,54,51],"timestamp_mouse":[10,21,43,60,81,101,122,140,161,181,201,222,241,260,281,300,320,341,360,381,401,420,440,461,481,502,521,541,560,580,600,621,641,661,681,701,721,740,760,780,801,820,841,861,880,900,920,940,960,980,1001,1020,1040,1061,1080,1100,1120,1140,1160],"xSR":741.5,"ySR":469.95,"xT1":424.9,"yT1":0,"xT2":1058.1,"yT2":0,"toosoon":0,"cond_shown":"equaldotsize","ratio_trial":750,"smaller_num":"3","larger_num":"4","correct_side":2,"subjID":"Samuel Avellaneda29","gender":"0","age":"9","school":"4"},{"start_time":1552054930316,"click_time":1552054931327,"finger_time":1552054931206,"fix_duration":269.10915525147794,"trial":2,"RT":890,"MT":121,"sideResp":1,"stimulus":"img/900/randomdotsizeEA/L/4_Ratio_900_L_20_R_18.png","xmouse":[760,760,760,760,760,760,760,760,760,760,760,760,760,760,760,760,760,760,760,760,760,760,760,760,760,760,760,760,760,760,760,760,760,760,760,760,760,760,760,760,760,760,759,749,722,695,665,621,569,480,458],"ymouse":[499,499,499,499,499,499,499,499,499,499,499,499,499,499,499,499,499,499,499,499,499,499,499,499,499,499,499,499,499,499,499,499,499,499,499,499,499,499,499,499,499,499,495,478,437,398,355,287,216,111,85],"timestamp_mouse":[21,39,49,70,90,109,129,149,169,190,210,231,250,269,289,309,329,349,370,389,410,431,450,469,489,509,530,550,570,590,610,631,649,669,690,709,729,749,770,790,809,830,850,870,890,909,929,949,970,989,1010],"xSR":741.5,"ySR":469.95,"xT1":424.9,"yT1":0,"xT2":1058.1,"yT2":0,"toosoon":0,"cond_shown":"randomdotsizeEA","ratio_trial":900,"smaller_num":"18","larger_num":"20","correct_side":1,"subjID":"Samuel Avellaneda29","gender":"0","age":"9","school":"4"},{"start_time":1552054933730,"click_time":1552054935725,"finger_time":1552054934465,"fix_duration":1041.4497602879503,"trial":3,"RT":735,"MT":1260,"sideResp":1,"stimulus":"img/750/equaldotsize/L/9_Ratio_750_L_4_R_3.png","xmouse":[751,751,751,751,751,751,751,751,751,751,751,751,751,751,751,751,751,751,751,751,751,751,751,751,751,751,751,751,751,751,751,751,751,751,752,757,768,788,832,853,868,875,880,888,894,904,911,919,937,945,949,954,954,955,955,955,955,955,955,955,955,955,955,955,955,955,955,955,955,955,955,954,951,942,932,921,905,881,815,776,751,732,718,700,690,680,667,656,643,641,639,636,629,602,584,564,549,536,525,520],"ymouse":[485,485,485,485,485,485,485,485,485,485,485,485,485,485,485,485,485,485,485,485,485,485,485,485,485,485,485,485,485,485,485,485,485,485,484,473,457,435,405,392,382,374,366,348,332,300,272,250,204,190,180,170,168,167,167,167,167,167,167,167,167,167,167,167,167,167,167,167,167,167,167,167,168,171,172,172,172,172,172,166,156,143,131,119,114,109,101,96,87,86,85,83,80,69,62,54,47,43,38,37],"timestamp_mouse":[16,35,55,75,95,116,135,156,176,197,216,236,255,275,295,315,335,355,376,395,416,436,455,475,496,516,535,556,576,595,616,635,655,675,695,716,735,756,776,796,816,836,855,875,895,915,935,955,975,996,1016,1036,1056,1075,1096,1115,1135,1155,1176,1196,1215,1235,1256,1275,1295,1315,1336,1355,1375,1395,1417,1436,1455,1475,1495,1515,1536,1556,1575,1596,1615,1636,1655,1675,1695,1715,1735,1756,1775,1796,1816,1835,1855,1875,1895,1915,1936,1955,1975,1995],"xSR":741.5,"ySR":469.95,"xT1":424.9,"yT1":0,"xT2":1058.1,"yT2":0,"toosoon":0,"cond_shown":"equaldotsize","ratio_trial":750,"smaller_num":"3","larger_num":"4","correct_side":1,"subjID":"Samuel Avellaneda29","gender":"0","age":"9","school":"4"},{"start_time":1552054937513,"click_time":1552054939545,"finger_time":1552054938186,"fix_duration":966.3863578419716,"trial":4,"RT":673,"MT":1359,"sideResp":2,"stimulus":"img/750/equaldotsize/R/15_Ratio_750_L_9_R_12.png","xmouse":[825,825,825,825,825,825,825,825,825,825,825,825,825,825,825,825,825,825,825,825,825,825,825,825,825,825,825,825,825,825,825,828,837,849,869,876,879,882,886,898,915,925,930,933,935,937,939,943,947,960,972,975,978,979,979,979,979,980,981,981,981,981,981,981,981,981,981,979,970,935,921,911,907,906,906,902,894,882,882,880,880,880,880,880,878,873,867,858,852,852,852,852,853,857,879,892,907,922,943,1021,1050,1072],"ymouse":[530,530,530,530,530,530,530,530,530,530,530,530,530,530,530,530,530,530,530,530,530,530,530,530,530,530,530,530,530,530,530,524,512,496,468,458,454,440,422,389,355,334,319,310,300,293,281,267,253,227,210,206,202,201,201,201,201,201,199,198,198,198,198,198,198,198,198,198,202,214,217,218,218,218,218,220,223,226,226,226,226,226,226,226,227,228,228,230,231,231,231,231,230,229,222,218,214,208,196,130,109,96],"timestamp_mouse":[13,35,53,72,92,112,132,153,174,193,212,233,252,272,293,313,333,353,372,394,413,432,453,472,492,513,532,552,572,592,612,632,653,673,693,712,733,753,772,793,812,833,852,872,892,912,932,952,973,993,1012,1032,1052,1072,1093,1113,1133,1153,1172,1193,1212,1232,1253,1272,1293,1312,1333,1352,1372,1393,1413,1432,1453,1472,1492,1512,1532,1559,1573,1592,1612,1632,1652,1673,1692,1712,1732,1753,1772,1793,1812,1833,1852,1872,1893,1913,1933,1952,1973,1994,2012,2032],"xSR":741.5,"ySR":469.95,"xT1":424.9,"yT1":0,"xT2":1058.1,"yT2":0,"toosoon":0,"cond_shown":"equaldotsize","ratio_trial":750,"smaller_num":"9","larger_num":"12","correct_side":2,"subjID":"Samuel Avellaneda29","gender":"0","age":"9","school":"4"},{"start_time":1552054959524,"click_time":1552054960986,"finger_time":1552054960326,"fix_duration":1458.7876668507456,"trial":5,"RT":802,"MT":660,"sideResp":1,"stimulus":"img/750/equaldotanddens/L/6_Ratio_750_L_24_R_18.png","xmouse":[767,767,767,767,767,767,767,767,767,767,767,767,767,767,767,767,767,767,767,767,767,767,767,767,767,766,766,765,765,765,765,765,765,765,765,765,765,763,759,746,741,725,692,666,642,619,606,601,600,598,596,595,592,591,590,590,590,583,572,558,540,534,528,527,524,518,510,494,487,481,476,473,468,465],"ymouse":[508,508,508,508,508,508,508,507,507,507,507,507,507,507,507,507,507,507,507,507,507,507,507,507,507,507,506,504,504,504,503,503,503,503,503,503,503,502,501,496,495,487,462,448,437,424,411,384,372,362,352,347,334,328,319,311,304,294,290,286,281,278,271,265,255,241,223,185,168,158,143,133,104,89],"timestamp_mouse":[11,21,41,62,81,101,121,142,162,181,202,221,241,261,281,302,321,342,361,383,402,422,442,462,482,501,521,541,561,581,601,621,642,662,682,701,721,741,762,781,802,822,841,861,881,901,922,941,961,982,1001,1021,1041,1061,1082,1102,1122,1141,1162,1181,1201,1221,1242,1261,1282,1302,1322,1341,1361,1382,1401,1421,1441,1461],"xSR":741.5,"ySR":469.95,"xT1":424.9,"yT1":0,"xT2":1058.1,"yT2":0,"toosoon":0,"cond_shown":"equaldotanddens","ratio_trial":750,"smaller_num":"18","larger_num":"24","correct_side":1,"subjID":"Samuel Avellaneda29","gender":"0","age":"9","school":"4"},{"start_time":1552054962242,"click_time":1552054963806,"finger_time":1552054963065,"fix_duration":275.7739036148564,"trial":6,"RT":823,"MT":741,"sideResp":2,"stimulus":"img/750/equaldotanddens/R/7_Ratio_750_L_3_R_4.png","xmouse":[775,773,770,769,769,769,769,769,769,769,769,769,769,769,769,769,769,769,769,769,769,769,769,769,769,769,769,769,769,769,769,769,769,769,769,772,784,792,800,804,806,816,822,827,831,834,843,850,858,866,880,896,936,979,1017,1046,1079,1085,1086,1086,1086,1086,1086,1086,1086,1085,1083,1083,1082,1082,1082,1083,1083,1084,1084,1085,1087,1091,1097],"ymouse":[559,559,564,567,567,567,567,567,567,567,567,567,567,567,567,567,567,567,567,567,567,567,567,567,567,567,567,567,567,567,567,567,567,567,567,557,539,528,517,508,494,425,385,360,346,337,314,304,293,283,268,255,234,219,208,201,191,187,187,187,187,187,187,187,187,185,178,172,164,153,145,139,137,136,133,132,128,118,95],"timestamp_mouse":[5,23,43,63,84,103,123,144,164,183,203,224,243,263,283,303,324,343,363,383,403,423,443,463,483,503,523,543,564,583,603,623,643,663,683,703,723,743,765,783,804,823,843,863,884,903,923,943,963,983,1003,1023,1044,1063,1084,1103,1123,1143,1163,1183,1203,1224,1244,1264,1283,1303,1323,1343,1363,1383,1404,1423,1444,1463,1483,1503,1523,1543,1564],"xSR":741.5,"ySR":469.95,"xT1":424.9,"yT1":0,"xT2":1058.1,"yT2":0,"toosoon":0,"cond_shown":"equaldotanddens","ratio_trial":750,"smaller_num":"3","larger_num":"4","correct_side":2,"subjID":"Samuel Avellaneda29","gender":"0","age":"9","school":"4"},{"start_time":1552054965947,"click_time":1552054967166,"finger_time":1552054966766,"fix_duration":1361.9195666632186,"trial":7,"RT":819,"MT":400,"sideResp":2,"stimulus":"img/900/equaldotsize/L/4_Ratio_900_L_20_R_18.png","xmouse":[797,797,797,797,797,797,797,797,797,797,797,797,797,797,797,797,797,797,797,797,797,797,797,797,797,797,797,797,797,797,797,797,797,797,797,797,800,814,823,828,845,856,868,882,899,926,982,1001,1014,1017,1017,1018,1020,1023,1026,1031,1036,1038,1041,1054,1088],"ymouse":[486,486,486,486,486,486,486,486,486,486,486,486,486,486,486,486,486,486,486,486,486,486,486,486,486,486,486,486,486,486,486,486,486,486,486,486,486,484,482,480,462,446,424,400,369,317,204,179,164,159,156,151,146,139,134,127,116,111,106,91,58],"timestamp_mouse":[19,39,58,79,99,118,138,159,180,199,218,240,259,279,298,319,338,358,379,398,418,439,459,478,498,519,538,558,579,599,619,638,659,679,698,719,739,758,778,799,819,838,859,878,898,918,939,959,978,999,1018,1038,1058,1079,1099,1118,1138,1158,1178,1199,1219],"xSR":741.5,"ySR":469.95,"xT1":424.9,"yT1":0,"xT2":1058.1,"yT2":0,"toosoon":0,"cond_shown":"equaldotsize","ratio_trial":900,"smaller_num":"18","larger_num":"20","correct_side":1,"subjID":"Samuel Avellaneda29","gender":"0","age":"9","school":"4"},{"start_time":1552054969737,"click_time":1552054971347,"finger_time":1552054970465,"fix_duration":1410.4652198362342,"trial":8,"RT":728,"MT":882,"sideResp":2,"stimulus":"img/250/equaldotsize/R/8_Ratio_250_L_1_R_4.png","xmouse":[747,747,747,747,747,749,750,757,764,772,777,778,778,778,778,779,779,779,779,779,779,779,779,779,779,779,779,779,779,779,779,779,779,779,781,800,829,895,902,902,902,902,907,910,910,910,911,916,939,996,1067,1132,1191,1221,1221,1221,1222,1224,1225,1225,1225,1225,1224,1220,1211,1196,1177,1142,1136,1135,1135,1135,1135,1135,1135,1135,1135,1134,1133,1133,1132],"ymouse":[501,501,501,501,501,503,503,504,504,504,504,504,504,504,504,504,504,504,504,504,504,504,504,504,504,504,504,504,504,504,504,504,504,504,502,485,468,424,408,390,374,361,333,324,319,311,306,285,259,221,184,156,131,120,120,120,118,109,105,104,102,102,102,101,101,101,102,105,105,105,105,105,105,105,105,105,105,105,102,101,99],"timestamp_mouse":[10,32,48,68,88,109,129,148,168,188,208,229,248,268,288,308,328,349,368,389,408,428,449,469,489,508,529,548,569,588,609,629,649,668,688,709,728,749,768,788,808,829,849,869,889,909,929,948,968,989,1009,1028,1048,1069,1088,1108,1128,1148,1168,1188,1208,1228,1248,1268,1288,1308,1329,1348,1368,1389,1408,1429,1448,1470,1489,1508,1529,1548,1568,1589,1609],"xSR":741.5,"ySR":469.95,"xT1":424.9,"yT1":0,"xT2":1058.1,"yT2":0,"toosoon":0,"cond_shown":"equaldotsize","ratio_trial":250,"smaller_num":"1","larger_num":"4","correct_side":2,"subjID":"Samuel Avellaneda29","gender":"0","age":"9","school":"4"},{"start_time":1552054973263,"click_time":1552054974625,"finger_time":1552054974005,"fix_duration":935.2422109504482,"trial":9,"RT":742,"MT":620,"sideResp":1,"stimulus":"img/750/randomdotsizeEA/L/10_Ratio_750_L_4_R_3.png","xmouse":[803,803,803,803,803,803,803,803,803,803,803,803,803,803,803,803,803,803,803,803,803,803,803,803,803,803,803,803,803,803,803,803,803,803,803,802,777,758,734,716,706,703,702,702,697,690,676,629,612,598,594,594,594,594,594,594,594,594,594,594,594,594,594,542,540,536,532,525,523],"ymouse":[490,490,490,490,490,490,490,490,490,490,490,490,490,490,490,490,490,490,490,490,490,490,490,490,490,490,490,490,490,490,490,490,490,490,490,490,470,460,451,444,441,440,439,436,420,391,345,141,59,17,3,3,3,3,3,3,3,3,3,3,3,3,3,5,13,30,46,68,72],"timestamp_mouse":[15,35,42,62,82,103,123,143,162,182,202,222,242,262,282,302,323,342,362,383,402,422,443,463,483,503,522,543,563,583,602,623,643,663,683,703,723,742,762,783,802,823,842,862,882,904,923,942,962,983,1003,1022,1042,1063,1083,1102,1122,1142,1162,1183,1202,1223,1243,1262,1282,1303,1322,1342,1362],"xSR":741.5,"ySR":469.95,"xT1":424.9,"yT1":0,"xT2":1058.1,"yT2":0,"toosoon":0,"cond_shown":"randomdotsizeEA","ratio_trial":750,"smaller_num":"3","larger_num":"4","correct_side":1,"subjID":"Samuel Avellaneda29","gender":"0","age":"9","school":"4"},{"start_time":1552054975958,"click_time":1552054977005,"finger_time":1552054976607,"fix_duration":250,"trial":10,"RT":649,"MT":398,"sideResp":2,"stimulus":"img/750/randomdotsizeEA/R/2_Ratio_750_L_6_R_8.png","xmouse":[775,775,775,775,775,775,775,775,775,775,775,775,775,775,775,775,775,775,775,775,775,775,775,775,775,775,775,775,775,775,775,775,803,847,894,924,949,950,950,950,950,962,972,979,985,987,989,991,994,997,1004,1022,1059],"ymouse":[527,527,527,527,527,527,527,527,527,527,527,527,527,527,527,527,527,527,527,527,527,527,527,527,527,527,527,527,527,527,527,527,467,387,312,257,219,218,218,218,215,164,139,125,118,114,113,109,106,101,92,76,58],"timestamp_mouse":[11,28,48,68,87,107,129,148,167,189,208,227,247,267,289,307,328,347,367,387,407,428,447,469,487,507,528,548,569,588,608,627,649,667,687,707,729,747,768,787,807,828,847,867,887,908,928,947,968,987,1008,1028,1047],"xSR":741.5,"ySR":469.95,"xT1":424.9,"yT1":0,"xT2":1058.1,"yT2":0,"toosoon":0,"cond_shown":"randomdotsizeEA","ratio_trial":750,"smaller_num":"6","larger_num":"8","correct_side":2,"subjID":"Samuel Avellaneda29","gender":"0","age":"9","school":"4"},{"start_time":1552054979376,"click_time":1552054980466,"finger_time":1552054980106,"fix_duration":1490.47355538243,"trial":11,"RT":730,"MT":360,"sideResp":1,"stimulus":"img/900/equaldotanddens/R/7_Ratio_900_L_9_R_10.png","xmouse":[799,799,799,799,799,799,799,799,799,799,799,799,799,799,799,798,797,797,797,797,797,797,797,797,797,797,797,797,797,797,797,795,793,789,780,769,735,697,681,627,591,562,554,548,541,533,521,515,513,513,513,513,510,506,499],"ymouse":[485,485,485,485,485,485,485,485,485,485,485,485,485,485,487,488,490,491,491,491,491,491,491,491,491,491,491,491,491,491,491,491,491,490,487,480,460,439,429,394,361,319,305,294,284,269,242,223,212,200,185,152,133,114,99],"timestamp_mouse":[26,30,49,70,89,109,130,150,169,190,209,229,250,270,289,310,330,350,370,391,411,431,450,469,490,511,530,550,571,591,610,631,650,670,690,709,730,750,771,790,810,830,850,869,889,910,930,951,970,991,1010,1031,1049,1069,1090],"xSR":741.5,"ySR":469.95,"xT1":424.9,"yT1":0,"xT2":1058.1,"yT2":0,"toosoon":0,"cond_shown":"equaldotanddens","ratio_trial":900,"smaller_num":"9","larger_num":"10","correct_side":2,"subjID":"Samuel Avellaneda29","gender":"0","age":"9","school":"4"},{"start_time":1552054981677,"click_time":1552054982866,"finger_time":1552054982546,"fix_duration":369.57923475060426,"trial":12,"RT":869,"MT":320,"sideResp":2,"stimulus":"img/900/randomdotsizeEA/L/1_Ratio_900_L_10_R_9.png","xmouse":[790,790,790,790,790,790,790,790,790,790,790,790,790,790,790,790,790,790,790,790,790,790,790,790,790,790,790,790,790,790,790,790,790,790,790,790,790,790,790,790,790,790,793,801,821,844,881,891,901,906,913,933,958,974,989,1008,1039,1053,1063,1071],"ymouse":[490,490,490,490,490,490,490,490,490,490,490,490,490,490,490,490,490,490,490,490,490,490,490,490,490,490,490,490,490,490,490,490,490,490,490,490,490,490,490,490,490,490,484,464,429,389,334,321,311,307,302,281,253,237,218,196,149,126,105,86],"timestamp_mouse":[13,45,50,70,90,110,129,150,170,188,209,229,249,270,289,309,329,350,370,388,410,429,450,470,489,509,529,548,570,589,610,629,650,670,690,708,729,749,770,790,809,829,849,869,888,910,929,949,969,989,1008,1030,1048,1069,1089,1109,1130,1149,1169,1189],"xSR":741.5,"ySR":469.95,"xT1":424.9,"yT1":0,"xT2":1058.1,"yT2":0,"toosoon":0,"cond_shown":"randomdotsizeEA","ratio_trial":900,"smaller_num":"9","larger_num":"10","correct_side":1,"subjID":"Samuel Avellaneda29","gender":"0","age":"9","school":"4"},{"start_time":1552054984804,"click_time":1552054985826,"finger_time":1552054985526,"fix_duration":1056.0347662277215,"trial":13,"RT":722,"MT":300,"sideResp":1,"stimulus":"img/900/equaldotanddens/L/10_Ratio_900_L_20_R_18.png","xmouse":[800,800,800,801,801,801,801,801,801,801,801,802,802,802,802,802,802,802,803,803,803,803,803,803,803,803,803,803,803,803,803,803,803,794,789,762,704,671,646,632,625,618,613,605,587,565,548,548,548,547,541,482],"ymouse":[520,520,520,520,520,520,520,520,520,520,520,517,513,513,513,513,513,513,512,512,512,512,512,512,512,512,512,512,512,512,512,512,512,508,503,470,394,350,312,278,267,261,250,228,178,141,113,112,112,112,112,95],"timestamp_mouse":[12,34,42,63,82,101,122,142,163,183,203,221,242,262,283,302,322,342,362,383,402,423,442,462,483,503,523,542,562,583,603,622,641,662,683,702,722,742,762,783,803,822,842,862,881,903,922,942,962,981,1001,1022],"xSR":741.5,"ySR":469.95,"xT1":424.9,"yT1":0,"xT2":1058.1,"yT2":0,"toosoon":0,"cond_shown":"equaldotanddens","ratio_trial":900,"smaller_num":"18","larger_num":"20","correct_side":1,"subjID":"Samuel Avellaneda29","gender":"0","age":"9","school":"4"},{"start_time":1552054988337,"click_time":1552054990326,"finger_time":1552054989826,"fix_duration":250,"trial":14,"RT":1489,"MT":500,"sideResp":2,"stimulus":"img/750/equaldotanddens/R/5_Ratio_750_L_15_R_20.png","xmouse":[772,772,772,772,772,772,772,772,772,772,772,772,772,772,772,772,772,772,772,772,772,772,772,772,772,772,772,772,772,772,772,772,772,772,772,772,772,772,772,772,772,772,772,772,772,772,772,772,772,772,772,772,772,772,772,772,772,772,772,772,772,772,772,772,772,772,772,772,772,772,776,780,782,793,822,894,902,902,902,902,902,902,902,902,902,902,902,902,902,902,902,902,902,902,902,902,902,902,902,1157],"ymouse":[538,538,538,538,538,538,538,538,538,538,538,538,538,538,538,538,538,538,538,538,538,538,538,538,538,538,538,538,538,538,538,538,538,538,538,538,538,538,538,538,538,538,538,538,538,538,538,538,538,538,538,538,538,538,538,538,538,538,538,538,538,538,538,538,538,538,538,538,538,538,536,534,528,494,391,117,56,56,56,56,56,56,56,56,56,56,56,56,56,56,56,56,56,56,56,56,56,56,56,24],"timestamp_mouse":[15,40,48,68,90,108,129,150,169,190,209,230,250,268,289,310,330,349,368,390,410,430,450,469,489,510,530,549,570,589,610,629,649,669,689,710,730,750,769,788,809,830,850,870,890,909,929,950,970,989,1009,1029,1050,1070,1089,1110,1129,1149,1170,1189,1209,1230,1250,1269,1290,1309,1330,1349,1370,1389,1409,1429,1448,1469,1489,1509,1528,1548,1568,1589,1609,1629,1649,1669,1689,1708,1729,1748,1768,1789,1808,1829,1848,1869,1888,1909,1930,1950,1969,1989],"xSR":741.5,"ySR":469.95,"xT1":424.9,"yT1":0,"xT2":1058.1,"yT2":0,"toosoon":0,"cond_shown":"equaldotanddens","ratio_trial":750,"smaller_num":"15","larger_num":"20","correct_side":2,"subjID":"Samuel Avellaneda29","gender":"0","age":"9","school":"4"},{"start_time":1552054993795,"click_time":1552054999947,"finger_time":1552054995047,"fix_duration":665.8828241852655,"trial":15,"RT":1252,"MT":4900,"sideResp":1,"stimulus":"img/250/equaldotsize/L/5_Ratio_250_L_24_R_6.png","xmouse":[835,835,835,835,835,835,835,835,835,835,835,835,835,835,835,835,835,835,835,835,835,835,835,835,835,835,835,835,835,835,835,835,835,835,835,835,835,835,835,835,835,835,835,835,835,835,835,835,835,835,835,835,835,835,835,835,835,835,835,835,835,836,801,782,782,782,782,782,782,731,731,731,731,731,731,731,731,731,731,731,731,731,731,731,731,731,731,736,742,742,722,690,630,616,613,612,612,601,592,582,576,574,572,572,572,572,572,564,553,548,547,547,564,564,564,564,564,564,563,563,563,566,575,579,588,606,638,714,797,835,862,875,878,878,878,882,887,912,926,942,955,962,966,967,967,967,969,972,974,975,975,975,975,975,975,975,975,975,974,973,972,971,971,971,971,971,971,971,971,971,971,970,971,972,973,976,979,988,990,994,998,1003,1007,1008,1011,1012,1013,1013,1013,1013,1013,1013,1013,1013,1014,1015,1015,1016,1016,1016,1018,1019,1021,1022,1023,1023,1023,1023,1023,1024,1025,1025,1025,1025,1025,1025,1025,1025,1025,1025,1025,1025,1025,1025,1025,1025,1026,1028,1029,1031,1033,1035,1037,1037,1038,1040,1041,1041,1041,1041,1041,1041,1041,1041,1041,1041,1041,1041,1041,1041,1041,1041,1042,1042,1042,1042,1042,1042,1042,1042,1042,1042,1042,1042,1042,1042,1042,1042,1042,1042,1042,1042,1042,1042,1042,1043,1044,1044,1044,1044,1044,1044,1044,1044,1044,1044,1044,1044,1044,1044,1044,1044,1031,1011,983,932,881,746,703,664,635,620,611,611,603,589,562,462],"ymouse":[500,500,500,500,500,500,500,500,500,500,500,500,500,500,500,500,500,500,500,500,500,500,500,500,500,500,500,500,500,500,500,500,500,500,500,500,500,500,500,500,500,500,500,500,500,500,500,500,500,500,500,500,500,500,500,500,500,500,500,500,500,501,635,703,703,703,703,703,703,696,695,695,695,695,695,695,695,695,695,695,695,695,695,695,695,695,678,633,592,542,432,324,108,33,9,7,7,49,72,86,89,89,88,88,88,88,88,101,102,97,78,53,6,6,6,6,6,6,27,66,101,123,134,135,135,128,116,94,84,84,86,90,90,90,90,89,86,81,81,81,84,87,87,87,87,87,88,90,92,93,93,93,93,93,93,93,93,94,96,96,96,96,96,96,96,96,96,96,96,96,96,96,95,95,95,94,93,91,90,89,88,86,86,86,85,85,84,84,84,84,84,84,84,84,84,84,84,84,84,84,84,85,85,86,86,86,86,87,87,87,87,87,87,87,87,87,87,87,87,87,87,87,87,87,87,87,87,87,87,87,87,87,87,87,87,87,87,87,87,87,87,87,87,87,87,87,87,87,87,87,87,87,87,87,87,87,87,87,87,87,87,87,87,87,87,87,87,87,87,87,87,87,87,87,87,87,87,87,87,87,87,87,87,87,87,87,87,87,87,87,87,88,97,104,109,112,112,114,119,126,131,135,138,138,136,129,117,75],"timestamp_mouse":[13,33,51,72,92,112,132,152,172,192,210,230,251,270,291,311,332,351,372,391,411,432,451,471,491,511,532,550,572,591,612,632,652,672,691,712,732,751,771,792,812,832,851,871,891,912,932,951,972,992,1011,1031,1051,1071,1092,1111,1132,1150,1171,1191,1211,1231,1252,1271,1290,1311,1332,1351,1372,1391,1412,1432,1451,1472,1490,1510,1532,1551,1572,1592,1611,1631,1652,1672,1690,1710,1731,1751,1771,1790,1812,1831,1850,1871,1892,1911,1932,1951,1971,1991,2011,2030,2051,2071,2091,2112,2131,2151,2171,2191,2211,2230,2250,2271,2291,2311,2331,2350,2370,2391,2411,2431,2450,2472,2491,2511,2531,2550,2572,2590,2612,2630,2651,2671,2691,2711,2732,2751,2771,2790,2811,2831,2851,2871,2892,2912,2932,2951,2970,2991,3012,3032,3051,3071,3091,3111,3131,3152,3170,3190,3210,3231,3252,3271,3292,3311,3331,3351,3372,3391,3412,3432,3451,3470,3490,3510,3530,3551,3571,3591,3612,3631,3651,3671,3690,3711,3732,3751,3772,3792,3811,3831,3851,3872,3891,3911,3931,3952,3970,3990,4011,4031,4051,4071,4092,4111,4132,4151,4170,4190,4210,4231,4251,4271,4292,4310,4330,4351,4371,4392,4411,4432,4452,4472,4492,4510,4530,4551,4571,4591,4612,4631,4651,4671,4692,4711,4730,4751,4771,4791,4812,4831,4851,4871,4890,4910,4932,4951,4972,4991,5012,5031,5052,5072,5091,5111,5132,5151,5172,5192,5211,5232,5252,5272,5292,5310,5332,5351,5371,5392,5411,5431,5451,5471,5491,5510,5531,5551,5571,5592,5612,5631,5651,5672,5691,5711,5731,5751,5771,5792,5811,5831,5852,5870,5891,5912,5931,5952,5970,5991,6012,6032,6051,6071,6091,6111,6132,6152],"xSR":741.5,"ySR":469.95,"xT1":424.9,"yT1":0,"xT2":1058.1,"yT2":0,"toosoon":0,"cond_shown":"equaldotsize","ratio_trial":250,"smaller_num":"6","larger_num":"24","correct_side":1,"subjID":"Samuel Avellaneda29","gender":"0","age":"9","school":"4"},{"start_time":1552055005318,"click_time":1552055007087,"finger_time":1552055006385,"fix_duration":250,"trial":16,"RT":1067,"MT":702,"sideResp":1,"stimulus":"img/500/equaldotanddens/L/10_Ratio_500_L_4_R_2.png","xmouse":[823,823,823,823,824,824,824,824,824,824,824,824,824,824,823,823,823,822,821,821,821,821,821,821,821,821,821,821,821,821,821,821,821,821,821,821,821,821,821,821,821,821,821,821,821,821,821,821,821,821,821,821,809,782,748,713,681,639,629,625,625,625,625,625,625,625,625,625,623,600,567,501,338,262,193,161,149,146,148,151,154,156,159,175,194,225,275,401,464],"ymouse":[539,539,539,539,538,538,538,538,538,538,538,538,538,538,537,537,536,534,531,529,527,526,526,525,525,525,525,525,525,525,525,525,521,519,518,517,517,517,517,517,517,517,517,517,517,517,517,517,517,517,517,516,488,443,386,325,274,196,178,171,171,171,171,171,171,171,171,171,170,178,188,198,210,210,196,183,175,162,150,144,139,136,132,121,115,108,101,89,88],"timestamp_mouse":[10,33,48,68,89,109,128,149,169,188,208,228,248,268,288,307,327,348,368,388,408,428,447,468,489,508,528,548,568,588,608,628,648,668,689,708,728,749,767,789,809,828,847,867,888,909,928,949,969,988,1009,1027,1049,1067,1089,1109,1129,1149,1168,1188,1209,1228,1248,1268,1289,1308,1328,1348,1368,1387,1407,1427,1448,1468,1488,1508,1529,1548,1568,1588,1608,1628,1648,1667,1688,1708,1728,1747,1769],"xSR":741.5,"ySR":469.95,"xT1":424.9,"yT1":0,"xT2":1058.1,"yT2":0,"toosoon":0,"cond_shown":"equaldotanddens","ratio_trial":500,"smaller_num":"2","larger_num":"4","correct_side":1,"subjID":"Samuel Avellaneda29","gender":"0","age":"9","school":"4"},{"start_time":1552055009646,"click_time":1552055012006,"finger_time":1552055010847,"fix_duration":1418.8196734031935,"trial":17,"RT":1201,"MT":1159,"sideResp":2,"stimulus":"img/900/equaldotanddens/R/12_Ratio_900_L_18_R_20.png","xmouse":[807,807,807,807,807,807,807,807,807,807,808,809,811,811,811,811,811,811,811,811,811,811,811,811,811,811,811,811,811,811,811,811,811,811,811,811,811,811,811,811,811,811,811,811,811,811,811,811,811,811,811,811,811,811,811,811,811,811,819,828,851,870,886,889,891,891,891,891,891,891,898,911,955,980,1003,1030,1085,1107,1127,1138,1140,1136,1132,1132,1131,1131,1129,1126,1125,1124,1124,1124,1124,1122,1115,1100,1076,1044,1044,1044,1044,1044,1044,1044,1044,1044,1044,1044,1044,1044,1044,1044,1044,1044,1044,1044,1044,1044,1089],"ymouse":[488,488,488,488,488,488,488,488,488,488,488,491,497,497,497,497,497,497,497,497,497,497,497,497,497,497,497,497,497,497,497,497,497,497,497,497,497,497,497,497,497,497,497,497,497,497,497,497,497,497,497,497,497,497,497,497,497,497,497,493,477,464,450,447,445,445,445,445,445,445,437,426,408,399,390,379,353,341,328,319,313,307,303,303,302,302,302,301,299,296,293,290,281,273,251,214,153,3,3,3,3,3,3,3,3,3,3,3,3,3,3,3,3,3,3,3,3,3,5],"timestamp_mouse":[16,29,45,61,79,100,121,140,161,180,200,220,241,260,280,300,320,341,360,379,400,421,440,460,481,500,520,540,560,581,601,619,639,661,680,701,721,740,760,780,800,820,840,860,880,900,920,940,960,979,1000,1020,1039,1059,1079,1100,1121,1141,1161,1181,1201,1221,1240,1260,1280,1301,1321,1340,1360,1380,1400,1420,1440,1460,1480,1500,1521,1540,1560,1580,1600,1619,1640,1661,1681,1700,1720,1740,1760,1780,1800,1820,1841,1860,1880,1901,1920,1940,1961,1979,1999,2019,2040,2059,2080,2100,2119,2140,2161,2181,2201,2221,2240,2260,2280,2300,2320,2340,2360],"xSR":741.5,"ySR":469.95,"xT1":424.9,"yT1":0,"xT2":1058.1,"yT2":0,"toosoon":0,"cond_shown":"equaldotanddens","ratio_trial":900,"smaller_num":"18","larger_num":"20","correct_side":2,"subjID":"Samuel Avellaneda29","gender":"0","age":"9","school":"4"},{"start_time":1552055014861,"click_time":1552055016486,"finger_time":1552055015665,"fix_duration":1491.5950327898283,"trial":18,"RT":804,"MT":821,"sideResp":1,"stimulus":"img/900/equaldotsize/L/10_Ratio_900_L_20_R_18.png","xmouse":[795,795,795,795,795,795,795,795,795,795,795,795,795,795,795,795,795,795,795,795,795,795,795,795,795,795,795,795,795,795,795,795,795,795,795,795,795,796,789,745,690,629,622,617,609,596,534,503,432,400,383,377,375,375,375,375,375,375,375,375,375,375,375,375,375,375,375,375,375,382,387,399,401,401,401,403,406,408,410,414,421,433],"ymouse":[519,519,519,519,519,519,519,519,519,519,519,519,519,519,519,519,519,519,519,519,519,519,519,519,519,519,519,519,519,519,519,519,519,519,519,519,519,519,515,487,449,383,356,339,323,308,249,226,164,133,108,89,49,29,9,9,9,9,9,9,9,9,9,9,9,9,9,9,9,17,39,69,72,74,74,74,72,71,70,70,70,74],"timestamp_mouse":[14,44,46,65,86,105,126,144,164,184,206,225,246,265,285,305,325,344,365,386,405,425,445,465,484,504,525,544,566,586,605,625,645,664,685,706,725,746,765,785,804,825,845,866,884,905,925,945,965,985,1005,1025,1044,1065,1085,1105,1125,1146,1165,1186,1206,1225,1246,1265,1286,1305,1326,1345,1364,1386,1405,1426,1444,1465,1486,1506,1527,1544,1566,1586,1606,1625],"xSR":741.5,"ySR":469.95,"xT1":424.9,"yT1":0,"xT2":1058.1,"yT2":0,"toosoon":0,"cond_shown":"equaldotsize","ratio_trial":900,"smaller_num":"18","larger_num":"20","correct_side":1,"subjID":"Samuel Avellaneda29","gender":"0","age":"9","school":"4"},{"start_time":1552055019552,"click_time":1552055020746,"finger_time":1552055020326,"fix_duration":1004.3430904848692,"trial":19,"RT":774,"MT":420,"sideResp":2,"stimulus":"img/500/equaldotsize/R/2_Ratio_500_L_3_R_6.png","xmouse":[764,764,763,763,765,766,767,770,770,770,770,770,772,773,773,773,773,773,772,772,772,772,772,772,772,772,772,772,772,772,772,772,772,772,772,772,773,778,780,782,784,787,795,801,812,823,838,873,884,889,891,895,914,931,950,971,985,1011,1026,1064],"ymouse":[552,552,553,553,553,552,552,550,550,550,550,549,548,547,547,547,547,547,547,547,548,549,550,550,550,550,550,550,550,550,550,550,550,549,542,531,520,483,467,453,443,426,406,394,382,369,354,342,339,338,337,335,322,312,300,279,253,170,126,53],"timestamp_mouse":[14,37,54,73,94,114,134,154,174,194,215,233,254,275,295,315,334,353,375,395,414,435,454,475,495,513,535,555,573,595,615,635,655,674,694,713,733,754,774,794,814,833,853,874,894,913,933,954,974,995,1014,1034,1053,1074,1094,1114,1133,1154,1174,1194],"xSR":741.5,"ySR":469.95,"xT1":424.9,"yT1":0,"xT2":1058.1,"yT2":0,"toosoon":0,"cond_shown":"equaldotsize","ratio_trial":500,"smaller_num":"3","larger_num":"6","correct_side":2,"subjID":"Samuel Avellaneda29","gender":"0","age":"9","school":"4"},{"start_time":1552055022219,"click_time":1552055023567,"finger_time":1552055022806,"fix_duration":250,"trial":20,"RT":587,"MT":761,"sideResp":2,"stimulus":"img/500/equaldotanddens/R/3_Ratio_500_L_10_R_20.png","xmouse":[774,774,774,774,774,774,774,774,774,774,774,774,774,774,774,774,774,774,774,774,774,774,774,774,773,772,771,771,770,769,769,769,769,771,778,790,796,814,826,853,868,883,898,910,920,923,931,935,941,966,979,988,994,997,999,1000,1006,1011,1015,1031,1038,1044,1048,1050,1051,1053,1056,1060],"ymouse":[484,484,484,484,484,484,484,484,484,484,484,484,484,484,484,484,484,484,484,484,484,484,484,483,479,476,475,474,472,465,460,454,443,428,382,344,332,301,285,244,222,199,175,157,125,112,98,94,89,82,78,73,71,70,69,69,69,69,69,69,69,69,69,69,69,69,68,68],"timestamp_mouse":[11,39,47,66,87,108,128,146,168,188,207,227,247,267,286,307,328,347,367,388,407,427,448,467,487,508,528,546,566,587,607,626,646,666,687,706,728,748,767,788,807,827,847,867,888,907,927,946,967,987,1006,1028,1047,1067,1087,1107,1126,1146,1166,1187,1207,1228,1247,1268,1287,1308,1326,1348],"xSR":741.5,"ySR":469.95,"xT1":424.9,"yT1":0,"xT2":1058.1,"yT2":0,"toosoon":0,"cond_shown":"equaldotanddens","ratio_trial":500,"smaller_num":"10","larger_num":"20","correct_side":2,"subjID":"Samuel Avellaneda29","gender":"0","age":"9","school":"4"},{"start_time":1552055024978,"click_time":1552055054366,"finger_time":1552055025086,"fix_duration":250,"trial":21,"RT":108,"MT":29280,"sideResp":1,"stimulus":"img/500/randomdotsizeEA/L/7_Ratio_500_L_10_R_5.png","xmouse":[748,748,748,746,744,740,735,733,733,733,733,733,733,733,733,733,733,733,733,733,733,733,733,733,733,733,733,733,733,732,730,720,711,698,683,661,580,545,515,496,482,481,481,481,481,481,481,481,481,481,481,481,481,481,481,481,481,481,481,483,488,499,505,508,512,515,516,517,517,516,516,516,515,514,512,507,497,497,496,494,487,469,465,463,463,461,460,460,459,458,454,450,450,450,450,450,450,450,450,450,450,450,450,450,450,450,450,450,450,450,450,450,450,450,450,450,450,450,450,450,450,450,450,450,450,450,450,450,450,450,450,450,450,450,450,450,450,450,450,450,450,450,450,450,450,450,450,450,450,450,450,450,450,450,450,450,450,450,450,450,450,450,450,450,450,450,450,450,450,450,450,450,450,450,450,450,450,450,450,450,450,450,450,450,450,450,450,450,450,450,450,450,450,450,450,450,450,450,450,450,450,450,450,450,450,450,450,450,450,450,450,450,450,450,450,450,450,450,450,450,450,450,450,450,450,450,450,450,450,450,450,450,450,450,450,450,450,450,450,450,450,450,450,450,450,450,450,450,450,450,450,450,450,450,450,450,450,450,450,450,450,450,450,450,450,450,450,450,450,450,450,450,450,450,450,450,450,450,450,450,450,450,450,450,450,450,450,450,450,450,450,450,450,450,450,450,450,450,450,450,450,450,450,450,450,450,450,450,450,450,450,450,450,450,450,450,450,450,450,450,450,450,450,450,450,450,450,450,450,450,450,450,450,450,450,450,450,450,450,450,450,450,450,450,450,450,450,450,450,450,450,450,450,450,450,450,450,450,450,450,450,450,450,450,450,450,450,450,450,450,450,450,450,450,450,450,450,450,450,450,450,450,450,450,450,450,450,450,450,450,450,450,450,450,450,450,450,450,450,450,450,450,450,450,450,450,450,450,450,450,450,450,450,450,450,450,450,450,450,450,450,450,450,450,450,450,450,450,450,450,450,450,450,450,450,450,450,450,450,450,450,450,450,450,450,450,450,450,450,450,450,450,450,450,450,450,450,450,450,450,450,450,450,450,450,450,450,450,450,450,450,450,450,450,450,450,450,450,450,450,450,450,450,450,450,450,450,450,450,450,450,450,450,450,450,450,450,450,450,450,450,450,450,450,450,450,450,450,450,450,450,450,450,450,450,450,450,450,450,450,450,450,450,450,450,450,450,450,450,450,450,450,450,450,450,450,450,450,450,450,450,450,450,450,450,450,450,450,450,450,450,450,450,450,450,450,450,450,450,450,450,450,450,450,450,450,450,450,450,450,450,450,450,450,450,450,450,450,450,450,450,450,450,450,450,450,450,450,450,450,450,450,450,450,450,450,450,450,450,450,450,450,450,450,450,450,450,450,450,450,450,450,450,450,450,450,450,450,450,450,450,450,450,450,450,450,450,450,450,450,450,450,450,450,450,450,450,450,450,450,450,450,450,450,450,450,450,450,450,450,450,450,450,450,450,450,450,450,450,450,450,450,450,450,450,450,450,450,450,450,450,450,450,450,450,450,450,450,450,450,450,450,450,450,450,450,450,450,450,450,450,450,450,450,450,450,450,450,450,450,450,450,450,450,450,450,450,450,450,450,450,450,450,450,450,450,450,450,450,450,450,450,450,450,450,450,450,450,450,450,450,450,450,450,450,450,450,450,450,450,450,450,450,450,450,450,450,450,450,450,450,450,450,450,450,450,450,450,450,450,450,450,450,450,450,450,450,450,450,450,450,450,450,450,450,450,450,450,450,450,450,450,450,450,450,450,450,450,450,450,450,450,450,450,450,450,450,450,450,450,450,450,450,450,450,450,450,450,450,450,450,450,450,450,450,450,450,450,450,450,450,450,450,450,450,450,450,450,450,450,450,450,450,450,450,450,450,450,450,450,450,450,450,450,450,450,450,450,450,450,450,450,450,450,450,450,450,450,450,450,450,450,450,450,450,450,450,450,450,450,450,450,450,450,450,450,450,450,450,450,450,450,450,450,450,450,450,450,450,450,450,450,450,450,450,450,450,450,450,450,450,450,450,450,450,450,450,450,450,450,450,450,450,450,450,450,450,450,450,450,450,450,450,450,450,450,450,450,450,450,450,450,450,450,450,450,450,450,450,450,450,450,450,450,450,450,450,450,450,450,450,450,450,450,450,450,450,450,450,450,450,450,450,450,450,450,450,450,450,450,450,450,450,450,450,450,450,450,450,450,450,450,450,450,450,450,450,450,450,450,450,450,450,450,450,450,450,450,450,450,450,450,450,450,450,450,450,450,450,450,450,450,450,450,450,450,450,450,450,450,450,450,450,450,450,450,450,450,450,450,450,450,450,450,450,450,450,450,450,450,450,450,450,450,450,450,450,450,450,450,450,450,450,450,450,450,450,450,450,450,450,450,450,450,450,450,450,450,450,450,450,450,450,450,450,450,450,450,450,450,450,450,450,450,450,450,450,450,450,450,450,450,450,450,450,450,450,450,450,450,450,450,450,450,450,450,450,450,450,450,450,450,450,450,450,450,450,450,450,450,450,450,450,450,450,450,450,450,450,450,450,450,450,450,450,450,450,450,450,450,450,450,450,450,450,450,450,450,450,450,450,450,450,450,450,450,450,450,450,450,450,450,450,450,450,450,450,450,450,450,450,450,450,450,450,450,450,450,450,450,450,450,450,450,450,450,450,450,450,450,450,450,450,450,450,450,450,450,450,450,450,450,450,450,450,450,450,450,450,450,450,450,450,450,450,450,450,450,450,450,450,450,450,450,450,450,450,450,450,450,450,450,450,450,450,450,450,450,450,450,450,450,450,450,450,450,450,450,450,450,450,450,450,450,450,450,450,450,450,450,450,450,450,450,450,450,450,450,450,450,450,450,450,450,450,450,450,450,450,450,450,450,450,450,450,450,450,450,450,450,450,450,450,450,450,450,450,450,450,450,450,450,450,450,450,450,450,450,450,450,450,450,450,450,450,450,450,450,450,450,450,450,450,450,450,450,450,450,450,450,450,450,450,450,450,450,450,450,450,450,450,450,450,450,450,450,450,450,450,450,450,450,450,450,450,450,450,450,450,450,450,450,450,450,450,450,450,450,450,450,450,450,450,450,450,450,450,450,450,450,450,450,450,450,450,450,450,450,450,450,450,450,450,450,450,450,450,450,450,450,450,450,450,450,450,450,450,450,450,450,450,450,450,450,450,450,450,450,450,450,450,450,450,450,450,450,450,450,450,450,450,450,450,450,450,456,456,455,441,382,340,305,292,289,289,305,326,349,360,363,363,363,363,363,363,376,384,386,383,376,370,370,379,394,424,449,457,464,480,498],"ymouse":[499,499,499,497,493,488,481,479,479,479,478,478,478,478,478,478,478,478,478,478,478,478,478,478,478,478,478,478,478,476,473,459,446,431,411,387,298,260,232,216,207,205,205,205,205,205,205,205,205,205,205,205,205,205,205,205,205,205,205,212,220,247,262,276,284,291,295,306,313,323,331,336,341,343,350,363,393,396,396,396,385,363,362,361,361,363,394,401,408,415,429,449,452,455,456,458,458,458,458,458,458,458,458,458,458,458,458,458,458,458,458,458,458,458,458,458,458,458,458,458,458,458,458,458,458,458,458,458,458,458,458,458,458,458,458,458,458,458,458,458,458,458,458,458,458,458,458,458,458,458,458,458,458,458,458,458,458,458,458,458,458,458,458,458,458,458,458,458,458,458,458,458,458,458,458,458,458,458,458,458,458,458,458,458,458,458,458,458,458,458,458,458,458,458,458,458,458,458,458,458,458,458,458,458,458,458,458,458,458,458,458,458,458,458,458,458,458,458,458,458,458,458,458,458,458,458,458,458,458,458,458,458,458,458,458,458,458,458,458,458,458,458,458,458,458,458,458,458,458,458,458,458,458,458,458,458,458,458,458,458,458,458,458,458,458,458,458,458,458,458,458,458,458,458,458,458,458,458,458,458,458,458,458,458,458,458,458,458,458,458,458,458,458,458,458,458,458,458,458,458,458,458,458,458,458,458,458,458,458,458,458,458,458,458,458,458,458,458,458,458,458,458,458,458,458,458,458,458,458,458,458,458,458,458,458,458,458,458,458,458,458,458,458,458,458,458,458,458,458,458,458,458,458,458,458,458,458,458,458,458,458,458,458,458,458,458,458,458,458,458,458,458,458,458,458,458,458,458,458,458,458,458,458,458,458,458,458,458,458,458,458,458,458,458,458,458,458,458,458,458,458,458,458,458,458,458,458,458,458,458,458,458,458,458,458,458,458,458,458,458,458,458,458,458,458,458,458,458,458,458,458,458,458,458,458,458,458,458,458,458,458,458,458,458,458,458,458,458,458,458,458,458,458,458,458,458,458,458,458,458,458,458,458,458,458,458,458,458,458,458,458,458,458,458,458,458,458,458,458,458,458,458,458,458,458,458,458,458,458,458,458,458,458,458,458,458,458,458,458,458,458,458,458,458,458,458,458,458,458,458,458,458,458,458,458,458,458,458,458,458,458,458,458,458,458,458,458,458,458,458,458,458,458,458,458,458,458,458,458,458,458,458,458,458,458,458,458,458,458,458,458,458,458,458,458,458,458,458,458,458,458,458,458,458,458,458,458,458,458,458,458,458,458,458,458,458,458,458,458,458,458,458,458,458,458,458,458,458,458,458,458,458,458,458,458,458,458,458,458,458,458,458,458,458,458,458,458,458,458,458,458,458,458,458,458,458,458,458,458,458,458,458,458,458,458,458,458,458,458,458,458,458,458,458,458,458,458,458,458,458,458,458,458,458,458,458,458,458,458,458,458,458,458,458,458,458,458,458,458,458,458,458,458,458,458,458,458,458,458,458,458,458,458,458,458,458,458,458,458,458,458,458,458,458,458,458,458,458,458,458,458,458,458,458,458,458,458,458,458,458,458,458,458,458,458,458,458,458,458,458,458,458,458,458,458,458,458,458,458,458,458,458,458,458,458,458,458,458,458,458,458,458,458,458,458,458,458,458,458,458,458,458,458,458,458,458,458,458,458,458,458,458,458,458,458,458,458,458,458,458,458,458,458,458,458,458,458,458,458,458,458,458,458,458,458,458,458,458,458,458,458,458,458,458,458,458,458,458,458,458,458,458,458,458,458,458,458,458,458,458,458,458,458,458,458,458,458,458,458,458,458,458,458,458,458,458,458,458,458,458,458,458,458,458,458,458,458,458,458,458,458,458,458,458,458,458,458,458,458,458,458,458,458,458,458,458,458,458,458,458,458,458,458,458,458,458,458,458,458,458,458,458,458,458,458,458,458,458,458,458,458,458,458,458,458,458,458,458,458,458,458,458,458,458,458,458,458,458,458,458,458,458,458,458,458,458,458,458,458,458,458,458,458,458,458,458,458,458,458,458,458,458,458,458,458,458,458,458,458,458,458,458,458,458,458,458,458,458,458,458,458,458,458,458,458,458,458,458,458,458,458,458,458,458,458,458,458,458,458,458,458,458,458,458,458,458,458,458,458,458,458,458,458,458,458,458,458,458,458,458,458,458,458,458,458,458,458,458,458,458,458,458,458,458,458,458,458,458,458,458,458,458,458,458,458,458,458,458,458,458,458,458,458,458,458,458,458,458,458,458,458,458,458,458,458,458,458,458,458,458,458,458,458,458,458,458,458,458,458,458,458,458,458,458,458,458,458,458,458,458,458,458,458,458,458,458,458,458,458,458,458,458,458,458,458,458,458,458,458,458,458,458,458,458,458,458,458,458,458,458,458,458,458,458,458,458,458,458,458,458,458,458,458,458,458,458,458,458,458,458,458,458,458,458,458,458,458,458,458,458,458,458,458,458,458,458,458,458,458,458,458,458,458,458,458,458,458,458,458,458,458,458,458,458,458,458,458,458,458,458,458,458,458,458,458,458,458,458,458,458,458,458,458,458,458,458,458,458,458,458,458,458,458,458,458,458,458,458,458,458,458,458,458,458,458,458,458,458,458,458,458,458,458,458,458,458,458,458,458,458,458,458,458,458,458,458,458,458,458,458,458,458,458,458,458,458,458,458,458,458,458,458,458,458,458,458,458,458,458,458,458,458,458,458,458,458,458,458,458,458,458,458,458,458,458,458,458,458,458,458,458,458,458,458,458,459,459,459,459,459,459,459,459,459,459,459,459,459,459,459,459,459,459,459,459,459,459,459,459,459,459,459,459,459,459,459,459,459,459,459,459,459,459,459,459,459,459,459,459,459,459,459,459,459,459,459,459,459,459,459,459,459,459,459,459,459,459,459,459,459,459,459,459,459,459,459,459,459,459,459,459,459,459,459,459,459,459,459,459,459,459,459,459,459,459,459,459,459,459,459,459,459,459,459,459,459,459,459,459,459,459,459,459,459,459,459,459,459,459,459,459,459,459,459,459,459,459,459,459,459,459,459,459,459,459,459,459,459,459,459,459,459,459,459,459,459,459,459,459,459,459,459,459,459,459,459,459,459,459,459,459,459,459,459,459,459,459,459,459,459,459,459,459,459,459,459,459,459,459,459,459,459,459,459,459,459,459,459,459,459,459,459,459,459,459,459,459,459,459,459,459,459,459,459,459,417,362,323,305,276,262,248,242,236,234,229,229,235,236,236,236,236,236,236,236,227,217,215,213,205,197,193,186,178,161,143,133,122,101,79],"timestamp_mouse":[19,29,48,69,87,108,128,148,169,188,207,227,248,269,289,309,328,348,368,389,409,429,448,469,489,508,529,548,569,589,607,629,648,668,688,707,730,747,767,788,808,828,849,868,888,909,929,949,968,987,1009,1028,1048,1069,1088,1107,1129,1148,1167,1189,1208,1229,1248,1268,1288,1308,1328,1349,1368,1388,1409,1429,1447,1469,1489,1509,1529,1548,1568,1587,1607,1629,1648,1668,1688,1708,1729,1747,1768,1788,1807,1829,1847,1868,1888,1908,1929,1949,1969,1989,2009,2028,2048,2067,2087,2108,2129,2148,2169,2189,2209,2228,2248,2268,2289,2308,2329,2348,2368,2389,2408,2429,2447,2468,2489,2508,2529,2548,2568,2589,2608,2629,2649,2669,2688,2709,2729,2749,2768,2789,2808,2829,2848,2868,2888,2909,2929,2948,2969,2989,3008,3029,3047,3068,3088,3107,3128,3148,3169,3188,3208,3229,3247,3268,3289,3309,3328,3349,3368,3388,3409,3429,3448,3467,3489,3508,3529,3547,3568,3589,3608,3628,3647,3668,3688,3709,3729,3748,3769,3787,3808,3829,3848,3869,3888,3908,3929,3949,3968,3989,4008,4028,4047,4067,4088,4108,4129,4148,4169,4188,4209,4228,4247,4268,4288,4308,4329,4349,4369,4389,4409,4429,4449,4467,4488,4508,4529,4548,4568,4587,4609,4629,4648,4669,4688,4709,4729,4748,4768,4788,4808,4829,4848,4869,4888,4909,4927,4948,4967,4989,5008,5029,5047,5069,5088,5108,5128,5149,5168,5189,5208,5228,5249,5268,5289,5308,5328,5348,5368,5389,5409,5427,5447,5467,5488,5507,5529,5568,5570,5589,5608,5629,5648,5668,5689,5708,5729,5748,5769,5789,5807,5828,5847,5868,5888,5909,5928,5948,5969,5988,6008,6029,6048,6068,6089,6108,6129,6148,6168,6189,6207,6229,6249,6269,6289,6308,6328,6348,6369,6389,6408,6427,6447,6469,6488,6508,6528,6548,6568,6589,6608,6628,6648,6668,6688,6707,6727,6748,6769,6789,6809,6829,6849,6868,6889,6908,6927,6948,6969,6987,7009,7028,7048,7068,7089,7108,7128,7148,7168,7189,7208,7228,7248,7268,7289,7309,7329,7349,7369,7388,7408,7430,7447,7468,7488,7508,7528,7547,7567,7587,7609,7628,7648,7668,7689,7708,7729,7748,7768,7789,7808,7828,7849,7869,7889,7907,7927,7948,7969,7988,8008,8028,8048,8069,8088,8108,8128,8149,8168,8189,8208,8229,8249,8269,8288,8307,8327,8348,8368,8388,8409,8429,8448,8467,8489,8509,8528,8548,8568,8588,8608,8627,8647,8668,8689,8708,8728,8752,8769,8787,8807,8828,8849,8868,8889,8908,8928,8948,8968,8987,9007,9029,9048,9068,9089,9108,9127,9147,9168,9188,9208,9229,9248,9268,9288,9309,9329,9348,9368,9388,9409,9428,9448,9468,9487,9508,9529,9549,9569,9589,9609,9628,9648,9668,9688,9708,9728,9748,9768,9788,9808,9828,9848,9868,9889,9907,9928,9948,9968,9989,10008,10027,10049,10069,10088,10109,10128,10149,10167,10189,10208,10228,10248,10268,10288,10309,10328,10349,10368,10388,10408,10429,10448,10468,10487,10508,10529,10549,10569,10588,10608,10628,10649,10669,10689,10708,10728,10749,10767,10788,10808,10827,10848,10869,10889,10909,10929,10949,10969,10989,11008,11029,11049,11069,11089,11109,11127,11149,11168,11188,11208,11228,11249,11268,11288,11308,11328,11349,11368,11389,11408,11429,11449,11469,11488,11509,11528,11548,11568,11588,11608,11628,11648,11668,11689,11709,11728,11747,11768,11789,11808,11828,11849,11868,11888,11909,11928,11948,11967,11988,12009,12028,12048,12068,12088,12109,12129,12148,12169,12189,12208,12228,12248,12269,12289,12309,12328,12348,12368,12388,12409,12428,12449,12467,12488,12509,12528,12548,12568,12589,12609,12628,12648,12668,12688,12709,12728,12749,12768,12788,12808,12828,12848,12867,12888,12909,12929,12948,12968,12987,13008,13027,13049,13068,13088,13109,13128,13148,13167,13188,13209,13229,13248,13268,13288,13307,13328,13349,13368,13389,13409,13429,13449,13468,13489,13509,13529,13548,13568,13589,13607,13627,13649,13668,13689,13708,13727,13747,13768,13788,13809,13828,13848,13868,13888,13907,13928,13948,13969,13988,14008,14028,14049,14068,14088,14109,14127,14148,14169,14189,14209,14228,14250,14267,14288,14309,14327,14348,14368,14389,14409,14428,14449,14467,14488,14508,14528,14548,14568,14589,14609,14629,14648,14668,14687,14709,14728,14749,14767,14788,14808,14828,14848,14868,14889,14909,14928,14948,14968,14988,15008,15029,15048,15068,15089,15108,15128,15147,15168,15187,15209,15228,15249,15268,15288,15307,15327,15349,15368,15389,15408,15429,15448,15468,15487,15507,15528,15549,15569,15589,15609,15627,15648,15668,15689,15708,15729,15748,15768,15788,15808,15829,15848,15868,15889,15908,15928,15949,15968,15988,16007,16028,16047,16068,16088,16108,16128,16149,16168,16189,16208,16227,16247,16267,16289,16308,16328,16348,16369,16388,16408,16427,16449,16468,16488,16509,16528,16549,16568,16589,16609,16628,16647,16668,16687,16708,16727,16748,16768,16788,16808,16827,16848,16869,16888,16909,16929,16948,16968,16987,17008,17029,17048,17069,17089,17109,17129,17148,17167,17188,17208,17229,17248,17269,17288,17307,17328,17348,17369,17388,17408,17428,17447,17469,17489,17508,17528,17549,17568,17588,17607,17627,17649,17668,17688,17708,17729,17748,17768,17788,17808,17829,17848,17869,17889,17909,17928,17949,17969,17989,18008,18028,18048,18068,18088,18109,18128,18149,18168,18189,18208,18227,18248,18268,18288,18309,18327,18347,18369,18388,18409,18428,18449,18468,18488,18508,18529,18548,18568,18588,18609,18628,18649,18669,18687,18709,18728,18748,18768,18787,18807,18828,18848,18869,18888,18908,18928,18948,18969,18988,19009,19028,19048,19069,19088,19107,19128,19147,19169,19188,19208,19229,19249,19268,19289,19308,19328,19348,19369,19389,19409,19429,19447,19467,19488,19508,19529,19548,19569,19588,19608,19627,19647,19669,19689,19708,19728,19749,19769,19788,19808,19829,19848,19868,19889,19908,19928,19947,19969,19988,20008,20029,20048,20069,20088,20109,20129,20149,20169,20188,20208,20228,20248,20269,20288,20308,20328,20348,20369,20387,20408,20427,20448,20469,20489,20507,20527,20548,20568,20588,20609,20628,20649,20669,20688,20708,20728,20748,20768,20788,20808,20828,20849,20869,20889,20909,20928,20949,20968,20989,21009,21028,21048,21069,21087,21107,21128,21148,21169,21188,21208,21227,21248,21269,21289,21309,21328,21348,21368,21388,21407,21427,21448,21469,21488,21508,21528,21549,21568,21588,21608,21629,21648,21667,21687,21708,21728,21748,21769,21788,21808,21829,21848,21869,21889,21909,21929,21948,21968,21987,22008,22028,22047,22069,22088,22108,22128,22148,22167,22187,22208,22228,22249,22269,22289,22308,22328,22348,22368,22388,22408,22429,22448,22469,22488,22508,22529,22549,22567,22588,22608,22628,22649,22668,22688,22708,22728,22748,22768,22789,22809,22828,22849,22868,22887,22907,22928,22949,22968,22988,23008,23028,23048,23068,23087,23108,23127,23149,23168,23188,23209,23228,23247,23269,23287,23308,23328,23349,23368,23387,23407,23427,23448,23468,23488,23508,23528,23548,23568,23588,23608,23628,23648,23668,23688,23707,23729,23748,23769,23788,23807,23827,23848,23867,23888,23907,23928,23948,23969,23989,24008,24028,24048,24069,24088,24109,24128,24149,24169,24188,24207,24229,24249,24268,24288,24309,24328,24348,24369,24387,24409,24428,24448,24468,24488,24509,24529,24548,24568,24588,24608,24629,24648,24668,24688,24709,24728,24748,24767,24789,24809,24828,24848,24869,24888,24908,24927,24948,24969,24989,25009,25028,25048,25067,25089,25109,25129,25149,25169,25188,25207,25228,25247,25269,25288,25309,25328,25348,25369,25388,25408,25428,25449,25469,25489,25508,25528,25549,25568,25589,25609,25628,25649,25668,25689,25709,25728,25748,25767,25788,25808,25827,25848,25868,25889,25908,25929,25947,25967,25987,26007,26028,26049,26069,26088,26108,26128,26148,26168,26189,26209,26228,26249,26267,26288,26309,26328,26348,26369,26389,26409,26429,26448,26469,26488,26507,26527,26549,26569,26589,26608,26628,26648,26668,26688,26708,26728,26747,26767,26788,26808,26828,26849,26868,26888,26908,26928,26948,26968,26989,27008,27029,27048,27069,27088,27108,27127,27149,27168,27188,27208,27229,27248,27267,27289,27308,27328,27348,27369,27389,27408,27429,27447,27468,27488,27509,27528,27549,27568,27589,27607,27627,27648,27668,27689,27709,27728,27749,27769,27788,27808,27829,27848,27869,27887,27908,27928,27949,27968,27988,28007,28028,28047,28068,28089,28108,28129,28148,28168,28189,28209,28228,28249,28268,28289,28308,28328,28348,28369,28389,28408,28428,28448,28469,28489,28508,28529,28549,28569,28588,28608,28629,28649,28667,28688,28707,28728,28748,28768,28789,28807,28829,28848,28869,28888,28908,28928,28948,28968,28988,29007,29029,29049,29069,29089,29108,29128,29148,29168,29188,29207,29228,29248,29269,29287,29307,29328,29348,29368,29388],"xSR":741.5,"ySR":469.95,"xT1":424.9,"yT1":0,"xT2":1058.1,"yT2":0,"toosoon":0,"cond_shown":"randomdotsizeEA","ratio_trial":500,"smaller_num":"5","larger_num":"10","correct_side":1,"subjID":"Samuel Avellaneda29","gender":"0","age":"9","school":"4"},{"start_time":1552055057238,"click_time":1552055058247,"finger_time":1552055057867,"fix_duration":1349.7508228687518,"trial":22,"RT":629,"MT":380,"sideResp":2,"stimulus":"img/250/equaldotanddens/R/6_Ratio_250_L_6_R_24.png","xmouse":[806,806,806,806,806,806,806,806,806,806,806,806,806,806,806,806,806,806,806,806,806,806,806,806,806,806,806,806,806,806,816,834,866,884,900,917,930,943,952,958,965,971,974,975,978,983,992,1006,1018,1043,1059],"ymouse":[516,516,516,516,516,516,516,516,516,516,516,516,516,516,516,516,516,516,516,516,516,516,516,516,516,516,516,516,516,510,486,429,314,257,219,186,162,130,114,107,104,103,103,103,104,105,107,108,105,86,75],"timestamp_mouse":[11,36,49,68,87,109,128,149,169,189,207,229,249,268,289,307,329,349,368,388,408,429,449,469,488,507,529,548,568,588,608,629,647,668,688,707,728,748,767,787,808,827,848,867,888,907,928,948,968,988,1009],"xSR":741.5,"ySR":469.95,"xT1":424.9,"yT1":0,"xT2":1058.1,"yT2":0,"toosoon":0,"cond_shown":"equaldotanddens","ratio_trial":250,"smaller_num":"6","larger_num":"24","correct_side":2,"subjID":"Samuel Avellaneda29","gender":"0","age":"9","school":"4"},{"start_time":1552055063136,"click_time":1552055064066,"finger_time":1552055063705,"fix_duration":1389.5033296984604,"trial":23,"RT":569,"MT":361,"sideResp":2,"stimulus":"img/250/equaldotanddens/R/12_Ratio_250_L_5_R_20.png","xmouse":[780,780,780,780,780,780,780,780,780,780,780,780,780,780,780,780,780,783,804,824,833,835,835,835,835,835,836,836,858,880,901,914,954,971,998,1018,1040,1056,1084,1095,1105,1115,1119,1121,1121,1121,1121],"ymouse":[542,542,542,542,542,542,542,542,542,542,542,542,542,542,542,542,542,542,551,554,554,554,554,554,554,554,554,552,514,479,451,433,387,362,324,296,267,244,198,178,161,139,126,108,103,100,99],"timestamp_mouse":[26,44,50,69,90,111,131,151,170,191,210,231,251,270,291,310,330,351,370,390,409,430,451,469,489,509,530,549,569,591,611,630,651,670,690,710,730,751,770,791,809,830,849,870,890,911,930],"xSR":741.5,"ySR":469.95,"xT1":424.9,"yT1":0,"xT2":1058.1,"yT2":0,"toosoon":0,"cond_shown":"equaldotanddens","ratio_trial":250,"smaller_num":"5","larger_num":"20","correct_side":2,"subjID":"Samuel Avellaneda29","gender":"0","age":"9","school":"4"},{"start_time":1552055065518,"click_time":1552055066747,"finger_time":1552055066306,"fix_duration":451.03928326740163,"trial":24,"RT":788,"MT":441,"sideResp":1,"stimulus":"img/250/equaldotanddens/L/5_Ratio_250_L_24_R_6.png","xmouse":[788,788,788,788,788,788,788,790,790,794,796,796,796,796,796,796,796,796,796,796,796,796,796,796,796,796,796,796,796,796,796,796,796,796,796,796,791,788,777,738,719,693,657,626,598,560,554,553,553,553,549,539,534,530,527,523,522,521,517,496,476,446],"ymouse":[533,533,533,533,533,533,528,524,524,522,521,521,521,521,521,521,521,521,521,521,521,521,521,521,521,521,521,521,521,521,521,521,521,521,521,521,519,517,512,476,450,418,383,356,334,304,299,297,297,282,267,241,223,211,201,186,176,166,154,121,101,81],"timestamp_mouse":[13,36,49,68,88,108,127,148,168,188,208,229,247,267,289,308,328,349,369,388,409,427,449,469,488,508,527,549,568,588,609,629,647,669,689,708,729,748,767,788,807,828,848,868,888,908,928,948,969,988,1008,1028,1048,1069,1088,1108,1127,1147,1167,1189,1208,1229],"xSR":741.5,"ySR":469.95,"xT1":424.9,"yT1":0,"xT2":1058.1,"yT2":0,"toosoon":0,"cond_shown":"equaldotanddens","ratio_trial":250,"smaller_num":"6","larger_num":"24","correct_side":1,"subjID":"Samuel Avellaneda29","gender":"0","age":"9","school":"4"},{"start_time":1552055070644,"click_time":1552055071487,"finger_time":1552055071046,"fix_duration":915.1001251662375,"trial":25,"RT":402,"MT":441,"sideResp":2,"stimulus":"img/900/equaldotanddens/L/1_Ratio_900_L_10_R_9.png","xmouse":[748,748,748,748,748,748,748,748,748,748,748,748,748,748,748,748,750,752,767,804,821,839,857,884,981,1013,1029,1038,1039,1039,1039,1039,1040,1040,1043,1044,1045,1046,1046,1046,1049,1056,1071],"ymouse":[528,528,528,528,528,528,528,528,528,528,528,528,528,528,528,528,526,523,506,474,458,443,420,379,228,172,151,138,137,137,137,137,136,133,121,114,108,107,107,106,102,93,70],"timestamp_mouse":[15,29,42,62,83,102,123,143,163,182,202,222,243,262,282,302,322,341,361,381,402,422,442,462,481,502,521,543,562,582,602,623,641,661,682,702,723,742,762,781,803,822,843],"xSR":741.5,"ySR":469.95,"xT1":424.9,"yT1":0,"xT2":1058.1,"yT2":0,"toosoon":0,"cond_shown":"equaldotanddens","ratio_trial":900,"smaller_num":"9","larger_num":"10","correct_side":1,"subjID":"Samuel Avellaneda29","gender":"0","age":"9","school":"4"},{"start_time":1552055072780,"click_time":1552055073646,"finger_time":1552055073546,"fix_duration":371.1554345339853,"trial":26,"RT":766,"MT":100,"sideResp":2,"stimulus":"img/900/equaldotsize/R/15_Ratio_900_L_9_R_10.png","xmouse":[759,759,760,760,760,760,760,760,761,764,768,769,769,769,769,769,769,769,769,769,769,769,770,773,775,776,778,780,781,781,781,782,783,784,784,785,786,814,839,869,910,958,1051,1081],"ymouse":[533,533,533,533,533,533,533,533,536,550,557,558,558,558,558,558,558,558,558,558,558,558,558,558,555,551,545,537,535,533,532,531,527,525,525,523,520,488,455,417,365,296,153,95],"timestamp_mouse":[7,36,46,67,86,105,126,147,165,186,207,227,247,266,286,306,326,347,367,387,405,425,446,466,485,506,525,546,565,585,606,627,647,666,686,706,727,746,766,786,806,825,846,866],"xSR":741.5,"ySR":469.95,"xT1":424.9,"yT1":0,"xT2":1058.1,"yT2":0,"toosoon":0,"cond_shown":"equaldotsize","ratio_trial":900,"smaller_num":"9","larger_num":"10","correct_side":2,"subjID":"Samuel Avellaneda29","gender":"0","age":"9","school":"4"},{"start_time":1552055075627,"click_time":1552055076726,"finger_time":1552055076047,"fix_duration":1159.0873719950948,"trial":27,"RT":420,"MT":679,"sideResp":2,"stimulus":"img/250/equaldotanddens/R/9_Ratio_250_L_3_R_12.png","xmouse":[800,800,800,800,800,800,800,800,800,800,800,800,800,800,800,799,799,799,799,799,799,799,797,795,793,790,790,790,797,808,859,871,903,920,935,955,959,961,962,963,965,965,969,970,974,988,1000,1014,1025,1033,1037,1038,1040,1046,1054,1061],"ymouse":[517,517,517,517,517,517,517,517,517,517,517,517,517,517,517,516,512,507,500,491,474,467,458,451,447,437,429,417,398,374,305,294,262,242,222,188,180,175,172,170,165,163,153,147,140,119,104,89,77,68,62,61,60,59,55,51],"timestamp_mouse":[1,20,39,60,79,99,120,139,160,180,199,219,240,259,278,299,318,340,359,380,399,420,439,460,479,499,519,539,559,578,600,619,639,660,679,699,719,739,759,780,799,818,838,859,880,899,919,939,960,979,1000,1019,1039,1060,1079,1099],"xSR":741.5,"ySR":469.95,"xT1":424.9,"yT1":0,"xT2":1058.1,"yT2":0,"toosoon":0,"cond_shown":"equaldotanddens","ratio_trial":250,"smaller_num":"3","larger_num":"12","correct_side":2,"subjID":"Samuel Avellaneda29","gender":"0","age":"9","school":"4"},{"start_time":1552055078513,"click_time":1552055079527,"finger_time":1552055078765,"fix_duration":784.2545802605088,"trial":28,"RT":252,"MT":762,"sideResp":1,"stimulus":"img/750/randomdotsizeEA/L/8_Ratio_750_L_4_R_3.png","xmouse":[801,801,801,801,801,801,801,801,801,801,804,808,812,816,821,833,838,842,845,848,851,853,853,853,853,853,853,850,840,821,749,709,676,655,638,635,635,635,634,633,629,618,611,605,595,583,563,551,536,522,510],"ymouse":[497,497,497,497,497,497,497,496,493,491,482,471,455,440,426,388,374,365,358,351,344,336,334,333,331,330,328,328,325,322,301,284,269,257,243,240,240,240,239,234,226,205,192,178,165,148,127,119,111,103,96],"timestamp_mouse":[13,34,53,72,93,113,133,152,174,193,214,233,252,273,294,315,333,353,373,392,414,432,452,473,493,514,532,553,574,593,614,632,652,673,694,714,733,754,773,794,813,832,853,872,893,912,932,953,973,992,1014],"xSR":741.5,"ySR":469.95,"xT1":424.9,"yT1":0,"xT2":1058.1,"yT2":0,"toosoon":0,"cond_shown":"randomdotsizeEA","ratio_trial":750,"smaller_num":"3","larger_num":"4","correct_side":1,"subjID":"Samuel Avellaneda29","gender":"0","age":"9","school":"4"},{"start_time":1552055081470,"click_time":1552055082846,"finger_time":1552055081845,"fix_duration":1342.0947154653504,"trial":29,"RT":375,"MT":1001,"sideResp":1,"stimulus":"img/250/randomdotsizeEA/L/3_Ratio_250_L_8_R_2.png","xmouse":[800,800,800,800,800,800,800,800,800,800,800,800,800,801,803,811,824,840,880,901,926,955,970,983,988,991,994,997,998,998,998,998,998,998,995,992,990,983,964,951,942,931,919,882,836,787,736,691,622,604,594,582,563,498,455,408,400,394,403,407,408,408,408,408,408,408,411,417,430],"ymouse":[542,542,542,542,542,542,542,542,542,542,542,542,542,541,538,532,522,507,473,452,418,373,338,291,274,262,250,241,237,237,237,237,237,237,238,240,241,244,251,255,257,261,264,268,268,268,264,257,243,235,231,224,214,186,168,146,139,130,111,106,103,103,102,97,94,90,82,77,66],"timestamp_mouse":[17,38,56,75,97,117,135,156,177,196,217,237,255,275,296,316,337,356,375,396,416,437,457,477,496,516,536,556,575,596,616,636,657,676,697,716,737,755,776,796,817,836,856,875,896,915,935,955,976,995,1017,1036,1056,1076,1097,1116,1136,1155,1175,1196,1216,1235,1256,1276,1296,1317,1337,1356,1375],"xSR":741.5,"ySR":469.95,"xT1":424.9,"yT1":0,"xT2":1058.1,"yT2":0,"toosoon":0,"cond_shown":"randomdotsizeEA","ratio_trial":250,"smaller_num":"2","larger_num":"8","correct_side":1,"subjID":"Samuel Avellaneda29","gender":"0","age":"9","school":"4"},{"start_time":1552055085235,"click_time":1552055086186,"finger_time":1552055085786,"fix_duration":1387.599804450939,"trial":30,"RT":551,"MT":400,"sideResp":2,"stimulus":"img/250/equaldotanddens/R/9_Ratio_250_L_3_R_12.png","xmouse":[802,802,802,802,803,804,804,805,805,805,805,805,805,805,805,805,805,805,805,805,805,805,805,805,805,808,816,821,832,848,913,975,1029,1068,1088,1108,1110,1110,1110,1107,1098,1096,1095,1094,1094,1094,1094,1094],"ymouse":[491,491,491,492,491,490,489,488,487,486,486,486,486,486,486,486,486,486,486,486,486,486,486,486,486,484,472,465,453,434,366,311,263,234,214,197,190,178,160,141,114,109,106,105,105,105,100,95],"timestamp_mouse":[12,44,50,72,90,111,131,151,170,190,211,231,252,271,291,311,330,351,371,391,411,431,452,471,492,511,532,551,571,591,612,631,651,670,691,711,731,751,771,791,812,831,851,871,891,910,931,950],"xSR":741.5,"ySR":469.95,"xT1":424.9,"yT1":0,"xT2":1058.1,"yT2":0,"toosoon":0,"cond_shown":"equaldotanddens","ratio_trial":250,"smaller_num":"3","larger_num":"12","correct_side":2,"subjID":"Samuel Avellaneda29","gender":"0","age":"9","school":"4"},{"start_time":1552055088462,"click_time":1552055089586,"finger_time":1552055089306,"fix_duration":1395.1864073188312,"trial":31,"RT":844,"MT":280,"sideResp":1,"stimulus":"img/500/randomdotsizeEA/L/7_Ratio_500_L_10_R_5.png","xmouse":[767,767,767,767,767,767,767,767,767,767,767,767,767,767,767,767,767,767,767,767,767,767,767,767,767,767,767,767,767,767,767,767,767,767,767,767,767,767,766,762,755,752,741,732,719,682,663,645,627,605,554,531,510,487,475,458,451],"ymouse":[522,522,522,522,522,522,522,522,522,522,522,522,522,522,522,522,522,522,522,522,522,522,522,522,522,522,522,522,522,522,521,521,521,521,521,519,516,512,507,502,492,488,475,462,442,392,366,345,323,298,242,219,193,163,144,110,99],"timestamp_mouse":[13,37,44,64,84,104,125,145,163,183,205,224,243,265,284,304,325,343,365,385,405,425,445,464,484,503,525,543,564,585,604,623,644,665,685,703,724,743,764,784,803,824,844,864,885,904,923,944,964,984,1003,1025,1043,1064,1083,1104,1124],"xSR":741.5,"ySR":469.95,"xT1":424.9,"yT1":0,"xT2":1058.1,"yT2":0,"toosoon":0,"cond_shown":"randomdotsizeEA","ratio_trial":500,"smaller_num":"5","larger_num":"10","correct_side":1,"subjID":"Samuel Avellaneda29","gender":"0","age":"9","school":"4"},{"start_time":1552055092218,"click_time":1552055093166,"finger_time":1552055093046,"fix_duration":250,"trial":32,"RT":828,"MT":120,"sideResp":1,"stimulus":"img/250/equaldotsize/L/1_Ratio_250_L_8_R_2.png","xmouse":[756,756,756,756,756,756,756,756,756,756,756,756,756,756,756,756,756,756,756,756,756,756,756,756,756,756,756,756,756,756,756,756,756,756,756,756,756,754,752,752,749,741,729,669,658,600,553,478],"ymouse":[502,502,502,502,502,502,502,502,502,502,502,502,502,502,502,502,502,502,502,502,502,502,502,502,502,502,502,502,502,502,502,502,502,502,502,502,503,500,495,488,475,456,432,328,309,227,166,67],"timestamp_mouse":[28,30,49,68,87,108,129,149,168,188,208,227,249,269,289,308,327,347,368,387,407,427,448,468,487,507,529,549,568,588,608,628,648,668,689,709,728,748,768,788,808,828,848,869,889,908,928,948],"xSR":741.5,"ySR":469.95,"xT1":424.9,"yT1":0,"xT2":1058.1,"yT2":0,"toosoon":0,"cond_shown":"equaldotsize","ratio_trial":250,"smaller_num":"2","larger_num":"8","correct_side":1,"subjID":"Samuel Avellaneda29","gender":"0","age":"9","school":"4"},{"start_time":1552055094910,"click_time":1552055096306,"finger_time":1552055095686,"fix_duration":523.9412377409473,"trial":33,"RT":776,"MT":620,"sideResp":2,"stimulus":"img/900/randomdotsizeEA/L/1_Ratio_900_L_10_R_9.png","xmouse":[818,818,812,812,812,812,812,811,804,797,790,783,778,777,777,777,777,777,777,777,777,777,777,777,776,776,776,776,775,774,774,772,769,768,767,764,759,748,740,730,715,694,671,657,657,657,657,657,657,657,662,669,697,719,745,769,806,849,886,929,972,999,1036,1040,1041,1043,1043,1047,1054,1062],"ymouse":[530,530,531,531,531,531,531,531,519,510,506,506,506,506,506,506,506,506,506,506,506,506,506,506,506,506,506,506,506,506,506,506,502,500,499,498,494,488,483,477,466,451,435,428,428,428,428,428,428,428,427,423,408,395,381,364,336,297,262,224,189,165,135,128,124,120,117,105,97,89],"timestamp_mouse":[16,41,56,76,96,115,137,155,176,196,215,237,256,277,295,315,336,356,377,397,416,435,457,476,495,516,536,556,577,597,617,635,656,676,697,716,737,756,776,795,815,835,856,876,897,917,936,956,975,995,1016,1036,1057,1075,1097,1116,1135,1157,1175,1196,1216,1236,1257,1276,1297,1316,1336,1356,1376,1396],"xSR":741.5,"ySR":469.95,"xT1":424.9,"yT1":0,"xT2":1058.1,"yT2":0,"toosoon":0,"cond_shown":"randomdotsizeEA","ratio_trial":900,"smaller_num":"9","larger_num":"10","correct_side":1,"subjID":"Samuel Avellaneda29","gender":"0","age":"9","school":"4"},{"start_time":1552055097746,"click_time":1552055098666,"finger_time":1552055098245,"fix_duration":558.3919517160206,"trial":34,"RT":499,"MT":421,"sideResp":2,"stimulus":"img/500/equaldotanddens/R/15_Ratio_500_L_1_R_2.png","xmouse":[804,804,804,804,804,804,804,804,804,804,804,804,804,804,804,804,804,804,804,803,803,803,803,803,800,789,777,758,751,745,739,736,732,731,730,730,730,730,730,734,750,776,891,972,1077,1117,1141],"ymouse":[546,546,546,546,546,546,546,546,546,546,546,546,546,546,546,546,546,546,546,540,530,523,510,501,488,468,456,439,432,425,417,411,401,397,395,394,394,394,394,389,377,361,293,236,156,106,24],"timestamp_mouse":[2,21,39,59,81,101,120,141,161,180,201,219,239,261,281,300,321,340,360,380,400,419,439,461,480,499,521,541,560,580,600,621,640,660,680,701,721,740,759,781,799,820,839,860,880,900,920],"xSR":741.5,"ySR":469.95,"xT1":424.9,"yT1":0,"xT2":1058.1,"yT2":0,"toosoon":0,"cond_shown":"equaldotanddens","ratio_trial":500,"smaller_num":"1","larger_num":"2","correct_side":2,"subjID":"Samuel Avellaneda29","gender":"0","age":"9","school":"4"},{"start_time":1552055105518,"click_time":1552055106706,"finger_time":1552055106486,"fix_duration":250,"trial":35,"RT":968,"MT":220,"sideResp":1,"stimulus":"img/900/equaldotsize/R/12_Ratio_900_L_18_R_20.png","xmouse":[792,792,792,792,792,792,792,792,792,792,792,792,792,792,792,792,792,792,792,792,792,792,792,792,792,792,792,792,792,792,792,792,792,792,792,792,792,792,792,792,792,792,792,792,792,792,789,778,749,683,659,641,615,589,575,560,547,536,526,522],"ymouse":[552,552,552,552,552,552,552,552,552,552,552,552,552,552,552,552,552,552,552,552,552,552,552,552,552,552,552,552,552,552,552,552,552,552,552,552,552,552,552,552,552,552,552,552,552,552,544,506,446,337,294,256,195,138,111,87,66,47,34,28],"timestamp_mouse":[13,36,49,69,89,108,127,149,168,188,208,229,249,269,289,308,328,347,369,389,409,429,448,467,488,509,529,549,568,587,608,629,649,669,689,708,729,748,767,788,809,829,849,869,889,907,929,948,967,988,1008,1028,1049,1069,1088,1108,1128,1148,1168,1188],"xSR":741.5,"ySR":469.95,"xT1":424.9,"yT1":0,"xT2":1058.1,"yT2":0,"toosoon":0,"cond_shown":"equaldotsize","ratio_trial":900,"smaller_num":"18","larger_num":"20","correct_side":2,"subjID":"Samuel Avellaneda29","gender":"0","age":"9","school":"4"},{"start_time":1552055108562,"click_time":1552055109766,"finger_time":1552055109166,"fix_duration":914.3591871964126,"trial":36,"RT":604,"MT":600,"sideResp":2,"stimulus":"img/250/randomdotsizeEA/R/13_Ratio_250_L_2_R_8.png","xmouse":[791,791,791,791,791,791,791,791,791,791,791,791,791,791,791,791,791,791,791,791,791,791,791,791,791,791,791,791,791,791,791,797,824,843,855,864,874,885,886,887,887,889,896,901,908,914,918,925,930,936,956,968,982,985,986,986,986,1004,1025,1051,1061],"ymouse":[476,476,476,476,476,476,476,476,476,476,476,476,476,476,476,476,476,476,476,476,476,476,476,476,476,476,476,476,476,476,468,436,325,265,220,193,169,146,142,141,141,140,131,126,121,117,114,111,107,102,82,67,53,51,51,51,51,45,40,36,33],"timestamp_mouse":[14,24,43,64,84,104,125,145,165,184,205,225,243,265,285,304,325,343,364,385,405,424,444,464,485,505,524,543,563,584,604,624,644,664,684,704,724,744,763,784,804,824,844,863,885,904,923,944,965,985,1004,1025,1044,1064,1084,1105,1125,1144,1163,1184,1204],"xSR":741.5,"ySR":469.95,"xT1":424.9,"yT1":0,"xT2":1058.1,"yT2":0,"toosoon":0,"cond_shown":"randomdotsizeEA","ratio_trial":250,"smaller_num":"2","larger_num":"8","correct_side":2,"subjID":"Samuel Avellaneda29","gender":"0","age":"9","school":"4"},{"start_time":1552055112374,"click_time":1552055113325,"finger_time":1552055112926,"fix_duration":1266.9720566108138,"trial":37,"RT":552,"MT":399,"sideResp":2,"stimulus":"img/250/equaldotanddens/R/12_Ratio_250_L_5_R_20.png","xmouse":[758,758,758,758,758,758,758,758,758,758,758,758,758,758,758,758,758,758,758,758,758,758,758,758,758,762,766,796,813,826,837,866,884,902,915,924,928,940,945,951,956,961,976,985,997,1010,1029,1071],"ymouse":[495,495,495,495,495,495,495,495,495,495,495,495,495,495,495,495,495,495,495,495,495,495,495,495,495,494,484,443,426,408,394,357,337,314,290,268,249,209,192,175,162,153,134,125,117,110,99,85],"timestamp_mouse":[12,35,53,73,92,112,132,153,171,193,212,233,251,271,292,312,332,353,373,393,412,431,453,473,493,512,531,552,572,592,612,633,652,672,691,713,732,753,772,792,813,833,851,873,892,913,931,951],"xSR":741.5,"ySR":469.95,"xT1":424.9,"yT1":0,"xT2":1058.1,"yT2":0,"toosoon":0,"cond_shown":"equaldotanddens","ratio_trial":250,"smaller_num":"5","larger_num":"20","correct_side":2,"subjID":"Samuel Avellaneda29","gender":"0","age":"9","school":"4"},{"start_time":1552055132378,"click_time":1552055133465,"finger_time":1552055133047,"fix_duration":1208.0492608068062,"trial":38,"RT":669,"MT":418,"sideResp":2,"stimulus":"img/250/equaldotanddens/R/12_Ratio_250_L_5_R_20.png","xmouse":[791,791,791,791,791,791,791,791,791,791,791,791,791,791,791,791,791,791,791,791,791,791,791,791,791,791,791,791,793,798,800,806,811,827,836,846,867,886,924,959,968,976,980,984,992,1000,1002,1007,1012,1017,1022,1029,1041,1054,1092],"ymouse":[555,555,555,555,555,555,555,555,555,555,555,555,555,555,555,555,555,555,555,555,555,555,555,555,555,555,555,555,555,552,543,525,502,449,423,399,366,329,267,204,180,152,131,113,93,84,82,75,68,64,63,63,63,62,55],"timestamp_mouse":[8,27,49,68,89,108,127,148,169,188,208,228,249,269,289,307,328,348,369,388,408,428,449,469,489,508,529,548,568,589,607,629,648,669,688,709,728,748,767,788,807,828,848,868,888,909,928,948,967,988,1009,1029,1048,1067,1087],"xSR":741.5,"ySR":469.95,"xT1":424.9,"yT1":0,"xT2":1058.1,"yT2":0,"toosoon":0,"cond_shown":"equaldotanddens","ratio_trial":250,"smaller_num":"5","larger_num":"20","correct_side":2,"subjID":"Samuel Avellaneda29","gender":"0","age":"9","school":"4"},{"start_time":1552055135058,"click_time":1552055135986,"finger_time":1552055135606,"fix_duration":570.0396172301213,"trial":39,"RT":548,"MT":380,"sideResp":2,"stimulus":"img/250/randomdotsizeEA/R/6_Ratio_250_L_6_R_24.png","xmouse":[789,789,789,789,789,789,789,789,789,789,789,789,789,789,789,789,789,789,789,789,789,789,789,792,798,817,824,829,832,835,839,846,855,864,876,924,956,989,1020,1046,1086,1100,1116,1122,1125,1130,1132],"ymouse":[548,548,548,548,548,548,548,548,548,548,548,548,548,548,548,548,548,548,548,548,548,548,548,542,529,488,476,468,460,452,443,418,390,369,345,290,264,240,217,199,163,146,129,121,115,104,94],"timestamp_mouse":[10,36,47,69,88,108,127,149,168,187,209,228,247,268,288,308,327,349,369,388,409,429,449,468,488,508,528,548,567,588,607,627,648,668,688,707,727,747,767,788,808,828,847,868,888,908,927],"xSR":741.5,"ySR":469.95,"xT1":424.9,"yT1":0,"xT2":1058.1,"yT2":0,"toosoon":0,"cond_shown":"randomdotsizeEA","ratio_trial":250,"smaller_num":"6","larger_num":"24","correct_side":2,"subjID":"Samuel Avellaneda29","gender":"0","age":"9","school":"4"},{"start_time":1552055139150,"click_time":1552055140447,"finger_time":1552055139766,"fix_duration":943.8174694015144,"trial":40,"RT":616,"MT":681,"sideResp":2,"stimulus":"img/500/equaldotsize/R/14_Ratio_500_L_5_R_10.png","xmouse":[759,759,759,759,759,759,759,759,759,759,759,759,759,759,759,759,759,759,759,759,759,759,759,759,758,758,763,766,772,783,798,850,880,903,923,949,954,956,957,959,962,964,966,968,968,970,971,971,971,973,978,992,1006,1020,1029,1033,1038,1040,1041,1042,1044,1046,1051,1057,1063],"ymouse":[533,533,533,533,533,533,533,533,533,533,533,533,533,533,533,533,533,533,533,533,533,533,533,533,533,524,511,501,486,470,450,393,361,334,310,271,266,264,263,260,248,238,225,206,182,127,120,120,120,119,118,115,108,99,91,88,84,84,84,84,83,81,75,68,63],"timestamp_mouse":[17,36,56,76,97,116,136,156,177,197,216,236,257,276,297,316,337,357,377,397,417,435,457,476,496,516,537,555,576,595,616,636,656,676,697,716,735,756,776,796,817,835,855,876,896,916,936,956,976,996,1016,1036,1056,1077,1097,1117,1136,1155,1176,1195,1216,1236,1255,1276,1297],"xSR":741.5,"ySR":469.95,"xT1":424.9,"yT1":0,"xT2":1058.1,"yT2":0,"toosoon":0,"cond_shown":"equaldotsize","ratio_trial":500,"smaller_num":"5","larger_num":"10","correct_side":2,"subjID":"Samuel Avellaneda29","gender":"0","age":"9","school":"4"},{"start_time":1552055142014,"click_time":1552055143006,"finger_time":1552055142527,"fix_duration":446.8361654748883,"trial":41,"RT":513,"MT":479,"sideResp":1,"stimulus":"img/900/randomdotsizeEA/L/2_Ratio_900_L_20_R_18.png","xmouse":[801,801,801,801,801,801,801,801,801,801,801,801,801,801,801,801,801,801,801,801,801,801,801,802,804,805,805,805,804,800,791,775,739,687,660,640,620,604,592,587,583,581,578,571,566,561,553,544,528,515],"ymouse":[504,504,504,504,504,504,504,504,504,504,504,504,504,504,504,504,504,504,504,504,503,500,498,483,474,468,463,461,454,447,437,422,392,350,322,296,264,228,191,175,158,153,141,122,111,100,89,80,68,63],"timestamp_mouse":[14,39,52,73,92,113,131,153,171,192,213,232,252,273,293,312,333,352,373,392,412,432,452,472,492,513,532,551,571,592,613,633,652,672,692,712,732,752,771,793,812,833,853,871,892,911,931,951,971,992],"xSR":741.5,"ySR":469.95,"xT1":424.9,"yT1":0,"xT2":1058.1,"yT2":0,"toosoon":0,"cond_shown":"randomdotsizeEA","ratio_trial":900,"smaller_num":"18","larger_num":"20","correct_side":1,"subjID":"Samuel Avellaneda29","gender":"0","age":"9","school":"4"},{"start_time":1552055146577,"click_time":1552055147505,"finger_time":1552055147106,"fix_duration":1088.4422661630479,"trial":42,"RT":529,"MT":399,"sideResp":1,"stimulus":"img/900/equaldotsize/L/2_Ratio_900_L_20_R_18.png","xmouse":[747,747,747,747,747,747,747,747,747,747,747,747,747,747,747,747,747,747,747,747,747,747,747,747,747,747,747,747,747,747,747,718,696,672,648,603,583,565,545,528,509,507,505,503,500,484,475],"ymouse":[481,481,481,481,481,481,481,481,481,481,481,481,481,481,481,481,481,481,481,481,481,481,481,481,477,470,462,451,438,424,411,370,355,342,328,307,292,276,255,236,213,211,205,199,184,121,98],"timestamp_mouse":[10,40,50,70,89,110,128,149,170,189,209,230,248,270,290,309,328,348,368,388,410,430,449,470,489,509,529,549,569,589,609,628,649,669,689,710,728,749,769,789,810,829,848,869,888,910,928],"xSR":741.5,"ySR":469.95,"xT1":424.9,"yT1":0,"xT2":1058.1,"yT2":0,"toosoon":0,"cond_shown":"equaldotsize","ratio_trial":900,"smaller_num":"18","larger_num":"20","correct_side":1,"subjID":"Samuel Avellaneda29","gender":"0","age":"9","school":"4"},{"start_time":1552055149118,"click_time":1552055150086,"finger_time":1552055149766,"fix_duration":691.8637341131218,"trial":43,"RT":648,"MT":320,"sideResp":1,"stimulus":"img/500/randomdotsizeEA/L/10_Ratio_500_L_4_R_2.png","xmouse":[813,813,813,813,813,813,813,813,813,813,813,813,813,813,813,813,813,813,813,813,813,813,813,813,813,813,813,813,812,806,800,792,772,668,624,599,584,572,560,541,533,521,509,504,501,501,500,500,500],"ymouse":[492,492,492,492,492,492,492,492,492,492,492,492,492,492,492,492,492,492,492,492,492,492,492,492,492,492,492,492,493,491,485,475,447,318,267,239,223,211,198,173,159,146,128,119,111,107,104,100,95],"timestamp_mouse":[13,39,48,69,87,108,128,147,169,188,209,229,247,268,289,309,329,348,369,387,408,428,449,468,489,507,527,548,568,587,608,628,648,669,688,708,728,748,767,789,808,828,847,867,888,908,927,948,967],"xSR":741.5,"ySR":469.95,"xT1":424.9,"yT1":0,"xT2":1058.1,"yT2":0,"toosoon":0,"cond_shown":"randomdotsizeEA","ratio_trial":500,"smaller_num":"2","larger_num":"4","correct_side":1,"subjID":"Samuel Avellaneda29","gender":"0","age":"9","school":"4"},{"start_time":1552055151138,"click_time":1552055151887,"finger_time":1552055151726,"fix_duration":250,"trial":44,"RT":588,"MT":161,"sideResp":1,"stimulus":"img/250/randomdotsizeEA/L/1_Ratio_250_L_8_R_2.png","xmouse":[821,821,821,821,821,821,821,821,821,821,821,821,821,821,821,821,821,821,821,821,820,820,820,820,820,820,820,820,817,802,792,750,714,644,607,566,532,508],"ymouse":[497,497,497,497,497,497,497,497,497,497,497,497,497,497,497,497,497,497,497,497,497,494,493,492,492,492,492,491,481,455,440,366,316,231,183,133,86,46],"timestamp_mouse":[12,36,48,68,87,108,128,148,167,189,208,228,248,267,288,308,327,348,368,388,408,429,447,468,488,509,529,548,568,588,608,628,648,668,688,709,728,749],"xSR":741.5,"ySR":469.95,"xT1":424.9,"yT1":0,"xT2":1058.1,"yT2":0,"toosoon":0,"cond_shown":"randomdotsizeEA","ratio_trial":250,"smaller_num":"2","larger_num":"8","correct_side":1,"subjID":"Samuel Avellaneda29","gender":"0","age":"9","school":"4"},{"start_time":1552055153681,"click_time":1552055154927,"finger_time":1552055154366,"fix_duration":872.6430975547518,"trial":45,"RT":685,"MT":561,"sideResp":2,"stimulus":"img/900/equaldotanddens/L/1_Ratio_900_L_10_R_9.png","xmouse":[775,775,775,775,775,775,775,775,775,775,775,775,775,775,775,775,775,775,775,775,775,775,775,775,775,775,775,775,775,775,776,787,792,807,822,843,890,914,929,935,936,936,936,936,938,940,944,946,947,949,954,1006,1035,1055,1066,1069,1069,1070,1070,1072,1074,1090,1103],"ymouse":[535,535,535,535,535,535,535,535,535,535,535,535,535,535,535,535,535,535,535,535,535,535,535,535,535,535,535,535,532,529,523,502,493,472,454,425,356,318,287,268,257,248,246,238,231,224,215,213,212,209,205,171,153,141,136,133,133,133,132,130,128,110,93],"timestamp_mouse":[12,24,46,66,85,105,126,146,166,185,204,225,245,266,286,305,325,346,366,386,405,426,446,466,486,504,525,545,566,585,604,625,645,664,685,705,726,745,765,785,805,826,845,865,885,904,925,944,965,985,1005,1026,1044,1065,1085,1105,1125,1145,1165,1185,1205,1226,1246],"xSR":741.5,"ySR":469.95,"xT1":424.9,"yT1":0,"xT2":1058.1,"yT2":0,"toosoon":0,"cond_shown":"equaldotanddens","ratio_trial":900,"smaller_num":"9","larger_num":"10","correct_side":1,"subjID":"Samuel Avellaneda29","gender":"0","age":"9","school":"4"},{"start_time":1552055155959,"click_time":1552055157206,"finger_time":1552055156606,"fix_duration":250,"trial":46,"RT":647,"MT":600,"sideResp":1,"stimulus":"img/750/randomdotsizeEA/R/12_Ratio_750_L_3_R_4.png","xmouse":[785,785,785,785,785,785,785,785,785,785,785,785,785,785,785,785,783,782,778,777,776,775,775,775,775,775,774,772,767,760,753,745,735,735,735,735,735,735,735,734,728,716,698,651,623,587,549,495,490,488,485,483,483,481,480,480,480,480,480,480,480,480,479],"ymouse":[544,544,544,544,544,544,544,544,544,544,544,544,544,544,544,544,542,541,538,537,536,536,535,535,535,535,534,534,531,529,527,524,520,520,520,520,520,520,520,519,516,505,485,407,368,323,280,228,224,220,210,199,190,175,172,168,165,159,142,131,119,106,94],"timestamp_mouse":[10,34,48,67,87,107,128,147,166,187,208,228,247,266,288,308,328,347,367,388,407,427,447,467,488,507,527,547,568,586,607,627,647,667,687,707,727,748,768,786,806,827,847,867,887,907,927,947,966,987,1007,1027,1048,1066,1087,1107,1126,1146,1167,1187,1208,1228,1247],"xSR":741.5,"ySR":469.95,"xT1":424.9,"yT1":0,"xT2":1058.1,"yT2":0,"toosoon":0,"cond_shown":"randomdotsizeEA","ratio_trial":750,"smaller_num":"3","larger_num":"4","correct_side":2,"subjID":"Samuel Avellaneda29","gender":"0","age":"9","school":"4"},{"start_time":1552055159008,"click_time":1552055160326,"finger_time":1552055159726,"fix_duration":999.5700909296808,"trial":47,"RT":718,"MT":600,"sideResp":1,"stimulus":"img/250/equaldotsize/L/2_Ratio_250_L_16_R_4.png","xmouse":[815,815,815,815,815,815,815,815,815,815,815,815,815,815,815,815,815,815,815,815,815,815,815,815,815,815,815,815,815,815,815,815,815,815,815,819,819,819,811,797,765,747,724,701,673,642,622,592,567,544,504,489,474,464,451,433,424,419,417,416,416,416,416,419,421,427],"ymouse":[511,511,511,511,511,511,511,511,511,511,511,511,511,511,511,511,511,511,511,511,511,511,511,511,511,511,511,511,511,511,511,511,511,508,505,465,421,385,359,335,308,301,294,287,279,265,250,230,212,197,177,171,163,157,150,139,133,129,122,115,110,108,106,104,102,98],"timestamp_mouse":[19,37,59,78,98,119,138,157,178,198,219,237,258,278,299,318,339,358,379,397,418,438,458,478,499,518,538,559,579,599,617,639,659,678,697,718,738,759,778,798,818,839,859,878,898,917,938,959,979,998,1017,1038,1058,1079,1098,1118,1137,1158,1177,1198,1218,1238,1259,1278,1298,1318],"xSR":741.5,"ySR":469.95,"xT1":424.9,"yT1":0,"xT2":1058.1,"yT2":0,"toosoon":0,"cond_shown":"equaldotsize","ratio_trial":250,"smaller_num":"4","larger_num":"16","correct_side":1,"subjID":"Samuel Avellaneda29","gender":"0","age":"9","school":"4"},{"start_time":1552055162637,"click_time":1552055164527,"finger_time":1552055163425,"fix_duration":1388.9387341400559,"trial":48,"RT":788,"MT":1102,"sideResp":1,"stimulus":"img/500/equaldotsize/L/11_Ratio_500_L_12_R_6.png","xmouse":[824,824,824,824,824,824,824,824,824,824,824,824,824,824,824,824,824,824,824,824,824,824,824,824,824,824,824,824,824,824,824,824,824,824,824,824,824,825,836,862,951,975,989,997,1001,1001,1001,1002,1002,1002,1002,1002,1002,1002,1002,1002,1002,1002,1002,1002,1002,1002,1001,995,980,967,948,927,900,872,862,856,852,846,834,788,747,700,648,591,585,581,576,564,544,542,541,540,540,540,540,537,535,532,516],"ymouse":[511,511,511,511,511,511,511,511,511,511,511,511,511,511,511,511,511,511,511,511,511,511,511,511,511,511,511,511,509,506,505,505,504,504,504,504,501,497,483,444,315,284,265,253,245,243,240,238,235,231,230,230,229,229,229,229,229,229,229,229,229,229,228,231,240,245,249,252,254,254,256,257,257,258,258,249,235,219,204,178,174,170,166,158,137,128,121,114,106,99,95,90,87,79,61],"timestamp_mouse":[11,31,48,70,89,109,128,150,169,188,209,229,250,270,289,309,329,350,370,390,409,429,448,470,489,510,528,549,570,589,609,628,649,669,689,710,730,749,769,788,809,829,850,869,890,909,929,949,968,989,1008,1029,1050,1068,1089,1109,1128,1149,1169,1189,1210,1228,1249,1269,1290,1308,1329,1349,1369,1390,1408,1429,1449,1469,1488,1508,1529,1549,1569,1590,1608,1628,1650,1669,1690,1708,1729,1749,1769,1789,1808,1829,1850,1869,1889],"xSR":741.5,"ySR":469.95,"xT1":424.9,"yT1":0,"xT2":1058.1,"yT2":0,"toosoon":0,"cond_shown":"equaldotsize","ratio_trial":500,"smaller_num":"6","larger_num":"12","correct_side":1,"subjID":"Samuel Avellaneda29","gender":"0","age":"9","school":"4"},{"start_time":1552055166258,"click_time":1552055167206,"finger_time":1552055166986,"fix_duration":910.4048365161722,"trial":49,"RT":728,"MT":220,"sideResp":1,"stimulus":"img/250/randomdotsizeEA/L/7_Ratio_250_L_8_R_2.png","xmouse":[800,800,800,800,800,798,798,798,798,798,798,798,798,798,798,798,797,796,796,796,796,796,796,796,796,796,796,796,796,796,795,793,792,790,787,780,759,723,665,589,564,539,525,514,501,497,487,485],"ymouse":[507,507,507,507,507,507,507,507,507,507,507,507,507,507,507,507,507,508,508,508,508,508,508,508,508,508,508,508,508,508,508,508,508,508,507,499,469,419,339,244,213,183,167,153,132,124,103,98],"timestamp_mouse":[13,37,49,68,88,108,129,148,167,188,209,228,249,269,289,308,327,348,368,388,407,428,449,467,488,509,529,549,568,588,607,628,648,669,687,708,728,748,769,788,808,828,848,870,887,908,928,948],"xSR":741.5,"ySR":469.95,"xT1":424.9,"yT1":0,"xT2":1058.1,"yT2":0,"toosoon":0,"cond_shown":"randomdotsizeEA","ratio_trial":250,"smaller_num":"2","larger_num":"8","correct_side":1,"subjID":"Sam