[{"start_time":1552069143584,"click_time":1552069146223,"finger_time":1552069143594,"fix_duration":1297.80302955474,"trial":0,"RT":10,"MT":2629,"sideResp":2,"stimulus":"img/750/equaldotsize/L/10_Ratio_750_L_4_R_3.png","xmouse":[762,762,762,762,762,762,762,762,762,763,763,763,763,763,763,763,763,763,763,763,763,763,763,763,763,763,763,763,763,763,763,763,763,763,763,763,765,767,768,769,769,769,769,770,770,770,770,770,770,770,770,770,770,770,770,770,770,770,770,770,770,770,770,770,770,770,770,770,770,770,770,770,770,770,770,770,770,770,770,770,770,770,770,770,770,770,770,770,770,770,770,770,770,770,770,770,770,770,770,770,782,808,820,824,826,826,829,835,838,847,858,892,912,933,947,965,983,991,1001,1011,1024,1050,1056,1063,1065,1069,1075,1080,1083,1088,1097,1113,1123],"ymouse":[485,485,485,485,485,485,485,485,485,486,486,486,486,486,486,486,486,486,486,486,486,486,486,486,486,486,486,486,486,486,486,486,486,486,486,486,496,510,522,534,543,554,558,563,565,568,569,571,572,576,579,590,595,600,601,601,601,601,601,601,601,601,601,601,601,601,601,601,601,601,601,601,601,601,601,601,601,601,601,601,601,601,601,601,601,601,601,601,601,601,601,601,601,601,601,601,601,601,601,601,591,558,540,519,497,473,441,432,423,411,397,362,343,329,320,308,299,294,288,278,265,238,227,220,218,215,204,191,179,161,142,110,95],"timestamp_mouse":[10,22,38,58,78,98,120,140,159,178,198,219,240,260,279,300,319,339,359,379,398,419,439,460,479,498,519,539,558,578,600,620,640,660,679,699,719,739,759,779,798,818,838,858,878,898,919,939,959,980,1000,1019,1039,1058,1080,1100,1120,1138,1159,1180,1199,1218,1238,1260,1279,1300,1319,1339,1360,1380,1398,1419,1439,1458,1479,1499,1520,1538,1558,1579,1598,1620,1638,1658,1679,1700,1719,1740,1759,1780,1799,1818,1839,1859,1879,1899,1920,1940,1959,1978,1998,2018,2038,2059,2079,2099,2119,2139,2159,2179,2200,2220,2240,2259,2278,2298,2318,2340,2358,2379,2399,2418,2440,2460,2479,2498,2518,2539,2559,2579,2600,2618,2638],"xSR":741.5,"ySR":469.95,"xT1":424.9,"yT1":0,"xT2":1058.1,"yT2":0,"toosoon":0,"cond_shown":"equaldotsize","ratio_trial":750,"smaller_num":"3","larger_num":"4","correct_side":1,"subjID":"AnaMariaMoreno16","gender":"1","age":"9","school":"4","test":{"fix_dur":[250,1500],"timestim":300,"targets_dim":[100,100],"targets_relative_coord":[0.3,0.7],"size_stim":[880,420],"start_dim":[100,100],"size_start":[300,300],"size_fix":60,"samplingrate":20,"img_types":["equaldotsize","equaldotanddens","randomdotsizeEA"],"ratios":[250,500,750,900],"rep_conds":9,"nTrials":120,"trials_to_rest":500,"Trials_order":[102,30,46,63,16,114,21,65,95,29,57,112,43,42,1,23,113,105,72,107,99,59,109,13,60,106,97,98,14,68,73,7,39,22,104,76,35,51,116,62,26,88,6,0,3,2,4,93,19,69,90,75,9,36,44,28,70,12,89,92,55,80,50,41,84,86,18,58,20,118,61,74,78,8,40,67,81,117,53,48,111,87,83,27,52,15,54,79,64,37,100,56,108,115,38,32,11,96,5,82,77,45,119,24,66,91,49,31,10,33,101,34,17,85,103,71,47,110,25,94],"cond_shown":["equaldotsize","equaldotsize","equaldotanddens","equaldotsize","equaldotanddens","equaldotsize","equaldotsize","randomdotsizeEA","randomdotsizeEA","randomdotsizeEA","equaldotsize","equaldotanddens","equaldotanddens","equaldotsize","equaldotanddens","randomdotsizeEA","randomdotsizeEA","equaldotsize","equaldotsize","randomdotsizeEA","equaldotsize","randomdotsizeEA","equaldotanddens","equaldotanddens","equaldotsize","equaldotanddens","equaldotanddens","randomdotsizeEA","randomdotsizeEA","randomdotsizeEA","equaldotanddens","equaldotanddens","equaldotsize","equaldotanddens","randomdotsizeEA","equaldotanddens","randomdotsizeEA","equaldotsize","randomdotsizeEA","randomdotsizeEA","randomdotsizeEA","equaldotanddens","equaldotsize","equaldotsize","equaldotsize","randomdotsizeEA","equaldotanddens","equaldotsize","equaldotanddens","equaldotsize","equaldotsize","equaldotsize","equaldotsize","equaldotsize","randomdotsizeEA","equaldotanddens","equaldotanddens","equaldotsize","randomdotsizeEA","randomdotsizeEA","equaldotanddens","randomdotsizeEA","randomdotsizeEA","randomdotsizeEA","equaldotsize","randomdotsizeEA","equaldotsize","equaldotanddens","randomdotsizeEA","equaldotanddens","equaldotanddens","randomdotsizeEA","equaldotsize","randomdotsizeEA","equaldotanddens","equaldotanddens","equaldotsize","equaldotsize","randomdotsizeEA","equaldotsize","equaldotsize","equaldotsize","randomdotsizeEA","equaldotsize","equaldotanddens","equaldotsize","equaldotsize","equaldotanddens","equaldotanddens","equaldotanddens","equaldotanddens","randomdotsizeEA","equaldotsize","equaldotanddens","randomdotsizeEA","randomdotsizeEA","randomdotsizeEA","equaldotsize","randomdotsizeEA","equaldotanddens","randomdotsizeEA","equaldotsize","randomdotsizeEA","equaldotsize","equaldotsize","equaldotanddens","equaldotanddens","equaldotanddens","equaldotanddens","equaldotsize","randomdotsizeEA","equaldotanddens","randomdotsizeEA","equaldotanddens","equaldotanddens","randomdotsizeEA","randomdotsizeEA","randomdotsizeEA","equaldotanddens","equaldotanddens"],"ratio_trial":[750,750,900,500,500,750,900,500,900,500,900,500,750,750,250,900,500,900,250,900,500,900,250,250,250,900,250,250,250,750,250,750,500,900,750,500,900,500,750,250,250,500,750,250,500,250,500,900,750,900,750,500,900,250,750,500,900,250,500,750,750,750,250,500,250,250,750,900,750,900,250,250,750,750,500,750,900,900,500,250,500,500,900,500,500,500,750,750,500,250,500,750,250,750,250,750,900,250,500,900,500,900,900,250,750,750,250,750,900,900,500,900,500,250,750,900,900,250,250,900],"smaller_num":["3","15","9","1","6","6","18","9","18","10","9","4","6","15","3","18","5","18","2","18","6","18","2","6","3","9","4","4","2","18","1","3","1","18","6","1","9","9","3","4","3","2","15","6","6","2","10","18","15","9","6","9","9","4","9","5","18","3","3","18","12","15","2","4","2","2","15","18","12","18","6","3","9","3","10","15","18","18","1","2","3","1","18","5","3","9","3","15","6","2","9","3","3","3","2","3","9","3","6","18","5","18","18","6","6","3","3","6","18","9","1","9","6","6","15","18","9","6","3","18"],"larger_num":["4","20","10","2","12","8","20","18","20","20","10","8","8","20","12","20","10","20","8","20","12","20","8","24","12","10","16","16","8","24","4","4","2","20","8","2","10","18","4","16","12","4","20","24","12","8","20","20","20","10","8","18","10","16","12","10","20","12","6","24","16","20","8","8","8","8","20","20","16","20","24","12","12","4","20","20","20","20","2","8","6","2","20","10","6","18","4","20","12","8","18","4","12","4","8","4","10","12","12","20","10","20","20","24","8","4","12","8","20","10","2","10","12","24","20","20","10","24","12","20"],"correct_side":[1,1,2,2,1,1,1,2,2,2,1,1,1,1,2,2,1,2,1,1,1,1,1,1,2,2,1,2,2,1,2,2,2,1,1,2,1,2,1,2,2,1,2,1,1,2,2,2,1,1,1,1,1,2,2,1,1,1,2,1,2,1,1,1,2,1,2,1,2,1,1,1,2,2,2,1,1,1,2,1,2,2,1,2,2,2,1,2,1,1,1,1,2,1,1,1,2,1,1,1,1,1,1,1,2,2,1,1,2,1,2,2,1,1,1,1,2,1,1,1],"img_shown":["img/750/equaldotsize/L/10_Ratio_750_L_4_R_3.png","img/750/equaldotsize/L/1_Ratio_750_L_20_R_15.png","img/900/equaldotanddens/R/5_Ratio_900_L_9_R_10.png","img/500/equaldotsize/R/12_Ratio_500_L_1_R_2.png","img/500/equaldotanddens/L/11_Ratio_500_L_12_R_6.png","img/750/equaldotsize/L/13_Ratio_750_L_8_R_6.png","img/900/equaldotsize/L/8_Ratio_900_L_20_R_18.png","img/500/randomdotsizeEA/R/1_Ratio_500_L_9_R_18.png","img/900/randomdotsizeEA/R/11_Ratio_900_L_18_R_20.png","img/500/randomdotsizeEA/R/3_Ratio_500_L_10_R_20.png","img/900/equaldotsize/L/1_Ratio_900_L_10_R_9.png","img/500/equaldotanddens/L/8_Ratio_500_L_8_R_4.png","img/750/equaldotanddens/L/14_Ratio_750_L_8_R_6.png","img/750/equaldotsize/L/1_Ratio_750_L_20_R_15.png","img/250/equaldotanddens/R/11_Ratio_250_L_3_R_12.png","img/900/randomdotsizeEA/R/14_Ratio_900_L_18_R_20.png","img/500/randomdotsizeEA/L/7_Ratio_500_L_10_R_5.png","img/900/equaldotsize/R/9_Ratio_900_L_18_R_20.png","img/250/equaldotsize/L/3_Ratio_250_L_8_R_2.png","img/900/randomdotsizeEA/L/2_Ratio_900_L_20_R_18.png","img/500/equaldotsize/L/13_Ratio_500_L_12_R_6.png","img/900/randomdotsizeEA/L/8_Ratio_900_L_20_R_18.png","img/250/equaldotanddens/L/3_Ratio_250_L_8_R_2.png","img/250/equaldotanddens/L/5_Ratio_250_L_24_R_6.png","img/250/equaldotsize/R/11_Ratio_250_L_3_R_12.png","img/900/equaldotanddens/R/5_Ratio_900_L_9_R_10.png","img/250/equaldotanddens/L/2_Ratio_250_L_16_R_4.png","img/250/randomdotsizeEA/R/10_Ratio_250_L_4_R_16.png","img/250/randomdotsizeEA/R/13_Ratio_250_L_2_R_8.png","img/750/randomdotsizeEA/L/6_Ratio_750_L_24_R_18.png","img/250/equaldotanddens/R/8_Ratio_250_L_1_R_4.png","img/750/equaldotanddens/R/7_Ratio_750_L_3_R_4.png","img/500/equaldotsize/R/12_Ratio_500_L_1_R_2.png","img/900/equaldotanddens/L/4_Ratio_900_L_20_R_18.png","img/750/randomdotsizeEA/L/14_Ratio_750_L_8_R_6.png","img/500/equaldotanddens/R/15_Ratio_500_L_1_R_2.png","img/900/randomdotsizeEA/L/1_Ratio_900_L_10_R_9.png","img/500/equaldotsize/R/1_Ratio_500_L_9_R_18.png","img/750/randomdotsizeEA/L/9_Ratio_750_L_4_R_3.png","img/250/randomdotsizeEA/R/10_Ratio_250_L_4_R_16.png","img/250/randomdotsizeEA/R/9_Ratio_250_L_3_R_12.png","img/500/equaldotanddens/L/5_Ratio_500_L_4_R_2.png","img/750/equaldotsize/R/5_Ratio_750_L_15_R_20.png","img/250/equaldotsize/L/5_Ratio_250_L_24_R_6.png","img/500/equaldotsize/L/11_Ratio_500_L_12_R_6.png","img/250/randomdotsizeEA/R/13_Ratio_250_L_2_R_8.png","img/500/equaldotanddens/R/3_Ratio_500_L_10_R_20.png","img/900/equaldotsize/R/14_Ratio_900_L_18_R_20.png","img/750/equaldotanddens/L/1_Ratio_750_L_20_R_15.png","img/900/equaldotsize/L/1_Ratio_900_L_10_R_9.png","img/750/equaldotsize/L/14_Ratio_750_L_8_R_6.png","img/500/equaldotsize/L/4_Ratio_500_L_18_R_9.png","img/900/equaldotsize/L/1_Ratio_900_L_10_R_9.png","img/250/equaldotsize/R/10_Ratio_250_L_4_R_16.png","img/750/randomdotsizeEA/R/15_Ratio_750_L_9_R_12.png","img/500/equaldotanddens/L/7_Ratio_500_L_10_R_5.png","img/900/equaldotanddens/L/2_Ratio_900_L_20_R_18.png","img/250/equaldotsize/L/15_Ratio_250_L_12_R_3.png","img/500/randomdotsizeEA/R/2_Ratio_500_L_3_R_6.png","img/750/randomdotsizeEA/L/6_Ratio_750_L_24_R_18.png","img/750/equaldotanddens/R/11_Ratio_750_L_12_R_16.png","img/750/randomdotsizeEA/L/1_Ratio_750_L_20_R_15.png","img/250/randomdotsizeEA/L/7_Ratio_250_L_8_R_2.png","img/500/randomdotsizeEA/L/8_Ratio_500_L_8_R_4.png","img/250/equaldotsize/R/13_Ratio_250_L_2_R_8.png","img/250/randomdotsizeEA/L/7_Ratio_250_L_8_R_2.png","img/750/equaldotsize/R/5_Ratio_750_L_15_R_20.png","img/900/equaldotanddens/L/10_Ratio_900_L_20_R_18.png","img/750/randomdotsizeEA/R/11_Ratio_750_L_12_R_16.png","img/900/equaldotanddens/L/4_Ratio_900_L_20_R_18.png","img/250/equaldotanddens/L/5_Ratio_250_L_24_R_6.png","img/250/randomdotsizeEA/L/14_Ratio_250_L_12_R_3.png","img/750/equaldotsize/R/15_Ratio_750_L_9_R_12.png","img/750/randomdotsizeEA/R/7_Ratio_750_L_3_R_4.png","img/500/equaldotanddens/R/3_Ratio_500_L_10_R_20.png","img/750/equaldotanddens/L/1_Ratio_750_L_20_R_15.png","img/900/equaldotsize/L/2_Ratio_900_L_20_R_18.png","img/900/equaldotsize/L/4_Ratio_900_L_20_R_18.png","img/500/randomdotsizeEA/R/12_Ratio_500_L_1_R_2.png","img/250/equaldotsize/L/1_Ratio_250_L_8_R_2.png","img/500/equaldotsize/R/2_Ratio_500_L_3_R_6.png","img/500/equaldotsize/R/15_Ratio_500_L_1_R_2.png","img/900/randomdotsizeEA/L/10_Ratio_900_L_20_R_18.png","img/500/equaldotsize/R/14_Ratio_500_L_5_R_10.png","img/500/equaldotanddens/R/2_Ratio_500_L_3_R_6.png","img/500/equaldotsize/R/1_Ratio_500_L_9_R_18.png","img/750/equaldotsize/L/9_Ratio_750_L_4_R_3.png","img/750/equaldotanddens/R/5_Ratio_750_L_15_R_20.png","img/500/equaldotanddens/L/11_Ratio_500_L_12_R_6.png","img/250/equaldotanddens/L/3_Ratio_250_L_8_R_2.png","img/500/equaldotanddens/L/4_Ratio_500_L_18_R_9.png","img/750/randomdotsizeEA/L/9_Ratio_750_L_4_R_3.png","img/250/equaldotsize/R/9_Ratio_250_L_3_R_12.png","img/750/equaldotanddens/L/10_Ratio_750_L_4_R_3.png","img/250/randomdotsizeEA/L/7_Ratio_250_L_8_R_2.png","img/750/randomdotsizeEA/L/9_Ratio_750_L_4_R_3.png","img/900/randomdotsizeEA/R/6_Ratio_900_L_9_R_10.png","img/250/equaldotsize/L/14_Ratio_250_L_12_R_3.png","img/500/randomdotsizeEA/L/13_Ratio_500_L_12_R_6.png","img/900/equaldotanddens/L/10_Ratio_900_L_20_R_18.png","img/500/randomdotsizeEA/L/7_Ratio_500_L_10_R_5.png","img/900/equaldotsize/L/4_Ratio_900_L_20_R_18.png","img/900/randomdotsizeEA/L/2_Ratio_900_L_20_R_18.png","img/250/equaldotsize/L/5_Ratio_250_L_24_R_6.png","img/750/equaldotsize/R/2_Ratio_750_L_6_R_8.png","img/750/equaldotanddens/R/12_Ratio_750_L_3_R_4.png","img/250/equaldotanddens/L/15_Ratio_250_L_12_R_3.png","img/750/equaldotanddens/L/13_Ratio_750_L_8_R_6.png","img/900/equaldotanddens/R/13_Ratio_900_L_18_R_20.png","img/900/equaldotsize/L/1_Ratio_900_L_10_R_9.png","img/500/randomdotsizeEA/R/15_Ratio_500_L_1_R_2.png","img/900/equaldotanddens/R/3_Ratio_900_L_9_R_10.png","img/500/randomdotsizeEA/L/13_Ratio_500_L_12_R_6.png","img/250/equaldotanddens/L/5_Ratio_250_L_24_R_6.png","img/750/equaldotanddens/L/1_Ratio_750_L_20_R_15.png","img/900/randomdotsizeEA/L/10_Ratio_900_L_20_R_18.png","img/900/randomdotsizeEA/R/7_Ratio_900_L_9_R_10.png","img/250/randomdotsizeEA/L/5_Ratio_250_L_24_R_6.png","img/250/equaldotanddens/L/14_Ratio_250_L_12_R_3.png","img/900/equaldotanddens/L/10_Ratio_900_L_20_R_18.png"],"Rat0":[["12_Ratio_0_L_9_R_0.png","13_Ratio_0_L_6_R_0.png","5_Ratio_0_L_2_R_0.png","6_Ratio_0_L_4_R_0.png","8_Ratio_0_L_6_R_0.png"],["1_Ratio_0_L_0_R_17.png","10_Ratio_0_L_0_R_22.png","11_Ratio_0_L_0_R_1.png","14_Ratio_0_L_0_R_24.png","15_Ratio_0_L_0_R_4.png","2_Ratio_0_L_0_R_5.png","3_Ratio_0_L_0_R_17.png","4_Ratio_0_L_0_R_7.png","7_Ratio_0_L_0_R_19.png","9_Ratio_0_L_0_R_15.png"]],"Rat250":[["1_Ratio_250_L_8_R_2.png","14_Ratio_250_L_12_R_3.png","15_Ratio_250_L_12_R_3.png","2_Ratio_250_L_16_R_4.png","3_Ratio_250_L_8_R_2.png","5_Ratio_250_L_24_R_6.png","7_Ratio_250_L_8_R_2.png"],["10_Ratio_250_L_4_R_16.png","11_Ratio_250_L_3_R_12.png","12_Ratio_250_L_5_R_20.png","13_Ratio_250_L_2_R_8.png","4_Ratio_250_L_3_R_12.png","6_Ratio_250_L_6_R_24.png","8_Ratio_250_L_1_R_4.png","9_Ratio_250_L_3_R_12.png"]],"Rat500":[["10_Ratio_500_L_4_R_2.png","11_Ratio_500_L_12_R_6.png","13_Ratio_500_L_12_R_6.png","4_Ratio_500_L_18_R_9.png","5_Ratio_500_L_4_R_2.png","7_Ratio_500_L_10_R_5.png","8_Ratio_500_L_8_R_4.png"],["1_Ratio_500_L_9_R_18.png","12_Ratio_500_L_1_R_2.png","14_Ratio_500_L_5_R_10.png","15_Ratio_500_L_1_R_2.png","2_Ratio_500_L_3_R_6.png","3_Ratio_500_L_10_R_20.png","6_Ratio_500_L_9_R_18.png","9_Ratio_500_L_2_R_4.png"]],"Rat750":[["1_Ratio_750_L_20_R_15.png","10_Ratio_750_L_4_R_3.png","13_Ratio_750_L_8_R_6.png","14_Ratio_750_L_8_R_6.png","6_Ratio_750_L_24_R_18.png","8_Ratio_750_L_4_R_3.png","9_Ratio_750_L_4_R_3.png"],["11_Ratio_750_L_12_R_16.png","12_Ratio_750_L_3_R_4.png","15_Ratio_750_L_9_R_12.png","2_Ratio_750_L_6_R_8.png","3_Ratio_750_L_15_R_20.png","4_Ratio_750_L_15_R_20.png","5_Ratio_750_L_15_R_20.png","7_Ratio_750_L_3_R_4.png"]],"Rat900":[["1_Ratio_900_L_10_R_9.png","10_Ratio_900_L_20_R_18.png","2_Ratio_900_L_20_R_18.png","4_Ratio_900_L_20_R_18.png","8_Ratio_900_L_20_R_18.png"],["11_Ratio_900_L_18_R_20.png","12_Ratio_900_L_18_R_20.png","13_Ratio_900_L_18_R_20.png","14_Ratio_900_L_18_R_20.png","15_Ratio_900_L_9_R_10.png","3_Ratio_900_L_9_R_10.png","5_Ratio_900_L_9_R_10.png","6_Ratio_900_L_9_R_10.png","7_Ratio_900_L_9_R_10.png","9_Ratio_900_L_18_R_20.png"]],"Rat1000":[["10_Ratio_1000_L_16_R_16.png","11_Ratio_1000_L_6_R_6.png","12_Ratio_1000_L_14_R_14.png","13_Ratio_1000_L_20_R_20.png","15_Ratio_1000_L_15_R_15.png","2_Ratio_1000_L_17_R_17.png","4_Ratio_1000_L_9_R_9.png","5_Ratio_1000_L_6_R_6.png","6_Ratio_1000_L_19_R_19.png","8_Ratio_1000_L_14_R_14.png","9_Ratio_1000_L_25_R_25.png"],["1_Ratio_1000_L_1_R_1.png","14_Ratio_1000_L_17_R_17.png","3_Ratio_1000_L_17_R_17.png","7_Ratio_1000_L_6_R_6.png"]]}},{"start_time":1552069148024,"click_time":1552069149303,"finger_time":1552069148983,"fix_duration":377.47797331330577,"trial":1,"RT":959,"MT":320,"sideResp":1,"stimulus":"img/750/equaldotsize/L/1_Ratio_750_L_20_R_15.png","xmouse":[803,803,803,803,803,803,803,803,803,803,803,803,803,803,803,803,803,803,803,803,803,803,803,803,803,803,803,803,803,803,803,803,803,803,803,803,803,803,803,803,803,803,803,803,803,803,799,796,773,681,646,621,607,594,574,565,558,550,543,530,527,526,526,526,523],"ymouse":[614,614,614,614,614,614,614,614,614,614,614,614,614,614,614,614,614,614,614,614,614,614,614,614,614,614,614,614,614,614,614,614,614,614,614,614,614,614,614,614,614,614,614,614,614,614,614,601,548,383,310,253,218,189,159,145,132,118,104,77,71,67,67,67,66],"timestamp_mouse":[2,19,43,59,79,100,120,139,159,178,199,219,239,259,279,298,318,340,360,380,399,418,439,458,479,500,520,539,558,580,598,618,638,659,678,700,720,738,759,778,799,820,839,860,879,899,919,939,959,979,999,1020,1039,1058,1078,1099,1119,1140,1159,1180,1198,1218,1239,1259,1279],"xSR":741.5,"ySR":573.95,"xT1":424.9,"yT1":0,"xT2":1058.1,"yT2":0,"toosoon":0,"cond_shown":"equaldotsize","ratio_trial":750,"smaller_num":"15","larger_num":"20","correct_side":1,"subjID":"AnaMariaMoreno16","gender":"1","age":"9","school":"4"},{"start_time":1552069150595,"click_time":1552069151903,"finger_time":1552069151324,"fix_duration":250,"trial":2,"RT":729,"MT":579,"sideResp":2,"stimulus":"img/900/equaldotanddens/R/5_Ratio_900_L_9_R_10.png","xmouse":[764,764,764,764,764,764,764,764,764,764,764,764,764,764,764,764,764,764,764,764,764,764,764,764,764,764,764,764,764,764,764,764,764,764,764,775,796,820,846,866,898,907,914,920,923,936,943,955,967,983,1010,1023,1035,1044,1052,1066,1073,1080,1087,1092,1097,1097,1097,1097,1097,1098],"ymouse":[595,595,595,595,595,595,595,595,595,595,595,595,595,595,595,595,595,595,595,595,595,595,595,595,595,595,595,595,595,595,595,595,595,595,595,587,556,516,471,425,367,348,339,333,328,311,301,285,269,246,206,188,172,158,150,138,132,124,117,111,105,105,105,105,105,97],"timestamp_mouse":[12,36,48,67,87,107,128,147,167,188,209,227,248,267,287,309,328,348,368,388,408,427,447,467,489,508,527,547,567,587,608,629,648,669,688,708,729,749,769,788,807,827,848,868,888,909,927,947,969,988,1009,1027,1047,1069,1089,1108,1127,1147,1167,1188,1207,1228,1248,1269,1287,1307],"xSR":741.5,"ySR":573.95,"xT1":424.9,"yT1":0,"xT2":1058.1,"yT2":0,"toosoon":0,"cond_shown":"equaldotanddens","ratio_trial":900,"smaller_num":"9","larger_num":"10","correct_side":2,"subjID":"AnaMariaMoreno16","gender":"1","age":"9","school":"4"},{"start_time":1552069153494,"click_time":1552069154503,"finger_time":1552069154162,"fix_duration":429.2147965759109,"trial":3,"RT":668,"MT":341,"sideResp":2,"stimulus":"img/500/equaldotsize/R/12_Ratio_500_L_1_R_2.png","xmouse":[788,788,788,788,788,788,788,788,788,788,788,788,788,788,788,788,788,788,788,788,788,788,788,788,788,788,788,788,788,788,793,810,827,848,869,920,939,959,976,992,1024,1035,1043,1050,1055,1062,1063,1064,1065,1066,1069],"ymouse":[610,610,610,610,610,610,610,610,610,610,610,610,610,610,610,610,610,610,610,610,610,610,610,610,610,610,610,610,610,610,607,595,577,551,521,453,430,404,377,348,277,249,227,206,187,153,142,132,122,111,93],"timestamp_mouse":[9,35,48,70,88,109,130,150,169,190,209,228,249,268,288,309,330,349,369,389,409,429,448,469,488,509,530,548,569,588,609,630,649,668,688,708,728,748,768,788,809,830,848,869,889,908,928,949,968,989,1009],"xSR":741.5,"ySR":573.95,"xT1":424.9,"yT1":0,"xT2":1058.1,"yT2":0,"toosoon":0,"cond_shown":"equaldotsize","ratio_trial":500,"smaller_num":"1","larger_num":"2","correct_side":2,"subjID":"AnaMariaMoreno16","gender":"1","age":"9","school":"4"},{"start_time":1552069156320,"click_time":1552069157103,"finger_time":1552069156923,"fix_duration":694.9062036908165,"trial":4,"RT":603,"MT":180,"sideResp":1,"stimulus":"img/500/equaldotanddens/L/11_Ratio_500_L_12_R_6.png","xmouse":[801,801,801,801,801,801,801,801,801,801,801,801,801,801,801,801,801,801,801,801,801,801,801,801,801,801,801,801,801,802,777,722,658,592,533,516,504,485,470,463],"ymouse":[622,622,622,622,622,622,622,622,622,622,622,622,622,622,622,622,622,622,622,622,622,622,622,622,622,622,622,622,622,618,569,500,434,365,260,217,181,140,106,84],"timestamp_mouse":[12,34,43,63,82,103,122,142,164,182,202,222,243,263,282,302,324,342,362,384,404,423,442,462,482,504,524,543,563,582,603,623,643,662,683,702,723,743,764,783],"xSR":741.5,"ySR":573.95,"xT1":424.9,"yT1":0,"xT2":1058.1,"yT2":0,"toosoon":0,"cond_shown":"equaldotanddens","ratio_trial":500,"smaller_num":"6","larger_num":"12","correct_side":1,"subjID":"AnaMariaMoreno16","gender":"1","age":"9","school":"4"},{"start_time":1552069161811,"click_time":1552069164524,"finger_time":1552069162904,"fix_duration":1366.7576878755463,"trial":5,"RT":1093,"MT":1620,"sideResp":1,"stimulus":"img/750/equaldotsize/L/13_Ratio_750_L_8_R_6.png","xmouse":[775,775,775,775,775,775,775,775,775,775,775,775,775,775,775,775,775,775,775,775,775,775,775,775,775,775,775,775,775,775,775,775,775,775,775,775,775,775,775,775,775,775,775,775,775,775,775,775,775,775,775,775,781,794,829,842,854,863,871,885,894,900,907,915,934,941,947,951,953,954,954,954,954,954,954,954,954,954,954,954,952,948,942,921,904,893,885,874,847,831,812,796,786,780,762,748,730,710,668,649,635,627,619,607,601,599,597,593,589,582,577,573,570,565,563,562,561,561,561,561,561,560,558,556,553,551,548,544,542,536,535,534,531,525,508,499],"ymouse":[628,628,628,628,628,628,628,628,628,628,628,628,628,628,628,628,628,628,628,628,628,628,628,628,628,628,628,628,628,628,628,628,628,628,628,628,628,628,628,628,628,628,628,628,628,628,628,628,628,628,628,616,607,585,534,522,515,509,504,487,472,454,437,419,374,359,344,334,327,324,324,324,324,324,324,324,324,324,324,324,321,320,317,310,306,305,304,300,291,287,285,284,284,282,273,267,258,246,229,220,214,209,205,194,188,185,181,176,170,165,161,157,155,154,153,152,152,152,152,152,152,152,151,150,149,148,147,145,144,141,140,139,135,130,109,99],"timestamp_mouse":[14,32,52,71,92,112,132,153,171,193,213,231,251,272,292,311,331,352,372,392,412,433,453,472,492,512,532,551,572,593,613,632,652,671,692,713,732,752,772,792,811,832,852,873,893,911,931,951,973,991,1013,1032,1051,1072,1092,1113,1133,1152,1171,1192,1212,1232,1252,1271,1292,1312,1332,1352,1372,1393,1413,1431,1452,1471,1491,1512,1532,1553,1572,1593,1612,1631,1651,1673,1692,1711,1731,1752,1773,1792,1813,1832,1852,1871,1891,1911,1931,1952,1973,1992,2012,2032,2051,2073,2091,2111,2131,2151,2171,2191,2213,2233,2252,2273,2291,2312,2333,2352,2372,2392,2412,2431,2452,2472,2492,2512,2532,2552,2572,2592,2611,2632,2651,2672,2691,2713],"xSR":741.5,"ySR":573.95,"xT1":424.9,"yT1":0,"xT2":1058.1,"yT2":0,"toosoon":0,"cond_shown":"equaldotsize","ratio_trial":750,"smaller_num":"6","larger_num":"8","correct_side":1,"subjID":"AnaMariaMoreno16","gender":"1","age":"9","school":"4"},{"start_time":1552069166438,"click_time":1552069167684,"finger_time":1552069167263,"fix_duration":532.9481082299766,"trial":6,"RT":825,"MT":421,"sideResp":2,"stimulus":"img/900/equaldotsize/L/8_Ratio_900_L_20_R_18.png","xmouse":[778,778,778,778,778,778,778,778,778,778,778,778,778,778,778,778,778,778,778,778,778,778,778,778,778,778,778,778,778,778,778,778,778,778,778,778,778,778,778,778,783,792,798,817,832,857,885,916,958,972,981,987,994,999,999,1000,1002,1005,1017,1017,1044,1056,1078],"ymouse":[630,630,630,630,630,630,630,630,630,630,630,630,630,630,630,630,630,630,630,630,630,630,630,630,630,630,630,630,630,630,630,630,630,630,630,630,630,630,630,614,600,560,516,391,335,275,216,165,86,62,43,30,19,12,11,10,9,7,4,4,0,0,2],"timestamp_mouse":[12,24,45,65,86,104,125,144,165,185,204,225,246,265,285,304,324,344,365,384,404,425,446,466,485,504,525,546,565,584,604,624,646,664,684,705,726,744,766,785,806,825,844,864,884,905,925,945,964,984,1005,1025,1044,1064,1085,1105,1126,1145,1164,1184,1204,1224,1245],"xSR":741.5,"ySR":573.95,"xT1":424.9,"yT1":0,"xT2":1058.1,"yT2":0,"toosoon":0,"cond_shown":"equaldotsize","ratio_trial":900,"smaller_num":"18","larger_num":"20","correct_side":1,"subjID":"AnaMariaMoreno16","gender":"1","age":"9","school":"4"},{"start_time":1552069169106,"click_time":1552069171024,"finger_time":1552069170263,"fix_duration":701.4727173420862,"trial":7,"RT":1157,"MT":761,"sideResp":1,"stimulus":"img/500/randomdotsizeEA/R/1_Ratio_500_L_9_R_18.png","xmouse":[784,784,784,784,784,784,784,784,784,784,784,784,784,784,784,784,784,784,784,784,784,784,784,784,784,784,784,784,784,784,784,784,784,784,784,784,784,784,784,784,784,784,784,784,784,784,784,784,784,784,784,784,784,784,784,784,783,774,696,552,492,461,448,440,415,407,402,399,397,396,396,396,395,395,398,401,402,402,393,383,382,382,382,382,382,384,388,401,416,429,432,436,442,448,461,468],"ymouse":[595,595,595,595,595,595,595,595,595,595,595,595,595,595,595,595,595,595,595,595,595,595,595,595,595,595,595,595,595,595,595,595,595,595,595,595,595,595,595,595,595,595,595,595,595,595,595,595,595,595,595,595,595,595,595,595,594,571,444,341,303,280,270,266,253,249,245,245,244,243,243,243,242,237,209,187,163,143,121,103,98,91,87,84,84,85,89,103,124,135,135,134,130,124,106,92],"timestamp_mouse":[25,45,56,77,97,118,137,157,176,196,216,237,258,276,296,317,337,358,376,397,417,437,458,477,497,516,538,556,576,598,616,638,656,677,698,717,737,758,777,797,818,837,858,877,897,917,936,957,977,998,1016,1037,1057,1077,1096,1117,1137,1157,1177,1197,1217,1236,1257,1277,1297,1317,1337,1356,1377,1396,1417,1437,1457,1476,1498,1518,1537,1557,1577,1597,1617,1637,1657,1677,1698,1716,1738,1756,1776,1796,1817,1836,1857,1877,1896,1918],"xSR":741.5,"ySR":573.95,"xT1":424.9,"yT1":0,"xT2":1058.1,"yT2":0,"toosoon":0,"cond_shown":"randomdotsizeEA","ratio_trial":500,"smaller_num":"9","larger_num":"18","correct_side":2,"subjID":"AnaMariaMoreno16","gender":"1","age":"9","school":"4"},{"start_time":1552069174077,"click_time":1552069175625,"finger_time":1552069175063,"fix_duration":611.9570421079353,"trial":8,"RT":986,"MT":562,"sideResp":2,"stimulus":"img/900/randomdotsizeEA/R/11_Ratio_900_L_18_R_20.png","xmouse":[807,807,807,807,807,807,807,807,807,807,807,807,807,807,807,807,807,807,807,807,807,807,807,807,807,807,807,807,807,807,807,807,807,807,807,807,807,807,807,807,807,807,807,807,807,807,807,802,798,794,793,794,801,804,808,808,802,801,801,801,803,805,806,806,810,822,854,860,869,877,886,909,920,933,952,978,1037,1068],"ymouse":[645,645,645,645,645,645,645,645,645,645,645,645,645,645,645,645,645,645,645,645,645,645,645,645,645,645,645,645,645,645,645,645,645,645,645,645,645,645,645,645,645,645,645,645,645,645,636,609,579,541,497,434,398,365,333,306,254,233,219,207,193,186,185,185,182,175,156,151,144,139,133,122,120,116,111,105,86,74],"timestamp_mouse":[10,25,45,73,86,106,127,145,165,185,206,227,245,267,287,307,325,346,365,385,407,427,446,465,486,507,527,545,567,585,606,626,645,666,687,705,725,746,765,787,806,826,847,867,885,907,926,946,966,986,1005,1025,1045,1065,1087,1106,1125,1146,1167,1186,1206,1225,1245,1265,1285,1307,1326,1346,1366,1386,1407,1425,1445,1465,1487,1506,1525,1547],"xSR":741.5,"ySR":573.95,"xT1":424.9,"yT1":0,"xT2":1058.1,"yT2":0,"toosoon":0,"cond_shown":"randomdotsizeEA","ratio_trial":900,"smaller_num":"18","larger_num":"20","correct_side":2,"subjID":"AnaMariaMoreno16","gender":"1","age":"9","school":"4"},{"start_time":1552069178179,"click_time":1552069180404,"finger_time":1552069179682,"fix_duration":1175.665573506202,"trial":9,"RT":1503,"MT":722,"sideResp":1,"stimulus":"img/500/randomdotsizeEA/R/3_Ratio_500_L_10_R_20.png","xmouse":[825,825,825,825,825,825,825,825,825,825,825,825,825,825,825,825,825,825,825,825,825,825,825,825,825,825,825,825,825,825,825,825,825,825,825,825,825,825,825,825,825,825,825,825,825,825,825,825,825,825,825,825,825,825,825,825,825,825,825,825,825,825,825,825,825,825,825,825,825,825,825,825,824,823,819,811,711,638,574,530,505,491,487,482,477,470,460,455,452,452,451,444,441,437,432,427,410,403,396,389,386,382,382,382,383,387,399,403,407,413,415,430],"ymouse":[633,633,633,633,633,633,633,633,633,633,633,633,633,633,633,633,633,633,633,633,633,633,633,633,633,633,633,633,633,633,633,633,633,633,633,633,633,633,633,633,633,633,633,633,633,633,633,633,633,633,633,633,633,633,633,633,633,633,633,633,633,633,633,633,633,633,633,633,633,633,633,633,627,612,592,572,477,430,393,360,337,312,304,299,294,288,272,263,253,245,238,221,212,204,195,188,152,129,103,75,52,9,0,0,0,0,0,0,0,0,0,9],"timestamp_mouse":[13,38,44,64,84,105,124,145,165,183,204,225,243,263,285,303,324,343,364,383,405,425,443,464,483,504,523,544,565,584,604,624,643,663,684,704,725,744,764,784,805,825,843,863,883,905,924,943,965,983,1004,1025,1045,1065,1084,1104,1125,1145,1164,1184,1203,1224,1245,1265,1284,1305,1324,1345,1364,1384,1405,1424,1444,1465,1484,1503,1523,1544,1564,1584,1603,1623,1644,1664,1685,1704,1724,1744,1763,1784,1803,1824,1843,1864,1885,1903,1923,1944,1963,1983,2004,2025,2043,2064,2084,2105,2125,2144,2163,2183,2205,2224],"xSR":741.5,"ySR":573.95,"xT1":424.9,"yT1":0,"xT2":1058.1,"yT2":0,"toosoon":0,"cond_shown":"randomdotsizeEA","ratio_trial":500,"smaller_num":"10","larger_num":"20","correct_side":2,"subjID":"AnaMariaMoreno16","gender":"1","age":"9","school":"4"},{"start_time":1552069182503,"click_time":1552069183883,"finger_time":1552069183322,"fix_duration":578.0215429490023,"trial":10,"RT":819,"MT":561,"sideResp":2,"stimulus":"img/900/equaldotsize/L/1_Ratio_900_L_10_R_9.png","xmouse":[793,793,793,793,793,793,793,793,793,793,793,793,793,793,793,793,793,793,793,793,793,793,793,793,793,793,793,793,793,793,793,793,793,793,793,793,793,793,793,793,796,803,808,812,814,824,828,834,837,841,850,857,865,878,893,928,951,972,997,1020,1063,1075,1084,1091,1096,1097,1097,1097,1097,1097],"ymouse":[617,617,617,617,617,617,617,617,617,617,617,617,617,617,617,617,617,617,617,617,617,617,617,617,617,617,617,617,617,617,617,617,617,617,617,617,617,617,617,617,583,529,496,471,458,437,429,420,416,410,394,380,363,340,314,244,202,151,102,57,0,0,0,0,0,0,0,0,0,1],"timestamp_mouse":[8,21,41,59,80,101,120,140,160,181,200,220,239,260,280,299,319,340,361,380,399,419,441,460,481,500,519,540,559,579,601,621,640,661,680,700,719,739,761,780,799,819,840,859,879,900,920,941,960,980,999,1019,1040,1060,1080,1099,1121,1141,1160,1179,1200,1220,1241,1263,1279,1300,1319,1340,1359,1380],"xSR":741.5,"ySR":573.95,"xT1":424.9,"yT1":0,"xT2":1058.1,"yT2":0,"toosoon":0,"cond_shown":"equaldotsize","ratio_trial":900,"smaller_num":"9","larger_num":"10","correct_side":1,"subjID":"AnaMariaMoreno16","gender":"1","age":"9","school":"4"},{"start_time":1552069185695,"click_time":1552069187223,"finger_time":1552069186702,"fix_duration":448.0104268028334,"trial":11,"RT":1007,"MT":521,"sideResp":1,"stimulus":"img/500/equaldotanddens/L/8_Ratio_500_L_8_R_4.png","xmouse":[773,773,773,773,773,773,773,773,773,773,773,773,773,773,773,773,773,773,773,773,773,773,773,773,773,773,773,773,773,773,773,773,773,773,773,773,773,773,773,773,773,773,773,773,773,773,773,772,768,750,620,552,502,475,469,469,469,469,469,469,469,469,469,469,469,469,469,469,469,469,469,465,458,448,442,434,433],"ymouse":[647,647,647,647,647,647,647,647,647,647,647,647,647,647,647,647,647,647,647,647,647,647,647,647,647,647,647,647,647,647,647,647,647,647,647,647,647,647,647,647,647,647,647,647,647,647,647,647,642,617,420,315,239,198,191,191,191,191,191,191,191,191,191,191,191,191,191,191,191,191,191,183,165,148,132,105,98],"timestamp_mouse":[9,28,49,69,89,108,128,148,167,187,208,228,249,267,289,307,327,347,368,387,407,427,448,467,489,507,527,547,568,588,607,627,647,668,688,709,727,747,767,789,807,827,847,869,887,907,927,949,968,988,1007,1027,1047,1067,1088,1108,1128,1149,1168,1188,1208,1228,1247,1267,1287,1308,1329,1349,1368,1387,1407,1428,1448,1468,1488,1508,1528],"xSR":741.5,"ySR":573.95,"xT1":424.9,"yT1":0,"xT2":1058.1,"yT2":0,"toosoon":0,"cond_shown":"equaldotanddens","ratio_trial":500,"smaller_num":"4","larger_num":"8","correct_side":1,"subjID":"AnaMariaMoreno16","gender":"1","age":"9","school":"4"},{"start_time":1552069190330,"click_time":1552069191983,"finger_time":1552069191203,"fix_duration":765.3936756197738,"trial":12,"RT":873,"MT":780,"sideResp":1,"stimulus":"img/750/equaldotanddens/L/14_Ratio_750_L_8_R_6.png","xmouse":[821,821,821,821,821,821,821,821,821,821,821,821,821,821,821,821,821,821,821,821,821,821,821,821,821,821,821,821,821,821,821,821,821,821,821,821,821,821,821,821,821,821,822,770,696,607,518,418,281,266,259,257,256,256,256,256,256,256,256,256,256,256,256,276,295,313,330,346,352,352,352,352,352,352,352,352,352,352,360,377,397,421,449],"ymouse":[615,615,615,615,615,615,615,615,615,615,615,615,615,615,615,615,615,615,615,615,615,615,615,615,615,615,615,615,615,615,615,615,615,615,615,615,615,615,615,615,615,615,613,537,421,284,149,36,0,0,0,0,0,0,0,0,0,0,0,0,0,0,0,14,26,37,47,51,53,53,53,53,53,53,53,53,53,53,57,62,67,71,78],"timestamp_mouse":[14,44,53,74,93,112,134,152,172,194,214,233,253,274,292,312,333,353,374,392,412,433,453,474,494,512,532,552,574,593,614,632,653,674,694,712,732,753,772,794,814,833,853,873,893,913,933,952,974,992,1013,1033,1053,1073,1094,1114,1132,1152,1172,1193,1213,1233,1254,1273,1294,1313,1333,1354,1373,1392,1412,1433,1452,1473,1494,1514,1533,1552,1573,1594,1613,1633,1653],"xSR":741.5,"ySR":573.95,"xT1":424.9,"yT1":0,"xT2":1058.1,"yT2":0,"toosoon":0,"cond_shown":"equaldotanddens","ratio_trial":750,"smaller_num":"6","larger_num":"8","correct_side":1,"subjID":"AnaMariaMoreno16","gender":"1","age":"9","school":"4"},{"start_time":1552069194775,"click_time":1552069196327,"finger_time":1552069195485,"fix_duration":1328.092606146493,"trial":13,"RT":710,"MT":842,"sideResp":1,"stimulus":"img/750/equaldotsize/L/1_Ratio_750_L_20_R_15.png","xmouse":[782,782,782,782,782,782,782,782,782,782,782,782,782,782,782,782,782,782,782,782,782,782,782,782,782,782,782,782,782,782,782,782,782,781,774,752,706,695,685,675,663,634,622,610,601,594,572,560,545,531,515,497,496,496,496,496,496,496,496,496,496,496,496,496,496,496,496,496,496,496,496,496,496,496,496,496,496,490],"ymouse":[639,639,639,639,639,639,639,639,639,639,639,639,639,639,639,639,639,639,639,639,639,639,639,639,639,639,639,639,639,639,639,639,639,610,575,509,418,400,381,364,346,308,291,274,258,245,203,186,166,146,125,104,103,103,103,103,103,103,103,103,103,103,103,103,103,103,103,103,103,103,103,103,103,103,103,103,102,83],"timestamp_mouse":[12,34,50,70,91,110,131,150,171,191,211,231,250,270,291,311,330,351,371,389,411,431,450,470,490,510,530,551,570,591,611,630,651,670,691,710,730,751,770,791,810,830,850,871,890,910,930,951,970,991,1010,1031,1050,1070,1090,1110,1130,1150,1170,1190,1210,1231,1250,1270,1291,1311,1331,1351,1371,1391,1411,1430,1451,1470,1490,1510,1530,1551],"xSR":741.5,"ySR":573.95,"xT1":424.9,"yT1":0,"xT2":1058.1,"yT2":0,"toosoon":0,"cond_shown":"equaldotsize","ratio_trial":750,"smaller_num":"15","larger_num":"20","correct_side":1,"subjID":"AnaMariaMoreno16","gender":"1","age":"9","school":"4"},{"start_time":1552069198898,"click_time":1552069200005,"finger_time":1552069199886,"fix_duration":250,"trial":14,"RT":988,"MT":119,"sideResp":2,"stimulus":"img/250/equaldotanddens/R/11_Ratio_250_L_3_R_12.png","xmouse":[819,819,819,819,819,819,819,819,819,819,819,819,819,819,819,819,819,819,819,819,819,819,819,819,819,819,819,819,819,819,819,819,819,819,819,819,819,819,819,819,819,819,819,819,819,819,819,819,821,824,881,923,965,1002,1031,1059],"ymouse":[611,611,611,611,611,611,611,611,611,611,611,611,611,611,611,611,611,611,611,611,611,611,611,611,611,611,611,611,611,611,611,611,611,611,611,611,611,611,611,611,611,611,611,611,611,611,611,611,582,559,387,305,232,173,125,75],"timestamp_mouse":[21,46,47,66,87,107,127,147,167,188,207,228,247,267,287,308,327,347,367,387,407,427,447,468,487,507,528,548,567,587,607,628,648,667,688,707,728,747,767,788,807,827,848,868,887,908,927,948,968,988,1007,1027,1047,1068,1088,1107],"xSR":741.5,"ySR":573.95,"xT1":424.9,"yT1":0,"xT2":1058.1,"yT2":0,"toosoon":0,"cond_shown":"equaldotanddens","ratio_trial":250,"smaller_num":"3","larger_num":"12","correct_side":2,"subjID":"AnaMariaMoreno16","gender":"1","age":"9","school":"4"},{"start_time":1552069202384,"click_time":1552069203885,"finger_time":1552069203046,"fix_duration":956.7228987912354,"trial":15,"RT":662,"MT":839,"sideResp":2,"stimulus":"img/900/randomdotsizeEA/R/14_Ratio_900_L_18_R_20.png","xmouse":[801,801,801,801,801,801,801,801,801,801,801,801,801,801,801,801,801,801,801,801,801,801,801,801,801,801,801,801,801,801,801,801,801,801,803,804,806,806,808,809,814,826,834,843,854,871,892,900,908,915,921,936,947,959,978,984,1015,1025,1030,1035,1037,1040,1041,1041,1042,1042,1042,1042,1043,1049,1057,1071,1080,1089,1095,1100],"ymouse":[626,626,626,626,626,626,626,626,626,626,626,626,626,626,626,626,626,626,626,626,626,626,626,626,626,626,626,626,626,626,617,599,580,563,541,536,530,529,525,520,510,481,464,444,426,397,363,350,338,327,316,283,262,240,210,200,170,164,161,157,155,152,150,149,149,149,149,149,148,144,139,125,117,108,102,97],"timestamp_mouse":[10,39,41,61,82,101,122,141,162,182,201,222,242,261,282,302,321,342,361,382,402,422,442,462,482,502,522,541,561,582,600,621,641,662,682,702,721,742,762,782,802,821,841,862,881,901,921,942,961,982,1001,1021,1041,1062,1082,1102,1121,1142,1161,1181,1202,1221,1241,1261,1281,1301,1321,1341,1361,1381,1401,1422,1441,1461,1482,1501],"xSR":741.5,"ySR":573.95,"xT1":424.9,"yT1":0,"xT2":1058.1,"yT2":0,"toosoon":0,"cond_shown":"randomdotsizeEA","ratio_trial":900,"smaller_num":"18","larger_num":"20","correct_side":2,"subjID":"AnaMariaMoreno16","gender":"1","age":"9","school":"4"},{"start_time":1552069206646,"click_time":1552069208165,"finger_time":1552069207705,"fix_duration":1399.0923182134907,"trial":16,"RT":1059,"MT":460,"sideResp":2,"stimulus":"img/500/randomdotsizeEA/L/7_Ratio_500_L_10_R_5.png","xmouse":[816,816,816,816,816,816,816,816,816,816,816,816,816,816,816,816,816,816,816,816,816,816,816,816,816,816,816,816,816,816,816,816,816,816,816,816,816,816,816,816,816,816,816,816,816,816,816,816,816,816,816,822,831,901,929,957,982,992,1025,1040,1053,1067,1070,1084,1091,1097,1100,1103,1109,1110,1112,1113,1114,1116,1120,1121,1123],"ymouse":[626,626,626,626,626,626,626,626,626,626,626,626,626,626,626,626,626,626,626,626,626,626,626,626,626,626,626,626,626,626,626,626,626,626,626,626,626,626,626,626,626,626,626,626,626,626,626,626,626,626,626,613,598,481,438,399,365,351,311,292,275,256,251,230,221,210,198,187,167,162,156,153,147,131,116,102,89],"timestamp_mouse":[7,20,42,59,79,99,119,140,159,180,199,219,240,259,279,300,320,339,359,379,400,419,440,459,480,500,520,539,560,580,600,620,640,660,679,700,720,740,759,780,800,819,839,859,880,900,919,939,960,980,999,1019,1040,1059,1080,1099,1119,1139,1159,1180,1200,1220,1240,1259,1280,1299,1320,1339,1359,1378,1400,1420,1439,1459,1479,1499,1519],"xSR":741.5,"ySR":573.95,"xT1":424.9,"yT1":0,"xT2":1058.1,"yT2":0,"toosoon":0,"cond_shown":"randomdotsizeEA","ratio_trial":500,"smaller_num":"5","larger_num":"10","correct_side":1,"subjID":"AnaMariaMoreno16","gender":"1","age":"9","school":"4"},{"start_time":1552069210169,"click_time":1552069211625,"finger_time":1552069210946,"fix_duration":803.599077728403,"trial":17,"RT":777,"MT":679,"sideResp":1,"stimulus":"img/900/equaldotsize/R/9_Ratio_900_L_18_R_20.png","xmouse":[799,799,799,799,799,799,799,799,799,799,799,799,799,799,799,799,799,799,799,799,799,799,799,799,799,799,799,799,799,799,799,799,799,799,799,799,799,789,758,706,640,519,462,425,399,387,378,377,374,370,367,363,362,362,362,363,367,370,375,381,386,400,407,414,420,426,431,433,435,438,442,451,455],"ymouse":[637,637,637,637,637,637,637,637,637,637,637,637,637,637,637,637,637,637,637,637,637,637,637,637,637,637,637,637,637,637,637,637,637,637,637,637,636,615,564,495,420,312,274,253,238,230,224,222,216,209,201,186,180,175,172,167,158,149,134,117,96,50,28,11,0,0,0,0,0,0,0,0,2],"timestamp_mouse":[18,36,55,77,97,117,137,156,177,197,217,236,256,276,297,317,336,357,377,397,416,437,456,477,496,517,537,556,576,597,616,637,657,676,696,716,736,757,777,796,817,837,858,876,897,917,936,956,976,997,1017,1036,1057,1076,1096,1117,1136,1157,1176,1197,1216,1237,1257,1277,1296,1317,1337,1356,1376,1396,1417,1436,1456],"xSR":741.5,"ySR":573.95,"xT1":424.9,"yT1":0,"xT2":1058.1,"yT2":0,"toosoon":0,"cond_shown":"equaldotsize","ratio_trial":900,"smaller_num":"18","larger_num":"20","correct_side":2,"subjID":"AnaMariaMoreno16","gender":"1","age":"9","school":"4"},{"start_time":1552069213886,"click_time":1552069214705,"finger_time":1552069214606,"fix_duration":459.8427705433816,"trial":18,"RT":720,"MT":99,"sideResp":1,"stimulus":"img/250/equaldotsize/L/3_Ratio_250_L_8_R_2.png","xmouse":[791,791,791,791,791,791,791,791,791,791,791,791,791,791,791,791,791,791,791,791,791,791,791,791,791,791,791,791,791,791,791,791,791,791,791,791,776,748,697,594,562,481],"ymouse":[617,617,617,617,617,617,617,617,617,617,617,617,617,617,617,617,617,617,617,617,617,617,617,617,617,617,617,617,617,617,617,617,617,617,617,609,548,469,373,221,178,66],"timestamp_mouse":[2,25,39,60,79,99,118,139,160,179,199,219,240,260,279,300,319,340,359,380,399,420,439,460,480,500,520,540,559,580,599,619,640,660,679,698,720,739,760,780,799,819],"xSR":741.5,"ySR":573.95,"xT1":424.9,"yT1":0,"xT2":1058.1,"yT2":0,"toosoon":0,"cond_shown":"equaldotsize","ratio_trial":250,"smaller_num":"2","larger_num":"8","correct_side":1,"subjID":"AnaMariaMoreno16","gender":"1","age":"9","school":"4"},{"start_time":1552069217349,"click_time":1552069218766,"finger_time":1552069218065,"fix_duration":1282.9211561534814,"trial":19,"RT":716,"MT":701,"sideResp":2,"stimulus":"img/900/randomdotsizeEA/L/2_Ratio_900_L_20_R_18.png","xmouse":[770,777,788,790,791,791,791,791,791,791,791,791,791,791,791,791,791,791,791,791,791,791,791,791,791,791,791,791,791,791,791,791,801,812,823,838,851,876,884,892,901,923,940,956,980,1009,1033,1102,1129,1155,1177,1198,1229,1240,1248,1251,1255,1256,1256,1256,1256,1256,1255,1246,1237,1226,1215,1188,1179,1165,1150],"ymouse":[607,628,654,658,659,659,659,659,659,659,659,659,659,659,659,659,659,659,659,659,659,659,659,659,659,659,659,659,659,659,659,659,642,617,595,573,553,516,505,496,484,452,430,408,376,341,310,224,189,160,135,113,81,68,57,48,39,29,28,28,28,28,27,31,34,39,44,53,55,55,55],"timestamp_mouse":[19,43,56,76,96,117,136,156,176,196,215,236,256,276,296,317,336,356,376,396,416,436,456,476,496,516,537,557,576,598,616,636,656,677,697,716,737,757,777,796,817,838,856,877,897,916,936,956,975,996,1017,1036,1056,1077,1097,1116,1137,1156,1177,1196,1216,1237,1256,1277,1296,1316,1336,1356,1376,1396,1417],"xSR":741.5,"ySR":573.95,"xT1":424.9,"yT1":0,"xT2":1058.1,"yT2":0,"toosoon":0,"cond_shown":"randomdotsizeEA","ratio_trial":900,"smaller_num":"18","larger_num":"20","correct_side":1,"subjID":"AnaMariaMoreno16","gender":"1","age":"9","school":"4"},{"start_time":1552069222997,"click_time":1552069224306,"finger_time":1552069223905,"fix_duration":868.1573840544955,"trial":20,"RT":908,"MT":401,"sideResp":1,"stimulus":"img/500/equaldotsize/L/13_Ratio_500_L_12_R_6.png","xmouse":[788,788,788,788,788,788,788,788,788,788,788,788,788,788,788,788,788,788,788,788,788,788,788,788,788,788,788,788,788,788,788,788,788,788,788,788,788,788,788,788,788,788,788,786,780,729,691,656,637,583,540,531,525,525,525,525,525,525,525,525,525,525,525,525,524,513],"ymouse":[625,625,625,625,625,625,625,625,625,625,625,625,625,625,625,625,625,625,625,625,625,625,625,625,625,625,625,625,625,625,625,625,625,625,625,625,625,625,625,625,625,625,625,623,602,367,237,105,46,0,0,0,0,0,0,0,0,0,0,0,0,0,0,0,0,9],"timestamp_mouse":[9,36,49,69,89,109,128,149,168,189,208,229,249,269,289,309,328,349,368,388,408,429,448,468,489,509,528,548,568,587,608,629,649,668,688,709,729,748,769,788,809,828,848,868,889,908,928,948,968,989,1008,1029,1048,1068,1088,1108,1128,1149,1168,1188,1208,1228,1248,1269,1288,1309],"xSR":741.5,"ySR":573.95,"xT1":424.9,"yT1":0,"xT2":1058.1,"yT2":0,"toosoon":0,"cond_shown":"equaldotsize","ratio_trial":500,"smaller_num":"6","larger_num":"12","correct_side":1,"subjID":"AnaMariaMoreno16","gender":"1","age":"9","school":"4"},{"start_time":1552069227563,"click_time":1552069228885,"finger_time":1552069228465,"fix_duration":335.02756260115086,"trial":21,"RT":902,"MT":420,"sideResp":1,"stimulus":"img/900/randomdotsizeEA/L/8_Ratio_900_L_20_R_18.png","xmouse":[796,796,796,796,796,796,796,796,796,796,796,796,796,796,796,796,796,796,796,796,796,796,796,796,796,796,796,796,796,796,796,796,796,796,797,796,795,793,793,793,793,793,793,793,793,789,781,738,718,691,663,638,602,589,580,571,563,540,540,537,530,522,508,503,502,501,499],"ymouse":[587,587,587,587,587,587,587,587,587,587,587,587,587,587,587,587,587,587,587,587,587,587,587,587,587,587,587,587,587,587,587,587,587,587,587,594,596,600,601,601,601,601,601,596,587,565,540,455,419,371,325,285,234,219,208,199,192,175,175,170,162,149,124,115,107,100,93],"timestamp_mouse":[13,22,42,62,82,103,122,142,162,182,202,222,242,262,282,302,322,343,362,383,403,422,442,463,483,503,523,542,562,583,602,623,642,662,683,703,723,742,762,783,802,822,843,862,881,902,923,942,973,982,1003,1022,1043,1062,1082,1102,1122,1142,1162,1182,1203,1222,1243,1262,1282,1302,1322],"xSR":741.5,"ySR":573.95,"xT1":424.9,"yT1":0,"xT2":1058.1,"yT2":0,"toosoon":0,"cond_shown":"randomdotsizeEA","ratio_trial":900,"smaller_num":"18","larger_num":"20","correct_side":1,"subjID":"AnaMariaMoreno16","gender":"1","age":"9","school":"4"},{"start_time":1552069230458,"click_time":1552069231606,"finger_time":1552069231126,"fix_duration":250,"trial":22,"RT":668,"MT":480,"sideResp":1,"stimulus":"img/250/equaldotanddens/L/3_Ratio_250_L_8_R_2.png","xmouse":[749,749,749,749,749,749,749,749,749,749,749,749,749,749,749,749,749,749,749,749,749,749,749,749,749,749,749,749,749,749,749,749,749,743,725,706,685,646,635,626,619,611,606,604,603,599,595,583,574,569,546,536,506,500,496,495,493,485],"ymouse":[608,608,608,608,608,608,608,608,608,608,608,608,608,608,608,608,608,608,608,608,608,608,608,608,608,608,608,608,608,608,608,608,593,544,479,404,338,253,232,219,211,203,196,195,192,187,181,164,156,151,136,131,116,113,111,109,106,92],"timestamp_mouse":[9,28,60,68,87,108,128,147,168,188,208,227,248,268,288,307,328,347,367,388,408,428,447,468,487,508,528,548,567,587,608,627,647,668,687,707,728,747,769,788,807,828,847,868,887,908,929,947,968,988,1008,1027,1047,1068,1087,1108,1127,1148],"xSR":741.5,"ySR":573.95,"xT1":424.9,"yT1":0,"xT2":1058.1,"yT2":0,"toosoon":0,"cond_shown":"equaldotanddens","ratio_trial":250,"smaller_num":"2","larger_num":"8","correct_side":1,"subjID":"AnaMariaMoreno16","gender":"1","age":"9","school":"4"},{"start_time":1552069233690,"click_time":1552069234806,"finger_time":1552069234405,"fix_duration":923.3280379960445,"trial":23,"RT":715,"MT":401,"sideResp":1,"stimulus":"img/250/equaldotanddens/L/5_Ratio_250_L_24_R_6.png","xmouse":[749,749,749,749,749,749,749,749,749,749,749,749,749,749,749,749,749,749,749,749,749,749,749,749,749,749,749,749,749,749,749,749,749,749,748,719,687,649,605,585,556,542,530,522,514,501,495,488,479,473,460,453,447,442,438,427],"ymouse":[645,645,645,645,645,645,645,645,645,645,645,645,645,645,645,645,645,645,645,645,645,645,645,645,645,645,645,645,645,645,645,645,645,645,639,572,509,450,382,358,325,307,292,280,269,246,236,226,214,205,182,168,155,138,119,83],"timestamp_mouse":[14,37,56,76,96,114,136,155,176,195,216,236,255,276,295,315,335,355,376,396,415,436,455,475,496,515,536,555,575,596,616,636,655,676,696,715,735,756,776,795,815,835,855,875,895,915,935,956,976,995,1015,1034,1055,1075,1096,1116],"xSR":741.5,"ySR":573.95,"xT1":424.9,"yT1":0,"xT2":1058.1,"yT2":0,"toosoon":0,"cond_shown":"equaldotanddens","ratio_trial":250,"smaller_num":"6","larger_num":"24","correct_side":1,"subjID":"AnaMariaMoreno16","gender":"1","age":"9","school":"4"},{"start_time":1552069237217,"click_time":1552069238385,"finger_time":1552069237886,"fix_duration":1110.03669402612,"trial":24,"RT":669,"MT":499,"sideResp":2,"stimulus":"img/250/equaldotsize/R/11_Ratio_250_L_3_R_12.png","xmouse":[771,771,771,771,771,771,771,771,771,771,771,771,771,771,771,771,771,771,771,771,771,771,771,771,771,771,771,771,771,771,771,775,787,823,1000,1092,1170,1251,1323,1393,1414,1424,1430,1433,1435,1435,1436,1436,1431,1404,1375,1334,1290,1232,1186,1173,1163,1159,1154],"ymouse":[599,599,599,599,599,599,599,599,599,599,599,599,599,599,599,599,599,599,599,599,599,599,599,599,599,599,599,599,599,599,599,600,591,563,456,392,330,274,219,167,148,133,123,115,104,96,87,76,59,20,0,0,0,0,0,0,0,0,1],"timestamp_mouse":[13,38,49,69,89,109,128,149,168,189,208,229,248,269,288,309,329,348,368,389,408,429,448,469,489,509,529,548,569,588,608,628,648,669,688,709,728,749,767,788,808,829,848,868,888,908,928,948,968,988,1008,1029,1048,1069,1088,1109,1128,1148,1168],"xSR":741.5,"ySR":573.95,"xT1":424.9,"yT1":0,"xT2":1058.1,"yT2":0,"toosoon":0,"cond_shown":"equaldotsize","ratio_trial":250,"smaller_num":"3","larger_num":"12","correct_side":2,"subjID":"AnaMariaMoreno16","gender":"1","age":"9","school":"4"},{"start_time":1552069239919,"click_time":1552069241465,"finger_time":1552069240705,"fix_duration":250,"trial":25,"RT":786,"MT":760,"sideResp":2,"stimulus":"img/900/equaldotanddens/R/5_Ratio_900_L_9_R_10.png","xmouse":[831,831,831,831,831,831,831,831,831,831,831,831,831,831,831,831,831,831,831,831,831,831,831,831,831,831,831,831,831,831,831,831,831,831,831,831,831,831,835,885,927,976,1024,1067,1119,1127,1130,1131,1132,1138,1142,1145,1147,1147,1142,1135,1128,1125,1119,1118,1118,1118,1118,1118,1118,1118,1118,1118,1118,1118,1118,1118,1118,1118,1118,1118,1118,1117],"ymouse":[642,642,642,642,642,642,642,642,642,642,642,642,642,642,642,642,642,642,642,642,642,642,642,642,642,642,642,642,642,642,642,642,642,642,642,642,642,642,633,518,448,384,333,296,251,242,239,236,233,218,209,195,180,163,130,118,111,107,103,103,103,103,103,103,103,103,103,103,103,103,103,103,103,103,103,103,101,90],"timestamp_mouse":[13,39,46,66,87,106,126,146,166,187,206,227,246,266,286,306,326,347,366,387,406,427,447,466,487,507,526,546,567,586,606,626,647,667,686,707,727,746,767,786,807,827,847,867,887,906,927,946,967,986,1006,1026,1047,1067,1086,1107,1127,1146,1166,1186,1207,1226,1246,1267,1287,1306,1327,1346,1366,1387,1407,1426,1447,1467,1487,1506,1527,1546],"xSR":741.5,"ySR":573.95,"xT1":424.9,"yT1":0,"xT2":1058.1,"yT2":0,"toosoon":0,"cond_shown":"equaldotanddens","ratio_trial":900,"smaller_num":"9","larger_num":"10","correct_side":2,"subjID":"AnaMariaMoreno16","gender":"1","age":"9","school":"4"},{"start_time":1552069244476,"click_time":1552069245545,"finger_time":1552069245226,"fix_duration":250,"trial":26,"RT":750,"MT":319,"sideResp":1,"stimulus":"img/250/equaldotanddens/L/2_Ratio_250_L_16_R_4.png","xmouse":[773,773,773,773,773,773,773,773,773,773,773,773,773,773,773,773,773,773,773,773,773,773,773,773,773,773,773,773,773,773,773,773,773,773,773,773,768,750,739,731,729,725,720,712,705,699,684,674,659,634,615,563,543,520],"ymouse":[588,588,588,588,588,588,588,588,588,588,588,588,588,588,588,588,588,588,588,588,588,588,588,588,588,588,588,588,588,588,588,588,588,588,588,588,574,545,529,521,517,508,499,488,478,468,438,414,379,317,252,120,88,50],"timestamp_mouse":[13,42,50,70,89,109,130,149,169,189,209,229,250,270,288,309,330,350,369,390,410,429,450,470,489,510,529,549,570,589,609,629,649,670,690,710,730,750,769,790,809,829,850,869,889,910,930,949,969,989,1010,1030,1049,1069],"xSR":741.5,"ySR":573.95,"xT1":424.9,"yT1":0,"xT2":1058.1,"yT2":0,"toosoon":0,"cond_shown":"equaldotanddens","ratio_trial":250,"smaller_num":"4","larger_num":"16","correct_side":1,"subjID":"AnaMariaMoreno16","gender":"1","age":"9","school":"4"},{"start_time":1552069247720,"click_time":1552069249026,"finger_time":1552069248625,"fix_duration":393.7380265437105,"trial":27,"RT":905,"MT":401,"sideResp":1,"stimulus":"img/250/randomdotsizeEA/R/10_Ratio_250_L_4_R_16.png","xmouse":[746,746,746,746,746,746,746,746,746,746,746,746,746,746,746,746,746,746,746,746,746,746,746,746,746,746,746,746,746,746,746,746,746,746,746,746,746,746,746,746,746,746,746,746,742,722,692,665,634,592,585,581,578,577,573,571,569,568,567,567,566,563,558,550,525,510],"ymouse":[608,608,608,608,608,608,608,608,608,608,608,608,608,608,608,608,608,608,608,608,608,608,608,608,608,608,608,608,608,608,608,608,608,608,608,608,608,608,608,608,608,608,608,608,580,501,419,350,287,197,177,161,147,133,112,102,95,90,89,88,87,85,82,77,55,46],"timestamp_mouse":[11,26,45,65,85,105,125,145,165,186,205,225,245,265,286,306,326,346,366,386,406,425,445,465,485,505,526,546,565,585,605,625,645,665,685,705,726,745,766,786,805,824,846,865,886,905,926,945,966,985,1005,1025,1045,1065,1085,1105,1126,1145,1166,1185,1206,1226,1245,1266,1286,1306],"xSR":741.5,"ySR":573.95,"xT1":424.9,"yT1":0,"xT2":1058.1,"yT2":0,"toosoon":0,"cond_shown":"randomdotsizeEA","ratio_trial":250,"smaller_num":"4","larger_num":"16","correct_side":2,"subjID":"AnaMariaMoreno16","gender":"1","age":"9","school":"4"},{"start_time":1552069251781,"click_time":1552069253106,"finger_time":1552069252725,"fix_duration":1433.0062127774509,"trial":28,"RT":944,"MT":381,"sideResp":1,"stimulus":"img/250/randomdotsizeEA/R/13_Ratio_250_L_2_R_8.png","xmouse":[781,781,781,781,781,781,781,781,781,781,781,781,781,781,781,781,781,781,781,781,781,781,781,781,781,781,781,781,781,781,781,781,781,781,781,781,781,781,781,781,781,781,781,781,781,781,781,780,770,756,740,712,692,667,641,625,569,555,547,534,530,528,526,523,519,509,497],"ymouse":[641,641,641,641,641,641,641,641,641,641,641,641,641,641,641,641,641,641,641,641,641,641,641,641,641,641,641,641,641,641,641,641,641,641,641,641,641,641,641,641,641,641,641,641,641,641,623,547,471,402,342,268,228,183,136,114,36,17,9,0,0,0,0,0,0,0,3],"timestamp_mouse":[9,36,44,64,84,104,124,144,164,185,205,224,244,264,284,305,325,344,364,384,405,425,444,465,485,505,525,544,565,584,605,625,645,665,685,705,725,743,765,784,804,823,845,864,884,904,924,944,964,985,1004,1024,1044,1064,1085,1105,1124,1144,1166,1185,1204,1225,1244,1264,1285,1305,1325],"xSR":741.5,"ySR":573.95,"xT1":424.9,"yT1":0,"xT2":1058.1,"yT2":0,"toosoon":0,"cond_shown":"randomdotsizeEA","ratio_trial":250,"smaller_num":"2","larger_num":"8","correct_side":2,"subjID":"AnaMariaMoreno16","gender":"1","age":"9","school":"4"},{"start_time":1552069257082,"click_time":1552069258368,"finger_time":1552069258029,"fix_duration":250,"trial":29,"RT":947,"MT":339,"sideResp":2,"stimulus":"img/750/randomdotsizeEA/L/6_Ratio_750_L_24_R_18.png","xmouse":[817,817,817,817,817,817,817,817,817,817,817,817,817,817,817,817,817,817,817,817,817,817,817,817,817,817,817,817,817,817,817,817,817,817,817,817,817,817,817,817,817,817,817,817,817,817,818,850,889,933,972,1063,1080,1090,1093,1094,1094,1094,1094,1093,1092,1090,1089,1088,1088],"ymouse":[644,644,644,644,644,644,644,644,644,644,644,644,644,644,644,644,644,644,644,644,644,644,644,644,644,644,644,644,644,644,644,644,644,644,644,644,644,644,644,644,644,644,644,644,644,644,638,570,476,399,332,210,184,165,154,149,143,141,138,134,129,110,105,101,99],"timestamp_mouse":[10,40,46,66,87,106,127,146,167,187,206,226,247,266,286,305,327,347,366,386,406,426,447,465,486,507,527,547,566,587,606,627,646,667,687,707,727,746,766,786,806,827,847,867,886,907,926,947,966,986,1007,1026,1046,1066,1086,1106,1126,1147,1167,1187,1206,1226,1246,1266,1286],"xSR":741.5,"ySR":573.95,"xT1":424.9,"yT1":0,"xT2":1058.1,"yT2":0,"toosoon":0,"cond_shown":"randomdotsizeEA","ratio_trial":750,"smaller_num":"18","larger_num":"24","correct_side":1,"subjID":"AnaMariaMoreno16","gender":"1","age":"9","school":"4"},{"start_time":1552069260054,"click_time":1552069260729,"finger_time":1552069260609,"fix_duration":404.4727723810936,"trial":30,"RT":555,"MT":120,"sideResp":2,"stimulus":"img/250/equaldotanddens/R/8_Ratio_250_L_1_R_4.png","xmouse":[812,812,812,812,812,812,812,812,812,812,812,812,812,812,812,812,812,812,812,812,812,812,812,812,812,814,822,877,924,973,1008,1036,1060,1064],"ymouse":[627,627,627,627,627,627,627,627,627,627,627,627,627,627,627,627,627,627,627,627,627,627,627,627,627,611,583,435,342,266,208,162,106,94],"timestamp_mouse":[14,33,54,74,93,114,134,154,175,195,214,234,255,275,294,315,334,355,373,395,415,435,453,475,494,514,535,555,575,595,615,633,653,674],"xSR":741.5,"ySR":573.95,"xT1":424.9,"yT1":0,"xT2":1058.1,"yT2":0,"toosoon":0,"cond_shown":"equaldotanddens","ratio_trial":250,"smaller_num":"1","larger_num":"4","correct_side":2,"subjID":"AnaMariaMoreno16","gender":"1","age":"9","school":"4"},{"start_time":1552069262592,"click_time":1552069263609,"finger_time":1552069263249,"fix_duration":642.64336130181,"trial":31,"RT":657,"MT":360,"sideResp":2,"stimulus":"img/750/equaldotanddens/R/7_Ratio_750_L_3_R_4.png","xmouse":[776,776,776,776,776,776,776,776,776,776,776,776,776,776,776,776,776,776,776,776,776,776,776,776,776,776,776,776,776,776,776,789,811,841,878,967,981,991,999,1005,1014,1021,1027,1037,1047,1073,1076,1077,1077,1077,1081],"ymouse":[657,657,657,657,657,657,657,657,657,657,657,657,657,657,657,657,657,657,657,657,657,657,657,657,657,657,657,657,657,657,650,595,520,437,361,199,169,145,128,113,90,75,55,34,11,0,0,0,0,0,15],"timestamp_mouse":[18,41,57,77,96,116,137,156,177,197,217,236,257,276,296,316,336,357,377,396,417,436,456,476,497,517,537,556,576,596,616,635,657,676,697,716,737,756,777,796,816,837,857,876,896,918,936,957,976,996,1016],"xSR":741.5,"ySR":573.95,"xT1":424.9,"yT1":0,"xT2":1058.1,"yT2":0,"toosoon":0,"cond_shown":"equaldotanddens","ratio_trial":750,"smaller_num":"3","larger_num":"4","correct_side":2,"subjID":"AnaMariaMoreno16","gender":"1","age":"9","school":"4"},{"start_time":1552069265401,"click_time":1552069266208,"finger_time":1552069265908,"fix_duration":750.0732527070272,"trial":32,"RT":507,"MT":300,"sideResp":2,"stimulus":"img/500/equaldotsize/R/12_Ratio_500_L_1_R_2.png","xmouse":[772,772,772,772,772,772,772,772,772,772,772,772,772,772,772,772,772,772,772,772,772,772,772,775,779,805,826,851,885,917,995,1020,1043,1069,1083,1099,1104,1108,1111,1115,1122],"ymouse":[597,597,597,597,597,597,597,597,597,597,597,597,597,597,597,597,597,597,597,597,597,597,597,589,580,532,500,466,422,380,291,257,226,195,176,153,143,134,123,112,92],"timestamp_mouse":[13,37,46,67,88,106,128,147,167,187,208,228,247,267,287,308,327,347,367,387,407,427,447,467,488,507,527,547,568,588,606,626,648,667,687,708,727,747,768,787,807],"xSR":741.5,"ySR":573.95,"xT1":424.9,"yT1":0,"xT2":1058.1,"yT2":0,"toosoon":0,"cond_shown":"equaldotsize","ratio_trial":500,"smaller_num":"1","larger_num":"2","correct_side":2,"subjID":"AnaMariaMoreno16","gender":"1","age":"9","school":"4"},{"start_time":1552069268168,"click_time":1552069270108,"finger_time":1552069269528,"fix_duration":1117.6209433998065,"trial":33,"RT":1360,"MT":580,"sideResp":1,"stimulus":"img/900/equaldotanddens/L/4_Ratio_900_L_20_R_18.png","xmouse":[818,818,818,818,818,818,818,818,818,818,818,818,818,818,818,818,818,818,818,818,818,818,818,818,818,818,818,818,818,818,818,818,818,818,818,818,818,818,818,818,818,818,818,818,818,818,818,818,818,818,818,818,818,818,818,818,818,818,818,818,818,818,818,818,818,818,814,768,717,665,628,593,550,540,531,523,516,498,485,468,462,459,458,456,455,453,452,451,451,451,451,451,451,451,451,453,456,461],"ymouse":[617,617,617,617,617,617,617,617,617,617,617,617,617,617,617,617,617,617,617,617,617,617,617,617,617,617,617,617,617,617,617,617,617,617,617,617,617,617,617,617,617,617,617,617,617,617,617,617,617,617,617,617,617,617,617,617,617,617,617,617,617,617,617,617,617,617,617,594,573,549,527,505,459,440,418,396,371,303,261,226,205,196,188,181,175,170,165,156,154,153,153,153,147,141,135,123,108,77],"timestamp_mouse":[10,20,40,61,81,100,120,141,160,181,200,220,239,260,280,299,319,339,361,380,401,420,440,461,480,500,521,540,560,581,601,620,641,660,681,701,720,740,761,781,801,820,840,860,879,901,921,941,960,980,1001,1021,1041,1060,1081,1100,1121,1141,1161,1181,1200,1221,1241,1261,1280,1300,1321,1340,1360,1380,1400,1420,1439,1461,1480,1500,1520,1540,1561,1580,1599,1619,1639,1660,1681,1700,1719,1739,1760,1780,1801,1821,1840,1861,1881,1900,1921,1939],"xSR":741.5,"ySR":573.95,"xT1":424.9,"yT1":0,"xT2":1058.1,"yT2":0,"toosoon":0,"cond_shown":"equaldotanddens","ratio_trial":900,"smaller_num":"18","larger_num":"20","correct_side":1,"subjID":"AnaMariaMoreno16","gender":"1","age":"9","school":"4"},{"start_time":1552069272107,"click_time":1552069273468,"finger_time":1552069273028,"fix_duration":896.008309675897,"trial":34,"RT":921,"MT":440,"sideResp":2,"stimulus":"img/750/randomdotsizeEA/L/14_Ratio_750_L_8_R_6.png","xmouse":[812,812,812,812,812,812,812,812,812,812,812,812,812,812,812,812,812,812,812,812,812,812,812,812,812,812,812,812,812,812,812,812,812,812,812,812,812,812,812,812,812,812,812,812,812,812,812,813,826,859,954,1034,1076,1101,1108,1111,1111,1112,1112,1114,1117,1118,1118,1118,1118,1118,1118,1118,1118],"ymouse":[596,596,596,596,596,596,596,596,596,596,596,596,596,596,596,596,596,596,596,596,596,596,596,596,596,596,596,596,596,596,596,596,596,596,596,596,596,596,596,596,596,596,596,596,596,596,567,523,428,299,45,0,0,0,0,0,0,0,0,0,0,0,0,0,0,0,0,0,2],"timestamp_mouse":[9,35,41,61,82,102,121,142,161,180,201,222,241,262,282,301,322,341,361,380,402,422,442,461,481,502,522,540,562,582,602,622,641,660,682,702,722,742,762,782,802,822,842,860,882,902,921,941,961,981,1002,1021,1041,1062,1081,1101,1121,1141,1161,1181,1201,1221,1241,1262,1282,1300,1320,1341,1361],"xSR":741.5,"ySR":573.95,"xT1":424.9,"yT1":0,"xT2":1058.1,"yT2":0,"toosoon":0,"cond_shown":"randomdotsizeEA","ratio_trial":750,"smaller_num":"6","larger_num":"8","correct_side":1,"subjID":"AnaMariaMoreno16","gender":"1","age":"9","school":"4"},{"start_time":1552069276433,"click_time":1552069277308,"finger_time":1552069277208,"fix_duration":1224.340074673375,"trial":35,"RT":775,"MT":100,"sideResp":2,"stimulus":"img/500/equaldotanddens/R/15_Ratio_500_L_1_R_2.png","xmouse":[807,807,807,807,807,807,807,807,807,807,807,807,807,807,807,807,807,807,807,807,807,807,807,807,807,807,807,807,807,807,807,807,807,807,807,807,807,807,828,860,894,938,979,1075],"ymouse":[645,645,645,645,645,645,645,645,645,645,645,645,645,645,645,645,645,645,645,645,645,645,645,645,645,645,645,645,645,645,645,645,645,645,645,645,645,636,563,490,412,325,233,6],"timestamp_mouse":[16,38,55,75,95,116,135,155,176,195,214,236,255,275,294,316,335,355,375,395,416,434,456,475,495,516,536,555,575,594,616,635,654,674,696,715,734,755,775,796,816,835,856,875],"xSR":741.5,"ySR":573.95,"xT1":424.9,"yT1":0,"xT2":1058.1,"yT2":0,"toosoon":0,"cond_shown":"equaldotanddens","ratio_trial":500,"smaller_num":"1","larger_num":"2","correct_side":2,"subjID":"AnaMariaMoreno16","gender":"1","age":"9","school":"4"},{"start_time":1552069278854,"click_time":1552069280848,"finger_time":1552069279948,"fix_duration":864.3216236611673,"trial":36,"RT":1094,"MT":900,"sideResp":1,"stimulus":"img/900/randomdotsizeEA/L/1_Ratio_900_L_10_R_9.png","xmouse":[796,796,796,796,796,796,796,796,796,796,796,796,796,796,796,796,796,796,796,796,796,796,796,796,796,796,796,796,796,796,796,796,796,796,796,796,796,796,796,796,796,796,796,796,796,796,796,796,796,796,796,796,776,754,738,725,711,689,683,672,654,642,626,618,608,595,583,561,553,548,542,534,509,494,472,444,415,370,357,347,346,346,346,346,346,346,348,356,359,361,366,378,399,410,426,438,447,455,457,459],"ymouse":[668,668,668,668,668,668,668,668,668,668,668,668,668,668,668,668,668,668,668,668,668,668,668,668,668,668,668,668,668,668,668,668,668,668,668,668,668,668,668,668,668,668,668,668,668,668,668,668,668,668,668,668,628,586,549,519,495,462,451,441,427,418,401,391,380,368,355,334,326,318,307,287,246,220,184,132,71,0,0,0,0,0,0,0,0,0,0,2,3,3,3,3,0,0,0,0,0,0,0,1],"timestamp_mouse":[14,34,55,74,94,115,134,153,174,195,215,235,254,274,295,314,335,354,373,394,415,435,455,475,494,515,534,553,574,595,614,633,655,674,694,714,734,755,774,793,814,835,853,875,894,914,935,954,974,994,1015,1035,1053,1075,1094,1114,1135,1154,1174,1194,1215,1235,1253,1275,1293,1314,1334,1355,1375,1394,1414,1435,1455,1475,1493,1514,1535,1554,1574,1594,1615,1635,1654,1674,1694,1713,1735,1754,1774,1794,1815,1834,1854,1875,1894,1913,1933,1954,1974,1994],"xSR":741.5,"ySR":573.95,"xT1":424.9,"yT1":0,"xT2":1058.1,"yT2":0,"toosoon":0,"cond_shown":"randomdotsizeEA","ratio_trial":900,"smaller_num":"9","larger_num":"10","correct_side":1,"subjID":"AnaMariaMoreno16","gender":"1","age":"9","school":"4"},{"start_time":1552069282740,"click_time":1552069284289,"finger_time":1552069283527,"fix_duration":890.0155717807551,"trial":37,"RT":787,"MT":762,"sideResp":2,"stimulus":"img/500/equaldotsize/R/1_Ratio_500_L_9_R_18.png","xmouse":[777,777,777,777,777,777,777,777,777,777,777,777,777,777,777,777,777,777,777,777,777,777,777,777,777,777,777,777,777,777,777,777,777,777,777,777,777,777,783,806,841,888,938,1069,1131,1178,1214,1234,1242,1244,1247,1253,1258,1262,1263,1263,1263,1263,1263,1263,1257,1251,1242,1225,1219,1215,1211,1202,1185,1179,1175,1172,1171,1167,1166,1164,1161,1156],"ymouse":[601,601,601,601,601,601,601,601,601,601,601,601,601,601,601,601,601,601,601,601,601,601,601,601,601,601,601,601,601,601,601,601,601,601,601,601,601,601,593,556,492,417,338,178,121,85,59,43,35,32,26,16,8,1,0,0,0,0,0,2,8,16,23,33,35,35,35,36,37,38,38,38,39,40,40,41,43,49],"timestamp_mouse":[10,35,49,69,89,109,128,149,167,188,209,228,249,268,288,308,327,347,367,388,408,427,449,468,489,507,529,549,569,587,609,628,649,668,688,709,729,748,768,787,808,829,849,869,888,908,929,948,968,989,1007,1028,1047,1068,1087,1107,1128,1147,1167,1189,1209,1227,1250,1267,1289,1307,1328,1348,1369,1388,1407,1428,1448,1469,1489,1509,1529,1549],"xSR":741.5,"ySR":573.95,"xT1":424.9,"yT1":0,"xT2":1058.1,"yT2":0,"toosoon":0,"cond_shown":"equaldotsize","ratio_trial":500,"smaller_num":"9","larger_num":"18","correct_side":2,"subjID":"AnaMariaMoreno16","gender":"1","age":"9","school":"4"},{"start_time":1552069286052,"click_time":1552069289008,"finger_time":1552069286988,"fix_duration":561.151449313464,"trial":38,"RT":936,"MT":2020,"sideResp":1,"stimulus":"img/750/randomdotsizeEA/L/9_Ratio_750_L_4_R_3.png","xmouse":[799,799,799,799,799,799,799,799,799,799,799,799,799,799,799,799,799,799,799,799,799,799,799,799,799,799,799,799,799,799,799,799,799,799,799,799,799,799,799,799,799,799,799,799,789,766,740,688,663,637,616,600,565,554,543,534,528,511,501,493,480,468,443,437,434,428,425,425,425,425,425,425,425,425,425,425,425,425,425,425,425,425,425,425,425,425,425,426,428,429,429,429,431,432,433,435,436,439,440,440,441,441,440,440,440,440,440,440,440,440,440,440,440,440,440,440,440,440,440,440,440,440,440,440,440,440,440,440,440,440,440,440,440,440,440,441,441,443,445,445,446,446,446,446,447,450,450,452],"ymouse":[664,664,664,664,664,664,664,664,664,664,664,664,664,664,664,664,664,664,664,664,664,664,664,664,664,664,664,664,664,664,664,664,664,664,664,664,664,664,664,664,664,664,664,664,658,626,590,507,469,436,421,416,406,404,400,395,391,370,355,346,326,301,227,196,181,168,161,160,160,160,160,160,160,160,160,160,160,160,160,160,160,160,160,160,160,160,160,158,157,155,155,155,153,152,151,146,143,136,134,132,131,130,127,124,122,117,115,115,115,115,115,115,115,115,115,115,114,112,112,112,112,112,112,112,112,112,112,112,112,112,112,112,112,112,112,111,111,109,108,107,106,106,106,106,106,101,101,98],"timestamp_mouse":[17,36,56,76,96,116,136,156,175,197,217,235,256,277,296,317,337,355,377,397,416,436,457,477,496,517,535,557,577,595,616,635,656,676,697,716,737,755,776,797,816,836,857,876,897,917,936,956,975,996,1015,1037,1056,1076,1096,1116,1136,1157,1176,1197,1216,1237,1256,1277,1296,1315,1337,1356,1376,1395,1415,1437,1456,1476,1495,1516,1537,1556,1577,1597,1617,1637,1657,1676,1697,1716,1736,1756,1777,1796,1816,1836,1856,1876,1896,1917,1936,1957,1976,1996,2016,2036,2055,2076,2096,2116,2136,2157,2175,2197,2217,2237,2256,2277,2296,2316,2335,2356,2376,2396,2416,2436,2455,2476,2496,2516,2535,2556,2577,2597,2616,2636,2656,2676,2697,2716,2736,2757,2776,2795,2816,2837,2856,2876,2897,2923,2935,2956],"xSR":741.5,"ySR":573.95,"xT1":424.9,"yT1":0,"xT2":1058.1,"yT2":0,"toosoon":0,"cond_shown":"randomdotsizeEA","ratio_trial":750,"smaller_num":"3","larger_num":"4","correct_side":1,"subjID":"AnaMariaMoreno16","gender":"1","age":"9","school":"4"},{"start_time":1552069291098,"click_time":1552069292448,"finger_time":1552069291688,"fix_duration":508.6905278326141,"trial":39,"RT":590,"MT":760,"sideResp":2,"stimulus":"img/250/randomdotsizeEA/R/10_Ratio_250_L_4_R_16.png","xmouse":[788,788,788,788,788,788,788,788,788,788,788,788,788,788,788,788,788,788,788,788,788,788,788,788,788,788,786,782,771,765,758,756,756,756,756,756,756,756,765,774,869,940,1016,1084,1138,1184,1185,1185,1185,1184,1184,1184,1184,1185,1186,1187,1187,1185,1183,1180,1178,1177,1177,1177,1176,1170,1165,1158],"ymouse":[655,655,655,655,655,655,655,655,655,655,655,655,655,655,655,655,655,655,655,655,655,655,655,655,655,655,646,627,577,539,502,491,486,485,485,485,485,482,446,426,207,71,0,0,0,0,0,0,0,0,0,0,1,8,17,34,40,45,50,54,55,55,55,55,55,55,56,58],"timestamp_mouse":[13,42,50,71,90,111,129,151,170,191,211,231,250,270,291,310,331,350,371,390,410,430,451,471,491,510,531,551,570,590,610,630,650,670,690,710,731,750,771,791,810,830,850,870,890,910,931,950,970,990,1010,1030,1050,1070,1091,1110,1130,1149,1170,1191,1210,1231,1251,1271,1290,1310,1331,1350],"xSR":741.5,"ySR":573.95,"xT1":424.9,"yT1":0,"xT2":1058.1,"yT2":0,"toosoon":0,"cond_shown":"randomdotsizeEA","ratio_trial":250,"smaller_num":"4","larger_num":"16","correct_side":2,"subjID":"AnaMariaMoreno16","gender":"1","age":"9","school":"4"},{"start_time":1552069293880,"click_time":1552069295469,"finger_time":1552069294689,"fix_duration":250,"trial":40,"RT":809,"MT":780,"sideResp":2,"stimulus":"img/250/randomdotsizeEA/R/9_Ratio_250_L_3_R_12.png","xmouse":[782,783,783,783,783,783,783,783,783,783,783,783,783,783,783,783,783,783,783,783,783,783,783,783,783,783,783,783,783,783,783,783,783,783,783,783,783,788,791,799,806,825,831,838,844,847,853,857,862,869,878,903,916,933,946,960,984,993,1013,1016,1020,1022,1023,1024,1026,1027,1027,1027,1027,1027,1029,1036,1041,1043,1046,1049,1050,1051,1056,1066],"ymouse":[663,664,664,664,664,664,664,664,664,664,664,664,664,664,664,664,664,664,664,664,664,664,664,664,664,664,664,664,664,664,664,664,664,664,664,664,664,641,628,585,531,391,337,288,247,207,157,131,103,74,45,0,0,0,0,0,0,0,0,0,0,2,6,9,12,14,14,14,14,14,15,23,26,26,27,28,28,29,30,35],"timestamp_mouse":[8,35,49,69,87,108,129,148,167,188,208,227,247,269,289,309,327,348,368,389,407,427,447,469,489,509,529,549,568,587,608,629,649,668,687,709,728,749,768,789,809,829,849,868,888,908,929,948,968,988,1009,1027,1049,1068,1088,1110,1131,1148,1168,1188,1208,1228,1248,1268,1287,1311,1329,1348,1367,1388,1409,1427,1449,1468,1488,1508,1528,1548,1568,1589],"xSR":741.5,"ySR":573.95,"xT1":424.9,"yT1":0,"xT2":1058.1,"yT2":0,"toosoon":0,"cond_shown":"randomdotsizeEA","ratio_trial":250,"smaller_num":"3","larger_num":"12","correct_side":2,"subjID":"AnaMariaMoreno16","gender":"1","age":"9","school":"4"},{"start_time":1552069297210,"click_time":1552069298728,"finger_time":1552069297969,"fix_duration":699.4681205015148,"trial":41,"RT":759,"MT":759,"sideResp":1,"stimulus":"img/500/equaldotanddens/L/5_Ratio_500_L_4_R_2.png","xmouse":[808,808,808,808,808,808,808,808,808,808,808,808,808,808,808,808,808,808,808,808,808,808,808,808,808,808,808,808,808,808,808,808,808,808,808,808,808,790,741,684,540,482,448,419,394,340,321,310,306,304,303,303,305,312,325,338,344,351,356,363,374,376,377,377,378,381,383,387,390,391,393,394,396,403,408,421,431],"ymouse":[627,627,627,627,627,627,627,627,627,627,627,627,627,627,627,627,627,627,627,627,627,627,627,627,627,627,627,627,627,627,627,627,627,627,627,627,627,619,596,571,504,469,446,422,402,358,339,322,306,297,260,241,225,191,149,105,80,58,40,23,0,0,0,0,0,0,1,1,1,1,1,1,1,1,3,7,10],"timestamp_mouse":[1,18,37,58,78,98,119,139,159,179,199,218,239,259,278,298,318,338,357,378,398,418,439,457,479,499,517,539,559,579,598,618,638,657,678,697,719,739,759,779,798,818,839,858,878,898,918,937,958,977,998,1019,1038,1057,1079,1098,1118,1139,1158,1178,1198,1218,1238,1259,1278,1298,1318,1338,1357,1379,1398,1417,1438,1459,1478,1497,1518],"xSR":741.5,"ySR":573.95,"xT1":424.9,"yT1":0,"xT2":1058.1,"yT2":0,"toosoon":0,"cond_shown":"equaldotanddens","ratio_trial":500,"smaller_num":"2","larger_num":"4","correct_side":1,"subjID":"AnaMariaMoreno16","gender":"1","age":"9","school":"4"},{"start_time":1552069299939,"click_time":1552069300889,"finger_time":1552069300707,"fix_duration":250,"trial":42,"RT":768,"MT":182,"sideResp":2,"stimulus":"img/750/equaldotsize/R/5_Ratio_750_L_15_R_20.png","xmouse":[753,753,753,753,753,753,753,753,753,753,753,753,753,753,753,753,753,753,753,753,753,753,753,753,753,753,753,753,753,753,753,753,753,753,753,753,753,753,766,783,806,830,860,928,967,1003,1039,1067],"ymouse":[616,616,616,616,616,616,616,616,616,616,616,616,616,616,616,616,616,616,616,616,616,616,616,616,616,616,616,616,616,616,616,616,616,616,616,616,616,616,559,510,453,404,336,214,152,103,58,25],"timestamp_mouse":[9,29,49,70,89,110,130,150,169,189,208,230,249,270,290,309,328,349,369,390,409,429,450,469,489,508,530,549,570,588,610,629,650,670,688,710,730,749,768,789,809,829,849,869,889,910,929,949],"xSR":741.5,"ySR":573.95,"xT1":424.9,"yT1":0,"xT2":1058.1,"yT2":0,"toosoon":0,"cond_shown":"equaldotsize","ratio_trial":750,"smaller_num":"15","larger_num":"20","correct_side":2,"subjID":"AnaMariaMoreno16","gender":"1","age":"9","school":"4"},{"start_time":1552069301841,"click_time":1552069302907,"finger_time":1552069302508,"fix_duration":250,"trial":43,"RT":667,"MT":399,"sideResp":1,"stimulus":"img/250/equaldotsize/L/5_Ratio_250_L_24_R_6.png","xmouse":[818,818,818,818,818,818,818,818,818,818,818,818,818,818,818,818,818,818,818,818,818,818,818,818,818,818,818,818,818,818,818,818,811,676,617,553,505,468,409,391,381,369,363,356,356,356,359,364,376,382,388,397,405,429],"ymouse":[632,632,632,632,632,632,632,632,632,632,632,632,632,632,632,632,632,632,632,632,632,632,632,632,632,632,632,632,632,632,632,632,629,479,429,380,342,309,255,235,220,203,187,152,138,119,101,85,61,53,49,43,40,23],"timestamp_mouse":[9,33,47,67,87,107,127,147,167,187,207,228,246,268,287,308,327,347,368,388,406,427,448,468,488,507,527,547,568,586,608,627,648,667,686,706,727,748,767,786,808,827,847,866,886,907,927,947,967,988,1007,1027,1048,1066],"xSR":741.5,"ySR":573.95,"xT1":424.9,"yT1":0,"xT2":1058.1,"yT2":0,"toosoon":0,"cond_shown":"equaldotsize","ratio_trial":250,"smaller_num":"6","larger_num":"24","correct_side":1,"subjID":"AnaMariaMoreno16","gender":"1","age":"9","school":"4"},{"start_time":1552069304000,"click_time":1552069305048,"finger_time":1552069304588,"fix_duration":250,"trial":44,"RT":588,"MT":460,"sideResp":1,"stimulus":"img/500/equaldotsize/L/11_Ratio_500_L_12_R_6.png","xmouse":[798,798,798,798,798,798,798,798,798,798,798,798,798,798,798,798,798,798,798,798,798,798,798,798,798,798,798,797,783,753,682,651,634,614,607,581,576,572,571,569,566,565,563,561,560,549,545,538,531,523,510,502,494],"ymouse":[611,611,611,611,611,611,611,611,611,611,611,611,611,611,611,611,611,611,611,611,611,611,611,611,611,611,611,604,585,539,437,396,373,342,332,288,275,264,259,250,232,225,218,212,202,177,166,157,146,135,113,101,90],"timestamp_mouse":[10,36,49,68,88,108,128,148,168,188,208,229,247,269,288,308,328,347,368,389,408,429,448,467,489,509,528,549,568,588,608,628,649,668,688,707,728,749,768,789,809,828,849,867,888,908,928,948,968,988,1007,1029,1047],"xSR":741.5,"ySR":573.95,"xT1":424.9,"yT1":0,"xT2":1058.1,"yT2":0,"toosoon":0,"cond_shown":"equaldotsize","ratio_trial":500,"smaller_num":"6","larger_num":"12","correct_side":1,"subjID":"AnaMariaMoreno16","gender":"1","age":"9","school":"4"},{"start_time":1552069306359,"click_time":1552069307469,"finger_time":1552069307008,"fix_duration":250,"trial":45,"RT":649,"MT":461,"sideResp":2,"stimulus":"img/250/randomdotsizeEA/R/13_Ratio_250_L_2_R_8.png","xmouse":[799,799,799,799,799,799,799,799,799,799,799,799,799,799,799,799,799,799,799,799,799,799,799,799,799,799,799,799,799,799,799,802,816,831,849,875,891,911,916,921,926,932,951,964,976,987,1000,1015,1019,1024,1029,1035,1049,1055,1059,1062],"ymouse":[604,604,604,604,604,604,604,604,604,604,604,604,604,604,604,604,604,604,604,604,604,604,604,604,604,604,604,604,604,604,604,589,551,521,492,453,434,410,401,394,383,368,331,310,290,274,249,220,208,196,185,173,143,125,111,97],"timestamp_mouse":[12,37,49,69,90,109,130,149,170,190,210,229,248,270,289,309,330,348,369,390,409,429,449,469,489,508,528,549,569,589,610,629,649,669,689,710,730,750,769,789,809,830,849,869,889,909,929,949,969,989,1009,1029,1048,1069,1090,1110],"xSR":741.5,"ySR":573.95,"xT1":424.9,"yT1":0,"xT2":1058.1,"yT2":0,"toosoon":0,"cond_shown":"randomdotsizeEA","ratio_trial":250,"smaller_num":"2","larger_num":"8","correct_side":2,"subjID":"AnaMariaMoreno16","gender":"1","age":"9","school":"4"},{"start_time":1552069309861,"click_time":1552069310907,"finger_time":1552069310507,"fix_duration":1352.2081360395966,"trial":46,"RT":646,"MT":400,"sideResp":2,"stimulus":"img/500/equaldotanddens/R/3_Ratio_500_L_10_R_20.png","xmouse":[815,815,815,815,815,815,815,815,815,815,815,815,815,815,815,815,815,815,815,815,815,815,815,815,815,815,815,815,815,815,814,814,857,881,900,914,940,948,954,957,961,965,972,973,975,978,979,988,994,1004,1015,1027,1059],"ymouse":[629,629,629,629,629,629,629,629,629,629,629,629,629,629,629,629,629,629,629,629,629,629,629,629,629,629,629,629,629,629,628,616,494,444,401,364,304,284,266,254,240,228,202,194,184,174,161,133,120,105,93,80,53],"timestamp_mouse":[12,27,47,67,87,108,127,146,167,187,206,228,247,267,288,306,328,346,367,387,408,427,447,466,488,507,528,548,568,588,608,627,646,667,688,707,728,747,768,788,807,827,846,867,887,906,926,947,967,988,1007,1026,1046],"xSR":741.5,"ySR":573.95,"xT1":424.9,"yT1":0,"xT2":1058.1,"yT2":0,"toosoon":0,"cond_shown":"equaldotanddens","ratio_trial":500,"smaller_num":"10","larger_num":"20","correct_side":2,"subjID":"AnaMariaMoreno16","gender":"1","age":"9","school":"4"},{"start_time":1552069312340,"click_time":1552069313508,"finger_time":1552069313069,"fix_duration":250,"trial":47,"RT":729,"MT":439,"sideResp":2,"stimulus":"img/900/equaldotsize/R/14_Ratio_900_L_18_R_20.png","xmouse":[824,824,824,824,824,824,824,824,824,824,824,824,824,824,824,824,824,824,824,824,824,824,824,824,824,824,824,824,824,824,824,824,824,824,824,824,824,829,853,868,886,900,916,924,931,939,949,960,970,972,975,976,979,989,998,1010,1025,1040,1083],"ymouse":[620,620,620,620,620,620,620,620,620,620,620,620,620,620,620,620,620,620,620,620,620,620,620,620,620,620,620,620,620,620,620,620,620,620,609,597,571,538,449,407,364,325,273,246,219,196,172,146,122,116,110,105,99,80,69,60,52,47,44],"timestamp_mouse":[13,38,47,69,89,109,128,148,167,189,208,228,249,269,288,309,329,348,369,389,408,429,448,469,488,508,527,549,568,589,608,628,648,669,689,709,729,749,767,788,809,828,849,868,888,908,928,949,969,988,1008,1028,1048,1068,1087,1108,1129,1149,1168],"xSR":741.5,"ySR":573.95,"xT1":424.9,"yT1":0,"xT2":1058.1,"yT2":0,"toosoon":0,"cond_shown":"equaldotsize","ratio_trial":900,"smaller_num":"18","larger_num":"20","correct_side":2,"subjID":"AnaMariaMoreno16","gender":"1","age":"9","school":"4"},{"start_time":1552069315877,"click_time":1552069317371,"finger_time":1552069316848,"fix_duration":1387.1823854643796,"trial":48,"RT":971,"MT":523,"sideResp":1,"stimulus":"img/750/equaldotanddens/L/1_Ratio_750_L_20_R_15.png","xmouse":[819,819,819,819,819,819,819,819,819,819,819,819,819,819,819,819,819,819,819,819,819,819,819,819,819,819,819,819,819,819,819,819,819,819,819,819,819,819,819,819,819,819,819,819,818,815,772,747,724,703,676,594,574,557,547,530,523,517,508,497,478,467,464,459,456,450,447,446,445,445,445,445,445,446,447],"ymouse":[648,648,648,648,648,648,648,648,648,648,648,648,648,648,648,648,648,648,648,648,648,648,648,648,648,648,648,648,648,648,648,648,648,648,648,648,648,648,648,648,648,648,648,648,647,644,610,592,572,553,529,475,459,443,428,395,377,358,338,316,273,240,220,198,179,150,138,128,121,118,113,111,109,104,99],"timestamp_mouse":[11,36,50,70,91,112,132,151,171,191,212,231,252,270,291,311,331,351,372,392,410,432,451,470,491,512,532,550,571,591,611,632,650,671,691,712,732,752,772,792,811,832,852,872,891,911,931,951,971,991,1011,1032,1051,1072,1091,1112,1131,1152,1172,1192,1215,1233,1253,1274,1294,1314,1333,1354,1374,1393,1415,1433,1454,1474,1494],"xSR":741.5,"ySR":573.95,"xT1":424.9,"yT1":0,"xT2":1058.1,"yT2":0,"toosoon":0,"cond_shown":"equaldotanddens","ratio_trial":750,"smaller_num":"15","larger_num":"20","correct_side":1,"subjID":"AnaMariaMoreno16","gender":"1","age":"9","school":"4"},{"start_time":1552069319007,"click_time":1552069320652,"finger_time":1552069320390,"fix_duration":534.1564870963219,"trial":49,"RT":1383,"MT":262,"sideResp":2,"stimulus":"img/900/equaldotsize/L/1_Ratio_900_L_10_R_9.png","xmouse":[786,786,786,786,786,786,786,786,786,786,786,786,786,786,786,786,786,786,786,786,786,786,786,786,786,786,786,786,786,786,786,786,786,786,786,786,786,786,786,786,786,786,786,786,786,786,786,786,786,786,786,786,786,786,786,786,786,786,786,786,786,786,786,786,786,786,786,786,787,792,825,848,875,900,925,971,986,998,1010,1021,1046,1058,1068],"ymouse":[602,602,602,602,602,602,602,602,602,602,602,602,602,602,602,602,602,602,602,602,602,602,602,602,602,602,602,602,602,602,602,602,602,602,602,602,602,602,602,602,602,602,602,602,602,602,602,602,602,602,602,602,602,602,602,602,602,602,602,602,602,602,602,602,602,602,602,602,577,555,458,411,366,328,294,230,210,187,165,142,83,56,31],"timestamp_mouse":[12,36,43,64,84,104,124,144,163,184,204,223,244,264,284,303,323,343,364,384,403,424,443,463,485,504,524,543,563,584,604,623,644,663,684,703,724,743,763,785,804,823,843,864,884,903,924,943,964,984,1005,1024,1044,1063,1084,1104,1125,1145,1163,1183,1203,1224,1244,1263,1283,1303,1323,1344,1363,1383,1404,1424,1444,1464,1484,1503,1524,1544,1563,1584,1604,1624,1644],"xSR":741.5,"ySR":573.95,"xT1":424.9,"yT1":0,"xT2":1058.1,"yT2":0,"toosoon":0,"cond_shown":"equaldotsize","ratio_trial":900,"smaller_num":"9","larger_num":"10","correct_side":1,"subjID":"AnaMariaMoreno16","gender":"1","age":"9","school":"4"},{"start_time":1552069322706,"click_time":1552069323952,"finger_time":1552069323590,"fix_duration":993.7806339381787,"trial":50,"RT":884,"MT":362,"sideResp":1,"stimulus":"img/750/equaldotsize/L/14_Ratio_750_L_8_R_6.png","xmouse":[794,794,794,794,794,794,794,794,794,794,794,794,794,794,794,794,794,794,794,794,794,794,794,794,794,794,794,794,794,794,794,794,794,794,794,794,794,794,794,794,793,781,768,752,734,687,661,622,590,565,540,529,520,509,499,481,473,468,463,461,457,455,452],"ymouse":[645,645,645,645,645,645,645,645,645,645,645,645,645,645,645,645,645,645,645,645,645,645,645,645,645,645,645,645,645,645,645,645,645,645,645,645,645,645,645,645,645,631,614,595,574,532,511,483,456,429,397,380,361,342,318,274,248,225,189,178,123,104,88],"timestamp_mouse":[13,32,46,64,85,104,125,144,166,184,205,224,244,264,285,304,324,344,365,385,404,424,445,466,486,505,525,545,564,585,606,625,645,665,686,706,724,745,765,786,805,825,845,865,884,904,924,945,964,985,1005,1025,1044,1065,1085,1104,1124,1144,1165,1185,1204,1225,1246],"xSR":741.5,"ySR":573.95,"xT1":424.9,"yT1":0,"xT2":1058.1,"yT2":0,"toosoon":0,"cond_shown":"equaldotsize","ratio_trial":750,"smaller_num":"6","larger_num":"8","correct_side":1,"subjID":"AnaMariaMoreno16","gender":"1","age":"9","school":"4"},{"start_time":1552069326113,"click_time":1552069327491,"finger_time":1552069326750,"fix_duration":1179.8800052599183,"trial":51,"RT":637,"MT":741,"sideResp":1,"stimulus":"img/500/equaldotsize/L/4_Ratio_500_L_18_R_9.png","xmouse":[814,814,814,814,814,814,814,814,814,814,814,814,814,814,814,814,814,814,814,814,814,814,814,814,814,814,814,814,812,793,778,764,753,740,694,665,644,624,619,601,593,584,575,570,558,551,542,530,519,493,480,466,452,425,417,410,406,404,403,403,403,403,403,408,410,414,419,424,431],"ymouse":[619,619,619,619,619,619,619,619,619,619,619,619,619,619,619,619,619,619,619,619,619,619,619,619,619,619,619,619,619,605,585,563,541,523,484,466,454,440,436,420,411,402,392,383,353,336,317,294,273,213,191,168,151,123,113,102,92,84,73,70,70,70,70,70,70,68,65,63,61],"timestamp_mouse":[18,40,57,78,98,118,138,158,178,198,218,238,258,278,298,318,339,358,378,397,417,437,459,478,497,518,537,558,578,597,618,637,657,678,698,717,738,759,777,797,819,839,858,878,898,918,937,958,978,998,1018,1038,1057,1079,1098,1119,1139,1158,1179,1197,1217,1237,1258,1279,1297,1318,1337,1358,1378],"xSR":741.5,"ySR":573.95,"xT1":424.9,"yT1":0,"xT2":1058.1,"yT2":0,"toosoon":0,"cond_shown":"equaldotsize","ratio_trial":500,"smaller_num":"9","larger_num":"18","correct_side":1,"subjID":"AnaMariaMoreno16","gender":"1","age":"9","school":"4"},{"start_time":1552069329212,"click_time":1552069330210,"finger_time":1552069330010,"fix_duration":799.5071248447138,"trial":52,"RT":798,"MT":200,"sideResp":2,"stimulus":"img/900/equaldotsize/L/1_Ratio_900_L_10_R_9.png","xmouse":[828,828,828,828,828,828,828,828,828,828,828,828,828,828,828,828,828,828,828,828,828,828,828,828,828,828,828,828,828,828,828,828,828,828,828,828,827,827,840,881,909,935,971,988,1020,1032,1042,1050,1065,1071],"ymouse":[641,641,641,641,641,641,641,641,641,641,641,641,641,641,641,641,641,641,641,641,641,641,641,641,641,641,641,641,641,641,641,641,641,641,641,641,637,624,584,470,405,346,276,242,189,166,150,136,108,96],"timestamp_mouse":[34,40,59,78,98,119,139,159,179,198,219,238,258,279,298,318,338,358,379,398,420,439,458,478,500,519,538,559,578,599,618,639,660,678,699,719,740,758,779,798,818,838,859,879,900,919,939,958,979,998],"xSR":741.5,"ySR":573.95,"xT1":424.9,"yT1":0,"xT2":1058.1,"yT2":0,"toosoon":0,"cond_shown":"equaldotsize","ratio_trial":900,"smaller_num":"9","larger_num":"10","correct_side":1,"subjID":"AnaMariaMoreno16","gender":"1","age":"9","school":"4"},{"start_time":1552069332196,"click_time":1552069333470,"finger_time":1552069333031,"fix_duration":1084.5433419209508,"trial":53,"RT":835,"MT":439,"sideResp":2,"stimulus":"img/250/equaldotsize/R/10_Ratio_250_L_4_R_16.png","xmouse":[802,802,802,802,802,802,802,802,802,802,802,802,802,802,802,802,802,802,802,802,802,802,802,802,802,802,802,802,802,802,802,802,802,802,802,802,802,802,802,801,813,831,850,869,903,943,962,973,985,988,1006,1010,1012,1012,1013,1013,1013,1017,1022,1027,1041,1049,1056,1062],"ymouse":[643,643,643,643,643,643,643,643,643,643,643,643,643,643,643,643,643,643,643,643,643,643,643,643,643,643,643,643,643,643,643,643,643,643,643,643,643,643,643,637,601,544,484,418,322,188,123,70,22,6,0,0,0,0,0,0,0,0,4,7,17,20,24,27],"timestamp_mouse":[15,37,55,74,94,115,134,154,175,195,214,234,255,274,295,315,336,355,374,394,415,435,455,475,494,515,535,554,575,595,614,635,654,674,695,715,734,754,775,794,815,835,855,875,895,915,936,955,976,995,1015,1035,1054,1075,1095,1114,1135,1155,1175,1195,1215,1235,1255,1274],"xSR":741.5,"ySR":573.95,"xT1":424.9,"yT1":0,"xT2":1058.1,"yT2":0,"toosoon":0,"cond_shown":"equaldotsize","ratio_trial":250,"smaller_num":"4","larger_num":"16","correct_side":2,"subjID":"AnaMariaMoreno16","gender":"1","age":"9","school":"4"},{"start_time":1552069335103,"click_time":1552069336911,"finger_time":1552069336390,"fix_duration":250,"trial":54,"RT":1287,"MT":521,"sideResp":2,"stimulus":"img/750/randomdotsizeEA/R/15_Ratio_750_L_9_R_12.png","xmouse":[783,783,783,783,783,783,783,783,783,783,783,783,783,783,783,783,783,783,783,783,783,783,783,783,783,783,783,783,783,783,783,783,783,783,783,783,783,783,783,783,783,783,783,783,783,783,783,783,783,783,783,783,783,783,783,783,783,783,783,783,783,783,783,785,798,849,886,922,956,986,1027,1033,1037,1041,1044,1049,1049,1049,1049,1049,1050,1050,1050,1051,1051,1054,1054,1054,1056,1058,1066],"ymouse":[604,604,604,604,604,604,604,604,604,604,604,604,604,604,604,604,604,604,604,604,604,604,604,604,604,604,604,604,604,604,604,604,604,604,604,604,604,604,604,604,604,604,604,604,604,604,604,604,604,604,604,604,604,604,604,604,599,596,596,596,596,596,588,578,544,426,352,281,218,165,79,60,44,32,20,3,0,0,0,0,0,0,0,0,0,1,1,1,3,6,13],"timestamp_mouse":[9,27,47,69,88,108,128,149,168,188,207,227,247,268,287,307,329,348,368,387,409,428,447,468,487,508,527,548,568,588,608,629,648,668,688,707,728,748,768,788,808,829,848,867,888,909,928,948,968,987,1008,1027,1048,1068,1087,1109,1129,1148,1168,1188,1208,1229,1247,1268,1287,1308,1328,1347,1368,1388,1407,1427,1447,1467,1488,1508,1527,1547,1567,1587,1607,1627,1648,1668,1687,1707,1727,1748,1768,1788,1808],"xSR":741.5,"ySR":573.95,"xT1":424.9,"yT1":0,"xT2":1058.1,"yT2":0,"toosoon":0,"cond_shown":"randomdotsizeEA","ratio_trial":750,"smaller_num":"9","larger_num":"12","correct_side":2,"subjID":"AnaMariaMoreno16","gender":"1","age":"9","school":"4"},{"start_time":1552069338543,"click_time":1552069339710,"finger_time":1552069339271,"fix_duration":391.949591315818,"trial":55,"RT":728,"MT":439,"sideResp":1,"stimulus":"img/500/equaldotanddens/L/7_Ratio_500_L_10_R_5.png","xmouse":[821,821,821,821,821,821,821,821,821,821,821,821,821,821,821,821,821,821,821,821,821,821,821,821,821,821,821,821,821,821,821,821,821,821,820,811,744,711,536,500,468,449,437,429,428,427,423,423,422,422,422,422,422,422,422,424,427,429,434],"ymouse":[620,620,620,620,620,620,620,620,620,620,620,620,620,620,620,620,620,620,620,620,620,620,620,620,620,620,620,620,620,620,620,620,620,620,620,616,538,499,301,255,222,207,199,193,192,191,188,186,185,184,183,180,175,160,149,136,122,108,76],"timestamp_mouse":[12,34,48,67,87,107,127,148,167,187,208,229,248,268,287,308,327,348,367,388,408,427,448,468,487,508,527,547,568,587,608,629,648,667,687,708,728,747,768,788,807,828,847,868,888,908,928,949,967,988,1008,1027,1048,1067,1087,1108,1127,1148,1167],"xSR":741.5,"ySR":573.95,"xT1":424.9,"yT1":0,"xT2":1058.1,"yT2":0,"toosoon":0,"cond_shown":"equaldotanddens","ratio_trial":500,"smaller_num":"5","larger_num":"10","correct_side":1,"subjID":"AnaMariaMoreno16","gender":"1","age":"9","school":"4"},{"start_time":1552069341871,"click_time":1552069343611,"finger_time":1552069342491,"fix_duration":778.7226600587039,"trial":56,"RT":620,"MT":1120,"sideResp":1,"stimulus":"img/900/equaldotanddens/L/2_Ratio_900_L_20_R_18.png","xmouse":[790,790,790,790,790,790,790,790,790,790,790,790,790,790,790,790,790,790,790,790,790,790,790,790,790,790,790,790,790,790,787,781,768,764,764,764,764,764,764,764,763,760,740,724,706,682,648,540,462,360,243,61,0,0,0,0,0,0,0,0,1,3,18,19,42,71,99,160,185,211,230,263,285,303,320,326,326,326,327,327,329,335,359,373,387,400,420,457],"ymouse":[595,595,595,595,595,595,595,595,595,595,595,595,595,595,595,595,595,595,595,595,595,595,595,595,595,595,595,595,595,595,588,561,495,467,443,423,411,401,399,398,397,392,378,371,363,355,342,297,259,202,137,38,0,0,0,0,0,0,0,0,0,1,3,3,1,0,0,0,0,0,0,0,0,0,0,0,0,0,0,0,0,1,11,17,23,29,36,48],"timestamp_mouse":[1,20,42,60,80,100,120,139,159,180,200,221,239,260,279,300,319,340,359,380,399,420,440,460,480,500,519,540,559,580,600,620,639,659,679,700,720,740,759,779,800,819,840,861,879,900,919,940,960,980,999,1020,1039,1059,1079,1100,1119,1139,1159,1179,1199,1219,1240,1261,1280,1300,1320,1340,1360,1380,1399,1420,1439,1460,1480,1500,1519,1539,1559,1580,1600,1619,1639,1660,1680,1699,1719,1740],"xSR":741.5,"ySR":573.95,"xT1":424.9,"yT1":0,"xT2":1058.1,"yT2":0,"toosoon":0,"cond_shown":"equaldotanddens","ratio_trial":900,"smaller_num":"18","larger_num":"20","correct_side":1,"subjID":"AnaMariaMoreno16","gender":"1","age":"9","school":"4"},{"start_time":1552069345277,"click_time":1552069346450,"finger_time":1552069346011,"fix_duration":404.6565613617653,"trial":57,"RT":734,"MT":439,"sideResp":1,"stimulus":"img/250/equaldotsize/L/15_Ratio_250_L_12_R_3.png","xmouse":[799,799,799,799,799,799,799,799,799,799,799,799,799,799,799,799,799,799,799,799,799,799,799,799,799,799,799,799,799,799,799,799,799,799,799,799,737,669,591,516,457,440,439,437,434,430,415,410,405,403,403,403,403,403,403,403,409,419,440],"ymouse":[629,629,629,629,629,629,629,629,629,629,629,629,629,629,629,629,629,629,629,629,629,629,629,629,629,629,629,629,629,629,629,629,629,629,629,626,526,404,259,105,0,0,0,0,0,0,0,0,0,0,0,0,0,0,0,0,7,22,50],"timestamp_mouse":[13,38,54,74,94,114,134,153,174,193,213,235,254,274,293,314,333,353,373,394,414,434,454,474,493,513,534,553,575,594,614,633,654,675,695,713,734,753,773,793,814,834,853,874,894,913,934,953,974,993,1016,1035,1055,1074,1093,1113,1133,1153,1173],"xSR":741.5,"ySR":573.95,"xT1":424.9,"yT1":0,"xT2":1058.1,"yT2":0,"toosoon":0,"cond_shown":"equaldotsize","ratio_trial":250,"smaller_num":"3","larger_num":"12","correct_side":1,"subjID":"AnaMariaMoreno16","gender":"1","age":"9","school":"4"},{"start_time":1552069348921,"click_time":1552069350191,"finger_time":1552069349750,"fix_duration":1388.723583603183,"trial":58,"RT":829,"MT":441,"sideResp":2,"stimulus":"img/500/randomdotsizeEA/R/2_Ratio_500_L_3_R_6.png","xmouse":[815,815,815,815,815,815,815,815,815,815,815,815,815,815,815,815,815,815,815,815,815,815,815,815,815,815,815,815,815,815,815,815,815,815,815,815,815,815,815,815,820,852,896,935,976,984,990,996,1002,1021,1026,1033,1040,1050,1066,1074,1078,1082,1084,1094,1100,1107,1113,1117],"ymouse":[616,616,616,616,616,616,616,616,616,616,616,616,616,616,616,616,616,616,616,616,616,616,616,616,616,616,616,616,616,616,616,616,616,616,616,616,616,616,616,616,615,572,512,469,410,393,376,359,343,293,280,266,250,232,195,178,169,162,159,142,131,119,107,99],"timestamp_mouse":[11,33,49,69,90,109,129,149,169,189,209,229,249,269,290,309,329,351,370,390,410,431,450,470,490,510,530,551,570,589,610,629,649,669,690,709,729,750,770,790,810,829,849,871,889,909,929,949,969,989,1010,1029,1049,1070,1090,1109,1131,1150,1169,1191,1210,1231,1250,1270],"xSR":741.5,"ySR":573.95,"xT1":424.9,"yT1":0,"xT2":1058.1,"yT2":0,"toosoon":0,"cond_shown":"randomdotsizeEA","ratio_trial":500,"smaller_num":"3","larger_num":"6","correct_side":2,"subjID":"AnaMariaMoreno16","gender":"1","age":"9","school":"4"},{"start_time":1552069351437,"click_time":1552069353071,"finger_time":1552069352651,"fix_duration":405.4350125846119,"trial":59,"RT":1214,"MT":420,"sideResp":1,"stimulus":"img/750/randomdotsizeEA/L/6_Ratio_750_L_24_R_18.png","xmouse":[797,797,797,797,797,797,797,797,797,797,797,797,797,797,797,797,797,797,797,797,797,797,797,797,797,797,797,797,797,797,797,797,797,797,797,797,797,797,797,797,797,797,797,797,797,797,797,797,797,797,797,797,797,797,797,797,797,797,795,781,750,690,645,574,560,553,551,550,550,550,550,548,546,541,540,540,538,536,530,527,525,524],"ymouse":[603,603,603,603,603,603,603,603,603,603,603,603,603,603,603,603,603,603,603,603,603,603,603,603,603,603,603,603,603,603,603,603,603,603,603,603,603,603,603,603,603,603,603,603,603,603,603,603,603,603,603,603,603,603,603,603,603,603,603,577,502,371,293,194,176,166,162,161,159,154,146,134,123,107,104,100,97,92,78,74,70,68],"timestamp_mouse":[15,38,54,73,94,113,133,155,174,193,213,234,253,274,295,314,334,354,374,394,413,434,454,475,495,514,534,554,573,594,613,634,654,673,693,713,733,754,774,795,814,833,854,874,893,913,934,954,974,994,1013,1033,1053,1074,1094,1115,1134,1154,1173,1194,1214,1234,1254,1273,1293,1313,1334,1353,1373,1394,1413,1434,1454,1474,1495,1515,1533,1554,1573,1594,1614,1634],"xSR":741.5,"ySR":573.95,"xT1":424.9,"yT1":0,"xT2":1058.1,"yT2":0,"toosoon":0,"cond_shown":"randomdotsizeEA","ratio_trial":750,"smaller_num":"18","larger_num":"24","correct_side":1,"subjID":"AnaMariaMoreno16","gender":"1","age":"9","school":"4"},{"start_time":1552069355788,"click_time":1552069357110,"finger_time":1552069356630,"fix_duration":1256.260781316386,"trial":60,"RT":842,"MT":480,"sideResp":2,"stimulus":"img/750/equaldotanddens/R/11_Ratio_750_L_12_R_16.png","xmouse":[764,764,764,764,764,764,764,764,764,764,764,764,764,764,764,764,764,764,764,764,764,764,764,764,764,764,764,764,764,764,764,764,764,764,764,764,764,764,764,764,764,768,799,851,922,1050,1115,1132,1140,1146,1153,1167,1177,1187,1202,1208,1217,1217,1217,1217,1217,1216,1208,1200,1187,1175,1154],"ymouse":[622,622,622,622,622,622,622,622,622,622,622,622,622,622,622,622,622,622,622,622,622,622,622,622,622,622,622,622,622,622,622,622,622,622,622,622,622,622,622,622,622,619,548,455,360,232,190,180,176,173,167,153,139,125,94,82,34,27,25,25,25,24,22,21,20,18,17],"timestamp_mouse":[12,35,43,63,82,102,123,143,163,183,203,222,242,262,282,302,323,342,364,382,402,422,443,462,482,502,523,543,563,583,602,624,643,663,682,702,722,743,762,783,803,822,842,863,883,904,922,943,963,982,1002,1023,1042,1063,1082,1102,1123,1143,1164,1183,1202,1223,1242,1263,1284,1302,1322],"xSR":741.5,"ySR":573.95,"xT1":424.9,"yT1":0,"xT2":1058.1,"yT2":0,"toosoon":0,"cond_shown":"equaldotanddens","ratio_trial":750,"smaller_num":"12","larger_num":"16","correct_side":2,"subjID":"AnaMariaMoreno16","gender":"1","age":"9","school":"4"},{"start_time":1552069360383,"click_time":1552069361751,"finger_time":1552069361151,"fix_duration":630.9527242897552,"trial":61,"RT":768,"MT":600,"sideResp":1,"stimulus":"img/750/randomdotsizeEA/L/1_Ratio_750_L_20_R_15.png","xmouse":[766,766,766,766,766,766,766,766,766,766,766,766,766,766,766,766,766,766,766,766,766,766,766,766,766,766,766,766,766,766,766,766,766,766,766,766,756,746,732,718,698,644,618,591,563,529,445,412,388,368,350,332,330,330,334,342,353,357,365,375,387,403,408,412,415,417,420,423,427],"ymouse":[654,654,654,654,654,654,654,654,654,654,654,654,654,654,654,654,654,654,654,654,654,654,654,654,654,654,654,654,654,654,654,654,654,654,654,654,633,619,605,587,563,497,452,392,330,262,131,96,81,67,55,41,34,28,20,4,0,0,0,0,0,0,0,0,1,3,17,26,36],"timestamp_mouse":[10,36,48,67,88,107,127,147,169,188,208,228,248,267,289,308,328,348,368,387,408,429,448,468,488,508,527,549,568,588,607,627,648,668,687,707,727,748,768,789,808,828,847,867,888,908,928,948,968,989,1007,1028,1047,1067,1087,1108,1128,1147,1168,1187,1208,1227,1248,1267,1287,1307,1328,1347,1368],"xSR":741.5,"ySR":573.95,"xT1":424.9,"yT1":0,"xT2":1058.1,"yT2":0,"toosoon":0,"cond_shown":"randomdotsizeEA","ratio_trial":750,"smaller_num":"15","larger_num":"20","correct_side":1,"subjID":"AnaMariaMoreno16","gender":"1","age":"9","school":"4"},{"start_time":1552069364371,"click_time":1552069365511,"finger_time":1552069365171,"fix_duration":1299.928203364996,"trial":62,"RT":800,"MT":340,"sideResp":1,"stimulus":"img/250/randomdotsizeEA/L/7_Ratio_250_L_8_R_2.png","xmouse":[772,772,772,772,772,772,772,772,772,772,772,772,772,772,772,772,772,772,772,772,772,772,772,772,772,772,772,772,772,772,772,772,772,772,772,772,772,772,764,744,697,587,534,493,476,460,453,453,453,453,453,453,453,453,453,453,453],"ymouse":[629,629,629,629,629,629,629,629,629,629,629,629,629,629,629,629,629,629,629,629,629,629,629,629,629,629,629,629,629,629,629,629,629,629,629,629,629,629,592,548,430,138,9,0,0,0,0,0,0,0,0,0,0,0,0,0,1],"timestamp_mouse":[21,40,59,79,100,119,139,160,179,200,219,240,260,279,299,320,340,360,380,400,420,439,460,479,500,519,541,560,580,600,621,641,660,680,700,720,739,760,779,800,819,840,860,879,899,919,939,960,980,999,1019,1040,1059,1079,1099,1120,1140],"xSR":741.5,"ySR":573.95,"xT1":424.9,"yT1":0,"xT2":1058.1,"yT2":0,"toosoon":0,"cond_shown":"randomdotsizeEA","ratio_trial":250,"smaller_num":"2","larger_num":"8","correct_side":1,"subjID":"AnaMariaMoreno16","gender":"1","age":"9","school":"4"},{"start_time":1552069368959,"click_time":1552069370110,"finger_time":1552069369791,"fix_duration":785.3388146150835,"trial":63,"RT":832,"MT":319,"sideResp":1,"stimulus":"img/500/randomdotsizeEA/L/8_Ratio_500_L_8_R_4.png","xmouse":[800,800,800,800,800,800,800,800,800,800,800,800,800,800,800,800,800,800,800,800,800,800,800,800,800,800,800,800,800,800,800,800,800,800,800,800,800,800,800,790,769,746,710,696,687,675,661,608,576,547,521,505,489,486,482,474,469,460],"ymouse":[646,646,646,646,646,646,646,646,646,646,646,646,646,646,646,646,646,646,646,646,646,646,646,646,646,646,646,646,646,646,646,646,646,646,646,646,646,646,646,620,586,557,522,508,492,467,433,315,262,214,178,157,137,131,124,112,101,85],"timestamp_mouse":[13,36,51,71,91,111,131,152,172,191,213,232,252,272,291,312,332,351,372,391,412,432,451,473,493,511,531,552,571,591,611,631,651,671,692,712,732,751,771,791,812,832,852,872,892,911,933,953,972,992,1012,1032,1052,1073,1092,1112,1131,1151],"xSR":741.5,"ySR":573.95,"xT1":424.9,"yT1":0,"xT2":1058.1,