[{"start_time":1552068562327,"click_time":1552068564294,"finger_time":1552068563975,"fix_duration":250,"trial":0,"RT":1648,"MT":319,"sideResp":2,"stimulus":[],"xmouse":[794,794,794,794,794,794,794,794,794,794,794,794,794,794,794,794,794,794,794,794,794,794,794,794,794,794,794,794,794,794,794,794,794,794,794,794,794,794,794,794,794,794,794,794,794,794,794,794,794,794,794,794,794,794,794,794,794,794,794,794,794,794,794,794,794,794,794,794,794,794,794,794,794,794,794,794,794,794,794,794,794,819,879,931,989,1008,1020,1038,1043,1048,1049,1049,1049,1049,1049,1049,1050,1056,1065],"ymouse":[519,519,519,519,519,519,519,519,519,519,519,519,519,519,519,519,519,519,519,519,519,519,519,519,519,519,519,519,519,519,519,519,519,519,519,519,519,519,519,519,519,519,519,519,519,519,519,519,519,519,519,519,519,519,519,519,519,519,519,519,519,519,519,519,519,519,519,519,519,519,519,519,519,519,519,519,519,519,519,519,519,493,435,369,239,189,152,116,104,92,90,89,89,89,89,89,87,82,78],"timestamp_mouse":[7,26,47,67,87,106,127,148,168,187,206,227,247,267,286,308,327,347,367,387,407,428,447,467,488,508,527,548,566,588,607,627,648,666,686,707,728,748,766,788,807,827,847,868,887,906,928,947,967,986,1007,1028,1048,1067,1088,1108,1126,1146,1167,1188,1208,1227,1248,1267,1287,1307,1326,1348,1366,1387,1408,1427,1447,1466,1488,1508,1528,1546,1567,1587,1607,1626,1648,1667,1688,1707,1728,1748,1767,1788,1808,1827,1848,1867,1888,1906,1927,1947,1967],"xSR":741.5,"ySR":469.95,"xT1":424.9,"yT1":0,"xT2":1058.1,"yT2":0,"toosoon":0,"cond_shown":"Incongruent","ratio_trial":100,"L_num":9,"L_den":15,"R_num":13,"R_den":26,"correct_side":1,"subjID":"AnaMariaMoreno16","gender":"1","age":"9","school":"4","test":{"fix_dur":[250,1500],"timestim":1000,"targets_dim":[100,100],"targets_relative_coord":[0.3,0.7],"size_stim":[880,420],"start_dim":[100,100],"size_start":[300,300],"size_fix":60,"samplingrate":20,"img_types":["Congruent","Incongruent"],"ratios":[100,200,300],"rep_conds":19,"nTrials":120,"trials_to_rest":500,"Trials_order":[31,32,103,13,42,107,116,36,25,53,57,12,98,21,1,6,40,97,109,39,106,8,56,79,80,73,58,85,29,102,18,86,17,15,94,46,90,14,49,101,55,60,84,52,88,28,105,91,23,110,67,66,51,63,83,61,27,70,114,111,96,118,26,81,35,89,30,24,10,11,2,108,50,48,59,93,7,76,68,62,104,72,44,22,69,34,20,45,119,99,92,117,0,77,95,9,54,33,64,47,112,75,100,16,3,87,71,113,78,37,74,115,38,4,82,5,41,19,43,65],"cond_shown":["Incongruent","Congruent","Incongruent","Incongruent","Congruent","Incongruent","Congruent","Congruent","Incongruent","Incongruent","Incongruent","Congruent","Congruent","Incongruent","Incongruent","Congruent","Congruent","Incongruent","Incongruent","Incongruent","Congruent","Congruent","Congruent","Incongruent","Congruent","Incongruent","Congruent","Incongruent","Incongruent","Congruent","Congruent","Congruent","Incongruent","Incongruent","Congruent","Congruent","Congruent","Congruent","Incongruent","Incongruent","Incongruent","Congruent","Congruent","Congruent","Congruent","Congruent","Incongruent","Incongruent","Incongruent","Congruent","Incongruent","Congruent","Incongruent","Incongruent","Incongruent","Incongruent","Incongruent","Congruent","Congruent","Incongruent","Congruent","Congruent","Congruent","Incongruent","Incongruent","Incongruent","Congruent","Congruent","Congruent","Incongruent","Congruent","Congruent","Congruent","Congruent","Incongruent","Incongruent","Incongruent","Congruent","Congruent","Congruent","Congruent","Congruent","Congruent","Congruent","Incongruent","Congruent","Congruent","Incongruent","Incongruent","Incongruent","Congruent","Incongruent","Congruent","Incongruent","Incongruent","Incongruent","Congruent","Incongruent","Congruent","Incongruent","Congruent","Incongruent","Congruent","Congruent","Incongruent","Incongruent","Incongruent","Incongruent","Congruent","Incongruent","Congruent","Incongruent","Congruent","Congruent","Congruent","Incongruent","Incongruent","Incongruent","Incongruent","Incongruent"],"ratio_trial":[100,200,100,100,100,300,200,100,100,300,200,100,200,200,100,100,300,100,100,200,300,200,200,100,200,100,300,100,300,100,100,200,300,200,300,300,100,200,100,300,100,100,100,300,300,300,200,100,300,200,100,100,200,200,300,100,200,300,100,200,100,300,200,200,300,300,100,100,300,300,200,100,200,100,300,200,100,300,200,200,200,100,200,300,200,300,200,200,300,200,200,200,100,300,300,200,100,200,300,300,300,200,300,300,200,200,300,300,100,100,200,100,200,300,300,300,300,100,100,300],"left_num":[9,21,9,10,2,13,5,2,10,8,7,4,16,3,2,7,1,9,12,7,1,16,13,12,4,8,24,12,8,8,3,7,13,7,20,3,2,21,9,4,10,7,10,20,2,4,7,6,4,6,12,3,3,11,4,11,7,12,4,1,7,1,11,6,1,13,3,11,4,13,3,11,8,12,2,7,9,20,6,3,6,12,14,4,14,4,6,4,1,4,8,6,4,1,4,1,3,4,1,8,11,14,12,1,4,4,4,13,2,1,6,3,6,11,1,7,13,1,13,13],"right_num":[13,2,13,9,11,12,14,11,9,9,8,6,9,1,6,9,11,13,9,6,7,9,14,2,3,1,8,2,9,2,2,18,12,8,8,4,6,2,6,2,9,15,3,8,12,13,6,3,8,11,2,4,1,3,8,9,4,2,6,3,9,7,3,3,3,12,2,6,13,12,9,6,2,13,6,4,6,14,7,9,7,13,6,1,12,1,7,6,2,6,3,3,6,2,6,2,4,1,7,14,4,6,2,19,1,1,2,12,6,8,3,8,3,1,8,8,12,8,6,12],"left_den":[15,30,15,25,5,26,10,5,25,10,10,8,30,10,4,14,5,15,24,15,20,30,26,30,8,20,30,30,10,16,6,15,26,10,25,6,5,30,18,20,25,14,25,25,10,20,15,12,5,20,30,20,10,20,5,22,15,24,8,2,14,20,22,20,2,26,6,22,20,26,12,22,15,30,4,15,18,25,12,12,12,30,28,10,30,10,12,5,2,5,15,20,8,2,5,3,20,30,20,10,22,30,24,3,30,30,20,26,5,2,15,5,15,22,30,10,26,2,26,26],"right_den":[26,4,26,18,22,15,20,22,18,18,16,10,27,2,15,15,22,26,15,9,20,27,20,4,10,2,16,4,18,5,5,27,15,16,16,5,12,4,10,4,18,25,10,16,24,26,9,5,16,22,4,16,2,4,16,15,6,10,10,10,15,20,10,6,15,15,5,15,26,15,20,15,6,26,30,6,10,28,10,20,10,26,20,10,18,10,10,10,10,10,9,6,10,10,12,15,16,3,20,28,20,9,10,30,3,3,4,15,12,20,15,16,15,5,24,20,15,20,10,15],"correct_side":[1,1,1,2,2,2,2,2,2,1,1,2,1,2,1,2,2,1,2,2,2,1,2,2,1,2,1,2,1,1,1,2,2,1,1,2,2,1,2,2,2,2,1,1,2,2,2,2,1,2,2,2,2,2,1,2,2,1,2,1,2,2,1,2,1,2,1,1,2,2,2,1,1,2,1,2,2,1,2,2,2,2,1,1,2,1,2,1,1,1,1,2,2,1,1,1,2,2,2,1,1,2,1,2,2,2,2,2,2,1,1,1,1,1,2,1,2,1,2,2],"img_shown":["img2/100/Incongruent/L/I_Dist_100_LN_9_LD_15_RN_13_RD_26_0.png","img2/200/Congruent/L/C_Dist_200_LN_21_LD_30_RN_2_RD_4_0.png","img2/100/Incongruent/L/I_Dist_100_LN_9_LD_15_RN_13_RD_26_0.png","img2/100/Incongruent/R/I_Dist_100_LN_10_LD_25_RN_9_RD_18_1.png","img2/100/Congruent/R/C_Dist_100_LN_2_LD_5_RN_11_RD_22_1.png","img2/300/Incongruent/R/I_Dist_300_LN_13_LD_26_RN_12_RD_15_1.png","img2/200/Congruent/R/C_Dist_200_LN_5_LD_10_RN_14_RD_20_1.png","img2/100/Congruent/R/C_Dist_100_LN_2_LD_5_RN_11_RD_22_1.png","img2/100/Incongruent/R/I_Dist_100_LN_10_LD_25_RN_9_RD_18_1.png","img2/300/Incongruent/L/I_Dist_300_LN_8_LD_10_RN_9_RD_18_0.png","img2/200/Incongruent/L/I_Dist_200_LN_7_LD_10_RN_8_RD_16_0.png","img2/100/Congruent/R/C_Dist_100_LN_4_LD_8_RN_6_RD_10_1.png","img2/200/Congruent/L/C_Dist_200_LN_16_LD_30_RN_9_RD_27_0.png","img2/200/Incongruent/R/I_Dist_200_LN_3_LD_10_RN_1_RD_2_1.png","img2/100/Incongruent/L/I_Dist_100_LN_2_LD_4_RN_6_RD_15_0.png","img2/100/Congruent/R/C_Dist_100_LN_7_LD_14_RN_9_RD_15_1.png","img2/300/Congruent/R/C_Dist_300_LN_1_LD_5_RN_11_RD_22_1.png","img2/100/Incongruent/L/I_Dist_100_LN_9_LD_15_RN_13_RD_26_0.png","img2/100/Incongruent/R/I_Dist_100_LN_12_LD_24_RN_9_RD_15_1.png","img2/200/Incongruent/R/I_Dist_200_LN_7_LD_15_RN_6_RD_9_1.png","img2/300/Congruent/R/C_Dist_300_LN_1_LD_20_RN_7_RD_20_1.png","img2/200/Congruent/L/C_Dist_200_LN_16_LD_30_RN_9_RD_27_0.png","img2/200/Congruent/R/C_Dist_200_LN_13_LD_26_RN_14_RD_20_1.png","img2/100/Incongruent/R/I_Dist_100_LN_12_LD_30_RN_2_RD_4_1.png","img2/200/Congruent/L/C_Dist_200_LN_4_LD_8_RN_3_RD_10_0.png","img2/100/Incongruent/R/I_Dist_100_LN_8_LD_20_RN_1_RD_2_1.png","img2/300/Congruent/L/C_Dist_300_LN_24_LD_30_RN_8_RD_16_0.png","img2/100/Incongruent/R/I_Dist_100_LN_12_LD_30_RN_2_RD_4_1.png","img2/300/Incongruent/L/I_Dist_300_LN_8_LD_10_RN_9_RD_18_0.png","img2/100/Congruent/L/C_Dist_100_LN_8_LD_16_RN_2_RD_5_0.png","img2/100/Congruent/L/C_Dist_100_LN_3_LD_6_RN_2_RD_5_0.png","img2/200/Congruent/R/C_Dist_200_LN_7_LD_15_RN_18_RD_27_1.png","img2/300/Incongruent/R/I_Dist_300_LN_13_LD_26_RN_12_RD_15_1.png","img2/200/Incongruent/L/I_Dist_200_LN_7_LD_10_RN_8_RD_16_0.png","img2/300/Congruent/L/C_Dist_300_LN_20_LD_25_RN_8_RD_16_0.png","img2/300/Congruent/R/C_Dist_300_LN_3_LD_6_RN_4_RD_5_1.png","img2/100/Congruent/R/C_Dist_100_LN_2_LD_5_RN_6_RD_12_1.png","img2/200/Congruent/L/C_Dist_200_LN_21_LD_30_RN_2_RD_4_0.png","img2/100/Incongruent/R/I_Dist_100_LN_9_LD_18_RN_6_RD_10_1.png","img2/300/Incongruent/R/I_Dist_300_LN_4_LD_20_RN_2_RD_4_1.png","img2/100/Incongruent/R/I_Dist_100_LN_10_LD_25_RN_9_RD_18_1.png","img2/100/Congruent/R/C_Dist_100_LN_7_LD_14_RN_15_RD_25_1.png","img2/100/Congruent/L/C_Dist_100_LN_10_LD_25_RN_3_RD_10_0.png","img2/300/Congruent/L/C_Dist_300_LN_20_LD_25_RN_8_RD_16_0.png","img2/300/Congruent/R/C_Dist_300_LN_2_LD_10_RN_12_RD_24_1.png","img2/300/Congruent/R/C_Dist_300_LN_4_LD_20_RN_13_RD_26_1.png","img2/200/Incongruent/R/I_Dist_200_LN_7_LD_15_RN_6_RD_9_1.png","img2/100/Incongruent/R/I_Dist_100_LN_6_LD_12_RN_3_RD_5_1.png","img2/300/Incongruent/L/I_Dist_300_LN_4_LD_5_RN_8_RD_16_0.png","img2/200/Congruent/R/C_Dist_200_LN_6_LD_20_RN_11_RD_22_1.png","img2/100/Incongruent/R/I_Dist_100_LN_12_LD_30_RN_2_RD_4_1.png","img2/100/Congruent/R/C_Dist_100_LN_3_LD_20_RN_4_RD_16_1.png","img2/200/Incongruent/R/I_Dist_200_LN_3_LD_10_RN_1_RD_2_1.png","img2/200/Incongruent/R/I_Dist_200_LN_11_LD_20_RN_3_RD_4_1.png","img2/300/Incongruent/L/I_Dist_300_LN_4_LD_5_RN_8_RD_16_0.png","img2/100/Incongruent/R/I_Dist_100_LN_11_LD_22_RN_9_RD_15_1.png","img2/200/Incongruent/R/I_Dist_200_LN_7_LD_15_RN_4_RD_6_1.png","img2/300/Congruent/L/C_Dist_300_LN_12_LD_24_RN_2_RD_10_0.png","img2/100/Congruent/R/C_Dist_100_LN_4_LD_8_RN_6_RD_10_1.png","img2/200/Incongruent/L/I_Dist_200_LN_1_LD_2_RN_3_RD_10_0.png","img2/100/Congruent/R/C_Dist_100_LN_7_LD_14_RN_9_RD_15_1.png","img2/300/Congruent/R/C_Dist_300_LN_1_LD_20_RN_7_RD_20_1.png","img2/200/Congruent/L/C_Dist_200_LN_11_LD_22_RN_3_RD_10_0.png","img2/200/Incongruent/R/I_Dist_200_LN_6_LD_20_RN_3_RD_6_1.png","img2/300/Incongruent/L/I_Dist_300_LN_1_LD_2_RN_3_RD_15_0.png","img2/300/Incongruent/R/I_Dist_300_LN_13_LD_26_RN_12_RD_15_1.png","img2/100/Congruent/L/C_Dist_100_LN_3_LD_6_RN_2_RD_5_0.png","img2/100/Congruent/L/C_Dist_100_LN_11_LD_22_RN_6_RD_15_0.png","img2/300/Congruent/R/C_Dist_300_LN_4_LD_20_RN_13_RD_26_1.png","img2/300/Incongruent/R/I_Dist_300_LN_13_LD_26_RN_12_RD_15_1.png","img2/200/Congruent/R/C_Dist_200_LN_3_LD_12_RN_9_RD_20_1.png","img2/100/Congruent/L/C_Dist_100_LN_11_LD_22_RN_6_RD_15_0.png","img2/200/Congruent/L/C_Dist_200_LN_8_LD_15_RN_2_RD_6_0.png","img2/100/Congruent/R/C_Dist_100_LN_12_LD_30_RN_13_RD_26_1.png","img2/300/Incongruent/L/I_Dist_300_LN_2_LD_4_RN_6_RD_30_0.png","img2/200/Incongruent/R/I_Dist_200_LN_7_LD_15_RN_4_RD_6_1.png","img2/100/Incongruent/R/I_Dist_100_LN_9_LD_18_RN_6_RD_10_1.png","img2/300/Congruent/L/C_Dist_300_LN_20_LD_25_RN_14_RD_28_0.png","img2/200/Congruent/R/C_Dist_200_LN_6_LD_12_RN_7_RD_10_1.png","img2/200/Congruent/R/C_Dist_200_LN_3_LD_12_RN_9_RD_20_1.png","img2/200/Congruent/R/C_Dist_200_LN_6_LD_12_RN_7_RD_10_1.png","img2/100/Congruent/R/C_Dist_100_LN_12_LD_30_RN_13_RD_26_1.png","img2/200/Congruent/L/C_Dist_200_LN_14_LD_28_RN_6_RD_20_0.png","img2/300/Congruent/L/C_Dist_300_LN_4_LD_10_RN_1_RD_10_0.png","img2/200/Incongruent/R/I_Dist_200_LN_14_LD_30_RN_12_RD_18_1.png","img2/300/Congruent/L/C_Dist_300_LN_4_LD_10_RN_1_RD_10_0.png","img2/200/Congruent/R/C_Dist_200_LN_6_LD_12_RN_7_RD_10_1.png","img2/200/Incongruent/L/I_Dist_200_LN_4_LD_5_RN_6_RD_10_0.png","img2/300/Incongruent/L/I_Dist_300_LN_1_LD_2_RN_2_RD_10_0.png","img2/200/Incongruent/L/I_Dist_200_LN_4_LD_5_RN_6_RD_10_0.png","img2/200/Congruent/L/C_Dist_200_LN_8_LD_15_RN_3_RD_9_0.png","img2/200/Incongruent/R/I_Dist_200_LN_6_LD_20_RN_3_RD_6_1.png","img2/100/Congruent/R/C_Dist_100_LN_4_LD_8_RN_6_RD_10_1.png","img2/300/Incongruent/L/I_Dist_300_LN_1_LD_2_RN_2_RD_10_0.png","img2/300/Incongruent/L/I_Dist_300_LN_4_LD_5_RN_6_RD_12_0.png","img2/200/Incongruent/L/I_Dist_200_LN_1_LD_3_RN_2_RD_15_0.png","img2/100/Congruent/R/C_Dist_100_LN_3_LD_20_RN_4_RD_16_1.png","img2/200/Incongruent/R/I_Dist_200_LN_4_LD_30_RN_1_RD_3_1.png","img2/300/Congruent/R/C_Dist_300_LN_1_LD_20_RN_7_RD_20_1.png","img2/300/Incongruent/L/I_Dist_300_LN_8_LD_10_RN_14_RD_28_0.png","img2/300/Congruent/L/C_Dist_300_LN_11_LD_22_RN_4_RD_20_0.png","img2/200/Incongruent/R/I_Dist_200_LN_14_LD_30_RN_6_RD_9_1.png","img2/300/Congruent/L/C_Dist_300_LN_12_LD_24_RN_2_RD_10_0.png","img2/300/Congruent/R/C_Dist_300_LN_1_LD_3_RN_19_RD_30_1.png","img2/200/Incongruent/R/I_Dist_200_LN_4_LD_30_RN_1_RD_3_1.png","img2/200/Incongruent/R/I_Dist_200_LN_4_LD_30_RN_1_RD_3_1.png","img2/300/Incongruent/R/I_Dist_300_LN_4_LD_20_RN_2_RD_4_1.png","img2/300/Incongruent/R/I_Dist_300_LN_13_LD_26_RN_12_RD_15_1.png","img2/100/Congruent/R/C_Dist_100_LN_2_LD_5_RN_6_RD_12_1.png","img2/100/Incongruent/L/I_Dist_100_LN_1_LD_2_RN_8_RD_20_0.png","img2/200/Congruent/L/C_Dist_200_LN_6_LD_15_RN_3_RD_15_0.png","img2/100/Incongruent/L/I_Dist_100_LN_3_LD_5_RN_8_RD_16_0.png","img2/200/Congruent/L/C_Dist_200_LN_6_LD_15_RN_3_RD_15_0.png","img2/300/Congruent/L/C_Dist_300_LN_11_LD_22_RN_1_RD_5_0.png","img2/300/Congruent/R/C_Dist_300_LN_1_LD_30_RN_8_RD_24_1.png","img2/300/Incongruent/L/I_Dist_300_LN_7_LD_10_RN_8_RD_20_0.png","img2/300/Incongruent/R/I_Dist_300_LN_13_LD_26_RN_12_RD_15_1.png","img2/100/Incongruent/L/I_Dist_100_LN_1_LD_2_RN_8_RD_20_0.png","img2/100/Incongruent/R/I_Dist_100_LN_13_LD_26_RN_6_RD_10_1.png","img2/300/Incongruent/R/I_Dist_300_LN_13_LD_26_RN_12_RD_15_1.png"],"dist100_C":[["C_Dist_100_LN_10_LD_25_RN_3_RD_10_0.png","C_Dist_100_LN_11_LD_22_RN_4_RD_10_0.png","C_Dist_100_LN_11_LD_22_RN_6_RD_15_0.png","C_Dist_100_LN_15_LD_25_RN_13_RD_26_0.png","C_Dist_100_LN_3_LD_6_RN_2_RD_5_0.png","C_Dist_100_LN_6_LD_20_RN_5_RD_25_0.png","C_Dist_100_LN_8_LD_16_RN_2_RD_5_0.png","C_Dist_100_LN_9_LD_15_RN_8_RD_16_0.png"],["C_Dist_100_LN_1_LD_2_RN_18_RD_30_1.png","C_Dist_100_LN_1_LD_2_RN_3_RD_5_1.png","C_Dist_100_LN_12_LD_30_RN_13_RD_26_1.png","C_Dist_100_LN_2_LD_5_RN_11_RD_22_1.png","C_Dist_100_LN_2_LD_5_RN_6_RD_12_1.png","C_Dist_100_LN_3_LD_20_RN_4_RD_16_1.png","C_Dist_100_LN_4_LD_10_RN_15_RD_30_1.png","C_Dist_100_LN_4_LD_8_RN_6_RD_10_1.png","C_Dist_100_LN_6_LD_12_RN_15_RD_25_1.png","C_Dist_100_LN_7_LD_14_RN_15_RD_25_1.png","C_Dist_100_LN_7_LD_14_RN_9_RD_15_1.png"]],"dist100_I":[["I_Dist_100_LN_1_LD_2_RN_8_RD_20_0.png","I_Dist_100_LN_2_LD_4_RN_6_RD_15_0.png","I_Dist_100_LN_2_LD_4_RN_8_RD_20_0.png","I_Dist_100_LN_3_LD_5_RN_11_RD_22_0.png","I_Dist_100_LN_3_LD_5_RN_8_RD_16_0.png","I_Dist_100_LN_3_LD_6_RN_4_RD_10_0.png","I_Dist_100_LN_3_LD_9_RN_7_RD_30_0.png","I_Dist_100_LN_4_LD_8_RN_8_RD_20_0.png","I_Dist_100_LN_6_LD_10_RN_11_RD_22_0.png","I_Dist_100_LN_6_LD_10_RN_13_RD_26_0.png","I_Dist_100_LN_6_LD_10_RN_7_RD_14_0.png","I_Dist_100_LN_9_LD_10_RN_20_RD_25_0.png","I_Dist_100_LN_9_LD_15_RN_13_RD_26_0.png","I_Dist_100_LN_9_LD_15_RN_14_RD_28_0.png"],["I_Dist_100_LN_10_LD_25_RN_8_RD_16_1.png","I_Dist_100_LN_10_LD_25_RN_9_RD_18_1.png","I_Dist_100_LN_11_LD_22_RN_9_RD_15_1.png","I_Dist_100_LN_12_LD_24_RN_9_RD_15_1.png","I_Dist_100_LN_12_LD_30_RN_2_RD_4_1.png","I_Dist_100_LN_13_LD_26_RN_12_RD_20_1.png","I_Dist_100_LN_13_LD_26_RN_6_RD_10_1.png","I_Dist_100_LN_17_LD_30_RN_10_RD_15_1.png","I_Dist_100_LN_6_LD_12_RN_3_RD_5_1.png","I_Dist_100_LN_8_LD_16_RN_6_RD_10_1.png","I_Dist_100_LN_8_LD_20_RN_1_RD_2_1.png","I_Dist_100_LN_9_LD_18_RN_6_RD_10_1.png"]],"dist100_S":[["E_Dist_100_LN_2_LD_12_RN_2_RD_30_0.png","E_Dist_100_LN_6_LD_10_RN_6_RD_12_0.png"],["E_Dist_100_LN_6_LD_12_RN_6_RD_10_1.png"]],"dist200_C":[["C_Dist_200_LN_11_LD_22_RN_3_RD_10_0.png","C_Dist_200_LN_12_LD_15_RN_6_RD_10_0.png","C_Dist_200_LN_12_LD_20_RN_6_RD_15_0.png","C_Dist_200_LN_14_LD_28_RN_6_RD_20_0.png","C_Dist_200_LN_15_LD_25_RN_4_RD_10_0.png","C_Dist_200_LN_16_LD_20_RN_12_RD_20_0.png","C_Dist_200_LN_16_LD_30_RN_9_RD_27_0.png","C_Dist_200_LN_20_LD_25_RN_9_RD_15_0.png","C_Dist_200_LN_21_LD_30_RN_2_RD_4_0.png","C_Dist_200_LN_4_LD_10_RN_3_RD_15_0.png","C_Dist_200_LN_4_LD_8_RN_3_RD_10_0.png","C_Dist_200_LN_6_LD_15_RN_3_RD_15_0.png","C_Dist_200_LN_7_LD_21_RN_2_RD_15_0.png","C_Dist_200_LN_8_LD_15_RN_2_RD_6_0.png","C_Dist_200_LN_8_LD_15_RN_3_RD_9_0.png","C_Dist_200_LN_8_LD_15_RN_7_RD_21_0.png","C_Dist_200_LN_9_LD_20_RN_4_RD_16_0.png"],["C_Dist_200_LN_1_LD_2_RN_21_RD_30_1.png","C_Dist_200_LN_13_LD_26_RN_14_RD_20_1.png","C_Dist_200_LN_3_LD_10_RN_11_RD_22_1.png","C_Dist_200_LN_3_LD_10_RN_14_RD_28_1.png","C_Dist_200_LN_3_LD_10_RN_7_RD_14_1.png","C_Dist_200_LN_3_LD_12_RN_9_RD_20_1.png","C_Dist_200_LN_3_LD_6_RN_14_RD_20_1.png","C_Dist_200_LN_5_LD_10_RN_14_RD_20_1.png","C_Dist_200_LN_6_LD_12_RN_7_RD_10_1.png","C_Dist_200_LN_6_LD_20_RN_11_RD_22_1.png","C_Dist_200_LN_7_LD_15_RN_18_RD_27_1.png","C_Dist_200_LN_9_LD_30_RN_13_RD_26_1.png"]],"dist200_I":[["I_Dist_200_LN_1_LD_2_RN_3_RD_10_0.png","I_Dist_200_LN_1_LD_3_RN_2_RD_15_0.png","I_Dist_200_LN_3_LD_4_RN_11_RD_20_0.png","I_Dist_200_LN_4_LD_5_RN_6_RD_10_0.png","I_Dist_200_LN_4_LD_6_RN_14_RD_30_0.png","I_Dist_200_LN_7_LD_10_RN_12_RD_24_0.png","I_Dist_200_LN_7_LD_10_RN_14_RD_28_0.png","I_Dist_200_LN_7_LD_10_RN_8_RD_16_0.png"],["I_Dist_200_LN_11_LD_20_RN_3_RD_4_1.png","I_Dist_200_LN_14_LD_30_RN_12_RD_18_1.png","I_Dist_200_LN_14_LD_30_RN_6_RD_9_1.png","I_Dist_200_LN_3_LD_10_RN_1_RD_2_1.png","I_Dist_200_LN_4_LD_30_RN_1_RD_3_1.png","I_Dist_200_LN_6_LD_20_RN_3_RD_6_1.png","I_Dist_200_LN_7_LD_15_RN_4_RD_6_1.png","I_Dist_200_LN_7_LD_15_RN_6_RD_9_1.png","I_Dist_200_LN_9_LD_15_RN_8_RD_10_1.png"]],"dist200_S":[["E_Dist_200_LN_3_LD_6_RN_3_RD_10_0.png"],["E_Dist_200_LN_3_LD_10_RN_3_RD_6_1.png"]],"dist300_C":[["C_Dist_300_LN_11_LD_22_RN_1_RD_5_0.png","C_Dist_300_LN_11_LD_22_RN_2_RD_10_0.png","C_Dist_300_LN_11_LD_22_RN_4_RD_20_0.png","C_Dist_300_LN_12_LD_24_RN_2_RD_10_0.png","C_Dist_300_LN_18_LD_20_RN_9_RD_15_0.png","C_Dist_300_LN_20_LD_25_RN_13_RD_26_0.png","C_Dist_300_LN_20_LD_25_RN_14_RD_28_0.png","C_Dist_300_LN_20_LD_25_RN_5_RD_10_0.png","C_Dist_300_LN_20_LD_25_RN_8_RD_16_0.png","C_Dist_300_LN_20_LD_25_RN_9_RD_18_0.png","C_Dist_300_LN_24_LD_30_RN_2_RD_4_0.png","C_Dist_300_LN_24_LD_30_RN_8_RD_16_0.png","C_Dist_300_LN_3_LD_6_RN_2_RD_10_0.png","C_Dist_300_LN_4_LD_10_RN_1_RD_10_0.png","C_Dist_300_LN_4_LD_5_RN_2_RD_4_0.png","C_Dist_300_LN_8_LD_16_RN_1_RD_5_0.png","C_Dist_300_LN_9_LD_10_RN_3_RD_5_0.png"],["C_Dist_300_LN_1_LD_20_RN_7_RD_20_1.png","C_Dist_300_LN_1_LD_3_RN_19_RD_30_1.png","C_Dist_300_LN_1_LD_30_RN_8_RD_24_1.png","C_Dist_300_LN_1_LD_5_RN_11_RD_22_1.png","C_Dist_300_LN_1_LD_5_RN_3_RD_6_1.png","C_Dist_300_LN_1_LD_5_RN_6_RD_12_1.png","C_Dist_300_LN_2_LD_10_RN_12_RD_24_1.png","C_Dist_300_LN_2_LD_20_RN_10_RD_25_1.png","C_Dist_300_LN_3_LD_12_RN_11_RD_20_1.png","C_Dist_300_LN_3_LD_6_RN_4_RD_5_1.png","C_Dist_300_LN_4_LD_20_RN_13_RD_26_1.png","C_Dist_300_LN_5_LD_25_RN_6_RD_12_1.png","C_Dist_300_LN_5_LD_25_RN_7_RD_14_1.png","C_Dist_300_LN_7_LD_14_RN_20_RD_25_1.png","C_Dist_300_LN_8_LD_15_RN_10_RD_12_1.png"]],"dist300_I":[["I_Dist_300_LN_1_LD_2_RN_2_RD_10_0.png","I_Dist_300_LN_1_LD_2_RN_3_RD_15_0.png","I_Dist_300_LN_2_LD_4_RN_6_RD_30_0.png","I_Dist_300_LN_3_LD_6_RN_4_RD_20_0.png","I_Dist_300_LN_4_LD_5_RN_6_RD_12_0.png","I_Dist_300_LN_4_LD_5_RN_8_RD_16_0.png","I_Dist_300_LN_7_LD_10_RN_8_RD_20_0.png","I_Dist_300_LN_8_LD_10_RN_14_RD_28_0.png","I_Dist_300_LN_8_LD_10_RN_9_RD_18_0.png"],["I_Dist_300_LN_13_LD_26_RN_12_RD_15_1.png","I_Dist_300_LN_4_LD_20_RN_2_RD_4_1.png"]],"dist300_S":[["E_Dist_300_LN_9_LD_12_RN_9_RD_20_0.png"],["E_Dist_300_LN_18_LD_30_RN_18_RD_20_1.png","E_Dist_300_LN_3_LD_10_RN_3_RD_5_1.png","E_Dist_300_LN_9_LD_20_RN_9_RD_12_1.png"]],"dist500_C":[["C_Dist_500_LN_10_LD_13_RN_7_RD_26_0.png","C_Dist_500_LN_10_LD_15_RN_4_RD_24_0.png","C_Dist_500_LN_12_LD_16_RN_3_RD_12_0.png","C_Dist_500_LN_12_LD_18_RN_4_RD_24_0.png","C_Dist_500_LN_15_LD_18_RN_5_RD_15_0.png","C_Dist_500_LN_15_LD_20_RN_1_RD_4_0.png","C_Dist_500_LN_18_LD_27_RN_1_RD_6_0.png","C_Dist_500_LN_20_LD_24_RN_1_RD_3_0.png","C_Dist_500_LN_20_LD_24_RN_3_RD_9_0.png","C_Dist_500_LN_20_LD_24_RN_7_RD_21_0.png","C_Dist_500_LN_20_LD_28_RN_3_RD_14_0.png","C_Dist_500_LN_21_LD_28_RN_6_RD_24_0.png","C_Dist_500_LN_22_LD_28_RN_2_RD_7_0.png","C_Dist_500_LN_25_LD_30_RN_9_RD_27_0.png","C_Dist_500_LN_4_LD_6_RN_1_RD_6_0.png","C_Dist_500_LN_5_LD_6_RN_2_RD_6_0.png","C_Dist_500_LN_6_LD_9_RN_1_RD_6_0.png","C_Dist_500_LN_7_LD_10_RN_1_RD_5_0.png","C_Dist_500_LN_8_LD_12_RN_1_RD_6_0.png","C_Dist_500_LN_8_LD_12_RN_4_RD_24_0.png"],["C_Dist_500_LN_1_LD_4_RN_12_RD_16_1.png","C_Dist_500_LN_1_LD_4_RN_9_RD_12_1.png","C_Dist_500_LN_1_LD_9_RN_11_RD_18_1.png","C_Dist_500_LN_10_LD_24_RN_22_RD_24_1.png","C_Dist_500_LN_2_LD_12_RN_10_RD_15_1.png","C_Dist_500_LN_2_LD_12_RN_12_RD_18_1.png","C_Dist_500_LN_2_LD_12_RN_4_RD_6_1.png","C_Dist_500_LN_2_LD_24_RN_7_RD_12_1.png","C_Dist_500_LN_2_LD_5_RN_18_RD_20_1.png","C_Dist_500_LN_2_LD_5_RN_9_RD_10_1.png","C_Dist_500_LN_2_LD_8_RN_12_RD_16_1.png","C_Dist_500_LN_2_LD_8_RN_21_RD_28_1.png","C_Dist_500_LN_3_LD_10_RN_4_RD_5_1.png","C_Dist_500_LN_3_LD_12_RN_15_RD_20_1.png","C_Dist_500_LN_3_LD_30_RN_6_RD_10_1.png","C_Dist_500_LN_3_LD_8_RN_14_RD_16_1.png","C_Dist_500_LN_4_LD_16_RN_15_RD_20_1.png","C_Dist_500_LN_4_LD_24_RN_12_RD_18_1.png","C_Dist_500_LN_5_LD_14_RN_6_RD_7_1.png","C_Dist_500_LN_7_LD_21_RN_20_RD_24_1.png","C_Dist_500_LN_7_LD_28_RN_12_RD_16_1.png","C_Dist_500_LN_7_LD_28_RN_9_RD_12_1.png","C_Dist_500_LN_9_LD_27_RN_20_RD_24_1.png"]],"dist500_I":[["I_Dist_500_LN_2_LD_3_RN_4_RD_24_0.png","I_Dist_500_LN_5_LD_6_RN_6_RD_18_0.png","I_Dist_500_LN_7_LD_8_RN_9_RD_24_0.png"],["I_Dist_500_LN_7_LD_21_RN_5_RD_6_1.png"]],"dist500_S":[["E_Dist_500_LN_6_LD_8_RN_6_RD_24_0.png"],["E_Dist_500_LN_2_LD_12_RN_2_RD_3_1.png","E_Dist_500_LN_6_LD_24_RN_6_RD_8_1.png"]]}},{"start_time":1552068566345,"click_time":1552068567954,"finger_time":1552068567235,"fix_duration":689.0377298322062,"trial":1,"RT":890,"MT":719,"sideResp":1,"stimulus":[],"xmouse":[811,811,811,811,811,811,811,811,811,811,811,811,811,811,811,811,811,811,811,811,811,811,811,811,811,811,811,811,811,811,811,811,811,811,811,811,811,811,811,811,810,810,810,808,801,780,770,736,694,673,654,641,631,623,613,612,612,612,612,612,612,612,611,588,572,559,558,550,549,548,548,548,548,548,548,548,548,548,541,532,524],"ymouse":[528,528,528,528,528,528,528,528,528,528,528,528,528,528,528,528,528,528,528,528,528,528,528,528,528,528,528,528,528,528,528,528,528,528,528,528,528,528,528,528,526,526,526,497,450,369,339,245,150,106,72,52,35,21,6,5,5,5,5,5,5,5,5,27,39,47,48,52,53,53,53,53,53,53,53,53,53,53,51,54,56],"timestamp_mouse":[9,29,50,70,89,110,128,149,169,189,210,230,249,268,290,309,330,349,369,388,408,429,450,470,490,509,530,550,570,589,609,628,648,670,690,709,730,749,769,790,809,830,850,869,890,908,930,949,970,990,1008,1029,1048,1069,1088,1110,1129,1149,1170,1189,1209,1229,1248,1270,1289,1310,1329,1350,1369,1388,1410,1430,1449,1469,1489,1508,1528,1549,1570,1590,1608],"xSR":741.5,"ySR":469.95,"xT1":424.9,"yT1":0,"xT2":1058.1,"yT2":0,"toosoon":0,"cond_shown":"Congruent","ratio_trial":200,"L_num":21,"L_den":30,"R_num":2,"R_den":4,"correct_side":1,"subjID":"AnaMariaMoreno16","gender":"1","school":"4","age":"9"},{"start_time":1552068569748,"click_time":1552068570995,"finger_time":1552068570354,"fix_duration":332.76475604497557,"trial":2,"RT":606,"MT":641,"sideResp":1,"stimulus":[],"xmouse":[794,794,794,794,794,794,794,794,794,794,794,794,794,794,794,794,794,794,794,794,794,794,794,794,794,794,794,792,788,763,748,733,722,716,705,698,693,684,670,662,656,652,648,640,633,632,628,611,598,573,565,561,556,553,550,549,548,548,547,543,539,530,523],"ymouse":[508,508,508,508,508,508,508,508,508,508,508,508,508,508,508,508,508,508,508,508,508,508,508,508,508,508,508,507,504,481,469,456,446,435,410,392,371,340,302,282,269,259,252,242,229,227,220,193,171,138,127,122,117,114,110,109,108,108,107,106,104,100,98],"timestamp_mouse":[9,26,45,67,87,107,125,147,167,187,206,225,245,266,287,305,325,347,366,387,406,425,447,467,486,507,526,547,565,585,606,627,646,666,687,706,727,746,767,787,807,827,846,867,887,906,925,946,966,986,1006,1026,1047,1066,1087,1106,1126,1147,1166,1185,1207,1225,1247],"xSR":741.5,"ySR":469.95,"xT1":424.9,"yT1":0,"xT2":1058.1,"yT2":0,"toosoon":0,"cond_shown":"Incongruent","ratio_trial":100,"L_num":9,"L_den":15,"R_num":13,"R_den":26,"correct_side":1,"subjID":"AnaMariaMoreno16","gender":"1","school":"4","age":"9"},{"start_time":1552068573480,"click_time":1552068573974,"finger_time":1552068573914,"fix_duration":1365.849967313654,"trial":3,"RT":434,"MT":60,"sideResp":2,"stimulus":[],"xmouse":[814,814,814,814,814,814,814,814,814,814,814,814,814,814,814,814,814,814,814,816,834,906,958,1019,1082],"ymouse":[542,542,542,542,542,542,542,542,542,542,542,542,542,542,542,542,542,542,542,540,487,352,262,155,43],"timestamp_mouse":[13,35,55,74,94,115,135,154,173,194,215,235,254,275,293,315,334,354,374,394,414,434,454,475,493],"xSR":741.5,"ySR":469.95,"xT1":424.9,"yT1":0,"xT2":1058.1,"yT2":0,"toosoon":0,"cond_shown":"Incongruent","ratio_trial":100,"L_num":10,"L_den":25,"R_num":9,"R_den":18,"correct_side":2,"subjID":"AnaMariaMoreno16","gender":"1","school":"4","age":"9"},{"start_time":1552068576315,"click_time":1552068577454,"finger_time":1552068576714,"fix_duration":839.6607702236797,"trial":4,"RT":399,"MT":740,"sideResp":2,"stimulus":[],"xmouse":[784,784,784,784,784,784,784,784,784,784,784,784,784,784,784,784,784,784,787,825,858,891,918,946,972,999,1006,1008,1012,1015,1019,1023,1026,1026,1027,1027,1027,1027,1027,1027,1027,1027,1027,1028,1036,1038,1041,1042,1043,1045,1046,1048,1049,1050,1051,1056,1059],"ymouse":[483,483,483,483,483,483,483,483,483,483,483,483,483,483,483,483,483,483,482,424,385,340,290,230,185,136,122,113,102,96,84,78,73,70,69,69,69,69,69,69,69,69,69,68,60,59,58,58,58,58,58,58,59,59,59,59,59],"timestamp_mouse":[19,39,59,80,99,120,140,160,178,200,220,239,260,278,300,319,340,360,380,399,419,438,459,480,500,518,540,558,579,598,618,640,659,679,698,719,740,759,779,800,819,839,859,879,899,919,940,958,979,1000,1018,1038,1059,1080,1100,1119,1139],"xSR":741.5,"ySR":469.95,"xT1":424.9,"yT1":0,"xT2":1058.1,"yT2":0,"toosoon":0,"cond_shown":"Congruent","ratio_trial":100,"L_num":2,"L_den":5,"R_num":11,"R_den":22,"correct_side":2,"subjID":"AnaMariaMoreno16","gender":"1","school":"4","age":"9"},{"start_time":1552068580003,"click_time":1552068580794,"finger_time":1552068580514,"fix_duration":1347.7600517154467,"trial":5,"RT":511,"MT":280,"sideResp":2,"stimulus":[],"xmouse":[808,808,808,808,808,808,808,808,808,808,808,808,808,808,808,808,808,808,808,807,806,801,796,789,781,774,771,770,769,769,767,767,771,786,805,889,936,988,1032,1087],"ymouse":[526,526,526,526,526,526,526,526,526,526,526,526,526,526,526,526,526,526,526,526,521,511,502,492,480,466,462,458,456,455,446,435,420,384,349,246,192,143,98,17],"timestamp_mouse":[10,31,51,72,91,112,131,151,171,190,211,231,251,271,291,310,331,352,372,390,411,432,451,470,491,511,531,552,572,591,611,631,652,671,691,711,730,750,772,791],"xSR":741.5,"ySR":469.95,"xT1":424.9,"yT1":0,"xT2":1058.1,"yT2":0,"toosoon":0,"cond_shown":"Incongruent","ratio_trial":300,"L_num":13,"L_den":26,"R_num":12,"R_den":15,"correct_side":2,"subjID":"AnaMariaMoreno16","gender":"1","school":"4","age":"9"},{"start_time":1552068584978,"click_time":1552068585835,"finger_time":1552068585435,"fix_duration":483.6773486322029,"trial":6,"RT":457,"MT":400,"sideResp":2,"stimulus":[],"xmouse":[814,814,814,814,814,814,814,814,814,814,814,814,814,814,814,814,814,814,814,814,814,814,843,872,900,931,948,976,990,1002,1008,1008,1008,1008,1008,1008,1008,1008,1008,1008,1008,1008,1063],"ymouse":[511,511,511,511,511,511,511,511,511,511,511,511,511,511,511,511,511,511,511,511,511,509,411,343,276,180,130,61,33,8,0,0,0,0,0,0,0,0,0,0,0,0,16],"timestamp_mouse":[16,36,57,77,97,115,136,157,175,197,216,235,256,277,295,317,336,357,375,396,416,436,457,476,495,516,535,555,576,596,615,637,657,676,696,717,736,756,775,796,816,836,857],"xSR":741.5,"ySR":469.95,"xT1":424.9,"yT1":0,"xT2":1058.1,"yT2":0,"toosoon":0,"cond_shown":"Congruent","ratio_trial":200,"L_num":5,"L_den":10,"R_num":14,"R_den":20,"correct_side":2,"subjID":"AnaMariaMoreno16","gender":"1","school":"4","age":"9"},{"start_time":1552068588622,"click_time":1552068589334,"finger_time":1552068589254,"fix_duration":1428.6596533562908,"trial":7,"RT":632,"MT":80,"sideResp":2,"stimulus":[],"xmouse":[803,803,803,803,803,803,803,803,803,803,803,803,803,803,803,803,803,803,803,803,803,803,803,803,803,803,803,803,803,803,818,851,912,957,1008,1081],"ymouse":[531,531,531,531,531,531,531,531,531,531,531,531,531,531,531,531,531,531,531,531,531,531,531,531,531,531,531,531,531,531,479,418,333,265,194,74],"timestamp_mouse":[14,32,52,71,93,113,132,153,171,193,213,232,252,273,293,312,333,352,371,392,412,433,453,472,491,511,533,553,572,592,612,632,652,672,692,712],"xSR":741.5,"ySR":469.95,"xT1":424.9,"yT1":0,"xT2":1058.1,"yT2":0,"toosoon":0,"cond_shown":"Congruent","ratio_trial":100,"L_num":2,"L_den":5,"R_num":11,"R_den":22,"correct_side":2,"subjID":"AnaMariaMoreno16","gender":"1","school":"4","age":"9"},{"start_time":1552068596881,"click_time":1552068597795,"finger_time":1552068597254,"fix_duration":824.0878999133645,"trial":8,"RT":373,"MT":541,"sideResp":2,"stimulus":[],"xmouse":[805,805,805,805,805,805,805,805,805,805,805,805,805,805,805,805,808,814,824,830,850,865,883,886,886,887,887,888,891,899,906,926,937,943,945,945,945,945,948,957,972,1004,1024,1041,1057,1066],"ymouse":[522,522,522,522,522,522,522,522,522,522,522,522,522,522,522,522,514,492,458,442,395,365,329,322,321,320,319,306,283,238,188,108,85,77,75,75,75,75,73,66,53,31,19,10,5,5],"timestamp_mouse":[13,33,53,74,92,112,134,153,173,194,213,232,254,274,293,313,334,354,373,393,413,434,453,474,493,512,534,553,574,593,613,634,652,672,693,714,734,753,774,793,813,834,854,872,893,914],"xSR":741.5,"ySR":469.95,"xT1":424.9,"yT1":0,"xT2":1058.1,"yT2":0,"toosoon":0,"cond_shown":"Incongruent","ratio_trial":100,"L_num":10,"L_den":25,"R_num":9,"R_den":18,"correct_side":2,"subjID":"AnaMariaMoreno16","gender":"1","school":"4","age":"9"},{"start_time":1552068599994,"click_time":1552068600814,"finger_time":1552068600415,"fix_duration":1179.4482576391154,"trial":9,"RT":421,"MT":399,"sideResp":2,"stimulus":[],"xmouse":[775,775,775,775,775,775,775,775,775,775,775,775,775,775,775,775,775,775,775,778,785,819,841,859,878,903,938,952,968,988,1008,1025,1047,1057,1061,1069,1072,1074,1074,1076,1078,1083],"ymouse":[502,502,502,502,502,502,502,502,502,502,502,502,502,502,502,502,502,502,502,496,486,443,423,410,397,379,346,326,303,280,257,236,198,174,167,150,145,138,132,123,109,70],"timestamp_mouse":[1,20,40,61,80,101,121,140,160,180,202,221,240,261,282,302,320,341,360,380,400,421,440,461,480,501,521,540,560,580,601,621,640,662,681,700,721,740,761,781,802,820],"xSR":741.5,"ySR":469.95,"xT1":424.9,"yT1":0,"xT2":1058.1,"yT2":0,"toosoon":0,"cond_shown":"Incongruent","ratio_trial":300,"L_num":8,"L_den":10,"R_num":9,"R_den":18,"correct_side":1,"subjID":"AnaMariaMoreno16","gender":"1","school":"4","age":"9"},{"start_time":1552068602314,"click_time":1552068603255,"finger_time":1552068602794,"fix_duration":359.51604929861645,"trial":10,"RT":480,"MT":461,"sideResp":1,"stimulus":[],"xmouse":[775,775,775,775,775,775,775,775,775,775,775,775,775,775,775,775,775,775,775,773,762,750,747,743,738,734,720,702,692,651,620,530,507,485,469,448,441,439,439,439,439,439,439,439,440,450,453,457],"ymouse":[547,547,547,547,547,547,547,547,547,547,547,547,547,547,547,547,547,547,547,541,524,504,497,491,483,474,442,409,394,345,314,244,226,210,197,177,168,165,164,164,164,164,161,157,145,108,102,95],"timestamp_mouse":[1,20,40,60,81,101,122,141,160,181,200,220,241,262,280,300,321,340,362,380,400,421,440,461,480,501,520,540,560,580,601,621,641,661,681,701,720,740,761,782,802,820,840,861,880,901,920,941],"xSR":741.5,"ySR":469.95,"xT1":424.9,"yT1":0,"xT2":1058.1,"yT2":0,"toosoon":0,"cond_shown":"Incongruent","ratio_trial":200,"L_num":7,"L_den":10,"R_num":8,"R_den":16,"correct_side":1,"subjID":"AnaMariaMoreno16","gender":"1","school":"4","age":"9"},{"start_time":1552068605447,"click_time":1552068606495,"finger_time":1552068606014,"fix_duration":1072.2764006830764,"trial":11,"RT":567,"MT":481,"sideResp":2,"stimulus":[],"xmouse":[810,810,810,810,810,810,810,810,810,810,810,810,810,810,810,810,810,810,810,810,810,810,810,810,810,810,814,831,977,1074,1164,1275,1324,1389,1413,1426,1433,1433,1433,1433,1433,1433,1433,1433,1433,1433,1433,1433,1433,1433,1433,1183,1154],"ymouse":[524,524,524,524,524,524,524,524,524,524,524,524,524,524,524,524,524,524,524,524,524,524,524,524,524,524,522,512,428,366,304,214,169,87,54,24,9,9,9,9,9,9,9,9,9,9,9,9,9,9,9,2,19],"timestamp_mouse":[7,28,47,67,87,109,127,147,169,189,208,229,248,268,288,307,328,348,368,387,407,429,449,468,487,507,529,548,567,587,607,627,647,668,687,708,729,748,768,787,807,828,847,868,887,908,927,947,969,987,1009,1028,1048],"xSR":741.5,"ySR":469.95,"xT1":424.9,"yT1":0,"xT2":1058.1,"yT2":0,"toosoon":0,"cond_shown":"Congruent","ratio_trial":100,"L_num":4,"L_den":8,"R_num":6,"R_den":10,"correct_side":2,"subjID":"AnaMariaMoreno16","gender":"1","school":"4","age":"9"},{"start_time":1552068609239,"click_time":1552068610115,"finger_time":1552068609654,"fix_duration":1404.9341792354155,"trial":12,"RT":415,"MT":461,"sideResp":2,"stimulus":[],"xmouse":[810,810,810,810,810,810,810,810,810,810,810,810,810,810,810,810,810,810,810,817,837,869,894,956,984,1007,1022,1033,1041,1041,1041,1037,1034,1033,1031,1031,1031,1031,1031,1031,1032,1036,1045,1061],"ymouse":[501,501,501,501,501,501,501,501,501,501,501,501,501,501,501,501,501,501,501,475,439,388,347,263,231,204,183,167,146,137,126,105,91,80,71,71,71,71,71,71,68,56,43,19],"timestamp_mouse":[15,35,55,77,95,116,135,156,175,197,216,236,256,275,295,316,336,355,376,395,415,436,455,476,495,516,536,556,575,595,616,635,655,676,695,715,736,756,776,796,815,836,856,876],"xSR":741.5,"ySR":469.95,"xT1":424.9,"yT1":0,"xT2":1058.1,"yT2":0,"toosoon":0,"cond_shown":"Congruent","ratio_trial":200,"L_num":16,"L_den":30,"R_num":9,"R_den":27,"correct_side":1,"subjID":"AnaMariaMoreno16","gender":"1","school":"4","age":"9"},{"start_time":1552068612067,"click_time":1552068612874,"finger_time":1552068612616,"fix_duration":852.5189974292165,"trial":13,"RT":549,"MT":258,"sideResp":2,"stimulus":[],"xmouse":[777,777,777,777,777,777,777,777,777,777,777,777,777,777,777,777,777,777,777,777,777,777,777,777,777,777,778,785,815,842,893,926,946,975,983,987,992,1001,1039,1052,1074],"ymouse":[486,486,486,486,486,486,486,486,486,486,486,486,486,486,486,486,486,486,486,486,486,486,486,486,486,486,482,462,398,348,279,243,223,201,194,190,182,165,79,53,14],"timestamp_mouse":[8,28,48,68,89,109,127,147,167,188,209,227,249,268,288,308,327,347,369,387,407,427,448,467,488,508,529,549,569,589,608,628,648,668,687,707,727,748,768,787,807],"xSR":741.5,"ySR":469.95,"xT1":424.9,"yT1":0,"xT2":1058.1,"yT2":0,"toosoon":0,"cond_shown":"Incongruent","ratio_trial":200,"L_num":3,"L_den":10,"R_num":1,"R_den":2,"correct_side":2,"subjID":"AnaMariaMoreno16","gender":"1","school":"4","age":"9"},{"start_time":1552068628142,"click_time":1552068629034,"finger_time":1552068628676,"fix_duration":1325.8046244519305,"trial":14,"RT":534,"MT":358,"sideResp":2,"stimulus":[],"xmouse":[772,775,777,779,779,779,779,779,779,779,779,779,779,779,779,779,779,779,779,779,779,779,780,786,817,833,850,872,898,913,928,941,954,968,1007,1033,1061,1093,1116,1121,1124,1125,1127,1128,1135],"ymouse":[507,509,510,511,511,511,511,511,511,511,511,511,511,511,511,511,511,511,511,511,511,511,511,510,486,476,463,446,422,407,392,379,366,348,300,271,236,192,151,139,132,126,121,114,95],"timestamp_mouse":[13,33,53,73,92,112,133,153,172,192,212,234,253,273,292,312,333,353,372,393,413,432,452,472,493,512,534,552,572,593,612,633,652,672,693,714,732,752,773,793,813,832,852,872,892],"xSR":741.5,"ySR":469.95,"xT1":424.9,"yT1":0,"xT2":1058.1,"yT2":0,"toosoon":0,"cond_shown":"Incongruent","ratio_trial":100,"L_num":2,"L_den":4,"R_num":6,"R_den":15,"correct_side":1,"subjID":"AnaMariaMoreno16","gender":"1","school":"4","age":"9"},{"start_time":1552068630696,"click_time":1552068631715,"finger_time":1552068631195,"fix_duration":261.6906868936304,"trial":15,"RT":499,"MT":520,"sideResp":2,"stimulus":[],"xmouse":[778,778,778,778,778,778,778,778,778,778,778,778,778,778,778,778,778,778,778,778,778,778,782,794,821,869,896,930,954,988,1020,1031,1042,1052,1065,1094,1106,1119,1134,1143,1152,1154,1157,1157,1157,1157,1157,1157,1157,1157,1157],"ymouse":[514,514,514,514,514,514,514,514,514,514,514,514,514,514,514,514,514,514,514,514,514,514,513,497,461,418,395,368,347,319,295,285,272,261,248,216,202,184,161,148,129,123,117,112,109,106,105,105,105,105,97],"timestamp_mouse":[24,39,58,78,98,119,138,159,178,199,220,238,259,278,299,318,338,360,378,399,419,438,459,478,499,518,538,558,579,598,619,639,659,678,700,719,738,758,779,800,819,839,860,879,898,918,939,958,980,999,1019],"xSR":741.5,"ySR":469.95,"xT1":424.9,"yT1":0,"xT2":1058.1,"yT2":0,"toosoon":0,"cond_shown":"Congruent","ratio_trial":100,"L_num":7,"L_den":14,"R_num":9,"R_den":15,"correct_side":2,"subjID":"AnaMariaMoreno16","gender":"1","school":"4","age":"9"},{"start_time":1552068633661,"click_time":1552068635015,"finger_time":1552068634195,"fix_duration":765.7008471075803,"trial":16,"RT":534,"MT":820,"sideResp":2,"stimulus":[],"xmouse":[768,768,768,768,768,768,768,768,768,768,768,768,768,768,768,768,768,768,768,768,768,768,768,768,770,791,885,1168,1347,1517,1517,1517,1517,1517,1517,1517,1517,1517,1517,1517,1517,1517,1517,1517,1517,1517,1517,1517,1517,1517,1517,1517,1517,1281,1264,1249,1239,1232,1227,1225,1224,1217,1211,1192,1185,1175,1167,1156],"ymouse":[534,534,534,534,534,534,534,534,534,534,534,534,534,534,534,534,534,534,534,534,534,534,534,534,531,504,413,254,164,83,83,83,83,83,83,83,83,83,83,83,83,83,83,83,83,83,83,83,83,83,83,83,83,1,1,1,1,1,1,2,3,9,17,38,46,54,59,64],"timestamp_mouse":[14,34,54,74,94,115,133,154,174,194,213,235,254,274,295,314,333,353,374,394,415,433,454,474,493,514,534,554,574,595,615,634,654,674,694,714,734,754,775,795,814,834,855,875,893,913,935,954,973,993,1014,1033,1055,1074,1094,1114,1133,1154,1175,1194,1215,1235,1254,1275,1294,1313,1333,1354],"xSR":741.5,"ySR":469.95,"xT1":424.9,"yT1":0,"xT2":1058.1,"yT2":0,"toosoon":0,"cond_shown":"Congruent","ratio_trial":300,"L_num":1,"L_den":5,"R_num":11,"R_den":22,"correct_side":2,"subjID":"AnaMariaMoreno16","gender":"1","school":"4","age":"9"},{"start_time":1552068637997,"click_time":1552068638876,"finger_time":1552068638435,"fix_duration":721.5294240979443,"trial":17,"RT":438,"MT":441,"sideResp":2,"stimulus":[],"xmouse":[803,803,803,803,803,803,803,803,803,803,803,803,803,803,803,803,803,803,803,805,817,868,883,910,948,994,1012,1026,1037,1042,1043,1042,1035,1029,1026,1026,1026,1025,1025,1025,1026,1040,1048,1061],"ymouse":[515,515,515,515,515,515,515,515,515,515,515,515,515,515,515,515,515,515,515,511,501,461,447,415,355,269,231,206,188,176,172,158,141,115,102,87,81,78,74,70,64,45,32,10],"timestamp_mouse":[17,37,57,78,98,117,139,158,177,198,217,239,258,279,298,317,338,358,378,399,417,438,457,478,498,518,537,557,577,598,618,638,657,677,697,718,738,758,778,798,817,837,857,878],"xSR":741.5,"ySR":469.95,"xT1":424.9,"yT1":0,"xT2":1058.1,"yT2":0,"toosoon":0,"cond_shown":"Incongruent","ratio_trial":100,"L_num":9,"L_den":15,"R_num":13,"R_den":26,"correct_side":1,"subjID":"AnaMariaMoreno16","gender":"1","school":"4","age":"9"},{"start_time":1552068641545,"click_time":1552068642796,"finger_time":1552068642294,"fix_duration":250,"trial":18,"RT":749,"MT":502,"sideResp":2,"stimulus":[],"xmouse":[789,790,790,790,790,790,790,790,790,790,790,790,790,790,790,790,790,790,790,790,790,790,790,790,790,790,790,790,790,790,790,790,790,790,790,790,804,836,903,949,989,1012,1025,1037,1040,1044,1048,1055,1055,1055,1055,1055,1055,1055,1055,1055,1055,1055,1055,1055,1055,1077,1077],"ymouse":[499,500,501,501,501,501,501,501,501,501,501,501,501,501,501,501,501,501,501,501,501,501,501,501,501,501,501,501,501,501,501,501,501,501,501,499,474,407,312,239,172,128,93,50,36,26,16,2,2,2,2,2,2,2,2,2,2,2,2,2,2,0,14],"timestamp_mouse":[9,29,49,70,90,109,130,150,171,191,210,231,249,271,291,311,330,350,369,389,411,430,451,470,490,511,529,550,569,589,611,630,650,670,689,711,730,749,769,789,809,829,850,870,889,910,930,950,969,990,1009,1029,1050,1071,1090,1110,1130,1150,1170,1189,1210,1230,1251],"xSR":741.5,"ySR":469.95,"xT1":424.9,"yT1":0,"xT2":1058.1,"yT2":0,"toosoon":0,"cond_shown":"Incongruent","ratio_trial":100,"L_num":12,"L_den":24,"R_num":9,"R_den":15,"correct_side":2,"subjID":"AnaMariaMoreno16","gender":"1","school":"4","age":"9"},{"start_time":1552068646819,"click_time":1552068647935,"finger_time":1552068647475,"fix_duration":883.3837232684034,"trial":19,"RT":656,"MT":460,"sideResp":2,"stimulus":[],"xmouse":[784,784,784,784,784,784,784,784,784,784,784,784,784,784,784,784,784,784,784,784,784,784,784,784,784,784,784,784,784,784,784,787,816,860,989,1065,1134,1166,1186,1200,1202,1202,1202,1202,1202,1202,1202,1202,1202,1201,1189,1177,1166,1148,1132,1127],"ymouse":[508,508,508,508,508,508,508,508,508,508,508,508,508,508,508,508,508,508,508,508,508,508,508,508,508,508,508,508,508,508,508,508,468,410,289,238,199,179,162,146,144,144,144,144,144,144,144,144,144,142,139,136,132,122,105,96],"timestamp_mouse":[20,36,55,77,95,116,135,156,175,195,215,235,255,275,295,316,336,355,377,396,415,437,456,476,495,515,535,555,575,595,615,635,656,675,696,717,736,756,776,796,815,836,857,876,897,915,937,955,977,996,1015,1035,1055,1076,1096,1116],"xSR":741.5,"ySR":469.95,"xT1":424.9,"yT1":0,"xT2":1058.1,"yT2":0,"toosoon":0,"cond_shown":"Incongruent","ratio_trial":200,"L_num":7,"L_den":15,"R_num":6,"R_den":9,"correct_side":2,"subjID":"AnaMariaMoreno16","gender":"1","school":"4","age":"9"},{"start_time":1552068650300,"click_time":1552068651234,"finger_time":1552068650775,"fix_duration":1104.974318104691,"trial":20,"RT":475,"MT":459,"sideResp":2,"stimulus":[],"xmouse":[809,809,809,809,809,809,809,809,809,809,809,809,809,809,809,809,809,809,809,809,811,819,832,843,858,889,902,912,924,928,931,936,940,944,951,967,975,983,989,995,1004,1010,1013,1019,1028,1053,1066],"ymouse":[543,543,543,543,543,543,543,543,543,543,543,543,543,543,543,543,543,543,543,543,543,529,506,487,464,423,407,394,377,370,364,347,334,317,294,245,222,206,193,178,156,144,134,118,100,57,39],"timestamp_mouse":[14,35,55,75,94,116,135,154,175,194,215,234,254,274,295,314,334,354,374,394,415,436,454,475,495,515,535,554,576,594,614,634,655,674,695,715,734,755,775,794,814,834,856,875,894,915,934],"xSR":741.5,"ySR":469.95,"xT1":424.9,"yT1":0,"xT2":1058.1,"yT2":0,"toosoon":0,"cond_shown":"Congruent","ratio_trial":300,"L_num":1,"L_den":20,"R_num":7,"R_den":20,"correct_side":2,"subjID":"AnaMariaMoreno16","gender":"1","school":"4","age":"9"},{"start_time":1552068653787,"click_time":1552068655075,"finger_time":1552068654394,"fix_duration":250,"trial":21,"RT":607,"MT":681,"sideResp":2,"stimulus":[],"xmouse":[783,783,783,783,784,785,787,786,786,786,786,786,786,786,786,786,786,786,786,786,786,786,786,786,786,786,787,793,801,810,825,840,864,876,901,915,945,965,982,996,1008,1017,1027,1029,1030,1032,1032,1032,1032,1032,1032,1032,1032,1032,1032,1032,1032,1032,1033,1033,1037,1040,1048,1056,1062],"ymouse":[548,548,548,548,548,548,531,515,502,495,494,494,494,494,494,494,494,494,494,494,494,494,494,494,494,494,494,488,479,471,458,449,435,427,403,383,337,309,284,263,241,221,190,178,163,137,120,81,67,58,57,57,57,57,57,57,57,57,57,57,59,60,64,67,68],"timestamp_mouse":[7,28,47,68,89,108,127,148,167,188,208,227,249,268,288,308,327,348,368,389,408,428,448,467,489,507,527,548,567,587,607,628,649,667,687,707,727,747,768,789,808,828,847,867,888,908,928,947,968,987,1007,1027,1048,1068,1088,1109,1128,1147,1168,1188,1208,1228,1247,1268,1288],"xSR":741.5,"ySR":469.95,"xT1":424.9,"yT1":0,"xT2":1058.1,"yT2":0,"toosoon":0,"cond_shown":"Congruent","ratio_trial":200,"L_num":16,"L_den":30,"R_num":9,"R_den":27,"correct_side":1,"subjID":"AnaMariaMoreno16","gender":"1","school":"4","age":"9"},{"start_time":1552068657965,"click_time":1552068659576,"finger_time":1552068659055,"fix_duration":1471.4763724102943,"trial":22,"RT":1090,"MT":521,"sideResp":2,"stimulus":[],"xmouse":[774,774,774,774,774,774,774,774,774,774,774,774,774,774,774,774,774,774,774,774,774,774,774,774,774,774,774,774,774,774,774,774,774,774,774,774,774,774,774,774,774,774,774,774,774,774,774,774,774,774,774,774,774,774,787,796,816,883,927,975,1016,1053,1053,1053,1053,1053,1053,1053,1053,1053,1053,1053,1053,1053,1053,1053,1053,1053,1053,1053,1154],"ymouse":[507,507,507,507,507,507,507,507,507,507,507,507,507,507,507,507,507,507,507,507,507,507,507,507,507,507,507,507,507,507,507,507,507,507,507,507,507,507,507,507,507,507,507,507,507,507,507,507,507,507,507,507,507,507,467,447,412,288,221,150,73,12,12,12,12,12,12,12,12,12,12,12,12,12,12,12,12,12,12,12,22],"timestamp_mouse":[9,29,50,70,90,111,131,149,170,191,210,229,251,269,289,310,331,350,370,389,410,429,450,469,490,511,531,550,570,589,610,631,650,669,689,711,729,750,771,790,809,830,850,871,890,910,930,950,971,990,1010,1029,1049,1070,1090,1109,1129,1150,1170,1190,1210,1230,1250,1270,1289,1310,1330,1350,1370,1389,1409,1429,1450,1471,1489,1510,1530,1550,1569,1589,1610],"xSR":741.5,"ySR":469.95,"xT1":424.9,"yT1":0,"xT2":1058.1,"yT2":0,"toosoon":0,"cond_shown":"Congruent","ratio_trial":200,"L_num":13,"L_den":26,"R_num":14,"R_den":20,"correct_side":2,"subjID":"AnaMariaMoreno16","gender":"1","school":"4","age":"9"},{"start_time":1552068661636,"click_time":1552068662956,"finger_time":1552068662836,"fix_duration":738.7575252689905,"trial":23,"RT":1200,"MT":120,"sideResp":2,"stimulus":[],"xmouse":[807,807,807,807,807,807,807,807,807,807,807,807,807,807,807,807,807,807,807,807,807,807,807,807,807,807,807,807,807,807,807,807,807,807,807,807,807,807,807,807,807,807,807,807,807,807,807,807,807,807,807,807,807,807,807,807,807,807,807,808,839,878,893,949,1014,1041,1065],"ymouse":[514,514,514,514,514,514,514,514,514,514,514,514,514,514,514,514,514,514,514,514,514,514,514,514,514,514,514,514,514,514,514,514,514,514,514,514,514,514,514,514,514,514,514,514,514,514,514,514,514,514,514,514,514,514,514,514,514,514,514,507,444,385,365,292,183,130,86],"timestamp_mouse":[1,19,39,61,80,100,120,139,159,179,200,219,240,260,280,300,320,339,359,379,400,420,439,459,479,499,519,540,559,579,599,621,639,659,679,699,719,740,760,779,799,819,840,859,880,900,921,940,960,980,1000,1019,1040,1059,1079,1099,1120,1139,1161,1179,1200,1219,1239,1260,1280,1300,1320],"xSR":741.5,"ySR":469.95,"xT1":424.9,"yT1":0,"xT2":1058.1,"yT2":0,"toosoon":0,"cond_shown":"Incongruent","ratio_trial":100,"L_num":12,"L_den":30,"R_num":2,"R_den":4,"correct_side":2,"subjID":"AnaMariaMoreno16","gender":"1","school":"4","age":"9"},{"start_time":1552068666706,"click_time":1552068667456,"finger_time":1552068667215,"fix_duration":250,"trial":24,"RT":509,"MT":241,"sideResp":2,"stimulus":[],"xmouse":[779,779,779,779,779,779,779,779,779,779,779,779,779,779,779,779,779,779,779,779,779,779,779,779,779,804,839,876,946,992,1064,1084,1094,1098,1101,1102,1102,1102],"ymouse":[496,496,496,496,496,496,496,496,496,496,496,496,496,496,496,496,496,496,496,496,496,496,496,496,496,454,409,357,265,214,146,127,115,108,103,100,100,99],"timestamp_mouse":[10,29,49,70,89,110,130,149,169,190,209,229,249,269,291,310,330,349,370,389,411,430,449,470,489,509,529,550,570,590,610,629,650,671,690,709,729,750],"xSR":741.5,"ySR":469.95,"xT1":424.9,"yT1":0,"xT2":1058.1,"yT2":0,"toosoon":0,"cond_shown":"Congruent","ratio_trial":200,"L_num":4,"L_den":8,"R_num":3,"R_den":10,"correct_side":1,"subjID":"AnaMariaMoreno16","gender":"1","school":"4","age":"9"},{"start_time":1552068668567,"click_time":1552068669255,"finger_time":1552068669055,"fix_duration":250,"trial":25,"RT":488,"MT":200,"sideResp":1,"stimulus":[],"xmouse":[803,803,803,803,803,803,803,803,803,803,803,803,803,803,803,803,803,803,803,803,803,803,803,791,726,665,581,555,541,514,497,471,452,430,427],"ymouse":[517,517,517,517,517,517,517,517,517,517,517,517,517,517,517,517,517,517,517,517,517,517,517,504,434,373,289,258,245,222,206,176,150,104,91],"timestamp_mouse":[8,29,48,69,89,109,128,148,168,189,208,229,249,268,288,308,328,348,369,388,409,429,448,469,488,509,528,548,569,590,608,628,648,669,688],"xSR":741.5,"ySR":469.95,"xT1":424.9,"yT1":0,"xT2":1058.1,"yT2":0,"toosoon":0,"cond_shown":"Incongruent","ratio_trial":100,"L_num":8,"L_den":20,"R_num":1,"R_den":2,"correct_side":2,"subjID":"AnaMariaMoreno16","gender":"1","school":"4","age":"9"},{"start_time":1552068672148,"click_time":1552068673356,"finger_time":1552068673055,"fix_duration":1411.1865109025534,"trial":26,"RT":907,"MT":301,"sideResp":1,"stimulus":[],"xmouse":[785,785,785,785,785,785,785,785,785,785,785,785,785,785,785,785,785,785,785,785,785,785,786,789,792,792,792,792,792,792,792,792,792,792,792,792,792,792,792,792,792,792,793,779,770,763,747,739,726,715,708,696,686,664,646,640,615,594,571,529,512],"ymouse":[519,519,519,519,519,519,519,519,519,519,519,519,519,519,519,519,519,519,519,519,519,519,521,522,524,524,524,524,524,524,524,524,524,524,524,524,524,524,524,524,524,524,524,496,479,460,429,403,348,312,283,258,237,196,162,149,111,87,65,36,29],"timestamp_mouse":[8,27,47,67,88,107,127,148,168,187,208,227,247,268,288,309,327,347,368,387,407,427,447,467,488,507,527,547,568,587,607,628,648,667,689,707,728,748,769,787,807,828,847,867,888,907,929,948,968,988,1007,1027,1047,1067,1087,1107,1127,1147,1168,1187,1207],"xSR":741.5,"ySR":469.95,"xT1":424.9,"yT1":0,"xT2":1058.1,"yT2":0,"toosoon":0,"cond_shown":"Congruent","ratio_trial":300,"L_num":24,"L_den":30,"R_num":8,"R_den":16,"correct_side":1,"subjID":"AnaMariaMoreno16","gender":"1","school":"4","age":"9"},{"start_time":1552068676379,"click_time":1552068677655,"finger_time":1552068677315,"fix_duration":1422.5485454667457,"trial":27,"RT":936,"MT":340,"sideResp":2,"stimulus":[],"xmouse":[750,750,750,750,750,750,750,750,750,750,750,750,750,750,750,750,750,750,750,750,750,750,750,750,750,750,750,750,750,750,750,750,750,750,750,750,750,750,750,750,750,750,751,752,756,768,803,822,852,908,957,1006,1071,1098,1103,1113,1117,1118,1118,1118,1118,1122,1125,1126],"ymouse":[478,478,478,478,478,478,478,478,478,478,478,478,478,478,478,478,478,478,478,478,478,478,478,478,478,478,478,478,478,478,478,478,478,478,478,478,478,478,478,478,478,478,479,479,479,476,461,448,432,398,364,322,255,218,210,187,170,164,158,151,143,118,103,86],"timestamp_mouse":[17,36,56,76,96,117,137,157,177,196,217,236,257,277,296,316,336,357,377,396,416,436,457,477,496,518,536,557,576,596,617,637,656,678,697,716,736,756,776,797,816,837,857,876,897,916,936,957,976,996,1017,1036,1057,1076,1096,1116,1137,1156,1177,1196,1216,1237,1256,1276],"xSR":741.5,"ySR":469.95,"xT1":424.9,"yT1":0,"xT2":1058.1,"yT2":0,"toosoon":0,"cond_shown":"Incongruent","ratio_trial":100,"L_num":12,"L_den":30,"R_num":2,"R_den":4,"correct_side":2,"subjID":"AnaMariaMoreno16","gender":"1","school":"4","age":"9"},{"start_time":1552068679355,"click_time":1552068680377,"finger_time":1552068679956,"fix_duration":579.874523618892,"trial":28,"RT":601,"MT":421,"sideResp":2,"stimulus":[],"xmouse":[783,783,783,783,783,783,783,783,783,783,783,783,783,783,783,783,783,783,783,783,783,783,783,783,783,783,783,783,783,783,818,868,920,986,1015,1037,1037,1044,1051,1052,1054,1057,1061,1070,1076,1076,1076,1079,1084,1087,1091,1095],"ymouse":[496,496,496,496,496,496,496,496,496,496,496,496,496,496,496,496,496,496,496,496,496,496,496,496,496,496,496,496,496,494,451,399,351,295,266,240,240,229,214,208,203,190,182,166,150,150,150,146,129,119,106,93],"timestamp_mouse":[3,20,40,60,80,102,120,140,161,180,200,221,240,260,281,301,320,340,361,381,401,420,440,460,481,501,520,541,561,580,601,620,640,660,680,701,721,740,761,781,800,820,840,860,880,901,921,940,961,981,1001,1022],"xSR":741.5,"ySR":469.95,"xT1":424.9,"yT1":0,"xT2":1058.1,"yT2":0,"toosoon":0,"cond_shown":"Incongruent","ratio_trial":300,"L_num":8,"L_den":10,"R_num":9,"R_den":18,"correct_side":1,"subjID":"AnaMariaMoreno16","gender":"1","school":"4","age":"9"},{"start_time":1552068683877,"click_time":1552068693835,"finger_time":1552068690516,"fix_duration":1099.880221202884,"trial":29,"RT":6639,"MT":3319,"sideResp":2,"stimulus":[],"xmouse":[752,752,752,752,752,752,752,752,752,752,752,752,752,752,752,752,752,752,752,752,752,752,752,752,752,752,752,752,752,752,752,752,752,752,752,752,752,752,752,752,752,752,752,752,752,752,752,752,752,752,752,752,752,752,752,752,752,752,752,752,752,752,752,752,752,752,752,752,752,752,752,752,752,752,752,752,752,752,752,752,752,752,752,752,752,752,752,752,752,752,752,752,752,752,752,752,752,752,752,752,752,752,752,752,752,752,752,752,752,752,752,752,752,752,752,752,752,752,752,752,752,752,752,752,752,752,752,752,752,752,752,752,752,752,752,752,752,752,752,752,752,752,752,752,752,752,752,752,752,752,752,752,752,752,752,752,752,752,752,752,752,752,752,752,752,752,752,752,752,752,752,752,752,752,752,752,752,752,752,752,752,752,752,752,752,752,752,752,752,752,752,752,752,752,752,752,752,752,752,752,752,752,752,752,752,752,752,752,752,752,752,752,752,752,752,752,752,752,752,752,752,752,752,752,752,752,752,752,752,752,752,752,752,752,752,752,752,752,752,752,752,752,752,752,752,752,752,752,752,752,752,752,752,752,752,752,752,752,752,752,752,752,752,752,752,752,752,752,752,752,752,752,752,752,752,752,752,752,752,752,752,752,752,752,752,752,752,752,752,752,752,752,752,752,752,752,752,752,752,752,752,752,752,752,752,752,752,752,752,752,752,752,752,752,752,752,752,752,752,752,752,752,752,752,752,752,752,752,752,755,780,873,927,998,1058,1098,1118,1118,1118,1118,1118,1118,1118,1118,1118,1117,1100,1084,1076,1066,1041,1007,997,991,983,970,940,925,910,888,874,854,847,843,838,834,832,832,832,832,832,832,832,832,832,832,832,832,832,832,832,832,832,832,832,832,832,832,832,832,832,832,832,832,832,832,832,832,832,832,832,832,832,832,832,832,832,832,832,832,832,832,832,832,832,832,832,832,832,832,832,832,829,822,816,810,797,790,787,786,783,783,783,783,783,783,783,783,783,783,783,783,783,783,783,783,783,783,783,783,783,783,783,783,783,783,783,783,783,783,783,783,782,782,783,792,883,954,994,1062,1160,1192,1192,1192,1192,1192,1192,1192,1192,1192,1192,1192,1192,1192,1192,1192,1192,1192,1192,1192,1192,1192,1192,1192,1192,1192,1160,1158],"ymouse":[511,511,511,511,511,511,511,511,511,511,511,511,511,511,511,511,511,511,511,511,511,511,511,511,511,511,511,511,511,511,511,511,511,511,511,511,511,511,511,511,511,511,511,511,511,511,511,511,511,511,511,511,511,511,511,511,511,511,511,511,511,511,511,511,511,511,511,511,511,511,511,511,511,511,511,511,511,511,511,511,511,511,511,511,511,511,511,511,511,511,511,511,511,511,511,511,511,511,511,511,511,511,511,511,511,511,511,511,511,511,511,511,511,511,511,511,511,511,511,511,511,511,511,511,511,511,511,511,511,511,511,511,511,511,511,511,511,511,511,511,511,511,511,511,511,511,511,511,511,511,511,511,511,511,511,511,511,511,511,511,511,511,511,511,511,511,511,511,511,511,511,511,511,511,511,511,511,511,511,511,511,511,511,511,511,511,511,511,511,511,511,511,511,511,511,511,511,511,511,511,511,511,511,511,511,511,511,511,511,511,511,511,511,511,511,511,511,511,511,511,511,511,511,511,511,511,511,511,511,511,511,511,511,511,511,511,511,511,511,511,511,511,511,511,511,511,511,511,511,511,511,511,511,511,511,511,511,511,511,511,511,511,511,511,511,511,511,511,511,511,511,511,511,511,511,511,511,511,511,511,511,511,511,511,511,511,511,511,511,511,511,511,511,511,511,511,511,511,511,511,511,511,511,511,511,511,511,511,511,511,511,511,511,511,511,511,511,511,511,511,511,511,511,511,511,511,511,511,511,513,513,513,513,513,513,513,512,512,512,512,512,512,512,512,512,512,522,529,533,538,552,569,574,576,576,576,573,567,558,548,542,534,531,529,528,527,527,527,527,527,527,527,527,527,527,527,527,527,527,527,527,527,527,527,527,527,527,527,527,527,527,527,527,527,527,527,527,527,527,527,527,527,527,527,527,527,527,527,527,527,527,527,527,527,527,527,527,527,527,527,527,527,526,526,526,526,526,524,524,524,522,522,522,522,522,522,522,522,522,522,522,522,522,522,522,522,522,522,522,522,522,522,522,522,522,522,522,522,522,522,522,522,522,522,513,496,379,303,261,185,61,20,20,20,20,20,20,20,20,20,20,20,20,20,20,20,20,20,20,20,20,20,20,20,20,20,7,10],"timestamp_mouse":[18,39,58,78,99,118,139,158,178,198,218,238,259,278,298,318,339,358,378,399,418,438,460,479,498,519,538,560,579,599,618,640,658,678,699,718,738,760,778,798,819,838,858,879,898,919,939,959,978,998,1019,1038,1058,1078,1098,1119,1138,1158,1178,1198,1219,1240,1258,1278,1298,1319,1338,1359,1379,1398,1419,1439,1458,1480,1499,1519,1538,1559,1579,1598,1619,1639,1659,1678,1699,1719,1739,1758,1779,1798,1818,1838,1859,1878,1898,1919,1938,1960,1978,1999,2019,2038,2060,2079,2098,2118,2138,2158,2179,2198,2218,2239,2258,2278,2299,2318,2339,2358,2378,2399,2418,2439,2458,2479,2498,2519,2538,2558,2578,2598,2618,2638,2658,2679,2698,2719,2738,2758,2779,2798,2818,2839,2859,2878,2899,2919,2939,2959,2979,2998,3019,3038,3058,3078,3098,3118,3138,3158,3179,3199,3218,3238,3259,3278,3299,3318,3339,3359,3378,3398,3419,3439,3460,3478,3498,3518,3539,3558,3579,3598,3619,3638,3659,3678,3699,3719,3738,3759,3778,3798,3820,3839,3859,3878,3898,3918,3938,3958,3978,3999,4019,4039,4058,4079,4098,4119,4138,4158,4178,4198,4219,4240,4258,4279,4298,4318,4338,4359,4379,4398,4419,4439,4458,4479,4499,4518,4538,4559,4579,4600,4618,4638,4658,4679,4699,4718,4738,4759,4780,4800,4819,4838,4859,4879,4898,4919,4939,4959,4979,4999,5019,5038,5059,5079,5099,5120,5139,5159,5179,5198,5219,5238,5259,5279,5298,5318,5339,5359,5378,5399,5420,5439,5459,5479,5498,5519,5539,5559,5579,5600,5619,5639,5659,5679,5700,5718,5739,5759,5780,5799,5818,5839,5859,5879,5899,5919,5939,5959,5979,5999,6018,6038,6059,6078,6099,6118,6139,6159,6179,6199,6219,6239,6259,6278,6298,6319,6339,6359,6379,6398,6419,6439,6459,6479,6498,6518,6539,6559,6579,6598,6618,6639,6659,6679,6699,6718,6739,6759,6778,6799,6819,6838,6859,6879,6898,6919,6938,6959,6978,6999,7019,7038,7058,7078,7098,7120,7138,7158,7179,7198,7218,7239,7259,7278,7298,7318,7338,7359,7378,7398,7419,7438,7458,7479,7499,7519,7538,7559,7579,7598,7619,7639,7658,7679,7700,7719,7739,7758,7778,7799,7818,7839,7859,7878,7899,7919,7940,7959,7978,7999,8018,8038,8058,8079,8099,8119,8138,8159,8179,8199,8219,8239,8259,8279,8299,8319,8339,8359,8378,8398,8419,8438,8458,8479,8499,8518,8538,8559,8578,8599,8619,8638,8659,8679,8698,8718,8739,8759,8779,8798,8819,8839,8858,8880,8899,8918,8938,8958,8979,8999,9018,9039,9059,9079,9098,9118,9138,9159,9178,9198,9218,9238,9259,9279,9298,9318,9339,9359,9378,9398,9418,9439,9458,9478,9498,9519,9539,9559,9578,9598,9619,9639,9660,9678,9698,9718,9739,9760,9778,9798,9818,9839,9858,9879,9899,9918,9939,9958],"xSR":741.5,"ySR":469.95,"xT1":424.9,"yT1":0,"xT2":1058.1,"yT2":0,"toosoon":0,"cond_shown":"Congruent","ratio_trial":100,"L_num":8,"L_den":16,"R_num":2,"R_den":5,"correct_side":1,"subjID":"AnaMariaMoreno16","gender":"1","school":"4","age":"9"},{"start_time":1552068695690,"click_time":1552068696616,"finger_time":1552068696375,"fix_duration":493.80902207623035,"trial":30,"RT":685,"MT":241,"sideResp":2,"stimulus":[],"xmouse":[778,778,778,778,778,778,778,778,778,778,778,778,778,778,778,778,778,778,778,778,778,778,778,778,778,778,778,778,778,778,778,781,802,823,847,881,981,1016,1038,1058,1068,1106,1119,1126,1126,1135,1143],"ymouse":[516,516,516,516,516,516,516,516,516,516,516,516,516,516,516,516,516,516,516,516,516,516,516,516,516,516,516,516,516,516,516,517,508,495,483,465,398,369,340,308,290,197,155,125,125,104,85],"timestamp_mouse":[5,25,45,65,85,107,125,146,165,185,205,225,245,265,287,305,325,346,365,385,405,425,445,465,485,505,525,545,566,585,605,626,647,666,685,705,726,745,766,786,805,825,845,866,885,905,926],"xSR":741.5,"ySR":469.95,"xT1":424.9,"yT1":0,"xT2":1058.1,"yT2":0,"toosoon":0,"cond_shown":"Congruent","ratio_trial":100,"L_num":3,"L_den":6,"R_num":2,"R_den":5,"correct_side":1,"subjID":"AnaMariaMoreno16","gender":"1","school":"4","age":"9"},{"start_time":1552068698784,"click_time":1552068700235,"finger_time":1552068699856,"fix_duration":1008.3613273959564,"trial":31,"RT":1072,"MT":379,"sideResp":2,"stimulus":[],"xmouse":[815,815,815,815,815,815,815,815,815,815,815,815,815,815,815,815,815,815,815,815,815,815,815,815,815,815,815,815,815,815,815,815,815,815,815,815,815,815,815,815,815,815,815,815,815,815,815,815,815,815,815,815,815,826,845,853,901,918,928,932,938,945,948,951,955,968,992,993,1010,1028,1041,1058,1065],"ymouse":[511,511,511,511,511,511,511,511,511,511,511,511,511,511,511,511,511,511,511,511,511,511,511,511,511,511,511,511,511,511,511,511,511,511,511,511,511,511,511,511,511,511,511,511,511,511,511,511,511,511,511,511,490,441,397,378,296,262,241,233,220,210,207,200,192,170,129,128,102,77,58,41,37],"timestamp_mouse":[11,31,51,72,92,112,131,151,171,192,211,231,252,272,292,311,332,352,371,392,411,431,451,472,492,513,532,552,571,592,612,631,652,671,692,711,732,751,772,792,812,831,851,871,892,912,931,952,971,992,1011,1031,1052,1072,1091,1112,1131,1152,1172,1191,1212,1231,1251,1272,1292,1312,1332,1352,1371,1391,1412,1432,1451],"xSR":741.5,"ySR":469.95,"xT1":424.9,"yT1":0,"xT2":1058.1,"yT2":0,"toosoon":0,"cond_shown":"Congruent","ratio_trial":200,"L_num":7,"L_den":15,"R_num":18,"R_den":27,"correct_side":2,"subjID":"AnaMariaMoreno16","gender":"1","school":"4","age":"9"},{"start_time":1552068708883,"click_time":1552068710455,"finger_time":1552068709896,"fix_duration":485.2374790962953,"trial":32,"RT":1013,"MT":559,"sideResp":2,"stimulus":[],"xmouse":[769,769,769,769,769,769,769,769,769,769,769,769,769,769,769,769,769,769,769,769,769,769,769,769,769,769,769,769,769,769,769,769,769,769,769,769,769,769,769,769,769,770,776,784,789,796,803,817,824,836,853,886,897,920,955,993,1032,1061,1061,1076,1076,1076,1076,1076,1076,1078,1078,1079,1081,1085,1087,1087,1088,1089,1089,1090,1093,1095,1098],"ymouse":[529,529,529,529,529,529,529,529,529,529,529,529,529,529,529,529,529,529,529,529,529,529,529,529,529,529,529,529,529,529,529,529,529,529,529,529,529,529,529,529,529,530,527,522,518,512,506,498,493,484,469,437,425,402,368,334,299,267,267,245,245,245,240,229,213,198,197,194,187,174,158,145,139,135,132,127,111,101,94],"timestamp_mouse":[14,32,52,72,93,112,132,152,172,193,213,232,252,272,293,312,333,352,372,393,413,432,452,472,492,512,532,552,572,593,613,633,652,673,693,713,732,752,772,793,812,832,853,873,892,912,932,953,973,993,1013,1033,1052,1072,1093,1113,1132,1152,1173,1192,1212,1233,1253,1272,1292,1312,1333,1352,1373,1393,1412,1432,1452,1472,1493,1512,1533,1552,1572],"xSR":741.5,"ySR":469.95,"xT1":424.9,"yT1":0,"xT2":1058.1,"yT2":0,"toosoon":0,"cond_shown":"Incongruent","ratio_trial":300,"L_num":13,"L_den":26,"R_num":12,"R_den":15,"correct_side":2,"subjID":"AnaMariaMoreno16","gender":"1","school":"4","age":"9"},{"start_time":1552068713109,"click_time":1552068714435,"finger_time":1552068713955,"fix_duration":1251.9647186334837,"trial":33,"RT":846,"MT":480,"sideResp":2,"stimulus":[],"xmouse":[794,794,794,794,794,794,794,794,794,794,794,794,794,794,794,794,794,794,794,794,794,794,794,794,794,794,794,794,794,794,794,794,794,794,794,794,794,794,794,794,801,822,827,848,871,894,904,913,933,952,957,980,987,989,990,991,993,994,1001,1007,1016,1036,1046,1058,1069,1080,1096],"ymouse":[509,509,509,509,509,509,509,509,509,509,509,509,509,509,509,509,509,509,509,509,509,509,509,509,509,509,509,509,509,509,509,509,509,509,509,509,509,509,509,509,504,473,466,440,419,401,392,373,337,306,299,253,232,220,211,204,201,197,187,179,168,145,133,120,108,100,86],"timestamp_mouse":[6,26,46,66,86,106,127,146,167,186,206,226,247,267,286,307,326,346,366,386,407,427,446,467,487,507,526,546,568,586,607,627,646,667,687,706,727,746,766,787,806,826,846,866,888,907,926,946,967,986,1007,1026,1046,1066,1086,1106,1126,1146,1167,1186,1207,1226,1247,1267,1286,1307,1326],"xSR":741.5,"ySR":469.95,"xT1":424.9,"yT1":0,"xT2":1058.1,"yT2":0,"toosoon":0,"cond_shown":"Incongruent","ratio_trial":200,"L_num":7,"L_den":10,"R_num":8,"R_den":16,"correct_side":1,"subjID":"AnaMariaMoreno16","gender":"1","school":"4","age":"9"},{"start_time":1552068723569,"click_time":1552068724477,"finger_time":1552068724416,"fix_duration":671.1559771767593,"trial":34,"RT":847,"MT":61,"sideResp":1,"stimulus":[],"xmouse":[810,810,810,810,810,810,810,810,810,810,810,810,810,810,810,810,810,810,810,810,810,810,810,810,810,810,810,810,810,810,810,810,810,810,810,810,810,810,810,801,792,763,710,607,561,500],"ymouse":[504,504,504,504,504,504,504,504,504,504,504,504,504,504,504,504,504,504,504,504,504,504,504,504,504,504,504,504,504,504,504,504,504,504,504,504,504,504,504,501,497,476,418,232,137,10],"timestamp_mouse":[6,27,47,67,87,107,128,147,167,188,206,227,246,266,287,306,327,348,367,386,407,428,447,467,488,506,527,546,567,587,607,628,648,666,686,707,726,746,767,787,807,828,847,868,886,908],"xSR":741.5,"ySR":469.95,"xT1":424.9,"yT1":0,"xT2":1058.1,"yT2":0,"toosoon":0,"cond_shown":"Congruent","ratio_trial":300,"L_num":20,"L_den":25,"R_num":8,"R_den":16,"correct_side":1,"subjID":"AnaMariaMoreno16","gender":"1","school":"4","age":"9"},{"start_time":1552068729522,"click_time":1552068730595,"finger_time":1552068730156,"fix_duration":865.4699569256153,"trial":35,"RT":634,"MT":439,"sideResp":2,"stimulus":[],"xmouse":[786,786,786,786,786,786,786,786,786,786,786,786,786,786,786,786,786,786,786,786,786,786,786,786,786,786,786,786,787,816,821,831,856,879,901,927,934,934,939,941,949,957,968,977,981,994,1009,1014,1023,1039,1039,1043,1056,1069],"ymouse":[546,546,546,546,546,546,546,546,546,546,546,546,546,546,546,546,546,546,546,546,546,546,546,546,546,546,546,546,546,514,496,452,397,359,323,287,280,280,274,272,262,254,241,228,223,205,179,172,149,116,115,108,89,69],"timestamp_mouse":[14,34,54,73,93,114,134,155,174,194,214,233,254,275,294,315,333,355,374,395,414,435,454,474,495,515,533,554,574,594,614,634,655,673,694,714,734,753,773,795,813,834,854,873,894,914,935,954,974,994,1014,1034,1053,1073],"xSR":741.5,"ySR":469.95,"xT1":424.9,"yT1":0,"xT2":1058.1,"yT2":0,"toosoon":0,"cond_shown":"Congruent","ratio_trial":300,"L_num":3,"L_den":6,"R_num":4,"R_den":5,"correct_side":2,"subjID":"AnaMariaMoreno16","gender":"1","school":"4","age":"9"},{"start_time":1552068732417,"click_time":1552068733216,"finger_time":1552068733116,"fix_duration":739.1087569737587,"trial":36,"RT":699,"MT":100,"sideResp":2,"stimulus":[],"xmouse":[788,788,788,788,788,788,788,788,788,788,788,788,788,788,788,788,788,788,788,788,788,788,792,801,805,809,810,810,810,810,811,812,815,829,846,892,938,989,1039,1131],"ymouse":[548,548,548,548,548,548,548,548,548,548,548,548,548,548,548,548,548,548,548,548,548,548,548,539,537,533,529,529,529,529,527,524,521,504,479,413,345,272,198,72],"timestamp_mouse":[19,39,60,78,100,120,139,158,179,199,220,238,259,280,299,320,339,360,380,398,418,438,460,480,500,519,540,559,578,598,619,639,658,679,699,718,740,759,779,799],"xSR":741.5,"ySR":469.95,"xT1":424.9,"yT1":0,"xT2":1058.1,"yT2":0,"toosoon":0,"cond_shown":"Congruent","ratio_trial":100,"L_num":2,"L_den":5,"R_num":6,"R_den":12,"correct_side":2,"subjID":"AnaMariaMoreno16","gender":"1","school":"4","age":"9"},{"start_time":1552068735772,"click_time":1552068736436,"finger_time":1552068736336,"fix_duration":1495.7717788707992,"trial":37,"RT":564,"MT":100,"sideResp":1,"stimulus":[],"xmouse":[789,789,789,789,789,789,789,789,789,789,789,789,789,789,789,789,789,789,789,789,789,789,789,789,789,789,789,789,761,709,665,623,518,428],"ymouse":[510,510,510,510,510,510,510,510,510,510,510,510,510,510,510,510,510,510,510,510,510,510,510,510,510,510,510,510,463,382,323,259,131,41],"timestamp_mouse":[5,24,45,64,83,105,123,144,164,184,204,225,244,264,285,304,325,343,363,384,405,423,443,463,484,504,523,544,564,585,604,624,644,663],"xSR":741.5,"ySR":469.95,"xT1":424.9,"yT1":0,"xT2":1058.1,"yT2":0,"toosoon":0,"cond_shown":"Congruent","ratio_trial":200,"L_num":21,"L_den":30,"R_num":2,"R_den":4,"correct_side":1,"subjID":"AnaMariaMoreno16","gender":"1","school":"4","age":"9"},{"start_time":1552068738077,"click_time":1552068738797,"finger_time":1552068738677,"fix_duration":600.3139441070169,"trial":38,"RT":600,"MT":120,"sideResp":2,"stimulus":[],"xmouse":[759,759,759,759,759,759,759,759,759,759,759,759,759,759,759,759,759,759,759,759,759,759,759,759,759,759,760,775,791,823,853,951,1004,1051,1090,1121],"ymouse":[527,527,527,527,527,527,527,527,527,527,527,527,527,527,527,527,527,527,527,527,527,527,527,527,527,527,527,515,497,457,417,293,239,176,123,82],"timestamp_mouse":[18,39,58,79,100,119,138,159,180,200,220,238,258,278,300,318,338,360,378,399,419,439,459,478,498,520,539,559,580,600,620,638,660,679,698,720],"xSR":741.5,"ySR":469.95,"xT1":424.9,"yT1":0,"xT2":1058.1,"yT2":0,"toosoon":0,"cond_shown":"Incongruent","ratio_trial":100,"L_num":9,"L_den":18,"R_num":6,"R_den":10,"correct_side":2,"subjID":"AnaMariaMoreno16","gender":"1","school":"4","age":"9"},{"start_time":1552068740554,"click_time":1552068741356,"finger_time":1552068741196,"fix_duration":776.7235844417753,"trial":39,"RT":642,"MT":160,"sideResp":2,"stimulus":[],"xmouse":[811,811,811,811,811,811,811,811,811,811,811,811,811,811,811,811,811,811,811,811,811,811,811,811,811,811,811,811,811,815,827,841,860,906,933,960,996,1019,1054,1068,1087],"ymouse":[510,510,510,510,510,510,510,510,510,510,510,510,510,510,510,510,510,510,510,510,510,510,510,510,510,510,510,510,510,507,499,483,460,402,369,330,269,222,141,106,74],"timestamp_mouse":[3,22,42,63,83,103,121,141,162,182,202,222,242,261,282,303,323,341,361,381,403,422,441,463,481,502,523,542,563,583,602,622,642,662,681,701,723,742,762,783,802],"xSR":741.5,"ySR":469.95,"xT1":424.9,"yT1":0,"xT2":1058.1,"yT2":0,"toosoon":0,"cond_shown":"Incongruent","ratio_trial":300,"L_num":4,"L_den":20,"R_num":2,"R_den":4,"correct_side":2,"subjID":"AnaMariaMoreno16","gender":"1","school":"4","age":"9"},{"start_time":1552068743042,"click_time":1552068744116,"finger_time":1552068743695,"fix_duration":745.779922513196,"trial":40,"RT":653,"MT":421,"sideResp":2,"stimulus":[],"xmouse":[814,814,814,814,814,814,814,814,814,814,814,814,814,814,814,814,814,814,814,814,814,814,814,814,814,814,814,814,814,814,815,815,846,925,958,987,1005,1012,1016,1017,1017,1017,1017,1018,1021,1025,1030,1031,1036,1044,1051,1052,1058,1064],"ymouse":[533,533,533,533,533,533,533,533,533,533,533,533,533,533,533,533,533,533,533,533,533,533,533,533,533,533,533,533,533,533,530,529,485,375,324,285,255,238,229,227,227,227,227,212,202,188,172,160,146,118,98,91,74,58],"timestamp_mouse":[14,34,54,75,93,113,134,154,173,194,215,234,253,273,293,314,335,354,373,394,415,434,455,473,495,514,534,554,573,593,614,634,653,674,695,714,733,754,774,793,814,834,854,874,893,913,934,954,975,994,1015,1034,1053,1074],"xSR":741.5,"ySR":469.95,"xT1":424.9,"yT1":0,"xT2":1058.1,"yT2":0,"toosoon":0,"cond_shown":"Incongruent","ratio_trial":100,"L_num":10,"L_den":25,"R_num":9,"R_den":18,"correct_side":2,"subjID":"AnaMariaMoreno16","gender":"1","school":"4","age":"9"},{"start_time":1552068746255,"click_time":1552068747296,"finger_time":1552068746855,"fix_duration":618.5098120097462,"trial":41,"RT":600,"MT":441,"sideResp":2,"stimulus":[],"xmouse":[828,828,828,828,828,828,828,828,828,828,828,828,828,828,828,828,828,828,828,828,828,828,828,828,828,828,828,828,829,836,846,876,909,960,987,995,1009,1018,1032,1035,1037,1038,1039,1040,1040,1041,1041,1042,1046,1048,1052,1058,1063],"ymouse":[521,521,521,521,521,521,521,521,521,521,521,521,521,521,521,521,521,521,521,521,521,521,521,521,521,521,521,521,516,507,494,458,424,365,322,302,269,239,204,193,186,176,164,159,153,150,147,142,126,114,103,83,69],"timestamp_mouse":[3,22,41,60,82,101,121,140,162,181,201,220,242,262,282,301,321,340,362,382,401,420,441,461,482,501,521,540,560,581,600,621,640,661,682,701,721,742,761,782,801,822,840,862,881,901,921,941,960,980,1001,1022,1041],"xSR":741.5,"ySR":469.95,"xT1":424.9,"yT1":0,"xT2":1058.1,"yT2":0,"toosoon":0,"cond_shown":"Congruent","ratio_trial":100,"L_num":7,"L_den":14,"R_num":15,"R_den":25,"correct_side":2,"subjID":"AnaMariaMoreno16","gender":"1","school":"4","age":"9"},{"start_time":1552068750080,"click_time":1552068751436,"finger_time":1552068750576,"fix_duration":402.51966972544875,"trial":42,"RT":496,"MT":860,"sideResp":2,"stimulus":[],"xmouse":[790,790,790,790,790,790,790,790,790,790,790,790,790,790,790,790,790,790,790,790,790,790,800,837,846,877,896,938,981,1039,1059,1077,1078,1079,1080,1080,1083,1085,1088,1095,1100,1110,1113,1115,1118,1120,1122,1122,1122,1122,1122,1122,1122,1122,1122,1122,1122,1122,1122,1122,1122,1122,1122,1122,1122,1122,1122,1123],"ymouse":[517,517,517,517,517,517,517,517,517,517,517,517,517,517,517,517,517,517,517,517,517,517,517,495,488,457,435,394,359,319,304,287,281,276,272,267,256,251,244,229,218,193,180,161,146,132,114,108,104,104,104,104,104,104,104,104,104,104,104,104,104,104,104,104,104,104,104,97],"timestamp_mouse":[17,36,57,75,97,117,136,155,175,197,217,237,255,275,296,316,337,356,375,396,416,436,457,477,496,517,536,556,576,596,616,636,657,677,696,715,736,756,776,797,817,836,857,876,896,917,936,955,976,996,1016,1037,1056,1075,1095,1115,1137,1156,1176,1196,1215,1235,1257,1277,1295,1315,1337,1356],"xSR":741.5,"ySR":469.95,"xT1":424.9,"yT1":0,"xT2":1058.1,"yT2":0,"toosoon":0,"cond_shown":"Congruent","ratio_trial":100,"L_num":10,"L_den":25,"R_num":3,"R_den":10,"correct_side":1,"subjID":"AnaMariaMoreno16","gender":"1","school":"4","age":"9"},{"start_time":1552068754035,"click_time":1552068755777,"finger_time":1552068755197,"fix_duration":858.2473160774662,"trial":43,"RT":1162,"MT":580,"sideResp":1,"stimulus":[],"xmouse":[789,789,789,789,789,789,789,789,789,789,789,789,789,789,789,789,789,789,789,789,789,789,789,789,789,789,789,789,789,789,789,789,789,789,789,789,789,789,789,789,789,789,789,789,789,789,789,789,789,789,789,789,789,789,789,785,768,751,728,685,673,669,654,639,604,578,555,526,509,486,479,468,446,442,434,433,431,431,430,430,430,430,430,430,430,430,430,430],"ymouse":[502,502,502,502,502,502,502,502,502,502,502,502,502,502,502,502,502,502,502,502,502,502,502,502,502,502,502,502,502,502,502,502,502,502,502,502,502,502,502,502,502,502,502,502,502,502,502,502,502,502,502,502,502,502,502,501,494,483,470,442,435,431,411,396,361,333,306,274,252,210,193,172,141,133,118,116,112,108,105,104,104,104,104,104,101,100,100,97],"timestamp_mouse":[3,20,42,60,81,101,122,140,161,180,202,222,240,260,282,302,320,340,360,382,401,420,441,461,481,502,520,540,561,581,601,620,642,660,680,701,721,742,760,782,801,821,840,861,882,902,921,940,960,982,1001,1021,1041,1060,1081,1101,1122,1141,1162,1181,1202,1221,1241,1261,1280,1302,1322,1342,1361,1381,1400,1420,1441,1461,1480,1501,1520,1541,1561,1581,1601,1621,1642,1662,1681,1700,1721,1742],"xSR":741.5,"ySR":469.95,"xT1":424.9,"yT1":0,"xT2":1058.1,"yT2":0,"toosoon":0,"cond_shown":"Congruent","ratio_trial":300,"L_num":20,"L_den":25,"R_num":8,"R_den":16,"correct_side":1,"subjID":"AnaMariaMoreno16","gender":"1","school":"4","age":"9"},{"start_time":1552068757549,"click_time":1552068759036,"finger_time":1552068758756,"fix_duration":250,"trial":44,"RT":1207,"MT":280,"sideResp":2,"stimulus":[],"xmouse":[822,822,822,822,822,822,822,822,822,822,822,822,822,822,822,822,822,822,822,822,822,822,822,822,822,822,822,822,822,822,822,822,822,822,822,822,822,822,822,822,822,822,822,822,822,822,822,822,822,822,822,822,822,822,822,822,822,822,822,826,837,864,893,953,972,988,1000,1001,1010,1015,1020,1027,1034,1053,1063],"ymouse":[492,492,492,492,492,492,491,491,491,491,491,491,491,491,491,491,491,491,491,491,491,491,491,491,491,491,491,491,491,491,491,491,491,491,491,491,491,491,491,491,491,491,491,491,491,491,491,491,491,491,491,491,491,491,491,491,491,491,489,475,449,404,353,263,237,219,204,201,183,174,165,154,141,112,98],"timestamp_mouse":[7,27,47,66,88,107,127,147,166,187,207,227,247,267,286,307,328,346,366,387,408,428,447,466,488,507,526,547,567,588,606,628,648,667,687,708,727,748,766,787,806,828,848,867,886,908,927,948,967,988,1008,1027,1047,1066,1086,1106,1127,1147,1167,1187,1207,1227,1248,1266,1287,1307,1328,1346,1367,1386,1408,1427,1447,1467,1487],"xSR":741.5,"ySR":469.95,"xT1":424.9,"yT1":0,"xT2":1058.1,"yT2":0,"toosoon":0,"cond_shown":"Congruent","ratio_trial":300,"L_num":2,"L_den":10,"R_num":12,"R_den":24,"correct_side":2,"subjID":"AnaMariaMoreno16","gender":"1","school":"4","age":"9"},{"start_time":1552068760696,"click_time":1552068761997,"finger_time":1552068761616,"fix_duration":718.5498358075339,"trial":45,"RT":920,"MT":381,"sideResp":2,"stimulus":[],"xmouse":[786,786,786,786,786,786,786,786,786,786,786,786,786,786,786,786,786,786,786,786,786,786,786,786,786,786,786,786,786,786,786,786,786,786,786,786,787,788,788,788,788,788,792,802,810,830,850,886,900,911,928,937,956,967,979,989,1001,1013,1023,1033,1047,1057,1075,1084,1091,1099],"ymouse":[532,532,532,532,532,532,532,532,532,532,532,532,532,532,532,532,532,532,532,532,532,532,532,532,532,532,532,532,532,532,532,532,532,532,532,533,534,535,535,535,535,535,532,519,509,483,455,415,399,384,363,350,322,307,290,274,253,234,217,200,177,163,138,120,101,83],"timestamp_mouse":[0,20,39,59,80,101,120,141,161,179,201,220,240,260,280,300,321,340,359,380,401,421,441,460,480,501,519,540,561,580,601,620,641,660,679,701,721,741,760,779,799,820,841,861,880,900,920,941,960,981,1000,1020,1041,1061,1080,1101,1120,1141,1161,1180,1200,1220,1240,1260,1280,1301],"xSR":741.5,"ySR":469.95,"xT1":424.9,"yT1":0,"xT2":1058.1,"yT2":0,"toosoon":0,"cond_shown":"Congruent","ratio_trial":300,"L_num":4,"L_den":20,"R_num":13,"R_den":26,"correct_side":2,"subjID":"AnaMariaMoreno16","gender":"1","school":"4","age":"9"},{"start_time":1552068763707,"click_time":1552068764655,"finger_time":1552068764437,"fix_duration":950.453437384838,"trial":46,"RT":730,"MT":218,"sideResp":2,"stimulus":[],"xmouse":[817,817,817,817,817,817,817,817,817,817,817,817,817,817,817,817,817,817,817,817,817,817,817,817,817,817,817,817,817,817,817,817,817,817,817,828,843,876,889,933,950,966,986,1009,1038,1090,1123,1134],"ymouse":[519,519,519,519,519,519,519,519,519,519,519,519,519,519,519,519,519,519,519,519,519,519,519,519,519,519,519,519,519,519,519,519,519,519,519,508,486,442,418,357,334,312,288,261,227,152,103,86],"timestamp_mouse":[9,28,49,70,89,110,128,149,170,190,209,229,249,270,289,309,328,350,370,389,408,429,450,470,490,509,529,550,569,589,610,628,648,669,688,709,730,750,770,790,808,829,849,869,889,909,929,948],"xSR":741.5,"ySR":469.95,"xT1":424.9,"yT1":0,"xT2":1058.1,"yT2":0,"toosoon":0,"cond_shown":"Incongruent","ratio_trial":200,"L_num":7,"L_den":15,"R_num":6,"R_den":9,"correct_side":2,"subjID":"AnaMariaMoreno16","gender":"1","school":"4","age":"9"},{"start_time":1552068766978,"click_time":1552068768416,"finger_time":1552068768096,"fix_duration":1121.9080220379153,"trial":47,"RT":1118,"MT":320,"sideResp":1,"stimulus":[],"xmouse":[780,780,780,780,780,780,780,780,780,780,780,780,780,780,780,780,780,780,780,780,780,780,780,780,780,780,780,780,780,780,780,780,780,780,780,780,780,780,780,780,780,780,780,780,780,780,780,780,780,780,780,780,770,763,760,739,705,688,678,667,656,638,627,617,605,588,568,559,550,540,531,514],"ymouse":[543,543,543,543,543,543,543,543,543,543,543,543,543,543,543,543,543,543,543,543,543,543,543,543,543,543,543,543,543,543,543,543,543,543,543,543,543,543,543,543,543,543,543,543,543,543,543,543,543,543,543,543,509,485,475,440,395,373,359,343,322,282,258,233,207,170,121,98,76,54,37,8],"timestamp_mouse":[17,38,59,77,97,119,138,157,178,199,219,237,259,279,297,317,339,359,378,399,418,438,457,477,498,519,537,557,579,599,617,638,659,678,697,718,739,758,778,797,818,837,858,879,899,918,939,958,979,999,1018,1038,1058,1078,1099,1118,1138,1157,1178,1198,1219,1237,1258,1278,1298,1317,1338,1358,1379,1397,1417,1438],"xSR":741.5,"ySR":469.95,"xT1":424.9,"yT1":0,"xT2":1058.1,"yT2":0,"toosoon":0,"cond_shown":"Incongruent","ratio_trial":100,"L_num":6,"L_den":12,"R_num":3,"R_den":5,"correct_side":2,"subjID":"AnaMariaMoreno16","gender":"1","school":"4","age":"9"},{"start_time":1552068771445,"click_time":1552068772576,"finger_time":1552068772036,"fix_duration":1087.857063550864,"trial":48,"RT":591,"MT":540,"sideResp":2,"stimulus":[],"xmouse":[757,757,757,757,757,757,757,757,757,757,757,757,757,757,757,757,757,757,757,757,757,758,762,779,784,795,808,821,838,846,866,871,897,950,984,1022,1046,1082,1137,1163,1174,1178,1177,1164,1160,1160,1160,1160,1160,1160,1160,1160,1160,1160,1160,1160,1127],"ymouse":[558,558,558,558,558,558,558,558,558,558,558,558,558,558,558,558,558,558,558,558,558,558,556,541,537,526,517,506,488,474,446,438,409,359,323,288,261,218,143,107,84,59,44,17,2,2,2,2,2,2,2,2,2,2,2,2,4],"timestamp_mouse":[11,30,52,72,90,112,131,152,171,192,211,232,250,272,290,311,331,352,372,390,410,431,452,470,492,510,531,552,571,591,611,632,650,671,691,711,731,750,771,792,811,831,850,871,892,912,931,952,971,990,1012,1031,1051,1071,1091,1111,1131],"xSR":741.5,"ySR":469.95,"xT1":424.9,"yT1":0,"xT2":1058.1,"yT2":0,"toosoon":0,"cond_shown":"Incongruent","ratio_trial":300,"L_num":4,"L_den":5,"R_num":8,"R_den":16,"correct_side":1,"subjID":"AnaMariaMoreno16","gender":"1","school":"4","age":"9"},{"start_time":1552068774240,"click_time":1552068775676,"finger_time":1552068775215,"fix_duration":743.5216551234752,"trial":49,"RT":975,"MT":461,"sideResp":2,"stimulus":[],"xmouse":[788,788,788,788,788,788,788,788,788,788,788,788,788,788,788,788,788,788,788,788,788,788,788,788,788,788,788,788,788,788,788,788,788,788,788,788,788,788,788,788,788,788,788,788,788,788,788,799,816,826,837,848,851,857,862,866,873,877,890,899,908,915,918,919,919,919,919,919,949,990,1035,1079],"ymouse":[534,534,534,534,534,534,534,534,534,534,534,534,534,534,534,534,534,534,534,534,534,534,534,534,534,534,534,534,534,534,534,534,534,534,534,534,534,534,534,534,534,534,534,534,534,534,534,508,457,425,389,343,320,297,288,280,268,261,238,222,206,189,184,181,181,181,181,181,149,111,65,13],"timestamp_mouse":[17,37,57,76,96,115,137,156,176,196,215,235,255,277,295,316,336,356,376,397,417,437,456,477,495,515,535,556,577,596,616,636,655,677,697,715,735,756,776,795,817,837,855,875,895,916,936,956,975,996,1016,1035,1057,1075,1096,1116,1136,1156,1176,1195,1215,1236,1256,1275,1297,1315,1336,1356,1376,1396,1416,1436],"xSR":741.5,"ySR":469.95,"xT1":424.9,"yT1":0,"xT2":1058.1,"yT2":0,"toosoon":0,"cond_shown":"Congruent","ratio_trial":200,"L_num":6,"L_den":20,"R_num":11,"R_den":22,"correct_side":2,"subjID":"AnaMariaMoreno16","gender":"1","school":"4","age":"9"},{"start_time":1552068778223,"click_time":1552068779656,"finger_time":1552068779336,"fix_duration":1227.698044009239,"trial":50,"RT":1113,"MT":320,"sideResp":2,"stimulus":[],"xmouse":[791,791,791,791,791,791,791,791,791,791,791,791,791,791,791,791,791,791,791,791,791,791,791,791,791,791,791,791,791,791,791,791,791,791,791,791,791,791,791,791,791,791,791,791,791,791,791,791,791,791,791,791,791,791,791,805,825,858,894,961,982,996,1010,1025,1029,1030,1031,1033,1039,1059,1070,1084],"ymouse":[473,473,473,473,473,473,473,473,473,473,473,473,473,473,473,473,473,473,473,473,473,473,473,473,473,473,473,473,473,473,473,473,473,473,473,473,473,473,473,473,473,473,473,473,473,473,473,473,473,473,473,473,473,473,472,457,440,418,392,335,311,294,278,262,253,245,234,218,197,144,112,82],"timestamp_mouse":[14,34,52,73,93,114,134,153,173,192,213,232,252,274,292,312,334,352,373,393,413,433,454,472,492,514,534,552,574,593,613,632,654,672,694,713,733,754,774,793,814,832,852,874,894,913,933,952,974,994,1014,1033,1053,1074,1093,1113,1133,1153,1173,1192,1213,1233,1253,1273,1293,1314,1334,1353,1374,1393,1413,1433],"xSR":741.5,"ySR":469.95,"xT1":424.9,"yT1":0,"xT2":1058.1,"yT2":0,"toosoon":0,"cond_shown":"Incongruent","ratio_trial":100,"L_num":12,"L_den":30,"R_num":2,"R_den":4,"correct_side":2,"subjID":"AnaMariaMoreno16","gender":"1","school":"4","age":"9"},{"start_time":1552068780853,"click_time":1552068781736,"finger_time":1552068781556,"fix_duration":337.1918659643971,"trial":51,"RT":703,"MT":180,"sideResp":2,"stimulus":[],"xmouse":[775,777,777,778,778,778,778,778,778,778,778,778,778,778,778,778,778,778,778,778,778,778,778,778,778,778,778,778,778,779,779,782,799,808,825,833,839,848,872,888,918,968,1010,1086,1113],"ymouse":[537,538,538,539,539,539,539,539,539,539,539,539,539,539,539,539,539,539,539,539,539,539,539,539,539,539,539,539,539,539,539,537,510,498,474,463,453,443,411,388,344,272,215,108,67],"timestamp_mouse":[4,24,43,63,82,102,123,144,163,183,204,223,242,262,283,303,324,343,363,382,403,422,444,464,484,503,523,542,563,584,603,623,643,663,683,703,724,743,763,782,803,823,843,863,882],"xSR":741.5,"ySR":469.95,"xT1":424.9,"yT1":0,"xT2":1058.1,"yT2":0,"toosoon":0,"cond_shown":"Congruent","ratio_trial":100,"L_num":3,"L_den":20,"R_num":4,"R_den":16,"correct_side":2,"subjID":"AnaMariaMoreno16","gender":"1","school":"4","age":"9"},{"start_time":1552068783148,"click_time":1552068784376,"finger_time":1552068783996,"fix_duration":250,"trial":52,"RT":848,"MT":380,"sideResp":2,"stimulus":[],"xmouse":[831,831,831,831,831,830,827,825,823,821,821,821,821,821,821,821,821,821,821,821,821,821,821,821,821,821,821,821,821,821,821,821,821,821,821,821,821,821,821,821,823,830,849,897,924,934,963,989,1019,1022,1023,1023,1023,1023,1023,1027,1033,1044,1064,1070,1076,1080],"ymouse":[516,516,516,516,516,517,522,525,530,531,531,531,531,531,531,531,531,531,531,531,531,531,531,531,531,531,531,531,531,531,531,531,531,531,531,531,531,531,531,531,529,520,500,447,413,389,346,309,267,261,260,260,260,260,256,241,223,186,135,117,101,92],"timestamp_mouse":[9,28,49,67,88,109,128,148,167,189,208,227,248,269,289,309,327,348,368,389,409,429,448,469,489,509,529,548,569,588,610,630,648,669,690,710,728,748,769,790,809,828,848,868,889,908,928,949,968,990,1009,1029,1048,1069,1088,1109,1128,1149,1168,1189,1208,1228],"xSR":741.5,"ySR":469.95,"xT1":424.9,"yT1":0,"xT2":1058.1,"yT2":0,"toosoon":0,"cond_shown":"Incongruent","ratio_trial":200,"L_num":3,"L_den":10,"R_num":1,"R_den":2,"correct_side":2,"subjID":"AnaMariaMoreno16","gender":"1","school":"4","age":"9"},{"start_time":1552068786067,"click_time":1552068787198,"finger_time":1552068786716,"fix_duration":250,"trial":53,"RT":649,"MT":482,"sideResp":2,"stimulus":[],"xmouse":[820,820,820,820,820,820,820,820,820,820,820,820,820,820,820,820,820,820,820,820,820,820,820,820,820,820,820,820,820,820,820,822,845,853,867,883,899,908,919,922,926,935,948,953,962,969,969,977,992,997,1001,1011,1027,1036,1046,1054,1064],"ymouse":[513,513,513,513,513,513,513,513,513,513,513,513,513,513,513,513,513,513,513,513,513,513,513,513,513,513,513,513,513,513,513,510,444,415,375,338,293,258,218,208,189,156,115,100,78,61,60,47,27,23,20,16,11,10,9,9,9],"timestamp_mouse":[10,29,50,71,90,111,129,150,170,190,211,229,249,269,291,311,329,349,370,390,410,429,450,470,489,510,530,550,570,589,610,630,649,670,690,711,731,750,771,790,811,831,850,869,889,909,931,950,970,991,1009,1030,1049,1069,1090,1111,1130],"xSR":741.5,"ySR":469.95,"xT1":424.9,"yT1":0,"xT2":1058.1,"yT2":0,"toosoon":0,"cond_shown":"Incongruent","ratio_trial":200,"L_num":11,"L_den":20,"R_num":3,"R_den":4,"correct_side":2,"subjID":"AnaMariaMoreno16","gender":"1","school":"4","age":"9"},{"start_time":1552068788654,"click_time":1552068789457,"finger_time":1552068789197,"fix_duration":736.4311501193371,"trial":54,"RT":543,"MT":260,"sideResp":2,"stimulus":[],"xmouse":[771,771,771,771,771,771,771,771,771,771,769,769,769,769,769,769,769,769,769,769,769,769,769,781,781,803,811,830,887,909,924,935,941,953,984,996,1015,1032,1065,1074,1082],"ymouse":[517,517,517,517,517,517,517,517,517,517,517,517,517,517,517,517,517,517,517,517,517,517,517,499,499,479,473,457,421,409,400,393,377,355,301,277,236,195,131,114,98],"timestamp_mouse":[4,23,42,63,82,104,124,143,162,183,202,223,244,263,282,302,322,342,362,384,403,422,442,462,483,503,524,543,563,582,603,622,644,663,682,702,723,744,762,783,803],"xSR":741.5,"ySR":469.95,"xT1":424.9,"yT1":0,"xT2":1058.1,"yT2":0,"toosoon":0,"cond_shown":"Incongruent","ratio_trial":300,"L_num":4,"L_den":5,"R_num":8,"R_den":16,"correct_side":1,"subjID":"AnaMariaMoreno16","gender":"1","school":"4","age":"9"},{"start_time":1552068792138,"click_time":1552068793097,"finger_time":1552068792737,"fix_duration":720.4960774362264,"trial":55,"RT":599,"MT":360,"sideResp":2,"stimulus":[],"xmouse":[797,797,797,797,797,797,797,797,797,797,797,797,798,801,806,806,806,806,806,806,806,806,806,806,806,806,806,808,826,855,864,868,869,869,864,863,861,862,884,898,909,920,927,952,974,1001,1037,1121],"ymouse":[506,506,506,506,506,506,506,506,506,506,506,506,507,507,510,510,510,510,510,510,510,510,510,510,510,510,510,508,479,428,408,391,377,354,332,325,290,260,186,156,129,110,98,77,69,65,65,65],"timestamp_mouse":[19,40,58,78,99,120,139,158,179,200,219,239,260,278,299,320,339,359,379,398,419,439,458,478,498,519,539,559,579,599,620,639,659,679,698,718,738,759,778,799,819,840,859,878,899,919,939,959],"xSR":741.5,"ySR":469.95,"xT1":424.9,"yT1":0,"xT2":1058.1,"yT2":0,"toosoon":0,"cond_shown":"Incongruent","ratio_trial":100,"L_num":11,"L_den":22,"R_num":9,"R_den":15,"correct_side":2,"subjID":"AnaMariaMoreno16","gender":"1","school":"4","age":"9"},{"start_time":1552068795336,"click_time":1552068796598,"finger_time":1552068796177,"fix_duration":778.8476075807274,"trial":56,"RT":841,"MT":421,"sideResp":2,"stimulus":[],"xmouse":[807,804,802,801,801,801,801,800,799,799,799,799,799,799,799,799,799,799,799,799,799,799,799,799,799,799,799,799,799,799,799,799,799,799,799,799,799,799,801,804,816,825,830,841,856,882,899,915,939,963,975,986,997,1009,1033,1044,1054,1056,1061,1061,1061,1061,1061,1064],"ymouse":[502,508,511,512,512,512,512,512,512,512,512,512,512,512,512,512,512,512,512,512,512,512,512,512,512,512,512,512,512,512,512,512,512,512,512,512,512,512,512,511,491,475,449,412,377,324,295,271,229,186,161,136,114,90,53,36,16,10,0,0,0,0,0,1],"timestamp_mouse":[0,20,40,61,82,101,121,141,160,181,202,222,241,260,280,300,321,341,362,381,400,421,442,460,480,500,521,542,561,582,601,622,642,662,680,700,721,741,760,781,800,822,841,861,881,902,922,941,961,981,1001,1021,1042,1060,1081,1100,1121,1141,1161,1181,1200,1220,1242,1262],"xSR":741.5,"ySR":469.95,"xT1":424.9,"yT1":0,"xT2":1058.1,"yT2":0,"toosoon":0,"cond_shown":"Incongruent","ratio_trial":200,"L_num":7,"L_den":15,"R_num":4,"R_den":6,"correct_side":2,"subjID":"AnaMariaMoreno16","gender":"1","school":"4","age":"9"},{"start_time":1552068798770,"click_time":1552068799737,"finger_time":1552068799358,"fix_duration":1072.1449764981073,"trial":57,"RT":588,"MT":379,"sideResp":2,"stimulus":[],"xmouse":[768,768,768,768,768,768,768,768,768,768,768,768,768,768,768,768,768,768,768,768,768,768,768,768,768,768,769,782,831,879,929,983,1059,1079,1093,1099,1099,1099,1099,1099,1099,1099,1100,1102,1104,1106,1111,1115,1115],"ymouse":[557,557,557,557,557,557,557,557,557,557,557,557,557,557,557,557,557,557,557,557,557,557,557,557,557,557,557,546,508,481,454,420,362,346,336,332,331,331,331,330,330,330,318,308,292,274,232,146,94],"timestamp_mouse":[7,27,47,67,86,106,128,147,167,186,206,226,246,267,286,306,327,347,368,388,408,426,446,466,488,507,528,547,567,588,607,626,647,666,687,708,727,747,766,788,807,827,847,867,887,907,926,947,967],"xSR":741.5,"ySR":469.95,"xT1":424.9,"yT1":0,"xT2":1058.1,"yT2":0,"toosoon":0,"cond_shown":"Congruent","ratio_trial":300,"L_num":12,"L_den":24,"R_num":2,"R_den":10,"correct_side":1,"subjID":"AnaMariaMoreno16","gender":"1","school":"4","age":"9"},{"start_time":1552068802196,"click_time":1552068802997,"finger_time":1552068802816,"fix_duration":1057.186161040161,"trial":58,"RT":620,"MT":181,"sideResp":2,"stimulus":[],"xmouse":[803,803,803,803,803,803,803,803,803,803,803,803,803,803,803,803,803,803,803,803,803,803,803,803,803,803,803,803,804,810,829,854,905,949,984,1008,1026,1037,1047,1055,1069],"ymouse":[543,543,543,543,543,543,543,543,543,543,543,543,543,543,543,543,543,543,543,543,543,543,543,543,543,543,543,543,543,535,507,471,409,368,330,298,248,210,152,107,70],"timestamp_mouse":[3,25,40,61,82,101,121,140,160,181,200,220,241,261,280,301,320,341,361,381,402,420,441,461,480,500,522,540,561,581,601,620,641,660,682,701,721,741,760,781,801],"xSR":741.5,"ySR":469.95,"xT1":424.9,"yT1":0,"xT2":1058.1,"yT2":0,"toosoon":0,"cond_shown":"Congruent","ratio_trial":100,"L_num":4,"L_den":8,"R_num":6,"R_den":10,"correct_side":2,"subjID":"AnaMariaMoreno16","gender":"1","school":"4","age":"9"},{"start_time":1552068804510,"click_time":1552068805677,"finger_time":1552068805136,"fix_duration":253.23936274699565,"trial":59,"RT":626,"MT":541,"sideResp":2,"stimulus":[],"xmouse":[823,823,823,823,823,823,823,823,823,823,823,823,823,823,823,823,823,823,823,823,823,823,823,823,823,823,823,823,823,825,830,844,854,873,889,925,945,965,982,983,983,983,983,983,983,983,983,983,983,983,983,983,983,983,983,983,983,983,1091],"ymouse":[532,532,532,532,532,532,532,532,532,532,532,532,532,532,532,532,532,532,532,532,532,532,532,532,532,532,532,532,532,532,529,507,486,445,414,330,267,189,66,32,32,32,32,32,32,32,32,32,32,32,32,32,32,32,32,32,32,32,15],"timestamp_mouse":[7,27,46,66,86,106,126,148,167,188,207,227,248,266,286,308,326,347,367,387,407,427,446,467,488,508,528,546,567,588,607,626,647,667,687,706,727,746,767,787,808,827,847,867,886,907,928,947,966,986,1007,1027,1048,1067,1086,1107,1128,1146,1167],"xSR":741.5,"ySR":469.95,"xT1":424.9,"yT1":0,"xT2":1058.1,"yT2":0,"toosoon":0,"cond_shown":"Incongruent","ratio_trial":200,"L_num":1,"L_den":2,"R_num":3,"R_den":10,"correct_side":1,"subjID":"AnaMariaMoreno16","gender":"1","school":"4","age":"9"},{"start_time":1552068808065,"click_time":1552068809398,"finger_time":1552068808757,"fix_duration":1067.2897986036317,"trial":60,"RT":692,"MT":641,"sideResp":2,"stimulus":[],"xmouse":[811,811,811,811,811,811,811,811,811,811,811,811,811,811,811,811,811,811,811,811,811,811,811,811,811,811,811,811,811,811,811,811,811,811,817,830,848,878,905,922,934,936,937,938,940,942,943,944,944,944,946,949,954,960,968,978,986,1000,1005,1008,1011,1011,1014,1021,1038,1057,1078],"ymouse":[485,485,485,485,485,485,485,485,485,485,485,485,485,485,485,485,485,485,485,485,485,485,485,485,485,485,485,485,485,485,485,485,485,483,465,439,405,352,300,257,214,196,180,148,136,128,124,123,123,123,123,124,125,125,123,119,112,97,87,81,76,75,71,64,54,41,28],"timestamp_mouse":[12,32,52,72,92,112,133,152,171,191,211,231,251,272,291,312,331,352,372,391,413,431,452,471,491,512,532,552,573,592,612,631,652,671,692,712,732,751,772,792,811,832,851,872,892,912,932,952,971,991,1011,1032,1052,1071,1092,1113,1132,1151,1173,1193,1212,1232,1251,1273,1292,1313,1333],"xSR":741.5,"ySR":469.95,"xT1":424.9,"yT1":0,"xT2":1058.1,"yT2":0,"toosoon":0,"cond_shown":"Congruent","ratio_trial":100,"L_num":7,"L_den":14,"R_num":9,"R_den":15,"correct_side":2,"subjID":"AnaMariaMoreno16","gender":"1","school":"4","age":"9"},{"start_time":1552068812129,"click_time":1552068813137,"finger_time":1552068812637,"fix_duration":250,"trial":61,"RT":508,"MT":500,"sideResp":2,"stimulus":[],"xmouse":[814,814,814,814,814,814,814,814,814,814,814,814,814,814,814,814,814,814,814,814,814,814,814,813,811,808,808,808,812,815,817,817,820,822,827,827,827,828,835,848,857,868,879,892,906,937,957,979,1012,1050,1072],"ymouse":[487,487,487,487,487,487,487,487,487,487,487,487,487,487,487,487,487,487,487,487,487,487,487,486,477,466,466,461,450,441,422,410,392,377,336,306,273,246,220,195,182,168,155,138,120,85,71,63,53,41,37],"timestamp_mouse":[8,28,48,68,87,108,129,149,167,189,208,228,249,269,288,309,329,349,367,388,407,428,447,469,487,508,527,548,568,588,608,628,648,667,687,708,729,748,767,787,809,827,848,868,887,908,927,948,968,988,1008],"xSR":741.5,"ySR":469.95,"xT1":424.9,"yT1":0,"xT2":1058.1,"yT2":0,"toosoon":0,"cond_shown":"Congruent","ratio_trial":300,"L_num":1,"L_den":20,"R_num":7,"R_den":20,"correct_side":2,"subjID":"AnaMariaMoreno16","gender":"1","school":"4","age":"9"},{"start_time":1552068814968,"click_time":1552068816557,"finger_time":1552068816177,"fix_duration":808.4242768295645,"trial":62,"RT":1209,"MT":380,"sideResp":1,"stimulus":[],"xmouse":[780,780,780,780,780,780,780,780,780,780,780,780,780,780,780,780,780,780,780,780,780,780,780,780,780,780,780,780,780,780,780,780,780,780,780,780,780,780,780,780,780,780,780,780,780,780,780,780,780,780,780,780,780,780,780,780,780,780,780,772,734,646,558,510,490,485,485,485,485,485,483,473,454,453,454,455,458,461,461,461],"ymouse":[515,515,515,515,515,515,515,515,515,515,515,515,515,515,515,515,515,515,515,515,515,515,515,515,515,515,515,515,515,515,515,515,515,515,515,515,515,515,515,515,515,515,515,515,515,515,515,515,515,515,515,515,515,515,515,515,515,515,515,503,452,359,311,292,287,285,285,285,285,285,283,250,201,187,165,159,143,117,102,89],"timestamp_mouse":[8,28,49,68,89,109,129,148,168,189,210,230,248,270,290,308,329,349,370,389,409,428,449,470,490,508,528,549,570,589,608,629,649,669,688,710,728,748,769,789,808,828,850,869,890,908,928,948,969,989,1010,1028,1048,1070,1090,1110,1128,1150,1169,1189,1209,1230,1249,1268,1289,1308,1329,1349,1369,1388,1408,1429,1449,1469,1489,1509,1529,1548,1569,1589],"xSR":741.5,"ySR":469.95,"xT1":424.9,"yT1":0,"xT2":1058.1,"yT2":0,"toosoon":0,"cond_shown":"Congruent","ratio_trial":200,"L_num":11,"L_den":22,"R_num":3,"R_den":10,"correct_side":1,"subjID":"AnaMariaMoreno16","gender":"1","school":"4","age":"9"},{"start_time":1552068823004,"click_time":1552068823997,"finger_time":1552068823737,"fix_duration":1287.3932566949597,"trial":63,"RT":733,"MT":260,"sideResp":2,"stimulus":[],"xmouse":[799,799,799,799,799,799,799,799,799,799,799,799,799,799,799,799,799,799,799,799,799,799,799,799,799,799,799,799,799,799,799,799,800,800,800,802,809,809,809,809,809,809,809,811,825,868,909,965,1025,1106],"ymouse":[520,520,520,520,520,520,520,520,520,520,520,520,520,520,520,520,520,520,520,520,520,520,520,520,520,520,520,520,520,520,520,520,517,515,492,470,454,454,454,454,454,454,454,450,426,345,283,216,149,78],"timestamp_mouse":[13,33,52,72,93,113,132,152,173,193,212,232,252,272,293,314,332,352,372,392,414,433,452,472,493,512,534,552,572,594,613,633,652,674,692,712,733,752,772,792,814,833,853,874,893,913,933,953,973,993],"xSR":741.5,"ySR":469.95,"xT1":424.9,"yT1":0,"xT2":1058.1,"yT2":0,"toosoon":0,"cond_shown":"Incongruent","ratio_trial":200,"L_num":6,"L_den":20,"R_num":3,"R_den":6,"correct_side":2,"subjID":"AnaMariaMoreno16","gender":"1","school":"4","age":"9"},{"start_time":1552068826235,"click_time":1552068827397,"finger_time":1552068826796,"fix_duration":1057.7062084017305,"trial":64,"RT":561,"MT":601,"sideResp":2,"stimulus":[],"xmouse":[805,805,805,805,805,805,805,805,805,805,805,805,805,805,805,805,805,805,805,805,805,805,805,805,805,806,811,814,830,849,857,871,890,909,923,945,951,954,955,957,959,961,963,966,969,980,989,1002,1013,1027,1030,1032,1035,1037,1045,1049,1053,1058,1065],"ymouse":[518,518,518,518,518,518,518,518,518,518,518,518,518,518,518,518,518,518,518,518,518,518,518,518,519,519,515,502,448,396,377,346,306,279,258,231,224,219,218,215,212,209,207,203,200,187,177,163,151,129,124,119,113,111,102,99,94,88,83],"timestamp_mouse":[4,22,43,61,81,103,122,141,162,181,201,222,242,263,281,301,321,342,361,382,402,422,442,461,482,503,521,541,561,581,602,622,642,662,681,702,721,741,762,781,802,822,841,862,882,902,922,943,962,981,1002,1022,1041,1062,1082,1102,1122,1142,1162],"xSR":741.5,"ySR":469.95,"xT1":424.9,"yT1":0,"xT2":1058.1,"yT2":0,"toosoon":0,"cond_shown":"Incongruent","ratio_trial":300,"L_num":1,"L_den":2,"R_num":3,"R_den":15,"correct_side":1,"subjID":"AnaMariaMoreno16","gender":"1","school":"4","age":"9"},{"start_time":1552068829822,"click_time":1552068831016,"finger_time":1552068830577,"fix_duration":665.2701115786848,"trial":65,"RT":755,"MT":439,"sideResp":2,"stimulus":[],"xmouse":[770,770,770,770,770,770,770,770,770,770,770,770,770,770,770,770,770,770,770,770,770,770,770,770,770,770,770,770,770,770,770,770,770,770,770,770,790,871,964,1102,1142,1166,1179,1180,1180,1180,1180,1179,1179,1179,1177,1177,1174,1172,1171,1170,1169,1167,1163,1151],"ymouse":[531,531,531,531,531,531,531,531,531,531,531