[{"start_time":1552313124235,"click_time":1552313126853,"finger_time":1552313126032,"fix_duration":1040.0551756482846,"trial":0,"RT":1797,"MT":821,"sideResp":1,"stimulus":[],"xmouse":[824,824,824,824,824,824,824,824,824,824,824,824,824,824,824,824,824,824,824,824,824,824,824,824,824,824,824,824,824,824,824,824,824,824,824,824,824,824,824,824,824,824,824,824,824,824,824,824,824,824,824,824,824,824,824,824,824,824,824,824,824,824,824,824,824,824,824,824,824,824,824,824,824,824,824,824,824,824,824,824,824,824,824,824,824,824,824,824,818,780,764,749,735,720,709,695,694,693,692,691,671,665,660,653,646,635,634,632,631,621,602,587,579,577,576,576,576,576,574,565,559,553,543,532,523,511,508,506,503,495,480],"ymouse":[502,502,502,502,502,502,502,502,502,502,502,502,502,502,502,502,502,502,502,502,502,502,502,502,502,502,502,502,502,502,502,502,502,502,502,502,502,502,502,502,502,502,502,502,502,502,502,502,502,502,502,502,502,502,502,502,502,502,502,502,502,502,502,502,502,502,502,502,502,502,502,502,502,502,502,502,502,502,502,502,502,502,502,502,502,502,502,484,475,420,400,381,364,344,328,311,310,309,308,306,289,280,273,264,256,244,241,237,231,206,184,172,166,164,163,163,163,163,162,157,151,145,138,133,129,123,122,120,116,108,84],"timestamp_mouse":[32,38,58,77,97,117,137,157,177,197,216,238,256,278,297,317,338,356,377,397,418,437,457,477,497,518,536,556,578,597,616,637,658,678,698,717,737,756,777,798,816,838,858,876,897,918,937,958,978,996,1016,1037,1057,1078,1096,1117,1137,1158,1178,1196,1218,1237,1258,1276,1297,1316,1337,1357,1378,1397,1416,1437,1458,1476,1497,1517,1538,1557,1577,1596,1618,1638,1657,1678,1697,1718,1738,1756,1778,1797,1816,1837,1857,1877,1896,1916,1937,1957,1978,1996,2018,2037,2058,2077,2098,2116,2137,2157,2177,2198,2216,2237,2257,2277,2298,2318,2338,2357,2377,2398,2416,2437,2456,2476,2498,2516,2537,2557,2576,2596,2617],"xSR":741.5,"ySR":469.95,"xT1":424.9,"yT1":0,"xT2":1058.1,"yT2":0,"toosoon":0,"cond_shown":"Congruent","ratio_trial":100,"L_num":3,"L_den":20,"R_num":4,"R_den":16,"correct_side":2,"subjID":"samuelcorba33","gender":"0","age":"9","school":"4","test":{"fix_dur":[250,1500],"timestim":1000,"targets_dim":[100,100],"targets_relative_coord":[0.3,0.7],"size_stim":[880,420],"start_dim":[100,100],"size_start":[300,300],"size_fix":60,"samplingrate":20,"img_types":["Congruent","Incongruent"],"ratios":[100,200,300],"rep_conds":19,"nTrials":120,"trials_to_rest":500,"Trials_order":[48,51,79,44,30,109,60,84,52,110,2,74,11,95,5,17,59,63,117,33,103,62,20,71,13,65,108,22,43,19,104,93,55,112,92,14,72,116,25,18,81,45,96,39,16,97,100,98,29,91,50,4,24,8,49,106,66,9,57,90,61,37,35,0,88,75,114,105,58,64,26,69,23,70,42,89,12,21,27,6,54,119,28,32,53,7,40,82,111,80,77,38,41,83,76,85,68,73,46,67,113,15,36,87,107,115,86,102,101,10,3,118,94,31,56,99,47,78,34,1],"cond_shown":["Congruent","Incongruent","Incongruent","Congruent","Congruent","Incongruent","Congruent","Congruent","Congruent","Congruent","Congruent","Congruent","Incongruent","Incongruent","Incongruent","Incongruent","Incongruent","Incongruent","Incongruent","Incongruent","Incongruent","Congruent","Congruent","Incongruent","Incongruent","Incongruent","Congruent","Congruent","Incongruent","Incongruent","Congruent","Incongruent","Incongruent","Congruent","Congruent","Congruent","Congruent","Congruent","Incongruent","Congruent","Incongruent","Incongruent","Congruent","Incongruent","Congruent","Incongruent","Congruent","Congruent","Incongruent","Incongruent","Congruent","Congruent","Congruent","Congruent","Incongruent","Congruent","Congruent","Incongruent","Incongruent","Congruent","Incongruent","Incongruent","Incongruent","Congruent","Congruent","Incongruent","Congruent","Incongruent","Congruent","Congruent","Congruent","Incongruent","Incongruent","Congruent","Congruent","Incongruent","Congruent","Incongruent","Incongruent","Congruent","Congruent","Incongruent","Congruent","Congruent","Incongruent","Incongruent","Congruent","Congruent","Incongruent","Congruent","Incongruent","Congruent","Incongruent","Incongruent","Congruent","Incongruent","Congruent","Incongruent","Congruent","Incongruent","Incongruent","Incongruent","Congruent","Incongruent","Incongruent","Incongruent","Congruent","Congruent","Incongruent","Congruent","Incongruent","Congruent","Congruent","Incongruent","Congruent","Incongruent","Incongruent","Congruent","Congruent","Incongruent"],"ratio_trial":[100,200,100,200,100,100,100,100,300,200,200,200,300,300,300,300,300,200,200,200,100,200,200,300,100,300,100,300,100,100,200,200,100,300,200,200,100,200,100,100,200,200,100,200,300,100,300,200,300,100,200,300,100,200,100,300,100,200,200,100,100,100,300,100,300,200,100,200,300,300,200,200,300,300,100,300,100,200,200,100,100,300,300,200,300,100,300,300,200,200,300,200,300,300,300,100,200,100,300,100,300,200,100,200,300,100,200,100,300,300,200,300,300,100,200,200,300,100,300,100],"left_num":[3,3,6,15,11,13,1,10,9,3,9,3,2,1,4,8,4,7,7,11,2,20,12,4,6,13,12,8,8,6,3,7,6,20,12,1,1,3,9,6,3,14,2,4,1,3,1,3,4,13,3,24,2,6,17,20,12,1,14,7,6,3,4,10,3,4,8,7,1,11,8,7,8,1,11,13,1,3,1,3,3,4,18,12,8,8,1,1,7,16,4,9,4,13,20,2,7,17,11,12,13,7,3,14,1,1,4,11,13,8,4,1,3,10,5,7,4,10,11,9],"right_num":[4,11,7,4,4,6,3,3,3,11,13,14,6,3,2,14,6,12,12,3,8,9,6,2,7,12,13,1,6,7,7,12,13,5,6,21,3,9,20,5,1,6,11,14,6,8,6,14,2,6,11,2,6,7,10,14,13,3,12,15,3,4,2,3,4,6,2,12,7,2,3,4,9,3,6,12,3,1,2,2,2,2,9,6,14,6,8,11,6,9,2,13,2,12,8,6,2,10,2,2,12,6,4,12,2,8,3,6,12,1,6,19,11,8,14,6,2,3,2,13],"left_den":[20,4,10,25,22,26,2,25,10,10,30,6,4,2,20,10,5,10,10,20,4,25,20,20,10,26,30,16,16,10,10,10,10,25,20,2,2,12,10,20,10,30,5,6,5,5,5,10,20,26,10,30,5,12,30,25,30,2,30,14,12,6,20,25,6,5,16,10,20,22,15,15,10,5,22,26,2,10,3,6,6,20,20,15,10,16,30,5,15,30,20,30,20,26,25,4,21,30,22,30,26,15,20,30,2,2,8,22,26,16,5,3,12,25,10,15,20,25,22,15],"right_den":[16,20,14,10,10,10,5,10,5,22,26,20,30,15,4,28,12,24,24,4,20,15,15,4,14,15,26,5,10,14,14,24,26,10,15,30,5,20,25,25,2,9,22,30,12,16,12,28,4,10,22,4,12,10,15,28,26,10,18,25,5,10,4,10,5,10,5,24,20,10,9,6,18,6,15,15,5,2,15,5,5,4,15,10,28,10,24,22,9,27,4,26,4,15,16,15,15,15,10,4,15,9,16,18,10,20,10,15,15,5,10,30,20,16,20,9,4,10,10,26],"correct_side":[2,1,1,1,1,2,2,1,1,2,2,2,1,1,2,1,1,1,1,2,1,1,1,2,1,2,2,1,2,1,2,1,1,1,1,2,2,2,1,1,2,2,2,1,2,1,2,2,2,2,2,1,2,2,2,1,2,1,2,2,2,1,2,1,2,1,1,1,2,1,1,2,1,2,1,2,2,2,1,1,1,2,1,1,1,2,2,2,2,1,2,2,2,2,1,1,1,2,1,2,2,2,2,2,1,1,1,1,2,1,1,2,2,2,2,2,2,1,1,1],"img_shown":["img2/100/Congruent/R/C_Dist_100_LN_3_LD_20_RN_4_RD_16_1.png","img2/200/Incongruent/L/I_Dist_200_LN_3_LD_4_RN_11_RD_20_0.png","img2/100/Incongruent/L/I_Dist_100_LN_6_LD_10_RN_7_RD_14_0.png","img2/200/Congruent/L/C_Dist_200_LN_15_LD_25_RN_4_RD_10_0.png","img2/100/Congruent/L/C_Dist_100_LN_11_LD_22_RN_4_RD_10_0.png","img2/100/Incongruent/R/I_Dist_100_LN_13_LD_26_RN_6_RD_10_1.png","img2/100/Congruent/R/C_Dist_100_LN_1_LD_2_RN_3_RD_5_1.png","img2/100/Congruent/L/C_Dist_100_LN_10_LD_25_RN_3_RD_10_0.png","img2/300/Congruent/L/C_Dist_300_LN_9_LD_10_RN_3_RD_5_0.png","img2/200/Congruent/R/C_Dist_200_LN_3_LD_10_RN_11_RD_22_1.png","img2/200/Congruent/R/C_Dist_200_LN_9_LD_30_RN_13_RD_26_1.png","img2/200/Congruent/R/C_Dist_200_LN_3_LD_6_RN_14_RD_20_1.png","img2/300/Incongruent/L/I_Dist_300_LN_2_LD_4_RN_6_RD_30_0.png","img2/300/Incongruent/L/I_Dist_300_LN_1_LD_2_RN_3_RD_15_0.png","img2/300/Incongruent/R/I_Dist_300_LN_4_LD_20_RN_2_RD_4_1.png","img2/300/Incongruent/L/I_Dist_300_LN_8_LD_10_RN_14_RD_28_0.png","img2/300/Incongruent/L/I_Dist_300_LN_4_LD_5_RN_6_RD_12_0.png","img2/200/Incongruent/L/I_Dist_200_LN_7_LD_10_RN_12_RD_24_0.png","img2/200/Incongruent/L/I_Dist_200_LN_7_LD_10_RN_12_RD_24_0.png","img2/200/Incongruent/R/I_Dist_200_LN_11_LD_20_RN_3_RD_4_1.png","img2/100/Incongruent/L/I_Dist_100_LN_2_LD_4_RN_8_RD_20_0.png","img2/200/Congruent/L/C_Dist_200_LN_20_LD_25_RN_9_RD_15_0.png","img2/200/Congruent/L/C_Dist_200_LN_12_LD_20_RN_6_RD_15_0.png","img2/300/Incongruent/R/I_Dist_300_LN_4_LD_20_RN_2_RD_4_1.png","img2/100/Incongruent/L/I_Dist_100_LN_6_LD_10_RN_7_RD_14_0.png","img2/300/Incongruent/R/I_Dist_300_LN_13_LD_26_RN_12_RD_15_1.png","img2/100/Congruent/R/C_Dist_100_LN_12_LD_30_RN_13_RD_26_1.png","img2/300/Congruent/L/C_Dist_300_LN_8_LD_16_RN_1_RD_5_0.png","img2/100/Incongruent/R/I_Dist_100_LN_8_LD_16_RN_6_RD_10_1.png","img2/100/Incongruent/L/I_Dist_100_LN_6_LD_10_RN_7_RD_14_0.png","img2/200/Congruent/R/C_Dist_200_LN_3_LD_10_RN_7_RD_14_1.png","img2/200/Incongruent/L/I_Dist_200_LN_7_LD_10_RN_12_RD_24_0.png","img2/100/Incongruent/L/I_Dist_100_LN_6_LD_10_RN_13_RD_26_0.png","img2/300/Congruent/L/C_Dist_300_LN_20_LD_25_RN_5_RD_10_0.png","img2/200/Congruent/L/C_Dist_200_LN_12_LD_20_RN_6_RD_15_0.png","img2/200/Congruent/R/C_Dist_200_LN_1_LD_2_RN_21_RD_30_1.png","img2/100/Congruent/R/C_Dist_100_LN_1_LD_2_RN_3_RD_5_1.png","img2/200/Congruent/R/C_Dist_200_LN_3_LD_12_RN_9_RD_20_1.png","img2/100/Incongruent/L/I_Dist_100_LN_9_LD_10_RN_20_RD_25_0.png","img2/100/Congruent/L/C_Dist_100_LN_6_LD_20_RN_5_RD_25_0.png","img2/200/Incongruent/R/I_Dist_200_LN_3_LD_10_RN_1_RD_2_1.png","img2/200/Incongruent/R/I_Dist_200_LN_14_LD_30_RN_6_RD_9_1.png","img2/100/Congruent/R/C_Dist_100_LN_2_LD_5_RN_11_RD_22_1.png","img2/200/Incongruent/L/I_Dist_200_LN_4_LD_6_RN_14_RD_30_0.png","img2/300/Congruent/R/C_Dist_300_LN_1_LD_5_RN_6_RD_12_1.png","img2/100/Incongruent/L/I_Dist_100_LN_3_LD_5_RN_8_RD_16_0.png","img2/300/Congruent/R/C_Dist_300_LN_1_LD_5_RN_6_RD_12_1.png","img2/200/Congruent/R/C_Dist_200_LN_3_LD_10_RN_14_RD_28_1.png","img2/300/Incongruent/R/I_Dist_300_LN_4_LD_20_RN_2_RD_4_1.png","img2/100/Incongruent/R/I_Dist_100_LN_13_LD_26_RN_6_RD_10_1.png","img2/200/Congruent/R/C_Dist_200_LN_3_LD_10_RN_11_RD_22_1.png","img2/300/Congruent/L/C_Dist_300_LN_24_LD_30_RN_2_RD_4_0.png","img2/100/Congruent/R/C_Dist_100_LN_2_LD_5_RN_6_RD_12_1.png","img2/200/Congruent/R/C_Dist_200_LN_6_LD_12_RN_7_RD_10_1.png","img2/100/Incongruent/R/I_Dist_100_LN_17_LD_30_RN_10_RD_15_1.png","img2/300/Congruent/L/C_Dist_300_LN_20_LD_25_RN_14_RD_28_0.png","img2/100/Congruent/R/C_Dist_100_LN_12_LD_30_RN_13_RD_26_1.png","img2/200/Incongruent/L/I_Dist_200_LN_1_LD_2_RN_3_RD_10_0.png","img2/200/Incongruent/R/I_Dist_200_LN_14_LD_30_RN_12_RD_18_1.png","img2/100/Congruent/R/C_Dist_100_LN_7_LD_14_RN_15_RD_25_1.png","img2/100/Incongruent/R/I_Dist_100_LN_6_LD_12_RN_3_RD_5_1.png","img2/100/Incongruent/L/I_Dist_100_LN_3_LD_6_RN_4_RD_10_0.png","img2/300/Incongruent/R/I_Dist_300_LN_4_LD_20_RN_2_RD_4_1.png","img2/100/Congruent/L/C_Dist_100_LN_10_LD_25_RN_3_RD_10_0.png","img2/300/Congruent/R/C_Dist_300_LN_3_LD_6_RN_4_RD_5_1.png","img2/200/Incongruent/L/I_Dist_200_LN_4_LD_5_RN_6_RD_10_0.png","img2/100/Congruent/L/C_Dist_100_LN_8_LD_16_RN_2_RD_5_0.png","img2/200/Incongruent/L/I_Dist_200_LN_7_LD_10_RN_12_RD_24_0.png","img2/300/Congruent/R/C_Dist_300_LN_1_LD_20_RN_7_RD_20_1.png","img2/300/Congruent/L/C_Dist_300_LN_11_LD_22_RN_2_RD_10_0.png","img2/200/Congruent/L/C_Dist_200_LN_8_LD_15_RN_3_RD_9_0.png","img2/200/Incongruent/R/I_Dist_200_LN_7_LD_15_RN_4_RD_6_1.png","img2/300/Incongruent/L/I_Dist_300_LN_8_LD_10_RN_9_RD_18_0.png","img2/300/Congruent/R/C_Dist_300_LN_1_LD_5_RN_3_RD_6_1.png","img2/100/Congruent/L/C_Dist_100_LN_11_LD_22_RN_6_RD_15_0.png","img2/300/Incongruent/R/I_Dist_300_LN_13_LD_26_RN_12_RD_15_1.png","img2/100/Congruent/R/C_Dist_100_LN_1_LD_2_RN_3_RD_5_1.png","img2/200/Incongruent/R/I_Dist_200_LN_3_LD_10_RN_1_RD_2_1.png","img2/200/Incongruent/L/I_Dist_200_LN_1_LD_3_RN_2_RD_15_0.png","img2/100/Congruent/L/C_Dist_100_LN_3_LD_6_RN_2_RD_5_0.png","img2/100/Congruent/L/C_Dist_100_LN_3_LD_6_RN_2_RD_5_0.png","img2/300/Incongruent/R/I_Dist_300_LN_4_LD_20_RN_2_RD_4_1.png","img2/300/Congruent/L/C_Dist_300_LN_18_LD_20_RN_9_RD_15_0.png","img2/200/Congruent/L/C_Dist_200_LN_12_LD_15_RN_6_RD_10_0.png","img2/300/Incongruent/L/I_Dist_300_LN_8_LD_10_RN_14_RD_28_0.png","img2/100/Incongruent/R/I_Dist_100_LN_8_LD_16_RN_6_RD_10_1.png","img2/300/Congruent/R/C_Dist_300_LN_1_LD_30_RN_8_RD_24_1.png","img2/300/Congruent/R/C_Dist_300_LN_1_LD_5_RN_11_RD_22_1.png","img2/200/Incongruent/R/I_Dist_200_LN_7_LD_15_RN_6_RD_9_1.png","img2/200/Congruent/L/C_Dist_200_LN_16_LD_30_RN_9_RD_27_0.png","img2/300/Incongruent/R/I_Dist_300_LN_4_LD_20_RN_2_RD_4_1.png","img2/200/Congruent/R/C_Dist_200_LN_9_LD_30_RN_13_RD_26_1.png","img2/300/Incongruent/R/I_Dist_300_LN_4_LD_20_RN_2_RD_4_1.png","img2/300/Incongruent/R/I_Dist_300_LN_13_LD_26_RN_12_RD_15_1.png","img2/300/Congruent/L/C_Dist_300_LN_20_LD_25_RN_8_RD_16_0.png","img2/100/Incongruent/L/I_Dist_100_LN_2_LD_4_RN_6_RD_15_0.png","img2/200/Congruent/L/C_Dist_200_LN_7_LD_21_RN_2_RD_15_0.png","img2/100/Incongruent/R/I_Dist_100_LN_17_LD_30_RN_10_RD_15_1.png","img2/300/Congruent/L/C_Dist_300_LN_11_LD_22_RN_2_RD_10_0.png","img2/100/Incongruent/R/I_Dist_100_LN_12_LD_30_RN_2_RD_4_1.png","img2/300/Incongruent/R/I_Dist_300_LN_13_LD_26_RN_12_RD_15_1.png","img2/200/Incongruent/R/I_Dist_200_LN_7_LD_15_RN_6_RD_9_1.png","img2/100/Congruent/R/C_Dist_100_LN_3_LD_20_RN_4_RD_16_1.png","img2/200/Incongruent/R/I_Dist_200_LN_14_LD_30_RN_12_RD_18_1.png","img2/300/Incongruent/L/I_Dist_300_LN_1_LD_2_RN_2_RD_10_0.png","img2/100/Incongruent/L/I_Dist_100_LN_1_LD_2_RN_8_RD_20_0.png","img2/200/Congruent/L/C_Dist_200_LN_4_LD_8_RN_3_RD_10_0.png","img2/100/Congruent/L/C_Dist_100_LN_11_LD_22_RN_6_RD_15_0.png","img2/300/Incongruent/R/I_Dist_300_LN_13_LD_26_RN_12_RD_15_1.png","img2/300/Congruent/L/C_Dist_300_LN_8_LD_16_RN_1_RD_5_0.png","img2/200/Incongruent/L/I_Dist_200_LN_4_LD_5_RN_6_RD_10_0.png","img2/300/Congruent/R/C_Dist_300_LN_1_LD_3_RN_19_RD_30_1.png","img2/300/Congruent/R/C_Dist_300_LN_3_LD_12_RN_11_RD_20_1.png","img2/100/Incongruent/R/I_Dist_100_LN_10_LD_25_RN_8_RD_16_1.png","img2/200/Congruent/R/C_Dist_200_LN_5_LD_10_RN_14_RD_20_1.png","img2/200/Incongruent/R/I_Dist_200_LN_7_LD_15_RN_6_RD_9_1.png","img2/300/Incongruent/R/I_Dist_300_LN_4_LD_20_RN_2_RD_4_1.png","img2/100/Congruent/L/C_Dist_100_LN_10_LD_25_RN_3_RD_10_0.png","img2/300/Congruent/L/C_Dist_300_LN_11_LD_22_RN_2_RD_10_0.png","img2/100/Incongruent/L/I_Dist_100_LN_9_LD_15_RN_13_RD_26_0.png"],"dist100_C":[["C_Dist_100_LN_10_LD_25_RN_3_RD_10_0.png","C_Dist_100_LN_11_LD_22_RN_4_RD_10_0.png","C_Dist_100_LN_11_LD_22_RN_6_RD_15_0.png","C_Dist_100_LN_15_LD_25_RN_13_RD_26_0.png","C_Dist_100_LN_3_LD_6_RN_2_RD_5_0.png","C_Dist_100_LN_6_LD_20_RN_5_RD_25_0.png","C_Dist_100_LN_8_LD_16_RN_2_RD_5_0.png","C_Dist_100_LN_9_LD_15_RN_8_RD_16_0.png"],["C_Dist_100_LN_1_LD_2_RN_18_RD_30_1.png","C_Dist_100_LN_1_LD_2_RN_3_RD_5_1.png","C_Dist_100_LN_12_LD_30_RN_13_RD_26_1.png","C_Dist_100_LN_2_LD_5_RN_11_RD_22_1.png","C_Dist_100_LN_2_LD_5_RN_6_RD_12_1.png","C_Dist_100_LN_3_LD_20_RN_4_RD_16_1.png","C_Dist_100_LN_4_LD_10_RN_15_RD_30_1.png","C_Dist_100_LN_4_LD_8_RN_6_RD_10_1.png","C_Dist_100_LN_6_LD_12_RN_15_RD_25_1.png","C_Dist_100_LN_7_LD_14_RN_15_RD_25_1.png","C_Dist_100_LN_7_LD_14_RN_9_RD_15_1.png"]],"dist100_I":[["I_Dist_100_LN_1_LD_2_RN_8_RD_20_0.png","I_Dist_100_LN_2_LD_4_RN_6_RD_15_0.png","I_Dist_100_LN_2_LD_4_RN_8_RD_20_0.png","I_Dist_100_LN_3_LD_5_RN_11_RD_22_0.png","I_Dist_100_LN_3_LD_5_RN_8_RD_16_0.png","I_Dist_100_LN_3_LD_6_RN_4_RD_10_0.png","I_Dist_100_LN_3_LD_9_RN_7_RD_30_0.png","I_Dist_100_LN_4_LD_8_RN_8_RD_20_0.png","I_Dist_100_LN_6_LD_10_RN_11_RD_22_0.png","I_Dist_100_LN_6_LD_10_RN_13_RD_26_0.png","I_Dist_100_LN_6_LD_10_RN_7_RD_14_0.png","I_Dist_100_LN_9_LD_10_RN_20_RD_25_0.png","I_Dist_100_LN_9_LD_15_RN_13_RD_26_0.png","I_Dist_100_LN_9_LD_15_RN_14_RD_28_0.png"],["I_Dist_100_LN_10_LD_25_RN_8_RD_16_1.png","I_Dist_100_LN_10_LD_25_RN_9_RD_18_1.png","I_Dist_100_LN_11_LD_22_RN_9_RD_15_1.png","I_Dist_100_LN_12_LD_24_RN_9_RD_15_1.png","I_Dist_100_LN_12_LD_30_RN_2_RD_4_1.png","I_Dist_100_LN_13_LD_26_RN_12_RD_20_1.png","I_Dist_100_LN_13_LD_26_RN_6_RD_10_1.png","I_Dist_100_LN_17_LD_30_RN_10_RD_15_1.png","I_Dist_100_LN_6_LD_12_RN_3_RD_5_1.png","I_Dist_100_LN_8_LD_16_RN_6_RD_10_1.png","I_Dist_100_LN_8_LD_20_RN_1_RD_2_1.png","I_Dist_100_LN_9_LD_18_RN_6_RD_10_1.png"]],"dist100_S":[["E_Dist_100_LN_2_LD_12_RN_2_RD_30_0.png","E_Dist_100_LN_6_LD_10_RN_6_RD_12_0.png"],["E_Dist_100_LN_6_LD_12_RN_6_RD_10_1.png"]],"dist200_C":[["C_Dist_200_LN_11_LD_22_RN_3_RD_10_0.png","C_Dist_200_LN_12_LD_15_RN_6_RD_10_0.png","C_Dist_200_LN_12_LD_20_RN_6_RD_15_0.png","C_Dist_200_LN_14_LD_28_RN_6_RD_20_0.png","C_Dist_200_LN_15_LD_25_RN_4_RD_10_0.png","C_Dist_200_LN_16_LD_20_RN_12_RD_20_0.png","C_Dist_200_LN_16_LD_30_RN_9_RD_27_0.png","C_Dist_200_LN_20_LD_25_RN_9_RD_15_0.png","C_Dist_200_LN_21_LD_30_RN_2_RD_4_0.png","C_Dist_200_LN_4_LD_10_RN_3_RD_15_0.png","C_Dist_200_LN_4_LD_8_RN_3_RD_10_0.png","C_Dist_200_LN_6_LD_15_RN_3_RD_15_0.png","C_Dist_200_LN_7_LD_21_RN_2_RD_15_0.png","C_Dist_200_LN_8_LD_15_RN_2_RD_6_0.png","C_Dist_200_LN_8_LD_15_RN_3_RD_9_0.png","C_Dist_200_LN_8_LD_15_RN_7_RD_21_0.png","C_Dist_200_LN_9_LD_20_RN_4_RD_16_0.png"],["C_Dist_200_LN_1_LD_2_RN_21_RD_30_1.png","C_Dist_200_LN_13_LD_26_RN_14_RD_20_1.png","C_Dist_200_LN_3_LD_10_RN_11_RD_22_1.png","C_Dist_200_LN_3_LD_10_RN_14_RD_28_1.png","C_Dist_200_LN_3_LD_10_RN_7_RD_14_1.png","C_Dist_200_LN_3_LD_12_RN_9_RD_20_1.png","C_Dist_200_LN_3_LD_6_RN_14_RD_20_1.png","C_Dist_200_LN_5_LD_10_RN_14_RD_20_1.png","C_Dist_200_LN_6_LD_12_RN_7_RD_10_1.png","C_Dist_200_LN_6_LD_20_RN_11_RD_22_1.png","C_Dist_200_LN_7_LD_15_RN_18_RD_27_1.png","C_Dist_200_LN_9_LD_30_RN_13_RD_26_1.png"]],"dist200_I":[["I_Dist_200_LN_1_LD_2_RN_3_RD_10_0.png","I_Dist_200_LN_1_LD_3_RN_2_RD_15_0.png","I_Dist_200_LN_3_LD_4_RN_11_RD_20_0.png","I_Dist_200_LN_4_LD_5_RN_6_RD_10_0.png","I_Dist_200_LN_4_LD_6_RN_14_RD_30_0.png","I_Dist_200_LN_7_LD_10_RN_12_RD_24_0.png","I_Dist_200_LN_7_LD_10_RN_14_RD_28_0.png","I_Dist_200_LN_7_LD_10_RN_8_RD_16_0.png"],["I_Dist_200_LN_11_LD_20_RN_3_RD_4_1.png","I_Dist_200_LN_14_LD_30_RN_12_RD_18_1.png","I_Dist_200_LN_14_LD_30_RN_6_RD_9_1.png","I_Dist_200_LN_3_LD_10_RN_1_RD_2_1.png","I_Dist_200_LN_4_LD_30_RN_1_RD_3_1.png","I_Dist_200_LN_6_LD_20_RN_3_RD_6_1.png","I_Dist_200_LN_7_LD_15_RN_4_RD_6_1.png","I_Dist_200_LN_7_LD_15_RN_6_RD_9_1.png","I_Dist_200_LN_9_LD_15_RN_8_RD_10_1.png"]],"dist200_S":[["E_Dist_200_LN_3_LD_6_RN_3_RD_10_0.png"],["E_Dist_200_LN_3_LD_10_RN_3_RD_6_1.png"]],"dist300_C":[["C_Dist_300_LN_11_LD_22_RN_1_RD_5_0.png","C_Dist_300_LN_11_LD_22_RN_2_RD_10_0.png","C_Dist_300_LN_11_LD_22_RN_4_RD_20_0.png","C_Dist_300_LN_12_LD_24_RN_2_RD_10_0.png","C_Dist_300_LN_18_LD_20_RN_9_RD_15_0.png","C_Dist_300_LN_20_LD_25_RN_13_RD_26_0.png","C_Dist_300_LN_20_LD_25_RN_14_RD_28_0.png","C_Dist_300_LN_20_LD_25_RN_5_RD_10_0.png","C_Dist_300_LN_20_LD_25_RN_8_RD_16_0.png","C_Dist_300_LN_20_LD_25_RN_9_RD_18_0.png","C_Dist_300_LN_24_LD_30_RN_2_RD_4_0.png","C_Dist_300_LN_24_LD_30_RN_8_RD_16_0.png","C_Dist_300_LN_3_LD_6_RN_2_RD_10_0.png","C_Dist_300_LN_4_LD_10_RN_1_RD_10_0.png","C_Dist_300_LN_4_LD_5_RN_2_RD_4_0.png","C_Dist_300_LN_8_LD_16_RN_1_RD_5_0.png","C_Dist_300_LN_9_LD_10_RN_3_RD_5_0.png"],["C_Dist_300_LN_1_LD_20_RN_7_RD_20_1.png","C_Dist_300_LN_1_LD_3_RN_19_RD_30_1.png","C_Dist_300_LN_1_LD_30_RN_8_RD_24_1.png","C_Dist_300_LN_1_LD_5_RN_11_RD_22_1.png","C_Dist_300_LN_1_LD_5_RN_3_RD_6_1.png","C_Dist_300_LN_1_LD_5_RN_6_RD_12_1.png","C_Dist_300_LN_2_LD_10_RN_12_RD_24_1.png","C_Dist_300_LN_2_LD_20_RN_10_RD_25_1.png","C_Dist_300_LN_3_LD_12_RN_11_RD_20_1.png","C_Dist_300_LN_3_LD_6_RN_4_RD_5_1.png","C_Dist_300_LN_4_LD_20_RN_13_RD_26_1.png","C_Dist_300_LN_5_LD_25_RN_6_RD_12_1.png","C_Dist_300_LN_5_LD_25_RN_7_RD_14_1.png","C_Dist_300_LN_7_LD_14_RN_20_RD_25_1.png","C_Dist_300_LN_8_LD_15_RN_10_RD_12_1.png"]],"dist300_I":[["I_Dist_300_LN_1_LD_2_RN_2_RD_10_0.png","I_Dist_300_LN_1_LD_2_RN_3_RD_15_0.png","I_Dist_300_LN_2_LD_4_RN_6_RD_30_0.png","I_Dist_300_LN_3_LD_6_RN_4_RD_20_0.png","I_Dist_300_LN_4_LD_5_RN_6_RD_12_0.png","I_Dist_300_LN_4_LD_5_RN_8_RD_16_0.png","I_Dist_300_LN_7_LD_10_RN_8_RD_20_0.png","I_Dist_300_LN_8_LD_10_RN_14_RD_28_0.png","I_Dist_300_LN_8_LD_10_RN_9_RD_18_0.png"],["I_Dist_300_LN_13_LD_26_RN_12_RD_15_1.png","I_Dist_300_LN_4_LD_20_RN_2_RD_4_1.png"]],"dist300_S":[["E_Dist_300_LN_9_LD_12_RN_9_RD_20_0.png"],["E_Dist_300_LN_18_LD_30_RN_18_RD_20_1.png","E_Dist_300_LN_3_LD_10_RN_3_RD_5_1.png","E_Dist_300_LN_9_LD_20_RN_9_RD_12_1.png"]],"dist500_C":[["C_Dist_500_LN_10_LD_13_RN_7_RD_26_0.png","C_Dist_500_LN_10_LD_15_RN_4_RD_24_0.png","C_Dist_500_LN_12_LD_16_RN_3_RD_12_0.png","C_Dist_500_LN_12_LD_18_RN_4_RD_24_0.png","C_Dist_500_LN_15_LD_18_RN_5_RD_15_0.png","C_Dist_500_LN_15_LD_20_RN_1_RD_4_0.png","C_Dist_500_LN_18_LD_27_RN_1_RD_6_0.png","C_Dist_500_LN_20_LD_24_RN_1_RD_3_0.png","C_Dist_500_LN_20_LD_24_RN_3_RD_9_0.png","C_Dist_500_LN_20_LD_24_RN_7_RD_21_0.png","C_Dist_500_LN_20_LD_28_RN_3_RD_14_0.png","C_Dist_500_LN_21_LD_28_RN_6_RD_24_0.png","C_Dist_500_LN_22_LD_28_RN_2_RD_7_0.png","C_Dist_500_LN_25_LD_30_RN_9_RD_27_0.png","C_Dist_500_LN_4_LD_6_RN_1_RD_6_0.png","C_Dist_500_LN_5_LD_6_RN_2_RD_6_0.png","C_Dist_500_LN_6_LD_9_RN_1_RD_6_0.png","C_Dist_500_LN_7_LD_10_RN_1_RD_5_0.png","C_Dist_500_LN_8_LD_12_RN_1_RD_6_0.png","C_Dist_500_LN_8_LD_12_RN_4_RD_24_0.png"],["C_Dist_500_LN_1_LD_4_RN_12_RD_16_1.png","C_Dist_500_LN_1_LD_4_RN_9_RD_12_1.png","C_Dist_500_LN_1_LD_9_RN_11_RD_18_1.png","C_Dist_500_LN_10_LD_24_RN_22_RD_24_1.png","C_Dist_500_LN_2_LD_12_RN_10_RD_15_1.png","C_Dist_500_LN_2_LD_12_RN_12_RD_18_1.png","C_Dist_500_LN_2_LD_12_RN_4_RD_6_1.png","C_Dist_500_LN_2_LD_24_RN_7_RD_12_1.png","C_Dist_500_LN_2_LD_5_RN_18_RD_20_1.png","C_Dist_500_LN_2_LD_5_RN_9_RD_10_1.png","C_Dist_500_LN_2_LD_8_RN_12_RD_16_1.png","C_Dist_500_LN_2_LD_8_RN_21_RD_28_1.png","C_Dist_500_LN_3_LD_10_RN_4_RD_5_1.png","C_Dist_500_LN_3_LD_12_RN_15_RD_20_1.png","C_Dist_500_LN_3_LD_30_RN_6_RD_10_1.png","C_Dist_500_LN_3_LD_8_RN_14_RD_16_1.png","C_Dist_500_LN_4_LD_16_RN_15_RD_20_1.png","C_Dist_500_LN_4_LD_24_RN_12_RD_18_1.png","C_Dist_500_LN_5_LD_14_RN_6_RD_7_1.png","C_Dist_500_LN_7_LD_21_RN_20_RD_24_1.png","C_Dist_500_LN_7_LD_28_RN_12_RD_16_1.png","C_Dist_500_LN_7_LD_28_RN_9_RD_12_1.png","C_Dist_500_LN_9_LD_27_RN_20_RD_24_1.png"]],"dist500_I":[["I_Dist_500_LN_2_LD_3_RN_4_RD_24_0.png","I_Dist_500_LN_5_LD_6_RN_6_RD_18_0.png","I_Dist_500_LN_7_LD_8_RN_9_RD_24_0.png"],["I_Dist_500_LN_7_LD_21_RN_5_RD_6_1.png"]],"dist500_S":[["E_Dist_500_LN_6_LD_8_RN_6_RD_24_0.png"],["E_Dist_500_LN_2_LD_12_RN_2_RD_3_1.png","E_Dist_500_LN_6_LD_24_RN_6_RD_8_1.png"]]}},{"start_time":1552313129362,"click_time":1552313131312,"finger_time":1552313130951,"fix_duration":1289.485792440395,"trial":1,"RT":1589,"MT":361,"sideResp":1,"stimulus":[],"xmouse":[818,818,818,818,818,818,818,818,818,818,818,818,818,818,818,818,818,818,818,818,818,818,818,818,818,818,818,818,818,818,818,818,818,818,818,818,818,818,818,818,818,818,818,818,818,818,818,818,818,818,818,818,818,818,818,818,818,818,818,818,818,818,818,818,818,818,818,818,818,818,818,818,818,818,818,813,806,792,773,685,598,573,530,513,499,498,498,498,498,498,498,506,511,513,515,515,511,496],"ymouse":[541,541,541,541,541,541,541,541,541,541,541,541,541,541,541,541,541,541,541,541,541,541,541,541,541,541,541,541,541,541,541,541,541,541,541,541,541,541,541,541,541,541,541,541,541,541,541,541,541,541,541,541,541,541,541,541,541,541,541,541,541,541,541,541,541,541,541,541,541,541,541,541,541,541,541,535,526,510,489,417,358,339,308,288,239,220,207,200,197,197,195,191,191,189,168,144,113,52],"timestamp_mouse":[11,34,51,71,90,111,129,151,169,191,211,231,251,271,290,310,330,351,370,391,409,429,450,471,490,510,529,551,571,591,610,630,650,669,691,710,730,749,770,791,810,831,851,871,889,910,931,949,970,991,1009,1030,1050,1070,1091,1111,1130,1151,1170,1191,1210,1231,1250,1269,1289,1311,1330,1351,1369,1390,1411,1431,1451,1471,1491,1509,1530,1550,1571,1589,1609,1630,1650,1670,1690,1710,1729,1749,1770,1790,1810,1829,1850,1869,1890,1909,1930,1950],"xSR":741.5,"ySR":469.95,"xT1":424.9,"yT1":0,"xT2":1058.1,"yT2":0,"toosoon":0,"cond_shown":"Incongruent","ratio_trial":200,"L_num":3,"L_den":4,"R_num":11,"R_den":20,"correct_side":1,"subjID":"samuelcorba33","gender":"0","school":"4","age":"9"},{"start_time":1552313133625,"click_time":1552313135472,"finger_time":1552313135232,"fix_duration":250,"trial":2,"RT":1607,"MT":240,"sideResp":1,"stimulus":[],"xmouse":[822,822,822,822,822,822,822,822,822,822,821,821,821,821,821,821,821,821,821,821,821,821,821,821,821,821,821,821,821,821,821,821,821,821,821,821,821,821,821,821,821,821,821,821,821,821,821,821,821,821,821,821,821,821,821,821,821,821,821,821,821,821,821,821,821,821,821,821,821,821,821,821,821,821,821,821,821,808,790,766,735,677,657,636,622,615,604,591,581,568,554,525,517],"ymouse":[544,544,544,544,544,544,544,543,543,543,543,543,543,543,543,543,543,543,543,543,543,543,543,543,543,543,543,543,543,543,543,543,543,543,543,543,543,543,543,543,543,543,543,543,543,543,543,543,543,543,543,543,543,543,543,543,543,543,543,543,543,543,543,543,543,543,543,543,543,543,543,543,543,543,543,543,542,530,515,489,450,358,321,284,256,236,208,183,166,146,125,95,86],"timestamp_mouse":[22,39,46,66,86,107,126,147,168,186,206,228,247,267,286,306,327,346,367,388,408,426,448,466,487,507,527,548,567,586,608,627,648,666,687,708,727,748,767,787,808,827,846,867,886,907,928,946,968,988,1007,1027,1046,1067,1086,1106,1127,1146,1166,1188,1206,1227,1248,1266,1287,1308,1327,1348,1367,1388,1407,1426,1447,1468,1488,1506,1526,1547,1566,1588,1607,1628,1646,1667,1687,1707,1727,1746,1767,1787,1807,1828,1846],"xSR":741.5,"ySR":469.95,"xT1":424.9,"yT1":0,"xT2":1058.1,"yT2":0,"toosoon":0,"cond_shown":"Incongruent","ratio_trial":100,"L_num":6,"L_den":10,"R_num":7,"R_den":14,"correct_side":1,"subjID":"samuelcorba33","gender":"0","school":"4","age":"9"},{"start_time":1552313136643,"click_time":1552313139371,"finger_time":1552313137771,"fix_duration":250,"trial":3,"RT":1128,"MT":1600,"sideResp":2,"stimulus":[],"xmouse":[773,773,773,773,773,773,773,773,773,773,773,773,773,773,773,773,773,773,773,773,773,773,773,773,773,773,773,773,773,773,773,773,773,773,773,773,773,773,773,773,773,773,773,773,773,773,776,788,794,795,795,795,796,800,803,814,853,871,875,887,893,897,899,900,900,900,900,900,900,900,900,900,900,900,900,900,900,900,900,900,914,929,944,959,972,992,1016,1024,1031,1039,1045,1056,1063,1067,1073,1075,1077,1078,1080,1080,1080,1080,1080,1080,1080,1080,1080,1080,1080,1080,1080,1080,1080,1080,1080,1080,1079,1078,1075,1072,1069,1057,1051,1047,1044,1044,1046,1050,1053,1055,1055,1055,1055,1056,1057,1057,1062],"ymouse":[523,523,523,523,523,523,523,523,523,523,523,523,523,523,523,523,523,523,523,523,523,523,523,523,523,523,523,523,523,523,523,523,523,523,523,523,523,523,523,523,523,523,523,523,523,523,523,523,521,520,520,520,520,516,511,490,431,406,401,391,387,385,384,384,384,384,384,384,384,384,384,384,384,384,384,384,384,384,384,383,358,339,323,309,295,275,256,250,244,240,236,228,223,219,214,211,205,200,195,190,187,186,186,186,186,186,186,186,186,186,186,186,186,186,186,186,181,176,170,163,154,130,118,104,84,67,36,21,8,0,0,0,0,0,5,9,18],"timestamp_mouse":[11,39,49,70,90,109,129,150,170,190,208,228,250,270,290,308,328,350,370,389,408,429,450,470,490,509,529,549,570,590,609,629,649,670,690,710,729,749,769,789,809,829,848,869,888,910,930,948,969,989,1010,1030,1049,1068,1089,1109,1128,1149,1169,1189,1210,1229,1250,1269,1290,1308,1328,1349,1369,1389,1410,1428,1448,1469,1488,1509,1529,1550,1569,1588,1610,1628,1649,1670,1689,1709,1729,1748,1768,1789,1809,1829,1849,1868,1888,1908,1929,1948,1969,1988,2008,2029,2050,2069,2089,2109,2130,2149,2169,2189,2209,2228,2249,2269,2290,2309,2330,2349,2369,2388,2408,2428,2448,2468,2489,2510,2528,2548,2568,2589,2609,2629,2649,2669,2688,2708,2728],"xSR":741.5,"ySR":469.95,"xT1":424.9,"yT1":0,"xT2":1058.1,"yT2":0,"toosoon":0,"cond_shown":"Congruent","ratio_trial":200,"L_num":15,"L_den":25,"R_num":4,"R_den":10,"correct_side":1,"subjID":"samuelcorba33","gender":"0","school":"4","age":"9"},{"start_time":1552313142928,"click_time":1552313144132,"finger_time":1552313143391,"fix_duration":873.4899785888477,"trial":4,"RT":463,"MT":741,"sideResp":1,"stimulus":[],"xmouse":[817,817,817,817,817,817,817,817,817,817,817,817,817,817,817,817,817,817,817,817,817,817,817,796,780,762,750,743,743,742,737,723,702,639,606,577,559,535,530,530,530,530,530,530,530,530,530,530,530,530,530,530,530,530,530,530,530,530,530,530,466],"ymouse":[498,498,498,498,498,498,498,498,498,498,498,498,498,498,498,498,498,498,498,498,498,498,491,468,446,420,401,387,385,382,376,362,348,299,255,197,139,17,5,5,5,5,5,5,5,5,5,5,5,5,5,5,5,5,5,5,5,5,5,5,1],"timestamp_mouse":[10,24,44,64,83,104,124,144,165,185,203,223,245,263,285,305,323,343,365,384,404,423,444,463,484,504,523,544,563,584,604,624,644,663,684,704,724,744,763,783,803,824,845,864,884,904,924,944,964,985,1004,1025,1044,1064,1084,1103,1124,1145,1163,1183,1204],"xSR":741.5,"ySR":469.95,"xT1":424.9,"yT1":0,"xT2":1058.1,"yT2":0,"toosoon":0,"cond_shown":"Congruent","ratio_trial":100,"L_num":11,"L_den":22,"R_num":4,"R_den":10,"correct_side":1,"subjID":"samuelcorba33","gender":"0","school":"4","age":"9"},{"start_time":1552313145521,"click_time":1552313146492,"finger_time":1552313145911,"fix_duration":307.9278295828862,"trial":5,"RT":390,"MT":581,"sideResp":1,"stimulus":[],"xmouse":[798,798,798,798,798,798,799,800,800,801,801,802,802,804,805,808,810,810,812,812,809,803,794,770,759,747,733,710,686,681,675,669,651,641,636,622,607,596,594,594,593,587,577,555,548,540,529,520,507],"ymouse":[519,519,519,519,519,519,519,518,517,517,517,517,517,516,515,512,508,501,475,462,448,430,408,362,342,322,302,276,253,248,242,234,204,186,180,168,157,152,152,152,152,150,146,136,131,126,117,112,97],"timestamp_mouse":[11,44,52,70,92,112,131,150,172,190,212,231,252,270,291,310,331,351,370,390,410,431,451,470,491,511,530,552,570,591,612,631,652,670,691,710,732,751,771,791,812,831,851,870,890,911,930,951,971],"xSR":741.5,"ySR":469.95,"xT1":424.9,"yT1":0,"xT2":1058.1,"yT2":0,"toosoon":0,"cond_shown":"Incongruent","ratio_trial":100,"L_num":13,"L_den":26,"R_num":6,"R_den":10,"correct_side":2,"subjID":"samuelcorba33","gender":"0","school":"4","age":"9"},{"start_time":1552313147705,"click_time":1552313149652,"finger_time":1552313149212,"fix_duration":250,"trial":6,"RT":1507,"MT":440,"sideResp":1,"stimulus":[],"xmouse":[775,775,775,775,775,775,775,775,775,775,775,775,775,775,775,775,775,775,775,775,775,775,775,775,775,775,775,775,775,775,775,775,775,775,775,775,776,776,776,776,776,776,776,776,776,776,776,776,776,776,776,777,778,778,778,779,779,779,779,779,779,779,779,779,779,779,779,779,779,779,780,780,780,780,769,737,726,664,604,604,604,604,604,604,604,604,604,604,604,604,604,604,604,604,604,604,604,459],"ymouse":[528,528,528,528,528,528,528,528,528,528,528,528,528,528,528,528,528,528,528,528,528,528,528,528,528,528,528,528,528,528,528,528,528,528,528,528,527,527,527,527,527,527,527,527,527,527,527,527,527,527,527,527,527,527,527,527,527,527,527,527,527,526,526,526,526,526,526,526,526,525,524,524,521,518,485,409,369,155,21,21,21,21,21,21,21,21,21,21,21,21,21,21,21,21,21,21,21,1],"timestamp_mouse":[17,33,46,67,87,106,128,148,166,186,208,228,246,267,286,307,326,347,368,386,408,428,446,467,488,508,527,548,567,588,606,628,648,666,688,708,727,747,767,788,808,827,847,868,888,906,927,948,967,986,1007,1026,1046,1068,1086,1106,1127,1148,1166,1187,1207,1227,1248,1267,1288,1307,1328,1348,1366,1387,1407,1428,1446,1466,1486,1507,1527,1547,1568,1587,1607,1627,1648,1667,1687,1707,1727,1747,1767,1787,1807,1827,1846,1866,1886,1906,1926,1947],"xSR":741.5,"ySR":469.95,"xT1":424.9,"yT1":0,"xT2":1058.1,"yT2":0,"toosoon":0,"cond_shown":"Congruent","ratio_trial":100,"L_num":1,"L_den":2,"R_num":3,"R_den":5,"correct_side":2,"subjID":"samuelcorba33","gender":"0","school":"4","age":"9"},{"start_time":1552313155264,"click_time":1552313156811,"finger_time":1552313156272,"fix_duration":250,"trial":7,"RT":1008,"MT":539,"sideResp":1,"stimulus":[],"xmouse":[790,790,790,790,790,790,790,790,790,790,790,790,790,790,790,790,790,790,790,790,790,790,790,790,790,790,790,790,790,790,790,790,790,790,790,790,790,790,790,790,790,790,790,790,790,790,790,790,789,789,785,782,775,771,768,758,755,751,749,749,748,748,741,733,725,709,698,671,656,637,624,610,590,572,559,545,532,503],"ymouse":[511,511,511,511,511,511,511,511,511,511,511,511,511,511,511,511,511,511,511,511,511,511,511,511,511,511,511,511,511,511,511,511,511,511,511,511,511,511,511,511,511,511,511,511,511,511,511,511,510,482,457,436,398,378,354,304,276,246,238,232,230,230,227,226,224,218,214,200,190,178,169,157,139,120,108,98,87,67],"timestamp_mouse":[11,30,48,68,89,109,129,148,168,188,209,227,249,269,288,308,327,349,369,388,408,428,448,469,487,508,529,549,567,588,608,628,649,668,688,709,729,747,767,789,809,829,848,868,888,909,928,948,967,989,1008,1028,1047,1067,1088,1108,1128,1148,1167,1196,1208,1227,1247,1268,1288,1308,1328,1349,1367,1388,1407,1429,1447,1468,1488,1509,1529,1547],"xSR":741.5,"ySR":469.95,"xT1":424.9,"yT1":0,"xT2":1058.1,"yT2":0,"toosoon":0,"cond_shown":"Congruent","ratio_trial":100,"L_num":10,"L_den":25,"R_num":3,"R_den":10,"correct_side":1,"subjID":"samuelcorba33","gender":"0","school":"4","age":"9"},{"start_time":1552313158123,"click_time":1552313158854,"finger_time":1552313158494,"fix_duration":250,"trial":8,"RT":371,"MT":360,"sideResp":1,"stimulus":[],"xmouse":[754,754,754,754,754,754,754,754,754,754,754,754,754,754,754,754,755,755,736,679,661,647,644,644,643,642,638,635,626,610,599,590,574,553,533,527,523],"ymouse":[512,512,512,512,512,512,512,512,512,512,512,512,512,512,512,512,502,491,445,339,303,280,273,270,261,253,239,228,210,182,157,136,99,64,36,30,27],"timestamp_mouse":[10,34,49,71,91,111,131,151,170,192,211,231,250,270,290,311,331,350,371,391,411,430,452,471,490,510,531,551,570,590,610,630,651,670,690,710,731],"xSR":741.5,"ySR":469.95,"xT1":424.9,"yT1":0,"xT2":1058.1,"yT2":0,"toosoon":0,"cond_shown":"Congruent","ratio_trial":300,"L_num":9,"L_den":10,"R_num":3,"R_den":5,"correct_side":1,"subjID":"samuelcorba33","gender":"0","school":"4","age":"9"},{"start_time":1552313160814,"click_time":1552313161693,"finger_time":1552313161213,"fix_duration":1180.448928800261,"trial":9,"RT":399,"MT":480,"sideResp":1,"stimulus":[],"xmouse":[827,827,827,827,827,827,827,827,827,827,827,827,827,827,827,827,827,827,823,811,774,758,752,747,738,731,723,712,699,675,662,652,642,628,586,570,559,551,545,537,535,531,528,523],"ymouse":[541,541,541,541,541,541,541,541,541,541,541,541,541,541,541,534,514,495,471,440,374,349,342,326,293,275,263,249,231,198,183,168,154,136,94,82,74,69,66,64,63,61,60,59],"timestamp_mouse":[30,39,59,79,99,119,140,160,180,199,219,240,259,280,299,320,339,359,379,399,419,439,460,479,500,519,539,559,580,600,619,639,659,680,699,719,739,760,780,800,819,839,859,879],"xSR":741.5,"ySR":469.95,"xT1":424.9,"yT1":0,"xT2":1058.1,"yT2":0,"toosoon":0,"cond_shown":"Congruent","ratio_trial":200,"L_num":3,"L_den":10,"R_num":11,"R_den":22,"correct_side":2,"subjID":"samuelcorba33","gender":"0","school":"4","age":"9"},{"start_time":1552313163563,"click_time":1552313165073,"finger_time":1552313164573,"fix_duration":929.2007871585427,"trial":10,"RT":1010,"MT":500,"sideResp":1,"stimulus":[],"xmouse":[804,804,804,804,804,804,804,804,804,804,804,804,804,804,804,804,804,804,804,804,804,804,804,804,804,804,804,804,804,804,804,804,804,804,804,804,804,804,804,804,804,804,804,804,804,804,804,804,804,790,769,739,704,666,656,649,635,625,607,600,596,593,591,586,584,577,574,570,564,559,553,548,543,533,527,519],"ymouse":[490,490,490,490,490,490,490,490,490,490,490,490,490,490,490,490,490,490,490,490,490,490,490,490,490,490,490,490,490,490,490,490,490,490,490,490,490,490,490,490,490,490,490,490,490,490,490,490,490,471,442,403,360,316,300,282,251,233,206,199,193,190,187,180,176,167,162,156,149,142,135,126,120,99,85,70],"timestamp_mouse":[10,33,51,70,90,111,131,151,170,191,211,231,251,270,290,310,332,352,371,390,411,430,450,471,491,510,531,550,571,590,611,631,650,671,691,711,730,750,770,790,811,831,850,870,890,911,930,950,971,991,1010,1030,1050,1070,1091,1111,1132,1151,1170,1190,1210,1230,1251,1270,1291,1310,1330,1350,1370,1390,1410,1430,1451,1470,1491,1510],"xSR":741.5,"ySR":469.95,"xT1":424.9,"yT1":0,"xT2":1058.1,"yT2":0,"toosoon":0,"cond_shown":"Congruent","ratio_trial":200,"L_num":9,"L_den":30,"R_num":13,"R_den":26,"correct_side":2,"subjID":"samuelcorba33","gender":"0","school":"4","age":"9"},{"start_time":1552313166386,"click_time":1552313167653,"finger_time":1552313167254,"fix_duration":250,"trial":11,"RT":868,"MT":399,"sideResp":1,"stimulus":[],"xmouse":[776,776,776,776,776,776,776,776,776,776,776,776,776,776,776,776,776,776,776,776,776,776,776,776,776,776,776,776,776,776,776,776,776,776,776,776,776,776,776,776,776,775,770,765,765,765,765,766,766,766,766,763,759,743,735,725,714,690,666,635,608,583,532,511],"ymouse":[503,503,503,503,503,503,503,503,503,503,503,503,503,503,503,503,503,503,503,503,503,503,503,503,503,503,503,503,503,503,503,503,503,503,503,503,503,503,503,503,503,494,480,466,458,452,449,445,442,436,423,410,396,365,353,339,327,300,274,239,211,181,124,95],"timestamp_mouse":[8,38,49,67,87,108,127,148,168,187,208,229,248,268,289,308,327,347,368,388,407,428,447,467,488,507,528,548,567,588,607,627,648,667,687,708,728,747,767,788,807,827,847,867,887,908,927,947,967,988,1008,1028,1047,1067,1087,1107,1128,1147,1167,1188,1207,1229,1247,1267],"xSR":741.5,"ySR":469.95,"xT1":424.9,"yT1":0,"xT2":1058.1,"yT2":0,"toosoon":0,"cond_shown":"Congruent","ratio_trial":200,"L_num":3,"L_den":6,"R_num":14,"R_den":20,"correct_side":2,"subjID":"samuelcorba33","gender":"0","school":"4","age":"9"},{"start_time":1552313170080,"click_time":1552313171014,"finger_time":1552313170513,"fix_duration":1485.9833602922613,"trial":12,"RT":433,"MT":501,"sideResp":2,"stimulus":[],"xmouse":[760,760,760,760,760,760,761,761,761,761,761,761,761,761,762,763,765,771,774,777,785,792,811,826,850,895,941,1033,1047,1053,1055,1057,1064,1070,1077,1083,1087,1087,1087,1087,1087,1087,1087,1087,1087,1088,1090],"ymouse":[514,514,514,514,514,514,514,514,514,514,514,514,514,514,514,514,512,499,495,488,474,458,408,387,357,319,287,231,223,219,215,209,188,173,159,147,135,129,129,129,129,129,129,128,122,109,93],"timestamp_mouse":[14,43,54,73,93,113,134,153,173,195,214,234,254,275,293,313,334,355,373,393,414,433,454,473,493,514,533,554,573,593,614,633,654,674,694,714,734,754,773,793,814,834,854,873,893,914,934],"xSR":741.5,"ySR":469.95,"xT1":424.9,"yT1":0,"xT2":1058.1,"yT2":0,"toosoon":0,"cond_shown":"Incongruent","ratio_trial":300,"L_num":2,"L_den":4,"R_num":6,"R_den":30,"correct_side":1,"subjID":"samuelcorba33","gender":"0","school":"4","age":"9"},{"start_time":1552313172408,"click_time":1552313173835,"finger_time":1552313173313,"fix_duration":632.4666190797429,"trial":13,"RT":905,"MT":522,"sideResp":2,"stimulus":[],"xmouse":[765,765,765,765,765,765,765,765,765,765,765,765,765,765,765,765,765,765,765,765,765,765,765,765,766,767,767,768,768,768,768,768,768,768,768,768,768,768,768,768,769,772,785,799,814,831,859,869,876,887,905,915,931,943,952,960,964,969,973,978,980,982,987,988,991,994,1003,1023,1034,1050,1055,1062],"ymouse":[531,531,531,531,531,531,531,531,531,531,531,531,531,531,531,531,531,531,531,531,531,531,531,531,528,526,523,521,520,520,520,520,520,520,520,520,520,520,520,520,520,519,513,502,480,458,414,393,370,349,319,305,278,258,234,209,190,163,149,136,132,127,122,121,119,118,115,104,95,82,77,73],"timestamp_mouse":[11,38,45,65,85,105,125,147,165,186,206,226,246,266,287,305,326,346,365,385,405,426,446,465,486,506,526,546,566,585,606,625,646,665,685,706,726,746,774,785,805,825,846,865,885,905,926,946,966,985,1005,1026,1046,1065,1085,1106,1125,1145,1166,1185,1205,1225,1246,1265,1286,1305,1326,1345,1365,1385,1407,1427],"xSR":741.5,"ySR":469.95,"xT1":424.9,"yT1":0,"xT2":1058.1,"yT2":0,"toosoon":0,"cond_shown":"Incongruent","ratio_trial":300,"L_num":1,"L_den":2,"R_num":3,"R_den":15,"correct_side":1,"subjID":"samuelcorba33","gender":"0","school":"4","age":"9"},{"start_time":1552313178645,"click_time":1552313180494,"finger_time":1552313179054,"fix_duration":250,"trial":14,"RT":409,"MT":1440,"sideResp":1,"stimulus":[],"xmouse":[824,824,824,824,824,824,824,824,824,824,824,824,824,824,824,824,824,824,824,839,891,901,901,901,901,901,901,901,901,901,901,901,901,899,888,868,808,791,780,773,764,758,752,747,745,744,744,744,744,744,744,744,744,744,744,744,744,744,744,744,744,744,744,744,744,744,744,744,738,735,721,714,707,695,681,666,621,609,596,587,577,574,568,563,560,560,560,560,560,556,540,529,524],"ymouse":[568,568,568,568,568,568,568,568,568,568,568,568,568,568,568,568,568,568,568,556,520,512,511,511,511,511,511,511,511,511,511,511,511,510,508,506,488,484,480,479,479,480,483,488,491,491,491,491,491,491,491,491,491,491,491,491,491,491,491,491,491,491,491,491,491,491,491,491,470,458,415,397,379,359,333,307,216,196,178,167,154,147,135,126,118,118,117,117,115,110,97,92,88],"timestamp_mouse":[11,39,48,68,88,108,129,150,169,189,208,228,250,268,289,309,329,350,369,388,409,428,448,469,490,509,528,548,570,588,609,628,648,669,688,708,730,748,768,788,809,828,849,868,889,908,928,950,969,988,1008,1029,1048,1068,1089,1109,1128,1148,1169,1189,1210,1229,1249,1269,1289,1308,1330,1349,1369,1389,1409,1428,1449,1468,1488,1508,1528,1548,1569,1589,1610,1628,1648,1668,1688,1708,1728,1748,1769,1788,1810,1828,1849],"xSR":741.5,"ySR":469.95,"xT1":424.9,"yT1":0,"xT2":1058.1,"yT2":0,"toosoon":0,"cond_shown":"Incongruent","ratio_trial":300,"L_num":4,"L_den":20,"R_num":2,"R_den":4,"correct_side":2,"subjID":"samuelcorba33","gender":"0","school":"4","age":"9"},{"start_time":1552313182574,"click_time":1552313183654,"finger_time":1552313183354,"fix_duration":460.47663939415986,"trial":15,"RT":780,"MT":300,"sideResp":1,"stimulus":[],"xmouse":[796,796,796,796,796,796,796,796,796,796,796,796,796,796,796,796,796,796,796,796,796,796,796,796,796,796,796,796,796,796,796,796,796,796,796,796,798,798,798,798,797,792,787,779,774,771,763,747,723,627,570,507,458,431],"ymouse":[527,527,527,527,527,527,527,527,527,527,527,527,527,527,527,527,527,527,527,527,527,527,527,527,527,527,527,527,527,527,527,527,527,527,527,527,520,490,457,416,395,374,355,338,324,316,307,292,273,216,178,133,100,82],"timestamp_mouse":[30,39,59,79,100,119,141,159,180,200,219,239,260,280,300,320,340,359,380,401,419,439,459,479,499,519,539,559,581,600,620,639,659,679,700,721,739,760,780,800,819,839,859,879,900,921,939,959,980,999,1021,1039,1059,1080],"xSR":741.5,"ySR":469.95,"xT1":424.9,"yT1":0,"xT2":1058.1,"yT2":0,"toosoon":0,"cond_shown":"Incongruent","ratio_trial":300,"L_num":8,"L_den":10,"R_num":14,"R_den":28,"correct_side":1,"subjID":"samuelcorba33","gender":"0","school":"4","age":"9"},{"start_time":1552313185126,"click_time":1552313185695,"finger_time":1552313185533,"fix_duration":250,"trial":16,"RT":407,"MT":162,"sideResp":1,"stimulus":[],"xmouse":[777,777,777,777,777,777,777,777,777,777,777,777,777,777,777,777,777,777,768,744,705,672,630,568,544,534,533,528,522],"ymouse":[555,555,555,555,555,555,555,555,555,555,555,555,555,555,555,555,555,555,531,489,427,376,318,221,172,132,101,54,29],"timestamp_mouse":[10,31,47,67,87,108,128,147,172,187,207,228,247,268,288,307,327,347,368,387,407,428,447,467,487,508,527,547,569],"xSR":741.5,"ySR":469.95,"xT1":424.9,"yT1":0,"xT2":1058.1,"yT2":0,"toosoon":0,"cond_shown":"Incongruent","ratio_trial":300,"L_num":4,"L_den":5,"R_num":6,"R_den":12,"correct_side":1,"subjID":"samuelcorba33","gender":"0","school":"4","age":"9"},{"start_time":1552313186814,"click_time":1552313187694,"finger_time":1552313187113,"fix_duration":318.2690301118669,"trial":17,"RT":299,"MT":581,"sideResp":1,"stimulus":[],"xmouse":[758,758,758,758,758,758,758,758,758,758,758,758,758,758,758,753,742,734,715,704,690,681,676,670,665,661,656,650,623,602,589,580,570,555,550,546,543,541,541,541,541,540,535,531,521],"ymouse":[486,486,486,486,486,486,486,486,486,486,486,486,486,486,479,455,429,408,375,359,344,335,330,326,322,318,311,299,251,216,194,179,160,116,107,97,91,89,87,87,87,87,87,86,82],"timestamp_mouse":[1,26,40,59,80,100,121,140,159,180,200,219,240,259,279,299,319,339,360,379,399,420,439,460,479,499,520,539,560,579,599,620,640,660,679,699,720,739,760,779,799,819,839,860,880],"xSR":741.5,"ySR":469.95,"xT1":424.9,"yT1":0,"xT2":1058.1,"yT2":0,"toosoon":0,"cond_shown":"Incongruent","ratio_trial":200,"L_num":7,"L_den":10,"R_num":12,"R_den":24,"correct_side":1,"subjID":"samuelcorba33","gender":"0","school":"4","age":"9"},{"start_time":1552313190062,"click_time":1552313190634,"finger_time":1552313190414,"fix_duration":1427.8131830735615,"trial":18,"RT":352,"MT":220,"sideResp":1,"stimulus":[],"xmouse":[768,768,768,768,768,768,768,768,768,768,768,768,768,768,768,768,768,768,768,767,763,755,748,734,713,663,543,481,466],"ymouse":[506,506,506,506,506,506,506,506,506,506,506,506,506,506,506,506,497,469,451,431,421,408,398,384,360,303,177,117,99],"timestamp_mouse":[12,31,51,71,92,111,131,151,172,193,212,232,251,272,292,312,331,352,371,391,411,431,451,471,491,511,531,553,572],"xSR":741.5,"ySR":469.95,"xT1":424.9,"yT1":0,"xT2":1058.1,"yT2":0,"toosoon":0,"cond_shown":"Incongruent","ratio_trial":200,"L_num":7,"L_den":10,"R_num":12,"R_den":24,"correct_side":1,"subjID":"samuelcorba33","gender":"0","school":"4","age":"9"},{"start_time":1552313192887,"click_time":1552313193633,"finger_time":1552313193254,"fix_duration":1190.2344968702232,"trial":19,"RT":367,"MT":379,"sideResp":1,"stimulus":[],"xmouse":[794,794,794,794,794,794,794,794,794,794,794,794,794,794,794,794,794,787,759,718,633,596,576,566,562,560,560,560,560,559,557,554,550,547,543,534,527,524],"ymouse":[536,536,536,536,536,536,536,536,536,536,536,536,536,536,536,536,535,507,454,387,245,186,151,132,121,112,109,109,109,105,89,82,74,69,64,56,52,50],"timestamp_mouse":[9,38,47,68,86,107,127,146,167,186,206,227,248,268,287,307,326,346,367,387,406,426,446,466,486,506,528,547,566,586,606,626,646,666,687,706,727,746],"xSR":741.5,"ySR":469.95,"xT1":424.9,"yT1":0,"xT2":1058.1,"yT2":0,"toosoon":0,"cond_shown":"Incongruent","ratio_trial":200,"L_num":11,"L_den":20,"R_num":3,"R_den":4,"correct_side":2,"subjID":"samuelcorba33","gender":"0","school":"4","age":"9"},{"start_time":1552313195410,"click_time":1552313196534,"finger_time":1552313195934,"fix_duration":716.5064085980599,"trial":20,"RT":524,"MT":600,"sideResp":1,"stimulus":[],"xmouse":[762,762,762,762,762,762,762,762,762,762,762,762,762,762,762,762,762,762,762,763,763,763,763,764,765,765,761,746,711,675,604,580,564,552,545,545,545,545,545,542,540,538,536,536,536,536,536,536,536,536,536,535,535,535,535,531,523],"ymouse":[504,504,504,504,504,504,504,504,504,504,504,504,504,504,504,504,504,504,504,504,504,504,504,501,491,474,451,410,349,302,233,208,188,176,167,167,167,167,165,144,132,119,113,110,109,109,109,109,109,109,109,108,108,108,108,100,92],"timestamp_mouse":[11,29,44,63,83,103,123,143,165,183,203,223,244,263,283,303,324,344,363,385,404,423,443,463,484,503,524,543,563,583,604,623,644,664,684,703,723,743,765,784,803,823,844,863,883,904,923,943,964,984,1003,1024,1044,1063,1084,1103,1123],"xSR":741.5,"ySR":469.95,"xT1":424.9,"yT1":0,"xT2":1058.1,"yT2":0,"toosoon":0,"cond_shown":"Incongruent","ratio_trial":100,"L_num":2,"L_den":4,"R_num":8,"R_den":20,"correct_side":1,"subjID":"samuelcorba33","gender":"0","school":"4","age":"9"},{"start_time":1552313198156,"click_time":1552313199234,"finger_time":1552313198694,"fix_duration":541.4230095138762,"trial":21,"RT":538,"MT":540,"sideResp":1,"stimulus":[],"xmouse":[758,758,758,758,758,758,758,758,758,758,758,758,758,758,758,758,758,758,758,758,758,758,758,758,757,751,739,734,726,709,668,629,588,574,563,553,546,535,535,535,535,535,541,544,544,544,542,541,541,541,541,541,533,522],"ymouse":[512,512,512,512,512,512,512,512,512,512,512,512,512,512,512,512,512,512,512,512,512,512,512,506,495,478,438,416,389,349,273,222,183,173,163,155,147,134,134,134,134,129,106,94,80,71,64,60,60,60,60,60,60,60],"timestamp_mouse":[18,40,57,78,98,118,138,157,179,198,218,238,258,278,297,318,337,358,378,398,417,437,458,477,497,518,538,557,578,598,617,637,657,677,698,718,737,757,778,797,819,839,857,878,898,918,937,957,977,998,1017,1038,1058,1077],"xSR":741.5,"ySR":469.95,"xT1":424.9,"yT1":0,"xT2":1058.1,"yT2":0,"toosoon":0,"cond_shown":"Congruent","ratio_trial":200,"L_num":20,"L_den":25,"R_num":9,"R_den":15,"correct_side":1,"subjID":"samuelcorba33","gender":"0","school":"4","age":"9"},{"start_time":1552313202735,"click_time":1552313204214,"finger_time":1552313203833,"fix_duration":1000.6062141379953,"trial":22,"RT":1098,"MT":381,"sideResp":2,"stimulus":[],"xmouse":[796,796,796,796,796,796,796,796,796,796,796,796,796,796,796,796,796,796,796,796,796,796,796,796,796,796,796,796,796,796,796,796,796,796,796,796,796,796,796,796,796,796,796,796,796,796,796,796,796,796,796,796,812,833,846,862,883,903,924,961,965,967,969,973,987,992,996,1001,1019,1043,1061,1076,1088,1101],"ymouse":[502,502,502,502,502,502,502,502,502,502,502,502,502,502,502,502,502,502,502,502,502,502,502,502,502,502,502,502,502,502,502,502,502,502,502,502,502,502,502,502,502,502,502,502,502,502,502,502,502,502,502,502,495,477,464,451,436,421,406,380,376,370,366,359,340,331,322,311,262,216,189,162,133,85],"timestamp_mouse":[18,39,59,78,99,119,138,159,178,199,218,238,258,279,298,319,339,358,379,398,418,438,459,478,499,519,539,559,580,599,619,640,660,679,698,720,739,759,778,798,819,839,859,878,899,918,938,958,978,999,1018,1039,1059,1079,1098,1118,1138,1158,1179,1198,1218,1240,1259,1278,1298,1319,1339,1358,1378,1399,1418,1439,1458,1478],"xSR":741.5,"ySR":469.95,"xT1":424.9,"yT1":0,"xT2":1058.1,"yT2":0,"toosoon":0,"cond_shown":"Congruent","ratio_trial":200,"L_num":12,"L_den":20,"R_num":6,"R_den":15,"correct_side":1,"subjID":"samuelcorba33","gender":"0","school":"4","age":"9"},{"start_time":1552313207445,"click_time":1552313209633,"finger_time":1552313208194,"fix_duration":250,"trial":23,"RT":749,"MT":1439,"sideResp":1,"stimulus":[],"xmouse":[779,777,775,775,775,775,775,774,772,770,770,770,770,770,770,770,770,770,770,770,767,764,754,749,745,745,744,744,744,744,744,744,744,744,745,745,745,738,722,664,600,579,502,451,354,314,289,275,272,272,280,283,283,283,283,283,283,287,292,310,315,320,326,335,343,343,343,343,343,343,343,343,343,351,423,467,513,549,579,591,591,591,591,591,591,590,590,590,584,552,544,540,539,539,539,539,539,539,539,539,539,539,539,539,539,539,537,535,529,518],"ymouse":[514,516,518,518,518,518,518,518,518,518,518,518,518,518,518,518,518,518,518,518,518,519,528,535,542,543,544,544,544,544,544,544,544,543,534,527,518,507,491,450,428,425,415,404,363,340,320,307,296,252,207,180,160,150,141,141,139,137,136,130,128,125,122,118,114,114,114,114,114,114,114,114,114,114,114,114,114,109,102,96,94,94,94,94,91,90,87,85,79,66,59,56,55,55,55,55,55,55,55,54,53,53,53,53,53,53,53,53,53,59],"timestamp_mouse":[12,34,48,68,90,108,129,148,169,189,208,229,249,270,289,308,329,349,369,388,409,428,448,468,488,508,530,549,569,589,610,629,648,669,688,709,729,749,768,788,808,828,849,868,889,908,928,949,970,988,1009,1029,1049,1068,1088,1108,1129,1148,1169,1188,1208,1228,1248,1270,1289,1309,1328,1349,1369,1389,1409,1429,1448,1468,1488,1508,1528,1549,1570,1588,1610,1629,1648,1669,1689,1708,1729,1748,1769,1788,1809,1829,1848,1869,1889,1909,1928,1950,1968,1988,2008,2029,2049,2069,2088,2108,2129,2149,2169,2188],"xSR":741.5,"ySR":469.95,"xT1":424.9,"yT1":0,"xT2":1058.1,"yT2":0,"toosoon":0,"cond_shown":"Incongruent","ratio_trial":300,"L_num":4,"L_den":20,"R_num":2,"R_den":4,"correct_side":2,"subjID":"samuelcorba33","gender":"0","school":"4","age":"9"},{"start_time":1552313211804,"click_time":1552313212854,"finger_time":1552313212473,"fix_duration":849.2445622512424,"trial":24,"RT":669,"MT":381,"sideResp":1,"stimulus":[],"xmouse":[784,784,784,784,784,784,784,784,784,784,784,784,784,784,784,784,784,784,784,784,784,784,784,784,784,784,784,784,784,784,784,782,757,736,715,701,687,637,611,579,545,488,467,456,446,438,427,423,422,421,421,424,428],"ymouse":[554,554,554,554,554,554,554,554,554,554,554,554,554,554,554,554,554,554,554,554,554,554,554,554,554,554,554,554,554,554,554,554,539,521,493,474,454,389,367,334,287,207,178,167,155,148,132,126,122,119,116,102,96],"timestamp_mouse":[11,30,50,69,89,110,130,150,170,189,211,229,249,269,289,310,330,349,369,391,409,429,450,470,490,510,530,549,570,589,609,630,650,669,689,709,729,749,770,790,810,829,849,869,891,910,931,949,969,990,1009,1030,1049],"xSR":741.5,"ySR":469.95,"xT1":424.9,"yT1":0,"xT2":1058.1,"yT2":0,"toosoon":0,"cond_shown":"Incongruent","ratio_trial":100,"L_num":6,"L_den":10,"R_num":7,"R_den":14,"correct_side":1,"subjID":"samuelcorba33","gender":"0","school":"4","age":"9"},{"start_time":1552313215703,"click_time":1552313216293,"finger_time":1552313216054,"fix_duration":577.1990732963835,"trial":25,"RT":351,"MT":239,"sideResp":1,"stimulus":[],"xmouse":[789,789,788,787,782,781,780,780,780,780,780,779,779,777,775,769,748,698,671,640,615,587,531,511,501,490,485,477,474,472],"ymouse":[534,534,533,530,524,522,521,521,521,521,521,521,521,520,518,508,482,430,403,372,345,302,219,189,172,154,140,117,107,97],"timestamp_mouse":[12,32,50,71,91,110,131,151,170,191,212,231,251,270,290,310,330,351,370,391,411,430,450,470,491,510,530,550,570,590],"xSR":741.5,"ySR":469.95,"xT1":424.9,"yT1":0,"xT2":1058.1,"yT2":0,"toosoon":0,"cond_shown":"Incongruent","ratio_trial":300,"L_num":13,"L_den":26,"R_num":12,"R_den":15,"correct_side":2,"subjID":"samuelcorba33","gender":"0","school":"4","age":"9"},{"start_time":1552313217405,"click_time":1552313218354,"finger_time":1552313218053,"fix_duration":250,"trial":26,"RT":648,"MT":301,"sideResp":1,"stimulus":[],"xmouse":[801,801,801,801,800,799,798,796,796,796,796,796,796,796,796,796,796,796,796,796,796,796,796,796,796,796,796,796,796,796,795,793,778,758,740,721,705,678,655,647,616,587,536,520,510,506,501,495],"ymouse":[508,508,508,508,508,508,508,508,508,508,508,508,508,508,508,508,508,508,508,508,508,508,508,508,508,508,508,508,508,508,503,496,469,449,431,419,409,391,369,359,321,280,201,177,156,140,124,95],"timestamp_mouse":[9,32,48,68,88,109,128,148,168,188,209,229,248,269,288,308,330,349,369,388,409,429,450,469,489,509,528,550,569,588,609,628,648,668,688,709,728,748,768,788,810,829,849,868,889,909,929,949],"xSR":741.5,"ySR":469.95,"xT1":424.9,"yT1":0,"xT2":1058.1,"yT2":0,"toosoon":0,"cond_shown":"Congruent","ratio_trial":100,"L_num":12,"L_den":30,"R_num":13,"R_den":26,"correct_side":2,"subjID":"samuelcorba33","gender":"0","school":"4","age":"9"},{"start_time":1552313219840,"click_time":1552313220574,"finger_time":1552313220234,"fix_duration":624.353905563668,"trial":27,"RT":394,"MT":340,"sideResp":1,"stimulus":[],"xmouse":[799,799,799,799,799,799,799,799,799,799,799,799,799,799,799,798,796,791,781,769,733,705,684,664,649,632,622,614,602,589,575,554,547,536,522,489,466],"ymouse":[513,513,513,513,513,513,513,513,513,513,513,513,513,513,513,513,505,490,470,452,406,376,352,322,296,256,229,210,190,174,162,147,141,132,123,104,96],"timestamp_mouse":[14,44,55,73,93,114,135,155,175,194,215,234,254,273,294,314,334,354,374,394,414,433,455,474,494,514,535,553,575,594,614,634,655,674,694,713,733],"xSR":741.5,"ySR":469.95,"xT1":424.9,"yT1":0,"xT2":1058.1,"yT2":0,"toosoon":0,"cond_shown":"Congruent","ratio_trial":300,"L_num":8,"L_den":16,"R_num":1,"R_den":5,"correct_side":1,"subjID":"samuelcorba33","gender":"0","school":"4","age":"9"},{"start_time":1552313222431,"click_time":1552313223015,"finger_time":1552313222775,"fix_duration":1176.715620904763,"trial":28,"RT":344,"MT":240,"sideResp":1,"stimulus":[],"xmouse":[808,808,808,808,808,808,808,808,808,808,808,808,808,808,808,808,807,796,792,785,778,750,728,700,671,640,558,539,526,514],"ymouse":[518,518,518,518,518,518,518,518,518,518,518,518,518,518,518,516,485,436,413,390,368,306,266,223,186,154,86,64,50,39],"timestamp_mouse":[8,35,44,63,82,103,124,143,163,184,202,222,244,263,283,302,322,344,363,384,403,424,443,462,483,504,524,543,563,584],"xSR":741.5,"ySR":469.95,"xT1":424.9,"yT1":0,"xT2":1058.1,"yT2":0,"toosoon":0,"cond_shown":"Incongruent","ratio_trial":100,"L_num":8,"L_den":16,"R_num":6,"R_den":10,"correct_side":2,"subjID":"samuelcorba33","gender":"0","school":"4","age":"9"},{"start_time":1552313225066,"click_time":1552313226634,"finger_time":1552313226354,"fix_duration":1128.385910862646,"trial":29,"RT":1288,"MT":280,"sideResp":1,"stimulus":[],"xmouse":[821,821,821,821,821,821,821,821,821,821,821,821,821,821,821,821,821,821,821,821,821,821,821,821,821,821,821,821,821,821,821,821,821,821,821,821,821,821,821,821,821,821,821,821,821,821,821,821,821,821,821,821,821,821,821,821,821,821,819,814,798,791,779,775,773,769,767,765,763,757,733,714,678,649,625,577,550,529,513],"ymouse":[531,531,531,531,531,531,531,531,531,531,531,531,531,531,531,531,531,531,531,531,531,531,531,531,531,531,531,531,531,531,531,531,531,531,531,531,531,531,531,531,531,531,531,531,531,531,531,531,531,531,531,531,531,531,531,531,531,528,526,519,501,494,481,474,469,459,452,446,441,430,398,373,322,283,248,172,124,90,74],"timestamp_mouse":[10,36,48,68,89,107,128,149,169,187,207,228,249,267,288,309,327,349,368,389,408,428,449,468,488,508,529,547,569,589,608,628,649,668,688,709,728,748,769,789,809,828,848,867,889,907,928,949,968,989,1008,1029,1047,1067,1088,1109,1128,1149,1168,1188,1208,1229,1248,1268,1288,1308,1327,1348,1367,1388,1407,1428,1447,1468,1488,1509,1528,1548,1568],"xSR":741.5,"ySR":469.95,"xT1":424.9,"yT1":0,"xT2":1058.1,"yT2":0,"toosoon":0,"cond_shown":"Incongruent","ratio_trial":100,"L_num":6,"L_den":10,"R_num":7,"R_den":14,"correct_side":1,"subjID":"samuelcorba33","gender":"0","school":"4","age":"9"},{"start_time":1552313229141,"click_time":1552313229975,"finger_time":1552313229833,"fix_duration":1465.1997589801874,"trial":30,"RT":692,"MT":142,"sideResp":1,"stimulus":[],"xmouse":[772,772,772,772,772,772,772,772,772,772,772,772,772,772,772,772,773,773,773,773,773,773,773,773,773,773,773,773,773,773,773,773,769,761,753,739,681,654,634,612,587,523],"ymouse":[509,509,509,509,509,509,509,509,509,509,509,509,509,509,509,509,507,503,501,501,500,500,500,500,500,500,500,500,500,500,500,500,490,472,446,402,234,179,145,122,102,65],"timestamp_mouse":[13,44,53,74,93,114,132,152,173,193,213,234,254,273,294,314,333,353,373,393,412,432,453,474,492,514,534,553,573,593,614,634,653,673,692,714,733,754,773,793,812,834],"xSR":741.5,"ySR":469.95,"xT1":424.9,"yT1":0,"xT2":1058.1,"yT2":0,"toosoon":0,"cond_shown":"Congruent","ratio_trial":200,"L_num":3,"L_den":10,"R_num":7,"R_den":14,"correct_side":2,"subjID":"samuelcorba33","gender":"0","school":"4","age":"9"},{"start_time":1552313231800,"click_time":1552313232694,"finger_time":1552313232134,"fix_duration":863.1351584259868,"trial":31,"RT":334,"MT":560,"sideResp":2,"stimulus":[],"xmouse":[787,787,787,787,787,787,787,787,787,787,787,787,787,787,787,789,800,826,958,1042,1110,1159,1187,1198,1198,1198,1198,1198,1198,1198,1198,1198,1198,1198,1196,1183,1168,1154,1139,1115,1109,1104,1099,1098,1098],"ymouse":[499,499,499,499,499,499,499,499,499,499,499,499,499,499,494,486,469,438,325,270,238,222,216,214,214,214,214,214,214,214,214,214,214,214,212,206,201,196,189,169,156,140,119,104,99],"timestamp_mouse":[14,38,54,75,94,114,135,155,174,195,215,235,254,273,294,314,334,354,375,393,414,434,454,473,495,514,535,555,574,594,614,635,655,675,694,714,734,753,775,793,814,834,855,875,894],"xSR":741.5,"ySR":469.95,"xT1":424.9,"yT1":0,"xT2":1058.1,"yT2":0,"toosoon":0,"cond_shown":"Incongruent","ratio_trial":200,"L_num":7,"L_den":10,"R_num":12,"R_den":24,"correct_side":1,"subjID":"samuelcorba33","gender":"0","school":"4","age":"9"},{"start_time":1552313238076,"click_time":1552313239995,"finger_time":1552313239814,"fix_duration":321.60011436942915,"trial":32,"RT":1738,"MT":181,"sideResp":1,"stimulus":[],"xmouse":[764,764,764,764,764,764,764,764,764,764,764,764,764,764,764,764,764,764,764,764,764,764,764,764,764,764,764,764,764,760,759,759,759,759,759,759,759,759,759,759,759,759,759,758,757,754,754,754,754,754,754,754,754,754,754,754,754,754,754,754,754,754,754,754,754,754,754,754,754,754,754,754,754,754,754,754,754,754,756,764,794,800,800,800,800,794,775,736,698,667,618,596,579,566,548,503],"ymouse":[522,522,522,522,522,522,522,522,522,522,522,522,522,522,522,522,522,522,522,522,522,522,522,522,522,522,522,521,519,507,504,504,504,504,504,504,504,504,504,504,504,504,504,504,504,504,504,504,504,504,504,504,504,504,504,504,504,504,504,504,504,504,504,504,504,504,504,504,504,504,504,504,504,504,504,504,504,504,508,511,534,538,538,538,538,494,404,312,243,199,132,106,88,80,70,62],"timestamp_mouse":[18,42,57,78,98,119,138,158,178,199,218,239,259,277,299,319,339,358,378,398,419,438,457,479,498,519,538,558,577,598,617,639,659,677,699,718,737,759,779,799,818,838,859,878,899,918,937,958,979,999,1018,1039,1058,1078,1099,1118,1138,1158,1178,1199,1218,1239,1259,1279,1298,1318,1339,1359,1379,1399,1419,1437,1458,1478,1498,1518,1539,1559,1578,1598,1618,1639,1657,1679,1698,1718,1738,1757,1779,1798,1819,1838,1857,1878,1899,1918],"xSR":741.5,"ySR":469.95,"xT1":424.9,"yT1":0,"xT2":1058.1,"yT2":0,"toosoon":0,"cond_shown":"Incongruent","ratio_trial":100,"L_num":6,"L_den":10,"R_num":13,"R_den":26,"correct_side":1,"subjID":"samuelcorba33","gender":"0","school":"4","age":"9"},{"start_time":1552313242369,"click_time":1552313244014,"finger_time":1552313243954,"fix_duration":492.04979171353966,"trial":33,"RT":1585,"MT":60,"sideResp":1,"stimulus":[],"xmouse":[802,802,802,802,802,802,802,802,802,802,802,802,802,802,802,802,802,802,802,802,802,802,802,802,802,802,802,802,802,802,802,802,802,802,802,802,802,802,802,802,802,802,802,802,802,802,802,802,802,802,802,802,802,805,808,813,816,818,818,818,818,818,818,818,818,818,818,818,818,818,818,818,818,818,818,818,816,788,756,688,639,592,501],"ymouse":[550,550,550,550,550,550,550,550,550,550,550,550,550,550,550,550,550,550,550,550,550,550,550,550,550,550,550,550,550,550,550,550,550,550,550,550,550,550,550,550,550,550,550,550,550,550,550,550,550,550,550,550,550,543,537,530,526,523,523,523,523,523,523,523,523,523,523,523,523,523,523,523,523,523,523,523,521,503,472,395,317,234,86],"timestamp_mouse":[11,26,45,65,85,106,125,145,165,186,206,226,245,265,285,306,326,344,365,385,405,425,445,464,486,504,525,545,565,586,606,624,645,665,684,705,725,744,765,786,804,826,845,864,886,905,925,946,965,985,1005,1025,1046,1065,1085,1105,1125,1144,1165,1185,1205,1225,1246,1264,1286,1306,1325,1344,1365,1386,1404,1425,1445,1466,1485,1504,1525,1545,1565,1585,1605,1625,1645],"xSR":741.5,"ySR":469.95,"xT1":424.9,"yT1":0,"xT2":1058.1,"yT2":0,"toosoon":0,"cond_shown":"Congruent","ratio_trial":300,"L_num":20,"L_den":25,"R_num":5,"R_den":10,"correct_side":1,"subjID":"samuelcorba33","gender":"0","school":"4","age":"9"},{"start_time":1552313245414,"click_time":1552313247634,"finger_time":1552313247014,"fix_duration":299.2053036888318,"trial":34,"RT":1600,"MT":620,"sideResp":1,"stimulus":[],"xmouse":[753,753,753,753,753,753,753,753,753,753,753,753,753,753,753,753,753,753,753,753,753,753,753,753,753,753,753,753,753,753,753,754,754,754,754,754,754,754,754,754,754,754,754,754,754,754,754,754,754,754,754,754,754,754,754,754,754,754,754,754,754,754,754,754,754,754,754,754,754,754,754,754,754,754,754,754,754,754,754,755,737,705,661,608,542,348,315,315,315,315,315,315,315,315,315,315,315,315,352,362,376,394,403,409,414,418,418,419,419,421,424,428],"ymouse":[499,499,499,499,499,499,499,499,499,499,499,499,499,499,499,499,499,499,499,499,499,499,499,499,499,499,499,499,499,499,499,499,499,499,499,499,499,499,499,499,499,499,499,499,499,499,499,499,499,499,499,499,499,499,499,499,499,499,499,499,499,499,499,499,499,499,499,499,499,499,499,499,499,499,499,499,499,499,499,492,450,384,304,231,164,22,0,0,0,0,0,0,0,0,0,0,0,0,0,6,18,39,48,57,64,68,69,69,67,63,56,53],"timestamp_mouse":[8,29,40,60,81,101,120,141,161,180,201,220,239,260,281,301,319,341,361,380,399,420,441,460,481,501,519,541,561,580,601,620,641,660,680,700,720,740,759,781,800,821,841,860,881,901,921,941,960,981,1001,1020,1041,1060,1079,1100,1120,1141,1161,1180,1199,1221,1241,1260,1280,1300,1320,1341,1361,1380,1401,1420,1439,1461,1480,1501,1521,1540,1561,1580,1600,1620,1640,1660,1680,1701,1721,1740,1761,1781,1800,1820,1840,1860,1879,1900,1920,1940,1960,1980,2000,2021,2039,2060,2080,2100,2120,2140,2161,2180,2200,2220],"xSR":741.5,"ySR":469.95,"xT1":424.9,"yT1":0,"xT2":1058.1,"yT2":0,"toosoon":0,"cond_shown":"Congruent","ratio_trial":200,"L_num":12,"L_den":20,"R_num":6,"R_den":15,"correct_side":1,"subjID":"samuelcorba33","gender":"0","school":"4","age":"9"},{"start_time":1552313249923,"click_time":1552313251834,"finger_time":1552313251234,"fix_duration":1067.2795484849905,"trial":35,"RT":1311,"MT":600,"sideResp":2,"stimulus":[],"xmouse":[813,813,813,813,813,813,813,813,813,813,813,813,813,813,813,813,813,813,813,813,813,813,813,813,813,813,813,813,813,813,813,813,813,813,813,813,813,813,813,813,813,813,813,813,813,813,813,813,813,813,813,813,813,813,813,813,813,813,813,813,813,813,813,814,830,842,844,845,845,845,845,845,847,849,856,886,923,938,989,1011,1029,1033,1035,1037,1040,1055,1065,1075,1080,1081,1083,1086,1089,1093,1097,1100],"ymouse":[517,517,517,517,517,517,517,517,517,517,517,517,517,517,517,517,517,517,517,517,517,517,517,517,517,517,517,517,517,517,517,517,517,517,517,517,517,517,517,517,517,517,517,517,517,517,517,517,517,517,517,517,517,517,517,517,517,517,517,517,517,517,517,517,488,473,470,469,469,469,469,469,466,462,453,414,364,342,277,244,220,216,214,212,207,188,174,159,151,148,141,134,122,112,102,93],"timestamp_mouse":[11,38,51,72,90,111,132,151,172,192,210,230,250,272,291,312,330,352,371,390,411,432,452,472,492,511,532,550,572,592,612,632,651,670,692,712,731,752,771,790,811,832,851,870,892,912,930,950,972,991,1012,1031,1051,1071,1091,1112,1131,1151,1172,1191,1212,1231,1251,1271,1292,1311,1330,1350,1371,1391,1411,1431,1452,1471,1492,1510,1532,1551,1571,1590,1611,1630,1651,1671,1692,1711,1731,1751,1770,1790,1811,1831,1851,1872,1892,1911],"xSR":741.5,"ySR":469.95,"xT1":424.9,"yT1":0,"xT2":1058.1,"yT2":0,"toosoon":0,"cond_shown":"Congruent","ratio_trial":200,"L_num":1,"L_den":2,"R_num":21,"R_den":30,"correct_side":2,"subjID":"samuelcorba33","gender":"0","school":"4","age":"9"},{"start_time":1552313255174,"click_time":1552313256574,"finger_time":1552313256174,"fix_duration":518.5923701739558,"trial":36,"RT":1000,"MT":400,"sideResp":2,"stimulus":[],"xmouse":[758,758,758,758,758,758,758,760,765,765,765,765,765,765,765,765,765,765,765,765,765,765,765,765,765,765,765,765,765,765,765,765,765,765,765,765,765,765,765,765,765,765,765,765,765,765,765,765,771,804,859,918,970,1045,1095,1129,1164,1199,1249,1263,1272,1276,1278,1278,1278,1275,1272,1269,1237,1198,1149],"ymouse":[530,530,530,530,530,530,534,540,551,551,551,551,551,551,551,551,551,551,551,551,551,551,551,551,551,551,551,551,551,551,551,551,551,551,551,551,551,551,551,551,551,551,551,551,551,551,551,551,548,508,455,392,339,261,223,200,169,140,94,77,67,60,55,50,45,42,40,37,31,30,30],"timestamp_mouse":[1,20,40,61,81,99,121,140,160,181,200,220,239,260,281,300,321,341,360,381,400,421,441,460,481,500,521,541,560,580,600,621,640,660,681,701,720,741,760,781,800,820,840,860,880,900,921,941,959,980,1000,1021,1040,1059,1080,1100,1120,1140,1160,1181,1201,1219,1240,1260,1280,1301,1321,1340,1360,1381,1400],"xSR":741.5,"ySR":469.95,"xT1":424.9,"yT1":0,"xT2":1058.1,"yT2":0,"toosoon":0,"cond_shown":"Congruent","ratio_trial":100,"L_num":1,"L_den":2,"R_num":3,"R_den":5,"correct_side":2,"subjID":"samuelcorba33","gender":"0","school":"4","age":"9"},{"start_time":1552313258566,"click_time":1552313259936,"finger_time":1552313259334,"fix_duration":810.2734393503034,"trial":37,"RT":768,"MT":602,"sideResp":2,"stimulus":[],"xmouse":[750,750,750,750,750,750,760,765,785,789,789,789,789,789,789,789,789,789,789,789,789,789,789,789,789,789,789,789,789,789,789,789,789,789,791,793,793,794,798,803,809,819,836,873,897,934,962,995,1032,1043,1047,1048,1048,1048,1048,1048,1048,1048,1048,1048,1048,1048,1048,1058,1065,1070,1075,1080,1087],"ymouse":[523,523,523,523,523,523,522,522,522,521,521,521,521,521,521,521,521,521,521,521,521,521,521,521,521,521,521,521,521,521,521,521,521,521,513,503,492,479,441,415,395,376,351,321,303,275,255,225,187,177,172,170,170,170,170,170,170,170,170,170,170,170,170,148,137,125,113,100,84],"timestamp_mouse":[9,39,48,67,88,109,128,148,168,188,209,229,248,268,289,307,328,349,369,389,409,429,448,469,488,509,528,549,568,588,608,627,649,669,688,708,728,748,768,787,808,828,849,870,888,908,928,948,970,988,1008,1029,1048,1069,1089,1108,1128,1148,1169,1187,1208,1227,1248,1269,1288,1308,1328,1348,1369],"xSR":741.5,"ySR":469.95,"xT1":424.9,"yT1":0,"xT2":1058.1,"yT2":0,"toosoon":0,"cond_shown":"Congruent","ratio_trial":200,"L_num":3,"L_den":12,"R_num":9,"R_den":20,"correct_side":2,"subjID":"samuelcorba33","gender":"0","school":"4","age":"9"},{"start_time":1552313261192,"click_time":1552313262575,"finger_time":1552313262134,"fix_duration":376.36749279880735,"trial":38,"RT":942,"MT":441,"sideResp":2,"stimulus":[],"xmouse":[759,759,759,759,759,759,759,759,759,759,759,759,759,759,759,759,759,759,759,759,759,759,759,759,759,759,759,759,759,759,759,759,759,759,759,759,759,759,759,759,759,759,759,759,762,771,786,804,823,862,888,908,930,982,1012,1036,1052,1064,1073,1078,1083,1088,1093,1103,1106,1111,1115,1119,1125,1126],"ymouse":[502,502,502,502,502,502,502,502,502,502,502,502,502,502,502,502,502,502,502,502,502,502,502,502,502,502,502,502,502,502,502,502,502,502,502,502,502,502,502,502,502,502,502,502,496,486,470,450,431,399,375,361,348,320,299,282,269,260,249,237,224,208,196,173,163,153,139,123,101,99],"timestamp_mouse":[10,22,43,63,82,102,122,142,162,181,203,223,243,263,283,302,322,343,363,382,402,423,443,463,482,502,523,541,563,582,603,623,642,662,682,703,722,741,763,782,802,822,842,863,882,901,922,942,962,982,1002,1023,1042,1063,1082,1102,1121,1141,1161,1182,1202,1222,1243,1262,1281,1303,1323,1342,1362,1382],"xSR":741.5,"ySR":469.95,"xT1":424.9,"yT1":0,"xT2":1058.1,"yT2":0,"toosoon":0,"cond_shown":"Incongruent","ratio_trial":100,"L_num":9,"L_den":10,"R_num":20,"R_den":25,"correct_side":1,"subjID":"samuelcorba33","gender":"0","school":"4","age":"9"},{"start_time":1552313264211,"click_time":1552313264994,"finger_time":1552313264554,"fix_duration":514.7124438078968,"trial":39,"RT":343,"MT":440,"sideResp":1,"stimulus":[],"xmouse":[745,745,745,745,745,745,745,745,745,745,745,745,745,745,745,744,742,728,701,669,647,634,621,618,614,611,608,604,604,604,602,598,589,585,584,583,578,551,536,519],"ymouse":[495,495,495,495,495,495,495,495,495,495,495,495,495,495,495,494,486,455,403,359,330,314,284,264,237,213,191,160,150,141,132,121,102,97,96,95,94,90,87,81],"timestamp_mouse":[10,23,43,62,84,103,123,143,163,184,203,223,243,263,284,303,324,342,363,382,403,423,443,463,484,502,523,543,562,583,602,622,643,662,683,703,723,744,763,783],"xSR":741.5,"ySR":469.95,"xT1":424.9,"yT1":0,"xT2":1058.1,"yT2":0,"toosoon":0,"cond_shown":"Congruent","ratio_trial":100,"L_num":6,"L_den":20,"R_num":5,"R_den":25,"correct_side":1,"subjID":"samuelcorba33","gender":"0","school":"4","age":"9"},{"start_time":1552313266851,"click_time":1552313267857,"finger_time":1552313267513,"fix_duration":1113.7139196110581,"trial":40,"RT":662,"MT":344,"sideResp":1,"stimulus":[],"xmouse":[808,808,808,808,808,808,808,808,808,808,808,808,808,808,808,808,808,808,808,808,808,808,808,808,808,808,808,808,808,808,808,801,787,733,643,466,439,426,418,417,418,426,428,430,433,443,451,458,464,467,470],"ymouse":[505,505,505,505,505,505,505,505,505,505,505,505,505,505,505,505,505,505,505,505,505,505,505,505,505,505,505,505,505,505,505,498,486,449,385,274,253,234,212,195,180,159,154,150,143,127,118,111,105,102,93],"timestamp_mouse":[14,24,44,63,83,103,123,143,163,184,204,223,243,263,283,304,323,344,364,382,404,422,444,464,483,504,524,543,563,584,604,623,643,662,684,704,723,742,764,783,803,823,843,863,883,905,923,943,962,983,1006],"xSR":741.5,"ySR":469.95,"xT1":424.9,"yT1":0,"xT2":1058.1,"yT2":0,"toosoon":0,"cond_shown":"Incongruent","ratio_trial":200,"L_num":3,"L_den":10,"R_num":1,"R_den":2,"correct_side":2,"subjID":"samuelcorba33","gender":"0","school":"4","age":"9"},{"start_time":1552313270030,"click_time":1552313271074,"finger_time":1552313270714,"fix_duration":1214.0161071318855,"trial":41,"RT":684,"MT":360,"sideResp":2,"stimulus":[],"xmouse":[770,770,770,770,770,770,770,770,770,770,770,770,770,770,770,770,770,770,770,770,770,770,770,770,770,770,770,770,770,770,770,771,777,790,815,834,854,889,901,910,923,934,957,975,989,998,1008,1020,1025,1031,1041,1052,1078],"ymouse":[514,514,514,514,514,514,514,514,514,514,514,514,514,514,514,514,514,514,514,514,514,514,514,514,514,514,514,514,514,514,514,513,499,483,459,442,425,396,386,379,367,351,308,264,227,195,171,143,132,118,100,84,53],"timestamp_mouse":[8,24,44,64,84,105,125,144,164,185,204,225,245,265,285,305,324,344,365,384,405,425,445,464,484,504,525,543,565,583,605,624,644,664,684,703,724,744,763,784,804,823,844,865,883,904,924,944,964,984,1005,1024,1044],"xSR":741.5,"ySR":469.95,"xT1":424.9,"yT1":0,"xT2":1058.1,"yT2":0,"toosoon":0,"cond_shown":"Incongruent","ratio_trial":200,"L_num":14,"L_den":30,"R_num":6,"R_den":9,"correct_side":2,"subjID":"samuelcorba33","gender":"0","school":"4","age":"9"},{"start_time":1552313273256,"click_time":1552313274274,"finger_time":1552313273834,"fix_duration":1198.9078654994082,"trial":42,"RT":578,"MT":440,"sideResp":1,"stimulus":[],"xmouse":[814,814,814,814,814,814,814,814,814,814,814,814,814,814,814,814,814,814,814,814,814,814,814,814,813,808,781,763,745,727,699,659,650,644,641,637,634,624,614,603,593,577,573,571,569,567,561,555,549,542,528,513],"ymouse":[515,515,515,515,515,515,515,515,515,515,515,515,515,515,515,515,515,515,515,515,515,515,515,513,513,511,498,488,478,467,445,410,395,381,370,357,343,316,297,278,258,219,207,199,190,184,160,140,121,98,67,41],"timestamp_mouse":[1,18,38,59,77,98,118,139,159,178,199,218,239,257,279,299,318,338,359,378,399,418,439,458,478,497,518,538,559,578,599,619,638,658,678,698,717,739,758,778,799,819,837,857,878,898,919,937,957,979,998,1018],"xSR":741.5,"ySR":469.95,"xT1":424.9,"yT1":0,"xT2":1058.1,"yT2":0,"toosoon":0,"cond_shown":"Congruent","ratio_trial":100,"L_num":2,"L_den":5,"R_num":11,"R_den":22,"correct_side":2,"subjID":"samuelcorba33","gender":"0","school":"4","age":"9"},{"start_time":1552313277309,"click_time":1552313286096,"finger_time":1552313278535,"fix_duration":393.9411902630063,"trial":43,"RT":1226,"MT":7561,"sideResp":2,"stimulus":[],"xmouse":[801,801,801,801,801,801,801,801,801,801,801,801,801,801,801,801,801,801,801,801,801,801,801,801,801,801,801,801,801,801,801,801,801,801,801,801,801,801,801,801,801,801,801,801,801,801,801,801,801,801,801,801,801,801,801,801,801,801,801,801,801,801,801,801,801,801,801,801,801,801,801,801,801,801,801,801,801,801,801,801,801,801,801,801,801,801,801,801,801,801,801,801,801,801,801,801,801,801,801,801,801,801,801,801,801,801,801,801,801,801,801,801,801,801,801,801,801,801,801,801,801,800,796,792,784,782,782,782,782,782,782,782,782,782,782,782,782,782,782,782,782,782,782,782,782,782,782,782,782,782,782,782,782,782,782,782,782,782,782,782,782,782,782,782,782,782,782,782,782,782,782,782,782,782,782,782,782,782,782,782,782,782,782,782,782,782,782,782,782,782,782,782,782,782,782,782,782,782,782,782,782,782,782,782,782,782,782,782,782,782,782,782,782,782,782,782,782,782,782,782,782,782,782,782,782,782,782,782,782,782,782,782,782,782,782,782,782,782,782,782,782,782,782,782,782,782,782,782,782,782,782,782,782,782,782,782,782,782,782,782,782,782,782,782,782,782,782,782,782,782,782,782,782,782,782,782,782,782,782,782,783,784,784,784,784,786,786,786,786,786,786,786,786,787,787,787,787,787,787,787,787,787,787,787,787,787,787,787,787,787,787,787,787,787,787,787,787,787,787,787,787,787,787,787,787,787,787,787,787,787,787,787,787,787,787,787,788,788,788,788,788,788,788,788,788,788,788,788,788,788,788,788,788,788,788,788,788,788,788,788,788,788,788,788,788,788,788,788,788,788,788,788,788,788,788,788,788,788,788,788,788,788,788,788,788,788,788,788,788,788,788,788,788,788,788,788,788,788,788,788,788,788,788,788,790,795,799,799,799,799,799,798,798,798,798,798,798,798,798,798,798,798,798,798,800,805,814,826,839,851,878,890,904,926,943,984,1011,1030,1052,1078],"ymouse":[544,544,544,544,544,544,544,544,544,544,544,544,544,544,544,544,544,544,544,544,544,544,544,544,544,544,544,544,544,544,544,544,544,544,544,544,544,544,544,544,544,544,544,544,544,544,544,544,544,544,544,544,544,544,544,544,544,544,544,544,544,615,615,615,615,615,615,615,615,615,615,615,615,615,615,615,615,615,615,615,615,615,615,615,615,615,615,615,615,615,615,615,615,615,615,615,615,615,615,615,615,615,615,615,615,615,615,615,615,615,615,615,615,615,615,615,615,615,615,615,615,615,614,610,596,593,593,593,593,593,593,591,587,577,556,547,545,545,545,545,545,545,545,545,545,545,545,545,545,545,545,545,545,545,545,545,545,545,545,545,545,545,545,545,545,545,545,545,545,545,545,545,545,545,545,545,545,545,545,545,545,545,545,545,545,545,545,545,545,545,545,545,545,545,545,545,545,545,545,545,545,545,545,545,545,545,545,545,545,545,545,545,545,545,545,545,545,545,545,545,545,545,545,545,545,545,545,545,545,545,545,545,545,545,545,545,545,545,545,545,545,545,545,545,545,545,545,545,545,545,545,545,545,545,545,545,545,545,545,545,545,545,545,545,545,545,545,545,545,545,545,545,545,545,545,545,545,545,545,541,535,531,530,530,529,529,529,529,529,529,529,529,529,526,518,518,518,518,518,518,518,518,518,518,518,518,518,518,518,518,518,518,518,518,518,518,518,518,518,518,518,518,518,518,518,518,518,518,518,518,518,518,518,518,518,518,517,517,517,517,517,517,517,517,517,517,517,517,517,517,517,517,517,517,517,517,517,517,517,517,517,517,517,517,517,517,517,517,517,517,517,517,517,517,517,517,517,517,517,517,517,517,517,517,517,517,517,517,517,517,517,517,517,517,517,517,517,517,517,517,517,517,517,517,517,518,520,520,520,520,522,523,523,523,523,523,523,523,523,523,523,523,523,523,522,519,513,504,494,482,451,438,426,411,404,340,271,200,127,55],"timestamp_mouse":[11,31,45,65,85,105,125,146,166,185,204,225,244,265,285,305,326,345,366,386,406,425,446,465,486,506,525,546,566,585,606,626,646,665,684,706,726,744,765,786,804,826,845,865,884,905,925,947,966,985,1007,1026,1045,1065,1086,1105,1127,1145,1166,1186,1205,1226,1247,1266,1285,1306,1325,1345,1366,1386,1406,1425,1445,1467,1485,1506,1526,1546,1567,1585,1605,1625,1645,1665,1687,1706,1726,1746,1766,1785,1806,1825,1846,1866,1886,1906,1925,1945,1965,1985,2005,2026,2045,2067,2085,2106,2125,2146,2166,2187,2205,2226,2245,2266,2285,2305,2326,2345,2366,2385,2406,2426,2446,2466,2485,2507,2526,2545,2566,2586,2605,2626,2646,2665,2685,2705,2725,2746,2765,2786,2807,2826,2846,2865,2885,2906,2925,2946,2966,2986,3006,3026,3046,3065,3085,3105,3127,3146,3166,3186,3206,3226,3246,3265,3285,3305,3326,3346,3367,3385,3406,3426,3445,3466,3485,3506,3526,3546,3567,3586,3606,3626,3645,3666,3685,3705,3725,3745,3765,3786,3805,3825,3847,3865,3885,3906,3926,3945,3966,3986,4007,4025,4047,4066,4085,4105,4125,4145,4165,4185,4206,4226,4247,4266,4286,4306,4326,4347,4365,4386,4407,4426,4445,4466,4486,4505,4525,4545,4566,4586,4605,4626,4647,4666,4686,4705,4725,4745,4766,4786,4805,4826,4846,4865,4885,4905,4925,4947,4966,4986,5005,5027,5045,5066,5089,5105,5127,5146,5165,5185,5206,5226,5245,5265,5286,5306,5325,5347,5365,5386,5405,5426,5446,5467,5486,5505,5525,5545,5565,5586,5606,5625,5645,5665,5685,5705,5726,5745,5765,5785,5805,5825,5845,5866,5885,5907,5925,5946,5965,5985,6006,6025,6045,6066,6085,6106,6125,6145,6165,6185,6205,6225,6245,6265,6285,6305,6325,6347,6366,6386,6405,6425,6445,6466,6485,6507,6525,6545,6565,6586,6605,6626,6645,6666,6686,6705,6726,6745,6766,6787,6805,6826,6845,6865,6885,6906,6926,6945,6965,6985,7006,7026,7046,7065,7085,7106,7125,7146,7167,7185,7205,7225,7245,7265,7286,7305,7325,7347,7367,7385,7406,7427,7445,7465,7486,7507,7525,7546,7566,7586,7606,7626,7645,7666,7685,7705,7725,7745,7765,7786,7806,7825,7846,7865,7885,7906,7925,7947,7966,7986,8005,8025,8045,8066,8085,8106,8126,8146,8165,8186,8205,8225,8245,8267,8286,8306,8325,8347,8365,8385,8405,8425,8446,8467,8485,8505,8525,8546,8565,8585,8605,8625,8645,8665,8685,8706,8725,8745,8766,8787],"xSR":741.5,"ySR":469.95,"xT1":424.9,"yT1":0,"xT2":1058.1,"yT2":0,"toosoon":0,"cond_shown":"Incongruent","ratio_trial":200,"L_num":4,"L_den":6,"R_num":14,"R_den":30,"correct_side":1,"subjID":"samuelcorba33","gender":"0","school":"4","age":"9"},{"start_time":1552313288348,"click_time":1552313289114,"finger_time":1552313288654,"fix_duration":813.8661838158162,"trial":44,"RT":306,"MT":460,"sideResp":1,"stimulus":[],"xmouse":[773,773,773,773,773,773,773,773,773,773,773,773,773,768,759,746,730,716,687,673,664,653,642,607,589,577,571,566,547,528,502,490,483,481,481,481,480,479,460],"ymouse":[611,611,611,611,611,611,611,611,611,611,611,610,609,593,576,555,534,516,489,471,458,439,414,335,298,262,235,198,90,28,0,0,0,0,0,0,0,0,13],"timestamp_mouse":[8,38,46,66,88,108,126,147,168,187,207,226,247,267,286,306,327,348,366,388,406,427,446,467,487,507,526,547,567,587,606,626,646,668,686,707,726,747,766],"xSR":741.5,"ySR":573.95,"xT1":424.9,"yT1":0,"xT2":1058.1,"yT2":0,"toosoon":0,"cond_shown":"Congruent","ratio_trial":300,"L_num":1,"L_den":5,"R_num":6,"R_den":12,"correct_side":2,"subjID":"samuelcorba33","gender":"0","school":"4","age":"9"},{"start_time":1552313294850,"click_time":1552313295717,"finger_time":1552313295134,"fix_duration":632.1190863187697,"trial":45,"RT":284,"MT":583,"sideResp":1,"stimulus":[],"xmouse":[783,783,783,783,783,783,783,783,783,783,783,783,782,781,777,775,771,767,753,744,738,731,725,724,720,713,704,692,678,647,629,607,568,539,498,483,473,463,459,457,457,457,457,453],"ymouse":[591,591,591,591,591,591,591,591,591,591,591,591,590,585,556,535,511,484,426,407,393,379,368,363,353,342,327,309,285,229,193,152,85,41,0,0,0,0,0,0,0,0,0,16],"timestamp_mouse":[10,30,45,65,84,105,124,144,166,186,205,225,245,264,284,304,324,344,365,384,404,424,445,466,485,504,525,544,564,584,604,624,644,665,684,704,724,744,765,784,805,824,845,866],"xSR":741.5,"ySR":573.95,"xT1":424.9,"yT1":0,"xT2":1058.1,"yT2":0,"toosoon":0,"cond_shown":"Incongruent","ratio_trial":100,"L_num":3,"L_den":5,"R_num":8,"R_den":16,"correct_side":1,"subjID":"samuelcorba33","gender":"0","school":"4","age":"9"},{"start_time":1552313296787,"click_time":1552313297554,"finger_time":1552313297234,"fix_duration":271.1147370404328,"trial":46,"RT":447,"MT":320,"sideResp":1,"stimulus":[],"xmouse":[790,790,790,790,790,790,789,788,788,788,788,788,788,788,788,788,788,788,788,788,786,783,756,747,739,735,733,730,728,724,717,704,658,634,609,587,567,525,508],"ymouse":[601,601,601,601,601,601,600,598,598,598,598,598,598,598,598,598,598,598,598,598,589,578,503,481,464,452,446,429,411,385,354,324,237,202,164,139,113,73,55],"timestamp_mouse":[14,34,47,68,89,107,127,147,167,188,208,229,248,267,287,309,329,348,367,389,407,428,447,468,487,507,527,547,568,587,607,627,647,668,687,707,727,747,767],"xSR":741.5,"ySR":573.95,"xT1":424.9,"yT1":0,"xT2":1058.1,"yT2":0,"toosoon":0,"cond_shown":"Congruent","ratio_trial":300,"L_num":1,"L_den":5,"R_num":6,"R_den":12,"correct_side":2,"subjID":"samuelcorba33","gender":"0","school":"4","age":"9"},{"start_time":1552313299852,"click_time":1552313301215,"finger_time":1552313300474,"fix_duration":1475.76208306167,"trial":47,"RT":622,"MT":741,"sideResp":1,"stimulus":[],"xmouse":[785,785,785,785,785,785,785,785,785,786,786,786,786,786,786,786,786,786,786,786,786,786,786,786,786,786,786,786,787,787,781,774,765,760,755,752,748,740,732,724,716,713,710,707,702,675,659,639,616,576,568,566,564,562,555,553,553,553,553,553,553,553,553,553,553,548,540,532,518],"ymouse":[621,621,621,621,621,621,621,621,621,621,621,621,621,621,621,621,621,621,621,621,621,621,621,621,621,621,621,621,621,606,584,559,520,493,450,431,409,382,358,337,311,305,301,295,286,254,234,212,184,137,124,113,103,88,61,56,56,56,56,56,56,56,56,56,56,55,55,55,55],"timestamp_mouse":[11,32,42,64,84,102,123,143,163,182,202,223,242,262,283,302,323,342,362,382,403,423,443,462,482,503,523,542,563,582,602,622,643,662,682,702,722,743,763,782,802,822,844,862,882,904,922,942,963,982,1002,1022,1043,1063,1083,1102,1123,1142,1163,1183,1202,1223,1242,1264,1283,1302,1323,1342,1363],"xSR":741.5,"ySR":573.95,"xT1":424.9,"yT1":0,"xT2":1058.1,"yT2":0,"toosoon":0,"cond_shown":"Congruent","ratio_trial":200,"L_num":3,"L_den":10,"R_num":14,"R_den":28,"correct_side":2,"subjID":"samuelcorba33","gender":"0","school":"4","age":"9"},{"start_time":1552313325393,"click_time":1552313326895,"finger_time":1552313326395,"fix_duration":295.09692816814623,"trial":48,"RT":1002,"MT":500,"sideResp":1,"stimulus":[],"xmouse":[804,804,804,804,804,804,804,804,804,804,804,804,804,804,804,804,804,804,804,804,804,804,804,804,804,804,804,804,804,804,804,806,807,808,809,809,809,809,809,810,812,813,814,814,814,814,811,805,789,766,708,696,692,692,701,699,698,697,696,695,694,693,686,675,659,591,553,513,476,444,409,408,408,413,420,428],"ymouse":[649,649,649,649,649,649,649,649,649,649,649,649,649,649,649,649,649,649,649,649,649,649,649,649,649,649,649,649,649,649,649,649,649,649,648,648,648,648,648,648,646,645,644,643,643,643,641,639,631,617,564,532,497,462,419,368,365,363,360,360,359,354,343,331,312,260,233,209,188,169,145,142,135,123,111,98],"timestamp_mouse":[9,31,41,61,82,102,121,142,161,181,201,221,242,262,281,302,322,342,362,382,402,421,442,463,482,502,522,542,563,583,602,622,642,662,681,702,721,743,763,781,801,821,842,861,882,902,921,941,963,982,1002,1021,1041,1061,1081,1101,1121,1142,1162,1181,1201,1221,1241,1261,1281,1301,1321,1342,1363,1382,1401,1421,1441,1462,1481,1501],"xSR":741.5,"ySR":573.95,"xT1":424.9,"yT1":0,"xT2":1058.1,"yT2":0,"toosoon":0,"cond_shown":"Incongruent","ratio_trial":300,"L_num":4,"L_den":20,"R_num":2,"R_den":4,"correct_side":2,"subjID":"samuelcorba33","gender":"0","school":"4","age":"9"},{"start_time":1552313347470,"click_time":1552313348915,"finger_time":1552313348234,"fix_duration":1353.5131628309457,"trial":49,"RT":764,"MT":681,"sideResp":1,"stimulus":[],"xmouse":[812,812,812,812,812,812,812,812,812,812,812,812,812,812,812,812,812,812,812,812,812,812,812,812,812,812,812,812,812,812,812,812,812,812,812,806,800,793,781,757,750,744,738,734,730,725,687,647,612,501,450,402,363,329,289,283,275,273,272,273,279,284,287,291,328,342,361,372,380,393,403,418,439],"ymouse":[623,623,623,623,623,623,623,623,623,623,623,623,623,623,623,623,623,623,623,623,623,623,623,623,623,623,623,623,623,623,623,623,623,623,620,608,598,589,571,545,538,531,526,522,516,509,487,463,439,367,334,296,270,244,202,188,164,151,131,123,115,108,105,101,86,82,80,79,79,76,73,69,62],"timestamp_mouse":[11,33,46,64,84,105,125,145,165,184,205,225,244,264,285,306,326,344,364,384,405,425,446,465,486,506,525,546,566,584,605,626,644,665,684,704,724,744,764,785,804,824,844,865,885,905,925,945,966,984,1004,1024,1045,1064,1084,1104,1125,1145,1165,1184,1204,1224,1245,1264,1284,1304,1325,1344,1365,1384,1405,1425,1445],"xSR":741.5,"ySR":573.95,"xT1":424.9,"yT1":0,"xT2":1058.1,"yT2":0,"toosoon":0,"cond_shown":"Incongruent","ratio_trial":100,"L_num":13,"L_den":26,"R_num":6,"R_den":10,"correct_side":2,"subjID":"samuelcorba33","gender":"0","school":"4","age":"9"},{"start_time":1552313356229,"click_time":1552313357155,"finger_time":1552313356955,"fix_duration":912.8170279397849,"trial":50,"RT":726,"MT":200,"sideResp":1,"stimulus":[],"xmouse":[761,761,761,761,761,761,761,761,761,761,761,761,761,761,761,761,761,761,761,761,761,761,761,761,761,761,761,761,761,761,761,761,761,761,762,762,727,668,647,633,626,625,624,613,590,572,518],"ymouse":[639,639,639,639,639,639,639,639,639,639,639,639,639,639,639,639,639,639,639,639,639,639,639,639,639,639,639,639,639,639,639,639,639,639,636,614,440,240,172,137,124,122,121,112,95,81,58],"timestamp_mouse":[11,25,45,67,86,106,125,146,167,187,205,227,246,267,285,306,326,346,366,386,406,426,446,466,486,505,527,545,566,585,607,626,646,666,685,705,726,746,766,786,805,827,846,866,885,907,926],"xSR":741.5,"ySR":573.95,"xT1":424.9,"yT1":0,"xT2":1058.1,"yT2":0,"toosoon":0,"cond_shown":"Congruent","ratio_trial":200,"L_num":3,"L_den":10,"R_num":11,"R_den":22,"correct_side":2,"subjID":"samuelcorba33","gender":"0","school":"4","age":"9"},{"start_time":1552313363614,"click_time":1552313364856,"finger_time":1552313364156,"fix_duration":1396.089069591042,"trial":51,"RT":542,"MT":700,"sideResp":2,"stimulus":[],"xmouse":[768,768,768,768,768,768,768,768,768,768,768,768,768,768,768,768,768,768,768,768,768,768,768,768,769,785,802,822,888,937,993,1052,1103,1156,1236,1256,1259,1259,1259,1265,1268,1270,1270,1270,1270,1270,1270,1270,1270,1270,1267,1266,1266,1266,1266,1266,1266,1265,1265,1231,1216,1162,1131],"ymouse":[643,643,643,643,643,643,643,643,643,643,643,643,643,643,643,643,643,643,643,643,643,643,643,643,637,618,594,559,413,325,231,122,0,0,0,0,0,0,0,36,56,72,73,73,73,73,73,73,73,73,72,72,72,72,72,72,72,72,72,73,76,79,79],"timestamp_mouse":[8,20,40,61,81,101,122,141,161,181,200,221,240,261,281,302,322,341,361,382,401,420,440,461,481,500,521,542,561,581,602,621,641,661,681,700,721,741,760,780,801,821,841,862,881,902,921,941,961,982,1001,1021,1041,1061,1081,1100,1122,1141,1161,1181,1200,1220,1241],"xSR":741.5,"ySR":573.95,"xT1":424.9,"yT1":0,"xT2":1058.1,"yT2":0,"toosoon":0,"cond_shown":"Congruent","ratio_trial":300,"L_num":24,"L_den":30,"R_num":2,"R_den":4,"correct_side":1,"subjID":"samuelcorba33","gender":"0","school":"4","age":"9"},{"start_time":1552313370710,"click_time":1552313373115,"finger_time":1552313372455,"fix_duration":1133.3646809874351,"trial":52,"RT":1745,"MT":660,"sideResp":1,"stimulus":[],"xmouse":[769,769,769,769,769,769,769,769,769,769,769,769,769,769,769,769,769,769,769,765,756,751,751,751,751,751,751,751,751,751,751,751,751,751,751,751,751,751,751,751,751,751,751,751,751,751,751,751,751,751,751,751,751,751,751,751,751,751,751,751,751,751,751,751,751,751,752,754,754,754,754,754,754,754,754,754,754,754,754,754,754,754,754,754,754,754,744,729,700,612,584,584,584,584,584,584,584,584,584,584,584,584,584,584,580,550,520,493,465,427,420,419,419,419,419,419,419,419,420,435,446],"ymouse":[640,640,640,640,640,640,640,640,640,640,640,640,640,640,640,640,640,640,640,640,640,640,640,640,640,640,640,640,640,640,640,640,640,640,640,640,640,640,640,640,640,640,640,640,640,640,640,640,640,640,640,640,640,640,640,640,640,640,640,640,640,640,640,640,640,637,633,630,629,629,629,629,629,629,629,629,629,629,629,629,629,629,629,629,629,629,618,599,561,356,289,289,289,289,289,289,289,289,289,289,289,289,289,286,272,213,176,152,135,114,110,109,109,109,109,109,109,108,106,100,94],"timestamp_mouse":[17,36,45,64,85,106,125,144,165,186,204,225,245,265,285,305,325,345,366,385,404,426,446,464,485,505,524,544,566,584,605,625,645,665,684,705,725,745,765,784,806,824,846,865,884,904,926,945,966,984,1006,1025,1046,1065,1084,1104,1126,1146,1166,1185,1205,1224,1245,1265,1286,1306,1324,1344,1365,1386,1405,1425,1444,1464,1484,1505,1526,1544,1566,1586,1605,1626,1644,1665,1685,1706,1725,1745,1766,1785,1805,1825,1844,1865,1885,1906,1925,1946,1965,1985,2004,2025,2046,2066,2084,2105,2124,2146,2165,2185,2205,2224,2244,2265,2285,2304,2325,2344,2364,2385,2405],"xSR":741.5,"ySR":573.95,"xT1":424.9,"yT1":0,"xT2":1058.1,"yT2":0,"toosoon":0,"cond_shown":"Congruent","ratio_trial":100,"L_num":2,"L_den":5,"R_num":6,"R_den":12,"correct_side":2,"subjID":"samuelcorba33","gender":"0","school":"4","age":"9"},{"start_time":1552313375337,"click_time":1552313376116,"finger_time":1552313375754,"fix_duration":1261.56502431679,"trial":53,"RT":417,"MT":362,"sideResp":1,"stimulus":[],"xmouse":[804,804,804,804,804,804,804,804,804,804,804,804,801,797,796,796,796,795,794,793,789,784,778,755,737,712,678,642,597,582,576,573,568,559,552,544,536,529,519],"ymouse":[614,614,614,614,614,614,614,614,614,614,614,614,605,594,592,591,590,587,577,575,566,558,550,517,496,456,399,343,272,245,231,218,202,171,155,136,118,105,84],"timestamp_mouse":[18,38,59,78,98,118,139,157,177,198,218,237,257,277,297,317,337,358,377,397,417,439,458,479,498,517,537,558,579,599,617,637,657,677,698,717,739,759,778],"xSR":741.5,"ySR":573.95,"xT1":424.9,"yT1":0,"xT2":1058.1,"yT2":0,"toosoon":0,"cond_shown":"Congruent","ratio_trial":200,"L_num":6,"L_den":12,"R_num":7,"R_den":10,"correct_side":2,"subjID":"samuelcorba33","gender":"0","school":"4","age":"9"},{"start_time":1552313377267,"click_time":1552313379774,"finger_time":1552313379195,"fix_duration":250,"trial":54,"RT":1928,"MT":579,"sideResp":2,"stimulus":[],"xmouse":[800,800,800,800,800,800,800,800,800,800,800,800,800,800,800,800,800,800,800,800,800,800,800,800,800,800,800,800,800,800,800,800,800,800,800,800,800,800,800,800,800,800,800,800,800,800,800,800,800,800,800,800,800,800,800,800,800,800,800,800,800,800,800,800,800,800,800,800,800,800,800,800,800,800,800,800,800,800,800,800,800,800,800,800,800,800,800,800,800,800,800,800,806,811,816,823,832,852,861,870,879,892,913,918,929,937,944,954,954,956,957,961,988,1001,1016,1032,1045,1061,1064,1067,1067,1067,1067,1067,1067,1068],"ymouse":[624,624,624,624,624,624,624,624,624,624,624,624,624,624,624,624,624,624,624,624,624,624,624,624,624,624,624,624,624,624,624,624,624,624,624,624,624,624,623,623,623,623,623,623,623,623,623,623,623,623,623,623,623,623,623,623,623,623,623,623,623,623,623,623,623,623,623,623,623,623,623,623,623,623,623,623,623,623,623,623,623,623,623,623,623,623,623,623,623,623,623,623,613,603,593,583,566,530,511,494,472,443,383,352,319,292,267,243,242,240,238,232,197,182,167,151,139,115,106,101,100,100,100,100,100,99],"timestamp_mouse":[14,31,47,67,88,108,129,148,167,188,207,229,248,268,287,308,327,347,368,389,407,429,449,467,487,509,528,547,568,587,608,629,648,667,689,707,728,748,767,788,809,827,848,868,888,908,927,948,967,987,1008,1028,1047,1068,1087,1107,1129,1149,1168,1187,1209,1228,1248,1268,1287,1307,1329,1348,1367,1387,1409,1429,1448,1467,1489,1508,1527,1547,1568,1588,1609,1628,1648,1668,1689,1708,1728,1748,1768,1787,1807,1829,1848,1867,1887,1907,1928,1948,1969,1988,2007,2029,2048,2068,2087,2108,2127,2148,2167,2188,2209,2228,2248,2269,2287,2308,2328,2347,2367,2389,2408,2428,2448,2468,2487,2507],"xSR":741.5,"ySR":573.95,"xT1":424.9,"yT1":0,"xT2":1058.1,"yT2":0,"toosoon":0,"cond_shown":"Incongruent","ratio_trial":100,"L_num":17,"L_den":30,"R_num":10,"R_den":15,"correct_side":2,"subjID":"samuelcorba33","gender":"0","school":"4","age":"9"},{"start_time":1552313381688,"click_time":1552313382736,"finger_time":1552313382394,"fix_duration":472.06244408562924,"trial":55,"RT":706,"MT":342,"sideResp":1,"stimulus":[],"xmouse":[779,779,779,779,779,779,779,779,779,779,779,779,779,779,779,780,781,781,781,781,782,782,782,782,782,782,782,782,782,782,782,782,782,782,778,764,705,666,623,577,528,505,495,494,494,494,494,494,494,494,494,494,493],"ymouse":[628,628,628,628,628,628,628,628,628,628,628,628,628,628,628,629,629,628,628,628,627,627,627,627,627,627,627,627,627,627,627,627,627,609,575,511,303,186,79,0,0,0,0,0,0,0,0,0,0,0,0,0,3],"timestamp_mouse":[8,40,47,66,86,107,126,147,167,187,207,228,246,266,288,306,326,346,368,387,407,427,448,466,487,506,526,546,568,587,606,626,647,666,688,706,727,746,766,788,806,826,847,867,886,907,926,947,966,986,1007,1027,1048],"xSR":741.5,"ySR":573.95,"xT1":424.9,"yT1":0,"xT2":1058.1,"yT2":0,"toosoon":0,"cond_shown":"Congruent","ratio_trial":300,"L_num":20,"L_den":25,"R_num":14,"R_den":28,"correct_side":1,"subjID":"samuelcorba33","gender":"0","school":"4","age":"9"},{"start_time":1552313385176,"click_time":1552313385996,"finger_time":1552313385495,"fix_duration":1140.612525598723,"trial":56,"RT":319,"MT":501,"sideResp":1,"stimulus":[],"xmouse":[766,766,766,766,766,766,766,766,766,766,766,766,767,767,766,758,747,715,701,689,678,670,644,620,607,600,595,589,585,580,573,567,555,547,540,532,525,509,502,493,486],"ymouse":[615,615,615,615,615,615,615,615,615,615,615,615,613,602,587,569,548,503,486,472,460,449,416,381,360,338,318,284,267,248,231,219,190,178,169,158,149,129,116,100,88],"timestamp_mouse":[23,38,59,80,99,120,139,158,178,200,218,239,258,278,298,319,338,358,379,399,420,438,458,480,499,519,540,558,579,600,620,639,659,678,698,720,739,758,778,799,820],"xSR":741.5,"ySR":573.95,"xT1":424.9,"yT1":0,"xT2":1058.1,"yT2":0,"toosoon":0,"cond_shown":"Congruent","ratio_trial":100,"L_num":12,"L_den":30,"R_num":13,"R_den":26,"correct_side":2,"subjID":"samuelcorba33","gender":"0","school":"4","age":"9"},{"start_time":1552313387903,"click_time":1552313389596,"finger_time":1552313389115,"fix_duration":1067.9608838209228,"trial":57,"RT":1212,"MT":481,"sideResp":1,"stimulus":[],"xmouse":[801,801,801,801,801,801,801,801,801,801,801,801,801,801,801,801,801,801,801,801,801,801,801,801,801,801,801,801,801,801,801,801,801,801,801,801,801,801,801,801,801,801,801,801,801,801,801,801,801,801,801,801,801,801,801,801,801,801,800,796,778,747,740,738,738,738,737,724,714,700,690,682,671,670,670,670,670,669,669,664,656,615,576,529,468],"ymouse":[633,633,633,633,633,633,633,633,633,633,633,633,633,633,633,633,633,633,633,633,633,633,633,633,633,633,633,633,633,633,633,633,633,633,633,633,633,633,633,633,633,633,633,633,633,633,633,633,633,633,633,633,633,633,633,633,633,633,618,600,557,496,479,474,471,469,459,409,382,352,329,308,277,268,261,260,259,259,255,241,224,163,120,75,24],"timestamp_mouse":[12,31,53,72,93,113,131,152,172,192,212,232,252,271,293,312,331,352,371,392,413,433,453,472,491,512,532,553,573,592,613,632,652,672,693,712,733,752,772,793,812,831,852,872,893,913,933,952,972,992,1013,1033,1053,1072,1093,1113,1131,1153,1172,1191,1212,1232,1252,1273,1291,1311,1331,1351,1371,1391,1411,1431,1453,1471,1491,1511,1532,1552,1573,1593,1611,1633,1652,1672,1693],"xSR":741.5,"ySR":573.95,"xT1":424.9,"yT1":0,"xT2":1058.1,"yT2":0,"toosoon":0,"cond_shown":"Incongruent","ratio_trial":200,"L_num":1,"L_den":2,"R_num":3,"R_den":10,"correct_side":1,"subjID":"samuelcorba33","gender":"0","school":"4","age":"9"},{"start_time":1552313394085,"click_time":1552313395255,"finger_time":1552313394675,"fix_duration":1329.5531795685356,"trial":58,"RT":590,"MT":580,"sideResp":1,"stimulus":[],"xmouse":[817,817,817,817,817,817,817,817,817,817,817,817,817,817,817,817,817,817,817,817,817,817,817,817,817,817,817,817,812,801,789,776,770,770,770,770,770,770,770,770,770,770,765,749,741,733,723,711,690,684,679,670,660,608,579,544,514,484,436],"ymouse":[599,599,599,599,599,599,599,599,599,599,599,599,599,599,599,599,599,599,599,599,599,599,599,599,599,599,599,599,586,563,537,511,500,497,497,495,495,495,495,494,490,480,466,429,413,396,378,357,321,306,289,271,256,223,210,187,166,140,88],"timestamp_mouse":[12,32,51,70,90,110,131,150,169,190,209,230,249,270,290,311,331,350,369,390,411,429,449,469,489,511,530,550,570,590,610,630,649,670,690,710,730,750,770,789,810,830,851,870,889,909,929,949,969,989,1009,1029,1050,1070,1091,1109,1130,1149,1169],"xSR":741.5,"ySR":573.95,"xT1":424.9,"yT1":0,"xT2":1058.1,"yT2":0,"toosoon":0,"cond_shown":"Incongruent","ratio_trial":200,"L_num":14,"L_den":30,"R_num":12,"R_den":18,"correct_side":2,"subjID":"samuelcorba33","gender":"0","school":"4","age":"9"},{"start_time":1552313397403,"click_time":1552313398195,"finger_time":1552313397436,"fix_duration":966.7096755492092,"trial":59,"RT":33,"MT":759,"sideResp":1,"stimulus":[],"xmouse":[795,795,799,801,801,801,801,801,801,804,806,810,812,812,812,812,812,812,812,812,812,812,811,805,801,788,781,741,722,704,684,668,636,622,605,592,569,537,525,516],"ymouse":[666,686,729,736,736,736,736,736,736,732,725,711,699,685,682,676,669,651,617,595,578,561,544,514,499,469,458,402,375,349,326,307,263,238,209,181,146,110,99,93],"timestamp_mouse":[12,33,52,71,92,112,132,152,173,191,213,231,251,271,291,311,331,351,372,391,412,433,451,473,492,511,533,552,572,591,611,631,652,671,692,718,732,752,772,791],"xSR":741.5,"ySR":573.95,"xT1":424.9,"yT1":0,"xT2":1058.1,"yT2":0,"toosoon":0,"cond_shown":"Congruent","ratio_trial":100,"L_num":7,"L_den":14,"R_num":15,"R_den":25,"correct_side":2,"subjID":"samuelcorba33","gender":"0","school":"4","age":"9"},{"start_time":1552313405636,"click_time":1552313406375,"finger_time":1552313405935,"fix_duration":559.1513692434786,"trial":60,"RT":299,"MT":440,"sideResp":1,"stimulus":[],"xmouse":[761,761,761,761,761,761,761,761,761,761,761,761,761,761,747,735,709,694,672,653,637,612,595,591,590,590,590,590,589,589,589,587,578,537,