[{"start_time":1552313723928,"click_time":1552313730732,"finger_time":1552313727629,"fix_duration":414.09689421223607,"trial":0,"RT":3701,"MT":3103,"sideResp":2,"stimulus":"img/900/equaldotanddens/L/8_Ratio_900_L_20_R_18.png","xmouse":[784,784,784,784,784,784,784,784,784,784,784,784,784,784,784,784,784,784,784,784,784,784,784,784,784,784,784,784,784,784,784,784,784,784,784,784,784,784,784,784,784,784,784,784,784,784,784,784,784,784,784,784,784,784,784,784,784,784,784,784,784,784,784,784,784,784,784,784,784,784,784,784,784,784,784,784,784,784,784,784,784,784,784,784,784,784,784,784,784,784,784,784,784,784,784,784,784,784,784,784,784,784,784,784,784,784,784,784,784,784,784,784,784,784,784,784,784,784,784,784,784,784,784,784,784,784,784,784,784,784,784,784,784,784,784,784,784,784,784,784,784,784,784,784,784,784,784,784,784,784,784,784,784,784,784,784,784,784,784,784,784,784,784,784,784,784,784,784,784,784,784,784,784,784,784,784,784,784,784,784,784,784,787,788,792,792,792,793,794,794,794,794,794,794,794,794,794,794,794,794,794,794,794,794,794,794,786,777,775,774,780,782,782,782,781,781,781,781,781,781,781,781,781,781,781,781,781,781,781,781,781,781,781,781,781,781,781,781,781,781,781,781,781,781,781,781,781,781,781,781,781,781,781,781,781,781,781,781,781,781,781,781,781,781,781,781,781,781,780,774,746,732,717,705,690,668,588,534,512,506,505,505,505,503,499,495,494,494,494,494,494,494,494,494,494,494,494,494,494,494,494,494,497,504,512,540,565,605,665,729,807,830,845,858,869,895,900,906,914,922,942,948,953,957,959,969,975,978,982,983,985,988,991,995,998,1002,1017,1029,1042,1055,1066],"ymouse":[513,513,513,513,513,513,513,513,513,513,513,513,513,513,513,513,513,513,513,513,513,513,513,513,513,513,513,513,513,513,513,513,513,513,513,513,513,513,513,513,513,513,513,513,513,513,513,513,513,513,513,513,513,513,513,513,513,513,513,513,513,513,513,513,513,513,513,513,513,513,513,513,513,513,513,513,513,513,513,513,513,513,513,513,513,513,513,513,513,513,513,513,513,513,513,513,513,513,513,513,513,513,513,513,513,513,513,513,513,513,513,513,513,513,513,513,513,513,513,513,513,513,513,513,513,513,513,513,513,513,513,513,513,513,513,513,513,513,513,513,513,513,513,513,513,513,513,513,513,513,513,513,513,513,513,513,513,513,513,513,513,513,513,513,513,513,513,513,513,513,513,513,513,513,513,513,513,513,513,513,513,513,508,501,478,466,465,464,464,464,464,464,464,464,464,464,464,464,464,464,464,464,464,464,464,464,477,492,494,494,470,460,456,455,455,464,467,469,469,469,469,472,475,475,475,475,475,476,480,485,498,503,506,507,507,507,507,507,507,507,507,507,507,507,507,507,507,507,507,507,507,507,507,507,507,507,507,507,507,507,507,507,507,507,507,507,507,505,495,473,419,393,372,355,336,314,242,196,179,173,173,169,162,151,134,123,112,109,107,105,105,105,105,105,105,105,105,105,105,104,103,103,102,108,115,142,160,184,211,235,256,260,260,260,260,244,240,237,232,225,204,191,181,171,164,135,124,118,112,109,105,100,97,93,90,89,87,87,85,83,79],"timestamp_mouse":[8,29,43,63,82,102,123,142,162,183,203,222,243,263,282,301,321,341,363,381,401,422,442,462,481,503,523,543,562,582,603,623,642,661,683,703,723,742,761,783,803,822,842,863,883,902,921,943,963,983,1002,1021,1043,1062,1082,1101,1122,1143,1163,1182,1203,1222,1243,1261,1283,1302,1322,1342,1361,1383,1403,1422,1442,1462,1481,1502,1522,1542,1563,1581,1602,1623,1642,1662,1682,1703,1721,1743,1762,1781,1802,1823,1842,1863,1882,1901,1921,1943,1961,1981,2003,2021,2042,2063,2083,2101,2123,2141,2162,2182,2202,2222,2241,2262,2281,2301,2321,2343,2362,2382,2402,2422,2442,2463,2481,2502,2523,2541,2563,2582,2602,2622,2643,2663,2682,2702,2723,2741,2763,2781,2802,2821,2843,2863,2881,2902,2922,2941,2963,2982,3002,3021,3042,3062,3082,3102,3123,3142,3163,3182,3201,3223,3243,3261,3282,3303,3321,3342,3362,3382,3401,3422,3443,3462,3482,3502,3523,3543,3562,3583,3601,3622,3642,3662,3682,3701,3721,3742,3763,3782,3802,3823,3842,3862,3883,3902,3921,3943,3962,3983,4002,4022,4042,4062,4081,4102,4122,4141,4163,4181,4201,4221,4242,4262,4282,4302,4323,4341,4361,4383,4402,4422,4442,4462,4481,4501,4521,4542,4561,4581,4601,4622,4643,4663,4682,4701,4722,4742,4763,4782,4802,4823,4842,4862,4883,4902,4921,4942,4962,4983,5001,5023,5042,5063,5081,5101,5121,5142,5161,5182,5202,5222,5243,5262,5281,5301,5322,5342,5363,5382,5401,5421,5442,5462,5483,5502,5522,5542,5562,5582,5602,5621,5643,5662,5681,5702,5723,5742,5762,5781,5802,5823,5842,5861,5882,5903,5921,5941,5962,5982,6002,6022,6041,6062,6081,6103,6121,6142,6163,6182,6202,6221,6242,6261,6281,6303,6322,6342,6362,6382,6403,6421,6442,6462,6483,6503,6522,6542,6562,6582,6603,6621,6642,6661,6681,6702,6722,6742,6763,6782,6803],"xSR":741.5,"ySR":469.95,"xT1":424.9,"yT1":0,"xT2":1058.1,"yT2":0,"toosoon":0,"cond_shown":"equaldotanddens","ratio_trial":900,"smaller_num":"18","larger_num":"20","correct_side":1,"subjID":"samuelcorba33","gender":"0","age":"9","school":"4","test":{"fix_dur":[250,1500],"timestim":300,"targets_dim":[100,100],"targets_relative_coord":[0.3,0.7],"size_stim":[880,420],"start_dim":[100,100],"size_start":[300,300],"size_fix":60,"samplingrate":20,"img_types":["equaldotsize","equaldotanddens","randomdotsizeEA"],"ratios":[250,500,750,900],"rep_conds":9,"nTrials":120,"trials_to_rest":500,"Trials_order":[106,32,98,74,0,62,113,39,91,22,95,61,40,42,19,117,44,49,34,23,116,105,55,75,43,53,104,57,47,33,94,14,10,114,15,99,30,60,5,64,66,107,12,3,45,27,84,26,77,110,59,85,41,6,93,68,103,100,13,35,67,70,31,82,20,119,81,46,86,78,87,71,96,8,51,36,118,16,115,89,101,58,111,97,17,29,2,56,76,80,65,38,108,73,18,72,79,9,54,21,50,25,102,24,92,11,7,83,90,88,4,109,69,112,48,1,28,63,52,37],"cond_shown":["equaldotanddens","randomdotsizeEA","randomdotsizeEA","randomdotsizeEA","equaldotsize","randomdotsizeEA","randomdotsizeEA","equaldotsize","equaldotanddens","equaldotanddens","randomdotsizeEA","equaldotanddens","equaldotanddens","equaldotsize","equaldotanddens","equaldotsize","randomdotsizeEA","equaldotanddens","equaldotanddens","randomdotsizeEA","randomdotsizeEA","equaldotsize","equaldotanddens","equaldotsize","equaldotanddens","randomdotsizeEA","randomdotsizeEA","equaldotsize","randomdotsizeEA","equaldotsize","equaldotanddens","randomdotsizeEA","equaldotanddens","equaldotsize","equaldotsize","equaldotsize","equaldotsize","equaldotsize","randomdotsizeEA","equaldotanddens","equaldotsize","randomdotsizeEA","equaldotsize","equaldotsize","equaldotsize","equaldotsize","equaldotsize","randomdotsizeEA","randomdotsizeEA","randomdotsizeEA","randomdotsizeEA","equaldotanddens","randomdotsizeEA","equaldotsize","equaldotsize","randomdotsizeEA","equaldotanddens","equaldotanddens","equaldotanddens","randomdotsizeEA","equaldotanddens","equaldotanddens","equaldotanddens","equaldotanddens","randomdotsizeEA","randomdotsizeEA","equaldotsize","equaldotanddens","randomdotsizeEA","equaldotsize","equaldotsize","randomdotsizeEA","equaldotsize","randomdotsizeEA","equaldotsize","equaldotsize","equaldotanddens","equaldotanddens","equaldotanddens","randomdotsizeEA","randomdotsizeEA","equaldotanddens","equaldotsize","equaldotanddens","randomdotsizeEA","randomdotsizeEA","randomdotsizeEA","randomdotsizeEA","equaldotanddens","randomdotsizeEA","randomdotsizeEA","randomdotsizeEA","equaldotsize","equaldotanddens","equaldotsize","equaldotsize","equaldotanddens","equaldotsize","equaldotsize","equaldotsize","randomdotsizeEA","equaldotanddens","equaldotsize","equaldotsize","randomdotsizeEA","randomdotsizeEA","equaldotanddens","randomdotsizeEA","equaldotsize","equaldotanddens","equaldotanddens","equaldotanddens","equaldotsize","equaldotanddens","equaldotsize","equaldotanddens","equaldotanddens","equaldotsize","equaldotanddens","equaldotanddens"],"ratio_trial":[900,750,250,250,250,250,500,500,750,900,900,250,500,750,750,900,750,250,900,900,750,900,750,500,750,500,750,900,900,900,900,250,900,750,500,500,750,250,500,500,750,900,250,500,900,500,250,250,500,250,900,250,500,750,900,750,750,500,250,900,750,900,750,900,750,900,900,900,250,750,500,900,250,750,500,250,900,500,750,500,500,900,500,250,500,500,250,750,500,750,500,250,250,250,750,250,750,900,750,900,250,250,750,250,750,900,750,900,750,500,500,250,900,500,250,250,500,500,500,250],"smaller_num":["18","15","4","5","2","6","9","9","18","18","18","2","2","6","15","18","3","2","9","18","15","9","15","2","6","1","3","9","9","9","9","3","18","15","3","10","15","4","10","10","15","9","3","5","18","4","2","2","9","3","18","2","3","15","9","6","15","9","3","18","15","9","3","18","15","18","18","9","3","6","6","9","5","3","6","2","18","10","3","9","10","18","6","3","2","5","6","15","5","15","6","6","2","3","15","1","9","9","3","18","4","3","3","2","3","18","6","18","3","9","4","4","9","4","4","2","4","3","2","5"],"larger_num":["20","20","16","20","8","24","18","18","24","20","20","8","4","8","20","20","4","8","10","20","20","10","20","4","8","2","4","10","10","10","10","12","20","20","6","20","20","16","20","20","20","10","12","10","20","8","8","8","18","12","20","8","6","20","10","8","20","18","12","20","20","10","4","20","20","20","20","10","12","8","12","10","20","4","12","8","20","20","4","18","20","20","12","12","4","10","24","20","10","20","12","24","8","12","20","4","12","10","4","20","16","12","4","8","4","20","8","20","4","18","8","16","10","8","16","8","8","6","4","20"],"correct_side":[1,2,2,2,1,2,2,2,1,1,1,1,1,2,2,2,2,1,2,2,2,2,2,1,1,2,1,2,1,1,1,2,1,1,2,2,1,1,2,2,2,2,1,2,2,1,2,1,1,1,2,1,2,2,2,1,2,2,2,1,2,2,1,1,2,1,1,2,1,2,1,2,2,1,1,1,1,2,1,2,2,1,1,2,2,1,2,2,2,2,1,1,2,1,2,2,2,1,1,2,2,2,2,1,2,1,1,2,1,2,1,1,1,1,1,2,1,2,1,2],"img_shown":["img/900/equaldotanddens/L/8_Ratio_900_L_20_R_18.png","img/750/randomdotsizeEA/R/5_Ratio_750_L_15_R_20.png","img/250/randomdotsizeEA/R/10_Ratio_250_L_4_R_16.png","img/250/randomdotsizeEA/R/12_Ratio_250_L_5_R_20.png","img/250/equaldotsize/L/1_Ratio_250_L_8_R_2.png","img/250/randomdotsizeEA/R/6_Ratio_250_L_6_R_24.png","img/500/randomdotsizeEA/R/6_Ratio_500_L_9_R_18.png","img/500/equaldotsize/R/1_Ratio_500_L_9_R_18.png","img/750/equaldotanddens/L/6_Ratio_750_L_24_R_18.png","img/900/equaldotanddens/L/4_Ratio_900_L_20_R_18.png","img/900/randomdotsizeEA/L/8_Ratio_900_L_20_R_18.png","img/250/equaldotanddens/L/7_Ratio_250_L_8_R_2.png","img/500/equaldotanddens/L/10_Ratio_500_L_4_R_2.png","img/750/equaldotsize/R/2_Ratio_750_L_6_R_8.png","img/750/equaldotanddens/R/5_Ratio_750_L_15_R_20.png","img/900/equaldotsize/R/13_Ratio_900_L_18_R_20.png","img/750/randomdotsizeEA/R/7_Ratio_750_L_3_R_4.png","img/250/equaldotanddens/L/1_Ratio_250_L_8_R_2.png","img/900/equaldotanddens/R/3_Ratio_900_L_9_R_10.png","img/900/randomdotsizeEA/R/11_Ratio_900_L_18_R_20.png","img/750/randomdotsizeEA/R/3_Ratio_750_L_15_R_20.png","img/900/equaldotsize/R/5_Ratio_900_L_9_R_10.png","img/750/equaldotanddens/R/4_Ratio_750_L_15_R_20.png","img/500/equaldotsize/L/10_Ratio_500_L_4_R_2.png","img/750/equaldotanddens/L/14_Ratio_750_L_8_R_6.png","img/500/randomdotsizeEA/R/12_Ratio_500_L_1_R_2.png","img/750/randomdotsizeEA/L/9_Ratio_750_L_4_R_3.png","img/900/equaldotsize/R/5_Ratio_900_L_9_R_10.png","img/900/randomdotsizeEA/L/1_Ratio_900_L_10_R_9.png","img/900/equaldotsize/L/1_Ratio_900_L_10_R_9.png","img/900/equaldotanddens/L/1_Ratio_900_L_10_R_9.png","img/250/randomdotsizeEA/R/4_Ratio_250_L_3_R_12.png","img/900/equaldotanddens/L/4_Ratio_900_L_20_R_18.png","img/750/equaldotsize/L/1_Ratio_750_L_20_R_15.png","img/500/equaldotsize/R/2_Ratio_500_L_3_R_6.png","img/500/equaldotsize/R/3_Ratio_500_L_10_R_20.png","img/750/equaldotsize/L/1_Ratio_750_L_20_R_15.png","img/250/equaldotsize/L/2_Ratio_250_L_16_R_4.png","img/500/randomdotsizeEA/R/3_Ratio_500_L_10_R_20.png","img/500/equaldotanddens/R/3_Ratio_500_L_10_R_20.png","img/750/equaldotsize/R/4_Ratio_750_L_15_R_20.png","img/900/randomdotsizeEA/R/7_Ratio_900_L_9_R_10.png","img/250/equaldotsize/L/15_Ratio_250_L_12_R_3.png","img/500/equaldotsize/R/14_Ratio_500_L_5_R_10.png","img/900/equaldotsize/R/14_Ratio_900_L_18_R_20.png","img/500/equaldotsize/L/8_Ratio_500_L_8_R_4.png","img/250/equaldotsize/R/13_Ratio_250_L_2_R_8.png","img/250/randomdotsizeEA/L/3_Ratio_250_L_8_R_2.png","img/500/randomdotsizeEA/L/4_Ratio_500_L_18_R_9.png","img/250/randomdotsizeEA/L/15_Ratio_250_L_12_R_3.png","img/900/randomdotsizeEA/R/9_Ratio_900_L_18_R_20.png","img/250/equaldotanddens/L/7_Ratio_250_L_8_R_2.png","img/500/randomdotsizeEA/R/2_Ratio_500_L_3_R_6.png","img/750/equaldotsize/R/5_Ratio_750_L_15_R_20.png","img/900/equaldotsize/R/6_Ratio_900_L_9_R_10.png","img/750/randomdotsizeEA/L/13_Ratio_750_L_8_R_6.png","img/750/equaldotanddens/R/4_Ratio_750_L_15_R_20.png","img/500/equaldotanddens/R/6_Ratio_500_L_9_R_18.png","img/250/equaldotanddens/R/4_Ratio_250_L_3_R_12.png","img/900/randomdotsizeEA/L/4_Ratio_900_L_20_R_18.png","img/750/equaldotanddens/R/4_Ratio_750_L_15_R_20.png","img/900/equaldotanddens/R/5_Ratio_900_L_9_R_10.png","img/750/equaldotanddens/L/10_Ratio_750_L_4_R_3.png","img/900/equaldotanddens/L/4_Ratio_900_L_20_R_18.png","img/750/randomdotsizeEA/R/5_Ratio_750_L_15_R_20.png","img/900/randomdotsizeEA/L/10_Ratio_900_L_20_R_18.png","img/900/equaldotsize/L/2_Ratio_900_L_20_R_18.png","img/900/equaldotanddens/R/7_Ratio_900_L_9_R_10.png","img/250/randomdotsizeEA/L/15_Ratio_250_L_12_R_3.png","img/750/equaldotsize/R/2_Ratio_750_L_6_R_8.png","img/500/equaldotsize/L/13_Ratio_500_L_12_R_6.png","img/900/randomdotsizeEA/R/6_Ratio_900_L_9_R_10.png","img/250/equaldotsize/R/12_Ratio_250_L_5_R_20.png","img/750/randomdotsizeEA/L/8_Ratio_750_L_4_R_3.png","img/500/equaldotsize/L/11_Ratio_500_L_12_R_6.png","img/250/equaldotsize/L/7_Ratio_250_L_8_R_2.png","img/900/equaldotanddens/L/10_Ratio_900_L_20_R_18.png","img/500/equaldotanddens/R/3_Ratio_500_L_10_R_20.png","img/750/equaldotanddens/L/8_Ratio_750_L_4_R_3.png","img/500/randomdotsizeEA/R/1_Ratio_500_L_9_R_18.png","img/500/randomdotsizeEA/R/3_Ratio_500_L_10_R_20.png","img/900/equaldotanddens/L/2_Ratio_900_L_20_R_18.png","img/500/equaldotsize/L/11_Ratio_500_L_12_R_6.png","img/250/equaldotanddens/R/11_Ratio_250_L_3_R_12.png","img/500/randomdotsizeEA/R/9_Ratio_500_L_2_R_4.png","img/500/randomdotsizeEA/L/7_Ratio_500_L_10_R_5.png","img/250/randomdotsizeEA/R/6_Ratio_250_L_6_R_24.png","img/750/randomdotsizeEA/R/3_Ratio_750_L_15_R_20.png","img/500/equaldotanddens/R/14_Ratio_500_L_5_R_10.png","img/750/randomdotsizeEA/R/3_Ratio_750_L_15_R_20.png","img/500/randomdotsizeEA/L/13_Ratio_500_L_12_R_6.png","img/250/randomdotsizeEA/L/5_Ratio_250_L_24_R_6.png","img/250/equaldotsize/R/13_Ratio_250_L_2_R_8.png","img/250/equaldotanddens/L/15_Ratio_250_L_12_R_3.png","img/750/equaldotsize/R/5_Ratio_750_L_15_R_20.png","img/250/equaldotsize/R/8_Ratio_250_L_1_R_4.png","img/750/equaldotanddens/R/15_Ratio_750_L_9_R_12.png","img/900/equaldotsize/L/1_Ratio_900_L_10_R_9.png","img/750/equaldotsize/L/10_Ratio_750_L_4_R_3.png","img/900/equaldotsize/R/9_Ratio_900_L_18_R_20.png","img/250/randomdotsizeEA/R/10_Ratio_250_L_4_R_16.png","img/250/equaldotanddens/R/11_Ratio_250_L_3_R_12.png","img/750/equaldotsize/R/7_Ratio_750_L_3_R_4.png","img/250/equaldotsize/L/3_Ratio_250_L_8_R_2.png","img/750/randomdotsizeEA/R/12_Ratio_750_L_3_R_4.png","img/900/randomdotsizeEA/L/10_Ratio_900_L_20_R_18.png","img/750/equaldotanddens/L/13_Ratio_750_L_8_R_6.png","img/900/randomdotsizeEA/R/9_Ratio_900_L_18_R_20.png","img/750/equaldotsize/L/9_Ratio_750_L_4_R_3.png","img/500/equaldotanddens/R/1_Ratio_500_L_9_R_18.png","img/500/equaldotanddens/L/8_Ratio_500_L_8_R_4.png","img/250/equaldotanddens/L/2_Ratio_250_L_16_R_4.png","img/900/equaldotsize/L/1_Ratio_900_L_10_R_9.png","img/500/equaldotanddens/L/8_Ratio_500_L_8_R_4.png","img/250/equaldotsize/L/2_Ratio_250_L_16_R_4.png","img/250/equaldotanddens/R/13_Ratio_250_L_2_R_8.png","img/500/equaldotanddens/L/8_Ratio_500_L_8_R_4.png","img/500/equaldotsize/R/2_Ratio_500_L_3_R_6.png","img/500/equaldotanddens/L/10_Ratio_500_L_4_R_2.png","img/250/equaldotanddens/R/12_Ratio_250_L_5_R_20.png"],"Rat0":[["12_Ratio_0_L_9_R_0.png","13_Ratio_0_L_6_R_0.png","5_Ratio_0_L_2_R_0.png","6_Ratio_0_L_4_R_0.png","8_Ratio_0_L_6_R_0.png"],["1_Ratio_0_L_0_R_17.png","10_Ratio_0_L_0_R_22.png","11_Ratio_0_L_0_R_1.png","14_Ratio_0_L_0_R_24.png","15_Ratio_0_L_0_R_4.png","2_Ratio_0_L_0_R_5.png","3_Ratio_0_L_0_R_17.png","4_Ratio_0_L_0_R_7.png","7_Ratio_0_L_0_R_19.png","9_Ratio_0_L_0_R_15.png"]],"Rat250":[["1_Ratio_250_L_8_R_2.png","14_Ratio_250_L_12_R_3.png","15_Ratio_250_L_12_R_3.png","2_Ratio_250_L_16_R_4.png","3_Ratio_250_L_8_R_2.png","5_Ratio_250_L_24_R_6.png","7_Ratio_250_L_8_R_2.png"],["10_Ratio_250_L_4_R_16.png","11_Ratio_250_L_3_R_12.png","12_Ratio_250_L_5_R_20.png","13_Ratio_250_L_2_R_8.png","4_Ratio_250_L_3_R_12.png","6_Ratio_250_L_6_R_24.png","8_Ratio_250_L_1_R_4.png","9_Ratio_250_L_3_R_12.png"]],"Rat500":[["10_Ratio_500_L_4_R_2.png","11_Ratio_500_L_12_R_6.png","13_Ratio_500_L_12_R_6.png","4_Ratio_500_L_18_R_9.png","5_Ratio_500_L_4_R_2.png","7_Ratio_500_L_10_R_5.png","8_Ratio_500_L_8_R_4.png"],["1_Ratio_500_L_9_R_18.png","12_Ratio_500_L_1_R_2.png","14_Ratio_500_L_5_R_10.png","15_Ratio_500_L_1_R_2.png","2_Ratio_500_L_3_R_6.png","3_Ratio_500_L_10_R_20.png","6_Ratio_500_L_9_R_18.png","9_Ratio_500_L_2_R_4.png"]],"Rat750":[["1_Ratio_750_L_20_R_15.png","10_Ratio_750_L_4_R_3.png","13_Ratio_750_L_8_R_6.png","14_Ratio_750_L_8_R_6.png","6_Ratio_750_L_24_R_18.png","8_Ratio_750_L_4_R_3.png","9_Ratio_750_L_4_R_3.png"],["11_Ratio_750_L_12_R_16.png","12_Ratio_750_L_3_R_4.png","15_Ratio_750_L_9_R_12.png","2_Ratio_750_L_6_R_8.png","3_Ratio_750_L_15_R_20.png","4_Ratio_750_L_15_R_20.png","5_Ratio_750_L_15_R_20.png","7_Ratio_750_L_3_R_4.png"]],"Rat900":[["1_Ratio_900_L_10_R_9.png","10_Ratio_900_L_20_R_18.png","2_Ratio_900_L_20_R_18.png","4_Ratio_900_L_20_R_18.png","8_Ratio_900_L_20_R_18.png"],["11_Ratio_900_L_18_R_20.png","12_Ratio_900_L_18_R_20.png","13_Ratio_900_L_18_R_20.png","14_Ratio_900_L_18_R_20.png","15_Ratio_900_L_9_R_10.png","3_Ratio_900_L_9_R_10.png","5_Ratio_900_L_9_R_10.png","6_Ratio_900_L_9_R_10.png","7_Ratio_900_L_9_R_10.png","9_Ratio_900_L_18_R_20.png"]],"Rat1000":[["10_Ratio_1000_L_16_R_16.png","11_Ratio_1000_L_6_R_6.png","12_Ratio_1000_L_14_R_14.png","13_Ratio_1000_L_20_R_20.png","15_Ratio_1000_L_15_R_15.png","2_Ratio_1000_L_17_R_17.png","4_Ratio_1000_L_9_R_9.png","5_Ratio_1000_L_6_R_6.png","6_Ratio_1000_L_19_R_19.png","8_Ratio_1000_L_14_R_14.png","9_Ratio_1000_L_25_R_25.png"],["1_Ratio_1000_L_1_R_1.png","14_Ratio_1000_L_17_R_17.png","3_Ratio_1000_L_17_R_17.png","7_Ratio_1000_L_6_R_6.png"]]}},{"start_time":1552313736046,"click_time":1552313737490,"finger_time":1552313737031,"fix_duration":695.0867120516377,"trial":1,"RT":985,"MT":459,"sideResp":1,"stimulus":"img/750/randomdotsizeEA/R/5_Ratio_750_L_15_R_20.png","xmouse":[746,746,746,747,747,748,748,748,748,748,748,748,748,748,748,748,750,750,750,750,750,750,750,750,750,750,750,750,750,751,751,751,751,751,750,750,750,749,748,747,747,747,747,747,747,747,747,747,746,734,637,556,443,354,321,318,318,319,319,319,318,319,325,336,356,392,410,414,417,422,429,435,443],"ymouse":[512,515,515,522,522,523,523,523,523,523,523,523,523,523,523,523,523,523,523,523,523,523,523,523,523,523,523,523,523,523,523,524,524,524,525,525,525,526,526,527,527,527,527,527,527,527,527,527,527,521,495,473,430,366,319,301,287,275,268,262,239,226,216,208,196,172,159,152,143,136,122,110,94],"timestamp_mouse":[16,37,44,63,83,103,125,144,164,184,204,224,245,263,284,304,325,343,364,384,403,425,445,463,485,504,524,543,565,584,604,623,644,663,685,703,725,744,764,784,804,824,845,865,884,903,924,945,964,985,1004,1024,1045,1064,1085,1104,1123,1143,1164,1183,1204,1224,1244,1264,1285,1304,1324,1344,1363,1383,1404,1423,1443],"xSR":741.5,"ySR":469.95,"xT1":424.9,"yT1":0,"xT2":1058.1,"yT2":0,"toosoon":0,"cond_shown":"randomdotsizeEA","ratio_trial":750,"smaller_num":"15","larger_num":"20","correct_side":2,"subjID":"samuelcorba33","gender":"0","age":"9","school":"4"},{"start_time":1552313739312,"click_time":1552313741369,"finger_time":1552313740630,"fix_duration":1101.2169793079665,"trial":2,"RT":1318,"MT":739,"sideResp":2,"stimulus":"img/250/randomdotsizeEA/R/10_Ratio_250_L_4_R_16.png","xmouse":[813,813,813,813,813,813,813,813,813,813,813,813,813,813,813,813,813,813,813,813,813,813,813,813,813,813,813,813,813,813,813,813,813,813,813,813,813,813,813,813,813,813,813,813,813,813,813,813,813,813,813,813,813,813,813,811,808,805,805,805,803,803,803,803,803,803,803,807,809,813,816,823,865,883,905,913,917,925,929,935,938,948,963,969,975,981,987,990,990,991,993,997,997,997,997,997,997,997,997,997,1050,1058,1086],"ymouse":[516,516,516,516,516,516,516,516,516,516,516,516,516,516,516,516,516,516,516,516,516,516,516,516,516,516,516,516,516,516,516,516,516,516,516,516,516,516,516,516,516,516,516,516,516,516,516,516,516,516,516,516,516,516,516,516,516,516,516,516,516,512,499,493,483,467,445,403,387,369,351,325,255,230,203,194,186,172,164,149,142,115,73,53,33,15,3,2,2,2,2,0,0,0,0,0,0,0,0,0,3,9,26],"timestamp_mouse":[18,39,58,78,99,119,138,159,179,198,218,237,258,277,299,319,338,359,379,397,419,439,458,477,497,519,538,559,578,598,619,637,659,678,699,719,738,759,778,798,819,839,858,879,898,918,939,959,978,999,1018,1038,1058,1079,1097,1118,1138,1158,1177,1197,1218,1238,1258,1278,1298,1318,1338,1357,1378,1399,1418,1439,1458,1478,1498,1518,1538,1557,1577,1597,1619,1638,1659,1678,1698,1719,1738,1758,1779,1797,1818,1838,1858,1877,1898,1919,1938,1957,1978,1997,2018,2037,2057],"xSR":741.5,"ySR":469.95,"xT1":424.9,"yT1":0,"xT2":1058.1,"yT2":0,"toosoon":0,"cond_shown":"randomdotsizeEA","ratio_trial":250,"smaller_num":"4","larger_num":"16","correct_side":2,"subjID":"samuelcorba33","gender":"0","age":"9","school":"4"},{"start_time":1552313744529,"click_time":1552313745530,"finger_time":1552313745229,"fix_duration":917.2348854698288,"trial":3,"RT":700,"MT":301,"sideResp":2,"stimulus":"img/250/randomdotsizeEA/R/12_Ratio_250_L_5_R_20.png","xmouse":[794,794,794,794,794,794,794,794,794,794,794,794,794,794,794,794,794,794,794,794,794,794,794,794,794,794,792,789,787,786,786,786,788,795,800,806,812,820,825,835,847,869,917,937,952,968,979,1003,1025,1042,1059],"ymouse":[526,526,526,526,526,526,526,526,526,526,526,526,526,526,526,526,526,526,526,526,526,526,526,526,526,526,527,528,528,529,529,529,519,498,471,439,401,352,334,304,279,246,199,186,170,147,128,95,66,49,35],"timestamp_mouse":[8,21,40,60,81,100,122,142,162,181,201,221,242,260,280,301,321,342,361,380,400,421,440,462,480,500,520,541,560,582,602,621,641,661,681,700,721,740,761,780,801,821,840,861,880,902,921,941,960,981,1001],"xSR":741.5,"ySR":469.95,"xT1":424.9,"yT1":0,"xT2":1058.1,"yT2":0,"toosoon":0,"cond_shown":"randomdotsizeEA","ratio_trial":250,"smaller_num":"5","larger_num":"20","correct_side":2,"subjID":"samuelcorba33","gender":"0","age":"9","school":"4"},{"start_time":1552313747265,"click_time":1552313748249,"finger_time":1552313747910,"fix_duration":853.1193874819797,"trial":4,"RT":645,"MT":339,"sideResp":1,"stimulus":"img/250/equaldotsize/L/1_Ratio_250_L_8_R_2.png","xmouse":[803,803,803,803,803,803,803,803,803,803,803,803,803,803,803,803,803,803,803,803,803,803,803,803,803,803,803,803,803,803,803,789,761,733,701,663,621,612,609,604,600,570,556,540,531,519,512,501,493,487],"ymouse":[520,520,520,520,520,520,520,520,520,520,520,520,520,520,520,520,520,520,520,520,520,520,520,520,520,520,520,520,520,520,520,494,448,407,367,332,290,277,269,262,255,229,218,207,200,178,156,132,114,97],"timestamp_mouse":[11,32,44,64,85,105,125,144,165,185,205,225,246,265,286,304,325,345,366,385,404,425,446,466,486,505,524,545,566,585,604,625,645,665,684,704,724,744,764,785,805,826,845,865,884,906,924,945,965,984],"xSR":741.5,"ySR":469.95,"xT1":424.9,"yT1":0,"xT2":1058.1,"yT2":0,"toosoon":0,"cond_shown":"equaldotsize","ratio_trial":250,"smaller_num":"2","larger_num":"8","correct_side":1,"subjID":"samuelcorba33","gender":"0","age":"9","school":"4"},{"start_time":1552313750310,"click_time":1552313751491,"finger_time":1552313750990,"fix_duration":1377.1989760684332,"trial":5,"RT":680,"MT":501,"sideResp":2,"stimulus":"img/250/randomdotsizeEA/R/6_Ratio_250_L_6_R_24.png","xmouse":[785,785,785,785,785,785,785,785,785,785,785,785,785,785,785,785,785,785,785,785,785,785,785,785,785,785,785,785,785,785,785,785,785,785,798,805,820,833,850,902,943,990,1046,1094,1135,1144,1149,1152,1152,1152,1152,1152,1152,1152,1152,1152,1152,1149,1140,1118],"ymouse":[533,533,533,533,533,533,533,533,533,533,533,533,533,533,533,533,533,533,533,533,533,533,533,533,533,533,533,533,533,533,533,533,525,512,467,449,416,392,371,327,298,264,218,177,135,121,116,112,112,112,112,112,112,112,112,112,112,111,106,89],"timestamp_mouse":[8,27,40,61,79,100,120,140,161,180,200,220,239,261,281,300,320,341,361,379,399,419,440,459,481,500,519,541,561,580,601,619,640,659,680,700,720,740,760,779,800,820,840,861,880,899,920,940,959,980,1000,1019,1040,1061,1079,1100,1119,1140,1160,1180],"xSR":741.5,"ySR":469.95,"xT1":424.9,"yT1":0,"xT2":1058.1,"yT2":0,"toosoon":0,"cond_shown":"randomdotsizeEA","ratio_trial":250,"smaller_num":"6","larger_num":"24","correct_side":2,"subjID":"samuelcorba33","gender":"0","age":"9","school":"4"},{"start_time":1552313752802,"click_time":1552313753890,"finger_time":1552313753390,"fix_duration":250,"trial":6,"RT":588,"MT":500,"sideResp":2,"stimulus":"img/500/randomdotsizeEA/R/6_Ratio_500_L_9_R_18.png","xmouse":[810,810,810,810,810,810,810,810,811,811,811,811,811,811,811,811,811,811,811,811,811,811,811,811,811,813,815,817,818,819,819,822,825,829,841,849,862,881,904,955,969,979,986,993,1014,1024,1031,1033,1035,1037,1038,1040,1040,1046,1067],"ymouse":[517,517,517,517,517,517,517,517,517,517,517,517,517,517,517,517,517,517,517,517,517,517,516,516,512,508,502,494,484,459,441,418,403,389,364,351,336,318,299,261,246,228,204,188,157,145,135,126,121,118,117,116,116,112,95],"timestamp_mouse":[10,31,48,69,88,109,129,149,167,188,209,227,248,268,289,307,327,347,368,388,407,428,447,468,488,508,527,548,569,587,609,627,647,667,688,708,728,747,767,787,808,828,847,867,888,908,928,948,968,987,1008,1028,1048,1068,1088],"xSR":741.5,"ySR":469.95,"xT1":424.9,"yT1":0,"xT2":1058.1,"yT2":0,"toosoon":0,"cond_shown":"randomdotsizeEA","ratio_trial":500,"smaller_num":"9","larger_num":"18","correct_side":2,"subjID":"samuelcorba33","gender":"0","age":"9","school":"4"},{"start_time":1552313754881,"click_time":1552313755830,"finger_time":1552313755330,"fix_duration":250,"trial":7,"RT":449,"MT":500,"sideResp":2,"stimulus":"img/500/equaldotsize/R/1_Ratio_500_L_9_R_18.png","xmouse":[805,805,805,805,805,805,805,805,805,805,805,805,805,805,805,805,805,805,804,806,812,833,843,851,859,867,921,941,954,963,977,983,988,993,997,1001,1003,1004,1004,1004,1007,1012,1018,1026,1036,1053,1057,1059],"ymouse":[529,529,529,529,529,529,529,529,529,529,529,529,529,529,529,529,529,529,528,518,505,472,459,447,436,420,345,317,289,263,211,191,175,155,141,125,119,118,118,117,111,105,98,92,85,75,71,70],"timestamp_mouse":[8,28,49,70,89,110,129,149,170,189,210,229,249,270,289,309,330,348,370,389,408,429,449,469,488,509,529,549,570,589,609,629,650,669,688,709,728,750,768,788,810,829,849,868,889,909,929,949],"xSR":741.5,"ySR":469.95,"xT1":424.9,"yT1":0,"xT2":1058.1,"yT2":0,"toosoon":0,"cond_shown":"equaldotsize","ratio_trial":500,"smaller_num":"9","larger_num":"18","correct_side":2,"subjID":"samuelcorba33","gender":"0","age":"9","school":"4"},{"start_time":1552313758637,"click_time":1552313761810,"finger_time":1552313761230,"fix_duration":485.0381713585519,"trial":8,"RT":2593,"MT":580,"sideResp":2,"stimulus":"img/750/equaldotanddens/L/6_Ratio_750_L_24_R_18.png","xmouse":[766,766,766,766,766,766,766,766,766,766,766,766,766,766,766,766,766,766,766,766,766,766,766,766,766,766,766,766,766,766,766,766,766,766,766,766,766,766,766,766,766,766,766,766,766,766,766,766,766,766,766,766,766,766,766,766,766,766,766,766,766,766,766,774,786,793,795,795,795,795,795,795,795,795,795,795,795,795,795,795,795,795,795,795,795,795,795,795,795,795,795,795,795,795,795,795,795,795,795,795,795,795,795,795,795,795,795,795,795,795,795,795,795,795,795,795,795,795,795,795,795,795,795,795,795,795,795,795,809,828,839,845,846,844,843,843,843,843,843,843,848,863,889,931,945,954,968,977,996,1006,1010,1012,1013,1013,1016,1019,1036,1052,1086],"ymouse":[560,560,560,560,560,560,560,560,560,560,560,560,560,560,560,560,560,560,560,560,560,560,560,560,560,560,560,560,560,560,560,560,560,560,560,560,560,560,560,560,560,560,560,560,560,560,560,560,560,560,560,560,560,560,560,560,560,560,560,560,560,560,560,552,540,536,534,534,534,534,534,534,534,534,534,534,534,534,534,534,534,534,534,534,534,534,534,534,534,534,534,534,534,534,534,534,534,534,534,534,534,534,534,534,534,534,534,534,534,534,534,534,534,534,534,534,534,534,534,534,534,534,534,534,534,534,534,534,502,459,423,394,366,329,312,296,276,252,207,189,171,149,120,79,63,55,50,49,49,49,49,49,49,49,49,49,49,49,49],"timestamp_mouse":[12,32,53,72,93,114,133,152,173,192,213,232,254,274,292,312,334,352,372,392,414,433,452,474,492,512,534,553,572,593,614,633,654,673,692,712,734,754,773,793,814,833,853,872,892,914,933,952,972,994,1014,1032,1053,1074,1094,1113,1133,1153,1174,1193,1214,1232,1252,1273,1293,1313,1333,1354,1373,1393,1414,1433,1453,1473,1493,1512,1534,1553,1574,1594,1614,1634,1653,1673,1693,1713,1733,1754,1773,1793,1812,1834,1853,1874,1894,1913,1932,1952,1974,1994,2012,2033,2053,2073,2094,2113,2134,2153,2172,2193,2213,2233,2253,2272,2293,2312,2332,2353,2374,2393,2412,2432,2453,2474,2494,2513,2532,2552,2572,2593,2612,2633,2654,2673,2693,2713,2732,2752,2773,2792,2813,2833,2853,2872,2893,2913,2933,2952,2973,2992,3014,3033,3053,3073,3094,3114,3134,3153,3173],"xSR":741.5,"ySR":469.95,"xT1":424.9,"yT1":0,"xT2":1058.1,"yT2":0,"toosoon":0,"cond_shown":"equaldotanddens","ratio_trial":750,"smaller_num":"18","larger_num":"24","correct_side":1,"subjID":"samuelcorba33","gender":"0","age":"9","school":"4"},{"start_time":1552313762861,"click_time":1552313763711,"finger_time":1552313763509,"fix_duration":250,"trial":9,"RT":648,"MT":202,"sideResp":1,"stimulus":"img/900/equaldotanddens/L/4_Ratio_900_L_20_R_18.png","xmouse":[773,773,773,773,773,773,773,773,773,773,773,773,773,773,773,773,773,773,773,773,773,773,773,773,773,773,773,773,773,773,773,773,741,692,664,652,644,626,602,580,555,535,498],"ymouse":[526,526,526,526,526,526,526,526,526,526,526,526,526,526,526,526,526,526,526,526,526,526,526,526,526,526,526,526,526,526,526,528,477,419,378,354,334,282,226,172,120,85,45],"timestamp_mouse":[10,28,49,68,89,110,129,149,170,188,209,229,248,269,289,309,330,348,370,388,410,428,448,470,490,509,529,549,570,588,609,629,648,669,689,708,728,749,769,789,809,828,850],"xSR":741.5,"ySR":469.95,"xT1":424.9,"yT1":0,"xT2":1058.1,"yT2":0,"toosoon":0,"cond_shown":"equaldotanddens","ratio_trial":900,"smaller_num":"18","larger_num":"20","correct_side":1,"subjID":"samuelcorba33","gender":"0","age":"9","school":"4"},{"start_time":1552313765764,"click_time":1552313766730,"finger_time":1552313766389,"fix_duration":1110.1988515742619,"trial":10,"RT":625,"MT":341,"sideResp":2,"stimulus":"img/900/randomdotsizeEA/L/8_Ratio_900_L_20_R_18.png","xmouse":[764,764,764,764,764,764,764,764,764,764,764,764,764,764,764,764,764,764,764,764,764,764,764,764,764,764,764,764,764,764,776,794,812,842,855,864,872,888,896,904,915,930,930,930,930,930,930,930,1090],"ymouse":[511,511,511,511,511,511,511,511,511,511,511,511,511,511,511,511,511,511,511,511,511,511,511,511,511,511,511,511,511,511,474,417,362,256,209,178,137,82,59,39,22,0,0,0,0,0,0,0,7],"timestamp_mouse":[11,27,45,67,87,107,126,147,167,187,206,226,247,266,286,305,327,346,365,386,406,427,447,466,485,506,527,546,566,585,606,625,645,665,687,706,726,747,765,785,806,826,846,865,886,905,926,946,966],"xSR":741.5,"ySR":469.95,"xT1":424.9,"yT1":0,"xT2":1058.1,"yT2":0,"toosoon":0,"cond_shown":"randomdotsizeEA","ratio_trial":900,"smaller_num":"18","larger_num":"20","correct_side":1,"subjID":"samuelcorba33","gender":"0","age":"9","school":"4"},{"start_time":1552313767902,"click_time":1552313768729,"finger_time":1552313768310,"fix_duration":250,"trial":11,"RT":408,"MT":419,"sideResp":1,"stimulus":"img/250/equaldotanddens/L/7_Ratio_250_L_8_R_2.png","xmouse":[786,786,786,786,786,786,786,786,786,786,786,786,786,786,786,786,786,786,785,783,772,754,749,746,742,736,721,711,700,695,685,659,639,618,598,585,570,567,561,548,537,521],"ymouse":[505,505,505,505,505,505,505,505,505,505,505,505,505,505,505,505,505,505,496,481,423,360,345,332,318,299,261,240,227,220,208,185,172,156,143,136,127,125,120,109,100,84],"timestamp_mouse":[9,28,49,69,88,108,128,148,169,189,208,228,248,268,287,308,328,347,367,389,408,428,447,467,488,508,528,548,568,588,608,627,647,668,688,709,728,748,767,788,808,827],"xSR":741.5,"ySR":469.95,"xT1":424.9,"yT1":0,"xT2":1058.1,"yT2":0,"toosoon":0,"cond_shown":"equaldotanddens","ratio_trial":250,"smaller_num":"2","larger_num":"8","correct_side":1,"subjID":"samuelcorba33","gender":"0","age":"9","school":"4"},{"start_time":1552313770272,"click_time":1552313771171,"finger_time":1552313770729,"fix_duration":819.0856889490803,"trial":12,"RT":457,"MT":442,"sideResp":1,"stimulus":"img/500/equaldotanddens/L/10_Ratio_500_L_4_R_2.png","xmouse":[756,756,756,756,756,756,756,756,756,756,756,756,756,756,756,756,756,756,756,756,756,756,757,757,757,757,757,758,758,758,755,752,750,741,736,729,718,673,626,593,580,575,557,539,518],"ymouse":[500,500,500,500,500,500,500,500,500,500,500,500,500,500,500,500,500,500,500,500,500,500,468,454,449,444,441,437,437,435,410,402,396,374,364,348,328,254,185,143,129,124,104,89,69],"timestamp_mouse":[17,37,58,78,98,119,138,157,178,197,217,238,258,279,299,318,339,358,378,398,417,437,457,478,499,517,539,559,578,597,617,637,658,677,698,718,739,758,777,797,817,837,858,877,898],"xSR":741.5,"ySR":469.95,"xT1":424.9,"yT1":0,"xT2":1058.1,"yT2":0,"toosoon":0,"cond_shown":"equaldotanddens","ratio_trial":500,"smaller_num":"2","larger_num":"4","correct_side":1,"subjID":"samuelcorba33","gender":"0","age":"9","school":"4"},{"start_time":1552313773254,"click_time":1552313774569,"finger_time":1552313774149,"fix_duration":1124.3040886314425,"trial":13,"RT":895,"MT":420,"sideResp":2,"stimulus":"img/750/equaldotsize/R/2_Ratio_750_L_6_R_8.png","xmouse":[777,777,777,777,777,777,777,777,777,777,777,777,777,777,777,777,777,777,777,777,777,777,777,777,777,777,777,777,777,777,777,777,777,777,777,777,777,777,777,777,777,777,777,803,819,834,844,851,862,910,929,942,955,972,977,982,985,989,1004,1011,1018,1029,1040,1052,1077,1086],"ymouse":[525,525,525,525,525,525,525,525,525,525,525,525,525,525,525,525,525,525,525,525,525,525,525,525,525,525,525,525,525,525,525,525,525,525,525,525,525,525,525,525,525,525,525,470,450,424,399,379,350,252,222,203,188,164,156,148,143,135,118,116,112,108,107,106,100,96],"timestamp_mouse":[16,35,56,75,95,115,135,156,175,195,216,236,256,275,295,316,335,355,375,396,416,435,455,475,495,515,536,555,575,595,615,636,657,675,695,715,736,755,775,796,815,835,855,876,895,916,936,955,975,996,1015,1035,1055,1076,1095,1116,1135,1155,1176,1195,1215,1236,1255,1276,1295,1315],"xSR":741.5,"ySR":469.95,"xT1":424.9,"yT1":0,"xT2":1058.1,"yT2":0,"toosoon":0,"cond_shown":"equaldotsize","ratio_trial":750,"smaller_num":"6","larger_num":"8","correct_side":2,"subjID":"samuelcorba33","gender":"0","age":"9","school":"4"},{"start_time":1552313775362,"click_time":1552313776849,"finger_time":1552313776149,"fix_duration":250,"trial":14,"RT":787,"MT":700,"sideResp":2,"stimulus":"img/750/equaldotanddens/R/5_Ratio_750_L_15_R_20.png","xmouse":[768,768,768,768,768,768,768,768,768,768,768,768,768,768,768,768,768,768,768,768,768,768,768,768,768,768,768,768,768,768,768,768,768,768,768,768,768,768,768,780,792,803,810,820,824,824,823,820,817,803,798,796,796,796,799,807,830,868,972,1003,1031,1052,1067,1073,1094,1104,1115,1122,1130,1133,1133,1133,1133,1133,1128],"ymouse":[496,496,496,496,496,496,496,496,496,496,496,496,496,496,496,496,496,496,496,496,496,496,496,496,496,496,496,496,496,496,496,496,496,496,496,496,496,496,496,456,435,416,401,375,329,309,288,269,253,216,204,195,193,187,180,175,167,163,163,163,163,163,160,156,142,135,128,121,114,105,102,102,101,100,94],"timestamp_mouse":[8,27,47,68,88,108,128,148,167,187,207,228,247,268,287,307,328,347,367,387,408,429,448,467,488,508,527,548,567,597,609,629,648,667,688,708,728,748,768,787,807,827,847,868,887,907,929,948,968,987,1007,1027,1048,1067,1088,1107,1127,1147,1169,1187,1208,1228,1247,1267,1288,1307,1328,1347,1367,1387,1409,1428,1448,1467,1487],"xSR":741.5,"ySR":469.95,"xT1":424.9,"yT1":0,"xT2":1058.1,"yT2":0,"toosoon":0,"cond_shown":"equaldotanddens","ratio_trial":750,"smaller_num":"15","larger_num":"20","correct_side":2,"subjID":"samuelcorba33","gender":"0","age":"9","school":"4"},{"start_time":1552313779676,"click_time":1552313780609,"finger_time":1552313780329,"fix_duration":1226.5382951759764,"trial":15,"RT":653,"MT":280,"sideResp":2,"stimulus":"img/900/equaldotsize/R/13_Ratio_900_L_18_R_20.png","xmouse":[794,794,794,794,794,794,794,794,794,794,794,794,794,794,794,794,794,794,794,794,794,794,794,794,794,794,797,798,799,801,805,814,827,877,913,934,953,966,995,1010,1025,1040,1052,1067,1073,1084,1087],"ymouse":[515,515,515,515,515,515,515,515,515,515,515,515,515,515,515,515,515,515,515,515,515,515,515,515,515,515,511,509,508,504,499,486,469,396,333,296,264,236,189,170,157,146,137,122,113,100,94],"timestamp_mouse":[13,33,55,73,93,115,133,154,173,195,213,233,254,273,295,314,334,354,375,394,413,434,454,475,494,513,533,554,574,593,613,633,653,673,694,713,734,753,774,793,814,833,854,874,895,913,933],"xSR":741.5,"ySR":469.95,"xT1":424.9,"yT1":0,"xT2":1058.1,"yT2":0,"toosoon":0,"cond_shown":"equaldotsize","ratio_trial":900,"smaller_num":"18","larger_num":"20","correct_side":2,"subjID":"samuelcorba33","gender":"0","age":"9","school":"4"},{"start_time":1552313782017,"click_time":1552313782989,"finger_time":1552313782569,"fix_duration":306.790490197963,"trial":16,"RT":552,"MT":420,"sideResp":1,"stimulus":"img/750/randomdotsizeEA/R/7_Ratio_750_L_3_R_4.png","xmouse":[799,799,799,799,799,799,799,799,799,799,799,799,799,799,799,799,799,799,799,799,799,799,799,799,799,799,793,790,788,788,788,786,773,764,753,734,709,632,615,604,600,592,585,574,564,553,552,536,523],"ymouse":[517,517,517,517,517,517,517,517,517,517,517,517,517,517,517,517,517,517,517,517,517,517,517,517,517,513,479,464,456,450,445,430,385,364,339,300,250,140,117,103,96,79,67,51,38,31,30,24,21],"timestamp_mouse":[12,32,52,73,93,112,133,152,172,192,213,232,252,272,293,313,333,353,373,394,413,432,452,473,492,512,533,552,572,592,613,632,652,673,693,712,732,753,772,794,812,833,852,872,893,912,932,952,972],"xSR":741.5,"ySR":469.95,"xT1":424.9,"yT1":0,"xT2":1058.1,"yT2":0,"toosoon":0,"cond_shown":"randomdotsizeEA","ratio_trial":750,"smaller_num":"3","larger_num":"4","correct_side":2,"subjID":"samuelcorba33","gender":"0","age":"9","school":"4"},{"start_time":1552313820630,"click_time":1552313821610,"finger_time":1552313821331,"fix_duration":1099.8098263873562,"trial":17,"RT":701,"MT":279,"sideResp":1,"stimulus":"img/250/equaldotanddens/L/1_Ratio_250_L_8_R_2.png","xmouse":[796,796,796,796,796,796,796,796,796,796,796,796,796,796,796,796,796,796,796,796,796,796,796,796,796,796,796,796,796,796,796,796,793,777,743,689,573,525,489,462,454,453,453,453,453,453,453,453,456,464],"ymouse":[550,550,550,550,550,550,550,550,550,550,550,550,550,550,550,550,550,550,550,550,550,550,550,550,550,550,550,550,550,550,550,550,546,528,487,418,286,227,184,149,139,138,138,138,138,138,138,136,103,69],"timestamp_mouse":[1,28,39,60,79,99,121,140,160,180,199,220,239,260,280,300,320,340,360,380,399,419,439,461,480,500,520,539,560,579,599,620,639,660,679,701,719,739,760,780,799,819,840,859,880,899,920,940,959,980],"xSR":741.5,"ySR":469.95,"xT1":424.9,"yT1":0,"xT2":1058.1,"yT2":0,"toosoon":0,"cond_shown":"equaldotanddens","ratio_trial":250,"smaller_num":"2","larger_num":"8","correct_side":1,"subjID":"samuelcorba33","gender":"0","age":"9","school":"4"},{"start_time":1552313823953,"click_time":1552313824970,"finger_time":1552313824629,"fix_duration":1302.408175870496,"trial":18,"RT":676,"MT":341,"sideResp":2,"stimulus":"img/900/equaldotanddens/R/3_Ratio_900_L_9_R_10.png","xmouse":[780,780,780,780,780,780,780,780,780,780,780,780,780,780,780,780,780,780,780,780,780,780,780,780,780,780,780,780,780,780,780,780,798,831,892,913,933,969,969,969,969,969,969,969,969,969,969,969,969,969,1073],"ymouse":[523,523,523,523,523,523,523,523,523,523,523,523,523,523,523,523,523,523,523,523,523,523,523,523,523,523,523,523,523,523,523,520,489,430,302,234,156,26,26,26,26,26,26,26,26,26,26,26,26,26,18],"timestamp_mouse":[16,36,58,76,96,118,138,157,176,196,217,236,258,276,297,317,336,356,377,397,417,436,456,476,496,516,536,556,576,596,616,636,657,676,696,716,737,756,776,797,817,837,857,877,897,917,936,956,976,996,1017],"xSR":741.5,"ySR":469.95,"xT1":424.9,"yT1":0,"xT2":1058.1,"yT2":0,"toosoon":0,"cond_shown":"equaldotanddens","ratio_trial":900,"smaller_num":"9","larger_num":"10","correct_side":2,"subjID":"samuelcorba33","gender":"0","age":"9","school":"4"},{"start_time":1552313826652,"click_time":1552313827569,"finger_time":1552313827229,"fix_duration":701.3014721533323,"trial":19,"RT":577,"MT":340,"sideResp":1,"stimulus":"img/900/randomdotsizeEA/R/11_Ratio_900_L_18_R_20.png","xmouse":[808,808,808,808,808,808,808,808,808,808,808,808,808,808,808,808,808,808,808,808,808,808,808,808,808,809,809,805,799,769,752,739,730,725,716,712,700,685,668,657,650,638,620,599,573,517],"ymouse":[521,521,521,521,521,521,521,521,521,521,521,521,521,521,521,521,521,521,521,521,521,521,521,521,521,500,490,475,453,378,313,278,255,242,223,217,209,203,198,195,193,189,181,164,134,52],"timestamp_mouse":[18,37,58,77,97,118,137,157,178,199,218,238,257,279,297,317,337,359,378,398,417,438,458,479,497,518,537,557,577,598,617,637,657,677,698,717,737,758,777,799,817,838,857,878,898,917],"xSR":741.5,"ySR":469.95,"xT1":424.9,"yT1":0,"xT2":1058.1,"yT2":0,"toosoon":0,"cond_shown":"randomdotsizeEA","ratio_trial":900,"smaller_num":"18","larger_num":"20","correct_side":2,"subjID":"samuelcorba33","gender":"0","age":"9","school":"4"},{"start_time":1552313829026,"click_time":1552313829950,"finger_time":1552313829549,"fix_duration":515.9209272714443,"trial":20,"RT":523,"MT":401,"sideResp":1,"stimulus":"img/750/randomdotsizeEA/R/3_Ratio_750_L_15_R_20.png","xmouse":[823,823,823,823,823,823,823,823,823,823,823,823,823,823,823,823,823,823,823,823,823,823,823,823,823,817,810,788,775,766,757,743,706,684,668,657,655,648,645,642,638,628,592,574,557,532,520],"ymouse":[523,523,523,523,523,523,523,523,523,523,523,523,523,523,523,523,523,523,523,523,523,523,523,518,508,483,465,427,407,394,381,362,310,283,265,254,250,241,237,232,225,208,154,128,108,83,73],"timestamp_mouse":[8,23,44,64,83,104,125,144,163,183,203,223,244,263,283,304,323,344,365,383,404,423,444,464,483,504,523,544,563,583,603,623,643,664,683,704,723,743,763,783,803,823,843,863,884,904,924],"xSR":741.5,"ySR":469.95,"xT1":424.9,"yT1":0,"xT2":1058.1,"yT2":0,"toosoon":0,"cond_shown":"randomdotsizeEA","ratio_trial":750,"smaller_num":"15","larger_num":"20","correct_side":2,"subjID":"samuelcorba33","gender":"0","age":"9","school":"4"},{"start_time":1552313832050,"click_time":1552313832949,"finger_time":1552313832708,"fix_duration":1300.8354206657332,"trial":21,"RT":658,"MT":241,"sideResp":2,"stimulus":"img/900/equaldotsize/R/5_Ratio_900_L_9_R_10.png","xmouse":[804,804,804,804,804,804,804,804,804,804,804,804,804,804,804,804,804,804,804,804,804,804,804,804,804,804,804,804,804,808,824,836,853,870,895,956,979,994,1005,1012,1029,1052,1073,1094,1107],"ymouse":[525,525,525,525,525,525,525,525,525,525,525,525,525,525,525,525,525,525,525,525,525,525,525,525,525,525,525,525,525,525,515,499,474,444,406,316,274,239,210,193,171,150,130,106,90],"timestamp_mouse":[34,39,60,79,100,118,140,160,178,199,220,238,259,280,299,319,340,358,380,399,420,439,459,480,500,520,538,560,578,600,619,640,658,679,699,719,738,759,779,799,818,839,858,879,899],"xSR":741.5,"ySR":469.95,"xT1":424.9,"yT1":0,"xT2":1058.1,"yT2":0,"toosoon":0,"cond_shown":"equaldotsize","ratio_trial":900,"smaller_num":"9","larger_num":"10","correct_side":2,"subjID":"samuelcorba33","gender":"0","age":"9","school":"4"},{"start_time":1552313836025,"click_time":1552313836849,"finger_time":1552313836609,"fix_duration":1154.5141807497753,"trial":22,"RT":584,"MT":240,"sideResp":2,"stimulus":"img/750/equaldotanddens/R/4_Ratio_750_L_15_R_20.png","xmouse":[797,797,797,797,797,797,797,798,799,808,818,826,826,826,826,826,826,826,825,825,825,825,825,824,824,824,824,824,839,850,863,874,893,927,951,975,995,1018,1024,1036,1049,1065],"ymouse":[482,482,482,482,482,482,482,482,489,500,512,525,525,525,525,525,525,525,525,525,525,525,525,525,525,525,525,519,498,479,458,440,405,288,214,162,130,101,97,86,73,54],"timestamp_mouse":[10,29,44,63,83,105,124,144,163,185,204,225,244,263,285,305,324,343,364,384,404,425,443,464,485,505,523,544,564,584,604,625,644,664,684,703,723,745,764,784,803,824],"xSR":741.5,"ySR":469.95,"xT1":424.9,"yT1":0,"xT2":1058.1,"yT2":0,"toosoon":0,"cond_shown":"equaldotanddens","ratio_trial":750,"smaller_num":"15","larger_num":"20","correct_side":2,"subjID":"samuelcorba33","gender":"0","age":"9","school":"4"},{"start_time":1552313838366,"click_time":1552313839268,"finger_time":1552313838868,"fix_duration":795.5942652856213,"trial":23,"RT":502,"MT":400,"sideResp":1,"stimulus":"img/500/equaldotsize/L/10_Ratio_500_L_4_R_2.png","xmouse":[784,784,784,784,784,784,784,784,784,784,784,784,784,784,784,784,784,784,784,784,783,777,771,767,760,742,594,514,464,441,423,409,409,409,411,414,417,418,418,418,419,419,419,420,424,428],"ymouse":[527,527,527,527,527,527,527,527,527,527,527,527,527,527,527,527,527,527,527,524,518,501,492,486,478,463,362,304,264,233,197,140,124,111,98,92,83,81,80,80,80,80,80,80,80,80],"timestamp_mouse":[10,32,43,64,82,104,123,142,163,184,203,222,243,264,283,302,324,344,363,382,403,422,443,462,482,502,522,544,562,582,604,623,643,662,683,703,723,743,763,783,802,822,842,863,882,902],"xSR":741.5,"ySR":469.95,"xT1":424.9,"yT1":0,"xT2":1058.1,"yT2":0,"toosoon":0,"cond_shown":"equaldotsize","ratio_trial":500,"smaller_num":"2","larger_num":"4","correct_side":1,"subjID":"samuelcorba33","gender":"0","age":"9","school":"4"},{"start_time":1552313875414,"click_time":1552313879629,"finger_time":1552313878889,"fix_duration":722.0480251005611,"trial":24,"RT":3475,"MT":740,"sideResp":1,"stimulus":"img/750/equaldotanddens/L/14_Ratio_750_L_8_R_6.png","xmouse":[782,782,782,782,782,782,782,782,782,782,782,782,782,782,782,782,782,782,782,782,782,782,782,782,782,782,782,782,782,782,782,782,782,782,782,782,782,782,782,782,782,782,782,782,782,782,782,782,782,782,782,782,782,782,782,782,782,782,782,782,782,782,782,782,782,782,782,782,782,782,782,782,782,782,782,782,782,782,782,776,772,762,751,748,748,748,748,748,748,752,753,756,756,756,757,757,757,757,757,757,757,757,757,757,757,757,757,757,757,757,757,757,757,757,757,757,757,757,757,757,757,757,757,757,757,757,757,757,757,757,757,757,757,757,757,757,757,757,757,757,757,757,757,757,757,757,757,757,757,757,757,757,757,757,757,757,757,757,757,757,757,757,757,757,757,757,757,757,757,757,757,757,758,741,667,570,497,442,439,439,439,438,447,490,512,530,544,558,562,566,567,567,562,557,557,557,556,556,547,541,539,537,535,535,534,532,530,528,527,525,520],"ymouse":[490,490,490,490,490,490,490,490,490,490,490,490,490,490,490,490,490,490,490,490,490,490,490,490,490,490,490,490,490,490,490,490,490,490,490,490,490,490,490,490,490,490,490,490,490,490,490,490,490,490,490,490,490,490,490,490,490,490,490,490,490,490,490,490,490,490,490,490,490,490,490,490,490,490,490,490,490,490,490,491,492,495,501,504,506,506,506,506,506,505,505,504,504,504,504,504,504,504,504,504,504,504,504,504,504,504,504,504,504,504,504,504,504,504,504,504,504,504,504,504,504,504,504,504,504,504,504,504,504,504,504,504,504,504,504,504,504,504,504,504,504,504,504,504,504,504,504,504,504,504,504,504,504,504,504,504,504,504,504,504,504,504,504,504,504,504,504,504,504,504,504,504,504,462,364,275,224,201,200,200,200,200,196,189,183,175,166,149,135,120,101,74,60,53,52,52,52,52,52,52,52,52,52,52,52,52,52,52,52,52,52],"timestamp_mouse":[15,40,55,76,96,116,134,155,175,195,216,235,254,275,295,315,334,356,375,396,415,434,454,476,496,514,534,555,574,595,616,635,655,675,696,715,736,756,776,795,816,836,856,874,896,915,936,955,974,995,1015,1035,1055,1076,1095,1116,1135,1154,1176,1196,1215,1234,1255,1276,1296,1314,1335,1355,1375,1395,1415,1436,1455,1476,1494,1515,1534,1555,1575,1595,1615,1634,1655,1675,1694,1714,1736,1755,1774,1795,1815,1835,1854,1874,1895,1916,1934,1954,1974,1996,2014,2034,2054,2075,2095,2116,2134,2155,2176,2195,2216,2235,2254,2275,2295,2315,2335,2355,2376,2395,2416,2435,2455,2476,2495,2514,2534,2555,2575,2595,2616,2636,2655,2675,2694,2716,2735,2755,2775,2794,2816,2835,2855,2876,2895,2914,2934,2954,2975,2996,3015,3034,3055,3076,3095,3116,3136,3154,3176,3196,3215,3235,3256,3275,3296,3315,3334,3356,3376,3394,3414,3435,3455,3475,3494,3516,3535,3556,3574,3595,3615,3635,3656,3675,3695,3716,3735,3756,3774,3794,3814,3835,3855,3876,3895,3915,3934,3954,3974,3996,4015,4035,4055,4075,4095,4115,4134,4154,4174,4196,4215],"xSR":741.5,"ySR":469.95,"xT1":424.9,"yT1":0,"xT2":1058.1,"yT2":0,"toosoon":0,"cond_shown":"equaldotanddens","ratio_trial":750,"smaller_num":"6","larger_num":"8","correct_side":1,"subjID":"samuelcorba33","gender":"0","age":"9","school":"4"},{"start_time":1552313885534,"click_time":1552313887109,"finger_time":1552313886249,"fix_duration":1264.274228217432,"trial":25,"RT":715,"MT":860,"sideResp":2,"stimulus":"img/500/randomdotsizeEA/R/12_Ratio_500_L_1_R_2.png","xmouse":[791,791,791,791,791,791,791,791,791,791,791,791,791,791,791,791,791,791,791,791,791,791,791,791,791,791,791,791,791,791,791,791,791,783,760,740,728,726,726,728,738,744,757,764,773,779,788,817,837,861,887,907,923,939,945,953,960,978,990,1002,1009,1014,1029,1034,1039,1042,1043,1044,1046,1048,1049,1051,1052,1053,1054,1056,1056,1057,1063],"ymouse":[545,544,544,544,544,544,544,544,544,544,544,544,544,544,544,544,544,544,544,544,544,544,544,544,544,544,544,544,544,544,544,544,544,543,536,529,527,526,526,518,499,476,422,401,377,363,350,308,281,252,225,209,198,191,187,181,172,157,147,134,116,99,64,60,58,57,57,57,57,57,57,57,57,57,57,57,57,57,57],"timestamp_mouse":[14,34,54,75,96,116,136,155,175,195,216,235,254,274,295,315,335,355,375,395,414,436,455,475,494,514,536,554,575,596,615,636,656,675,695,715,735,755,774,795,815,836,855,875,895,916,935,955,975,995,1014,1035,1054,1076,1094,1115,1135,1155,1175,1196,1215,1235,1256,1274,1295,1315,1334,1354,1374,1395,1416,1435,1455,1476,1496,1515,1535,1555,1575],"xSR":741.5,"ySR":469.95,"xT1":424.9,"yT1":0,"xT2":1058.1,"yT2":0,"toosoon":0,"cond_shown":"randomdotsizeEA","ratio_trial":500,"smaller_num":"1","larger_num":"2","correct_side":2,"subjID":"samuelcorba33","gender":"0","age":"9","school":"4"},{"start_time":1552313889760,"click_time":1552313893910,"finger_time":1552313891568,"fix_duration":250,"trial":26,"RT":1808,"MT":2342,"sideResp":1,"stimulus":"img/750/randomdotsizeEA/L/9_Ratio_750_L_4_R_3.png","xmouse":[807,807,807,807,807,807,807,807,807,807,807,807,807,807,807,807,807,807,807,807,807,807,807,807,807,807,807,807,807,807,807,807,807,807,807,807,807,807,807,807,807,807,807,807,807,807,807,807,807,807,807,807,807,807,807,807,807,807,807,807,807,807,807,807,807,807,807,807,807,807,807,807,807,807,807,807,807,807,807,807,807,807,807,807,807,807,808,808,808,800,782,736,711,711,711,711,706,673,673,678,681,681,681,687,702,754,807,851,886,907,919,920,920,920,920,920,920,920,913,895,880,869,855,847,839,829,820,814,813,812,809,803,783,779,777,776,776,775,775,775,775,775,775,775,775,775,775,775,775,775,775,775,775,775,775,775,775,775,775,775,775,775,775,775,775,775,775,775,775,775,775,775,775,775,775,775,775,775,775,775,775,771,754,736,713,691,670,650,614,597,593,593,587,585,582,577,570,559,556,556,556,556,550,544,539,532,526,518],"ymouse":[553,553,553,553,553,553,553,553,553,553,553,553,553,553,553,553,553,553,553,553,553,553,553,553,553,553,553,553,553,553,553,553,553,553,553,553,553,553,553,553,553,553,553,553,553,553,553,553,553,553,553,553,553,553,553,553,553,553,553,553,553,553,553,553,553,553,553,553,553,553,553,553,553,553,553,553,553,553,553,553,553,553,553,553,553,553,553,553,553,560,577,628,669,670,671,671,618,552,552,558,559,559,559,553,537,490,448,397,365,351,345,345,345,345,345,345,345,345,352,372,388,400,414,428,444,461,476,489,490,491,492,494,506,510,512,513,514,516,516,516,516,516,516,516,516,516,516,516,516,516,516,516,516,516,516,516,516,516,516,516,516,516,516,516,516,516,516,516,516,516,516,516,516,516,516,516,516,516,516,516,516,504,467,435,400,367,337,310,266,251,247,247,238,234,223,212,198,173,163,159,155,151,135,122,111,99,89,80],"timestamp_mouse":[11,28,49,69,90,108,129,150,170,188,209,230,250,269,289,308,329,350,368,389,410,430,448,470,489,510,530,550,570,589,608,628,650,668,688,710,729,750,769,790,808,830,850,869,890,909,929,950,969,988,1010,1029,1048,1070,1090,1108,1128,1150,1169,1189,1208,1229,1250,1269,1289,1309,1330,1349,1370,1389,1410,1429,1450,1468,1489,1510,1530,1549,1570,1589,1610,1630,1650,1670,1688,1710,1729,1749,1770,1789,1808,1829,1849,1869,1889,1908,1930,1948,1969,1988,2008,2030,2050,2069,2089,2109,2129,2149,2169,2188,2208,2230,2249,2269,2289,2310,2331,2350,2371,2390,2409,2429,2449,2469,2490,2509,2529,2550,2569,2590,2610,2630,2650,2669,2691,2711,2730,2749,2770,2791,2811,2829,2850,2870,2891,2909,2930,2951,2969,2989,3009,3030,3051,3069,3090,3109,3130,3150,3170,3189,3211,3231,3251,3270,3291,3310,3329,3350,3370,3389,3409,3430,3450,3470,3490,3511,3529,3550,3571,3590,3610,3630,3650,3671,3690,3710,3729,3750,3770,3789,3810,3830,3850,3870,3890,3910,3929,3950,3971,3989,4011,4030,4050,4069,4089,4110,4130,4150],"xSR":741.5,"ySR":469.95,"xT1":424.9,"yT1":0,"xT2":1058.1,"yT2":0,"toosoon":0,"cond_shown":"randomdotsizeEA","ratio_trial":750,"smaller_num":"3","larger_num":"4","correct_side":1,"subjID":"samuelcorba33","gender":"0","age":"9","school":"4"},{"start_time":1552313895333,"click_time":1552313897030,"finger_time":1552313896010,"fix_duration":742.7860698549787,"trial":27,"RT":677,"MT":1020,"sideResp":1,"stimulus":"img/900/equaldotsize/R/5_Ratio_900_L_9_R_10.png","xmouse":[816,816,816,816,816,816,816,816,816,816,816,816,817,819,819,819,819,819,819,819,819,819,819,819,819,819,819,819,819,819,819,822,826,842,850,856,856,856,858,868,874,879,885,893,909,915,919,923,928,945,954,965,979,991,994,995,995,995,995,1001,1004,1006,1006,1006,1006,1006,1004,992,950,842,806,777,744,708,646,621,601,580,566,563,558,552,543,527,519],"ymouse":[533,533,533,533,533,533,533,533,533,533,533,533,533,533,533,533,533,533,533,533,533,533,533,533,533,533,533,533,533,533,533,519,494,433,393,354,334,318,305,281,265,251,235,221,199,191,185,177,170,152,143,133,119,109,106,105,104,104,104,100,98,96,96,96,96,96,96,99,109,123,126,128,130,130,130,130,130,130,129,128,125,121,114,101,96],"timestamp_mouse":[18,37,57,76,97,116,136,158,177,196,216,236,256,277,298,316,337,357,377,397,416,438,458,477,498,518,536,558,577,598,616,638,657,677,696,716,736,758,777,797,816,837,857,878,897,917,937,957,976,997,1016,1037,1058,1077,1096,1116,1137,1157,1176,1196,1216,1237,1257,1277,1297,1317,1336,1356,1376,1396,1416,1437,1457,1478,1498,1518,1538,1557,1577,1596,1617,1636,1656,1678,1697],"xSR":741.5,"ySR":469.95,"xT1":424.9,"yT1":0,"xT2":1058.1,"yT2":0,"toosoon":0,"cond_shown":"equaldotsize","ratio_trial":900,"smaller_num":"9","larger_num":"10","correct_side":2,"subjID":"samuelcorba33","gender":"0","age":"9","school":"4"},{"start_time":1552313899276,"click_time":1552313900130,"finger_time":1552313899549,"fix_duration":1404.729821201778,"trial":28,"RT":273,"MT":581,"sideResp":2,"stimulus":"img/900/randomdotsizeEA/L/1_Ratio_900_L_10_R_9.png","xmouse":[790,790,790,790,790,790,790,790,790,790,790,790,790,789,788,784,778,770,765,763,762,760,760,760,763,769,777,788,796,804,815,833,889,916,945,971,997,1041,1068,1086,1102,1116,1134],"ymouse":[474,474,473,473,473,473,473,473,473,473,473,473,473,464,458,442,426,408,402,398,394,392,384,377,370,363,352,342,332,321,310,297,268,260,253,245,236,209,182,155,134,112,78],"timestamp_mouse":[14,34,53,75,95,114,135,155,173,195,215,235,253,273,294,314,335,353,375,393,413,434,454,474,495,514,535,553,574,593,614,634,654,673,694,714,734,753,774,794,813,834,854],"xSR":741.5,"ySR":469.95,"xT1":424.9,"yT1":0,"xT2":1058.1,"yT2":0,"toosoon":0,"cond_shown":"randomdotsizeEA","ratio_trial":900,"smaller_num":"9","larger_num":"10","correct_side":1,"subjID":"samuelcorba33","gender":"0","age":"9","school":"4"},{"start_time":1552313905195,"click_time":1552313906170,"finger_time":1552313905710,"fix_duration":1182.480975682804,"trial":29,"RT":515,"MT":460,"sideResp":1,"stimulus":"img/900/equaldotsize/L/1_Ratio_900_L_10_R_9.png","xmouse":[763,763,763,763,763,763,763,763,763,763,763,763,763,763,763,763,763,763,764,763,761,761,760,759,753,740,707,680,665,660,651,645,637,632,626,622,617,615,612,610,610,605,601,597,583,566,543,490,459],"ymouse":[518,518,518,518,518,518,518,518,518,518,518,518,518,518,518,518,518,518,514,509,506,504,502,500,491,475,412,364,329,309,286,273,249,236,223,211,196,189,181,176,174,168,165,162,154,144,133,105,88],"timestamp_mouse":[17,37,56,75,96,116,134,154,174,196,216,235,254,275,295,315,334,354,375,395,415,434,454,475,494,515,536,554,575,595,615,635,655,675,695,714,736,755,776,795,814,836,855,874,895,914,935,954,975],"xSR":741.5,"ySR":469.95,"xT1":424.9,"yT1":0,"xT2":1058.1,"yT2":0,"toosoon":0,"cond_shown":"equaldotsize","ratio_trial":900,"smaller_num":"9","larger_num":"10","correct_side":1,"subjID":"samuelcorba33","gender":"0","age":"9","school":"4"},{"start_time":1552313907997,"click_time":1552313917150,"finger_time":1552313916630,"fix_duration":1046.014615575959,"trial":30,"RT":8633,"MT":520,"sideResp":1,"stimulus":"img/900/equaldotanddens/L/1_Ratio_900_L_10_R_9.png","xmouse":[775,775,775,775,775,775,775,775,775,775,775,775,775,775,775,775,775,775,775,775,775,775,775,775,775,775,775,775,775,775,775,775,775,775,775,775,775,775,775,775,775,775,773,771,769,768,768,768,768,768,768,768,768,768,768,768,768,768,768,768,768,768,768,768,768,768,768,768,768,768,767,766,766,766,766,766,766,766,766,766,766,766,766,766,766,766,766,766,766,766,766,766,766,766,766,766,766,766,766,766,766,766,766,766,766,766,766,766,766,766,766,766,763,763,763,763,763,763,763,763,763,763,763,763,763,763,763,763,763,763,763,763,763,763,763,763,763,763,763,763,763,763,763,763,763,763,763,763,763,763,763,763,763,763,763,763,763,763,763,763,763,763,763,763,763,763,763,763,763,763,763,763,763,763,763,763,763,763,763,763,763,763,763,763,763,763,763,763,763,763,763,764,765,767,767,767,767,767,767,767,767,767,767,767,767,767,767,767,767,767,767,767,767,767,767,767,767,767,767,767,767,767,767,767,767,767,767,767,767,767,767,767,767,767,767,767,767,767,767,767,767,767,767,767,767,767,767,767,767,767,767,767,767,767,767,767,767,767,767,767,767,767,767,767,767,767,767,767,767,767,767,767,767,767,767,767,767,767,767,767,767,767,767,767,767,767,767,767,767,767,767,767,767,767,767,767,767,767,767,767,767,767,767,767,767,767,767,767,767,767,767,767,767,767,767,767,767,767,767,767,767,767,767,767,767,767,767,767,767,767,767,767,767,767,767,767,767,767,767,767,767,767,767,767,767,767,767,767,767,767,767,767,767,767,767,767,767,767,767,767,767,767,767,767,767,767,767,767,767,767,767,767,767,767,767,767,767,767,767,767,767,767,767,767,767,767,767,767,767,767,767,767,767,772,781,801,809,811,811,811,812,813,813,813,813,813,813,813,813,813,813,813,813,813,813,813,813,813,813,813,813,813,813,813,813,813,813,813,814,830,841,851,856,829,766,744,699,675,665,650,625,585,545,532,527,526,525,523,516,514,514,514,514,514,509,504,499,497],"ymouse":[531,531,531,531,531,531,531,531,531,531,531,531,531,531,531,531,531,531,531,532,532,532,532,532,532,532,532,532,532,532,532,532,532,532,532,532,532,532,532,532,532,533,534,535,535,535,535,535,535,535,535,535,535,535,535,535,535,535,535,535,535,535,535,535,535,535,535,535,535,535,535,535,535,535,535,535,535,535,535,535,535,535,535,535,535,535,535,535,535,535,535,535,535,535,535,535,535,535,535,535,535,535,535,535,535,535,535,535,535,535,535,535,536,536,536,536,536,536,536,536,536,536,536,536,536,536,536,536,536,536,536,536,536,536,536,536,536,536,536,536,536,536,536,536,536,536,536,536,536,536,536,536,536,536,536,536,536,536,536,536,536,536,536,536,536,536,536,536,536,536,536,536,536,536,536,536,536,536,536,536,536,536,536,536,536,536,536,536,536,536,536,536,536,535,535,535,535,535,535,535,535,535,535,535,535,535,535,535,535,535,535,535,535,535,535,535,535,535,535,535,535,535,535,535,535,535,535,535,535,535,535,535,535,535,535,535,535,535,535,535,535,535,535,535,535,535,535,535,535,535,535,535,535,535,535,535,535,535,535,535,535,535,535,535,535,535,535,535,535,535,535,535,535,535,535,535,535,535,535,535,535,535,535,535,535,535,535,535,535,535,535,535,535,535,535,535,535,535,535,535,535,535,535,535,535,535,535,535,535,535,535,535,535,535,535,535,535,535,535,535,535,535,535,535,535,535,535,535,535,535,535,535,535,535,535,535,535,535,535,535,535,535,535,535,535,535,535,535,535,535,535,535,535,535,535,535,535,535,535,535,535,535,535,535,535,535,535,535,535,535,535,535,535,535,535,535,535,535,535,535,535,535,535,535,535,535,535,535,535,535,535,535,535,536,541,544,544,543,543,543,543,543,543,543,543,543,543,543,543,543,543,543,543,543,543,543,543,543,543,543,543,543,543,543,543,543,543,543,543,521,505,492,475,408,346,332,306,287,275,257,236,214,193,181,171,168,165,162,149,146,146,146,146,142,125,112,100,94],"timestamp_mouse":[12,33,53,73,93,113,132,154,174,192,213,232,254,274,292,313,333,353,372,393,412,432,453,472,493,512,532,554,574,593,612,632,652,674,694,714,732,752,774,794,812,832,853,873,893,912,933,954,972,993,1012,1033,1054,1072,1092,1114,1133,1154,1172,1192,1213,1233,1254,1274,1292,1312,1333,1353,1374,1394,1414,1433,1452,1472,1493,1513,1533,1552,1573,1594,1613,1633,1652,1672,1693,1713,1732,1752,1774,1793,1814,1833,1852,1873,1894,1914,1932,1952,1972,1993,2013,2034,2054,2073,2092,2112,2133,2153,2172,2194,2214,2232,2252,2274,2294,2312,2333,2352,2373,2393,2412,2432,2452,2474,2493,2514,2533,2552,2574,2594,2613,2633,2652,2674,2694,2712,2734,2754,2773,2793,2814,2834,2853,2873,2894,2912,2932,2954,2974,2993,3014,3033,3052,3074,3094,3113,3133,3153,3173,3194,3212,3234,3253,3274,3292,3313,3334,3353,3374,3392,3413,3434,3453,3473,3493,3513,3533,3553,3574,3593,3613,3633,3653,3672,3694,3714,3733,3752,3774,3794,3813,3833,3853,3873,3893,3912,3933,3953,3972,3993,4014,4032,4053,4074,4092,4113,4134,4153,4174,4193,4213,4232,4253,4274,4294,4313,4334,4353,4373,4393,4413,4434,4453,4472,4493,4514,4534,4553,4573,4594,4612,4633,4652,4674,4694,4712,4732,4753,4773,4792,4814,4834,4853,4872,4893,4912,4933,4952,4974,4994,5012,5032,5053,5073,5094,5113,5132,5154,5172,5192,5213,5233,5253,5273,5292,5313,5336,5353,5374,5393,5413,5432,5452,5472,5493,5512,5532,5553,5574,5592,5612,5632,5652,5673,5694,5712,5734,5753,5772,5794,5814,5832,5853,5873,5892,5913,5932,5953,5974,5994,6013,6033,6052,6074,6092,6114,6132,6153,6174,6194,6212,6233,6254,6272,6292,6313,6332,6353,6373,6392,6414,6432,6452,6474,6494,6513,6534,6552,6572,6592,6612,6633,6654,6673,6694,6713,6734,6752,6772,6794,6814,6833,6853,6873,6893,6913,6934,6953,6974,6993,7013,7033,7054,7074,7094,7113,7133,7153,7174,7194,7214,7232,7252,7273,7292,7314,7333,7352,7373,7394,7414,7433,7452,7473,7494,7513,7534,7552,7573,7593,7614,7634,7652,7674,7694,7713,7732,7753,7774,7794,7813,7832,7853,7873,7893,7912,7933,7954,7972,7993,8014,8034,8053,8073,8094,8114,8132,8153,8174,8194,8213,8233,8254,8274,8293,8313,8333,8353,8374,8394,8412,8433,8453,8473,8493,8513,8534,8552,8574,8593,8613,8633,8652,8672,8694,8713,8733,8755,8772,8793,8813,8833,8854,8873,8894,8912,8933,8953,8973,8993,9013,9032,9053,9073,9093,9113,9132,9153],"xSR":741.5,"ySR":469.95,"xT1":424.9,"yT1":0,"xT2":1058.1,"yT2":0,"toosoon":0,"cond_shown":"equaldotanddens","ratio_trial":900,"smaller_num":"9","larger_num":"10","correct_side":1,"subjID":"samuelcorba33","gender":"0","age":"9","school":"4"},{"start_time":1552313918064,"click_time":1552313919910,"finger_time":1552313919110,"fix_duration":250,"trial":31,"RT":1046,"MT":800,"sideResp":1,"stimulus":"img/250/randomdotsizeEA/R/4_Ratio_250_L_3_R_12.png","xmouse":[781,781,781,781,781,781,781,781,781,781,781,781,781,781,781,781,781,781,781,781,781,781,781,781,781,781,781,781,781,781,781,781,781,781,781,781,781,781,781,781,781,781,781,781,781,781,781,781,781,781,781,781,781,781,779,776,778,781,782,778,723,670,639,623,601,565,548,531,517,507,501,495,492,489,487,486,480,475,469,464,462,462,462,462,462,462,462,462,462,462,462,466,470],"ymouse":[517,517,517,517,517,517,517,517,517,517,517,517,517,517,517,517,517,517,517,517,517,517,517,517,517,517,517,517,517,517,517,517,517,517,517,517,517,517,517,517,517,517,517,517,517,517,517,517,517,517,508,490,463,436,414,393,390,390,388,382,360,328,307,295,281,257,247,236,227,219,214,203,195,190,181,177,157,145,130,119,116,116,116,116,116,116,116,116,116,116,116,108,95],"timestamp_mouse":[5,26,45,65,85,107,126,146,167,186,206,227,245,266,285,305,325,347,367,386,407,426,447,466,486,507,526,545,566,585,606,626,646,665,687,707,726,747,765,785,807,825,846,866,886,907,926,947,967,986,1006,1027,1046,1066,1086,1106,1125,1147,1166,1186,1205,1227,1246,1266,1286,1306,1326,1345,1366,1385,1406,1426,1445,1465,1485,1506,1525,1546,1565,1586,1605,1625,1646,1666,1686,1706,1725,1745,1765,1786,1805,1826,1846],"xSR":741.5,"ySR":469.95,"xT1":424.9,"yT1":0,"xT2":1058.1,"yT2":0,"toosoon":0,"cond_shown":"randomdotsizeEA","ratio_trial":250,"smaller_num":"3","larger_num":"12","correct_side":2,"subjID":"samuelcorba33","gender":"0","age":"9","school":"4"},{"start_time":1552313923782,"click_time":1552313925189,"finger_time":1552313924789,"fix_duration":1450.8836761218301,"trial":32,"RT":1007,"MT":400,"sideResp":2,"stimulus":"img/900/equaldotanddens/L/4_Ratio_900_L_20_R_18.png","xmouse":[815,815,815,815,815,815,815,815,815,815,815,815,815,815,819,821,822,822,822,822,822,822,822,822,822,822,822,822,822,822,822,822,822,822,822,822,822,822,822,822,822,822,822,822,822,822,822,821,821,820,820,820,823,836,848,869,887,899,910,923,951,968,981,998,1004,1024,1036,1047,1055,1063,1067],"ymouse":[533,533,533,533,533,533,533,533,533,533,533,533,533,532,529,525,525,525,525,525,525,525,525,525,525,525,525,525,525,525,525,525,525,525,525,525,525,521,517,511,510,510,510,510,510,510,510,509,507,486,467,447,431,412,394,360,323,297,280,265,243,235,227,216,211,188,176,161,146,126,96],"timestamp_mouse":[16,35,49,67,87,109,127,148,167,188,209,229,249,269,287,307,328,347,367,387,408,429,448,467,488,509,529,548,567,588,607,628,649,668,689,708,727,747,768,789,808,828,849,869,888,909,927,948,968,989,1007,1029,1048,1069,1088,1108,1128,1148,1167,1189,1207,1228,1247,1267,1288,1308,1327,1348,1368,1389,1407],"xSR":741.5,"ySR":469.95,"xT1":424.9,"yT1":0,"xT2":1058.1,"yT2":0,"toosoon":0,"cond_shown":"equaldotanddens","ratio_trial":900,"smaller_num":"18","larger_num":"20","correct_side":1,"subjID":"samuelcorba33","gender":"0","age":"9","school":"4"},{"start_time":1552313930663,"click_time":1552313931229,"finger_time":1552313930950,"fix_duration":972.9912928658194,"trial":33,"RT":287,"MT":279,"sideResp":1,"stimulus":"img/750/equaldotsize/L/1_Ratio_750_L_20_R_15.png","xmouse":[787,787,787,787,780,774,770,769,769,769,769,768,759,743,726,697,658,646,635,619,595,547,532,522,513,511,505,493,488],"ymouse":[551,551,551,551,544,540,538,537,537,537,537,537,526,504,482,445,398,377,352,323,287,237,222,207,184,175,149,113,91],"timestamp_mouse":[8,27,48,67,86,107,127,146,167,187,206,227,246,267,287,308,327,346,367,388,407,428,447,467,486,508,528,547,566],"xSR":741.5,"ySR":469.95,"xT1":424.9,"yT1":0,"xT2":1058.1,"yT2":0,"toosoon":0,"cond_shown":"equaldotsize","ratio_trial":750,"smaller_num":"15","larger_num":"20","correct_side":1,"subjID":"samuelcorba33","gender":"0","age":"9","school":"4"},{"start_time":1552313933120,"click_time":1552313934290,"finger_time":1552313933650,"fix_duration":1247.894627102748,"trial":34,"RT":530,"MT":640,"sideResp":2,"stimulus":"img/500/equaldotsize/R/2_Ratio_500_L_3_R_6.png","xmouse":[789,789,789,789,789,789,789,789,789,789,789,789,789,789,789,789,788,785,777,773,773,772,772,771,768,764,758,754,748,739,737,736,736,740,756,768,780,798,817,888,941,1035,1035,1035,1035,1035,1035,1035,1035,1035,1035,1035,1035,1035,1035,1035,1035,1035,1156],"ymouse":[563,563,563,563,563,563,563,563,563,563,563,563,563,563,563,563,549,543,526,520,518,517,510,505,489,472,453,438,421,390,378,356,340,325,296,277,260,234,207,117,64,6,6,6,6,6,6,6,6,6,6,6,6,6,6,6,6,6,4],"timestamp_mouse":[9,32,49,71,90,109,131,151,170,189,209,231,251,269,289,311,331,350,371,390,409,429,450,469,491,510,530,549,569,589,610,629,651,670,690,710,730,750,770,789,810,829,849,870,890,910,930,951,970,989,1010,1029,1050,1071,1090,1110,1130,1151,1170],"xSR":741.5,"ySR":469.95,"xT1":424.9,"yT1":0,"xT2":1058.1,"yT2":0,"toosoon":0,"cond_shown":"equaldotsize","ratio_trial":500,"smaller_num":"3","larger_num":"6","correct_side":2,"subjID":"samuelcorba33","gender":"0","age":"9","school":"4"},{"start_time":1552313935582,"click_time":1552313936810,"finger_time":1552313936229,"fix_duration":250,"trial":35,"RT":647,"MT":581,"sideResp":2,"stimulus":"img/500/equaldotsize/R/3_Ratio_500_L_10_R_20.png","xmouse":[805,805,805,805,805,805,805,805,805,805,805,805,805,805,805,805,805,805,805,805,805,805,805,805,805,805,805,805,805,805,805,805,805,808,822,838,872,881,890,898,907,922,926,931,935,938,944,948,953,960,969,1000,1014,1022,1024,1026,1035,1040,1044,1048,1053,1060],"ymouse":[503,503,503,503,503,503,503,503,503,503,503,503,503,503,503,503,503,503,503,503,503,503,503,503,503,503,503,503,503,503,499,480,460,432,385,343,259,240,222,203,185,159,152,144,136,132,125,122,118,113,107,91,85,81,80,80,78,77,76,76,76,74],"timestamp_mouse":[8,37,48,69,87,109,129,149,167,189,209,229,247,268,289,308,328,347,368,388,407,429,448,468,488,509,527,549,568,588,608,627,647,667,688,709,728,749,767,787,808,827,847,868,888,908,928,949,967,988,1007,1028,1048,1068,1088,1107,1128,1149,1167,1188,1209,1228],"xSR":741.5,"ySR":469.95,"xT1":424.9,"yT1":0,"xT2":1058.1,"yT2":0,"toosoon":0,"cond_shown":"equaldotsize","ratio_trial":500,"smaller_num":"10","larger_num":"20","correct_side":2,"subjID":"samuelcorba33","gender":"0","age":"9","school":"4"},{"start_time":1552313938161,"click_time":1552313938931,"finger_time":1552313938691,"fix_duration":250,"trial":36,"RT":530,"MT":240,"sideResp":1,"stimulus":"img/750/equaldotsize/L/1_Ratio_750_L_20_R_15.png","xmouse":[788,788,788,788,788,788,788,788,788,788,788,788,788,788,788,788,788,788,788,788,788,788,788,788,788,788,787,736,693,647,622,607,591,550,537,531,530,526,523],"ymouse":[487,487,487,487,487,487,487,487,487,487,487,487,487,487,487,487,487,487,488,487,487,487,487,487,485,480,459,351,290,241,218,200,176,97,71,60,57,50,44],"timestamp_mouse":[18,36,48,69,90,109,128,149,170,190,208,228,249,269,288,309,328,348,370,390,410,429,448,470,490,509,530,549,568,588,610,629,649,669,689,708,730,749,770],"xSR":741.5,"ySR":469.95,"xT1":424.9,"yT1":0,"xT2":1058.1,"yT2":0,"toosoon":0,"cond_shown":"equaldotsize","ratio_trial":750,"smaller_num":"15","larger_num":"20","correct_side":1,"subjID":"samuelcorba33","gender":"0","age":"9","school":"4"},{"start_time":1552313939882,"click_time":1552313940730,"finger_time":1552313940369,"fix_duration":271.8320566332113,"trial":37,"RT":487,"MT":361,"sideResp":1,"stimulus":"img/250/equaldotsize/L/2_Ratio_250_L_16_R_4.png","xmouse":[777,777,777,777,777,777,777,777,777,777,777,777,777,777,777,777,777,777,777,777,777,773,755,742,727,708,686,641,621,599,564,555,545,542,539,538,537,535,533,528,518,514,509],"ymouse":[547,547,547,547,547,547,547,547,547,547,547,547,547,547,547,547,547,547,547,547,547,544,511,493,471,455,435,401,386,369,334,316,283,264,244,226,199,188,171,151,118,102,87],"timestamp_mouse":[7,39,47,68,89,107,127,148,169,188,207,229,247,267,289,308,329,348,367,387,409,428,449,467,487,508,529,548,567,588,608,628,648,667,687,708,729,747,767,788,808,828,848],"xSR":741.5,"ySR":469.95,"xT1":424.9,"yT1":0,"xT2":1058.1,"yT2":0,"toosoon":0,"cond_shown":"equaldotsize","ratio_trial":250,"smaller_num":"4","larger_num":"16","correct_side":1,"subjID":"samuelcorba33","gender":"0","age":"9","school":"4"},{"start_time":1552313942455,"click_time":1552313943270,"finger_time":1552313943011,"fix_duration":284.9564964567045,"trial":38,"RT":556,"MT":259,"sideResp":2,"stimulus":"img/500/randomdotsizeEA/R/3_Ratio_500_L_10_R_20.png","xmouse":[793,793,793,793,793,793,793,793,793,793,793,793,793,793,793,793,793,793,793,793,793,793,793,793,795,797,799,805,829,855,873,886,913,925,938,950,966,983,1021,1039,1070],"ymouse":[523,523,523,523,523,523,523,523,523,523,523,523,523,523,523,523,523,523,523,523,523,523,523,523,510,500,484,459,399,336,295,268,223,205,190,176,159,145,125,115,98],"timestamp_mouse":[16,40,54,75,95,116,136,156,176,196,215,236,256,275,295,315,335,356,374,396,415,435,455,476,494,515,535,556,574,595,615,635,656,674,694,714,734,755,774,795,815],"xSR":741.5,"ySR":469.95,"xT1":424.9,"yT1":0,"xT2":1058.1,"yT2":0,"toosoon":0,"cond_shown":"randomdotsizeEA","ratio_trial":500,"smaller_num":"10","larger_num":"20","correct_side":2,"subjID":"samuelcorba33","gender":"0","age":"9","school":"4"},{"start_time":1552313945211,"click_time":1552313945951,"finger_time":1552313945691,"fix_duration":1060.7910760295135,"trial":39,"RT":480,"MT":260,"sideResp":2,"stimulus":"img/500/equaldotanddens/R/3_Ratio_500_L_10_R_20.png","xmouse":[816,816,816,816,816,816,816,816,816,816,816,816,816,816,816,816,816,816,816,816,816,816,820,826,834,860,874,893,920,941,980,1003,1015,1025,1034,1053,1059],"ymouse":[502,502,502,502,502,502,502,502,502,502,502,502,502,502,502,502,502,502,502,502,502,497,483,461,434,375,342,301,254,219,164,136,122,110,94,65,57],"timestamp_mouse":[28,38,59,80,98,120,139,158,179,199,218,240,259,278,299,319,339,359,379,399,420,440,459,480,499,519,538,559,578,599,618,639,658,678,698,719,740],"xSR":741.5,"ySR":469.95,"xT1":424.9,"yT1":0,"xT2":1058.1,"yT2":0,"toosoon":0,"cond_shown":"equaldotanddens","ratio_trial":500,"smaller_num":"10","larger_num":"20","correct_side":2,"subjID":"samuelcorba33","gender":"0","age":"9","school":"4"},{"start_time":1552313948219,"click_time":1552313949132,"finger_time":1552313948790,"fix_duration":1447.2503275582358,"trial":40,"RT":571,"MT":342,"sideResp":2,"stimulus":"img/750/equaldotsize/R/4_Ratio_750_L_15_R_20.png","xmouse":[772,772,772,772,772,772,772,772,772,772,772,772,772,772,772,772,772,772,772,772,772,772,772,772,776,787,820,829,837,843,868,883,901,915,927,938,959,969,985,990,1003,1023,1031,1038,1045,1061],"ymouse":[520,520,520,520,520,520,520,520,520,520,520,520,520,520,520,520,520,520,520,520,520,520,520,520,517,504,479,472,466,461,432,414,387,367,348,330,288,262,225,214,183,150,139,127,115,96],"timestamp_mouse":[11,32,52,71,91,111,130,150,172,192,211,232,251,271,292,311,330,351,372,392,411,430,452,472,491,510,530,552,571,591,611,630,651,671,690,710,730,750,771,792,812,831,850,871,891,912],"xSR":741.5,"ySR":469.95,"xT1":424.9,"yT1":0,"xT2":1058.1,"yT2":0,"toosoon":0,"cond_shown":"equaldotsize","ratio_trial":750,"smaller_num":"15","larger_num":"20","correct_side":2,"subjID":"samuelcorba33","gender":"0","age":"9","school":"4"},{"start_time":1552313950420,"click_time":1552313951570,"finger_time":1552313951171,"fix_duration":429.0953354029381,"trial":41,"RT":751,"MT":399,"sideResp":2,"stimulus":"img/900/randomdotsizeEA/R/7_Ratio_900_L_9_R_10.png","xmouse":[816,816,816,816,816,816,816,816,816,816,816,816,816,816,816,816,816,816,816,816,816,816,816,816,816,816,816,816,816,816,816,816,816,816,816,815,826,856,872,922,948,995,1011,1021,1028,1033,1042,1046,1052,1054,1055,1056,1056,1056,1056,1056,1057,1060],"ymouse":[528,528,528,528,528,528,528,528,528,528,528,528,528,528,528,528,528,528,528,528,528,528,528,528,528,528,528,528,528,528,528,528,528,528,528,528,511,458,422,310,243,156,135,120,108,99,80,72,65,61,59,58,58,58,58,58,57,56],"timestamp_mouse":[12,33,50,69,90,111,131,149,170,190,210,229,250,271,290,310,331,350,370,390,411,430,450,470,490,511,529,551,571,589,610,631,649,671,690,711,730,751,771,789,809,830,851,870,889,909,929,950,970,990,1010,1030,1049,1069,1090,1110,1129,1150],"xSR":741.5,"ySR":469.95,"xT1":424.9,"yT1":0,"xT2":1058.1,"yT2":0,"toosoon":0,"cond_shown":"randomdotsizeEA","ratio_trial":900,"smaller_num":"9","larger_num":"10","correct_side":2,"subjID":"samuelcorba33","gender":"0","age":"9","school":"4"},{"start_time":1552313953415,"click_time":1552313954254,"finger_time":1552313953914,"fix_duration":899.6249108821596,"trial":42,"RT":499,"MT":340,"sideResp":1,"stimulus":"img/250/equaldotsize/L/15_Ratio_250_L_12_R_3.png","xmouse":[751,751,751,751,751,751,751,751,751,751,751,751,751,751,751,751,751,751,751,751,751,751,752,749,732,708,636,601,593,590,590,590,590,590,590,590,590,590,590,590,590,511],"ymouse":[535,535,535,535,535,535,535,535,535,535,535,535,535,535,535,535,535,535,535,535,535,535,523,503,444,360,147,60,28,0,0,0,0,0,0,0,0,0,0,0,0,15],"timestamp_mouse":[18,38,60,78,100,119,140,159,178,199,219,240,260,279,300,320,339,359,380,399,419,440,458,478,499,519,539,558,578,599,618,638,659,679,699,720,740,759,779,799,818,839],"xSR":741.5,"ySR":469.95,"xT1":424.9,"yT1":0,"xT2":1058.1,"yT2":0,"toosoon":0,"cond_shown":"equaldotsize","ratio_trial":250,"smaller_num":"3","larger_num":"12","correct_side":1,"subjID":"samuelcorba33","gender":"0","age":"9","school":"4"},{"start_time":1552313956852,"click_time":1552313957573,"finger_time":1552313957295,"fix_duration":1496.3983631329447,"trial":43,"RT":443,"MT":278,"sideResp":2,"stimulus":"img/500/equaldotsize/R/14_Ratio_500_L_5_R_10.png","xmouse":[784,784,784,784,784,784,784,784,784,784,784,784,784,784,784,784,784,784,784,784,784,791,802,832,856,899,912,930,948,964,979,1004,1018,1031,1046,1054,1072],"ymouse":[490,490,490,490,490,490,490,490,490,490,490,490,490,490,490,490,490,490,490,490,490,470,440,364,308,224,203,179,153,139,128,106,96,84,73,69,67],"timestamp_mouse":[9,23,42,63,83,103,121,142,163,183,201,222,242,262,283,302,323,341,362,381,402,421,443,462,483,502,523,541,562,582,602,622,643,661,681,701,721],"xSR":741.5,"ySR":469.95,"xT1":424.9,"yT1":0,"xT2":1058.1,"yT2":0,"toosoon":0,"cond_shown":"equaldotsize","ratio_trial":500,"smaller_num":"5","larger_num":"10","correct_side":2,"subjID":"samuelcorba33","gender":"0","age":"9","school":"4"},{"start_time":1552313958593,"click_time":1552313959434,"finger_time":1552313959034,"fix_duration":298.80279215269144,"trial":44,"RT":441,"MT":400,"sideResp":2,"stimulus":"img/900/equaldotsize/R/14_Ratio_900_L_18_R_20.png","xmouse":[789,789,789,789,789,789,789,789,789,789,789,789,789,789,789,789,789,789,789,804,821,836,851,869,922,951,981,1013,1028,1052,1063,1070,1078,1085,1098,1101,1104,1105,1107,1107,1107,1108,1109],"ymouse":[546,546,546,546,546,546,546,546,546,546,546,546,546,546,546,546,546,546,545,514,498,485,471,452,403,374,332,295,272,234,218,200,183,166,140,130,121,114,109,106,103,101,95],"timestamp_mouse":[6,22,41,60,81,100,120,142,161,181,200,221,242,262,281,301,322,341,360,382,401,421,441,462,480,501,520,541,561,581,601,621,641,661,680,700,721,742,762,780,800,820,840],"xSR":741.5,"ySR":469.95,"xT1":424.9,"yT1":0,"xT2":1058.1,"yT2":0,"toosoon":0,"cond_shown":"equaldotsize","ratio_trial":900,"smaller_num":"18","larger_num":"20","correct_side":2,"subjID":"samuelcorba33","gender":"0","age":"9","school":"4"},{"start_time":1552313961677,"click_time":1552313962774,"finger_time":1552313962273,"fix_duration":1482.787941054571,"trial":45,"RT":596,"MT":501,"sideResp":1,"stimulus":"img/500/equaldotsize/L/8_Ratio_500_L_8_R_4.png","xmouse":[781,781,781,781,781,781,781,781,781,781,781,781,781,781,781,781,781,781,781,781,781,781,781,781,781,781,781,781,779,760,745,731,722,714,688,673,659,645,634,617,608,603,600,598,594,590,587,583,578,571,563,557,550,539,496],"ymouse":[517,517,517,517,517,517,517,517,517,517,517,517,517,517,517,517,517,517,517,517,517,517,517,517,517,517,517,515,503,445,417,394,380,369,341,327,314,299,286,262,243,229,212,200,178,168,158,148,137,122,110,104,98,90,60],"timestamp_mouse":[16,36,56,76,98,118,138,157,177,196,217,238,258,277,296,317,337,357,376,397,418,436,458,476,496,516,538,557,577,596,617,637,657,678,697,716,737,757,777,796,817,837,857,876,896,917,936,957,977,996,1017,1036,1057,1077,1097],"xSR":741.5,"ySR":469.95,"xT1":424.9,"yT1":0,"xT2":1058.1,"yT2":0,"toosoon":0,"cond_shown":"equaldotsize","ratio_trial":500,"smaller_num":"4","larger_num":"8","correct_side":1,"subjID":"samuelcorba33","gender":"0","age":"9","school":"4"},{"start_time":1552313964406,"click_time":1552313965074,"finger_time":1552313964873,"fix_duration":949.9423079656901,"trial":46,"RT":467,"MT":201,"sideResp":2,"stimulus":"img/250/equaldotsize/R/13_Ratio_250_L_2_R_8.png","xmouse":[780,780,780,780,780,780,780,780,780,780,780,780,780,780,780,780,780,780,785,788,794,809,812,860,887,911,932,953,971,1010,1023,1030,1039,1064],"ymouse":[530,530,530,530,530,530,529,528,528,528,528,528,528,528,528,528,528,528,525,522,514,495,490,421,380,338,303,268,237,162,141,126,108,48],"timestamp_mouse":[16,36,49,68,88,107,128,149,168,188,207,227,249,268,288,308,329,348,368,388,408,427,448,467,487,508,529,547,568,587,607,627,648,668],"xSR":741.5,"ySR":469.95,"xT1":424.9,"yT1":0,"xT2":1058.1,"yT2":0,"toosoon":0,"cond_shown":"equaldotsize","ratio_trial":250,"smaller_num":"2","larger_num":"8","correct_side":2,"subjID":"samuelcorba33","gender":"0","age":"9","school":"4"},{"start_time":1552313967046,"click_time":1552313967995,"finger_time":1552313967514,"fix_duration":869.8770036438844,"trial":47,"RT":468,"MT":481,"sideResp":1,"stimulus":"img/250/randomdotsizeEA/L/3_Ratio_250_L_8_R_2.png","xmouse":[800,800,800,800,800,800,800,800,800,800,800,800,800,800,800,800,800,800,800,800,800,798,789,780,770,760,751,731,715,684,678,667,659,649,628,613,603,598,595,591,585,573,557,552,546,537,526,516],"ymouse":[491,491,491,491,491,491,491,491,491,491,491,491,491,491,491,491,491,491,491,491,491,491,482,469,450,430,409,359,326,273,258,231,207,186,151,129,117,112,107,103,99,91,82,80,76,71,65,59],"timestamp_mouse":[9,29,54,68,88,109,128,149,168,189,207,228,249,269,287,307,328,347,368,388,408,428,448,468,488,508,529,547,568,588,608,627,647,667,687,707,730,747,768,787,808,827,847,868,888,908,928,949],"xSR":741.5,"ySR":469.95,"xT1":424.9,"yT1":0,"xT2":1058.1,"yT2":0,"toosoon":0,"cond_shown":"randomdotsizeEA","ratio_trial":250,"smaller_num":"2","larger_num":"8","correct_side":1,"subjID":"samuelcorba33","gender":"0","age":"9","school":"4"},{"start_time":1552313969006,"click_time":1552313970414,"finger_time":1552313969475,"fix_duration":250,"trial":48,"RT":469,"MT":939,"sideResp":1,"stimulus":"img/500/randomdotsizeEA/L/4_Ratio_500_L_18_R_9.png","xmouse":[804,804,804,804,804,804,804,804,804,804,804,804,804,804,804,804,804,801,799,789,785,782,782,782,794,805,815,824,833,850,857,869,880,891,912,920,926,933,941,959,965,966,966,966,966,966,962,948,920,833,787,763,748,728,696,682,672,662,655,642,634,630,623,606,556,543,536,533,530,525,517],"ymouse":[558,558,558,558,558,558,558,558,558,558,558,558,558,558,558,558,558,555,550,528,514,493,477,461,410,375,341,321,308,287,278,267,258,250,239,235,231,225,218,204,200,199,199,199,199,199,199,203,212,229,234,234,230,217,180,157,132,111,99,84,79,78,78,78,78,78,78,77,76,75,71],"timestamp_mouse":[8,30,47,68,88,108,129,148,167,189,209,228,249,268,289,309,329,348,369,388,407,427,448,469,488,507,527,547,568,587,608,628,648,667,687,708,728,748,768,787,808,828,848,868,888,908,928,947,968,987,1008,1027,1048,1068,1087,1108,1128,1147,1168,1188,1207,1228,1248,1269,1287,1308,1327,1347,1368,1387,1407],"xSR":741.5,"ySR":469.95,"xT1":424.9,"yT1":0,"xT2":1058.1,"yT2":0,"toosoon":0,"cond_shown":"randomdotsizeEA","ratio_trial":500,"smaller_num":"9","larger_num":"18","correct_side":1,"subjID":"samuelcorba33","gender":"0","age":"9","school":"4"},{"start_time":1552313971921,"click_time":1552313972855,"finger_time":1552313972394,"fix_duration":686.4033805127237,"trial":49,"RT":473,"MT":461,"sideResp":1,"stimulus":"img/250/randomdotsizeEA/L/15_Ratio_250_L_12_R_3.png","xmouse":[794,796,797,798,799,799,799,799,799,799,799,799,799,799,799,799,799,799,799,800,800,797,788,757,745,726,707,693,672,666,662,656,648,633,627,624,618,611,588,574,562,554,548,532,530,527,523],"ymouse":[529,527,527,527,526,526,526,526,526,526,526,526,526,526,526,526,526,526,526,521,514,505,492,456,442,425,403,383,350,338,329,318,304,281,266,254,238,216,160,128,102,85,72,50,48,45,42],"timestamp_mouse":[13,32,53,73,94,113,132,153,172,194,213,234,253,273,293,312,333,353,373,392,413,433,453,472,494,514,533,553,572,594,613,634,653,673,692,714,733,754,773,792,813,832,854,873,894,912,934],"xSR":741.5,"ySR":469.95,"xT1":424.9,"yT1":0,"xT2":1058.1,"yT2":0,"toosoon":0,"cond_shown":"randomdotsizeEA","ratio_trial":250,"smaller_num":"3","larger_num":"12","correct_side":1,"subjID":"samuelcorba33","gender":"0","age":"9","school":"4"},{"start_time":1552313974698,"click_time":1552313975795,"finger_time":1552313975034,"fix_duration":903.558770642506,"trial":50,"RT":336,"MT":761,"sideResp":2,"stimulus":"img/900/randomdotsizeEA/R/9_Ratio_900_L_18_R_20.png","xmouse":[753,753,753,753,753,753,753,753,753,753,753,753,753,753,751,743,740,738,738,737,737,737,737,736,736,736,736,738,744,756,787,821,836,874,934,1011,1043,1073,1090,1128,1141,1153,1164,1172,1178,1178,1179,1179,1179,1178,1177,1174,1169,1159,1147],"ymouse":[496,496,496,496,496,496,496,496,496,496,496,496,496,496,493,481,476,474,473,471,468,463,456,448,444,442,442,440,438,435,427,414,405,381,324,221,188,168,156,134,128,122,119,114,108,106,105,103,100,92,88,82,77,65,54],"timestamp_mouse":[16,40,57,76,96,115,135,155,176,195,217,237,255,276,295,315,336,356,375,396,415,435,455,475,497,516,535,556,575,597,616,636,656,676,697,715,735,756,777,797,816,836,855,877,897,915,936,956,977,996,1015,1035,1055,1076,1096],"xSR":741.5,"ySR":469.95,"xT1":424.9,"yT1":0,"xT2":1058.1,"yT2":0,"toosoon":0,"cond_shown":"randomdotsizeEA","ratio_trial":900,"smaller_num":"18","larger_num":"20","correct_side":2,"subjID":"samuelcorba33","gender":"0","age":"9","school":"4"},{"start_time":1552313982893,"click_time":1552313983753,"finger_time":1552313983414,"fix_duration":517.5851075482589,"trial":51,"RT":521,"MT":339,"sideResp":1,"stimulus":"img/250/equaldotanddens/L/7_Ratio_250_L_8_R_2.png","xmouse":[818,818,818,818,818,818,818,818,818,818,818,818,818,818,818,818,818,818,818,818,818,818,818,818,811,803,728,679,636,607,589,586,567,554,541,532,526,526,526,524,517,510,492,485],"ymouse":[536,536,536,536,536,536,536,536,536,536,536,536,536,536,536,536,536,536,536,536,536,536,536,536,528,521,461,428,393,359,329,310,254,228,208,195,183,183,183,181,167,149,112,98],"timestamp_mouse":[8,20,42,60,81,102,122,142,161,182,201,221,241,261,280,300,321,341,362,380,402,421,441,461,481,502,521,540,561,581,601,620,641,661,680,700,723,742,760,780,800,820,840,860],"xSR":741.5,"ySR":469.95,"xT1":424.9,"yT1":0,"xT2":1058.1,"yT2":0,"toosoon":0,"cond_shown":"equaldotanddens","ratio_trial":250,"smaller_num":"2","larger_num":"8","correct_side":1,"subjID":"samuelcorba33","gender":"0","age":"9","school":"4"},{"start_time":1552313986151,"click_time":1552313987273,"finger_time":1552313986794,"fix_duration":1434.6117163439503,"trial":52,"RT":643,"MT":479,"sideResp":2,"stimulus":"img/500/randomdotsizeEA/R/2_Ratio_500_L_3_R_6.png","xmouse":[793,793,793,793,793,793,793,793,793,793,793,793,793,793,793,793,793,793,793,793,793,793,793,793,793,793,793,793,793,793,797,808,822,839,872,901,911,919,925,944,954,965,972,975,978,980,983,984,985,988,990,995,1004,1015,1039,1054,1067],"ymouse":[510,510,510,510,510,510,510,510,510,510,510,510,510,510,510,510,510,510,510,510,510,510,510,510,510,510,510,510,510,510,506,487,466,443,400,358,338,321,307,277,267,252,239,225,200,194,188,187,186,182,177,170,157,141,107,84,69],"timestamp_mouse":[10,27,43,64,84,103,123,142,163,184,204,222,243,264,284,304,323,342,364,383,403,422,443,463,484,503,522,543,564,584,602,623,643,663,682,704,723,743,762,782,803,822,842,864,882,903,924,943,964,983,1002,1023,1043,1064,1083,1102,1122],"xSR":741.5,"ySR":469.95,"xT1":424.9,"yT1":0,"xT2":1058.1,"yT2":0,"toosoon":0,"cond_shown":"randomdotsizeEA","ratio_trial":500,"smaller_num":"3","larger_num":"6","correct_side":2,"subjID":"samuelcorba33","gender":"0","age":"9","school":"4"},{"start_time":1552313988596,"click_time":1552313989634,"finger_time":1552313989253,"fix_duration":360.0357002166242,"trial":53,"RT":657,"MT":381,"sideResp":2,"stimulus":"img/750/equaldotsize/R/5_Ratio_750_L_15_R_20.png","xmouse":[821,821,821,821,821,821,811,798,792,784,778,778,778,778,778,778,778,778,778,778,778,778,778,778,778,777,777,777,777,777,779,799,813,832,853,879,927,951,976,992,1006,1030,1039,1047,1055,1063,1070,1087,1096,1107,1114,1125],"ymouse":[508,508,508,508,508,508,508,512,514,517,521,521,521,521,521,521,521,521,521,521,521,521,521,521,521,521,521,522,522,522,522,486,464,443,428,414,385,366,344,325,312,284,273,258,241,220,206,166,145,123,104,79],"timestamp_mouse":[34,37,58,77,97,118,138,158,178,198,218,237,259,278,297,319,337,357,378,398,417,437,458,479,497,518,539,557,578,598,618,637,657,678,698,718,738,758,779,798,818,838,857,878,898,917,937,957,978,998,1019,1038],"xSR":741.5,"ySR":469.95,"xT1":424.9,"yT1":0,"xT2":1058.1,"yT2":0,"toosoon":0,"cond_shown":"equaldotsize","ratio_trial":750,"smaller_num":"15","larger_num":"20","correct_side":2,"subjID":"samuelcorba33","gender":"0","age":"9","school":"4"},{"start_time":1552313991270,"click_time":1552313992035,"finger_time":1552313991734,"fix_duration":755.4417168376837,"trial":54,"RT":464,"MT":301,"sideResp":1,"stimulus":"img/900/equaldotsize/R/6_Ratio_900_L_9_R_10.png","xmouse":[769,769,769,769,769,769,769,769,769,769,769,769,769,769,769,769,769,769,770,770,770,773,777,792,798,803,805,805,802,789,784,777,766,752,710,684,634,614,497],"ymouse":[516,516,516,516,516,516,516,516,516,516,516,516,516,516,516,516,516,516,515,509,505,500,493,469,453,431,406,388,369,327,313,303,289,277,246,226,184,167,75],"timestamp_mouse":[3,31,44,64,85,104,125,144,164,185,204,224,243,264,283,303,324,344,363,383,404,423,444,464,483,504,525,543,564,583,604,624,645,663,683,704,723,744,765],"xSR":741.5,"ySR":469.95,"xT1":424.9,"yT1":0,"xT2":1058.1,"yT2":0,"toosoon":0,"cond_shown":"equaldotsize","ratio_trial":900,"smaller_num":"9","larger_num":"10","correct_side":2,"subjID":"samuelcorba33","gender":"0","age":"9","school":"4"},{"start_time":1552313993456,"click_time":1552313994654,"finger_time":1552313994254,"fix_duration":600.7364730573837,"trial":55,"RT":798,"MT":400,"sideResp":1,"stimulus":"img/750/randomdotsizeEA/L/13_Ratio_750_L_8_R_6.png","xmouse":[786,786,786,786,786,786,786,786,786,786,786,786,786,786,786,786,786,786,786,786,786,786,786,786,786,786,786,786,790,795,796,797,797,798,798,798,798,798,795,764,735,711,688,667,622,608,593,589,586,582,582,582,582,577,569,563,550,542,530,496],"ymouse":[512,512,512,512,512,512,512,512,512,512,512,512,512,512,512,512,512,512,512,512,512,512,512,512,512,512,512,512,510,504,501,500,498,497,496,496,493,488,481,444,409,377,340,298,208,181,159,150,144,140,140,140,140,139,135,132,122,116,107,86],"timestamp_mouse":[19,38,58,78,98,117,138,159,179,197,217,237,258,277,299,318,339,359,379,398,417,438,458,479,497,519,538,559,578,598,618,638,659,678,698,719,737,758,777,798,817,839,857,878,897,918,937,959,977,997,1019,1039,1058,1079,1097,1117,1137,1157,1179,1198],"xSR":741.5,"ySR":469.95,"xT1":424.9,"yT1":0,"xT2":1058.1,"yT2":0,"toosoon":0,"cond_shown":"randomdotsizeEA","ratio_trial":750,"smaller_num":"6","larger_num":"8","correct_side":1,"subjID":"samuelcorba33","gender":"0","age":"9","school":"4"},{"start_time":1552313998009,"click_time":1552313999073,"finger_time":1552313998575,"fix_duration":832.4964953453234,"trial":56,"RT":566,"MT":498,"sideResp":2,"stimulus":"img/750/equaldotanddens/R/4_Ratio_750_L_15_R_20.png","xmouse":[773,773,773,773,773,773,773,773,773,773,773,773,773,773,773,773,773,773,773,773,773,773,773,773,773,780,794,819,859,883,888,910,958,983,1003,1017,1025,1045,1057,1067,1074,1079,1086,1089,1092,1094,1094,1096,1104,1109,1111,1112,1115,1120],"ymouse":[510,510,510,510,510,510,510,510,510,510,510,510,510,510,510,510,510,510,510,510,510,510,510,510,511,511,503,487,462,444,438,418,382,364,351,337,325,289,270,253,240,227,203,191,180,168,156,145,123,116,112,107,101,81],"timestamp_mouse":[10,29,45,66,85,106,126,144,165,186,206,225,246,264,285,305,326,345,365,385,405,425,445,466,485,504,525,544,566,584,604,625,645,666,686,705,724,745,765,786,805,826,845,864,885,904,926,945,965,985,1004,1024,1044,1064],"xSR":741.5,"ySR":469.95,"xT1":424.9,"yT1":0,"xT2":1058.1,"yT2":0,"toosoon":0,"cond_shown":"equaldotanddens","ratio_trial":750,"smaller_num":"15","larger_num":"20","correct_side":2,"subjID":"samuelcorba33","gender":"0","age":"9","school":"4"},{"start_time":1552314001446,"click_time":1552314003573,"finger_time":1552314002873,"fix_duration":1470.2806402489919,"trial":57,"RT":1427,"MT":700,"sideResp":1,"stimulus":"img/500/equaldotanddens/R/6_Ratio_500_L_9_R_18.png","xmouse":[766,766,766,766,766,766,766,766,766,766,766,766,766,766,766,766,766,766,766,766,766,766,766,766,766,766,766,766,766,766,766,766,766,766,766,766,766,766,766,766,766,766,766,766,766,766,766,766,766,766,766,766,766,766,766,766,766,766,766,766,766,766,766,766,766,766,766,766,766,766,762,741,726,710,696,693,683,677,668,657,645,629,619,614,608,602,583,574,564,553,545,540,540,540,540,540,540,540,540,540,540,540,540,540,540,540,524],"ymouse":[540,540,540,540,540,540,540,540,540,540,540,540,540,540,540,540,540,540,540,540,540,540,540,540,540,540,540,540,540,540,540,540,540,540,540,540,540,540,540,540,540,540,540,540,540,540,540,540,540,540,540,540,540,540,540,539,539,539,539,539,539,539,539,539,539,539,539,539,534,525,495,391,350,315,292,286,272,262,251,239,224,204,192,184,176,165,138,127,118,109,103,100,100,100,100,100,100,100,100,100,100,100,100,100,100,100,81],"timestamp_mouse":[9,34,48,69,88,108,127,149,169,189,208,229,248,269,287,308,329,348,368,389,408,427,447,467,489,508,529,548,568,587,607,628,649,669,688,708,727,748,769,788,809,828,847,867,888,908,927,947,967,988,1008,1028,1049,1069,1088,1108,1128,1147,1169,1189,1209,1228,1247,1268,1289,1309,1328,1348,1367,1387,1408,1427,1447,1468,1488,1508,1528,1548,1568,1587,1607,1627,1648,1667,1688,1707,1728,1748,1767,1788,1808,1827,1848,1868,1887,1907,1930,1947,1968,1989,2009,2028,2048,2068,2089,2109,2127],"xSR":741.5,"ySR":469.95,"xT1":424.9,"yT1":0,"xT2":1058.1,"yT2":0,"toosoon":0,"cond_shown":"equaldotanddens","ratio_trial":500,"smaller_num":"9","larger_num":"18","correct_side":2,"subjID":"samuelcorba33","gender":"0","age":"9","school":"4"},{"start_time":1552314010449,"click_time":1552314011335,"finger_time":1552314010894,"fix_duration":853.1772308397481,"trial":58,"RT":445,"MT":441,"sideResp":2,"stimulus":"img/250/equaldotanddens/R/4_Ratio_250_L_3_R_12.png","xmouse":[773,773,773,773,773,773,773,773,773,773,773,773,773,773,773,773,773,776,779,780,784,791,799,808,817,831,865,884,900,919,932,944,979,996,1012,1022,1049,1061,1074,1086,1092,1096,1105,1110,1114],"ymouse":[502,502,502,502,502,502,502,502,502,502,502,502,502,502,502,502,502,502,500,497,491,478,463,447,434,422,398,386,373,354,338,324,299,290,278,266,232,216,199,176,163,152,127,111,96],"timestamp_mouse":[11,25,46,65,85,105,124,144,165,186,204,224,246,266,285,305,326,344,364,385,406,426,445,464,486,504,526,544,565,585,604,624,644,665,685,704,726,744,765,785,806,824,844,865,886],"xSR":741.5,"ySR":469.95,"xT1":424.9,"yT1":0,"xT2":1058.1,"yT2":0,"toosoon":0,"cond_shown":"equaldotanddens","ratio_trial":250,"smaller_num":"3","larger_num":"12","correct_side":2,"subjID":"samuelcorba33","gender":"0","age":"9","school":"4"},{"start_time":1552314012285,"click_time":1552314013234,"finger_time":1552314012793,"fix_duration":250,"trial":59,"RT":508,"MT":441,"sideResp":1,"stimulus":"img/900/randomdotsizeEA/L/4_Ratio_900_L_20_R_18.png","xmouse":[779,779,779,779,779,779,779,779,779,779,779,779,779,779,779,779,779,779,779,779,779,778,780,785,788,791,791,791,791,791,785,778,773,764,752,713,689,663,649,645,645,645,645,644,644,597,562,498],"ymouse":[498,498,498,498,498,498,498,498,498,498,498,498,498,498,498,498,498,498,498,498,498,495,489,480,471,453,445,428,410,383,345,331,317,301,282,236,213,187,170,166,166,166,166,163,163,107,77,26],"timestamp_mouse":[9,35,50,69,89,109,130,148,168,188,210,230,249,270,289,309,329,350,370,390,408,428,449,469,489,508,528,548,568,588,609,629,649,669,689,709,729,748,768,790,809,828,849,868,890,908,929,949],"xSR":741.5,"ySR":469.95,"xT1":424.9,"yT1":0,"xT2":1058.1,"yT2":0,"toosoon":0,"cond_shown":"randomdotsizeEA","ratio_trial":900,"smaller_num":"18","larger_num":"20","correct_side":1,"subjID":"samuelcorba33","gender":"0","age":"9","school":"4"},{"start_time":1552314017338,"click_time":1552314018317,"finger_time":1552314017898,"fix_duration":1079.5527049046193,"trial":60,"RT":560,"MT":419,"sideResp":2,"stimulus":"img/750/equaldotanddens/R/4_Ratio_750_L_15_R_20.png","xmouse":[771,771,771,771,771,771,771,771,771,771,771,771,771,771,771,771,771,771,771,771,771,771,771,771,771,785,795,852,881,922,966,1020,1061,1075,1084,1088,1091,1093,1097,1101,1104,1105,1110,1117,1120,1124,1126,1128,1130],"ymouse":[511,511,511,511,511,511,511,511,511,511,511,511,511,511,511,511,511,511,511,511,511,511,511,511,511,506,498,457,436,407,377,342,312,302,296,293,290,288,278,268,258,250,232,197,182,165,146,125,86],"timestamp_mouse":[19,38,59,78,98,118,138,160,180,199,219,239,258,278,300,320,340,358,379,399,418,440,458,480,499,518,538,560,578,598,619,640,660,679,698,718,738,758,778,798,819,839,858,878,898,919,939,959,979],"xSR":741.5,"ySR":469.95,"xT1":424.9,"yT1":0,"xT2":1058.1,"yT2":0,"toosoon":0,"cond_shown":"equaldotanddens","ratio_trial":750,"smaller_num":"15","larger_num":"20","correct_side":2,"subjID":"samuelcorba33","gender":"0","age":"9","school":"4"},{"start_time":1552314020542,"click_time":1552314022378,"finger_time":1552314021017,"fix_duration":1323.7450249268104,"trial":61,"RT":475,"MT":1361,"sideResp":1,"stimulus":"img/900/equaldotanddens/R/5_Ratio_900_L_9_R_10.png","xmouse":[779,779,779,779,779,779,779,779,779,779,779,779,779,779,779,780,784,788,794,798,799,800,801,799,791,783,769,752,709,696,681,675,669,648,639,629,620,613,606,606,606,606,606,606,606,606,606,606,606,610,616,628,651,709,733,755,766,775,789,810,825,841,856,875,879,879,879,879,879,879,879,878,868,807,758,721,691,669,651,649,645,634,617,591,587,586,585,583,556,540,526,514],"ymouse":[529,529,529,529,529,529,529,529,529,529,529,529,529,529,529,529,525,521,513,505,500,494,489,469,453,432,410,389,334,316,293,278,265,232,218,207,199,192,187,187,187,187,187,187,187,187,187,187,187,187,187,195,212,250,265,276,278,279,276,263,256,252,248,243,242,242,242,242,242,242,242,242,241,222,202,187,174,165,157,157,154,147,137,123,122,121,121,121,113,105,97,89],"timestamp_mouse":[16,35,56,76,95,116,135,154,175,195,214,235,256,275,294,314,334,355,374,396,414,435,455,475,495,514,535,555,574,594,614,635,654,675,696,715,735,755,775,794,818,835,855,875,896,916,936,955,974,994,1014,1036,1056,1075,1095,1115,1134,1154,1176,1194,1214,1234,1255,1274,1294,1315,1334,1356,1376,1395,1415,1434,1455,1475,1494,1514,1534,1556,1575,1595,1614,1635,1655,1675,1695,1714,1734,1754,1774,1794,1814,1836],"xSR":741.5,"ySR":469.95,"xT1":424.9,"yT1":0,"xT2":1058.1,"yT2":0,"toosoon":0,"cond_shown":"equaldotanddens","ratio_trial":900,"smaller_num":"9","larger_num":"10","correct_side":2,"subjID":"samuelcorba33","gender":"0","age":"9","school":"4"},{"start_time":1552314025230,"click_time":1552314027017,"finger_time":1552314025738,"fix_duration":250,"trial":62,"RT":508,"MT":1279,"sideResp":1,"stimulus":"img/750/equaldotanddens/L/10_Ratio_750_L_4_R_3.png","xmouse":[824,824,824,824,824,824,824,824,824,824,824,824,824,824,824,824,824,824,824,824,824,824,824,827,838,843,844,844,847,848,849,849,849,849,849,849,849,849,849,849,849,849,849,849,849,849,850,851,851,851,850,849,848,846,834,822,808,796,791,789,789,789,789,789,787,705,604,468,355,288,270,270,2