[{"start_time":1552312845711,"click_time":1552312853174,"finger_time":1552312852756,"fix_duration":735.1609759654672,"trial":0,"RT":7045,"MT":418,"sideResp":2,"stimulus":[],"xmouse":[752,752,752,752,752,752,752,752,752,752,752,752,752,752,752,752,752,752,752,752,752,752,752,752,752,752,752,752,752,752,752,752,752,752,752,752,752,752,752,752,752,752,752,752,752,752,752,752,752,752,752,752,752,752,752,752,752,752,752,752,752,752,752,752,752,752,752,752,752,752,752,752,752,752,752,752,752,752,751,751,751,751,751,751,751,751,751,751,751,751,751,751,751,751,751,751,751,751,751,751,751,751,751,751,751,751,751,751,751,751,751,751,751,751,751,751,751,751,751,751,751,751,751,751,751,751,751,751,751,751,751,751,751,751,751,751,751,751,751,751,751,751,751,751,751,751,751,751,751,751,751,751,751,751,751,751,751,751,751,751,751,751,751,751,751,751,751,751,751,751,751,757,760,763,763,763,763,763,763,763,763,763,763,763,763,763,763,763,763,763,763,763,763,763,763,763,763,763,763,767,768,768,768,768,768,768,768,769,772,785,786,786,786,786,786,786,786,786,786,786,786,786,786,786,786,786,786,786,786,786,786,786,786,786,786,786,786,786,786,786,787,787,787,787,787,787,786,786,786,786,786,786,786,786,786,786,786,786,786,786,785,785,785,785,785,785,785,785,785,785,785,785,785,785,785,785,785,785,785,785,785,785,785,785,785,785,785,785,785,785,785,785,785,785,785,785,785,785,785,785,785,785,785,785,785,785,785,785,785,785,785,785,785,785,785,785,785,784,784,786,786,786,786,786,786,786,786,786,786,786,786,786,786,786,786,780,779,779,779,778,778,778,778,778,778,778,778,778,778,780,789,796,808,825,879,936,965,1012,1064,1184,1212,1212,1212,1212,1212,1212,1212,1212,1212,1212,1212,1212,1172,1145],"ymouse":[504,504,504,504,504,504,504,504,504,504,504,504,504,504,504,504,504,504,504,504,504,504,504,504,504,504,504,504,504,504,504,504,504,504,504,504,504,504,504,504,504,504,504,504,504,504,504,504,504,504,504,504,504,504,504,504,504,504,504,504,504,504,504,504,504,504,504,504,504,504,504,504,504,504,504,504,504,504,504,504,504,504,504,504,504,504,504,504,504,504,504,504,504,504,504,504,504,504,504,504,504,504,504,504,504,504,504,504,504,504,504,504,504,504,504,504,504,504,504,504,504,504,504,504,504,504,504,504,504,504,504,504,504,504,504,504,504,504,504,504,504,504,504,504,504,504,504,504,504,504,504,504,504,504,504,504,504,504,504,504,504,504,504,504,504,504,504,504,504,504,503,502,501,500,500,500,500,500,500,500,500,500,500,500,500,500,500,500,500,501,503,505,506,507,507,507,507,507,507,508,508,508,508,508,508,508,508,508,508,508,508,508,508,508,508,508,508,508,508,508,508,508,508,508,508,508,508,508,508,508,508,508,508,508,508,508,508,508,508,508,508,508,508,508,508,510,513,513,513,514,514,514,514,514,514,514,514,514,514,514,514,514,514,514,514,514,514,514,514,514,514,514,514,514,514,514,514,514,514,514,514,514,514,514,514,514,514,514,514,514,514,514,514,514,514,514,514,514,514,514,514,514,514,514,514,514,514,514,514,514,514,514,514,514,514,514,514,514,510,504,503,501,501,501,501,500,499,498,498,498,498,498,497,497,497,499,501,504,506,507,507,507,507,507,507,507,507,507,507,507,499,487,466,439,372,344,328,292,238,76,33,33,33,33,33,33,33,33,33,33,33,33,15,53],"timestamp_mouse":[3,24,45,65,85,104,125,144,164,184,205,224,244,264,284,304,324,344,364,384,404,424,444,464,485,505,523,544,564,584,604,623,644,663,683,705,725,744,764,784,804,825,843,865,883,903,925,944,964,985,1004,1024,1043,1063,1084,1105,1124,1145,1164,1184,1204,1224,1243,1265,1284,1303,1324,1343,1364,1383,1405,1424,1444,1464,1484,1505,1525,1544,1564,1585,1604,1624,1645,1663,1683,1703,1724,1744,1764,1783,1803,1825,1844,1864,1884,1904,1923,1944,1964,1984,2005,2023,2044,2063,2085,2105,2123,2144,2165,2184,2204,2225,2243,2263,2285,2303,2323,2345,2363,2383,2404,2424,2445,2465,2483,2503,2524,2545,2564,2583,2604,2624,2644,2665,2683,2704,2724,2743,2764,2784,2803,2823,2844,2863,2885,2904,2925,2943,2963,2984,3004,3023,3043,3063,3085,3103,3124,3144,3165,3184,3204,3224,3243,3265,3284,3303,3324,3344,3365,3383,3403,3424,3443,3463,3484,3505,3523,3544,3563,3583,3604,3624,3643,3664,3684,3704,3723,3744,3764,3784,3803,3825,3844,3864,3884,3903,3925,3944,3964,3983,4003,4023,4044,4064,4084,4104,4125,4144,4163,4184,4204,4223,4245,4263,4284,4303,4324,4345,4364,4385,4404,4425,4445,4463,4484,4504,4525,4545,4563,4583,4605,4623,4643,4664,4684,4704,4725,4744,4763,4784,4804,4823,4844,4863,4884,4904,4923,4943,4965,4984,5005,5024,5044,5063,5084,5105,5123,5144,5164,5184,5204,5224,5244,5265,5284,5304,5324,5345,5364,5385,5404,5425,5445,5464,5483,5503,5525,5544,5564,5584,5603,5624,5645,5663,5683,5703,5724,5744,5764,5785,5803,5823,5844,5863,5884,5903,5923,5943,5964,5983,6005,6025,6043,6064,6083,6104,6124,6143,6163,6184,6203,6225,6245,6264,6283,6305,6324,6345,6363,6383,6403,6424,6445,6464,6485,6504,6523,6544,6563,6583,6605,6624,6644,6665,6683,6704,6724,6744,6764,6783,6804,6824,6844,6864,6884,6904,6924,6943,6964,6983,7004,7024,7045,7065,7084,7103,7123,7143,7165,7184,7204,7223,7244,7264,7284,7305,7324,7344,7365,7384,7403,7423,7443,7463],"xSR":741.5,"ySR":469.95,"xT1":424.9,"yT1":0,"xT2":1058.1,"yT2":0,"toosoon":0,"cond_shown":"Incongruent","ratio_trial":300,"L_num":4,"L_den":20,"R_num":2,"R_den":4,"correct_side":2,"subjID":"samuelcruz","gender":"0","age":"9","school":"4","test":{"fix_dur":[250,1500],"timestim":1000,"targets_dim":[100,100],"targets_relative_coord":[0.3,0.7],"size_stim":[880,420],"start_dim":[100,100],"size_start":[300,300],"size_fix":60,"samplingrate":20,"img_types":["Congruent","Incongruent"],"ratios":[100,200,300],"rep_conds":19,"nTrials":120,"trials_to_rest":500,"Trials_order":[71,41,30,49,2,106,62,14,26,52,6,100,108,19,110,74,13,78,16,53,87,45,65,88,0,21,56,103,97,105,7,66,58,33,69,107,47,98,96,67,80,76,111,83,42,27,85,61,94,31,55,115,12,38,24,118,84,75,3,64,57,17,51,81,4,18,43,11,10,101,1,113,50,34,32,92,116,114,28,29,104,25,63,44,109,35,72,48,99,86,22,68,20,82,119,91,112,15,77,46,93,79,102,70,117,36,59,39,8,40,90,95,60,37,5,73,54,89,9,23],"cond_shown":["Incongruent","Incongruent","Congruent","Incongruent","Congruent","Congruent","Congruent","Congruent","Congruent","Congruent","Congruent","Congruent","Congruent","Incongruent","Congruent","Congruent","Incongruent","Congruent","Congruent","Incongruent","Incongruent","Incongruent","Incongruent","Congruent","Congruent","Incongruent","Congruent","Incongruent","Incongruent","Incongruent","Incongruent","Congruent","Congruent","Incongruent","Incongruent","Incongruent","Incongruent","Congruent","Congruent","Incongruent","Congruent","Congruent","Incongruent","Incongruent","Congruent","Incongruent","Incongruent","Incongruent","Congruent","Incongruent","Incongruent","Incongruent","Congruent","Congruent","Congruent","Congruent","Congruent","Incongruent","Incongruent","Congruent","Incongruent","Incongruent","Incongruent","Incongruent","Congruent","Congruent","Incongruent","Incongruent","Congruent","Incongruent","Incongruent","Incongruent","Congruent","Congruent","Congruent","Congruent","Congruent","Congruent","Congruent","Incongruent","Congruent","Incongruent","Incongruent","Congruent","Incongruent","Incongruent","Congruent","Congruent","Incongruent","Congruent","Congruent","Congruent","Congruent","Congruent","Incongruent","Incongruent","Congruent","Incongruent","Incongruent","Congruent","Incongruent","Incongruent","Congruent","Congruent","Incongruent","Congruent","Incongruent","Incongruent","Congruent","Congruent","Congruent","Incongruent","Congruent","Incongruent","Incongruent","Incongruent","Congruent","Incongruent","Incongruent","Incongruent"],"ratio_trial":[300,300,100,100,200,300,200,200,200,300,100,300,100,100,200,200,100,100,300,300,200,200,300,300,100,200,200,100,100,200,100,100,300,200,200,300,300,200,100,100,200,300,200,300,100,200,100,100,300,100,100,100,100,200,100,300,100,200,200,300,200,300,200,200,300,100,100,300,300,300,100,300,200,300,200,200,200,100,300,300,200,100,200,200,100,300,100,100,200,200,300,200,200,300,300,100,300,200,300,300,200,100,100,300,200,100,300,200,200,300,100,300,100,100,300,100,100,300,200,300],"left_num":[4,8,4,3,6,3,20,16,13,18,15,3,11,4,8,16,2,8,8,13,7,7,3,20,1,1,9,2,6,14,17,10,1,14,7,4,1,6,1,4,3,11,4,8,12,14,2,3,20,12,10,13,3,16,2,4,8,7,14,1,9,1,7,4,2,1,1,4,1,4,9,1,6,12,15,21,6,1,1,13,20,17,14,13,9,13,1,2,9,3,24,3,6,1,13,6,7,1,4,1,14,9,2,8,6,6,1,7,21,24,9,1,8,1,4,3,3,2,6,13],"right_num":[2,14,6,8,11,4,9,9,14,9,13,11,4,8,2,9,6,2,10,12,14,12,4,14,3,3,4,6,3,6,10,3,19,12,12,2,2,11,3,8,14,2,14,9,13,6,6,11,13,9,8,6,4,9,6,2,2,6,6,7,8,2,6,1,10,18,8,2,8,2,13,3,11,2,4,2,11,3,8,12,9,10,6,14,13,12,18,11,8,9,8,14,11,8,12,7,20,2,2,6,12,6,11,1,3,5,2,6,2,2,8,2,2,8,6,11,4,6,3,12],"left_den":[20,10,8,5,20,6,25,30,26,20,25,12,22,8,15,30,4,16,15,26,10,10,6,25,2,2,20,4,12,30,30,25,3,30,10,20,2,20,2,8,6,22,6,10,30,30,4,5,25,24,25,26,20,30,5,5,16,15,30,20,15,2,15,30,20,2,2,20,30,20,15,2,20,24,25,30,20,2,30,26,25,30,30,26,15,26,2,5,15,12,30,6,20,30,26,10,14,3,20,5,30,18,5,16,20,20,2,15,30,30,15,2,16,2,5,5,20,4,20,26],"right_den":[4,28,10,16,22,5,15,27,20,15,26,20,10,20,6,27,15,5,12,15,28,24,20,28,5,10,16,15,5,9,15,10,30,18,24,4,10,22,5,20,20,10,30,18,26,9,15,22,26,15,16,10,16,27,12,4,5,9,9,20,10,10,9,3,25,30,20,4,24,4,26,15,22,10,10,4,22,5,24,15,15,15,9,20,26,15,30,22,10,20,16,20,22,24,15,14,25,15,4,12,18,10,22,5,6,25,10,9,4,4,16,10,5,20,12,22,16,30,6,15],"correct_side":[2,1,2,1,2,2,1,1,2,1,1,2,1,1,1,1,1,1,2,2,1,1,1,1,2,1,1,1,2,2,2,1,2,2,1,2,1,2,2,1,2,1,1,1,2,2,1,1,1,2,2,2,2,1,2,1,1,2,2,2,2,1,2,2,2,2,1,2,2,2,1,1,2,1,1,1,2,2,2,2,1,2,2,2,1,2,2,2,2,2,1,2,2,2,2,1,2,1,2,2,2,2,2,1,2,1,1,2,1,1,1,1,1,1,1,1,2,1,2,2],"img_shown":["img2/300/Incongruent/R/I_Dist_300_LN_4_LD_20_RN_2_RD_4_1.png","img2/300/Incongruent/L/I_Dist_300_LN_8_LD_10_RN_14_RD_28_0.png","img2/100/Congruent/R/C_Dist_100_LN_4_LD_8_RN_6_RD_10_1.png","img2/100/Incongruent/L/I_Dist_100_LN_3_LD_5_RN_8_RD_16_0.png","img2/200/Congruent/R/C_Dist_200_LN_6_LD_20_RN_11_RD_22_1.png","img2/300/Congruent/R/C_Dist_300_LN_3_LD_6_RN_4_RD_5_1.png","img2/200/Congruent/L/C_Dist_200_LN_20_LD_25_RN_9_RD_15_0.png","img2/200/Congruent/L/C_Dist_200_LN_16_LD_30_RN_9_RD_27_0.png","img2/200/Congruent/R/C_Dist_200_LN_13_LD_26_RN_14_RD_20_1.png","img2/300/Congruent/L/C_Dist_300_LN_18_LD_20_RN_9_RD_15_0.png","img2/100/Congruent/L/C_Dist_100_LN_15_LD_25_RN_13_RD_26_0.png","img2/300/Congruent/R/C_Dist_300_LN_3_LD_12_RN_11_RD_20_1.png","img2/100/Congruent/L/C_Dist_100_LN_11_LD_22_RN_4_RD_10_0.png","img2/100/Incongruent/L/I_Dist_100_LN_4_LD_8_RN_8_RD_20_0.png","img2/200/Congruent/L/C_Dist_200_LN_8_LD_15_RN_2_RD_6_0.png","img2/200/Congruent/L/C_Dist_200_LN_16_LD_30_RN_9_RD_27_0.png","img2/100/Incongruent/L/I_Dist_100_LN_2_LD_4_RN_6_RD_15_0.png","img2/100/Congruent/L/C_Dist_100_LN_8_LD_16_RN_2_RD_5_0.png","img2/300/Congruent/R/C_Dist_300_LN_8_LD_15_RN_10_RD_12_1.png","img2/300/Incongruent/R/I_Dist_300_LN_13_LD_26_RN_12_RD_15_1.png","img2/200/Incongruent/L/I_Dist_200_LN_7_LD_10_RN_14_RD_28_0.png","img2/200/Incongruent/L/I_Dist_200_LN_7_LD_10_RN_12_RD_24_0.png","img2/300/Incongruent/L/I_Dist_300_LN_3_LD_6_RN_4_RD_20_0.png","img2/300/Congruent/L/C_Dist_300_LN_20_LD_25_RN_14_RD_28_0.png","img2/100/Congruent/R/C_Dist_100_LN_1_LD_2_RN_3_RD_5_1.png","img2/200/Incongruent/L/I_Dist_200_LN_1_LD_2_RN_3_RD_10_0.png","img2/200/Congruent/L/C_Dist_200_LN_9_LD_20_RN_4_RD_16_0.png","img2/100/Incongruent/L/I_Dist_100_LN_2_LD_4_RN_6_RD_15_0.png","img2/100/Incongruent/R/I_Dist_100_LN_6_LD_12_RN_3_RD_5_1.png","img2/200/Incongruent/R/I_Dist_200_LN_14_LD_30_RN_6_RD_9_1.png","img2/100/Incongruent/R/I_Dist_100_LN_17_LD_30_RN_10_RD_15_1.png","img2/100/Congruent/L/C_Dist_100_LN_10_LD_25_RN_3_RD_10_0.png","img2/300/Congruent/R/C_Dist_300_LN_1_LD_3_RN_19_RD_30_1.png","img2/200/Incongruent/R/I_Dist_200_LN_14_LD_30_RN_12_RD_18_1.png","img2/200/Incongruent/L/I_Dist_200_LN_7_LD_10_RN_12_RD_24_0.png","img2/300/Incongruent/R/I_Dist_300_LN_4_LD_20_RN_2_RD_4_1.png","img2/300/Incongruent/L/I_Dist_300_LN_1_LD_2_RN_2_RD_10_0.png","img2/200/Congruent/R/C_Dist_200_LN_6_LD_20_RN_11_RD_22_1.png","img2/100/Congruent/R/C_Dist_100_LN_1_LD_2_RN_3_RD_5_1.png","img2/100/Incongruent/L/I_Dist_100_LN_4_LD_8_RN_8_RD_20_0.png","img2/200/Congruent/R/C_Dist_200_LN_3_LD_6_RN_14_RD_20_1.png","img2/300/Congruent/L/C_Dist_300_LN_11_LD_22_RN_2_RD_10_0.png","img2/200/Incongruent/L/I_Dist_200_LN_4_LD_6_RN_14_RD_30_0.png","img2/300/Incongruent/L/I_Dist_300_LN_8_LD_10_RN_9_RD_18_0.png","img2/100/Congruent/R/C_Dist_100_LN_12_LD_30_RN_13_RD_26_1.png","img2/200/Incongruent/R/I_Dist_200_LN_14_LD_30_RN_6_RD_9_1.png","img2/100/Incongruent/L/I_Dist_100_LN_2_LD_4_RN_6_RD_15_0.png","img2/100/Incongruent/L/I_Dist_100_LN_3_LD_5_RN_11_RD_22_0.png","img2/300/Congruent/L/C_Dist_300_LN_20_LD_25_RN_13_RD_26_0.png","img2/100/Incongruent/R/I_Dist_100_LN_12_LD_24_RN_9_RD_15_1.png","img2/100/Incongruent/R/I_Dist_100_LN_10_LD_25_RN_8_RD_16_1.png","img2/100/Incongruent/R/I_Dist_100_LN_13_LD_26_RN_6_RD_10_1.png","img2/100/Congruent/R/C_Dist_100_LN_3_LD_20_RN_4_RD_16_1.png","img2/200/Congruent/L/C_Dist_200_LN_16_LD_30_RN_9_RD_27_0.png","img2/100/Congruent/R/C_Dist_100_LN_2_LD_5_RN_6_RD_12_1.png","img2/300/Congruent/L/C_Dist_300_LN_4_LD_5_RN_2_RD_4_0.png","img2/100/Congruent/L/C_Dist_100_LN_8_LD_16_RN_2_RD_5_0.png","img2/200/Incongruent/R/I_Dist_200_LN_7_LD_15_RN_6_RD_9_1.png","img2/200/Incongruent/R/I_Dist_200_LN_14_LD_30_RN_6_RD_9_1.png","img2/300/Congruent/R/C_Dist_300_LN_1_LD_20_RN_7_RD_20_1.png","img2/200/Incongruent/R/I_Dist_200_LN_9_LD_15_RN_8_RD_10_1.png","img2/300/Incongruent/L/I_Dist_300_LN_1_LD_2_RN_2_RD_10_0.png","img2/200/Incongruent/R/I_Dist_200_LN_7_LD_15_RN_6_RD_9_1.png","img2/200/Incongruent/R/I_Dist_200_LN_4_LD_30_RN_1_RD_3_1.png","img2/300/Congruent/R/C_Dist_300_LN_2_LD_20_RN_10_RD_25_1.png","img2/100/Congruent/R/C_Dist_100_LN_1_LD_2_RN_18_RD_30_1.png","img2/100/Incongruent/L/I_Dist_100_LN_1_LD_2_RN_8_RD_20_0.png","img2/300/Incongruent/R/I_Dist_300_LN_4_LD_20_RN_2_RD_4_1.png","img2/300/Congruent/R/C_Dist_300_LN_1_LD_30_RN_8_RD_24_1.png","img2/300/Incongruent/R/I_Dist_300_LN_4_LD_20_RN_2_RD_4_1.png","img2/100/Incongruent/L/I_Dist_100_LN_9_LD_15_RN_13_RD_26_0.png","img2/300/Incongruent/L/I_Dist_300_LN_1_LD_2_RN_3_RD_15_0.png","img2/200/Congruent/R/C_Dist_200_LN_6_LD_20_RN_11_RD_22_1.png","img2/300/Congruent/L/C_Dist_300_LN_12_LD_24_RN_2_RD_10_0.png","img2/200/Congruent/L/C_Dist_200_LN_15_LD_25_RN_4_RD_10_0.png","img2/200/Congruent/L/C_Dist_200_LN_21_LD_30_RN_2_RD_4_0.png","img2/200/Congruent/R/C_Dist_200_LN_6_LD_20_RN_11_RD_22_1.png","img2/100/Congruent/R/C_Dist_100_LN_1_LD_2_RN_3_RD_5_1.png","img2/300/Congruent/R/C_Dist_300_LN_1_LD_30_RN_8_RD_24_1.png","img2/300/Incongruent/R/I_Dist_300_LN_13_LD_26_RN_12_RD_15_1.png","img2/200/Congruent/L/C_Dist_200_LN_20_LD_25_RN_9_RD_15_0.png","img2/100/Incongruent/R/I_Dist_100_LN_17_LD_30_RN_10_RD_15_1.png","img2/200/Incongruent/R/I_Dist_200_LN_14_LD_30_RN_6_RD_9_1.png","img2/200/Congruent/R/C_Dist_200_LN_13_LD_26_RN_14_RD_20_1.png","img2/100/Incongruent/L/I_Dist_100_LN_9_LD_15_RN_13_RD_26_0.png","img2/300/Incongruent/R/I_Dist_300_LN_13_LD_26_RN_12_RD_15_1.png","img2/100/Congruent/R/C_Dist_100_LN_1_LD_2_RN_18_RD_30_1.png","img2/100/Congruent/R/C_Dist_100_LN_2_LD_5_RN_11_RD_22_1.png","img2/200/Incongruent/R/I_Dist_200_LN_9_LD_15_RN_8_RD_10_1.png","img2/200/Congruent/R/C_Dist_200_LN_3_LD_12_RN_9_RD_20_1.png","img2/300/Congruent/L/C_Dist_300_LN_24_LD_30_RN_8_RD_16_0.png","img2/200/Congruent/R/C_Dist_200_LN_3_LD_6_RN_14_RD_20_1.png","img2/200/Congruent/R/C_Dist_200_LN_6_LD_20_RN_11_RD_22_1.png","img2/300/Congruent/R/C_Dist_300_LN_1_LD_30_RN_8_RD_24_1.png","img2/300/Incongruent/R/I_Dist_300_LN_13_LD_26_RN_12_RD_15_1.png","img2/100/Incongruent/L/I_Dist_100_LN_6_LD_10_RN_7_RD_14_0.png","img2/300/Congruent/R/C_Dist_300_LN_7_LD_14_RN_20_RD_25_1.png","img2/200/Incongruent/L/I_Dist_200_LN_1_LD_3_RN_2_RD_15_0.png","img2/300/Incongruent/R/I_Dist_300_LN_4_LD_20_RN_2_RD_4_1.png","img2/300/Congruent/R/C_Dist_300_LN_1_LD_5_RN_6_RD_12_1.png","img2/200/Incongruent/R/I_Dist_200_LN_14_LD_30_RN_12_RD_18_1.png","img2/100/Incongruent/R/I_Dist_100_LN_9_LD_18_RN_6_RD_10_1.png","img2/100/Congruent/R/C_Dist_100_LN_2_LD_5_RN_11_RD_22_1.png","img2/300/Congruent/L/C_Dist_300_LN_8_LD_16_RN_1_RD_5_0.png","img2/200/Incongruent/R/I_Dist_200_LN_6_LD_20_RN_3_RD_6_1.png","img2/100/Congruent/L/C_Dist_100_LN_6_LD_20_RN_5_RD_25_0.png","img2/300/Incongruent/L/I_Dist_300_LN_1_LD_2_RN_2_RD_10_0.png","img2/200/Incongruent/R/I_Dist_200_LN_7_LD_15_RN_6_RD_9_1.png","img2/200/Congruent/L/C_Dist_200_LN_21_LD_30_RN_2_RD_4_0.png","img2/300/Congruent/L/C_Dist_300_LN_24_LD_30_RN_2_RD_4_0.png","img2/100/Congruent/L/C_Dist_100_LN_9_LD_15_RN_8_RD_16_0.png","img2/300/Incongruent/L/I_Dist_300_LN_1_LD_2_RN_2_RD_10_0.png","img2/100/Congruent/L/C_Dist_100_LN_8_LD_16_RN_2_RD_5_0.png","img2/100/Incongruent/L/I_Dist_100_LN_1_LD_2_RN_8_RD_20_0.png","img2/300/Incongruent/L/I_Dist_300_LN_4_LD_5_RN_6_RD_12_0.png","img2/100/Incongruent/L/I_Dist_100_LN_3_LD_5_RN_11_RD_22_0.png","img2/100/Congruent/R/C_Dist_100_LN_3_LD_20_RN_4_RD_16_1.png","img2/300/Incongruent/L/I_Dist_300_LN_2_LD_4_RN_6_RD_30_0.png","img2/200/Incongruent/R/I_Dist_200_LN_6_LD_20_RN_3_RD_6_1.png","img2/300/Incongruent/R/I_Dist_300_LN_13_LD_26_RN_12_RD_15_1.png"],"dist100_C":[["C_Dist_100_LN_10_LD_25_RN_3_RD_10_0.png","C_Dist_100_LN_11_LD_22_RN_4_RD_10_0.png","C_Dist_100_LN_11_LD_22_RN_6_RD_15_0.png","C_Dist_100_LN_15_LD_25_RN_13_RD_26_0.png","C_Dist_100_LN_3_LD_6_RN_2_RD_5_0.png","C_Dist_100_LN_6_LD_20_RN_5_RD_25_0.png","C_Dist_100_LN_8_LD_16_RN_2_RD_5_0.png","C_Dist_100_LN_9_LD_15_RN_8_RD_16_0.png"],["C_Dist_100_LN_1_LD_2_RN_18_RD_30_1.png","C_Dist_100_LN_1_LD_2_RN_3_RD_5_1.png","C_Dist_100_LN_12_LD_30_RN_13_RD_26_1.png","C_Dist_100_LN_2_LD_5_RN_11_RD_22_1.png","C_Dist_100_LN_2_LD_5_RN_6_RD_12_1.png","C_Dist_100_LN_3_LD_20_RN_4_RD_16_1.png","C_Dist_100_LN_4_LD_10_RN_15_RD_30_1.png","C_Dist_100_LN_4_LD_8_RN_6_RD_10_1.png","C_Dist_100_LN_6_LD_12_RN_15_RD_25_1.png","C_Dist_100_LN_7_LD_14_RN_15_RD_25_1.png","C_Dist_100_LN_7_LD_14_RN_9_RD_15_1.png"]],"dist100_I":[["I_Dist_100_LN_1_LD_2_RN_8_RD_20_0.png","I_Dist_100_LN_2_LD_4_RN_6_RD_15_0.png","I_Dist_100_LN_2_LD_4_RN_8_RD_20_0.png","I_Dist_100_LN_3_LD_5_RN_11_RD_22_0.png","I_Dist_100_LN_3_LD_5_RN_8_RD_16_0.png","I_Dist_100_LN_3_LD_6_RN_4_RD_10_0.png","I_Dist_100_LN_3_LD_9_RN_7_RD_30_0.png","I_Dist_100_LN_4_LD_8_RN_8_RD_20_0.png","I_Dist_100_LN_6_LD_10_RN_11_RD_22_0.png","I_Dist_100_LN_6_LD_10_RN_13_RD_26_0.png","I_Dist_100_LN_6_LD_10_RN_7_RD_14_0.png","I_Dist_100_LN_9_LD_10_RN_20_RD_25_0.png","I_Dist_100_LN_9_LD_15_RN_13_RD_26_0.png","I_Dist_100_LN_9_LD_15_RN_14_RD_28_0.png"],["I_Dist_100_LN_10_LD_25_RN_8_RD_16_1.png","I_Dist_100_LN_10_LD_25_RN_9_RD_18_1.png","I_Dist_100_LN_11_LD_22_RN_9_RD_15_1.png","I_Dist_100_LN_12_LD_24_RN_9_RD_15_1.png","I_Dist_100_LN_12_LD_30_RN_2_RD_4_1.png","I_Dist_100_LN_13_LD_26_RN_12_RD_20_1.png","I_Dist_100_LN_13_LD_26_RN_6_RD_10_1.png","I_Dist_100_LN_17_LD_30_RN_10_RD_15_1.png","I_Dist_100_LN_6_LD_12_RN_3_RD_5_1.png","I_Dist_100_LN_8_LD_16_RN_6_RD_10_1.png","I_Dist_100_LN_8_LD_20_RN_1_RD_2_1.png","I_Dist_100_LN_9_LD_18_RN_6_RD_10_1.png"]],"dist100_S":[["E_Dist_100_LN_2_LD_12_RN_2_RD_30_0.png","E_Dist_100_LN_6_LD_10_RN_6_RD_12_0.png"],["E_Dist_100_LN_6_LD_12_RN_6_RD_10_1.png"]],"dist200_C":[["C_Dist_200_LN_11_LD_22_RN_3_RD_10_0.png","C_Dist_200_LN_12_LD_15_RN_6_RD_10_0.png","C_Dist_200_LN_12_LD_20_RN_6_RD_15_0.png","C_Dist_200_LN_14_LD_28_RN_6_RD_20_0.png","C_Dist_200_LN_15_LD_25_RN_4_RD_10_0.png","C_Dist_200_LN_16_LD_20_RN_12_RD_20_0.png","C_Dist_200_LN_16_LD_30_RN_9_RD_27_0.png","C_Dist_200_LN_20_LD_25_RN_9_RD_15_0.png","C_Dist_200_LN_21_LD_30_RN_2_RD_4_0.png","C_Dist_200_LN_4_LD_10_RN_3_RD_15_0.png","C_Dist_200_LN_4_LD_8_RN_3_RD_10_0.png","C_Dist_200_LN_6_LD_15_RN_3_RD_15_0.png","C_Dist_200_LN_7_LD_21_RN_2_RD_15_0.png","C_Dist_200_LN_8_LD_15_RN_2_RD_6_0.png","C_Dist_200_LN_8_LD_15_RN_3_RD_9_0.png","C_Dist_200_LN_8_LD_15_RN_7_RD_21_0.png","C_Dist_200_LN_9_LD_20_RN_4_RD_16_0.png"],["C_Dist_200_LN_1_LD_2_RN_21_RD_30_1.png","C_Dist_200_LN_13_LD_26_RN_14_RD_20_1.png","C_Dist_200_LN_3_LD_10_RN_11_RD_22_1.png","C_Dist_200_LN_3_LD_10_RN_14_RD_28_1.png","C_Dist_200_LN_3_LD_10_RN_7_RD_14_1.png","C_Dist_200_LN_3_LD_12_RN_9_RD_20_1.png","C_Dist_200_LN_3_LD_6_RN_14_RD_20_1.png","C_Dist_200_LN_5_LD_10_RN_14_RD_20_1.png","C_Dist_200_LN_6_LD_12_RN_7_RD_10_1.png","C_Dist_200_LN_6_LD_20_RN_11_RD_22_1.png","C_Dist_200_LN_7_LD_15_RN_18_RD_27_1.png","C_Dist_200_LN_9_LD_30_RN_13_RD_26_1.png"]],"dist200_I":[["I_Dist_200_LN_1_LD_2_RN_3_RD_10_0.png","I_Dist_200_LN_1_LD_3_RN_2_RD_15_0.png","I_Dist_200_LN_3_LD_4_RN_11_RD_20_0.png","I_Dist_200_LN_4_LD_5_RN_6_RD_10_0.png","I_Dist_200_LN_4_LD_6_RN_14_RD_30_0.png","I_Dist_200_LN_7_LD_10_RN_12_RD_24_0.png","I_Dist_200_LN_7_LD_10_RN_14_RD_28_0.png","I_Dist_200_LN_7_LD_10_RN_8_RD_16_0.png"],["I_Dist_200_LN_11_LD_20_RN_3_RD_4_1.png","I_Dist_200_LN_14_LD_30_RN_12_RD_18_1.png","I_Dist_200_LN_14_LD_30_RN_6_RD_9_1.png","I_Dist_200_LN_3_LD_10_RN_1_RD_2_1.png","I_Dist_200_LN_4_LD_30_RN_1_RD_3_1.png","I_Dist_200_LN_6_LD_20_RN_3_RD_6_1.png","I_Dist_200_LN_7_LD_15_RN_4_RD_6_1.png","I_Dist_200_LN_7_LD_15_RN_6_RD_9_1.png","I_Dist_200_LN_9_LD_15_RN_8_RD_10_1.png"]],"dist200_S":[["E_Dist_200_LN_3_LD_6_RN_3_RD_10_0.png"],["E_Dist_200_LN_3_LD_10_RN_3_RD_6_1.png"]],"dist300_C":[["C_Dist_300_LN_11_LD_22_RN_1_RD_5_0.png","C_Dist_300_LN_11_LD_22_RN_2_RD_10_0.png","C_Dist_300_LN_11_LD_22_RN_4_RD_20_0.png","C_Dist_300_LN_12_LD_24_RN_2_RD_10_0.png","C_Dist_300_LN_18_LD_20_RN_9_RD_15_0.png","C_Dist_300_LN_20_LD_25_RN_13_RD_26_0.png","C_Dist_300_LN_20_LD_25_RN_14_RD_28_0.png","C_Dist_300_LN_20_LD_25_RN_5_RD_10_0.png","C_Dist_300_LN_20_LD_25_RN_8_RD_16_0.png","C_Dist_300_LN_20_LD_25_RN_9_RD_18_0.png","C_Dist_300_LN_24_LD_30_RN_2_RD_4_0.png","C_Dist_300_LN_24_LD_30_RN_8_RD_16_0.png","C_Dist_300_LN_3_LD_6_RN_2_RD_10_0.png","C_Dist_300_LN_4_LD_10_RN_1_RD_10_0.png","C_Dist_300_LN_4_LD_5_RN_2_RD_4_0.png","C_Dist_300_LN_8_LD_16_RN_1_RD_5_0.png","C_Dist_300_LN_9_LD_10_RN_3_RD_5_0.png"],["C_Dist_300_LN_1_LD_20_RN_7_RD_20_1.png","C_Dist_300_LN_1_LD_3_RN_19_RD_30_1.png","C_Dist_300_LN_1_LD_30_RN_8_RD_24_1.png","C_Dist_300_LN_1_LD_5_RN_11_RD_22_1.png","C_Dist_300_LN_1_LD_5_RN_3_RD_6_1.png","C_Dist_300_LN_1_LD_5_RN_6_RD_12_1.png","C_Dist_300_LN_2_LD_10_RN_12_RD_24_1.png","C_Dist_300_LN_2_LD_20_RN_10_RD_25_1.png","C_Dist_300_LN_3_LD_12_RN_11_RD_20_1.png","C_Dist_300_LN_3_LD_6_RN_4_RD_5_1.png","C_Dist_300_LN_4_LD_20_RN_13_RD_26_1.png","C_Dist_300_LN_5_LD_25_RN_6_RD_12_1.png","C_Dist_300_LN_5_LD_25_RN_7_RD_14_1.png","C_Dist_300_LN_7_LD_14_RN_20_RD_25_1.png","C_Dist_300_LN_8_LD_15_RN_10_RD_12_1.png"]],"dist300_I":[["I_Dist_300_LN_1_LD_2_RN_2_RD_10_0.png","I_Dist_300_LN_1_LD_2_RN_3_RD_15_0.png","I_Dist_300_LN_2_LD_4_RN_6_RD_30_0.png","I_Dist_300_LN_3_LD_6_RN_4_RD_20_0.png","I_Dist_300_LN_4_LD_5_RN_6_RD_12_0.png","I_Dist_300_LN_4_LD_5_RN_8_RD_16_0.png","I_Dist_300_LN_7_LD_10_RN_8_RD_20_0.png","I_Dist_300_LN_8_LD_10_RN_14_RD_28_0.png","I_Dist_300_LN_8_LD_10_RN_9_RD_18_0.png"],["I_Dist_300_LN_13_LD_26_RN_12_RD_15_1.png","I_Dist_300_LN_4_LD_20_RN_2_RD_4_1.png"]],"dist300_S":[["E_Dist_300_LN_9_LD_12_RN_9_RD_20_0.png"],["E_Dist_300_LN_18_LD_30_RN_18_RD_20_1.png","E_Dist_300_LN_3_LD_10_RN_3_RD_5_1.png","E_Dist_300_LN_9_LD_20_RN_9_RD_12_1.png"]],"dist500_C":[["C_Dist_500_LN_10_LD_13_RN_7_RD_26_0.png","C_Dist_500_LN_10_LD_15_RN_4_RD_24_0.png","C_Dist_500_LN_12_LD_16_RN_3_RD_12_0.png","C_Dist_500_LN_12_LD_18_RN_4_RD_24_0.png","C_Dist_500_LN_15_LD_18_RN_5_RD_15_0.png","C_Dist_500_LN_15_LD_20_RN_1_RD_4_0.png","C_Dist_500_LN_18_LD_27_RN_1_RD_6_0.png","C_Dist_500_LN_20_LD_24_RN_1_RD_3_0.png","C_Dist_500_LN_20_LD_24_RN_3_RD_9_0.png","C_Dist_500_LN_20_LD_24_RN_7_RD_21_0.png","C_Dist_500_LN_20_LD_28_RN_3_RD_14_0.png","C_Dist_500_LN_21_LD_28_RN_6_RD_24_0.png","C_Dist_500_LN_22_LD_28_RN_2_RD_7_0.png","C_Dist_500_LN_25_LD_30_RN_9_RD_27_0.png","C_Dist_500_LN_4_LD_6_RN_1_RD_6_0.png","C_Dist_500_LN_5_LD_6_RN_2_RD_6_0.png","C_Dist_500_LN_6_LD_9_RN_1_RD_6_0.png","C_Dist_500_LN_7_LD_10_RN_1_RD_5_0.png","C_Dist_500_LN_8_LD_12_RN_1_RD_6_0.png","C_Dist_500_LN_8_LD_12_RN_4_RD_24_0.png"],["C_Dist_500_LN_1_LD_4_RN_12_RD_16_1.png","C_Dist_500_LN_1_LD_4_RN_9_RD_12_1.png","C_Dist_500_LN_1_LD_9_RN_11_RD_18_1.png","C_Dist_500_LN_10_LD_24_RN_22_RD_24_1.png","C_Dist_500_LN_2_LD_12_RN_10_RD_15_1.png","C_Dist_500_LN_2_LD_12_RN_12_RD_18_1.png","C_Dist_500_LN_2_LD_12_RN_4_RD_6_1.png","C_Dist_500_LN_2_LD_24_RN_7_RD_12_1.png","C_Dist_500_LN_2_LD_5_RN_18_RD_20_1.png","C_Dist_500_LN_2_LD_5_RN_9_RD_10_1.png","C_Dist_500_LN_2_LD_8_RN_12_RD_16_1.png","C_Dist_500_LN_2_LD_8_RN_21_RD_28_1.png","C_Dist_500_LN_3_LD_10_RN_4_RD_5_1.png","C_Dist_500_LN_3_LD_12_RN_15_RD_20_1.png","C_Dist_500_LN_3_LD_30_RN_6_RD_10_1.png","C_Dist_500_LN_3_LD_8_RN_14_RD_16_1.png","C_Dist_500_LN_4_LD_16_RN_15_RD_20_1.png","C_Dist_500_LN_4_LD_24_RN_12_RD_18_1.png","C_Dist_500_LN_5_LD_14_RN_6_RD_7_1.png","C_Dist_500_LN_7_LD_21_RN_20_RD_24_1.png","C_Dist_500_LN_7_LD_28_RN_12_RD_16_1.png","C_Dist_500_LN_7_LD_28_RN_9_RD_12_1.png","C_Dist_500_LN_9_LD_27_RN_20_RD_24_1.png"]],"dist500_I":[["I_Dist_500_LN_2_LD_3_RN_4_RD_24_0.png","I_Dist_500_LN_5_LD_6_RN_6_RD_18_0.png","I_Dist_500_LN_7_LD_8_RN_9_RD_24_0.png"],["I_Dist_500_LN_7_LD_21_RN_5_RD_6_1.png"]],"dist500_S":[["E_Dist_500_LN_6_LD_8_RN_6_RD_24_0.png"],["E_Dist_500_LN_2_LD_12_RN_2_RD_3_1.png","E_Dist_500_LN_6_LD_24_RN_6_RD_8_1.png"]]}},{"start_time":1552312854989,"click_time":1552312855415,"finger_time":1552312855335,"fix_duration":493.88572705882626,"trial":1,"RT":346,"MT":80,"sideResp":2,"stimulus":[],"xmouse":[796,796,796,796,796,796,796,796,796,796,796,795,795,795,795,798,807,826,860,928,1080,1152],"ymouse":[498,498,498,498,498,498,498,498,498,498,498,498,498,498,498,490,473,448,410,343,176,82],"timestamp_mouse":[5,26,45,65,85,106,126,146,165,185,205,226,246,266,287,305,326,346,367,385,406,425],"xSR":741.5,"ySR":469.95,"xT1":424.9,"yT1":0,"xT2":1058.1,"yT2":0,"toosoon":0,"cond_shown":"Incongruent","ratio_trial":300,"L_num":8,"L_den":10,"R_num":14,"R_den":28,"correct_side":1,"subjID":"samuelcruz","gender":"0","school":"4","age":"9"},{"start_time":1552312857938,"click_time":1552312858796,"finger_time":1552312858275,"fix_duration":881.99718277567,"trial":2,"RT":337,"MT":521,"sideResp":1,"stimulus":[],"xmouse":[789,789,789,789,789,789,789,789,789,789,789,789,789,786,782,780,779,785,783,760,760,760,760,760,760,760,760,760,760,760,760,760,760,760,760,760,760,760,760,760,760,465],"ymouse":[503,503,503,503,503,503,503,503,503,503,503,503,502,502,500,488,464,399,176,48,48,48,48,48,48,48,48,48,48,48,48,48,48,48,48,48,48,48,48,48,48,16],"timestamp_mouse":[16,36,57,78,97,118,138,157,178,196,217,237,256,276,297,316,337,357,377,398,418,437,457,476,497,518,538,558,576,598,617,638,677,702,717,737,757,777,796,817,836,856],"xSR":741.5,"ySR":469.95,"xT1":424.9,"yT1":0,"xT2":1058.1,"yT2":0,"toosoon":0,"cond_shown":"Congruent","ratio_trial":100,"L_num":4,"L_den":8,"R_num":6,"R_den":10,"correct_side":2,"subjID":"samuelcruz","gender":"0","school":"4","age":"9"},{"start_time":1552312861063,"click_time":1552312861955,"finger_time":1552312861576,"fix_duration":707.5055351803641,"trial":3,"RT":513,"MT":379,"sideResp":2,"stimulus":[],"xmouse":[784,784,784,784,784,784,784,784,784,784,784,784,782,781,779,778,778,778,778,778,778,778,778,779,792,808,855,876,914,943,960,979,982,987,997,1011,1022,1032,1033,1033,1033,1035,1048,1070,1093],"ymouse":[533,533,533,533,533,533,533,533,533,533,533,533,533,533,533,533,533,533,533,533,533,533,533,526,505,475,390,349,292,250,223,178,167,157,147,137,128,114,112,112,112,111,110,106,98],"timestamp_mouse":[14,35,52,72,91,112,131,151,171,191,211,233,253,273,292,311,332,352,372,391,413,433,451,472,492,513,532,551,571,591,613,633,651,673,693,713,733,752,772,791,812,833,851,872,892],"xSR":741.5,"ySR":501.8,"xT1":424.9,"yT1":0,"xT2":1058.1,"yT2":0,"toosoon":0,"cond_shown":"Incongruent","ratio_trial":100,"L_num":3,"L_den":5,"R_num":8,"R_den":16,"correct_side":1,"subjID":"samuelcruz","gender":"0","school":"4","age":"9"},{"start_time":1552312865087,"click_time":1552312866094,"finger_time":1552312865394,"fix_duration":250,"trial":4,"RT":307,"MT":700,"sideResp":2,"stimulus":[],"xmouse":[805,805,809,821,828,831,831,831,829,827,825,823,823,824,830,841,894,999,1104,1219,1312,1312,1312,1312,1312,1312,1312,1312,1312,1312,1312,1312,1312,1312,1312,1312,1183,1183,1189,1193,1197,1197,1197,1197,1194,1186,1182,1178,1172,1164,1158],"ymouse":[538,538,534,523,514,504,503,502,502,502,502,502,502,502,502,501,471,391,291,177,62,62,62,62,62,62,62,62,62,62,62,62,62,62,62,62,70,63,48,33,20,20,20,20,19,28,35,40,48,57,65],"timestamp_mouse":[23,28,49,68,88,109,128,147,168,189,207,228,249,269,289,307,327,348,369,389,409,429,449,468,488,508,528,549,568,588,609,628,649,668,689,708,728,748,767,788,809,827,848,868,889,908,927,947,967,988,1007],"xSR":741.5,"ySR":501.8,"xT1":424.9,"yT1":0,"xT2":1058.1,"yT2":0,"toosoon":0,"cond_shown":"Congruent","ratio_trial":200,"L_num":6,"L_den":20,"R_num":11,"R_den":22,"correct_side":2,"subjID":"samuelcruz","gender":"0","school":"4","age":"9"},{"start_time":1552312880215,"click_time":1552312881216,"finger_time":1552312880556,"fix_duration":257.8612363938906,"trial":5,"RT":341,"MT":660,"sideResp":2,"stimulus":[],"xmouse":[781,781,781,781,781,781,781,781,781,781,781,781,781,781,781,781,784,790,804,817,827,835,849,861,873,887,896,913,942,1020,1032,1035,1035,1037,1039,1039,1039,1039,1039,1039,1041,1040,1037,1035,1034,1034,1034,1037,1042,1054,1075],"ymouse":[567,567,567,567,567,567,567,567,567,567,565,564,563,560,548,535,512,491,459,429,382,350,326,312,305,299,293,284,265,187,133,58,28,6,1,1,1,1,1,1,3,17,31,49,90,99,99,98,93,83,64],"timestamp_mouse":[2,20,39,60,81,100,121,140,161,179,199,219,239,261,280,300,319,341,361,381,401,420,440,460,481,501,520,541,559,582,600,620,641,660,680,700,719,740,760,781,800,820,841,861,881,900,920,940,960,980,1001],"xSR":741.5,"ySR":501.8,"xT1":424.9,"yT1":0,"xT2":1058.1,"yT2":0,"toosoon":0,"cond_shown":"Congruent","ratio_trial":300,"L_num":3,"L_den":6,"R_num":4,"R_den":5,"correct_side":2,"subjID":"samuelcruz","gender":"0","school":"4","age":"9"},{"start_time":1552312887536,"click_time":1552312888426,"finger_time":1552312887986,"fix_duration":1300.2556197565195,"trial":6,"RT":450,"MT":440,"sideResp":1,"stimulus":[],"xmouse":[787,787,787,787,787,787,787,787,787,787,787,787,787,787,787,787,787,787,786,785,781,771,713,703,703,703,703,686,675,667,658,640,579,563,560,560,560,559,558,552,545,540,536,520],"ymouse":[545,545,545,545,544,544,544,544,544,544,544,544,544,544,544,544,544,544,544,531,507,465,338,298,290,288,287,283,280,275,270,260,232,221,220,220,220,209,194,175,159,145,132,75],"timestamp_mouse":[22,44,60,78,99,118,138,159,180,199,219,239,259,279,309,329,349,370,389,410,429,450,469,488,508,528,548,570,588,609,630,648,670,688,709,729,749,770,788,809,830,849,869,890],"xSR":741.5,"ySR":501.8,"xT1":424.9,"yT1":0,"xT2":1058.1,"yT2":0,"toosoon":0,"cond_shown":"Congruent","ratio_trial":200,"L_num":20,"L_den":25,"R_num":9,"R_den":15,"correct_side":1,"subjID":"samuelcruz","gender":"0","school":"4","age":"9"},{"start_time":1552312890404,"click_time":1552312891285,"finger_time":1552312890885,"fix_duration":318.42832920648425,"trial":7,"RT":481,"MT":400,"sideResp":2,"stimulus":[],"xmouse":[789,789,789,789,789,789,789,789,789,789,789,789,789,789,789,789,789,789,789,789,789,789,789,793,800,808,833,863,943,1067,1359,1498,1512,1512,1507,1494,1473,1461,1441,1404,1352,1333,1270,1188,1109],"ymouse":[546,546,546,546,546,546,546,546,546,546,546,546,546,546,546,546,546,546,545,544,544,544,539,522,496,465,405,361,314,283,217,174,164,155,142,129,115,110,103,92,84,84,80,67,57],"timestamp_mouse":[10,32,40,61,80,100,121,141,161,180,201,221,240,261,282,300,322,340,361,381,402,420,440,461,481,500,521,540,562,581,601,620,640,660,681,702,722,742,762,781,801,820,840,861,881],"xSR":741.5,"ySR":501.8,"xT1":424.9,"yT1":0,"xT2":1058.1,"yT2":0,"toosoon":0,"cond_shown":"Congruent","ratio_trial":200,"L_num":16,"L_den":30,"R_num":9,"R_den":27,"correct_side":1,"subjID":"samuelcruz","gender":"0","school":"4","age":"9"},{"start_time":1552312893591,"click_time":1552312894245,"finger_time":1552312893925,"fix_duration":404.00892816880975,"trial":8,"RT":334,"MT":320,"sideResp":1,"stimulus":[],"xmouse":[787,787,787,787,787,787,787,787,787,787,787,787,787,787,787,787,768,738,681,591,413,350,330,333,345,356,371,374,374,374,374,408,431],"ymouse":[548,549,549,549,549,549,549,549,549,549,549,549,549,549,548,540,475,420,350,280,161,118,87,67,45,25,3,0,0,0,0,11,32],"timestamp_mouse":[15,39,54,75,93,114,134,154,174,193,214,234,254,274,294,313,334,354,375,394,414,433,455,475,494,514,534,554,575,593,614,635,654],"xSR":741.5,"ySR":501.8,"xT1":424.9,"yT1":0,"xT2":1058.1,"yT2":0,"toosoon":0,"cond_shown":"Congruent","ratio_trial":200,"L_num":13,"L_den":26,"R_num":14,"R_den":20,"correct_side":2,"subjID":"samuelcruz","gender":"0","school":"4","age":"9"},{"start_time":1552312896245,"click_time":1552312902706,"finger_time":1552312899226,"fix_duration":816.1255674552393,"trial":9,"RT":2981,"MT":3480,"sideResp":2,"stimulus":[],"xmouse":[791,791,791,791,792,792,792,792,792,792,792,792,792,792,792,792,792,792,792,792,792,792,792,792,792,792,792,792,791,791,791,791,791,791,791,791,791,791,791,791,790,790,790,790,790,790,790,790,790,790,790,790,790,790,790,790,790,790,790,790,790,790,790,790,790,790,790,790,790,790,790,790,790,790,790,790,790,790,790,790,790,790,790,790,790,790,790,790,790,790,790,790,790,790,790,790,790,790,790,790,790,790,790,790,790,790,790,790,790,790,790,790,790,790,790,790,790,790,790,790,790,790,790,788,787,787,787,787,786,785,785,785,784,784,784,784,784,784,784,784,784,784,784,787,794,797,805,818,827,861,903,933,956,1000,1019,1034,1052,1132,1225,1289,1278,1248,1180,967,853,751,670,618,599,596,596,596,596,597,606,610,618,629,647,682,706,721,731,742,767,778,789,800,806,808,808,808,808,808,808,808,808,808,808,807,806,805,803,800,799,798,798,798,797,796,796,796,796,796,795,795,795,795,795,795,795,795,794,794,794,794,794,793,792,791,791,791,791,789,789,788,788,788,787,787,785,784,784,784,784,784,784,784,783,783,782,782,782,782,782,781,781,779,776,776,776,776,776,776,776,776,775,775,776,778,778,779,779,779,779,780,781,783,784,784,785,785,785,785,785,786,786,786,786,786,787,787,787,787,787,787,787,787,787,787,787,787,787,787,787,787,787,787,787,790,792,798,806,817,872,912,950,976,990,998,1003,1011,1021,1062],"ymouse":[540,540,540,540,540,540,540,540,540,540,540,540,540,540,540,540,540,540,540,540,540,540,540,540,540,540,540,540,540,540,540,540,540,540,540,540,540,540,540,540,542,543,543,543,543,543,543,543,543,543,543,543,543,543,543,543,543,543,543,543,543,543,543,543,543,543,543,543,543,543,543,543,543,543,543,543,543,543,543,543,543,543,543,543,543,543,543,543,543,543,543,543,543,543,543,543,543,543,543,543,543,543,543,543,543,543,543,543,543,543,543,543,543,543,541,539,537,533,530,527,527,527,527,526,528,529,531,532,533,536,539,541,541,544,545,546,547,548,550,551,551,551,551,551,551,550,549,548,548,549,552,552,545,525,514,505,502,517,534,555,570,580,581,520,470,426,392,364,351,348,348,347,347,345,345,345,351,361,375,404,421,430,435,443,464,478,496,513,525,530,530,530,530,530,530,530,530,530,530,531,532,533,535,539,541,543,545,547,549,552,553,553,554,554,555,556,556,556,556,556,556,556,556,556,556,556,556,556,556,555,555,555,555,554,554,553,553,553,552,551,550,549,549,549,549,549,549,549,548,548,547,546,546,546,546,546,546,545,544,544,544,544,544,544,544,544,544,544,545,545,545,546,546,546,546,546,546,547,547,547,547,547,547,547,547,547,547,547,547,547,547,547,547,547,547,547,547,547,547,547,547,547,547,547,547,547,547,547,544,530,522,480,423,336,182,131,100,91,91,94,91,84,71,47],"timestamp_mouse":[9,21,41,60,80,101,120,140,160,181,199,219,241,259,280,300,320,340,360,379,399,420,440,461,481,500,520,541,561,580,600,620,639,660,680,701,721,740,760,780,800,820,839,860,880,899,921,941,960,980,999,1020,1040,1061,1081,1100,1120,1141,1161,1180,1199,1220,1240,1260,1280,1301,1321,1341,1360,1380,1400,1420,1440,1459,1481,1500,1520,1540,1559,1580,1599,1620,1640,1660,1680,1700,1720,1740,1760,1780,1801,1820,1839,1860,1880,1899,1921,1940,1960,1980,2000,2020,2039,2059,2080,2100,2119,2139,2161,2180,2201,2220,2240,2260,2280,2300,2320,2339,2360,2379,2400,2421,2439,2460,2481,2500,2520,2541,2559,2580,2600,2620,2640,2660,2681,2700,2720,2741,2760,2780,2800,2820,2841,2859,2879,2900,2920,2941,2959,2981,3000,3021,3040,3061,3079,3101,3119,3139,3159,3180,3200,3219,3240,3261,3279,3300,3319,3339,3359,3381,3400,3419,3439,3460,3479,3499,3520,3539,3559,3580,3600,3619,3640,3660,3679,3699,3719,3740,3760,3780,3800,3821,3839,3860,3880,3900,3921,3940,3960,3979,4000,4020,4039,4060,4080,4100,4119,4139,4160,4181,4200,4219,4240,4260,4280,4300,4319,4340,4360,4381,4401,4421,4439,4460,4481,4501,4520,4540,4560,4581,4601,4620,4640,4660,4681,4699,4721,4740,4760,4780,4801,4820,4840,4859,4880,4901,4919,4939,4960,4981,5000,5020,5041,5060,5080,5099,5120,5141,5160,5180,5200,5219,5239,5260,5281,5299,5319,5340,5360,5379,5399,5420,5440,5460,5480,5501,5520,5540,5561,5580,5599,5620,5641,5659,5679,5700,5721,5740,5760,5780,5800,5819,5840,5861,5879,5899,5920,5940,5961,5979,6000,6020,6039,6060,6079,6100,6120,6140,6160,6179,6199,6220,6240,6261,6280,6300,6321,6340,6360,6381,6401,6420,6440,6461],"xSR":741.5,"ySR":501.8,"xT1":424.9,"yT1":0,"xT2":1058.1,"yT2":0,"toosoon":0,"cond_shown":"Congruent","ratio_trial":300,"L_num":18,"L_den":20,"R_num":9,"R_den":15,"correct_side":1,"subjID":"samuelcruz","gender":"0","school":"4","age":"9"},{"start_time":1552312905276,"click_time":1552312906665,"finger_time":1552312905726,"fix_duration":1389.095151790717,"trial":10,"RT":450,"MT":939,"sideResp":1,"stimulus":[],"xmouse":[789,788,788,788,788,788,788,788,788,788,788,788,788,788,786,786,783,778,777,777,777,775,761,750,733,718,659,622,595,595,595,595,595,595,595,595,595,595,595,595,595,595,595,595,595,595,595,595,595,595,595,595,595,595,595,595,595,595,595,595,595,595,595,595,595,595,595,595,595,452],"ymouse":[553,552,552,552,552,552,552,552,552,552,552,552,552,552,550,549,545,536,533,530,525,517,486,469,446,424,310,188,57,57,57,57,57,57,57,57,57,57,57,57,57,57,57,57,57,57,57,57,57,57,57,57,57,57,57,57,57,57,57,57,57,57,57,57,57,57,57,57,57,10],"timestamp_mouse":[13,48,48,69,88,108,128,149,170,188,208,229,249,268,289,309,329,348,370,389,409,429,450,469,490,510,529,548,568,589,608,629,648,669,690,709,729,748,768,789,808,830,849,869,888,909,928,949,969,990,1010,1029,1049,1068,1089,1109,1129,1149,1169,1189,1208,1229,1248,1269,1289,1308,1329,1349,1369,1388],"xSR":741.5,"ySR":501.8,"xT1":424.9,"yT1":0,"xT2":1058.1,"yT2":0,"toosoon":0,"cond_shown":"Congruent","ratio_trial":100,"L_num":15,"L_den":25,"R_num":13,"R_den":26,"correct_side":1,"subjID":"samuelcruz","gender":"0","school":"4","age":"9"},{"start_time":1552312911488,"click_time":1552312911965,"finger_time":1552312911505,"fix_duration":1381.1362185014075,"trial":11,"RT":17,"MT":460,"sideResp":1,"stimulus":[],"xmouse":[419,419,419,419,419,419,419,419,419,419,419,419,419,419,420,421,432,439,446,453,455,455,455,454],"ymouse":[501,501,501,501,501,501,501,501,501,501,501,501,501,501,501,499,468,440,391,318,236,129,106,88],"timestamp_mouse":[17,36,57,77,97,116,136,157,177,196,218,237,258,277,297,316,337,356,377,396,416,436,456,477],"xSR":383.5,"ySR":464.75,"xT1":210.09999999999997,"yT1":0,"xT2":556.9,"yT2":0,"toosoon":0,"cond_shown":"Congruent","ratio_trial":300,"L_num":3,"L_den":12,"R_num":11,"R_den":20,"correct_side":2,"subjID":"samuelcruz","gender":"0","school":"4","age":"9"},{"start_time":1552312918114,"click_time":1552312919085,"finger_time":1552312918405,"fix_duration":688.5093100188013,"trial":12,"RT":291,"MT":680,"sideResp":2,"stimulus":[],"xmouse":[797,797,797,797,797,796,796,796,796,796,796,795,794,794,800,821,873,895,895,895,895,895,895,895,895,895,895,895,895,895,895,895,895,996,998,1002,1007,1012,1016,1017,1026,1029,1030,1031,1044,1051,1057,1058,1059],"ymouse":[544,544,544,544,544,544,544,544,544,544,544,543,540,538,471,377,160,40,40,40,40,40,40,40,40,40,40,40,40,40,40,40,40,4,9,21,29,34,36,37,39,40,40,41,50,54,57,59,61],"timestamp_mouse":[20,42,51,71,91,112,131,151,171,191,212,230,251,272,291,310,330,350,370,391,410,430,451,471,492,511,530,550,570,592,611,630,650,671,691,710,731,751,770,790,811,832,851,871,892,910,931,951,971],"xSR":741.5,"ySR":501.8,"xT1":424.9,"yT1":0,"xT2":1058.1,"yT2":0,"toosoon":0,"cond_shown":"Congruent","ratio_trial":100,"L_num":11,"L_den":22,"R_num":4,"R_den":10,"correct_side":1,"subjID":"samuelcruz","gender":"0","school":"4","age":"9"},{"start_time":1552312922175,"click_time":1552312922806,"finger_time":1552312922746,"fix_duration":250,"trial":13,"RT":571,"MT":60,"sideResp":1,"stimulus":[],"xmouse":[810,810,810,809,808,806,806,806,806,806,805,805,805,805,805,805,805,805,805,805,804,803,803,803,800,799,787,769,727,664,591,507],"ymouse":[577,576,573,573,569,566,565,565,565,565,565,565,565,565,565,565,564,564,564,564,564,563,563,563,563,562,553,526,466,369,233,55],"timestamp_mouse":[14,40,49,70,91,110,130,151,170,190,209,229,250,271,291,310,330,351,369,390,409,431,450,470,490,509,530,550,571,591,610,631],"xSR":741.5,"ySR":501.8,"xT1":424.9,"yT1":0,"xT2":1058.1,"yT2":0,"toosoon":0,"cond_shown":"Incongruent","ratio_trial":100,"L_num":4,"L_den":8,"R_num":8,"R_den":20,"correct_side":1,"subjID":"samuelcruz","gender":"0","school":"4","age":"9"},{"start_time":1552312925772,"click_time":1552312926805,"finger_time":1552312926345,"fix_duration":1325.7423460427494,"trial":14,"RT":573,"MT":460,"sideResp":1,"stimulus":[],"xmouse":[789,789,789,789,789,789,789,789,789,789,789,789,789,789,789,789,789,789,789,789,788,789,790,792,793,795,797,797,797,797,797,797,798,801,807,816,855,867,864,815,815,815,815,815,815,815,815,815,815,815,397,466],"ymouse":[559,559,559,559,559,559,559,559,559,559,559,559,559,559,559,559,559,559,559,559,559,556,553,545,540,534,522,515,498,480,470,463,448,444,434,421,319,214,113,23,23,23,23,23,23,23,23,23,23,23,15,50],"timestamp_mouse":[18,43,53,73,93,114,133,152,173,193,212,233,254,272,292,313,334,354,373,393,412,434,453,472,493,512,533,553,573,593,612,632,653,672,693,713,734,753,773,792,812,832,852,873,893,913,933,952,972,993,1014,1032],"xSR":741.5,"ySR":501.8,"xT1":424.9,"yT1":0,"xT2":1058.1,"yT2":0,"toosoon":0,"cond_shown":"Congruent","ratio_trial":200,"L_num":8,"L_den":15,"R_num":2,"R_den":6,"correct_side":1,"subjID":"samuelcruz","gender":"0","school":"4","age":"9"},{"start_time":1552312932219,"click_time":1552312933007,"finger_time":1552312932645,"fix_duration":250,"trial":15,"RT":426,"MT":362,"sideResp":1,"stimulus":[],"xmouse":[751,751,751,751,751,751,751,751,752,752,752,752,752,752,752,752,752,753,753,753,752,748,740,732,727,727,724,717,710,708,711,711,711,706,692,682,661,622,547,464],"ymouse":[561,561,561,561,561,561,561,561,561,561,561,561,561,561,561,561,561,559,556,536,517,495,449,412,381,328,304,276,251,219,189,167,144,122,91,80,69,52,25,9],"timestamp_mouse":[12,37,46,67,86,106,126,145,165,186,205,226,247,265,286,306,325,345,366,386,406,426,446,465,486,506,525,547,566,586,605,626,647,667,687,705,727,746,765,788],"xSR":741.5,"ySR":501.8,"xT1":424.9,"yT1":0,"xT2":1058.1,"yT2":0,"toosoon":0,"cond_shown":"Congruent","ratio_trial":200,"L_num":16,"L_den":30,"R_num":9,"R_den":27,"correct_side":1,"subjID":"samuelcruz","gender":"0","school":"4","age":"9"},{"start_time":1552312987662,"click_time":1552312988856,"finger_time":1552312987917,"fix_duration":1044.1174650924872,"trial":16,"RT":255,"MT":939,"sideResp":1,"stimulus":[],"xmouse":[790,789,789,789,789,789,789,789,789,788,787,786,759,722,672,613,589,589,589,589,589,589,589,589,589,589,589,589,589,589,589,589,589,589,589,589,589,589,589,589,589,589,589,589,589,589,589,589,589,589,589,423,422,422,422,423,423,424,424,425],"ymouse":[559,559,559,559,559,559,559,559,559,559,557,548,486,397,268,111,35,35,35,35,35,35,35,35,35,35,35,35,35,35,35,35,35,35,35,35,35,35,35,35,35,35,35,35,35,35,35,35,35,35,35,6,14,21,23,24,26,27,29,33],"timestamp_mouse":[14,34,54,74,94,115,135,154,175,195,214,235,255,274,294,315,335,355,375,394,415,435,455,474,494,514,535,555,583,594,614,633,654,674,693,715,735,754,774,794,815,835,855,874,893,914,935,955,975,994,1013,1034,1054,1075,1094,1115,1135,1154,1175,1193],"xSR":741.5,"ySR":501.8,"xT1":424.9,"yT1":0,"xT2":1058.1,"yT2":0,"toosoon":0,"cond_shown":"Incongruent","ratio_trial":100,"L_num":2,"L_den":4,"R_num":6,"R_den":15,"correct_side":1,"subjID":"samuelcruz","gender":"0","school":"4","age":"9"},{"start_time":1552312994023,"click_time":1552312994877,"finger_time":1552312994037,"fix_duration":1405.8941293898065,"trial":17,"RT":14,"MT":840,"sideResp":1,"stimulus":[],"xmouse":[427,427,427,427,427,427,427,427,427,427,427,427,427,427,427,427,427,428,437,463,480,490,502,515,530,584,613,630,636,629,629,629,629,629,629,629,629,629,629,629,629,629,470],"ymouse":[499,499,499,499,499,499,499,499,499,499,499,499,499,499,499,499,499,495,479,419,368,335,301,269,243,170,129,84,53,10,10,10,10,10,10,10,10,10,10,10,10,10,8],"timestamp_mouse":[14,32,53,74,93,113,133,153,173,194,213,233,253,274,293,314,334,354,374,394,413,434,453,474,494,513,533,553,573,594,613,633,654,674,693,714,734,753,773,793,814,833,854],"xSR":383.5,"ySR":464.75,"xT1":210.09999999999997,"yT1":0,"xT2":556.9,"yT2":0,"toosoon":0,"cond_shown":"Congruent","ratio_trial":100,"L_num":8,"L_den":16,"R_num":2,"R_den":5,"correct_side":1,"subjID":"samuelcruz","gender":"0","school":"4","age":"9"},{"start_time":1552312996930,"click_time":1552312997317,"finger_time":1552312997257,"fix_duration":572.8115262488539,"trial":18,"RT":327,"MT":60,"sideResp":2,"stimulus":[],"xmouse":[782,782,782,782,782,782,782,782,782,782,782,782,782,782,782,792,851,921,1011,1100],"ymouse":[540,540,540,540,540,540,540,540,540,540,540,540,540,540,540,529,444,341,201,8],"timestamp_mouse":[19,44,47,66,87,105,127,147,166,187,206,225,247,267,286,307,327,345,366,387],"xSR":741.5,"ySR":501.8,"xT1":424.9,"yT1":0,"xT2":1058.1,"yT2":0,"toosoon":0,"cond_shown":"Congruent","ratio_trial":300,"L_num":8,"L_den":15,"R_num":10,"R_den":12,"correct_side":2,"subjID":"samuelcruz","gender":"0","school":"4","age":"9"},{"start_time":1552312999630,"click_time":1552313000437,"finger_time":1552312999897,"fix_duration":411.07102303052244,"trial":19,"RT":267,"MT":540,"sideResp":1,"stimulus":[],"xmouse":[773,773,773,773,773,773,773,773,773,773,773,773,770,736,661,453,364,318,318,318,318,318,318,318,318,318,318,318,318,409,421,421,421,421,421,421,421,421,421,421,434],"ymouse":[520,520,520,520,520,520,520,520,520,520,520,520,515,492,433,221,103,4,4,4,4,4,4,4,4,4,4,4,4,28,49,50,50,50,50,50,50,50,50,50,52],"timestamp_mouse":[14,38,46,65,87,106,126,147,166,186,207,227,245,267,285,306,326,346,366,387,406,427,446,467,486,506,527,547,565,586,606,626,647,667,686,706,726,746,767,787,807],"xSR":741.5,"ySR":501.8,"xT1":424.9,"yT1":0,"xT2":1058.1,"yT2":0,"toosoon":0,"cond_shown":"Incongruent","ratio_trial":300,"L_num":13,"L_den":26,"R_num":12,"R_den":15,"correct_side":2,"subjID":"samuelcruz","gender":"0","school":"4","age":"9"},{"start_time":1552313002547,"click_time":1552313003457,"finger_time":1552313002916,"fix_duration":250,"trial":20,"RT":369,"MT":541,"sideResp":2,"stimulus":[],"xmouse":[802,803,803,803,803,803,803,803,803,803,803,803,803,803,803,803,803,811,835,858,883,909,927,956,969,973,973,973,973,973,974,975,979,981,988,991,994,997,998,998,998,999,1003,1023,1048,1068],"ymouse":[565,565,565,565,565,565,565,565,565,565,565,565,565,565,565,565,556,531,473,428,383,338,302,243,212,203,203,203,203,203,201,200,196,194,188,186,184,182,182,182,182,181,177,147,117,93],"timestamp_mouse":[13,38,49,69,90,109,129,150,169,190,210,230,250,270,289,310,330,349,369,388,410,429,449,469,489,509,530,550,569,590,609,628,650,670,688,709,729,749,768,790,810,830,850,870,889,909],"xSR":741.5,"ySR":501.8,"xT1":424.9,"yT1":0,"xT2":1058.1,"yT2":0,"toosoon":0,"cond_shown":"Incongruent","ratio_trial":200,"L_num":7,"L_den":10,"R_num":14,"R_den":28,"correct_side":1,"subjID":"samuelcruz","gender":"0","school":"4","age":"9"},{"start_time":1552313006562,"click_time":1552313007277,"finger_time":1552313006836,"fix_duration":303.77479899782446,"trial":21,"RT":274,"MT":441,"sideResp":1,"stimulus":[],"xmouse":[791,791,791,791,791,791,791,791,791,791,791,786,773,744,717,692,680,669,669,669,669,669,669,669,669,664,649,569,521,498,492,492,492,491,491,491],"ymouse":[549,549,549,549,549,549,549,549,549,549,549,541,514,451,381,307,244,142,106,79,66,62,60,60,60,60,63,86,104,115,117,117,117,117,105,95],"timestamp_mouse":[15,35,55,75,95,115,135,154,175,194,215,234,254,274,295,314,335,354,374,394,415,435,454,474,494,514,535,555,574,594,615,635,655,675,694,715],"xSR":741.5,"ySR":501.8,"xT1":424.9,"yT1":0,"xT2":1058.1,"yT2":0,"toosoon":0,"cond_shown":"Incongruent","ratio_trial":200,"L_num":7,"L_den":10,"R_num":12,"R_den":24,"correct_side":1,"subjID":"samuelcruz","gender":"0","school":"4","age":"9"},{"start_time":1552313011620,"click_time":1552313012617,"finger_time":1552313012177,"fix_duration":1222.8262457147694,"trial":22,"RT":557,"MT":440,"sideResp":1,"stimulus":[],"xmouse":[794,794,794,794,794,794,794,794,794,794,794,794,794,794,794,794,794,794,794,794,794,794,794,794,794,791,789,788,788,788,787,773,741,693,642,565,526,485,466,465,465,465,465,469,484,487,491,492,493,495],"ymouse":[556,556,556,556,556,556,556,556,556,556,556,556,556,556,556,556,556,556,556,556,556,556,556,552,547,513,503,501,501,501,500,488,465,426,385,311,274,236,217,212,210,198,178,152,120,113,107,105,102,98],"timestamp_mouse":[16,37,56,77,96,116,136,157,177,196,216,237,257,277,297,317,337,356,377,397,417,437,457,477,496,517,536,557,583,597,616,636,657,676,697,717,737,756,776,796,815,837,856,877,896,916,935,956,976,997],"xSR":741.5,"ySR":501.8,"xT1":424.9,"yT1":0,"xT2":1058.1,"yT2":0,"toosoon":0,"cond_shown":"Incongruent","ratio_trial":300,"L_num":3,"L_den":6,"R_num":4,"R_den":20,"correct_side":1,"subjID":"samuelcruz","gender":"0","school":"4","age":"9"},{"start_time":1552313018924,"click_time":1552313019676,"finger_time":1552313019257,"fix_duration":1325.1782641356888,"trial":23,"RT":333,"MT":419,"sideResp":1,"stimulus":[],"xmouse":[779,779,779,779,779,779,779,779,779,779,779,779,779,779,777,770,748,718,676,614,607,604,602,601,601,595,594,594,594,594,593,589,585,582,578,563,529,489],"ymouse":[547,547,547,547,547,547,547,547,547,547,547,547,547,547,540,525,487,441,381,284,262,248,233,206,177,120,115,113,113,113,113,114,116,118,118,116,101,87],"timestamp_mouse":[14,40,53,73,92,112,133,153,172,192,211,233,252,273,292,313,333,353,372,392,411,433,452,473,492,513,532,552,572,592,612,633,653,673,691,713,732,752],"xSR":741.5,"ySR":501.8,"xT1":424.9,"yT1":0,"xT2":1058.1,"yT2":0,"toosoon":0,"cond_shown":"Congruent","ratio_trial":300,"L_num":20,"L_den":25,"R_num":14,"R_den":28,"correct_side":1,"subjID":"samuelcruz","gender":"0","school":"4","age":"9"},{"start_time":1552313022194,"click_time":1552313023237,"finger_time":1552313022635,"fix_duration":995.2248264953698,"trial":24,"RT":441,"MT":602,"sideResp":1,"stimulus":[],"xmouse":[775,775,775,775,775,775,775,776,776,776,777,778,779,779,780,781,781,781,781,781,781,780,774,740,709,674,638,548,474,405,366,350,350,350,350,350,362,374,386,401,413,424,424,424,424,424,424,424,424,424,424,424,426],"ymouse":[557,557,557,557,557,557,557,557,557,557,557,557,557,557,557,557,546,539,533,532,529,514,487,395,333,281,233,163,127,90,69,55,51,48,48,48,47,46,46,46,46,46,46,46,46,46,46,46,46,46,46,46,46],"timestamp_mouse":[12,22,42,63,83,103,122,143,163,183,203,223,242,263,282,303,322,343,362,382,403,422,441,462,483,503,522,542,562,582,603,624,641,662,681,701,723,742,763,782,802,823,842,862,882,902,922,943,962,982,1001,1023,1042],"xSR":741.5,"ySR":501.8,"xT1":424.9,"yT1":0,"xT2":1058.1,"yT2":0,"toosoon":0,"cond_shown":"Congruent","ratio_trial":100,"L_num":1,"L_den":2,"R_num":3,"R_den":5,"correct_side":2,"subjID":"samuelcruz","gender":"0","school":"4","age":"9"},{"start_time":1552313027422,"click_time":1552313028417,"finger_time":1552313027916,"fix_duration":344.18357829655366,"trial":25,"RT":494,"MT":501,"sideResp":2,"stimulus":[],"xmouse":[787,787,787,787,787,787,787,787,787,787,787,787,787,787,787,787,787,787,787,787,787,787,787,792,819,842,867,893,915,951,963,977,989,1007,1030,1040,1044,1045,1046,1048,1049,1052,1056,1058,1064,1069,1071,1075,1075,1077],"ymouse":[549,549,549,549,549,549,549,549,549,549,549,549,549,549,549,549,549,549,549,549,549,549,546,528,445,379,322,279,251,216,204,192,179,164,143,136,131,130,129,126,125,123,122,121,117,114,112,106,100,88],"timestamp_mouse":[14,42,55,75,94,115,134,154,175,194,215,235,254,274,294,314,335,354,374,395,415,435,454,474,494,513,534,554,575,595,613,635,655,674,695,714,734,754,774,795,814,835,855,875,895,914,934,955,975,995],"xSR":741.5,"ySR":501.8,"xT1":424.9,"yT1":0,"xT2":1058.1,"yT2":0,"toosoon":0,"cond_shown":"Incongruent","ratio_trial":200,"L_num":1,"L_den":2,"R_num":3,"R_den":10,"correct_side":1,"subjID":"samuelcruz","gender":"0","school":"4","age":"9"},{"start_time":1552313030108,"click_time":1552313030757,"finger_time":1552313030697,"fix_duration":250,"trial":26,"RT":589,"MT":60,"sideResp":2,"stimulus":[],"xmouse":[803,801,798,798,792,790,790,790,790,790,790,790,790,790,790,790,790,790,790,790,790,790,790,790,790,790,790,797,820,873,1028,1080,1108],"ymouse":[536,538,540,540,546,549,550,550,550,550,550,550,550,550,550,550,550,550,550,550,550,550,550,550,550,550,551,544,509,436,248,168,98],"timestamp_mouse":[16,27,60,69,89,108,128,149,168,189,208,229,248,268,288,309,329,349,367,388,408,429,449,468,488,508,529,548,569,589,608,628,649],"xSR":741.5,"ySR":501.8,"xT1":424.9,"yT1":0,"xT2":1058.1,"yT2":0,"toosoon":0,"cond_shown":"Congruent","ratio_trial":200,"L_num":9,"L_den":20,"R_num":4,"R_den":16,"correct_side":1,"subjID":"samuelcruz","gender":"0","school":"4","age":"9"},{"start_time":1552313033118,"click_time":1552313033897,"finger_time":1552313033657,"fix_duration":1099.0838741373198,"trial":27,"RT":539,"MT":240,"sideResp":1,"stimulus":[],"xmouse":[803,803,803,803,803,803,803,803,803,803,803,803,803,803,803,803,803,803,803,803,803,803,803,803,804,805,805,802,801,800,797,793,789,784,778,733,638,556,488],"ymouse":[522,522,522,522,522,522,522,522,522,522,522,522,522,522,522,522,522,522,522,522,522,522,522,519,516,504,496,491,489,487,483,475,468,455,441,363,233,136,51],"timestamp_mouse":[18,39,57,77,99,118,139,159,179,198,219,239,258,279,298,317,339,358,379,398,419,438,458,478,499,519,539,558,578,599,618,638,659,679,698,718,738,758,779],"xSR":741.5,"ySR":501.8,"xT1":424.9,"yT1":0,"xT2":1058.1,"yT2":0,"toosoon":0,"cond_shown":"Incongruent","ratio_trial":100,"L_num":2,"L_den":4,"R_num":6,"R_den":15,"correct_side":1,"subjID":"samuelcruz","gender":"0","school":"4","age":"9"},{"start_time":1552313036065,"click_time":1552313037476,"finger_time":1552313036936,"fix_duration":645.2825928954497,"trial":28,"RT":871,"MT":540,"sideResp":2,"stimulus":[],"xmouse":[787,787,787,787,787,787,787,787,787,787,787,787,787,787,787,787,787,787,787,787,786,785,784,781,772,760,750,746,746,746,746,746,746,746,746,746,746,746,746,746,746,746,761,808,891,1010,1136,1269,1269,1269,1269,1269,1269,1269,1269,1269,1269,1269,1269,1269,1269,1269,1201,1179,1167,1161,1159,1159,1159,1159,1157],"ymouse":[558,558,558,558,558,558,558,558,558,558,558,558,558,558,558,558,558,558,558,558,558,558,558,554,542,528,517,514,513,513,513,513,513,513,513,513,513,513,513,513,513,513,507,477,403,268,133,3,3,3,3,3,3,3,3,3,3,3,3,3,3,3,27,56,76,85,88,89,89,89,89],"timestamp_mouse":[10,37,51,70,92,112,132,151,171,192,211,232,251,271,292,312,331,352,372,392,411,431,452,472,491,511,531,552,572,592,611,632,651,671,691,711,732,751,771,792,811,832,851,871,891,912,931,951,972,991,1010,1032,1051,1072,1091,1112,1131,1151,1171,1192,1211,1231,1253,1271,1291,1311,1331,1350,1370,1391,1411],"xSR":741.5,"ySR":501.8,"xT1":424.9,"yT1":0,"xT2":1058.1,"yT2":0,"toosoon":0,"cond_shown":"Incongruent","ratio_trial":100,"L_num":6,"L_den":12,"R_num":3,"R_den":5,"correct_side":2,"subjID":"samuelcruz","gender":"0","school":"4","age":"9"},{"start_time":1552313039268,"click_time":1552313040076,"finger_time":1552313039916,"fix_duration":250,"trial":29,"RT":648,"MT":160,"sideResp":2,"stimulus":[],"xmouse":[777,776,776,776,776,776,776,776,776,776,776,776,776,776,776,776,776,776,776,776,776,776,776,776,776,776,776,775,775,775,774,774,784,794,802,810,819,832,961,1042,1101],"ymouse":[537,537,537,527,527,527,527,527,527,527,527,527,527,527,527,527,527,527,527,527,527,527,527,527,527,527,527,527,527,527,526,524,501,479,454,431,412,386,189,103,48],"timestamp_mouse":[12,36,48,67,88,109,129,149,169,189,208,228,249,269,288,308,329,349,368,389,408,428,448,469,489,508,528,549,569,588,608,628,648,667,688,708,727,748,768,788,808],"xSR":741.5,"ySR":501.8,"xT1":424.9,"yT1":0,"xT2":1058.1,"yT2":0,"toosoon":0,"cond_shown":"Incongruent","ratio_trial":200,"L_num":14,"L_den":30,"R_num":6,"R_den":9,"correct_side":2,"subjID":"samuelcruz","gender":"0","school":"4","age":"9"},{"start_time":1552313043888,"click_time":1552313044922,"finger_time":1552313044861,"fix_duration":250,"trial":30,"RT":973,"MT":61,"sideResp":2,"stimulus":[],"xmouse":[747,747,747,747,747,747,750,755,763,770,777,787,788,788,788,788,788,789,789,789,789,789,789,789,789,789,789,789,789,789,789,789,789,789,789,789,789,789,789,789,789,789,789,789,789,789,789,795,873,977,1098,1156],"ymouse":[572,572,572,572,572,572,572,572,572,572,571,569,569,569,569,569,569,569,569,569,569,569,569,569,569,569,569,569,569,569,569,569,569,569,569,569,569,569,569,569,569,569,569,569,569,569,569,562,441,295,106,7],"timestamp_mouse":[10,46,48,68,89,109,128,149,169,188,208,228,249,269,288,307,328,354,372,394,413,433,453,474,493,514,534,554,574,593,614,633,653,673,693,713,733,753,773,793,814,833,854,873,894,914,933,953,973,994,1013,1033],"xSR":741.5,"ySR":501.8,"xT1":424.9,"yT1":0,"xT2":1058.1,"yT2":0,"toosoon":0,"cond_shown":"Incongruent","ratio_trial":100,"L_num":17,"L_den":30,"R_num":10,"R_den":15,"correct_side":2,"subjID":"samuelcruz","gender":"0","school":"4","age":"9"},{"start_time":1552313062594,"click_time":1552313063942,"finger_time":1552313063461,"fix_duration":1411.6423444002023,"trial":31,"RT":867,"MT":481,"sideResp":2,"stimulus":[],"xmouse":[789,789,789,789,789,789,789,789,789,789,789,789,789,789,789,789,789,789,789,789,789,789,789,789,789,789,789,789,789,789,789,789,789,789,789,789,789,789,789,789,789,791,809,834,877,918,964,972,982,991,1000,1012,1018,1023,1026,1030,1033,1034,1034,1034,1034,1034,1038,1040,1045,1048,1055,1067],"ymouse":[545,545,545,545,545,545,545,545,545,545,545,545,545,545,545,545,545,545,545,545,545,545,545,545,545,545,545,545,545,545,545,545,545,545,545,545,545,545,545,545,545,544,517,470,395,321,247,234,215,194,172,144,130,120,109,102,93,90,89,89,89,89,80,73,62,52,36,5],"timestamp_mouse":[13,41,47,68,88,106,128,146,168,188,207,228,246,268,286,307,327,348,367,386,407,427,447,468,487,507,527,548,568,587,607,627,646,668,688,707,727,748,766,787,807,827,847,867,888,907,928,946,967,987,1007,1029,1047,1067,1086,1108,1127,1147,1167,1187,1207,1228,1248,1267,1288,1307,1327,1348],"xSR":741.5,"ySR":501.8,"xT1":424.9,"yT1":0,"xT2":1058.1,"yT2":0,"toosoon":0,"cond_shown":"Congruent","ratio_trial":100,"L_num":10,"L_den":25,"R_num":3,"R_den":10,"correct_side":1,"subjID":"samuelcruz","gender":"0","school":"4","age":"9"},{"start_time":1552313067533,"click_time":1552313068802,"finger_time":1552313068121,"fix_duration":1310.3563384597862,"trial":32,"RT":588,"MT":681,"sideResp":1,"stimulus":[],"xmouse":[779,779,779,779,779,779,779,779,779,779,779,779,779,779,779,779,779,779,779,779,779,780,780,780,780,777,775,772,771,767,747,683,575,451,248,217,228,246,263,263,263,263,263,263,263,263,263,263,263,263,263,339,363,406,423,424,424,424,424,424,424,424,424,425],"ymouse":[564,560,560,558,556,555,555,555,555,555,555,555,555,555,555,555,555,555,555,555,555,555,551,545,527,514,507,503,502,499,491,455,389,298,120,71,36,19,2,2,2,2,2,2,2,2,2,2,2,2,2,20,42,80,94,95,95,95,95,95,95,95,95,95],"timestamp_mouse":[17,29,48,69,88,108,128,149,169,187,209,229,249,268,288,309,329,348,368,387,407,428,448,469,488,509,528,548,568,588,608,628,648,668,690,708,728,749,769,789,807,828,847,869,888,908,928,949,969,989,1008,1028,1048,1067,1088,1109,1128,1149,1168,1188,1209,1228,1248,1269],"xSR":741.5,"ySR":501.8,"xT1":424.9,"yT1":0,"xT2":1058.1,"yT2":0,"toosoon":0,"cond_shown":"Congruent","ratio_trial":300,"L_num":1,"L_den":3,"R_num":19,"R_den":30,"correct_side":2,"subjID":"samuelcruz","gender":"0","school":"4","age":"9"},{"start_time":1552313071966,"click_time":1552313072842,"finger_time":1552313072321,"fix_duration":722.4644949487796,"trial":33,"RT":355,"MT":521,"sideResp":2,"stimulus":[],"xmouse":[788,789,790,790,791,791,791,792,792,792,792,792,791,785,782,776,767,761,754,752,749,747,747,748,748,748,748,748,748,748,750,753,758,770,796,840,908,1004,1038,1059,1069,1076,1079,1107],"ymouse":[559,558,556,553,550,548,547,544,544,542,542,541,539,532,528,520,510,500,488,481,468,450,393,349,336,335,333,333,333,333,333,333,333,333,333,333,322,294,247,220,209,193,173,89],"timestamp_mouse":[15,36,56,74,95,116,135,155,175,196,215,235,255,275,295,315,335,355,375,395,416,435,455,474,495,516,534,556,575,596,616,635,656,675,696,715,735,756,774,794,815,835,856,876],"xSR":741.5,"ySR":501.8,"xT1":424.9,"yT1":0,"xT2":1058.1,"yT2":0,"toosoon":0,"cond_shown":"Incongruent","ratio_trial":200,"L_num":14,"L_den":30,"R_num":12,"R_den":18,"correct_side":2,"subjID":"samuelcruz","gender":"0","school":"4","age":"9"},{"start_time":1552313073972,"click_time":1552313075561,"finger_time":1552313074582,"fix_duration":250,"trial":34,"RT":610,"MT":979,"sideResp":1,"stimulus":[],"xmouse":[797,789,789,786,786,786,786,786,786,786,786,786,786,786,786,786,786,786,787,788,789,789,790,790,790,791,791,791,791,791,792,792,792,792,792,792,792,792,792,792,792,792,792,758,613,459,369,369,369,369,369,369,369,369,369,369,369,369,369,369,369,369,369,369,369,369,369,369,369,369,369,369,369,369,369,369,369,369,411,425],"ymouse":[537,543,543,546,546,546,546,546,546,546,546,546,546,546,546,546,546,546,546,541,537,523,512,503,503,502,502,502,502,502,501,501,501,501,501,501,501,501,501,501,501,501,501,481,343,176,57,57,57,57,57,57,57,57,57,57,57,57,57,57,57,57,57,57,57,57,57,57,57,57,57,57,57,57,57,57,57,57,8,31],"timestamp_mouse":[16,47,49,68,90,110,128,149,169,190,210,230,249,269,290,309,330,349,369,389,410,430,449,475,489,510,530,549,569,590,610,630,650,668,688,708,729,749,770,789,809,829,849,869,889,910,930,949,970,990,1009,1030,1049,1070,1089,1110,1129,1150,1169,1190,1209,1229,1249,1270,1289,1309,1329,1350,1369,1390,1409,1429,1450,1469,1490,1509,1529,1550,1569,1588],"xSR":741.5,"ySR":501.8,"xT1":424.9,"yT1":0,"xT2":1058.1,"yT2":0,"toosoon":0,"cond_shown":"Incongruent","ratio_trial":200,"L_num":7,"L_den":10,"R_num":12,"R_den":24,"correct_side":1,"subjID":"samuelcruz","gender":"0","school":"4","age":"9"},{"start_time":1552313083838,"click_time":1552313084922,"finger_time":1552313084341,"fix_duration":1455.8397658928527,"trial":35,"RT":503,"MT":581,"sideResp":2,"stimulus":[],"xmouse":[803,803,803,803,803,803,803,803,803,803,803,803,803,803,803,803,803,803,803,803,803,797,785,770,755,729,718,716,721,771,821,857,879,879,879,879,879,879,879,879,879,879,879,879,1039,1039,1039,1041,1041,1043,1043,1046,1051,1057,1063],"ymouse":[561,561,561,561,561,561,561,561,561,561,561,561,561,561,561,561,561,561,561,561,561,561,550,535,518,471,436,396,350,239,151,83,33,33,33,33,33,33,33,33,33,33,33,33,17,36,52,62,65,68,68,68,65,60,56],"timestamp_mouse":[13,36,42,64,83,104,123,144,164,184,204,224,242,263,283,304,324,342,364,383,402,423,443,463,483,503,523,544,563,584,603,623,644,664,684,704,723,744,763,783,802,822,843,863,883,902,923,943,964,984,1003,1023,1043,1063,1084],"xSR":741.5,"ySR":501.8,"xT1":424.9,"yT1":0,"xT2":1058.1,"yT2":0,"toosoon":0,"cond_shown":"Incongruent","ratio_trial":300,"L_num":4,"L_den":20,"R_num":2,"R_den":4,"correct_side":2,"subjID":"samuelcruz","gender":"0","school":"4","age":"9"},{"start_time":1552313090953,"click_time":1552313091922,"finger_time":1552313091501,"fix_duration":1230.2848266461071,"trial":36,"RT":548,"MT":421,"sideResp":2,"stimulus":[],"xmouse":[781,781,781,781,781,781,781,781,781,781,782,782,782,782,782,782,782,782,782,782,782,782,782,785,789,800,812,827,840,870,877,880,880,882,882,882,882,882,882,882,882,836,831,851,883,896,923,981,1066],"ymouse":[570,570,570,570,570,570,570,570,569,565,564,563,563,563,563,563,563,563,563,563,563,563,563,560,554,531,505,460,411,311,272,213,143,17,17,17,17,17,17,17,17,26,52,171,200,199,175,117,17],"timestamp_mouse":[20,45,48,68,89,108,129,148,168,188,208,228,248,268,289,309,328,347,368,388,408,428,448,468,488,508,529,548,568,588,608,628,649,668,688,708,727,748,769,788,808,829,848,869,888,908,929,949,968],"xSR":741.5,"ySR":501.8,"xT1":424.9,"yT1":0,"xT2":1058.1,"yT2":0,"toosoon":0,"cond_shown":"Incongruent","ratio_trial":300,"L_num":1,"L_den":2,"R_num":2,"R_den":10,"correct_side":1,"subjID":"samuelcruz","gender":"0","school":"4","age":"9"},{"start_time":1552313095454,"click_time":1552313096121,"finger_time":1552313095842,"fix_duration":430.9940218182232,"trial":37,"RT":388,"MT":279,"sideResp":2,"stimulus":[],"xmouse":[767,767,767,767,767,767,767,767,767,767,767,767,767,767,767,767,770,779,796,803,806,807,809,809,809,809,809,809,820,837,892,953,1024,1088],"ymouse":[574,574,574,574,574,574,574,574,574,574,574,574,574,574,574,573,569,553,512,493,472,466,462,458,458,458,458,458,439,417,321,224,111,2],"timestamp_mouse":[13,36,46,67,88,107,128,147,167,187,208,228,246,268,286,308,327,346,367,388,407,427,447,468,487,507,528,547,568,586,607,628,647,667],"xSR":741.5,"ySR":501.8,"xT1":424.9,"yT1":0,"xT2":1058.1,"yT2":0,"toosoon":0,"cond_shown":"Congruent","ratio_trial":200,"L_num":6,"L_den":20,"R_num":11,"R_den":22,"correct_side":2,"subjID":"samuelcruz","gender":"0","school":"4","age":"9"},{"start_time":1552313105678,"click_time":1552313106625,"finger_time":1552313106324,"fix_duration":751.5727153777796,"trial":38,"RT":646,"MT":301,"sideResp":1,"stimulus":[],"xmouse":[800,800,800,800,800,800,800,800,800,800,800,800,800,800,800,800,800,800,800,799,799,799,799,799,799,799,799,799,799,798,796,786,754,722,682,651,639,635,635,635,635,635,629,617,598,570,539,502],"ymouse":[559,559,559,559,559,559,559,559,559,559,559,559,559,559,559,559,559,559,560,560,560,560,557,556,555,553,553,553,552,551,545,525,464,409,351,310,291,283,283,283,283,283,267,240,197,147,98,30],"timestamp_mouse":[12,37,46,67,86,107,126,146,167,185,205,225,246,266,287,307,325,346,366,386,406,426,446,466,486,507,527,546,567,586,606,626,646,666,685,707,726,746,765,786,806,826,847,865,886,907,927,946],"xSR":741.5,"ySR":501.8,"xT1":424.9,"yT1":0,"xT2":1058.1,"yT2":0,"toosoon":0,"cond_shown":"Congruent","ratio_trial":100,"L_num":1,"L_den":2,"R_num":3,"R_den":5,"correct_side":2,"subjID":"samuelcruz","gender":"0","school":"4","age":"9"},{"start_time":1552313111098,"click_time":1552313112364,"finger_time":1552313112024,"fix_duration":733.1122614149756,"trial":39,"RT":926,"MT":340,"sideResp":1,"stimulus":[],"xmouse":[784,784,784,784,784,784,784,784,784,784,783,783,783,783,783,783,783,783,783,783,783,783,783,783,783,783,783,783,783,783,783,783,783,783,783,783,783,783,783,783,783,783,783,783,778,767,611,408,289,202,175,175,175,175,175,175,175,175,175,175,175,175,175,513],"ymouse":[557,557,557,557,557,557,557,557,557,557,557,557,557,557,557,557,557,557,557,557,557,557,557,557,557,557,557,557,557,557,557,557,557,557,557,557,557,557,557,557,557,557,557,557,557,555,486,341,209,75,22,22,22,22,22,22,22,22,22,22,22,22,22,33],"timestamp_mouse":[5,32,46,65,86,106,126,147,167,186,206,226,247,266,287,307,326,345,367,387,406,425,447,466,487,505,526,547,567,585,606,626,645,667,687,706,726,747,767,787,807,826,846,867,886,905,926,946,967,986,1006,1026,1046,1067,1086,1106,1127,1146,1166,1187,1206,1227,1246,1265],"xSR":741.5,"ySR":501.8,"xT1":424.9,"yT1":0,"xT2":1058.1,"yT2":0,"toosoon":0,"cond_shown":"Incongruent","ratio_trial":100,"L_num":4,"L_den":8,"R_num":8,"R_den":20,"correct_side":1,"subjID":"samuelcruz","gender":"0","school":"4","age":"9"},{"start_time":1552313117644,"click_time":1552313119245,"finger_time":1552313118064,"fix_duration":1018.3503224188917,"trial":40,"RT":420,"MT":1181,"sideResp":1,"stimulus":[],"xmouse":[763,763,763,763,763,763,763,763,763,763,763,763,763,764,761,761,761,761,761,764,782,790,795,802,812,814,814,814,814,814,814,814,814,814,814,814,814,814,814,814,810,798,778,729,591,552,552,552,552,552,552,552,552,552,552,552,552,552,381,377,378,381,383,384,387,394,395,395,395,399,403,403,404,404,404,404,405,405,406,410,425],"ymouse":[574,574,574,574,574,574,574,574,574,574,574,574,574,577,584,585,585,585,583,577,529,495,459,434,405,398,393,388,382,376,376,376,376,376,376,376,376,376,376,373,367,348,320,254,63,16,16,16,16,16,16,16,16,16,16,16,16,16,2,25,48,56,57,57,57,57,57,57,57,57,56,55,55,55,55,55,55,55,55,55,63],"timestamp_mouse":[9,37,40,61,80,100,121,140,160,180,201,221,240,260,280,299,321,341,361,380,400,420,441,461,480,500,520,540,560,581,599,620,641,660,681,699,721,740,760,782,799,820,841,861,880,899,920,940,961,980,1001,1019,1039,1060,1080,1101,1120,1140,1159,1180,1200,1220,1241,1261,1280,1300,1320,1341,1361,1382,1399,1420,1440,1461,1480,1500,1520,1540,1560,1580,1601],"xSR":741.5,"ySR":501.8,"xT1":424.9,"yT1":0,"xT2":1058.1,"yT2":0,"toosoon":0,"cond_shown":"Congruent","ratio_trial":200,"L_num":3,"L_den":6,"R_num":14,"R_den":20,"correct_side":2,"subjID":"samuelcruz","gender":"0","school":"4","age":"9"},{"start_time":1552313120819,"click_time":1552313122064,"finger_time":1552313121365,"fix_duration":494.8370787075731,"trial":41,"RT":546,"MT":699,"sideResp":2,"stimulus":[],"xmouse":[764,764,764,764,764,764,764,764,764,764,764,764,764,764,764,764,764,764,764,764,764,764,764,764,764,765,767,770,773,780,795,805,808,812,814,817,832,840,849,858,877,898,914,936,959,988,993,995,998,999,1004,1015,1022,1025,1028,1031,1032,1035,1039,1043,1053,1057,1059],"ymouse":[531,531,531,531,531,531,531,531,531,531,531,531,531,531,531,531,531,531,531,531,531,531,531,531,531,521,508,495,480,463,438,426,423,420,419,417,410,406,401,396,386,374,362,343,319,260,241,226,213,202,186,149,128,115,109,102,99,95,90,84,72,69,67],"timestamp_mouse":[14,35,45,64,86,105,126,145,165,186,205,226,246,265,286,305,325,344,366,386,405,426,444,466,486,505,525,546,566,585,606,625,646,665,685,704,725,745,765,786,806,825,845,865,885,906,925,945,965,985,1004,1025,1045,1066,1085,1105,1125,1145,1166,1185,1206,1225,1244],"xSR":741.5,"ySR":501.8,"xT1":424.9,"yT1":0,"xT2":1058.1,"yT2":0,"toosoon":0,"cond_shown":"Congruent","ratio_trial":300,"L_num":11,"L_den":22,"R_num":2,"R_den":10,"correct_side":1,"subjID":"samuelcruz","gender":"0","school":"4","age":"9"},{"start_time":1552313123941,"click_time":1552313125364,"finger_time":1552313124384,"fix_duration":794.8437617831489,"trial":42,"RT":443,"MT":980,"sideResp":2,"stimulus":[],"xmouse":[787,792,792,799,802,802,802,802,802,802,802,802,802,802,802,800,797,793,792,792,792,796,812,836,894,916,952,963,969,978,980,981,982,984,984,985,985,985,986,998,1008,1028,1068,1126,1204,1207,1214,1220,1234,1266,1273,1280,1281,1281,1281,1273,1257,1249,1236,1194,1174,1167,1167,1167,1167,1167,1167,1167,1167,1164,1160,1157],"ymouse":[536,536,536,536,536,536,536,536,536,536,536,536,536,536,537,540,541,543,543,543,543,531,498,454,348,313,262,250,243,229,226,223,217,207,197,194,194,194,191,184,180,169,154,134,108,106,102,97,85,52,39,27,22,22,22,22,22,23,28,46,55,58,58,58,58,58,58,58,58,58,58,58],"timestamp_mouse":[13,35,43,64,83,103,122,143,164,183,203,224,244,264,283,304,323,343,364,382,403,424,443,464,483,503,523,542,562,583,603,623,644,664,684,703,723,743,763,783,802,823,843,864,884,902,924,943,963,983,1004,1024,1043,1064,1084,1103,1124,1143,1163,1184,1203,1222,1243,1263,1283,1303,1324,1344,1363,1383,1402,1423],"xSR":741.5,"ySR":501.8,"xT1":424.9,"yT1":0,"xT2":1058.1,"yT2":0,"toosoon":0,"cond_shown":"Incongruent","ratio_trial":200,"L_num":4,"L_den":6,"R_num":14,"R_den":30,"correct_side":1,"subjID":"samuelcruz","gender":"0","school":"4","age":"9"},{"start_time":1552313128660,"click_time":1552313129685,"finger_time":1552313129104,"fix_duration":1214.502831389659,"trial":43,"RT":444,"MT":581,"sideResp":1,"stimulus":[],"xmouse":[769,769,769,769,769,769,769,769,769,774,781,795,807,814,815,815,815,815,815,815,814,805,793,770,761,753,743,715,688,657,649,642,635,605,575,556,556,556,556,556,556,556,556,556,556,556,556,556,556,556,556,438],"ymouse":[566,566,566,566,566,566,566,566,566,562,555,549,543,539,538,538,538,538,537,535,529,513,496,459,442,426,400,350,302,247,213,188,154,84,41,18,18,18,18,18,18,18,18,18,18,18,18,18,18,18,18,1],"timestamp_mouse":[9,25,45,65,85,105,125,143,164,184,204,225,245,264,284,304,325,345,363,384,404,425,444,464,483,504,525,544,564,585,604,625,644,664,684,704,725,744,764,784,804,824,844,864,884,905,925,944,965,984,1003,1025],"xSR":741.5,"ySR":501.8,"xT1":424.9,"yT1":0,"xT2":1058.1,"yT2":0,"toosoon":0,"cond_shown":"Incongruent","ratio_trial":300,"L_num":8,"L_den":10,"R_num":9,"R_den":18,"correct_side":1,"subjID":"samuelcruz","gender":"0","school":"4","age":"9"},{"start_time":1552313134294,"click_time":1552313135405,"finger_time":1552313134664,"fix_duration":1168.4248882414843,"trial":44,"RT":370,"MT":741,"sideResp":2,"stimulus":[],"xmouse":[800,800,800,800,800,800,800,800,800,800,800,799,798,798,798,798,798,798,804,804,804,804,804,804,804,804,804,804,804,806,810,854,891,955,1022,1068,1147,1172,1200,1209,1215,1220,1222,1222,1222,1215,1215,1215,1215,1215,1215,1215,1215,1215,1215,1090],"ymouse":[546,546,546,546,546,546,546,546,546,546,546,546,546,545,545,545,539,519,481,463,454,452,452,452,452,452,452,452,452,450,447,424,405,379,354,326,249,215,176,160,143,125,94,74,52,19,19,19,19,19,19,19,19,19,19,3],"timestamp_mouse":[11,39,50,69,91,110,130,150,170,190,211,230,251,270,290,310,330,351,370,391,411,431,449,470,491,510,530,551,571,590,610,630,650,670,690,710,731,749,770,790,810,830,850,869,889,910,931,950,970,990,1010,1030,1050,1070,1090,1111],"xSR":741.5,"ySR":501.8,"xT1":424.9,"yT1":0,"xT2":1058.1,"yT2":0,"toosoon":0,"cond_shown":"Congruent","ratio_trial":100,"L_num":12,"L_den":30,"R_num":13,"R_den":26,"correct_side":2,"subjID":"samuelcruz","gender":"0","school":"4","age":"9"},{"start_time":1552313137292,"click_time":1552313138044,"finger_time":1552313137804,"fix_duration":466.473175638814,"trial":45,"RT":512,"MT":240,"sideResp":1,"stimulus":[],"xmouse":[769,769,769,769,769,769,769,769,769,769,769,769,769,769,768,768,767,765,764,764,763,763,762,758,756,753,746,743,738,733,733,731,729,715,687,632,570,504],"ymouse":[583,583,583,583,583,583,583,583,583,583,583,583,583,580,580,579,578,575,571,568,563,558,534,521,502,484,440,418,383,364,353,346,338,312,259,183,103,2],"timestamp_mouse":[14,33,52,73,93,112,132,152,173,193,212,232,252,273,292,313,332,353,372,392,412,432,452,473,493,512,533,551,572,591,613,632,652,672,692,712,732,752],"xSR":741.5,"ySR":501.8,"xT1":424.9,"yT1":0,"xT2":1058.1,"yT2":0,"toosoon":0,"cond_shown":"Incongruent","ratio_trial":200,"L_num":14,"L_den":30,"R_num":6,"R_den":9,"correct_side":2,"subjID":"samuelcruz","gender":"0","school":"4","age":"9"},{"start_time":1552313160676,"click_time":1552313161585,"finger_time":1552313161124,"fix_duration":250,"trial":46,"RT":448,"MT":461,"sideResp":1,"stimulus":[],"xmouse":[792,792,792,792,792,792,792,792,792,792,792,792,792,792,791,790,789,787,781,780,776,773,772,772,772,772,771,771,758,723,651,551,337,257,226,221,221,221,221,226,256,319,459,489,496,496],"ymouse":[549,549,549,549,549,549,549,549,549,549,549,549,549,549,549,549,549,547,530,523,512,505,500,500,500,500,499,499,486,464,435,391,308,276,259,256,256,256,256,255,246,224,155,128,110,94],"timestamp_mouse":[13,28,48,68,88,109,129,148,169,189,209,229,248,268,288,308,329,348,369,388,408,428,448,468,488,508,529,549,569,588,608,628,649,668,688,708,728,749,767,788,808,828,848,868,889,909],"xSR":741.5,"ySR":501.8,"xT1":424.9,"yT1":0,"xT2":1058.1,"yT2":0,"toosoon":0,"cond_shown":"Incongruent","ratio_trial":100,"L_num":2,"L_den":4,"R_num":6,"R_den":15,"correct_side":1,"subjID":"samuelcruz","gender":"0","school":"4","age":"9"},{"start_time":1552313173989,"click_time":1552313181129,"finger_time":1552313175348,"fix_duration":1198.1190860947393,"trial":47,"RT":1359,"MT":5781,"sideResp":2,"stimulus":[],"xmouse":[790,790,790,790,790,790,790,790,790,790,790,790,790,790,790,790,790,790,790,790,790,790,790,790,790,790,790,790,790,790,790,790,790,790,790,790,790,790,790,790,790,790,790,790,790,790,790,790,790,790,790,790,790,790,790,790,790,790,790,790,790,790,790,790,790,790,790,789,785,781,778,778,777,777,777,777,777,777,777,780,787,793,812,827,836,838,839,831,814,798,785,781,779,778,778,778,778,778,778,778,778,779,780,781,781,781,781,781,782,784,785,786,787,788,788,788,789,789,789,789,789,789,787,783,781,775,765,745,742,742,742,742,742,745,754,760,767,774,775,776,778,781,783,783,783,783,783,783,783,783,783,783,783,783,783,783,780,778,774,772,769,767,766,765,764,763,763,763,763,763,763,763,763,763,768,778,791,799,802,804,805,805,805,806,806,806,806,806,806,803,802,802,802,802,802,802,802,802,802,802,802,802,802,802,802,802,802,802,802,802,802,802,802,802,802,802,802,802,802,802,802,802,802,797,793,791,789,781,781,781,781,781,781,781,781,781,781,781,781,781,781,781,781,781,781,781,781,781,781,781,781,781,781,781,781,781,781,781,781,781,781,781,781,780,784,788,790,792,792,792,792,792,792,793,793,796,801,807,832,852,880,916,1049,1049,1049,1049,1049,1049,1049,1049,1049,1049,1049,1049,1049,1049,1049,1049,1049,1049,1049,1049,1049,1049,1049,1049,1049,1049,1049,1049,1049,1049,1049,1049,1049,1049,1049,1049,1049,1049,1049,1049,1049,1049,1049,1049,1049,1049,1409,1409,1409,1407,1406,1406,1406,1408,1408,1395,1395,1395,1395,1395,1395,1395,1395,1395,1395,1395,1231,1227,1224,1222,1217,1210,1197,1183,1171,1150],"ymouse":[581,581,581,581,581,581,581,581,581,581,581,581,581,581,581,581,581,581,581,581,581,581,581,581,581,581,581,581,581,581,581,581,581,581,581,581,581,581,581,581,581,581,581,581,581,581,581,581,581,581,581,581,581,581,581,581,581,581,581,581,581,581,581,581,581,581,581,592,604,617,628,637,648,648,648,648,648,649,649,649,649,649,647,640,633,629,623,615,607,601,599,599,598,598,598,598,598,598,598,598,598,598,598,598,598,598,598,598,598,596,594,591,585,581,579,576,574,570,568,566,565,564,562,558,555,553,550,547,546,546,546,546,546,546,546,546,546,546,546,546,546,546,547,547,547,547,547,547,547,547,547,547,547,547,547,547,546,545,544,543,543,543,543,543,543,543,543,544,544,545,546,547,550,550,551,554,556,557,557,557,557,557,557,556,555,555,555,554,553,553,553,552,552,552,552,552,552,552,552,552,552,552,552,552,552,552,552,552,552,552,552,552,552,552,552,552,552,552,552,552,552,552,552,551,551,551,551,550,550,550,550,550,550,550,550,550,550,550,550,550,550,550,550,550,550,550,550,550,550,550,550,550,550,550,550,550,550,550,550,550,550,550,550,541,519,505,498,491,488,487,486,486,486,484,483,478,468,453,393,347,280,211,27,27,27,27,27,27,27,27,27,27,27,27,27,27,27,27,27,27,27,27,27,27,27,27,27,27,27,27,27,27,27,27,27,27,27,27,27,27,27,27,27,27,27,27,27,27,4,9,20,32,46,46,47,41,29,5,5,5,5,5,5,5,5,5,5,5,0,8,13,17,20,20,20,20,21,26],"timestamp_mouse":[1,20,39,59,79,99,119,138,158,178,198,218,238,259,279,299,319,338,359,378,398,419,438,459,478,500,519,538,559,580,600,619,638,658,680,699,719,738,759,780,799,819,838,859,879,899,918,938,958,979,1000,1020,1038,1058,1079,1098,1119,1138,1158,1179,1198,1218,1238,1259,1280,1299,1319,1338,1359,1378,1399,1418,1440,1458,1479,1499,1518,1539,1559,1578,1599,1618,1638,1658,1679,1699,1719,1739,1759,1778,1799,1819,1839,1858,1879,1899,1919,1938,1960,1978,1998,2018,2039,2059,2079,2098,2119,2138,2158,2179,2200,2219,2238,2258,2278,2299,2319,2339,2359,2378,2399,2419,2439,2458,2478,2499,2519,2539,2559,2578,2599,2618,2638,2659,2678,2699,2719,2738,2759,2779,2798,2818,2839,2859,2880,2898,2919,2938,2960,2978,2998,3018,3038,3059,3079,3098,3119,3138,3159,3179,3199,3219,3238,3259,3278,3298,3318,3339,3358,3378,3398,3419,3439,3458,3478,3499,3518,3538,3558,3578,3599,3619,3638,3658,3680,3699,3718,3739,3758,3779,3799,3820,3838,3860,3878,3899,3918,3938,3959,3980,3998,4019,4038,4059,4078,4099,4118,4139,4160,4180,4198,4219,4238,4260,4280,4299,4318,4338,4358,4379,4399,4419,4438,4459,4479,4499,4519,4538,4560,4580,4599,4619,4639,4660,4680,4699,4719,4738,4759,4779,4800,4818,4838,4858,4878,4899,4918,4938,4959,4978,4998,5018,5038,5060,5080,5099,5119,5138,5160,5179,5198,5219,5238,5259,5278,5299,5319,5338,5358,5379,5399,5420,5439,5459,5478,5499,5519,5538,5558,5579,5598,5619,5639,5658,5678,5698,5718,5739,5759,5779,5800,5820,5839,5859,5878,5899,5920,5939,5959,5979,5999,6019,6039,6059,6079,6098,6120,6139,6159,6179,6199,6218,6238,6258,6279,6299,6318,6338,6359,6379,6400,6418,6439,6459,6480,6499,6518,6538,6558,6579,6598,6618,6639,6659,6679,6698,6720,6739,6758,6779,6799,6819,6839,6859,6879,6899,6919,6939,6958,6979,6998,7019,7039,7058,7078,7098,7118,7139],"xSR":741.5,"ySR":501.8,"xT1":424.9,"yT1":0,"xT2":1058.1,"yT2":0,"toosoon":0,"cond_shown":"Incongruent","ratio_trial":100,"L_num":3,"L_den":5,"R_num":11,"R_den":22,"correct_side":1,"subjID":"samuelcruz","gender":"0","school":"4","age":"9"},{"start_time":1552313183309,"click_time":1552313185088,"finger_time":1552313183707,"fix_duration":760.3360271897823,"trial":48,"RT":398,"MT":1381,"sideResp":1,"stimulus":[],"xmouse":[818,809,795,788,785,784,784,784,784,784,784,784,784,784,784,784,784,784,783,759,668,628,610,599,597,586,577,565,550,541,535,535,535,535,535,535,535,535,535,535,536,536,536,536,536,536,536,536,536,536,531,529,527,527,527,527,527,527,527,527,527,527,527,527,527,527,527,527,527,527,527,527,527,527,527,527,527,527,527,527,527,527,527,527,527,527,527,527,521],"ymouse":[580,583,583,583,583,583,583,583,583,583,583,583,583,583,583,583,577,559,534,492,389,356,339,327,320,273,242,199,154,119,86,86,86,86,86,86,86,85,79,76,69,67,67,67,67,67,67,66,66,63,51,47,45,45,45,45,45,45,45,45,45,45,45,45,45,45,45,45,45,45,45,45,45,45,45,45,45,45,45,45,45,45,45,45,45,45,45,45,45],"timestamp_mouse":[18,40,58,78,99,119,138,160,178,198,218,239,260,278,299,318,338,358,379,398,419,439,459,479,499,520,538,559,580,599,619,638,660,678,699,719,738,758,779,799,819,838,859,879,899,920,938,959,978,998,1019,1038,1058,1079,1098,1119,1139,1159,1179,1199,1219,1239,1259,1279,1299,1319,1338,1359,1379,1399,1418,1439,1459,1479,1499,1519,1539,1559,1579,1599,1619,1639,1659,1679,1699,1719,1739,1759,1779],"xSR":741.5,"ySR":501.8,"xT1":424.9,"yT1":0,"xT2":1058.1,"yT2":0,"toosoon":0,"cond_shown":"Congruent","ratio_trial":300,"L_num":20,"L_den":25,"R_num":13,"R_den":26,"correct_side":1,"subjID":"samuelcruz","gender":"0","school":"4","age":"9"},{"start_time":1552313194040,"click_time":1552313195108,"finger_time":1552313194447,"fix_duration":250,"trial":49,"RT":407,"MT":661,"sideResp":1,"stimulus":[],"xmouse":[782,782,782,781,780,780,780,780,780,780,780,780,780,780,780,780,780,780,780,780,782,781,781,781,780,778,766,738,716,686,682,680,680,680,680,680,680,680,680,680,683,683,675,661,655,655,655,653,650,626,592,568,541,518],"ymouse":[536,536,536,537,538,538,538,538,538,538,538,538,538,538,538,538,538,538,538,522,494,466,465,465,463,450,425,389,369,349,346,345,345,345,345,345,345,345,345,343,310,264,214,184,167,167,167,164,160,144,121,101,78,59],"timestamp_mouse":[14,36,47,67,88,108,127,148,169,188,208,227,248,268,288,308,327,348,368,388,407,428,448,468,487,507,528,547,567,589,608,627,648,668,687,707,728,749,767,787,807,828,847,868,887,907,927,948,969,989,1008,1028,1048,1068],"xSR":741.5,"ySR":501.8,"xT1":424.9,"yT1":0,"xT2":1058.1,"yT2":0,"toosoon":0,"cond_shown":"Incongruent","ratio_trial":100,"L_num":12,"L_den":24,"R_num":9,"R_den":15,"correct_side":2,"subjID":"samuelcruz","gender":"0","school":"4","age":"9"},{"start_time":1552313201435,"click_time":1552313202267,"finger_time":1552313201809,"fix_duration":784.8782891991337,"trial":50,"RT":374,"MT":458,"sideResp":2,"stimulus":[],"xmouse":[788,788,788,788,788,788,788,788,788,788,788,788,788,788,788,794,805,817,833,886,903,909,915,924,932,943,947,949,952,973,984,987,989,993,1026,1057,1094,1112,1115,1116,1116,1113],"ymouse":[553,553,553,553,553,553,553,553,553,553,553,553,553,553,553,547,532,507,453,281,179,132,109,95,86,78,75,74,74,74,74,74,74,76,95,108,124,128,128,120,106,97],"timestamp_mouse":[23,40,52,73,93,112,133,153,173,193,212,233,252,273,292,312,333,353,374,394,412,432,453,473,493,512,533,552,573,593,612,632,653,672,693,712,732,752,773,792,812,832],"xSR":741.5,"ySR":501.8,"xT1":424.9,"yT1":0,"xT2":1058.1,"yT2":0,"toosoon":0,"cond_shown":"Incongruent","ratio_trial":100,"L_num":10,"L_den":25,"R_num":8,"R_den":16,"correct_side":2,"subjID":"samuelcruz","gender":"0","school":"4","age":"9"},{"start_time":1552313224059,"click_time":1552313225147,"finger_time":1552313224608,"fix_duration":370.5983849912824,"trial":51,"RT":549,"MT":539,"sideResp":2,"stimulus":[],"xmouse":[804,804,804,804,804,802,801,800,799,796,791,788,786,786,786,786,786,786,786,786,786,786,786,788,812,819,828,842,886,937,992,1013,1023,1025,1026,1031,1036,1038,1038,1038,1038,1038,1038,1038,1038,1038,1038,1038,1038,1038,1038,1038,1038,1038,1144],"ymouse":[567,567,567,567,567,571,574,575,575,575,575,575,575,575,575,575,575,575,575,575,575,575,575,577,584,584,575,551,456,363,243,192,163,138,83,55,24,9,9,9,9,9,9,9,9,9,9,9,9,9,9,9,9,9,6],"timestamp_mouse":[12,36,49,68,88,108,129,149,168,189,208,229,249,269,288,308,329,348,368,389,410,429,449,469,488,508,528,549,569,590,609,628,649,668,688,709,728,749,769,789,809,830,848,869,889,908,928,949,968,989,1009,1029,1049,1068,1088],"xSR":741.5,"ySR":501.8,"xT1":424.9,"yT1":0,"xT2":1058.1,"yT2":0,"toosoon":0,"cond_shown":"Incongruent","ratio_trial":100,"L_num":13,"L_den":26,"R_num":6,"R_den":10,"correct_side":2,"subjID":"samuelcruz","gender":"0","school":"4","age":"9"},{"start_time":1552313229560,"click_time":1552313230408,"finger_time":1552313230008,"fix_duration":250,"trial":52,"RT":448,"MT":400,"sideResp":2,"stimulus":[],"xmouse":[773,773,773,773,773,773,773,773,773,773,773,773,773,773,772,770,770,770,770,770,773,779,786,803,809,817,825,831,847,857,867,875,881,884,884,890,890,890,890,890,890,1095,1104],"ymouse":[573,573,573,573,573,573,573,573,573,573,574,574,574,574,574,576,577,577,577,577,570,546,497,365,286,237,182,128,51,23,10,6,4,3,3,0,0,0,0,0,0,0,3],"timestamp_mouse":[14,28,47,67,88,109,127,147,167,187,209,228,249,267,287,307,329,349,367,387,407,428,448,469,487,507,527,547,568,587,607,627,648,668,688,707,727,748,767,787,807,827,848],"xSR":741.5,"ySR":501.8,"xT1":424.9,"yT1":0,"xT2":1058.1,"yT2":0,"toosoon":0,"cond_shown":"Congruent","ratio_trial":100,"L_num":3,"L_den":20,"R_num":4,"R_den":16,"correct_side":2,"subjID":"samuelcruz","gender":"0","school":"4","age":"9"},{"start_time":1552313232502,"click_time":1552313233410,"finger_time":1552313233029,"fix_duration":250,"trial":53,"RT":527,"MT":381,"sideResp":2,"stimulus":[],"xmouse":[779,779,779,779,779,779,779,779,779,779,779,779,779,779,779,779,776,774,773,773,772,772,772,772,772,777,877,952,1096,1194,1286,1406,1406,1406,1406,1406,1406,1406,1406,1406,1406,1406,1406,1406,1168,1139],"ymouse":[524,524,524,524,524,524,524,524,524,524,524,524,524,524,524,522,518,515,513,512,512,512,512,512,509,504,448,403,304,228,148,4,4,4,4,4,4,4,4,4,4,4,4,4,18,46],"timestamp_mouse":[11,43,47,67,87,107,127,147,167,188,208,227,248,267,288,307,327,348,367,388,408,427,448,467,487,508,527,547,568,588,607,627,648,668,687,708,727,748,768,787,807,828,847,868,887,908],"xSR":741.5,"ySR":501.8,"xT1":424.9,"yT1":0,"xT2":1058.1,"yT2":0,"toosoon":0,"cond_shown":"Congruent","ratio_trial":200,"L_num":16,"L_den":30,"R_num":9,"R_den":27,"correct_side":1,"subjID":"samuelcruz","gender":"0","school":"4","age":"9"},{"start_time":1552313235081,"click_time":1552313236789,"finger_time":1552313236429,"fix_duration":611.3908471628687,"trial":54,"RT":1348,"MT":360,"sideResp":2,"stimulus":[],"xmouse":[796,796,796,796,796,796,796,796,796,796,796,796,796,796,795,793,792,792,792,792,792,792,792,792,792,792,792,792,792,792,792,792,792,792,792,792,791,788,783,781,781,781,781,781,781,781,781,781,781,781,778,778,778,778,778,778,778,778,778,778,778,778,778,778,779,793,830,942,1039,1088,1137,1185,1270,1270,1270,1270,1270,1270,1270,1270,1270,1270,1270,1270,1200,1143],"ymouse":[559,559,559,559,559,559,559,559,559,559,559,559,559,559,559,560,560,560,560,560,560,560,560,560,560,560,560,560,560,560,560,560,560,560,560,560,561,561,563,565,565,565,565,565,565,565,565,565,565,565,570,572,572,572,572,572,572,572,572,572,572,572,572,572,572,561,532,441,364,303,239,169,22,22,22,22,22,22,22,22,22,22,22,22,11,46],"timestamp_mouse":[8,28,48,69,89,109,128,148,168,189,208,229,248,269,289,308,328,348,368,388,409,429,448,468,489,508,528,548,569,588,608,629,648,668,690,708,729,748,769,788,809,828,848,869,888,909,929,948,968,988,1008,1029,1048,1068,1088,1109,1128,1148,1168,1188,1209,1229,1248,1269,1289,1308,1328,1348,1368,1389,1408,1428,1448,1468,1488,1508,1529,1548,1568,1589,1609,1629,1648,1668,1689,1708],"xSR":741.5,"ySR":501.8,"xT1":424.9,"yT1":0,"xT2":1058.1,"yT2":0,"toosoon":0,"cond_shown":"Congruent","ratio_trial":100,"L_num":2,"L_den":5,"R_num":6,"R_den":12,"correct_side":2,"subjID":"samuelcruz","gender":"0","school":"4","age":"9"},{"start_time":1552313246361,"click_time":1552313247910,"finger_time":1552313247469,"fix_duration":250,"trial":55,"RT":1108,"MT":441,"sideResp":2,"stimulus":[],"xmouse":[800,802,804,812,817,822,827,828,830,837,840,840,840,840,840,840,840,840,840,840,840,840,840,840,840,840,840,840,840,840,840,840,840,840,840,840,840,840,840,840,840,840,840,840,840,840,840,840,840,840,840,840,840,840,841,849,863,887,951,964,977,987,995,1005,1006,1008,1008,1010,1011,1011,1011,1011,1011,1011,1013,1035,1051,1066],"ymouse":[540,540,540,540,538,537,536,536,535,529,526,526,526,526,526,526,526,526,526,526,526,526,526,526,526,526,526,526,526,526,526,526,526,526,526,526,526,526,526,526,526,526,526,526,526,526,526,526,526,526,526,526,526,526,520,505,484,436,312,284,259,234,205,170,164,161,157,150,140,140,140,140,140,140,136,107,88,68],"timestamp_mouse":[11,28,50,70,89,108,129,149,168,188,209,228,249,268,289,309,329,348,368,389,409,428,449,468,488,509,528,548,568,588,609,628,650,668,688,709,729,749,768,789,809,829,849,868,889,908,929,949,968,988,1008,1028,1048,1068,1089,1108,1128,1149,1169,1188,1208,1228,1250,1268,1290,1308,1328,1348,1369,1388,1408,1429,1448,1469,1488,1509,1529,1549],"xSR":741.5,"ySR":501.8,"xT1":424.9,"yT1":0,"xT2":1058.1,"yT2":0,"toosoon":0,"cond_shown":"Congruent","ratio_trial":300,"L_num":4,"L_den":5,"R_num":2,"R_den":4,"correct_side":1,"subjID":"samuelcruz","gender":"0","school":"4","age":"9"},{"start_time":1552313252686,"click_time":1552313254249,"finger_time":1552313253610,"fix_duration":315.92891552334623,"trial":56,"RT":924,"MT":639,"sideResp":1,"stimulus":[],"xmouse":[790,764,761,761,761,762,763,770,773,775,779,782,785,785,785,785,785,785,785,785,785,785,785,785,785,785,785,785,785,785,785,785,785,785,785,784,782,776,770,767,766,766,766,764,764,763,760,753,753,753,752,752,752,751,748,735,713,638,598,563,533,520,516,517,520,524,528,540,550,554,555,555,555,555,555,555,555,550,501],"ymouse":[559,559,559,559,559,559,558,556,556,556,557,559,561,561,561,561,561,562,562,564,565,566,567,567,567,567,567,567,567,567,567,567,567,567,567,564,561,543,529,522,519,518,517,513,509,502,492,471,461,457,454,454,454,452,448,439,423,376,354,330,306,293,279,269,259,245,230,191,168,153,141,134,127,127,127,127,126,122,96],"timestamp_mouse":[4,23,43,63,84,103,123,143,164,183,204,224,243,264,283,304,324,343,363,383,404,423,443,464,484,503,523,543,563,584,604,623,643,664,684,703,723,743,764,783,804,823,843,863,884,903,924,943,963,983,1003,1025,1043,1063,1083,1103,1123,1144,1163,1183,1203,1224,1244,1264,1283,1303,1324,1344,1363,1383,1403,1423,1443,1463,1483,1503,1524,1543,1563],"xSR":741.5,"ySR":501.8,"xT1":424.9,"yT1":0,"xT2":1058.1,"yT2":0,"toosoon":0,"cond_shown":"Congruent","ratio_trial":100,"L_num":8,"L_den":16,"R_num":2,"R_den":5,"correct_side":1,"subjID":"samuelcruz","gender":"0","school":"4","age":"9"},{"start_time":1552313256162,"click_time":1552313258790,"finger_time":1552313257729,"fix_duration":250,"trial":57,"RT":1567,"MT":1061,"sideResp":1,"stimulus":[],"xmouse":[812,812,812,812,812,812,812,812,812,812,812,812,812,812,812,812,812,812,812,812,812,812,812,812,812,812,812,812,812,812,812,812,812,812,812,812,812,812,812,812,812,812,812,812,812,812,812,812,812,812,812,812,812,812,812,812,812,812,812,812,812,812,812,812,812,812,812,812,812,812,812,812,812,812,812,812,813,831,961,1058,1147,1213,1256,1278,1278,1279,1280,1280,1280,1279,1278,1276,1273,1266,1260,1255,1250,1250,1250,1250,1250,1250,1250,1250,1250,1250,1250,1247,1223,1012,862,735,644,609,608,608,603,597,591,589,586,582,579,575,567,559,552,543,534,532,528,520],"ymouse":[572,572,572,572,572,572,572,572,572,572,572,572,572,572,572,572,572,572,572,572,572,572,572,572,572,572,572,572,572,572,572,572,572,572,572,572,572,572,572,572,572,572,572,572,572,572,572,572,572,572,572,572,572,572,572,572,572,572,572,572,572,572,572,572,572,572,572,572,572,572,572,572,572,572,572,572,568,550,481,442,403,367,338,312,307,305,304,303,296,292,288,285,281,279,279,279,278,278,278,278,278,278,278,278,278,278,278,278,278,254,239,227,219,211,210,208,203,195,187,185,183,180,177,168,147,129,111,96,87,86,84,82],"timestamp_mouse":[12,35,47,67,88,107,127,148,167,188,208,227,248,267,288,307,328,348,367,387,408,428,447,467,488,508,527,547,567,588,608,627,647,667,687,707,728,748,767,787,807,828,848,867,887,908,927,948,967,988,1008,1028,1048,1067,1088,1108,1127,1148,1167,1187,1207,1228,1249,1267,1287,1308,1329,1348,1367,1388,1407,1428,1448,1467,1487,1508,1528,1547,1567,1587,1607,1627,1648,1667,1687,1707,1727,1747,1768,1787,1808,1827,1847,1867,1887,1907,1927,1948,1968,1987,2008,2028,2047,2067,2088,2107,2128,2148,2167,2187,2208,2227,2248,2267,2288,2307,2328,2348,2367,2387,2408,2427,2448,2468,2487,2507,2527,2547,2567,2587,2607,2628],"xSR":741.5,"ySR":501.8,"xT1":424.9,"yT1":0,"xT2":1058.1,"yT2":0,"toosoon":0,"cond_shown":"Incongruent","ratio_trial":200,"L_num":7,"L_den":15,"R_num":6,"R_den":9,"correct_side":2,"subjID":"samuelcruz","gender":"0","school":"4","age":"9"},{"start_time":1552313262000,"click_time":1552313263829,"finger_time":1552313263450,"fix_duration":250,"trial":58,"RT":1450,"MT":379,"sideResp":1,"stimulus":[],"xmouse":[802,802,802,802,802,802,802,802,802,802,802,802,802,802,802,802,802,802,802,802,802,802,802,802,802,803,810,811,812,813,813,813,813,813,813,813,813,813,813,813,813,813,813,813,813,813,813,813,813,813,813,813,813,813,813,813,813,813,813,813,813,813,813,813,813,813,813,813,813,813,813,808,782,745,701,662,606,580,565,560,560,560,560,558,555,549,538,535,533,530,526,515],"ymouse":[561,561,561,561,561,561,561,561,561,561,561,561,561,561,561,561,561,561,561,561,561,561,561,561,561,557,542,537,534,533,533,533,533,533,533,533,533,533,533,533,533,533,533,533,533,533,533,533,533,533,533,533,533,533,533,533,533,533,533,533,533,533,533,533,533,533,533,533,533,533,533,521,477,413,343,281,182,146,127,119,119,119,119,118,117,113,102,99,96,93,88,80],"timestamp_mouse":[12,37,50,70,89,109,129,150,169,189,209,229,249,270,290,310,329,349,369,389,409,429,449,470,490,509,529,549,570,589,610,629,649,670,690,710,729,750,769,790,810,829,850,869,889,910,929,949,970,990,1010,1029,1049,1069,1089,1110,1129,1150,1170,1189,1210,1229,1250,1270,1290,1309,1329,1350,1370,1390,1410,1429,1450,1469,1490,1510,1530,1549,1569,1590,1610,1630,1650,1669,1690,1709,1729,1749,1770,1789,1809,1829],"xSR":741.5,"ySR":501.8,"xT1":424.9,"yT1":0,"xT2":1058.1,"yT2":0,"toosoon":0,"cond_shown":"Incongruent","ratio_trial":200,"L_num":14,"L_den":30,"R_num":6,"R_den":9,"correct_side":2,"subjID":"samuelcruz","gender":"0","school":"4","age":"9"},{"start_time":1552313265022,"click_time":1552313266189,"finger_time":1552313265629,"fix_duration":250,"trial":59,"RT":607,"MT":560,"sideResp":2,"stimulus":[],"xmouse":[785,785,785,784,783,780,779,779,778,778,778,778,778,778,778,778,778,778,778,778,782,790,793,795,796,800,802,803,806,807,817,834,851,876,907,941,957,972,982,993,1008,1014,1017,1019,1020,1024,1025,1026,1029,1032,1037,1047,1048,1049,1049,1052,1055,1057,1059],"ymouse":[532,532,532,534,536,540,542,542,542,542,542,542,542,542,542,542,542,542,542,542,542,534,531,530,528,523,520,517,513,511,499,480,461,439,410,367,338,303,268,243,199,178,168,162,158,151,147,144,141,136,132,123,118,102,75,40,29,23,21],"timestamp_mouse":[7,27,47,67,87,107,128,147,167,188,207,227,248,267,287,307,328,348,367,387,407,428,447,468,488,507,527,547,567,588,607,628,647,667,687,707,727,748,767,787,807,827,847,868,887,907,927,947,967,988,1007,1028,1047,1068,1087,1107,1127,1147,1167],"xSR":741.5,"ySR":501.8,"xT1":424.9,"yT1":0,"xT2":1058.1,"yT2":0,"toosoon":0,"cond_shown":"Congruent","ratio_trial":300,"L_num":1,"L_den":20,"R_num":7,"R_den":20,"correct_side":2,"subjID":"samuelcruz","gender":"0","school":"4","age":"9"},{"start_time":1552313267462,"click_time":1552313268450,"finger_time":1552313267869,"fix_duration":250,"trial":60,"RT":407,"MT":581,"sideResp":2,"stimulus":[],"xmouse":[783,783,783,783,783,783,783,783,783,783,785,790,798,818,820,820,820,820,822,835,844,857,868,889,892,894,894,894,894,895,897,900,901,904,909,915,924,935,952,969,977,984,989,999,1007,1017,1027,1038,1057,1061],"ymouse":[547,547,547,547,547,547,552,556,566,574,574,574,574,572,571,571,571,571,569,557,548,538,528,515,514,513,513,513,513,511,510,509,509,504,492,470,436,397,352,286,260,245,234,202,180,156,138,119,93,89],"timestamp_mouse":[20,39,47,67,88,107,127,147,167,187,207,227,248,267,288,309,328,348,367,387,407,428,448,467,487,508,527,548,568,587,607,627,647,667,687,707,728,747,767,787,807,828,848,867,887,907,927,948,968,988],"xSR":741.5,"ySR":501.8,"xT1":424.9,"yT1":0,"xT2":1058.1,"yT2":0,"toosoon":0,"cond_shown":"Incongruent","ratio_trial":200,"L_num":9,"L_den":15,"R_num":8,"R_den":10,"correct_side":2,"subjID":"samuelcruz","gender":"0","school":"4","age":"9"},{"start_time":1552313305582,"click_time":1552313312372,"finger_time":1552313311530,"fix_duration":269.3192074836696,"trial":61,"RT":5948,"MT":842,"sideResp":1,"stimulus":[],"xmouse":[787,787,787,787,787,787,787,787,787,787,787,787,787,787,787,787,787,787,787,787,787,787,787,787,787,787,787,787,787,787,787,787,787,787,787,787,787,787,787,787,787,787,787,787,787,787,787,787,787,787,787,787,787,787,787,787,787,787,787,787,787,787,787,787,787,787,787,787,787,787,787,787,787,787,787,787,787,787,787,787,787,787,787,787,787,787,787,787,787,787,787,787,787,787,787,787,787,787,787,787,787,787,787,787,787,787,787,787,787,787,787,787,787,787,787,787,787,787,787,787,787,787,787,787,787,787,787,787,787,787,787,787,787,787,787,787,787,787,787,787,787,787,787,787,787,787,787,787,787,787,787,787,787,787,787,787,787,787,787,787,787,787,787,787,787,787,787,787,787,787,787,787,787,787,787,787,787,787,787,787,787,787,787,787,787,787,787,787,787,787,787,787,787,787,787,787,787,787,787,787,787,787,787,787,787,787,787,787,787,787,787,787,787,787,787,787,787,787,787,787,787,787,787,787,787,787,787,787,787,787,787,787,787,787,787,787,787,787,787,787,787,787,787,787,787,787,787,787,787,787,787,787,787,787,787,787,787,787,787,787,787,787,787,787,787,787,787,787,787,787,787,787,787,787,787,787,787,787,787,787,787,787,787,787,787,787,787,787,787,787,787,787,787,787,786,784,784,784,784,784,784,784,786,788,789,789,789,784,777,767,759,752,722,695,682,674,667,656,656,656,656,656,653,648,639,624,607,591,575,573,573,573,573,573,573,572,569,551,537,516],"ymouse":[540,540,540,540,540,540,540,540,540,540,540,540,540,540,540,540,540,540,540,540,540,540,540,540,540,540,540,540,540,540,540,540,540,540,540,540,540,540,540,540,540,540,540,540,540,540,540,540,540,540,540,540,540,540,540,540,540,540,540,540,540,540,540,540,540,540,540,540,540,540,540,540,540,540,540,540,540,540,540,540,540,540,540,540,540,540,540,540,540,540,540,540,540,540,540,540,540,540,540,540,540,540,540,540,540,540,540,540,540,540,540,540,540,540,540,540,540,540,540,540,540,540,540,540,540,540,540,540,540,540,540,540,540,540,540,540,540,540,540,540,5