[{"start_time":1552313837736,"click_time":1552313840061,"finger_time":1552313839460,"fix_duration":250,"trial":0,"RT":1724,"MT":601,"sideResp":2,"stimulus":"img/250/equaldotsize/R/9_Ratio_250_L_3_R_12.png","xmouse":[802,803,803,803,803,803,803,803,803,803,803,803,803,803,803,803,803,803,803,803,803,803,803,803,803,803,803,803,803,803,803,803,803,803,803,803,803,803,803,803,803,803,803,803,803,803,803,803,803,803,803,803,803,803,803,803,803,803,803,803,803,803,803,803,803,803,803,803,803,803,803,803,803,803,803,803,803,803,803,803,803,803,803,803,805,814,1015,1126,1207,1266,1323,1377,1392,1398,1403,1403,1408,1410,1410,1401,1380,1329,1305,1283,1266,1255,1242,1232,1218,1202,1193,1188,1187,1187,1178,1166,1138],"ymouse":[508,508,508,508,508,508,508,508,508,508,508,508,508,508,508,508,508,508,508,508,508,508,508,508,508,508,508,508,508,508,508,508,508,508,508,508,508,508,508,508,508,508,508,508,508,508,508,508,508,508,508,508,508,508,508,508,508,508,508,508,508,508,508,508,508,508,508,508,508,508,508,508,508,508,508,508,508,508,508,508,508,508,508,508,508,508,508,508,508,506,491,451,423,396,363,332,253,225,198,175,148,127,126,126,126,123,113,103,85,57,36,29,28,28,28,28,27],"timestamp_mouse":[4,36,44,64,83,105,125,145,165,183,205,225,245,263,285,304,325,344,365,384,404,424,444,465,485,503,525,545,563,585,604,624,644,665,684,704,724,745,764,785,803,824,844,863,885,905,925,943,965,985,1005,1023,1045,1064,1085,1105,1124,1145,1165,1185,1205,1224,1245,1265,1285,1304,1324,1345,1364,1385,1404,1424,1443,1464,1485,1504,1523,1545,1565,1585,1603,1624,1644,1665,1684,1704,1724,1744,1765,1785,1805,1824,1844,1865,1885,1905,1924,1944,1965,1985,2005,2025,2045,2065,2085,2104,2124,2145,2165,2184,2204,2225,2244,2265,2284,2304,2324],"xSR":741.5,"ySR":469.95,"xT1":424.9,"yT1":0,"xT2":1058.1,"yT2":0,"toosoon":0,"cond_shown":"equaldotsize","ratio_trial":250,"smaller_num":"3","larger_num":"12","correct_side":2,"subjID":"samuelcruz26","gender":"0","age":"9","school":"4","test":{"fix_dur":[250,1500],"timestim":300,"targets_dim":[100,100],"targets_relative_coord":[0.3,0.7],"size_stim":[880,420],"start_dim":[100,100],"size_start":[300,300],"size_fix":60,"samplingrate":20,"img_types":["equaldotsize","equaldotanddens","randomdotsizeEA"],"ratios":[250,500,750,900],"rep_conds":9,"nTrials":120,"trials_to_rest":500,"Trials_order":[108,69,29,115,109,42,10,4,55,98,9,90,18,65,86,27,100,7,21,85,36,111,50,103,112,24,101,28,32,41,45,61,83,110,40,20,62,12,113,57,97,33,11,93,87,6,107,35,117,26,74,75,44,119,92,82,8,81,89,31,91,53,118,106,13,64,95,38,102,16,37,56,1,14,71,78,2,5,68,66,105,77,48,88,116,22,30,70,25,76,52,58,84,19,51,114,72,15,43,73,99,0,67,96,23,54,80,3,49,34,46,104,59,63,60,39,79,94,47,17],"cond_shown":["equaldotsize","equaldotsize","randomdotsizeEA","equaldotanddens","equaldotanddens","equaldotsize","equaldotanddens","equaldotanddens","equaldotanddens","randomdotsizeEA","equaldotsize","equaldotsize","equaldotsize","randomdotsizeEA","randomdotsizeEA","equaldotsize","equaldotanddens","equaldotanddens","equaldotsize","equaldotanddens","equaldotsize","equaldotsize","randomdotsizeEA","equaldotanddens","equaldotanddens","equaldotsize","randomdotsizeEA","equaldotanddens","randomdotsizeEA","randomdotsizeEA","equaldotsize","equaldotanddens","randomdotsizeEA","randomdotsizeEA","equaldotanddens","randomdotsizeEA","randomdotsizeEA","equaldotsize","randomdotsizeEA","equaldotsize","equaldotanddens","equaldotsize","randomdotsizeEA","equaldotsize","equaldotsize","equaldotsize","randomdotsizeEA","randomdotsizeEA","equaldotsize","randomdotsizeEA","randomdotsizeEA","equaldotsize","randomdotsizeEA","randomdotsizeEA","randomdotsizeEA","equaldotanddens","randomdotsizeEA","equaldotsize","randomdotsizeEA","equaldotanddens","equaldotanddens","randomdotsizeEA","equaldotanddens","equaldotanddens","equaldotanddens","equaldotanddens","randomdotsizeEA","randomdotsizeEA","equaldotsize","equaldotanddens","equaldotanddens","randomdotsizeEA","equaldotanddens","randomdotsizeEA","randomdotsizeEA","equaldotsize","randomdotsizeEA","randomdotsizeEA","randomdotsizeEA","equaldotsize","equaldotsize","randomdotsizeEA","equaldotsize","equaldotanddens","randomdotsizeEA","equaldotanddens","equaldotsize","equaldotanddens","equaldotanddens","equaldotanddens","equaldotanddens","equaldotanddens","equaldotsize","equaldotanddens","equaldotsize","equaldotsize","equaldotsize","equaldotsize","equaldotanddens","equaldotanddens","equaldotsize","equaldotsize","equaldotanddens","equaldotsize","randomdotsizeEA","equaldotsize","randomdotsizeEA","equaldotsize","equaldotanddens","equaldotanddens","equaldotanddens","randomdotsizeEA","randomdotsizeEA","equaldotsize","equaldotsize","equaldotsize","equaldotanddens","equaldotanddens","randomdotsizeEA","randomdotsizeEA"],"ratio_trial":[250,900,500,750,250,750,900,500,750,250,900,750,750,500,250,500,500,750,900,250,250,500,250,750,500,250,500,500,750,500,900,250,900,250,500,750,250,250,500,900,250,900,900,900,500,750,900,900,900,250,250,500,750,900,750,900,750,900,500,750,750,500,900,900,250,500,900,250,750,500,250,750,250,250,900,750,250,500,750,750,900,500,250,500,750,900,750,900,250,500,500,900,250,750,500,750,250,500,750,250,500,250,750,250,900,750,750,500,250,900,900,750,900,500,250,500,750,900,900,500],"smaller_num":["3","18","1","12","2","15","9","9","15","6","9","15","6","1","5","9","2","6","18","3","4","5","3","15","10","3","2","5","6","3","18","2","18","6","3","3","2","5","5","18","5","18","18","18","6","6","18","18","9","6","6","6","15","18","12","9","6","18","2","18","3","3","18","9","6","2","18","2","15","2","6","15","6","2","9","6","3","9","3","3","9","3","4","5","6","18","15","9","4","9","4","18","3","3","5","15","4","5","3","2","6","3","3","2","18","3","15","5","5","18","18","6","18","6","4","10","3","9","9","1"],"larger_num":["12","20","2","16","8","20","10","18","20","24","10","20","8","2","20","18","4","8","20","12","16","10","12","20","20","12","4","10","8","6","20","8","20","24","6","4","8","20","10","20","20","20","20","20","12","8","20","20","10","24","24","12","20","20","16","10","8","20","4","24","4","6","20","10","24","4","20","8","20","4","24","20","24","8","10","8","12","18","4","4","10","6","16","10","8","20","20","10","16","18","8","20","12","4","10","20","16","10","4","8","12","12","4","8","20","4","20","10","20","20","20","8","20","12","16","20","4","10","10","2"],"correct_side":[2,2,2,2,1,2,1,2,2,1,2,2,1,2,2,2,2,2,1,2,1,2,1,2,2,1,2,2,1,2,1,2,1,1,2,2,1,2,1,2,2,2,2,1,1,1,2,2,2,1,2,1,2,2,2,1,1,2,2,1,2,2,2,1,2,1,1,2,1,1,1,1,2,1,1,1,1,2,1,2,2,2,2,1,1,1,1,1,1,1,1,2,2,2,2,2,2,2,1,1,1,1,2,1,2,2,2,2,2,2,1,1,2,1,1,2,1,1,1,2],"img_shown":["img/250/equaldotsize/R/9_Ratio_250_L_3_R_12.png","img/900/equaldotsize/R/14_Ratio_900_L_18_R_20.png","img/500/randomdotsizeEA/R/15_Ratio_500_L_1_R_2.png","img/750/equaldotanddens/R/11_Ratio_750_L_12_R_16.png","img/250/equaldotanddens/L/3_Ratio_250_L_8_R_2.png","img/750/equaldotsize/R/4_Ratio_750_L_15_R_20.png","img/900/equaldotanddens/L/1_Ratio_900_L_10_R_9.png","img/500/equaldotanddens/R/1_Ratio_500_L_9_R_18.png","img/750/equaldotanddens/R/3_Ratio_750_L_15_R_20.png","img/250/randomdotsizeEA/L/5_Ratio_250_L_24_R_6.png","img/900/equaldotsize/R/15_Ratio_900_L_9_R_10.png","img/750/equaldotsize/R/4_Ratio_750_L_15_R_20.png","img/750/equaldotsize/L/13_Ratio_750_L_8_R_6.png","img/500/randomdotsizeEA/R/12_Ratio_500_L_1_R_2.png","img/250/randomdotsizeEA/R/12_Ratio_250_L_5_R_20.png","img/500/equaldotsize/R/6_Ratio_500_L_9_R_18.png","img/500/equaldotanddens/R/9_Ratio_500_L_2_R_4.png","img/750/equaldotanddens/R/2_Ratio_750_L_6_R_8.png","img/900/equaldotsize/L/4_Ratio_900_L_20_R_18.png","img/250/equaldotanddens/R/11_Ratio_250_L_3_R_12.png","img/250/equaldotsize/L/2_Ratio_250_L_16_R_4.png","img/500/equaldotsize/R/14_Ratio_500_L_5_R_10.png","img/250/randomdotsizeEA/L/15_Ratio_250_L_12_R_3.png","img/750/equaldotanddens/R/4_Ratio_750_L_15_R_20.png","img/500/equaldotanddens/R/3_Ratio_500_L_10_R_20.png","img/250/equaldotsize/L/14_Ratio_250_L_12_R_3.png","img/500/randomdotsizeEA/R/9_Ratio_500_L_2_R_4.png","img/500/equaldotanddens/R/14_Ratio_500_L_5_R_10.png","img/750/randomdotsizeEA/L/14_Ratio_750_L_8_R_6.png","img/500/randomdotsizeEA/R/2_Ratio_500_L_3_R_6.png","img/900/equaldotsize/L/4_Ratio_900_L_20_R_18.png","img/250/equaldotanddens/R/13_Ratio_250_L_2_R_8.png","img/900/randomdotsizeEA/L/2_Ratio_900_L_20_R_18.png","img/250/randomdotsizeEA/L/5_Ratio_250_L_24_R_6.png","img/500/equaldotanddens/R/2_Ratio_500_L_3_R_6.png","img/750/randomdotsizeEA/R/7_Ratio_750_L_3_R_4.png","img/250/randomdotsizeEA/L/7_Ratio_250_L_8_R_2.png","img/250/equaldotsize/R/12_Ratio_250_L_5_R_20.png","img/500/randomdotsizeEA/L/7_Ratio_500_L_10_R_5.png","img/900/equaldotsize/R/14_Ratio_900_L_18_R_20.png","img/250/equaldotanddens/R/12_Ratio_250_L_5_R_20.png","img/900/equaldotsize/R/13_Ratio_900_L_18_R_20.png","img/900/randomdotsizeEA/R/9_Ratio_900_L_18_R_20.png","img/900/equaldotsize/L/4_Ratio_900_L_20_R_18.png","img/500/equaldotsize/L/13_Ratio_500_L_12_R_6.png","img/750/equaldotsize/L/13_Ratio_750_L_8_R_6.png","img/900/randomdotsizeEA/R/9_Ratio_900_L_18_R_20.png","img/900/randomdotsizeEA/R/12_Ratio_900_L_18_R_20.png","img/900/equaldotsize/R/6_Ratio_900_L_9_R_10.png","img/250/randomdotsizeEA/L/5_Ratio_250_L_24_R_6.png","img/250/randomdotsizeEA/R/6_Ratio_250_L_6_R_24.png","img/500/equaldotsize/L/11_Ratio_500_L_12_R_6.png","img/750/randomdotsizeEA/R/4_Ratio_750_L_15_R_20.png","img/900/randomdotsizeEA/R/13_Ratio_900_L_18_R_20.png","img/750/randomdotsizeEA/R/11_Ratio_750_L_12_R_16.png","img/900/equaldotanddens/L/1_Ratio_900_L_10_R_9.png","img/750/randomdotsizeEA/L/14_Ratio_750_L_8_R_6.png","img/900/equaldotsize/R/13_Ratio_900_L_18_R_20.png","img/500/randomdotsizeEA/R/9_Ratio_500_L_2_R_4.png","img/750/equaldotanddens/L/6_Ratio_750_L_24_R_18.png","img/750/equaldotanddens/R/7_Ratio_750_L_3_R_4.png","img/500/randomdotsizeEA/R/2_Ratio_500_L_3_R_6.png","img/900/equaldotanddens/R/14_Ratio_900_L_18_R_20.png","img/900/equaldotanddens/L/1_Ratio_900_L_10_R_9.png","img/250/equaldotanddens/R/6_Ratio_250_L_6_R_24.png","img/500/equaldotanddens/L/10_Ratio_500_L_4_R_2.png","img/900/randomdotsizeEA/L/8_Ratio_900_L_20_R_18.png","img/250/randomdotsizeEA/R/13_Ratio_250_L_2_R_8.png","img/750/equaldotsize/L/1_Ratio_750_L_20_R_15.png","img/500/equaldotanddens/L/10_Ratio_500_L_4_R_2.png","img/250/equaldotanddens/L/5_Ratio_250_L_24_R_6.png","img/750/randomdotsizeEA/L/1_Ratio_750_L_20_R_15.png","img/250/equaldotanddens/R/6_Ratio_250_L_6_R_24.png","img/250/randomdotsizeEA/L/3_Ratio_250_L_8_R_2.png","img/900/randomdotsizeEA/L/1_Ratio_900_L_10_R_9.png","img/750/equaldotsize/L/13_Ratio_750_L_8_R_6.png","img/250/randomdotsizeEA/L/15_Ratio_250_L_12_R_3.png","img/500/randomdotsizeEA/R/6_Ratio_500_L_9_R_18.png","img/750/randomdotsizeEA/L/9_Ratio_750_L_4_R_3.png","img/750/equaldotsize/R/7_Ratio_750_L_3_R_4.png","img/900/equaldotsize/R/6_Ratio_900_L_9_R_10.png","img/500/randomdotsizeEA/R/2_Ratio_500_L_3_R_6.png","img/250/equaldotsize/R/10_Ratio_250_L_4_R_16.png","img/500/equaldotanddens/L/7_Ratio_500_L_10_R_5.png","img/750/randomdotsizeEA/L/14_Ratio_750_L_8_R_6.png","img/900/equaldotanddens/L/2_Ratio_900_L_20_R_18.png","img/750/equaldotsize/L/1_Ratio_750_L_20_R_15.png","img/900/equaldotanddens/L/1_Ratio_900_L_10_R_9.png","img/250/equaldotanddens/L/2_Ratio_250_L_16_R_4.png","img/500/equaldotanddens/L/4_Ratio_500_L_18_R_9.png","img/500/equaldotanddens/L/8_Ratio_500_L_8_R_4.png","img/900/equaldotanddens/R/11_Ratio_900_L_18_R_20.png","img/250/equaldotsize/R/4_Ratio_250_L_3_R_12.png","img/750/equaldotanddens/R/12_Ratio_750_L_3_R_4.png","img/500/equaldotsize/R/14_Ratio_500_L_5_R_10.png","img/750/equaldotsize/R/4_Ratio_750_L_15_R_20.png","img/250/equaldotsize/R/10_Ratio_250_L_4_R_16.png","img/500/equaldotsize/R/14_Ratio_500_L_5_R_10.png","img/750/equaldotanddens/L/10_Ratio_750_L_4_R_3.png","img/250/equaldotanddens/L/7_Ratio_250_L_8_R_2.png","img/500/equaldotsize/L/11_Ratio_500_L_12_R_6.png","img/250/equaldotsize/L/15_Ratio_250_L_12_R_3.png","img/750/equaldotanddens/R/12_Ratio_750_L_3_R_4.png","img/250/equaldotsize/L/7_Ratio_250_L_8_R_2.png","img/900/randomdotsizeEA/R/14_Ratio_900_L_18_R_20.png","img/750/equaldotsize/R/12_Ratio_750_L_3_R_4.png","img/750/randomdotsizeEA/R/5_Ratio_750_L_15_R_20.png","img/500/equaldotsize/R/14_Ratio_500_L_5_R_10.png","img/250/equaldotanddens/R/12_Ratio_250_L_5_R_20.png","img/900/equaldotanddens/R/12_Ratio_900_L_18_R_20.png","img/900/equaldotanddens/L/8_Ratio_900_L_20_R_18.png","img/750/randomdotsizeEA/L/13_Ratio_750_L_8_R_6.png","img/900/randomdotsizeEA/R/9_Ratio_900_L_18_R_20.png","img/500/equaldotsize/L/11_Ratio_500_L_12_R_6.png","img/250/equaldotsize/L/2_Ratio_250_L_16_R_4.png","img/500/equaldotsize/R/3_Ratio_500_L_10_R_20.png","img/750/equaldotanddens/L/8_Ratio_750_L_4_R_3.png","img/900/equaldotanddens/L/1_Ratio_900_L_10_R_9.png","img/900/randomdotsizeEA/L/1_Ratio_900_L_10_R_9.png","img/500/randomdotsizeEA/R/15_Ratio_500_L_1_R_2.png"],"Rat0":[["12_Ratio_0_L_9_R_0.png","13_Ratio_0_L_6_R_0.png","5_Ratio_0_L_2_R_0.png","6_Ratio_0_L_4_R_0.png","8_Ratio_0_L_6_R_0.png"],["1_Ratio_0_L_0_R_17.png","10_Ratio_0_L_0_R_22.png","11_Ratio_0_L_0_R_1.png","14_Ratio_0_L_0_R_24.png","15_Ratio_0_L_0_R_4.png","2_Ratio_0_L_0_R_5.png","3_Ratio_0_L_0_R_17.png","4_Ratio_0_L_0_R_7.png","7_Ratio_0_L_0_R_19.png","9_Ratio_0_L_0_R_15.png"]],"Rat250":[["1_Ratio_250_L_8_R_2.png","14_Ratio_250_L_12_R_3.png","15_Ratio_250_L_12_R_3.png","2_Ratio_250_L_16_R_4.png","3_Ratio_250_L_8_R_2.png","5_Ratio_250_L_24_R_6.png","7_Ratio_250_L_8_R_2.png"],["10_Ratio_250_L_4_R_16.png","11_Ratio_250_L_3_R_12.png","12_Ratio_250_L_5_R_20.png","13_Ratio_250_L_2_R_8.png","4_Ratio_250_L_3_R_12.png","6_Ratio_250_L_6_R_24.png","8_Ratio_250_L_1_R_4.png","9_Ratio_250_L_3_R_12.png"]],"Rat500":[["10_Ratio_500_L_4_R_2.png","11_Ratio_500_L_12_R_6.png","13_Ratio_500_L_12_R_6.png","4_Ratio_500_L_18_R_9.png","5_Ratio_500_L_4_R_2.png","7_Ratio_500_L_10_R_5.png","8_Ratio_500_L_8_R_4.png"],["1_Ratio_500_L_9_R_18.png","12_Ratio_500_L_1_R_2.png","14_Ratio_500_L_5_R_10.png","15_Ratio_500_L_1_R_2.png","2_Ratio_500_L_3_R_6.png","3_Ratio_500_L_10_R_20.png","6_Ratio_500_L_9_R_18.png","9_Ratio_500_L_2_R_4.png"]],"Rat750":[["1_Ratio_750_L_20_R_15.png","10_Ratio_750_L_4_R_3.png","13_Ratio_750_L_8_R_6.png","14_Ratio_750_L_8_R_6.png","6_Ratio_750_L_24_R_18.png","8_Ratio_750_L_4_R_3.png","9_Ratio_750_L_4_R_3.png"],["11_Ratio_750_L_12_R_16.png","12_Ratio_750_L_3_R_4.png","15_Ratio_750_L_9_R_12.png","2_Ratio_750_L_6_R_8.png","3_Ratio_750_L_15_R_20.png","4_Ratio_750_L_15_R_20.png","5_Ratio_750_L_15_R_20.png","7_Ratio_750_L_3_R_4.png"]],"Rat900":[["1_Ratio_900_L_10_R_9.png","10_Ratio_900_L_20_R_18.png","2_Ratio_900_L_20_R_18.png","4_Ratio_900_L_20_R_18.png","8_Ratio_900_L_20_R_18.png"],["11_Ratio_900_L_18_R_20.png","12_Ratio_900_L_18_R_20.png","13_Ratio_900_L_18_R_20.png","14_Ratio_900_L_18_R_20.png","15_Ratio_900_L_9_R_10.png","3_Ratio_900_L_9_R_10.png","5_Ratio_900_L_9_R_10.png","6_Ratio_900_L_9_R_10.png","7_Ratio_900_L_9_R_10.png","9_Ratio_900_L_18_R_20.png"]],"Rat1000":[["10_Ratio_1000_L_16_R_16.png","11_Ratio_1000_L_6_R_6.png","12_Ratio_1000_L_14_R_14.png","13_Ratio_1000_L_20_R_20.png","15_Ratio_1000_L_15_R_15.png","2_Ratio_1000_L_17_R_17.png","4_Ratio_1000_L_9_R_9.png","5_Ratio_1000_L_6_R_6.png","6_Ratio_1000_L_19_R_19.png","8_Ratio_1000_L_14_R_14.png","9_Ratio_1000_L_25_R_25.png"],["1_Ratio_1000_L_1_R_1.png","14_Ratio_1000_L_17_R_17.png","3_Ratio_1000_L_17_R_17.png","7_Ratio_1000_L_6_R_6.png"]]}},{"start_time":1552313843292,"click_time":1552313844701,"finger_time":1552313843780,"fix_duration":470.1341561683802,"trial":1,"RT":488,"MT":921,"sideResp":1,"stimulus":"img/900/equaldotsize/R/14_Ratio_900_L_18_R_20.png","xmouse":[798,798,798,798,798,798,798,798,798,798,798,798,798,798,798,798,799,799,799,799,799,799,799,801,803,805,807,810,814,815,817,818,822,829,834,839,841,841,839,834,829,822,810,764,735,695,670,648,644,644,644,644,643,641,636,632,626,618,601,591,584,579,577,577,576,575,569,543,504,489,473],"ymouse":[526,526,526,526,526,526,526,526,526,526,526,526,526,526,526,526,525,521,506,501,497,494,490,475,460,442,429,405,390,386,384,378,371,344,320,285,250,235,231,230,230,230,228,210,195,171,160,149,146,146,146,146,146,145,142,139,135,125,113,108,106,104,104,104,104,104,104,104,103,100,96],"timestamp_mouse":[13,36,48,69,88,108,128,149,169,188,209,229,248,268,288,309,328,348,369,388,409,429,449,468,488,509,529,549,568,589,608,629,648,668,689,708,728,749,768,789,809,828,848,869,888,908,927,949,969,989,1008,1029,1048,1068,1088,1109,1129,1149,1168,1188,1208,1229,1248,1268,1287,1308,1328,1348,1368,1389,1409],"xSR":741.5,"ySR":469.95,"xT1":424.9,"yT1":0,"xT2":1058.1,"yT2":0,"toosoon":0,"cond_shown":"equaldotsize","ratio_trial":900,"smaller_num":"18","larger_num":"20","correct_side":2,"subjID":"samuelcruz26","gender":"0","age":"9","school":"4"},{"start_time":1552313848571,"click_time":1552313850160,"finger_time":1552313849481,"fix_duration":568.493485232692,"trial":2,"RT":910,"MT":679,"sideResp":2,"stimulus":"img/500/randomdotsizeEA/R/15_Ratio_500_L_1_R_2.png","xmouse":[783,783,783,783,783,783,783,783,783,783,783,783,783,783,783,783,783,783,783,783,783,783,783,783,783,783,783,783,783,783,783,783,783,783,783,783,783,783,783,783,783,784,786,788,805,817,831,837,840,841,841,841,841,841,841,841,842,849,866,958,1032,1118,1183,1226,1232,1232,1232,1232,1233,1234,1234,1234,1232,1226,1219,1212,1198,1179,1160,1135],"ymouse":[503,503,503,503,503,503,503,503,503,503,503,503,503,503,503,503,503,503,503,503,503,503,503,503,503,503,503,503,503,503,503,503,503,503,503,503,503,503,503,503,503,503,501,499,476,448,401,374,360,355,355,355,355,355,355,355,354,347,329,254,215,181,151,127,120,120,120,120,117,101,89,80,73,64,59,58,58,58,58,58],"timestamp_mouse":[12,38,50,69,90,110,129,150,170,188,210,230,249,269,289,309,329,349,368,389,410,430,449,469,489,509,529,549,570,589,609,630,650,669,689,709,728,750,769,789,809,829,849,870,889,910,929,949,969,990,1010,1030,1049,1070,1089,1109,1129,1149,1169,1190,1210,1229,1249,1270,1289,1309,1330,1349,1370,1390,1409,1429,1449,1470,1489,1510,1530,1550,1570,1589],"xSR":741.5,"ySR":469.95,"xT1":424.9,"yT1":0,"xT2":1058.1,"yT2":0,"toosoon":0,"cond_shown":"randomdotsizeEA","ratio_trial":500,"smaller_num":"1","larger_num":"2","correct_side":2,"subjID":"samuelcruz26","gender":"0","age":"9","school":"4"},{"start_time":1552313852073,"click_time":1552313853221,"finger_time":1552313852841,"fix_duration":250,"trial":3,"RT":768,"MT":380,"sideResp":2,"stimulus":"img/750/equaldotanddens/R/11_Ratio_750_L_12_R_16.png","xmouse":[791,791,791,791,791,791,791,791,791,791,791,791,791,791,791,791,791,791,791,791,791,791,791,791,789,788,787,786,786,784,781,778,774,770,763,762,765,776,817,907,955,991,1013,1030,1050,1054,1056,1057,1058,1058,1058,1058,1058,1058,1058,1058,1063,1068],"ymouse":[531,531,531,531,531,531,531,531,531,532,532,532,532,532,532,532,532,532,532,532,532,532,532,529,528,528,528,528,528,528,528,528,529,530,531,531,522,502,433,332,294,262,238,213,171,157,147,142,134,129,128,126,125,125,125,120,103,86],"timestamp_mouse":[14,34,47,68,88,108,126,147,167,188,208,226,247,267,288,307,327,348,367,387,407,427,447,468,487,508,527,548,567,587,608,627,647,668,687,707,727,748,768,788,808,827,848,867,887,908,928,947,969,987,1008,1027,1047,1068,1087,1108,1128,1148],"xSR":741.5,"ySR":469.95,"xT1":424.9,"yT1":0,"xT2":1058.1,"yT2":0,"toosoon":0,"cond_shown":"equaldotanddens","ratio_trial":750,"smaller_num":"12","larger_num":"16","correct_side":2,"subjID":"samuelcruz26","gender":"0","age":"9","school":"4"},{"start_time":1552313854534,"click_time":1552313855861,"finger_time":1552313855160,"fix_duration":250,"trial":4,"RT":626,"MT":701,"sideResp":1,"stimulus":"img/250/equaldotanddens/L/3_Ratio_250_L_8_R_2.png","xmouse":[788,788,788,788,788,788,788,788,788,788,788,788,788,788,788,788,788,788,788,788,788,788,788,788,788,788,788,788,788,788,784,769,749,731,713,692,679,674,668,660,653,648,647,647,644,629,582,559,543,534,532,532,532,532,532,532,531,530,529,529,529,529,529,529,528,527,505],"ymouse":[514,514,515,516,516,516,516,516,516,516,516,516,516,516,516,516,516,516,516,516,516,516,516,516,516,516,516,516,516,516,507,462,425,396,376,347,315,300,285,271,261,253,252,250,245,217,142,102,75,59,55,54,54,54,54,54,54,54,54,54,54,54,54,54,54,54,49],"timestamp_mouse":[10,36,47,66,86,107,126,147,167,186,207,226,247,267,287,306,325,347,366,386,407,426,447,466,486,507,525,547,567,586,607,626,647,667,686,707,726,746,767,787,807,826,846,866,887,906,927,947,967,987,1006,1026,1046,1067,1087,1107,1126,1146,1166,1186,1207,1227,1247,1265,1287,1306,1327],"xSR":741.5,"ySR":469.95,"xT1":424.9,"yT1":0,"xT2":1058.1,"yT2":0,"toosoon":0,"cond_shown":"equaldotanddens","ratio_trial":250,"smaller_num":"2","larger_num":"8","correct_side":1,"subjID":"samuelcruz26","gender":"0","age":"9","school":"4"},{"start_time":1552313899938,"click_time":1552313901164,"finger_time":1552313900664,"fix_duration":250,"trial":5,"RT":726,"MT":500,"sideResp":2,"stimulus":"img/750/equaldotsize/R/4_Ratio_750_L_15_R_20.png","xmouse":[778,778,778,778,778,778,778,778,778,778,778,778,778,778,778,778,778,778,778,778,778,778,778,778,778,778,778,778,778,778,778,778,778,778,784,790,853,891,915,939,960,970,972,973,975,979,993,997,1001,1004,1005,1009,1015,1022,1033,1047,1058,1061,1062,1063,1064,1070],"ymouse":[497,497,497,497,497,497,497,497,497,497,497,497,497,497,497,497,497,497,497,497,497,497,497,497,497,497,497,497,497,497,497,497,497,496,495,494,471,447,424,382,334,288,277,270,262,248,205,196,186,180,177,170,164,156,148,135,122,118,116,115,111,93],"timestamp_mouse":[10,39,46,67,87,106,127,147,167,187,207,226,247,266,287,306,327,347,366,387,406,427,447,468,487,506,526,547,566,588,606,627,646,666,686,706,726,747,766,786,806,827,846,866,887,906,926,947,967,987,1007,1026,1046,1067,1086,1106,1127,1147,1167,1186,1207,1226],"xSR":741.5,"ySR":469.95,"xT1":424.9,"yT1":0,"xT2":1058.1,"yT2":0,"toosoon":0,"cond_shown":"equaldotsize","ratio_trial":750,"smaller_num":"15","larger_num":"20","correct_side":2,"subjID":"samuelcruz26","gender":"0","age":"9","school":"4"},{"start_time":1552313905110,"click_time":1552313905765,"finger_time":1552313905504,"fix_duration":903.5034423998792,"trial":6,"RT":394,"MT":261,"sideResp":2,"stimulus":"img/900/equaldotanddens/L/1_Ratio_900_L_10_R_9.png","xmouse":[788,788,788,788,788,788,788,788,788,788,788,788,788,788,788,788,789,795,805,835,862,886,917,926,930,934,935,953,972,993,1023,1049,1087],"ymouse":[528,528,528,528,528,528,528,528,528,528,528,528,528,528,528,528,528,504,477,426,378,353,328,320,317,313,312,288,261,228,185,144,76],"timestamp_mouse":[18,41,54,74,94,114,134,154,176,195,215,235,255,274,294,314,335,355,375,394,415,435,454,474,494,514,534,554,574,594,614,634,654],"xSR":741.5,"ySR":469.95,"xT1":424.9,"yT1":0,"xT2":1058.1,"yT2":0,"toosoon":0,"cond_shown":"equaldotanddens","ratio_trial":900,"smaller_num":"9","larger_num":"10","correct_side":1,"subjID":"samuelcruz26","gender":"0","age":"9","school":"4"},{"start_time":1552313907771,"click_time":1552313909206,"finger_time":1552313908625,"fix_duration":945.2957171740519,"trial":7,"RT":854,"MT":581,"sideResp":2,"stimulus":"img/500/equaldotanddens/R/1_Ratio_500_L_9_R_18.png","xmouse":[780,780,780,780,780,780,780,781,783,783,784,784,784,784,784,784,784,784,784,784,784,784,784,784,784,784,784,784,784,784,784,784,784,784,784,784,784,784,784,784,790,800,871,950,1135,1223,1293,1332,1349,1359,1363,1369,1376,1385,1390,1390,1389,1389,1389,1389,1389,1389,1389,1389,1389,1389,1389,1389,1389,1389,1165,1147],"ymouse":[542,542,542,542,542,542,542,542,542,542,542,542,542,542,542,542,542,542,542,542,542,542,542,542,542,542,542,542,542,542,542,542,542,542,542,542,542,542,542,542,537,529,478,423,309,260,214,184,171,159,151,137,117,75,27,9,1,1,1,1,1,1,1,1,1,1,1,1,1,1,4,11],"timestamp_mouse":[25,41,54,75,93,113,134,154,174,195,214,233,253,274,293,313,333,353,374,394,414,433,453,474,495,514,533,554,573,593,613,634,653,673,693,713,733,753,773,794,813,834,854,874,893,913,934,954,973,994,1014,1034,1053,1074,1094,1114,1134,1153,1174,1194,1213,1233,1254,1274,1295,1314,1334,1354,1373,1393,1414,1434],"xSR":741.5,"ySR":469.95,"xT1":424.9,"yT1":0,"xT2":1058.1,"yT2":0,"toosoon":0,"cond_shown":"equaldotanddens","ratio_trial":500,"smaller_num":"9","larger_num":"18","correct_side":2,"subjID":"samuelcruz26","gender":"0","age":"9","school":"4"},{"start_time":1552313912963,"click_time":1552313925885,"finger_time":1552313919064,"fix_duration":1078.1229775512775,"trial":8,"RT":6101,"MT":6821,"sideResp":1,"stimulus":"img/750/equaldotanddens/R/3_Ratio_750_L_15_R_20.png","xmouse":[764,765,765,769,770,770,771,771,772,773,774,774,774,774,774,774,775,775,776,776,777,778,779,780,782,784,786,788,789,790,792,795,797,800,802,804,807,810,812,813,813,813,813,813,813,818,820,821,821,819,813,805,801,801,801,801,801,801,801,801,801,801,801,801,801,801,801,801,801,801,801,801,801,801,801,801,801,801,801,801,801,801,801,801,801,801,801,801,801,801,801,801,801,801,801,801,801,801,801,801,801,801,801,801,801,801,801,801,801,801,801,801,801,801,801,801,801,801,801,801,801,801,801,801,801,801,801,801,801,801,801,801,801,801,801,801,801,801,801,801,801,801,801,801,801,801,801,801,801,801,801,801,801,801,801,801,801,801,801,801,801,801,801,801,801,801,801,801,801,801,801,801,801,801,801,801,801,801,801,801,801,801,801,801,801,801,801,801,801,801,801,801,801,801,801,801,801,801,801,801,801,801,801,801,801,801,801,801,801,801,801,801,801,801,801,801,801,801,801,801,801,801,801,801,801,801,801,801,801,801,801,801,801,801,801,801,801,801,801,801,801,801,801,801,801,801,801,801,801,801,801,801,801,801,801,801,801,801,801,801,801,801,801,801,801,801,801,801,801,801,801,801,801,801,801,801,801,801,801,801,801,801,801,801,801,801,801,801,801,801,801,801,801,801,801,801,801,801,801,801,801,801,807,819,849,850,850,850,850,850,850,850,850,850,850,850,850,850,850,850,850,850,850,850,850,850,850,850,850,850,850,850,853,865,896,910,921,922,924,924,924,923,914,867,744,736,743,757,762,766,767,770,773,775,798,806,811,812,812,811,811,809,808,808,808,808,808,808,808,808,808,808,807,807,806,805,804,803,801,796,795,795,795,795,796,797,797,798,799,799,799,799,799,799,799,799,799,799,799,799,799,799,799,799,799,796,785,771,754,703,700,712,721,741,747,747,747,747,745,745,754,760,764,765,814,847,852,851,849,842,834,829,827,827,825,823,821,814,813,806,805,805,805,805,805,805,805,805,804,803,803,803,801,800,798,798,798,797,794,793,793,793,793,793,793,793,793,793,793,793,793,793,793,793,793,793,793,793,793,793,793,793,793,793,793,793,793,793,793,793,793,793,793,793,793,793,793,793,793,793,793,793,794,794,796,796,796,797,797,799,803,810,821,831,855,875,894,913,926,929,926,918,911,909,908,908,909,910,911,911,912,912,915,919,930,935,941,947,951,960,963,964,965,965,966,968,970,972,973,975,975,976,976,976,976,976,976,976,976,979,981,984,986,988,992,993,994,995,995,997,997,997,997,997,997,998,999,1000,1002,1005,1005,1005,1005,1005,1010,1017,1024,1030,1034,1042,1043,1044,1044,1045,1046,1046,1046,1046,1046,1047,1047,1047,1049,1049,1049,1049,1049,1049,1049,1049,1049,1049,1049,1049,1049,1049,1049,1049,1049,1040,1021,987,931,829,750,741,738,737,737,735,729,714,690,626,613,608,605,604,603,592,581,575,570,570,549,520],"ymouse":[522,522,522,522,523,523,523,523,523,523,523,523,523,523,523,523,523,523,523,523,523,523,523,523,523,523,523,523,522,522,522,521,520,519,516,514,510,505,502,500,500,500,500,500,499,497,497,497,497,497,496,493,490,490,490,490,490,490,490,490,490,490,490,490,490,490,490,490,490,490,490,490,490,490,490,490,490,490,490,490,490,490,490,490,490,490,490,490,490,490,490,490,490,490,490,490,490,490,490,490,490,490,490,490,490,490,490,490,490,490,490,490,490,490,490,490,490,490,490,490,490,490,490,490,490,490,490,490,490,490,490,490,490,490,490,490,490,490,490,490,490,490,490,490,490,490,490,490,490,490,490,490,490,490,490,490,490,490,490,490,490,490,490,490,490,490,490,490,490,490,490,490,490,490,490,490,490,490,490,490,490,490,490,490,490,490,490,490,490,490,490,490,490,490,490,490,490,490,490,490,490,490,490,490,490,490,490,490,490,490,490,490,490,490,490,490,490,490,490,490,490,490,490,490,490,490,490,490,490,490,490,490,490,490,490,490,490,490,490,490,490,490,490,490,490,490,490,490,490,490,490,490,490,490,490,490,490,490,490,490,490,490,490,490,490,490,490,490,490,490,490,490,490,490,490,490,490,490,490,490,490,490,490,490,490,490,490,490,490,490,490,490,490,490,490,490,490,490,490,490,490,490,496,504,524,525,525,525,525,525,525,525,525,525,525,525,525,525,525,525,525,525,525,525,525,525,525,525,525,525,525,525,526,530,551,558,562,563,563,561,557,549,540,508,436,433,438,446,448,448,448,448,448,450,477,486,487,487,488,489,489,490,490,490,490,490,490,490,491,491,491,491,491,491,491,491,491,492,496,508,510,512,513,514,514,514,514,514,514,514,514,514,514,514,515,515,515,515,515,515,515,515,515,515,517,523,536,547,560,628,658,668,668,632,581,577,577,577,576,602,615,623,624,624,597,577,567,562,561,567,580,586,588,588,581,576,571,564,561,549,545,545,545,545,540,534,528,522,518,515,515,515,512,510,509,509,509,509,510,510,510,510,510,510,510,510,510,510,510,510,510,510,510,510,510,510,510,510,511,511,512,512,512,512,512,513,513,514,514,514,514,514,514,514,514,514,514,514,514,514,514,514,514,513,507,507,506,506,505,503,498,493,486,481,473,456,431,400,361,294,278,264,249,244,237,231,225,220,216,215,215,213,210,206,199,196,191,189,186,177,175,175,174,174,172,171,166,163,160,157,157,155,155,155,155,155,155,155,155,151,146,142,139,135,127,125,123,122,121,120,119,119,119,119,119,119,118,117,116,116,116,116,116,116,115,115,115,115,115,115,115,115,115,114,113,113,112,112,112,110,108,107,104,104,104,104,104,104,104,104,104,104,104,104,104,104,104,104,102,99,93,81,68,57,46,44,44,44,44,44,44,45,46,51,51,51,51,51,52,53,53,53,53,53,53,53],"timestamp_mouse":[21,55,61,82,101,121,141,162,181,201,222,242,261,281,301,321,341,361,381,402,422,441,461,482,501,522,542,562,583,601,622,642,662,682,701,722,742,762,781,801,822,842,861,881,902,922,942,961,981,1001,1021,1041,1061,1082,1101,1122,1141,1161,1181,1203,1222,1241,1262,1281,1301,1321,1341,1361,1381,1401,1423,1442,1461,1481,1501,1521,1542,1563,1583,1603,1623,1643,1662,1681,1701,1722,1741,1761,1781,1801,1821,1843,1863,1883,1903,1922,1942,1962,1983,2001,2021,2042,2061,2081,2101,2121,2142,2162,2182,2201,2221,2241,2262,2282,2301,2322,2341,2362,2382,2401,2421,2442,2461,2481,2502,2521,2543,2562,2581,2601,2621,2642,2662,2682,2701,2722,2741,2761,2782,2802,2823,2842,2862,2881,2902,2921,2941,2961,2982,3003,3022,3042,3061,3082,3102,3121,3142,3161,3181,3202,3221,3241,3261,3281,3301,3322,3341,3363,3381,3401,3421,3442,3461,3481,3501,3522,3542,3561,3581,3602,3621,3642,3661,3681,3701,3721,3741,3763,3781,3801,3822,3841,3863,3883,3901,3921,3942,3961,3982,4002,4023,4042,4061,4082,4102,4123,4143,4162,4182,4203,4221,4242,4261,4283,4303,4322,4341,4361,4382,4401,4421,4442,4461,4481,4502,4521,4542,4562,4581,4603,4621,4641,4661,4682,4703,4721,4741,4762,4783,4801,4821,4841,4862,4883,4902,4921,4942,4961,4981,5002,5022,5042,5061,5081,5103,5122,5142,5161,5181,5203,5221,5242,5262,5281,5301,5321,5342,5361,5381,5401,5421,5442,5461,5481,5501,5521,5542,5562,5583,5602,5622,5642,5661,5681,5702,5721,5741,5762,5782,5803,5822,5841,5862,5882,5901,5921,5942,5962,5981,6002,6022,6042,6062,6082,6101,6124,6142,6162,6181,6201,6221,6241,6262,6283,6301,6321,6341,6361,6382,6403,6422,6441,6461,6482,6501,6521,6541,6561,6583,6601,6623,6642,6662,6682,6701,6722,6741,6762,6782,6801,6822,6842,6862,6881,6901,6922,6941,6961,6982,7001,7023,7042,7061,7082,7102,7122,7142,7162,7181,7202,7222,7241,7261,7282,7302,7321,7343,7361,7381,7401,7422,7442,7462,7481,7501,7522,7542,7561,7581,7601,7622,7641,7662,7682,7701,7721,7741,7763,7782,7803,7822,7842,7862,7882,7901,7921,7942,7963,7983,8001,8021,8041,8062,8081,8101,8121,8144,8163,8182,8202,8221,8242,8261,8282,8302,8322,8341,8361,8381,8401,8422,8443,8463,8482,8501,8522,8542,8561,8582,8601,8621,8641,8661,8681,8701,8721,8741,8762,8781,8801,8821,8842,8861,8881,8901,8922,8941,8961,8981,9002,9023,9042,9062,9082,9101,9122,9142,9161,9181,9201,9221,9242,9261,9281,9302,9323,9342,9362,9381,9401,9421,9441,9461,9481,9501,9522,9541,9562,9582,9602,9621,9641,9661,9681,9701,9722,9743,9761,9781,9802,9821,9842,9861,9882,9902,9921,9941,9962,9983,10001,10022,10041,10063,10082,10101,10122,10142,10161,10182,10201,10222,10241,10262,10281,10301,10322,10341,10362,10381,10402,10422,10442,10462,10481,10501,10521,10542,10562,10582,10601,10621,10642,10661,10681,10701,10721,10742,10761,10782,10802,10821,10842,10862,10882,10901,10921,10942,10961,10981,11002,11021,11041,11061,11082,11102,11121,11142,11162,11181,11201,11222,11242,11262,11282,11301,11321,11342,11361,11382,11401,11421,11441,11462,11482,11501,11521,11542,11561,11581,11602,11621,11641,11661,11682,11701,11721,11742,11762,11783,11802,11821,11842,11862,11881,11901,11921,11942,11961,11983,12001,12022,12043,12062,12083,12103,12121,12142,12162,12182,12201,12222,12242,12263,12282,12302,12322,12341,12361,12382,12401,12421,12441,12461,12481,12503,12521,12541,12561,12581,12601,12622,12641,12661,12683,12702,12722,12741,12761,12782,12801,12821,12855,12862,12882,12901,12921],"xSR":741.5,"ySR":469.95,"xT1":424.9,"yT1":0,"xT2":1058.1,"yT2":0,"toosoon":0,"cond_shown":"equaldotanddens","ratio_trial":750,"smaller_num":"15","larger_num":"20","correct_side":2,"subjID":"samuelcruz26","gender":"0","age":"9","school":"4"},{"start_time":1552313928477,"click_time":1552313929464,"finger_time":1552313928764,"fix_duration":429.25364007425935,"trial":9,"RT":287,"MT":700,"sideResp":2,"stimulus":"img/250/randomdotsizeEA/L/5_Ratio_250_L_24_R_6.png","xmouse":[791,791,791,791,791,791,791,791,791,792,793,794,796,798,806,812,825,842,866,911,921,924,926,926,929,930,933,935,936,941,942,944,946,951,968,974,979,985,988,994,997,999,1000,1002,1003,1004,1006,1013,1054,1082],"ymouse":[525,525,525,524,523,520,518,516,514,502,493,486,480,473,460,453,438,422,402,366,356,347,341,337,328,321,312,301,293,273,269,265,261,254,238,230,220,211,206,196,191,187,183,178,171,169,165,149,76,31],"timestamp_mouse":[14,36,47,67,87,108,127,147,168,187,207,228,249,268,287,307,327,347,367,387,408,427,449,468,487,507,528,548,568,588,607,627,648,667,687,708,727,747,768,787,808,828,848,868,887,909,928,948,968,987],"xSR":741.5,"ySR":469.95,"xT1":424.9,"yT1":0,"xT2":1058.1,"yT2":0,"toosoon":0,"cond_shown":"randomdotsizeEA","ratio_trial":250,"smaller_num":"6","larger_num":"24","correct_side":1,"subjID":"samuelcruz26","gender":"0","age":"9","school":"4"},{"start_time":1552313931178,"click_time":1552313932464,"finger_time":1552313931725,"fix_duration":250,"trial":10,"RT":547,"MT":739,"sideResp":1,"stimulus":"img/900/equaldotsize/R/15_Ratio_900_L_9_R_10.png","xmouse":[795,795,795,795,795,795,795,795,795,795,795,795,795,795,795,795,795,795,795,795,795,795,795,794,784,771,757,740,721,694,688,682,674,668,652,646,638,631,625,623,622,620,618,610,606,603,599,597,591,570,558,546,537,524,499,485,474,467,462,462,461,461,461,461,463],"ymouse":[509,509,509,509,509,509,509,509,509,509,509,509,511,512,513,513,513,513,513,513,513,513,513,514,503,488,472,454,439,414,406,397,387,381,366,360,352,342,324,317,304,291,272,234,225,220,215,212,207,193,184,176,170,162,148,141,137,133,130,130,128,123,117,102,1],"timestamp_mouse":[9,26,64,66,86,107,127,146,167,187,206,227,247,267,286,307,326,346,367,386,406,427,447,466,486,507,527,547,567,587,606,627,646,666,686,707,727,746,768,786,806,826,847,868,886,907,927,946,967,987,1006,1026,1046,1067,1087,1107,1127,1147,1167,1187,1206,1226,1247,1268,1286],"xSR":741.5,"ySR":469.95,"xT1":424.9,"yT1":0,"xT2":1058.1,"yT2":0,"toosoon":0,"cond_shown":"equaldotsize","ratio_trial":900,"smaller_num":"9","larger_num":"10","correct_side":2,"subjID":"samuelcruz26","gender":"0","age":"9","school":"4"},{"start_time":1552313934165,"click_time":1552313935125,"finger_time":1552313934305,"fix_duration":418.4299889474009,"trial":11,"RT":140,"MT":820,"sideResp":2,"stimulus":"img/750/equaldotsize/R/4_Ratio_750_L_15_R_20.png","xmouse":[835,835,835,835,837,841,845,848,851,852,852,852,852,852,856,861,868,876,884,903,907,908,908,905,903,904,909,917,927,948,956,963,970,982,1000,1005,1009,1013,1017,1025,1032,1041,1052,1061,1070,1075,1081,1087],"ymouse":[476,476,476,476,476,473,468,464,460,458,458,458,458,458,451,444,435,420,403,360,341,327,314,291,266,256,242,228,212,187,177,168,159,151,143,140,137,134,131,125,122,119,116,114,109,106,101,95],"timestamp_mouse":[37,39,60,80,100,119,140,159,180,199,219,240,260,279,300,319,339,360,379,400,419,441,459,479,500,519,540,559,581,599,620,639,660,679,700,720,740,761,780,799,819,840,860,880,899,920,939,959],"xSR":741.5,"ySR":469.95,"xT1":424.9,"yT1":0,"xT2":1058.1,"yT2":0,"toosoon":0,"cond_shown":"equaldotsize","ratio_trial":750,"smaller_num":"15","larger_num":"20","correct_side":2,"subjID":"samuelcruz26","gender":"0","age":"9","school":"4"},{"start_time":1552313953991,"click_time":1552313960471,"finger_time":1552313960112,"fix_duration":1299.2254897953605,"trial":12,"RT":6121,"MT":359,"sideResp":1,"stimulus":"img/750/equaldotsize/L/13_Ratio_750_L_8_R_6.png","xmouse":[796,796,794,790,789,789,789,788,787,786,785,783,781,780,780,780,780,780,780,780,781,786,798,798,798,798,798,798,798,798,798,798,798,798,798,798,798,798,798,798,798,798,798,798,798,798,798,798,798,798,798,798,798,798,798,798,798,798,798,798,798,798,798,798,798,798,798,798,798,798,798,798,798,798,798,798,798,798,798,798,798,798,798,798,798,798,798,798,798,798,798,798,798,798,798,798,798,798,798,798,798,798,798,798,798,798,798,798,798,798,798,798,798,798,798,798,798,798,798,798,798,798,798,798,798,798,798,798,798,798,798,798,798,798,798,798,798,798,798,798,798,798,798,798,798,798,798,798,798,798,798,798,798,798,798,798,798,798,798,798,798,798,798,798,798,798,798,798,798,798,798,798,798,798,798,798,798,798,798,798,798,798,798,798,798,798,798,798,798,798,798,798,798,798,798,798,798,798,798,798,798,798,798,798,798,798,798,798,798,798,798,798,798,798,798,798,798,798,798,798,798,798,798,798,798,798,798,798,798,798,798,798,798,798,798,798,798,798,798,798,798,798,798,798,798,798,798,798,798,798,798,798,798,801,804,806,807,807,807,810,815,827,831,839,839,839,839,839,833,822,813,810,809,805,802,801,801,801,801,801,801,801,800,799,797,795,795,795,795,793,792,788,788,788,788,787,786,786,786,784,782,776,775,766,764,761,755,739,727,710,687,662,630,575,568,563,561,559,551,543,536,527,516,502],"ymouse":[520,520,521,523,524,524,524,525,526,527,529,532,534,535,535,535,535,535,535,535,536,536,542,545,545,545,545,545,545,545,545,545,545,545,545,546,546,546,546,546,546,546,546,546,546,546,546,546,546,546,546,546,546,546,546,546,546,546,546,546,546,546,546,546,546,546,546,546,546,546,546,546,546,546,546,546,546,546,546,546,546,546,546,546,546,546,546,546,546,546,546,546,546,546,546,546,546,546,546,546,546,546,546,546,546,546,546,546,546,546,546,546,546,546,546,546,546,546,546,546,546,546,546,546,546,546,546,546,546,546,546,546,546,546,546,546,546,546,546,546,546,546,546,546,546,546,546,546,546,546,546,546,546,546,546,546,546,546,546,546,546,546,546,546,546,546,546,546,546,546,546,546,546,546,546,546,546,546,546,546,546,546,546,546,546,546,546,546,546,546,546,546,546,546,546,546,546,546,546,546,546,546,546,546,546,546,546,546,546,546,546,546,546,546,546,546,546,546,546,546,546,546,546,546,546,546,546,546,546,546,546,546,546,546,546,546,546,546,546,546,546,546,546,546,546,546,546,546,546,546,546,546,547,552,554,556,557,557,557,557,550,537,533,524,524,524,524,524,527,541,552,555,555,560,561,561,561,561,561,561,561,561,561,553,549,546,545,545,543,540,533,524,523,523,523,521,521,521,520,517,513,501,497,478,471,461,448,413,392,361,335,311,284,249,244,240,236,230,205,188,173,157,130,94],"timestamp_mouse":[1,20,60,79,100,120,140,161,180,199,220,240,259,280,300,320,340,360,379,401,420,439,460,480,500,521,541,560,579,600,621,640,661,681,700,719,740,761,780,801,820,840,860,880,899,921,940,961,981,999,1020,1041,1060,1081,1100,1120,1139,1159,1179,1199,1221,1241,1261,1279,1299,1319,1340,1360,1380,1401,1421,1440,1459,1479,1501,1521,1540,1560,1580,1601,1621,1640,1660,1681,1700,1720,1740,1759,1779,1799,1819,1840,1860,1880,1900,1920,1941,1959,1979,1999,2019,2039,2059,2079,2100,2120,2141,2161,2181,2200,2220,2240,2260,2280,2300,2320,2340,2360,2381,2401,2421,2441,2460,2480,2500,2519,2541,2559,2581,2601,2620,2639,2660,2680,2701,2720,2739,2759,2781,2800,2821,2839,2860,2880,2899,2919,2940,2960,2981,3000,3020,3040,3061,3081,3100,3120,3139,3160,3180,3200,3219,3240,3260,3280,3300,3319,3340,3359,3379,3399,3420,3441,3460,3480,3501,3519,3541,3561,3580,3599,3620,3641,3660,3680,3700,3720,3739,3761,3779,3799,3821,3841,3860,3879,3899,3921,3941,3960,3979,4000,4020,4041,4059,4081,4099,4120,4141,4161,4181,4201,4219,4240,4260,4280,4300,4320,4339,4360,4381,4401,4421,4439,4460,4481,4499,4519,4541,4560,4581,4600,4621,4641,4660,4679,4701,4720,4739,4761,4781,4800,4819,4840,4861,4881,4899,4920,4940,4961,4981,5000,5021,5041,5059,5080,5099,5119,5141,5161,5180,5200,5220,5240,5261,5280,5299,5321,5341,5360,5379,5400,5420,5441,5460,5480,5500,5520,5541,5559,5579,5599,5619,5639,5660,5681,5700,5720,5739,5760,5779,5800,5820,5839,5861,5880,5899,5920,5941,5960,5980,6000,6020,6039,6061,6079,6100,6121,6141,6162,6180,6199,6221,6240,6261,6280,6300,6321,6340,6360,6380,6399,6419,6440,6460,6480],"xSR":741.5,"ySR":469.95,"xT1":424.9,"yT1":0,"xT2":1058.1,"yT2":0,"toosoon":0,"cond_shown":"equaldotsize","ratio_trial":750,"smaller_num":"6","larger_num":"8","correct_side":1,"subjID":"samuelcruz26","gender":"0","age":"9","school":"4"},{"start_time":1552313961762,"click_time":1552313962992,"finger_time":1552313962090,"fix_duration":250,"trial":13,"RT":328,"MT":902,"sideResp":2,"stimulus":"img/500/randomdotsizeEA/R/12_Ratio_500_L_1_R_2.png","xmouse":[791,791,791,791,791,791,791,791,791,790,789,789,789,788,788,788,788,788,788,787,787,787,787,787,787,787,787,787,790,797,832,859,893,919,940,963,963,963,963,963,964,966,969,970,971,971,971,971,971,971,971,971,971,971,972,979,993,1006,1021,1031,1056,1073],"ymouse":[517,517,517,517,517,517,517,517,517,518,518,518,518,518,514,486,466,449,438,434,432,432,432,431,431,431,431,430,427,422,395,370,343,323,304,273,272,272,272,272,264,251,238,228,218,213,211,211,210,209,202,200,197,195,191,177,157,142,125,110,85,67],"timestamp_mouse":[13,39,48,69,90,110,130,148,168,189,209,230,249,269,288,309,328,348,369,390,409,430,450,468,490,509,529,549,569,589,609,629,648,669,689,710,730,750,769,789,808,829,850,869,889,910,928,948,969,990,1009,1029,1049,1070,1089,1109,1129,1149,1170,1190,1209,1230],"xSR":741.5,"ySR":469.95,"xT1":424.9,"yT1":0,"xT2":1058.1,"yT2":0,"toosoon":0,"cond_shown":"randomdotsizeEA","ratio_trial":500,"smaller_num":"1","larger_num":"2","correct_side":2,"subjID":"samuelcruz26","gender":"0","age":"9","school":"4"},{"start_time":1552313964601,"click_time":1552313966571,"finger_time":1552313965251,"fix_duration":487.884437808232,"trial":14,"RT":650,"MT":1320,"sideResp":2,"stimulus":"img/250/randomdotsizeEA/R/12_Ratio_250_L_5_R_20.png","xmouse":[772,772,772,772,772,775,784,796,803,803,803,803,803,803,803,803,803,803,804,805,807,807,807,807,807,807,807,807,807,807,807,810,816,877,923,956,969,972,973,973,973,973,973,968,965,960,957,953,948,938,916,878,823,804,804,804,804,648,499,481,479,479,479,486,515,587,688,791,963,1000,1017,1036,1054,1103,1125,1142,1151,1155,1159,1161,1163,1163,1163,1156,1147,1136,1126,1116,1112,1113,1118,1125,1129,1132,1133,1135,1138,1142,1144],"ymouse":[536,535,535,535,534,532,521,509,504,504,504,504,504,504,504,504,504,504,501,490,485,485,485,485,485,485,485,485,485,485,485,475,444,213,115,68,56,56,55,55,55,55,55,64,66,68,68,68,69,69,64,49,16,4,4,4,4,40,246,291,305,306,306,307,306,301,301,315,325,325,317,313,310,297,292,286,282,279,275,273,269,264,255,235,219,204,191,179,155,144,132,120,116,113,112,111,109,105,94],"timestamp_mouse":[16,32,53,70,89,110,131,150,170,191,210,231,250,271,290,310,330,350,370,389,410,431,451,470,491,510,529,549,570,590,609,631,650,670,690,710,730,749,769,791,810,831,850,870,891,911,930,949,969,991,1011,1031,1050,1071,1090,1110,1131,1150,1171,1190,1210,1230,1249,1269,1291,1310,1331,1349,1370,1390,1411,1431,1451,1469,1490,1510,1530,1550,1570,1590,1611,1630,1652,1670,1690,1710,1730,1750,1769,1789,1811,1830,1851,1871,1890,1910,1931,1950,1970],"xSR":741.5,"ySR":469.95,"xT1":424.9,"yT1":0,"xT2":1058.1,"yT2":0,"toosoon":0,"cond_shown":"randomdotsizeEA","ratio_trial":250,"smaller_num":"5","larger_num":"20","correct_side":2,"subjID":"samuelcruz26","gender":"0","age":"9","school":"4"},{"start_time":1552313969185,"click_time":1552313970571,"finger_time":1552313969872,"fix_duration":250,"trial":15,"RT":687,"MT":699,"sideResp":2,"stimulus":"img/500/equaldotsize/R/6_Ratio_500_L_9_R_18.png","xmouse":[772,772,772,772,772,774,776,779,781,783,783,783,783,783,783,783,785,786,787,788,788,788,788,788,788,788,788,788,788,788,788,788,789,797,818,834,862,906,973,1127,1199,1245,1262,1262,1262,1262,1263,1263,1263,1258,1253,1244,1238,1233,1226,1221,1219,1213,1202,1184,1179,1178,1175,1172,1167,1165,1163,1160,1159,1150],"ymouse":[518,518,518,518,518,516,512,509,508,506,506,506,506,506,506,506,505,503,503,502,502,502,502,502,502,502,502,502,502,502,502,501,500,488,463,449,427,398,356,241,184,153,140,140,139,132,119,105,91,71,63,52,45,39,35,34,33,33,33,33,33,33,33,34,36,38,40,42,43,48],"timestamp_mouse":[12,35,47,65,85,106,125,146,166,185,206,227,247,266,287,306,327,346,366,387,406,426,445,466,486,505,526,547,567,585,606,626,646,666,687,705,726,746,765,786,807,826,846,865,885,906,926,947,966,986,1006,1026,1046,1066,1086,1106,1126,1147,1166,1185,1205,1227,1246,1267,1286,1307,1326,1346,1366,1386],"xSR":741.5,"ySR":469.95,"xT1":424.9,"yT1":0,"xT2":1058.1,"yT2":0,"toosoon":0,"cond_shown":"equaldotsize","ratio_trial":500,"smaller_num":"9","larger_num":"18","correct_side":2,"subjID":"samuelcruz26","gender":"0","age":"9","school":"4"},{"start_time":1552313972559,"click_time":1552313973850,"finger_time":1552313973192,"fix_duration":966.7383449093638,"trial":16,"RT":633,"MT":658,"sideResp":2,"stimulus":"img/500/equaldotanddens/R/9_Ratio_500_L_2_R_4.png","xmouse":[812,812,812,812,812,812,812,812,812,812,812,812,812,812,812,812,812,812,812,812,812,812,812,810,809,809,809,809,809,809,811,816,824,831,840,866,881,896,912,925,931,931,931,931,931,931,931,931,931,936,965,985,1007,1021,1031,1071,1083,1091,1096,1098,1103,1106,1110,1112,1114],"ymouse":[519,519,519,519,519,519,519,519,519,519,519,519,519,519,519,519,519,519,519,519,519,519,519,515,513,513,513,513,512,510,476,438,389,334,287,218,199,177,154,138,129,129,129,129,129,129,129,129,129,132,149,157,159,159,154,134,129,124,120,117,109,106,102,100,93],"timestamp_mouse":[21,49,52,71,91,113,131,152,172,192,213,231,253,272,292,311,332,353,373,392,413,431,451,473,491,512,532,552,572,592,611,633,653,673,693,712,732,752,772,792,812,832,851,871,893,912,932,952,972,992,1011,1033,1052,1073,1092,1112,1132,1152,1172,1192,1212,1232,1252,1272,1291],"xSR":741.5,"ySR":469.95,"xT1":424.9,"yT1":0,"xT2":1058.1,"yT2":0,"toosoon":0,"cond_shown":"equaldotanddens","ratio_trial":500,"smaller_num":"2","larger_num":"4","correct_side":2,"subjID":"samuelcruz26","gender":"0","age":"9","school":"4"},{"start_time":1552314003471,"click_time":1552314004571,"finger_time":1552314003851,"fix_duration":999.1282394962503,"trial":17,"RT":380,"MT":720,"sideResp":2,"stimulus":"img/750/equaldotanddens/R/2_Ratio_750_L_6_R_8.png","xmouse":[785,785,785,785,785,785,785,785,785,785,785,785,785,785,785,783,780,779,777,772,766,762,760,760,759,773,781,788,807,833,896,928,947,959,966,980,981,982,982,982,983,985,986,989,992,998,1005,1020,1032,1039,1043,1047,1052,1057,1061,1066],"ymouse":[534,534,534,534,534,534,534,534,534,534,534,534,531,529,528,517,508,499,485,461,437,428,423,418,403,375,366,357,336,314,257,230,213,197,185,158,153,149,147,143,135,130,127,124,122,119,117,113,109,108,107,105,104,102,100,97],"timestamp_mouse":[10,35,40,61,80,100,120,140,159,180,201,220,241,260,280,300,320,341,360,380,400,420,440,460,480,500,520,540,559,580,600,620,640,660,680,700,719,740,761,781,800,820,840,860,879,899,920,940,960,981,1000,1020,1040,1060,1080,1099],"xSR":741.5,"ySR":469.95,"xT1":424.9,"yT1":0,"xT2":1058.1,"yT2":0,"toosoon":0,"cond_shown":"equaldotanddens","ratio_trial":750,"smaller_num":"6","larger_num":"8","correct_side":2,"subjID":"samuelcruz26","gender":"0","age":"9","school":"4"},{"start_time":1552314007479,"click_time":1552314008771,"finger_time":1552314007850,"fix_duration":307.89981661326857,"trial":18,"RT":371,"MT":921,"sideResp":1,"stimulus":"img/900/equaldotsize/L/4_Ratio_900_L_20_R_18.png","xmouse":[774,774,774,774,774,774,774,774,774,774,774,774,774,774,774,767,762,747,735,709,697,685,672,662,649,644,640,637,633,621,614,606,600,596,591,589,585,578,571,559,559,559,559,558,554,552,552,551,550,550,549,549,547,545,542,537,532,530,500,490,482,476,472,459,437],"ymouse":[542,542,542,542,542,542,542,542,542,542,542,542,542,542,542,534,526,508,493,465,452,445,439,434,425,416,407,397,387,351,333,315,298,280,253,244,234,217,204,190,190,190,189,185,173,167,165,164,162,159,158,158,156,154,151,151,151,150,143,140,136,131,126,111,85],"timestamp_mouse":[13,47,53,72,91,112,132,152,173,191,211,232,253,271,291,312,332,353,371,392,412,432,452,472,492,513,532,552,573,592,612,632,652,673,691,712,732,752,773,792,812,833,851,872,892,912,932,953,972,993,1012,1032,1052,1072,1092,1112,1132,1152,1174,1192,1213,1232,1252,1272,1292],"xSR":741.5,"ySR":469.95,"xT1":424.9,"yT1":0,"xT2":1058.1,"yT2":0,"toosoon":0,"cond_shown":"equaldotsize","ratio_trial":900,"smaller_num":"18","larger_num":"20","correct_side":1,"subjID":"samuelcruz26","gender":"0","age":"9","school":"4"},{"start_time":1552314014661,"click_time":1552314015336,"finger_time":1552314015054,"fix_duration":723.4214766235901,"trial":19,"RT":393,"MT":282,"sideResp":2,"stimulus":"img/250/equaldotanddens/R/11_Ratio_250_L_3_R_12.png","xmouse":[798,798,798,798,798,798,798,798,798,798,798,798,798,798,798,798,797,797,799,803,825,842,855,865,869,875,882,894,922,973,1082,1097,1104,1107],"ymouse":[509,509,509,509,509,509,509,509,509,509,509,509,509,509,509,509,507,504,486,463,376,331,303,292,290,285,276,261,244,215,143,123,107,98],"timestamp_mouse":[14,43,54,74,95,114,134,154,173,194,215,234,254,275,293,313,333,354,375,393,414,434,455,474,495,514,535,555,574,593,613,634,654,675],"xSR":741.5,"ySR":469.95,"xT1":424.9,"yT1":0,"xT2":1058.1,"yT2":0,"toosoon":0,"cond_shown":"equaldotanddens","ratio_trial":250,"smaller_num":"3","larger_num":"12","correct_side":2,"subjID":"samuelcruz26","gender":"0","age":"9","school":"4"},{"start_time":1552314019567,"click_time":1552314020916,"finger_time":1552314020295,"fix_duration":370.9102908588868,"trial":20,"RT":728,"MT":621,"sideResp":1,"stimulus":"img/250/equaldotsize/L/2_Ratio_250_L_16_R_4.png","xmouse":[787,787,787,787,787,787,787,787,787,787,787,787,787,787,787,787,787,787,787,787,787,787,787,787,787,787,787,787,787,787,787,787,786,780,752,733,714,702,693,684,680,676,668,656,632,627,622,617,617,617,621,621,621,620,606,591,578,571,571,570,568,560,550,536,530,525,514],"ymouse":[535,535,535,535,535,535,535,535,535,535,535,535,535,535,535,535,535,535,535,535,535,535,535,535,535,535,535,535,535,535,535,535,532,523,477,458,437,425,413,401,397,393,388,381,366,354,334,295,240,145,117,104,100,100,89,82,77,76,76,76,76,76,77,77,77,77,77],"timestamp_mouse":[14,48,68,89,109,129,148,168,188,208,228,248,268,288,308,328,348,367,387,409,429,448,467,489,509,527,549,568,587,607,627,647,668,688,707,728,748,772,788,807,828,848,869,888,908,928,948,969,988,1008,1028,1049,1068,1088,1107,1127,1147,1167,1187,1208,1228,1249,1268,1288,1309,1328,1349],"xSR":741.5,"ySR":469.95,"xT1":424.9,"yT1":0,"xT2":1058.1,"yT2":0,"toosoon":0,"cond_shown":"equaldotsize","ratio_trial":250,"smaller_num":"4","larger_num":"16","correct_side":1,"subjID":"samuelcruz26","gender":"0","age":"9","school":"4"},{"start_time":1552314022926,"click_time":1552314024935,"finger_time":1552314023674,"fix_duration":1150.2930629894902,"trial":21,"RT":748,"MT":1261,"sideResp":1,"stimulus":"img/500/equaldotsize/R/14_Ratio_500_L_5_R_10.png","xmouse":[780,780,780,780,780,780,780,780,780,780,780,780,780,780,780,780,780,780,780,780,780,780,780,780,780,780,780,780,780,780,780,780,780,780,780,780,778,776,774,774,774,773,770,764,756,746,736,700,681,667,651,638,613,605,595,588,580,577,576,576,576,576,573,571,571,571,571,569,565,559,553,546,521,504,489,476,453,453,453,453,453,453,452,452,452,452,452,452,452,452,452,452,452,452,452,452,452,452,453,458,463],"ymouse":[527,527,527,527,527,527,527,527,527,527,527,527,527,527,527,527,527,527,527,527,525,520,517,514,510,506,503,500,499,499,497,496,490,487,482,478,471,463,454,445,430,412,375,357,338,321,307,268,251,237,226,218,205,199,192,187,183,181,179,174,167,160,133,114,104,103,103,101,101,101,101,101,108,112,114,114,114,114,114,114,114,114,112,109,108,108,108,108,108,108,108,108,108,108,108,108,108,108,105,100,95],"timestamp_mouse":[9,39,50,70,88,109,129,149,168,190,209,229,249,270,289,309,330,349,368,389,408,430,449,469,489,510,529,549,570,590,609,628,648,669,689,709,728,748,769,789,809,828,848,869,888,908,929,948,969,989,1009,1030,1049,1069,1089,1108,1128,1149,1169,1188,1210,1229,1249,1269,1289,1309,1329,1348,1369,1389,1409,1429,1449,1469,1489,1509,1530,1548,1569,1589,1609,1630,1649,1669,1689,1709,1729,1748,1769,1789,1809,1830,1849,1870,1890,1909,1930,1949,1969,1990,2009],"xSR":741.5,"ySR":469.95,"xT1":424.9,"yT1":0,"xT2":1058.1,"yT2":0,"toosoon":0,"cond_shown":"equaldotsize","ratio_trial":500,"smaller_num":"5","larger_num":"10","correct_side":2,"subjID":"samuelcruz26","gender":"0","age":"9","school":"4"},{"start_time":1552314032062,"click_time":1552314033195,"finger_time":1552314032416,"fix_duration":605.5020452798967,"trial":22,"RT":354,"MT":779,"sideResp":1,"stimulus":"img/250/randomdotsizeEA/L/15_Ratio_250_L_12_R_3.png","xmouse":[792,792,792,792,792,792,792,792,793,793,794,796,796,798,802,805,808,813,815,818,820,825,833,839,846,848,849,851,851,847,844,841,838,816,797,779,767,762,757,711,678,652,619,590,590,590,590,590,590,590,590,590,590,590,590,426],"ymouse":[530,530,530,530,530,530,530,529,527,522,517,511,504,496,484,475,466,452,448,440,435,420,397,370,326,312,303,298,294,282,277,273,271,263,261,259,257,255,250,194,142,104,55,14,14,14,14,14,14,14,14,14,14,14,14,7],"timestamp_mouse":[13,58,73,94,112,134,154,174,193,212,233,254,273,294,313,334,354,373,393,413,432,453,473,493,512,532,553,573,592,612,633,653,673,695,712,732,753,773,793,813,833,853,873,895,914,933,953,973,993,1013,1033,1053,1073,1093,1113,1133],"xSR":741.5,"ySR":469.95,"xT1":424.9,"yT1":0,"xT2":1058.1,"yT2":0,"toosoon":0,"cond_shown":"randomdotsizeEA","ratio_trial":250,"smaller_num":"3","larger_num":"12","correct_side":1,"subjID":"samuelcruz26","gender":"0","age":"9","school":"4"},{"start_time":1552314034977,"click_time":1552314036115,"finger_time":1552314035515,"fix_duration":259.31601766097003,"trial":23,"RT":538,"MT":600,"sideResp":2,"stimulus":"img/750/equaldotanddens/R/4_Ratio_750_L_15_R_20.png","xmouse":[798,798,798,798,798,798,798,798,798,798,798,798,798,798,798,798,798,798,798,799,799,799,800,801,803,818,833,858,891,970,997,1009,1014,1015,1016,1020,1022,1023,1023,1025,1027,1029,1029,1029,1029,1029,1029,1029,1030,1035,1037,1039,1041,1043,1046,1051,1056,1059],"ymouse":[537,537,537,537,537,537,537,537,537,537,537,537,537,537,537,537,537,537,537,536,535,533,532,530,527,499,472,432,371,230,170,139,122,115,105,82,75,64,48,18,11,9,9,9,9,9,9,9,9,21,28,32,36,42,46,55,62,66],"timestamp_mouse":[1,18,45,58,79,99,117,139,157,178,199,217,237,259,278,298,318,337,358,378,398,418,438,457,477,497,517,538,558,580,597,617,638,657,677,697,718,738,758,779,798,819,838,857,877,898,919,938,958,980,997,1018,1038,1059,1078,1097,1117,1138],"xSR":741.5,"ySR":469.95,"xT1":424.9,"yT1":0,"xT2":1058.1,"yT2":0,"toosoon":0,"cond_shown":"equaldotanddens","ratio_trial":750,"smaller_num":"15","larger_num":"20","correct_side":2,"subjID":"samuelcruz26","gender":"0","age":"9","school":"4"},{"start_time":1552314038057,"click_time":1552314039295,"finger_time":1552314038775,"fix_duration":600.7588824017798,"trial":24,"RT":718,"MT":520,"sideResp":2,"stimulus":"img/500/equaldotanddens/R/3_Ratio_500_L_10_R_20.png","xmouse":[808,808,808,808,808,808,808,808,808,808,808,808,808,808,808,808,808,808,808,808,808,808,808,808,808,808,808,808,808,808,808,808,809,817,839,926,961,983,996,1024,1032,1037,1038,1038,1040,1040,1041,1041,1041,1041,1041,1041,1041,1041,1041,1041,1041,1041,1041,1043,1058,1072],"ymouse":[535,535,535,535,535,535,535,535,535,535,535,535,535,535,535,535,535,535,535,535,535,535,535,535,535,535,535,535,535,535,535,535,528,520,489,404,365,333,306,208,156,120,98,84,64,56,51,48,47,46,46,46,46,46,46,46,46,46,46,45,50,57],"timestamp_mouse":[18,56,57,78,97,119,139,157,178,198,219,238,258,277,297,317,338,359,377,397,418,438,459,478,497,518,539,559,577,599,619,637,658,678,698,718,738,759,779,799,817,838,858,878,899,917,939,959,978,998,1019,1039,1058,1077,1099,1118,1138,1158,1178,1198,1217,1238],"xSR":741.5,"ySR":469.95,"xT1":424.9,"yT1":0,"xT2":1058.1,"yT2":0,"toosoon":0,"cond_shown":"equaldotanddens","ratio_trial":500,"smaller_num":"10","larger_num":"20","correct_side":2,"subjID":"samuelcruz26","gender":"0","age":"9","school":"4"},{"start_time":1552314041045,"click_time":1552314042475,"finger_time":1552314041656,"fix_duration":869.2781692005987,"trial":25,"RT":611,"MT":819,"sideResp":1,"stimulus":"img/250/equaldotsize/L/14_Ratio_250_L_12_R_3.png","xmouse":[802,802,802,802,802,802,802,803,803,803,803,804,804,804,804,804,804,804,804,804,804,804,804,804,804,807,808,809,810,810,801,785,765,747,733,722,698,681,662,643,624,615,614,612,607,599,593,589,586,571,560,421,372,346,334,333,333,333,333,337,344,369,378,387,398,402,402,404,406,410,416,433],"ymouse":[529,529,530,530,530,530,530,530,530,530,530,531,531,531,531,531,531,531,531,531,531,531,531,531,531,528,526,522,515,502,396,337,288,252,224,202,161,137,114,99,83,75,75,75,74,73,72,72,71,67,64,32,25,18,15,15,15,15,15,15,22,43,50,53,59,61,61,61,61,61,62,62],"timestamp_mouse":[9,39,51,71,90,111,130,149,170,190,211,231,251,269,289,309,331,350,371,391,409,430,449,471,490,511,530,550,570,590,611,629,650,670,690,710,730,750,770,789,809,829,850,870,891,911,929,951,970,989,1009,1029,1050,1070,1091,1110,1129,1150,1170,1189,1211,1230,1250,1270,1290,1311,1330,1350,1371,1390,1410,1430],"xSR":741.5,"ySR":469.95,"xT1":424.9,"yT1":0,"xT2":1058.1,"yT2":0,"toosoon":0,"cond_shown":"equaldotsize","ratio_trial":250,"smaller_num":"3","larger_num":"12","correct_side":1,"subjID":"samuelcruz26","gender":"0","age":"9","school":"4"},{"start_time":1552314043347,"click_time":1552314044435,"finger_time":1552314044175,"fix_duration":250,"trial":26,"RT":828,"MT":260,"sideResp":2,"stimulus":"img/500/randomdotsizeEA/R/9_Ratio_500_L_2_R_4.png","xmouse":[761,761,761,761,761,761,761,761,761,761,758,758,758,758,758,758,758,758,758,758,758,758,758,758,758,758,758,758,758,758,758,758,758,758,758,758,758,758,760,768,782,852,911,960,1001,1009,1031,1034,1036,1037,1040,1051,1056,1059,1061],"ymouse":[535,535,535,535,535,535,535,535,532,528,522,522,522,522,522,522,522,522,522,522,522,522,522,522,522,522,522,522,522,522,522,522,522,522,522,522,522,522,518,511,500,429,369,312,263,253,213,205,200,195,184,150,132,114,96],"timestamp_mouse":[8,27,63,68,87,107,127,148,169,188,209,227,248,269,288,308,328,348,367,388,409,428,448,469,488,507,528,548,568,589,608,627,647,669,688,709,727,747,769,789,807,828,848,868,887,908,927,948,968,988,1009,1028,1049,1068,1088],"xSR":741.5,"ySR":469.95,"xT1":424.9,"yT1":0,"xT2":1058.1,"yT2":0,"toosoon":0,"cond_shown":"randomdotsizeEA","ratio_trial":500,"smaller_num":"2","larger_num":"4","correct_side":2,"subjID":"samuelcruz26","gender":"0","age":"9","school":"4"},{"start_time":1552314046043,"click_time":1552314047015,"finger_time":1552314046595,"fix_duration":766.1571123698174,"trial":27,"RT":552,"MT":420,"sideResp":2,"stimulus":"img/500/equaldotanddens/R/14_Ratio_500_L_5_R_10.png","xmouse":[783,783,783,783,783,783,783,783,783,783,783,783,783,783,783,783,783,783,783,783,783,783,783,783,783,784,809,867,974,1091,1193,1217,1217,1213,1203,1192,1177,1176,1176,1176,1176,1176,1176,1176,1176,1176,1176,1176,1117],"ymouse":[542,542,542,542,542,542,542,542,542,542,542,542,542,542,542,542,542,542,542,542,542,542,542,542,541,540,502,435,326,207,88,49,43,35,25,16,3,1,1,1,1,1,1,1,1,1,1,1,12],"timestamp_mouse":[13,32,52,71,91,111,132,152,172,192,211,233,252,272,291,312,333,353,372,393,412,432,451,472,492,512,532,552,572,592,612,632,652,671,691,712,732,752,772,793,812,832,852,872,892,911,932,953,972],"xSR":741.5,"ySR":469.95,"xT1":424.9,"yT1":0,"xT2":1058.1,"yT2":0,"toosoon":0,"cond_shown":"equaldotanddens","ratio_trial":500,"smaller_num":"5","larger_num":"10","correct_side":2,"subjID":"samuelcruz26","gender":"0","age":"9","school":"4"},{"start_time":1552314048540,"click_time":1552314049775,"finger_time":1552314049075,"fix_duration":624.5539573990037,"trial":28,"RT":535,"MT":700,"sideResp":1,"stimulus":"img/750/randomdotsizeEA/L/14_Ratio_750_L_8_R_6.png","xmouse":[796,796,796,796,796,796,796,796,796,796,796,796,796,796,796,796,796,796,796,796,796,796,796,796,796,796,796,796,796,796,796,796,796,791,784,771,762,751,740,728,706,702,700,698,696,692,683,676,666,655,631,618,605,589,576,563,553,548,542,536,528,519],"ymouse":[508,508,508,508,508,508,508,508,508,508,508,508,508,508,508,508,508,508,508,508,508,508,507,502,481,473,448,444,441,441,440,433,423,411,396,366,347,323,295,266,215,204,202,200,196,190,179,175,169,165,159,156,152,150,147,141,130,123,117,113,109,99],"timestamp_mouse":[16,50,55,74,96,115,134,156,175,195,216,234,255,276,295,315,335,354,376,395,415,436,455,475,495,515,535,555,575,595,615,635,655,676,696,716,735,755,776,795,816,834,855,875,896,915,935,954,974,994,1015,1034,1056,1075,1096,1115,1134,1155,1174,1195,1214,1235],"xSR":741.5,"ySR":469.95,"xT1":424.9,"yT1":0,"xT2":1058.1,"yT2":0,"toosoon":0,"cond_shown":"randomdotsizeEA","ratio_trial":750,"smaller_num":"6","larger_num":"8","correct_side":1,"subjID":"samuelcruz26","gender":"0","age":"9","school":"4"},{"start_time":1552314051792,"click_time":1552314052856,"finger_time":1552314052214,"fix_duration":1255.3729252576568,"trial":29,"RT":422,"MT":642,"sideResp":2,"stimulus":"img/500/randomdotsizeEA/R/2_Ratio_500_L_3_R_6.png","xmouse":[775,775,775,775,775,775,775,775,775,775,775,775,775,775,775,775,775,775,782,789,797,807,818,829,851,857,864,869,885,892,904,918,932,947,953,953,953,953,953,953,954,956,960,968,985,988,993,998,1002,1011,1015,1022,1032,1078],"ymouse":[501,501,501,501,501,501,501,501,501,501,501,501,501,501,501,501,501,501,498,488,476,459,441,425,392,380,368,355,327,309,287,263,239,212,201,201,201,201,201,201,200,197,192,181,156,147,136,127,119,106,98,87,71,12],"timestamp_mouse":[18,27,42,64,84,103,122,142,163,183,203,223,244,262,283,302,324,343,364,383,403,422,442,463,482,503,523,543,565,582,604,623,643,663,683,702,722,743,763,783,803,822,843,863,883,903,924,943,963,983,1003,1023,1044,1063],"xSR":741.5,"ySR":469.95,"xT1":424.9,"yT1":0,"xT2":1058.1,"yT2":0,"toosoon":0,"cond_shown":"randomdotsizeEA","ratio_trial":500,"smaller_num":"3","larger_num":"6","correct_side":2,"subjID":"samuelcruz26","gender":"0","age":"9","school":"4"},{"start_time":1552314056906,"click_time":1552314058135,"finger_time":1552314057375,"fix_duration":1349.7271068726843,"trial":30,"RT":469,"MT":760,"sideResp":1,"stimulus":"img/900/equaldotsize/L/4_Ratio_900_L_20_R_18.png","xmouse":[790,790,789,789,789,789,789,789,789,789,789,789,789,789,789,789,789,789,789,789,789,801,815,823,830,833,835,838,838,838,838,838,834,831,828,824,819,816,815,815,815,815,832,843,852,862,873,870,863,861,858,854,846,837,823,801,737,636,587,549,518],"ymouse":[507,507,506,506,506,506,506,506,506,506,506,506,506,506,506,506,506,506,506,505,504,471,437,409,381,362,350,326,319,314,309,304,294,292,290,288,285,284,284,284,282,274,215,192,175,148,95,21,16,14,12,11,9,8,6,4,4,4,4,4,4],"timestamp_mouse":[10,54,69,89,109,130,150,168,189,208,230,250,270,289,310,329,350,368,390,410,429,450,469,489,508,529,549,569,589,608,630,649,668,689,709,729,748,769,790,810,829,849,868,889,908,929,949,970,988,1009,1029,1048,1068,1088,1109,1129,1149,1168,1189,1209,1229],"xSR":741.5,"ySR":469.95,"xT1":424.9,"yT1":0,"xT2":1058.1,"yT2":0,"toosoon":0,"cond_shown":"equaldotsize","ratio_trial":900,"smaller_num":"18","larger_num":"20","correct_side":1,"subjID":"samuelcruz26","gender":"0","age":"9","school":"4"},{"start_time":1552314060973,"click_time":1552314061835,"finger_time":1552314061654,"fix_duration":1197.7019962093145,"trial":31,"RT":681,"MT":181,"sideResp":2,"stimulus":"img/250/equaldotanddens/R/13_Ratio_250_L_2_R_8.png","xmouse":[776,776,776,776,776,776,776,776,776,776,776,776,776,776,776,776,776,776,776,776,776,777,777,777,777,777,777,777,777,777,777,777,791,811,859,996,1047,1086,1109,1125,1132,1132,1132,1128],"ymouse":[527,527,527,527,527,527,527,527,527,527,527,527,527,527,527,527,527,527,527,526,524,523,523,523,523,523,523,523,523,523,523,520,505,488,448,328,266,214,174,151,127,119,110,93],"timestamp_mouse":[11,37,42,63,82,101,121,143,162,182,203,223,243,262,283,302,322,342,361,382,402,423,441,461,482,503,521,542,562,583,602,622,642,662,681,701,722,743,762,782,801,823,842,862],"xSR":741.5,"ySR":469.95,"xT1":424.9,"yT1":0,"xT2":1058.1,"yT2":0,"toosoon":0,"cond_shown":"equaldotanddens","ratio_trial":250,"smaller_num":"2","larger_num":"8","correct_side":2,"subjID":"samuelcruz26","gender":"0","age":"9","school":"4"},{"start_time":1552314063047,"click_time":1552314072534,"finger_time":1552314063116,"fix_duration":250,"trial":32,"RT":69,"MT":9418,"sideResp":1,"stimulus":"img/900/randomdotsizeEA/L/2_Ratio_900_L_20_R_18.png","xmouse":[777,794,794,856,879,896,902,902,902,902,902,902,902,902,902,902,902,902,902,902,902,902,902,902,902,902,902,902,902,902,902,902,901,900,900,899,898,898,898,896,890,881,874,865,853,826,818,811,809,809,809,807,803,799,796,793,792,791,791,791,791,791,791,791,791,791,791,791,790,790,792,794,794,794,794,793,792,788,785,783,783,787,792,797,801,803,806,806,803,800,789,785,783,781,779,777,772,769,765,764,764,764,762,760,760,760,760,760,760,760,760,758,758,758,758,757,764,768,769,770,770,772,772,772,772,772,772,772,770,767,767,767,767,767,767,767,767,767,767,767,767,767,768,773,781,790,799,799,799,799,799,799,799,799,799,799,799,799,799,799,799,799,799,799,799,799,799,799,799,799,799,799,799,799,799,799,799,799,799,800,800,800,800,800,800,800,800,800,800,800,800,800,800,800,800,800,800,800,800,800,798,798,798,798,798,798,798,798,798,798,798,798,798,798,798,798,798,798,798,798,798,798,798,798,798,798,798,798,798,798,798,798,798,798,798,798,798,798,798,798,798,798,798,798,798,798,798,798,798,798,798,798,798,798,798,798,798,798,798,798,798,798,798,798,798,798,798,798,798,798,798,798,798,798,798,798,798,798,798,798,798,798,798,798,798,798,798,798,798,798,798,798,798,798,798,798,798,798,798,798,798,800,800,801,801,802,802,803,804,804,805,808,808,808,808,808,808,808,808,808,808,808,808,808,808,808,808,808,808,808,808,808,808,808,808,808,808,808,808,808,808,808,808,808,808,808,808,808,808,808,808,808,808,808,808,808,808,808,808,808,808,808,808,808,808,807,805,804,802,801,801,801,801,801,801,800,800,797,795,794,793,791,790,789,789,789,789,789,789,789,789,789,789,789,789,789,789,789,789,789,789,787,787,785,784,783,783,783,783,783,783,783,783,783,783,783,783,783,783,783,783,783,783,783,783,783,783,783,783,783,783,783,783,783,783,783,783,783,783,783,783,783,783,783,783,783,783,783,783,783,783,783,783,781,779,762,747,729,707,660,616,605,597,592,590,588,583,580,577,574,564,558,545,534,521],"ymouse":[556,556,556,536,526,517,513,513,513,513,513,513,513,513,513,513,513,513,513,513,513,513,513,513,513,513,513,513,513,513,513,512,512,512,512,512,512,512,512,512,512,511,508,504,501,492,489,485,485,484,484,484,485,489,494,500,502,506,507,507,507,507,507,507,507,507,507,507,508,507,479,418,391,372,364,362,362,366,375,387,389,396,398,400,402,402,406,412,418,423,431,433,435,435,434,433,430,427,424,424,424,424,424,429,433,436,440,441,444,446,449,474,495,513,532,547,573,580,581,582,582,581,580,579,577,566,553,542,534,528,528,528,528,528,528,528,528,528,528,528,528,528,528,528,528,528,524,524,524,524,524,524,524,524,524,524,524,524,524,524,524,524,524,524,524,524,524,524,524,524,524,524,524,524,524,524,524,524,524,524,524,524,524,524,524,524,524,524,524,524,524,524,524,524,524,523,522,519,518,513,503,503,503,503,503,503,503,503,503,503,503,503,503,503,503,503,503,503,503,503,503,503,503,503,503,503,503,503,503,503,504,504,504,505,505,505,505,505,506,506,506,506,506,506,506,506,506,506,506,506,506,506,506,506,506,506,506,506,506,506,506,506,506,506,506,506,506,506,506,506,506,506,506,506,506,506,506,506,506,506,506,506,506,507,508,508,508,508,508,508,508,508,508,508,508,508,508,508,508,508,508,507,507,506,504,504,502,502,500,499,496,490,490,490,490,490,490,490,490,490,490,490,490,490,490,490,490,490,490,490,490,490,490,490,490,490,490,490,491,492,492,492,492,492,492,492,492,492,492,492,492,492,492,492,492,492,492,492,492,492,492,492,492,493,494,497,500,502,505,508,509,510,510,510,510,510,510,510,511,512,513,513,513,514,514,514,514,514,514,514,514,514,514,514,514,514,514,514,514,514,514,514,514,514,514,514,514,514,514,514,514,514,514,514,514,514,514,514,514,514,514,514,514,514,514,514,514,514,514,514,514,514,514,514,514,514,514,514,514,514,514,514,514,514,514,514,514,514,514,514,514,514,514,513,509,472,424,351,270,176,100,82,71,64,61,57,52,49,48,46,46,46,51,56,61],"timestamp_mouse":[11,43,49,69,88,108,128,149,169,187,208,228,248,269,288,308,328,348,368,388,409,427,448,468,488,508,528,549,569,589,608,627,648,668,688,708,728,749,768,789,808,828,848,868,888,909,927,949,969,988,1008,1027,1047,1069,1088,1109,1128,1148,1168,1189,1208,1228,1248,1269,1289,1307,1329,1347,1368,1388,1408,1428,1448,1468,1488,1509,1528,1548,1568,1587,1608,1627,1648,1669,1687,1708,1728,1749,1768,1788,1809,1828,1848,1868,1889,1908,1928,1948,1968,1988,2007,2027,2047,2068,2089,2108,2127,2149,2169,2189,2208,2227,2247,2268,2287,2308,2327,2348,2368,2389,2408,2428,2449,2469,2488,2509,2528,2547,2567,2589,2609,2629,2647,2668,2688,2707,2727,2747,2767,2787,2809,2829,2848,2868,2888,2907,2927,2947,2969,2988,3007,3029,3047,3069,3089,3107,3127,3149,3168,3188,3209,3229,3249,3268,3288,3309,3329,3349,3368,3387,3407,3427,3448,3469,3487,3508,3529,3548,3568,3589,3609,3627,3647,3668,3689,3709,3728,3749,3768,3788,3808,3828,3847,3869,3888,3908,3928,3948,3968,3988,4009,4027,4049,4068,4088,4107,4127,4147,4169,4188,4207,4228,4249,4268,4287,4308,4329,4349,4368,4388,4408,4427,4449,4468,4489,4509,4528,4547,4568,4587,4607,4629,4649,4669,4687,4707,4727,4748,4769,4789,4807,4828,4848,4868,4888,4908,4929,4948,4969,4987,5008,5028,5047,5067,5089,5108,5129,5148,5169,5188,5208,5229,5248,5267,5289,5307,5327,5349,5369,5387,5408,5427,5448,5469,5488,5507,5527,5549,5568,5587,5609,5629,5648,5668,5689,5708,5727,5748,5767,5789,5809,5828,5849,5867,5887,5908,5929,5948,5967,5988,6007,6029,6048,6068,6088,6107,6128,6148,6167,6188,6208,6228,6248,6269,6289,6309,6328,6347,6369,6388,6407,6428,6447,6468,6489,6509,6527,6547,6567,6589,6609,6629,6647,6668,6687,6709,6728,6749,6767,6789,6809,6829,6847,6868,6889,6909,6929,6948,6967,6989,7008,7029,7048,7067,7088,7107,7128,7148,7169,7188,7207,7228,7247,7268,7288,7308,7328,7348,7367,7388,7407,7427,7447,7468,7487,7508,7528,7547,7568,7589,7608,7627,7647,7667,7687,7709,7728,7747,7768,7787,7809,7827,7847,7868,7887,7908,7929,7949,7969,7989,8007,8027,8048,8069,8089,8112,8128,8148,8169,8188,8208,8227,8247,8268,8288,8307,8329,8348,8368,8388,8409,8429,8449,8467,8488,8509,8528,8549,8568,8587,8608,8629,8648,8669,8689,8707,8728,8748,8768,8788,8807,8827,8848,8869,8889,8908,8928,8949,8968,8988,9007,9028,9047,9068,9088,9109,9128,9149,9168,9189,9210,9228,9248,9268,9288,9308,9328,9348,9368,9389,9409,9428,9447,9468,9487],"xSR":741.5,"ySR":469.95,"xT1":424.9,"yT1":0,"xT2":1058.1,"yT2":0,"toosoon":0,"cond_shown":"randomdotsizeEA","ratio_trial":900,"smaller_num":"18","larger_num":"20","correct_side":1,"subjID":"samuelcruz26","gender":"0","age":"9","school":"4"},{"start_time":1552314074264,"click_time":1552314075257,"finger_time":1552314074818,"fix_duration":785.4302709997896,"trial":33,"RT":554,"MT":439,"sideResp":1,"stimulus":"img/250/randomdotsizeEA/L/5_Ratio_250_L_24_R_6.png","xmouse":[775,775,775,775,775,775,775,775,775,775,775,775,775,775,775,775,775,777,781,784,785,785,785,785,785,780,768,752,724,715,689,682,677,670,663,644,637,635,634,633,629,623,617,606,590,584,574,558,539,522],"ymouse":[520,520,520,520,520,520,520,520,520,520,520,520,520,520,520,520,520,518,513,509,505,504,502,501,500,492,481,468,444,435,397,375,341,283,232,151,128,117,115,111,107,101,94,87,80,79,78,78,80,80],"timestamp_mouse":[14,40,53,75,93,114,134,153,174,193,215,234,254,273,293,313,333,355,374,394,414,434,454,474,494,513,535,554,574,593,613,633,653,674,694,714,734,754,773,795,813,833,854,873,894,913,934,954,973,993],"xSR":741.5,"ySR":469.95,"xT1":424.9,"yT1":0,"xT2":1058.1,"yT2":0,"toosoon":0,"cond_shown":"randomdotsizeEA","ratio_trial":250,"smaller_num":"6","larger_num":"24","correct_side":1,"subjID":"samuelcruz26","gender":"0","age":"9","school":"4"},{"start_time":1552314078435,"click_time":1552314080858,"finger_time":1552314079977,"fix_duration":575.9782355292898,"trial":34,"RT":1542,"MT":881,"sideResp":1,"stimulus":"img/500/equaldotanddens/R/2_Ratio_500_L_3_R_6.png","xmouse":[767,767,767,767,767,767,767,767,767,767,767,766,766,765,764,763,762,762,762,762,762,762,762,762,762,762,762,762,762,762,762,762,762,762,762,762,762,762,762,762,762,762,762,762,761,760,760,760,760,760,760,760,760,760,760,760,760,760,760,760,760,760,760,758,757,757,756,756,756,756,756,756,753,752,750,748,744,732,723,718,712,702,664,650,637,625,612,577,566,558,555,555,553,551,549,548,546,539,537,536,535,533,528,524,520,517,514,507,505,504,504,504,504,504,503,503,503,503,502,501,499,496],"ymouse":[552,552,552,552,552,552,552,552,552,552,552,552,551,551,551,551,551,551,551,551,551,551,551,551,551,551,551,551,551,551,551,551,551,551,551,551,551,551,551,551,551,551,551,551,550,550,550,550,550,550,550,550,550,550,550,550,550,550,550,550,550,550,550,549,549,548,544,544,542,538,537,531,519,512,506,498,488,462,445,430,414,397,334,312,291,275,258,219,207,199,197,194,174,160,149,141,135,126,123,121,120,118,115,115,114,113,112,110,109,109,109,109,109,109,109,109,109,109,109,108,104,99],"timestamp_mouse":[13,22,46,63,82,102,122,143,162,183,204,223,243,262,283,302,324,343,362,382,403,424,443,463,484,503,523,544,562,582,603,622,643,662,684,702,723,744,763,782,803,824,844,864,884,903,923,944,963,983,1003,1022,1044,1064,1083,1103,1123,1143,1163,1184,1204,1224,1244,1264,1283,1303,1324,1343,1363,1383,1402,1423,1442,1463,1483,1503,1522,1542,1562,1583,1603,1622,1642,1663,1682,1702,1723,1742,1762,1782,1804,1823,1843,1862,1883,1902,1923,1942,1962,1982,2002,2024,2042,2063,2083,2102,2123,2142,2164,2183,2204,2224,2242,2262,2283,2303,2322,2344,2363,2382,2402,2423],"xSR":741.5,"ySR":469.95,"xT1":424.9,"yT1":0,"xT2":1058.1,"yT2":0,"toosoon":0,"cond_shown":"equaldotanddens","ratio_trial":500,"smaller_num":"3","larger_num":"6","correct_side":2,"subjID":"samuelcruz26","gender":"0","age":"9","school":"4"},{"start_time":1552314086755,"click_time":1552314089898,"finger_time":1552314087058,"fix_duration":1195.4189088695211,"trial":35,"RT":303,"MT":2840,"sideResp":2,"stimulus":"img/750/randomdotsizeEA/R/7_Ratio_750_L_3_R_4.png","xmouse":[784,784,784,784,785,786,788,790,791,793,795,801,803,807,814,827,840,844,847,850,854,863,868,872,876,882,885,886,886,886,887,887,886,884,883,883,883,883,883,885,889,899,903,906,908,909,911,912,912,912,912,912,912,912,912,912,912,912,912,912,912,912,912,912,912,912,912,912,912,912,912,912,912,912,912,912,912,912,912,913,920,937,945,956,964,970,970,970,970,970,970,970,970,971,972,973,974,975,975,975,976,976,976,977,978,979,980,980,980,980,980,980,980,980,980,980,980,980,980,980,980,980,980,981,981,981,981,981,981,981,981,981,981,981,981,981,981,981,981,981,981,981,981,981,981,981,985,998,1011,1024,1043,1048,1052,1053,1055,1055,1057,1059],"ymouse":[517,517,516,515,515,513,510,509,508,506,504,500,497,493,483,464,440,432,425,419,412,385,370,355,335,307,284,278,272,269,268,263,260,257,256,256,256,256,253,247,241,222,213,207,203,201,197,196,196,196,196,196,196,196,196,196,196,196,196,196,196,196,196,196,196,196,196,196,196,196,196,196,196,196,196,196,196,196,196,196,195,181,169,149,128,113,113,113,113,113,113,113,113,112,112,114,117,118,119,119,120,120,120,120,120,120,120,120,120,120,120,120,120,120,120,120,120,120,120,120,120,120,120,120,120,120,120,120,120,120,120,120,120,120,120,120,120,120,120,120,120,120,120,120,120,120,120,115,109,103,92,89,87,86,85,85,83,81],"timestamp_mouse":[10,22,43,62,83,103,122,143,164,183,203,222,243,264,284,303,322,343,362,382,403,422,444,462,483,502,522,542,562,582,603,622,642,662,683,703,722,742,762,783,803,823,842,862,882,902,923,943,962,983,1003,1023,1043,1063,1083,1102,1123,1143,1162,1182,1203,1223,1243,1264,1283,1303,1323,1343,1363,1383,1404,1423,1444,1462,1483,1504,1522,1544,1563,1583,1603,1622,1642,1662,1682,1704,1724,1742,1763,1783,1803,1822,1843,1864,1883,1904,1923,1942,1962,1983,2003,2022,2043,2062,2083,2103,2123,2142,2163,2182,2203,2222,2243,2262,2284,2303,2323,2342,2363,2382,2402,2423,2442,2463,2484,2503,2522,2543,2562,2582,2604,2622,2643,2663,2683,2702,2723,2743,2763,2783,2803,2822,2846,2862,2883,2902,2922,2943,2963,2983,3004,3023,3043,3064,3082,3103,3122,3142],"xSR":741.5,"ySR":469.95,"xT1":424.9,"yT1":0,"xT2":1058.1,"yT2":0,"toosoon":0,"cond_shown":"randomdotsizeEA","ratio_trial":750,"smaller_num":"3","larger_num":"4","correct_side":2,"subjID":"samuelcruz26","gender":"0","age":"9","school":"4"},{"start_time":1552314091797,"click_time":1552314093999,"finger_time":1552314092777,"fix_duration":937.8686585314146,"trial":36,"RT":980,"MT":1222,"sideResp":1,"stimulus":"img/250/randomdotsizeEA/L/7_Ratio_250_L_8_R_2.png","xmouse":[801,801,801,801,801,801,801,801,801,801,801,801,801,801,801,801,801,801,801,801,801,801,801,801,801,801,801,801,800,800,801,802,802,802,802,802,802,802,802,802,802,802,802,802,802,802,802,802,800,795,791,787,784,779,772,771,770,770,768,766,765,765,764,764,762,761,758,754,747,735,731,729,728,725,722,719,715,710,703,700,696,693,691,688,685,683,677,671,666,649,636,621,597,586,560,551,541,532,523,515,513,513,513,513,513,513,513,513,513,512,509],"ymouse":[520,520,520,520,520,520,520,520,520,520,520,520,520,520,520,520,520,520,520,520,520,520,520,520,520,520,520,520,520,519,518,517,517,517,517,517,517,517,517,517,517,517,517,517,517,513,506,498,489,457,435,406,379,364,346,345,343,339,334,326,323,322,321,320,319,318,314,307,300,288,286,285,285,284,281,278,274,269,259,254,247,242,239,235,231,228,222,217,212,196,187,177,161,151,132,126,119,112,108,102,101,101,101,101,101,101,101,101,101,101,99],"timestamp_mouse":[10,21,58,60,81,101,122,142,162,181,202,221,240,260,281,301,321,340,362,380,400,422,440,460,481,500,520,540,561,581,602,621,640,661,681,701,721,741,762,781,800,821,842,861,880,900,921,940,960,980,1001,1022,1040,1061,1080,1101,1122,1141,1161,1180,1201,1221,1241,1260,1280,1300,1320,1341,1360,1380,1401,1421,1441,1460,1481,1501,1520,1541,1562,1580,1601,1621,1641,1660,1681,1700,1721,1740,1760,1780,1800,1820,1841,1860,1881,1900,1920,1940,1961,1980,2002,2020,2042,2061,2080,2100,2121,2140,2160,2181,2201],"xSR":741.5,"ySR":469.95,"xT1":424.9,"yT1":0,"xT2":1058.1,"yT2":0,"toosoon":0,"cond_shown":"randomdotsizeEA","ratio_trial":250,"smaller_num":"2","larger_num":"8","correct_side":1,"subjID":"samuelcruz26","gender":"0","age":"9","school":"4"},{"start_time":1552314095677,"click_time":1552314097038,"finger_time":1552314096317,"fix_duration":658.5594018263519,"trial":37,"RT":640,"MT":721,"sideResp":2,"stimulus":"img/250/equaldotsize/R/12_Ratio_250_L_5_R_20.png","xmouse":[797,797,797,797,797,797,797,797,797,797,797,797,797,797,797,797,797,797,797,797,797,797,797,797,797,797,796,795,794,794,794,794,794,794,803,813,831,850,872,900,928,935,940,945,948,953,956,959,961,964,966,966,966,971,982,992,993,993,993,993,994,994,994,994,994,1016,1033,1053,1077],"ymouse":[508,508,508,508,508,508,508,508,508,508,508,508,508,508,508,508,508,508,508,508,508,508,508,508,508,508,505,501,496,491,477,472,466,459,428,405,374,340,298,237,172,154,140,128,122,110,102,93,84,76,73,73,73,73,73,73,73,73,73,73,73,73,73,73,73,77,81,83,84],"timestamp_mouse":[10,35,40,61,82,100,120,142,161,180,200,222,240,261,280,301,320,342,362,382,400,420,441,461,481,501,522,541,560,580,601,621,640,660,681,701,721,740,760,781,800,821,841,861,880,900,921,941,962,981,1001,1021,1041,1062,1081,1100,1120,1140,1161,1181,1201,1220,1241,1260,1281,1300,1320,1340,1361],"xSR":741.5,"ySR":469.95,"xT1":424.9,"yT1":0,"xT2":1058.1,"yT2":0,"toosoon":0,"cond_shown":"equaldotsize","ratio_trial":250,"smaller_num":"5","larger_num":"20","correct_side":2,"subjID":"samuelcruz26","gender":"0","age":"9","school":"4"},{"start_time":1552314098398,"click_time":1552314100597,"finger_time":1552314099078,"fix_duration":659.6792271919393,"trial":38,"RT":680,"MT":1519,"sideResp":1,"stimulus":"img/500/randomdotsizeEA/L/7_Ratio_500_L_10_R_5.png","xmouse":[828,828,828,828,828,828,828,828,828,828,828,828,828,828,828,828,828,828,828,828,828,828,828,828,828,828,828,828,828,830,832,834,835,846,852,857,863,884,893,899,903,907,912,924,931,939,947,956,978,986,993,1001,1003,1011,1012,1013,1014,1016,1016,1017,1017,1018,1023,1025,1027,1028,1029,1029,1030,1030,1030,1030,1030,1030,1030,1030,1030,1030,1030,1030,1029,1023,1004,950,907,870,841,821,804,793,776,731,686,540,446,362,294,263,254,254,254,254,261,280,304,328,349,371,410,426],"ymouse":[501,501,501,501,501,501,501,501,501,501,501,501,501,501,501,501,501,501,501,501,501,501,501,501,501,501,501,501,501,500,498,497,495,482,473,461,448,401,378,357,342,329,316,280,264,245,229,208,169,155,142,133,131,115,112,109,106,104,102,101,100,98,92,90,88,87,86,86,85,85,85,85,85,85,85,85,85,85,85,85,84,83,78,69,66,62,62,62,64,68,72,82,92,120,139,150,150,149,145,145,145,145,139,134,126,117,111,103,91,88],"timestamp_mouse":[1,20,41,59,107,119,140,160,179,200,221,239,260,279,300,319,341,360,380,400,420,441,460,480,499,520,539,559,579,600,619,640,660,680,700,719,739,761,780,800,820,839,859,880,899,919,939,959,980,1001,1019,1041,1060,1080,1100,1120,1139,1160,1179,1199,1219,1240,1261,1279,1300,1319,1339,1361,1379,1401,1421,1440,1459,1480,1499,1519,1539,1559,1579,1600,1620,1639,1659,1679,1700,1720,1739,1759,1779,1799,1819,1840,1859,1879,1900,1920,1940,1960,1980,1999,2020,2039,2061,2079,2100,2120,2141,2159,2179,2199],"xSR":741.5,"ySR":469.95,"xT1":424.9,"yT1":0,"xT2":1058.1,"yT2":0,"toosoon":0,"cond_shown":"randomdotsizeEA","ratio_trial":500,"smaller_num":"5","larger_num":"10","correct_side":1,"subjID":"samuelcruz26","gender":"0","age":"9","school":"4"},{"start_time":1552314103342,"click_time":1552314104677,"finger_time":1552314104177,"fix_duration":443.13821516767683,"trial":39,"RT":835,"MT":500,"sideResp":2,"stimulus":"img/900/equaldotsize/R/14_Ratio_900_L_18_R_20.png","xmouse":[805,805,805,805,805,805,805,805,805,805,805,805,805,805,805,805,805,805,805,805,805,805,805,805,805,805,805,805,805,805,805,805,805,805,805,805,805,805,805,808,817,828,859,885,888,882,875,875,875,877,882,895,904,912,920,952,959,961,962,962,962,963,965,977,993,1044,1146],"ymouse":[522,522,522,522,521,521,521,521,520,520,520,520,520,520,520,520,520,520,520,520,520,520,520,520,520,520,520,520,520,520,520,520,520,520,520,520,520,520,520,517,499,429,302,195,139,102,70,68,67,67,66,64,63,63,63,62,62,62,62,62,62,61,61,58,56,56,62],"timestamp_mouse":[15,35,55,75,97,115,136,155,177,197,216,236,255,277,296,315,335,356,377,396,416,435,455,477,497,517,535,555,576,596,615,636,657,677,695,716,735,757,775,795,817,835,856,876,895,916,935,956,976,996,1015,1035,1056,1076,1096,1117,1135,1156,1176,1195,1215,1235,1255,1276,1295,1315,1335],"xSR":741.5,"ySR":469.95,"xT1":424.9,"yT1":0,"xT2":1058.1,"yT2":0,"toosoon":0,"cond_shown":"equaldotsize","ratio_trial":900,"smaller_num":"18","larger_num":"20","correct_side":2,"subjID":"samuelcruz26","gender":"0","age":"9","school":"4"},{"start_time":1552314109629,"click_time":1552314113478,"finger_time":1552314112917,"fix_duration":250,"trial":40,"RT":3288,"MT":561,"sideResp":2,"stimulus":"img/250/equaldotanddens/R/12_Ratio_250_L_5_R_20.png","xmouse":[765,765,765,765,765,765,765,765,765,765,765,765,765,765,765,765,765,765,765,765,765,765,765,765,765,765,765,765,765,765,765,765,765,765,765,765,765,765,765,765,765,765,765,765,765,765,765,765,765,765,765,765,765,765,765,765,765,765,765,765,765,765,765,765,765,768,785,794,796,798,798,798,798,798,798,798,798,798,798,798,798,798,798,798,798,798,798,798,798,798,798,798,798,798,798,798,798,798,798,798,798,798,798,796,795,791,791,790,790,790,790,790,790,790,790,790,790,790,790,790,790,790,790,790,790,790,790,790,790,790,790,790,790,790,790,790,790,790,790,790,790,790,790,790,790,790,790,790,790,790,790,790,790,790,790,790,790,790,790,790,790,794,799,810,827,870,901,928,951,974,989,1008,1015,1022,1030,1040,1043,1046,1049,1053,1057,1072,1079,1088,1097,1107,1109,1111,1113,1113,1114,1116],"ymouse":[522,522,522,522,522,522,522,522,522,522,522,522,522,522,522,522,522,522,522,522,522,522,522,522,522,522,522,522,522,522,522,522,522,522,522,522,522,522,522,522,522,522,522,522,522,522,522,522,522,522,522,522,522,522,522,522,522,522,522,522,522,522,522,522,522,520,510,504,502,501,501,501,501,501,501,501,501,501,501,501,501,501,501,501,501,501,501,501,501,501,501,501,501,501,501,501,501,501,501,501,501,501,501,501,501,503,503,504,504,504,504,504,504,504,504,504,504,504,504,504,504,504,504,504,504,504,504,504,504,504,504,504,504,504,504,504,504,504,504,504,504,504,504,504,504,504,504,504,504,504,504,504,504,504,504,504,504,504,504,501,498,489,478,465,445,394,360,328,303,276,259,237,226,216,204,185,180,173,168,163,159,150,146,140,132,123,118,115,111,110,105,97],"timestamp_mouse":[10,52,69,88,108,128,150,168,188,209,230,249,268,288,309,329,349,369,390,408,428,449,468,489,509,528,549,568,588,609,630,649,668,688,708,729,749,768,789,808,828,850,869,890,910,930,950,968,989,1009,1029,1049,1069,1090,1108,1128,1148,1170,1189,1209,1228,1249,1270,1288,1308,1329,1349,1368,1389,1409,1430,1449,1470,1490,1508,1528,1549,1569,1589,1609,1628,1648,1670,1689,1709,1729,1749,1770,1789,1808,1828,1848,1869,1889,1908,1928,1949,1968,1990,2010,2028,2050,2069,2089,2109,2130,2148,2168,2189,2210,2230,2248,2269,2289,2310,2328,2348,2369,2390,2409,2429,2449,2468,2489,2510,2530,2549,2568,2588,2608,2630,2648,2669,2688,2710,2728,2748,2768,2790,2808,2829,2849,2868,2889,2908,2928,2949,2968,2989,3010,3030,3048,3068,3089,3108,3129,3150,3169,3188,3209,3228,3248,3268,3288,3309,3330,3348,3368,3389,3410,3429,3448,3469,3488,3509,3530,3548,3570,3590,3610,3628,3648,3668,3690,3709,3730,3748,3769,3788,3808,3828,3849],"xSR":741.5,"ySR":469.95,"xT1":424.9,"yT1":0,"xT2":1058.1,"yT2":0,"toosoon":0,"cond_shown":"equaldotanddens","ratio_trial":250,"smaller_num":"5","larger_num":"20","correct_side":2,"subjID":"samuelcruz26","gender":"0","age":"9","school":"4"},{"start_time":1552314114630,"click_time":1552314116718,"finger_time":1552314115018,"fix_duration":250,"trial":41,"RT":388,"MT":1700,"sideResp":2,"stimulus":"img/900/equaldotsize/R/13_Ratio_900_L_18_R_20.png","xmouse":[812,812,812,812,812,812,812,812,812,812,812,812,811,811,810,810,810,820,831,841,852,858,862,864,864,865,866,867,867,867,867,867,867,869,870,874,876,881,884,887,890,892,897,901,907,911,914,923,928,934,941,949,954,956,957,957,958,977,985,988,990,996,996,997,997,997,997,1002,1007,1010,1015,1019,1029,1032,1035,1037,1037,1037,1037,1037,1037,1037,1037,1037,1037,1037,1037,1037,1037,1038,1043,1043,1043,1043,1043,1043,1043,1043,1043,1043,1043,1043,1043,1043,1075],"ymouse":[518,518,518,518,518,518,518,518,518,518,518,518,516,515,513,512,509,491,476,461,447,439,431,428,427,425,424,419,415,409,402,391,353,343,336,330,325,317,313,309,305,303,299,293,288,285,284,281,280,279,278,277,277,278,279,279,279,279,279,279,279,279,279,278,278,277,274,260,252,243,233,226,209,202,189,178,171,165,163,162,162,161,161,161,161,160,151,133,104,66,4,4,4,4,4,4,4,4,4,4,4,4,4,4,14],"timestamp_mouse":[9,27,59,67,88,108,128,147,168,189,208,228,248,267,288,307,328,347,368,388,409,427,447,468,487,507,528,547,567,587,609,628,648,667,687,708,727,747,767,787,809,828,847,867,887,907,928,947,968,988,1009,1028,1049,1067,1087,1107,1128,1147,1168,1188,1208,1228,1247,1268,1287,1308,1327,1347,1368,1389,1408,1427,1447,1467,1488,1507,1528,1547,1567,1588,1607,1627,1648,1669,1688,1707,1729,1748,1768,1788,1807,1827,1847,1868,1887,1908,1928,1947,1968,1987,2008,2029,2047,2068,2087],"xSR":741.5,"ySR":469.95,"xT1":424.9,"yT1":0,"xT2":1058.1,"yT2":0,"toosoon":0,"cond_shown":"equaldotsize","ratio_trial":900,"smaller_num":"18","larger_num":"20","correct_side":2,"subjID":"samuelcruz26","gender":"0","age":"9","school":"4"},{"start_time":1552314123792,"click_time":1552314125178,"finger_time":1552314124479,"fix_duration":1254.6034178832308,"trial":42,"RT":687,"MT":699,"sideResp":2,"stimulus":"img/900/randomdotsizeEA/R/9_Ratio_900_L_18_R_20.png","xmouse":[789,789,789,789,789,789,789,789,789,789,789,789,789,789,789,789,789,789,789,789,789,789,789,789,789,789,789,789,789,789,791,792,828,846,860,874,898,925,975,991,1000,1006,1013,1027,1033,1042,1053,1068,1119,1143,1160,1183,1183,1183,1183,1183,1183,1183,1183,1183,1183,1183,1183,1183,1183,1183,1183,1183,1112],"ymouse":[541,541,541,541,541,541,541,541,541,541,541,541,541,541,541,541,541,541,541,541,541,541,541,541,541,541,541,541,541,541,539,533,476,453,434,415,386,356,313,302,296,292,286,277,272,265,256,243,182,144,113,41,7,7,7,7,7,7,7,7,7,7,7,7,7,7,7,7,4],"timestamp_mouse":[10,50,65,87,107,125,145,165,185,205,226,247,265,285,306,325,346,365,386,405,426,445,467,485,506,525,546,567,587,607,625,646,666,687,706,726,746,767,786,806,825,845,866,885,906,925,946,966,985,1007,1026,1045,1066,1085,1106,1125,1146,1166,1186,1207,1226,1246,1265,1285,1305,1325,1345,1365,1385],"xSR":741.5,"ySR":469.95,"xT1":424.9,"yT1":0,"xT2":1058.1,"yT2":0,"toosoon":0,"cond_shown":"randomdotsizeEA","ratio_trial":900,"smaller_num":"18","larger_num":"20","correct_side":2,"subjID":"samuelcruz26","gender":"0","age":"9","school":"4"},{"start_time":1552314133209,"click_time":1552314134199,"finger_time":1552314133537,"fix_duration":250,"trial":43,"RT":328,"MT":662,"sideResp":1,"stimulus":"img/900/equaldotsize/L/4_Ratio_900_L_20_R_18.png","xmouse":[796,796,796,795,794,794,792,791,788,786,783,783,783,781,781,781,781,781,781,781,781,781,781,781,782,784,784,784,784,784,784,784,784,781,767,726,634,534,380,367,367,367,367,367,368,372,377,386,416,435],"ymouse":[538,538,538,538,538,538,537,536,535,535,534,534,534,531,519,497,462,424,378,369,365,363,363,355,344,331,326,324,322,321,321,321,321,318,308,289,262,233,182,175,175,175,175,170,162,151,134,112,72,59],"timestamp_mouse":[12,36,48,69,89,109,128,148,168,189,208,228,250,269,288,309,328,348,368,389,408,428,448,468,488,508,528,548,568,589,608,629,649,669,688,709,728,749,768,789,809,829,849,869,889,909,928,949,968,989],"xSR":741.5,"ySR":469.95,"xT1":424.9,"yT1":0,"xT2":1058.1,"yT2":0,"toosoon":0,"cond_shown":"equaldotsize","ratio_trial":900,"smaller_num":"18","larger_num":"20","correct_side":1,"subjID":"samuelcruz26","gender":"0","age":"9","school":"4"},{"start_time":1552314136401,"click_time":1552314137379,"finger_time":1552314136920,"fix_duration":880.9133980276889,"trial":44,"RT":519,"MT":459,"sideResp":1,"stimulus":"img/500/equaldotsize/L/13_Ratio_500_L_12_R_6.png","xmouse":[806,804,803,803,800,796,791,785,783,782,782,782,782,782,782,782,782,782,782,782,781,781,783,783,779,774,752,741,723,703,684,667,642,631,613,589,522,505,501,500,499,492,486,483,481,480,480,480],"ymouse":[502,502,502,502,502,502,501,499,499,499,499,499,499,499,499,499,499,499,499,499,499,497,481,470,455,437,397,379,353,324,301,284,259,249,234,217,172,160,156,156,152,141,129,122,115,110,106,96],"timestamp_mouse":[40,58,78,98,120,139,160,178,199,218,238,259,280,298,319,339,359,379,400,419,439,458,478,498,519,538,560,579,599,619,639,658,678,698,719,738,759,779,799,819,839,859,879,899,918,939,958,978],"xSR":741.5,"ySR":469.95,"xT1":424.9,"yT1":0,"xT2":1058.1,"yT2":0,"toosoon":0,"cond_shown":"equaldotsize","ratio_trial":500,"smaller_num":"6","larger_num":"12","correct_side":1,"subjID":"samuelcruz26","gender":"0","age":"9","school":"4"},{"start_time":1552314138551,"click_time":1552314141419,"finger_time":1552314139119,"fix_duration":250,"trial":45,"RT":568,"MT":2300,"sideResp":1,"stimulus":"img/750/equaldotsize/L/13_Ratio_750_L_8_R_6.png","xmouse":[814,812,797,793,787,782,777,773,768,764,762,761,761,761,761,761,761,761,761,761,761,761,761,760,760,760,759,756,753,747,738,732,729,729,729,729,724,709,695,678,667,657,652,645,639,616,605,598,593,590,589,589,586,582,577,569,567,567,567,567,566,564,557,545,527,527,527,527,527,527,527,527,527,527,527,527,527,527,527,527,527,527,527,527,527,527,527,527,527,527,527,527,527,527,527,527,527,527,527,527,527,527,527,527,527,527,527,527,527,527,527,527,527,527,527,527,527,527,527,527,527,527,527,527,527,527,527,531,548,555,550,539,530,530,530,530,530,530,530,530,530,532,526,518],"ymouse":[552,552,552,552,552,552,551,550,550,550,550,550,550,550,550,550,550,550,550,550,550,550,547,543,534,530,511,488,467,448,417,402,396,396,396,395,388,373,354,336,324,315,308,301,293,271,262,256,251,249,249,247,243,239,233,222,214,213,212,212,210,208,200,186,170,170,170,170,170,170,170,170,170,170,170,170,170,170,170,170,170,170,170,170,170,170,170,170,170,170,170,170,170,170,170,170,170,170,170,170,170,170,170,170,170,170,170,170,170,170,170,170,170,170,170,170,170,170,170,170,170,170,170,170,170,170,170,162,131,97,37,17,4,4,4,4,4,4,4,4,4,29,51,63],"timestamp_mouse":[9,34,48,68,89,109,129,148,169,188,208,228,249,270,290,308,328,348,368,388,408,428,449,468,490,508,529,548,568,588,610,628,649,669,688,708,728,748,769,789,808,828,849,868,889,910,928,949,969,988,1008,1028,1048,1069,1089,1109,1128,1149,1169,1188,1210,1229,1249,1269,1289,1309,1328,1348,1369,1389,1410,1430,1450,1469,1488,1509,1528,1549,1569,1589,1610,1630,1648,1669,1689,1709,1729,1749,1769,1789,1809,1829,1849,1869,1889,1909,1929,1950,1969,1988,2009,2029,2049,2068,2089,2108,2129,2148,2170,2190,2209,2229,2248,2269,2290,2310,2330,2350,2369,2388,2410,2428,2449,2469,2489,2509,2529,2548,2569,2588,2610,2628,2650,2669,2689,2709,2729,2749,2769,2789,2809,2829,2848,2868],"xSR":741.5,"ySR":469.95,"xT1":424.9,"yT1":0,"xT2":1058.1,"yT2":0,"toosoon":0,"cond_shown":"equaldotsize","ratio_trial":750,"smaller_num":"6","larger_num":"8","correct_side":1,"subjID":"samuelcruz26","gender":"0","age":"9","school":"4"},{"start_time":1552314144912,"click_time":1552314146480,"finger_time":1552314145219,"fix_duration":250,"trial":46,"RT":307,"MT":1261,"sideResp":1,"stimulus":"img/900/randomdotsizeEA/R/9_Ratio_900_L_18_R_20.png","xmouse":[767,767,767,767,767,767,766,766,764,761,757,754,750,746,738,714,693,693,693,693,693,693,693,693,693,693,693,693,693,693,693,693,693,693,693,693,693,693,693,693,694,697,708,710,710,710,710,710,710,709,701,697,697,697,696,689,665,628,609,589,577,574,574,576,577,577,577,577,577,574,570,565,552,543,537,536,532,524],"ymouse":[502,502,502,502,502,502,501,501,501,499,498,496,495,493,491,483,477,477,477,477,477,477,477,477,477,477,477,477,477,477,477,477,477,477,477,477,477,477,477,476,469,447,383,371,357,347,345,345,345,344,343,343,343,343,341,337,312,248,210,171,125,55,35,20,15,15,15,15,14,15,18,24,38,43,46,47,49,51],"timestamp_mouse":[12,50,68,87,107,129,147,168,187,208,228,247,267,287,307,327,349,367,387,407,427,447,467,488,507,527,547,568,588,607,628,648,667,688,707,728,749,768,787,808,827,847,867,888,907,927,947,968,989,1008,1028,1048,1067,1088,1107,1128,1148,1167,1188,1207,1227,1248,1267,1287,1307,1327,1348,1368,1387,1408,1427,1447,1467,1487,1507,1527,1547,1568],"xSR":741.5,"ySR":469.95,"xT1":424.9,"yT1":0,"xT2":1058.1,"yT2":0,"toosoon":0,"cond_shown":"randomdotsizeEA","ratio_trial":900,"smaller_num":"18","larger_num":"20","correct_side":2,"subjID":"samuelcruz26","gender":"0","age":"9","school":"4"},{"start_time":1552314148739,"click_time":1552314149699,"finger_time":1552314149359,"fix_duration":1156.868021531759,"trial":47,"RT":620,"MT":340,"sideResp":1,"stimulus":"img/900/randomdotsizeEA/R/12_Ratio_900_L_18_R_20.png","xmouse":[805,805,805,805,805,805,805,805,805,805,805,805,805,805,805,805,805,805,805,805,805,805,805,805,805,805,805,805,805,805,805,801,773,746,714,687,664,656,653,647,638,627,603,592,587,580,564,529,510],"ymouse":[476,476,476,476,476,476,476,476,476,476,476,476,476,476,476,476,476,476,476,476,476,476,476,476,476,476,476,476,476,476,476,469,419,372,318,264,221,200,195,193,188,185,177,171,166,160,142,107,91],"timestamp_mouse":[9,20,40,61,81,101,120,141,160,181,201,222,242,260,281,300,321,340,360,381,400,420,441,461,481,501,521,541,560,580,602,620,640,660,680,700,722,740,761,780,801,820,840,860,881,900,920,940,960],"xSR":741.5,"ySR":469.95,"xT1":424.9,"yT1":0,"xT2":1058.1,"yT2":0,"toosoon":0,"cond_shown":"randomdotsizeEA","ratio_trial":900,"smaller_num":"18","larger_num":"20","correct_side":2,"subjID":"samuelcruz26","gender":"0","age":"9","school":"4"},{"start_time":1552314150734,"click_time":1552314152419,"finger_time":1552314151960,"fix_duration":250,"trial":48,"RT":1226,"MT":459,"sideResp":1,"stimulus":"img/900/equaldotsize/R/6_Ratio_900_L_9_R_10.png","xmouse":[757,757,757,757,757,757,757,757,757,757,757,757,757,757,757,757,757,757,757,757,757,757,757,757,757,757,757,757,757,757,757,757,757,757,757,757,757,757,759,762,766,769,776,777,779,779,781,786,789,791,794,798,799,799,799,800,801,801,801,801,801,801,801,797,792,788,771,760,748,738,729,720,697,688,675,658,634,595,563,527,510,507,505,504,501],"ymouse":[505,505,505,505,505,505,505,505,505,505,505,505,505,505,505,505,505,505,505,505,505,505,505,505,505,505,505,505,505,505,505,505,505,505,505,505,505,501,499,496,494,492,487,486,486,485,484,480,478,476,474,472,472,471,471,471,470,470,470,470,470,467,462,450,435,419,376,358,338,325,314,301,273,261,244,226,203,169,140,116,106,104,103,102,99],"timestamp_mouse":[9,43,47,66,86,105,126,146,166,185,205,227,245,265,285,305,325,345,365,385,407,427,446,467,485,505,526,547,566,585,607,627,645,666,687,705,726,745,765,786,805,825,845,866,885,906,925,945,965,986,1005,1026,1045,1065,1085,1106,1126,1146,1165,1186,1205,1226,1245,1267,1286,1305,1327,1345,1366,1386,1405,1425,1445,1466,1485,1505,1525,1545,1566,1585,1605,1625,1645,1666,1685],"xSR":741.5,"ySR":469.95,"xT1":424.9,"yT1":0,"xT2":1058.1,"yT2":0,"toosoon":0,"cond_shown":"equaldotsize","ratio_trial":900,"smaller_num":"9","larger_num":"10","correct_side":2,"subjID":"samuelcruz26","gender":"0","age":"9","school":"4"},{"start_time":1552314154551,"click_time":1552314155659,"finger_time":1552314155039,"fix_duration":1389.3181404781915,"trial":49,"RT":488,"MT":620,"sideResp":1,"stimulus":"img/250/randomdotsizeEA/L/5_Ratio_250_L_24_R_6.png","xmouse":[805,805,805,805,805,805,805,805,805,805,805,805,805,805,805,805,805,805,805,805,807,815,829,841,852,870,874,877,880,880,880,880,879,879,876,860,783,719,673,643,627,614,605,595,583,574,555,548,545,542,539,536,533,529,527,523],"ymouse":[530,530,530,530,530,530,530,530,530,530,530,530,530,530,530,530,530,530,530,530,529,517,497,476,457,427,418,407,395,383,363,357,351,347,342,333,295,258,231,210,197,181,170,152,134,117,87,76,71,65,60,59,58,58,58,58],"timestamp_mouse":[12,42,48,68,88,110,128,148,169,189,208,229,250,268,289,308,328,348,369,388,410,428,448,468,488,509,528,548,568,589,609,629,649,668,688,708,728,748,768,789,809,828,848,868,888,908,928,949,968,988,1010,1028,1049,1068,1089,1108],"xSR":741.5,"ySR":469.95,"xT1":424.9,"yT1":0,"xT2":1058.1,"yT2":0,"toosoon":0,"cond_shown":"randomdotsizeEA","ratio_trial":250,"smaller_num":"6","larger_num":"24","correct_side":1,"subjID":"samuelcruz26","gender":"0","age":"9","school":"4"},{"start_time":1552314157963,"click_time":1552314159261,"finger_time":1552314158760,"fix_duration":881.8388867150954,"trial":50,"RT":797,"MT":501,"sideResp":2,"stimulus":"img