[{"start_time":1552055539861,"click_time":1552055542953,"finger_time":1552055541971,"fix_duration":1202.132854993615,"trial":0,"RT":2110,"MT":982,"sideResp":1,"stimulus":[],"xmouse":[750,750,750,750,750,750,750,750,750,750,750,750,750,750,750,750,750,750,750,750,750,750,750,750,750,750,750,750,750,750,750,750,750,750,750,750,750,750,750,750,750,750,750,750,750,750,750,750,750,750,750,750,750,750,750,750,750,750,750,750,750,750,750,750,750,750,750,750,750,750,750,750,750,750,750,750,750,750,750,750,750,750,750,750,750,750,750,750,750,750,750,750,750,750,750,750,750,750,750,750,750,750,750,750,742,736,732,722,715,699,693,687,682,666,654,642,631,623,613,595,575,567,557,547,539,531,526,524,522,520,518,517,515,514,514,514,514,513,513,512,511,511,511,511,511,511,511,511,511,511,511,511,511,511,511],"ymouse":[497,497,497,497,497,497,497,497,497,497,497,497,497,497,497,497,497,497,497,497,497,497,497,497,497,497,497,497,497,497,497,497,497,497,497,497,497,497,497,497,497,497,497,497,497,497,497,497,497,497,497,497,497,497,497,497,497,497,497,497,497,497,497,497,497,497,497,497,497,497,497,497,497,497,497,497,497,497,497,497,497,497,497,497,497,497,497,497,497,497,497,497,497,497,497,497,497,497,497,497,497,497,497,495,478,464,449,429,410,377,365,349,339,303,282,263,245,232,216,196,179,174,165,158,154,148,144,142,138,134,133,132,131,129,129,129,129,128,122,118,113,112,112,112,112,112,112,112,112,112,112,110,107,101,96],"timestamp_mouse":[11,34,51,71,91,111,132,152,171,192,212,232,252,271,291,312,331,352,372,392,411,431,451,472,491,512,531,551,572,592,612,631,651,672,692,712,730,752,771,791,812,831,851,871,892,911,931,952,972,991,1010,1032,1051,1070,1091,1112,1130,1150,1172,1192,1211,1232,1252,1271,1292,1311,1332,1352,1372,1391,1411,1432,1451,1471,1492,1512,1532,1552,1572,1592,1610,1632,1651,1672,1692,1711,1732,1751,1771,1792,1811,1832,1851,1870,1892,1912,1931,1951,1972,1991,2011,2031,2051,2071,2092,2110,2132,2152,2171,2190,2211,2231,2251,2272,2291,2311,2331,2352,2371,2391,2410,2431,2451,2473,2491,2511,2532,2551,2572,2591,2612,2631,2652,2672,2691,2711,2732,2752,2773,2791,2811,2831,2851,2871,2892,2911,2931,2951,2972,2991,3011,3031,3051,3073,3091],"xSR":733.5,"ySR":464.1,"xT1":420.09999999999997,"yT1":0,"xT2":1046.8999999999999,"yT2":0,"toosoon":0,"cond_shown":"Incongruent","ratio_trial":100,"L_num":1,"L_den":2,"R_num":8,"R_den":20,"correct_side":1,"subjID":"samueldavidrealpe27","gender":"0","age":"No_age","school":"No_school","test":{"fix_dur":[250,1500],"timestim":1000,"targets_dim":[100,100],"targets_relative_coord":[0.3,0.7],"size_stim":[880,420],"start_dim":[100,100],"size_start":[300,300],"size_fix":60,"samplingrate":20,"img_types":["Congruent","Incongruent"],"ratios":[100,200,300],"rep_conds":19,"nTrials":120,"trials_to_rest":500,"Trials_order":[7,99,58,88,101,83,112,10,102,6,109,86,111,95,84,41,64,54,116,114,92,47,20,9,90,53,48,97,49,45,39,50,13,103,94,15,56,110,44,78,75,73,91,30,113,38,81,24,17,106,28,18,23,63,96,3,27,77,36,31,60,115,42,33,4,61,79,118,11,37,74,80,71,35,25,76,107,55,87,14,26,19,65,32,100,105,21,0,85,89,5,117,43,8,34,98,12,59,51,72,29,52,69,108,16,82,57,40,67,104,2,46,70,119,62,1,68,22,93,66],"cond_shown":["Incongruent","Incongruent","Congruent","Congruent","Incongruent","Incongruent","Congruent","Congruent","Congruent","Congruent","Incongruent","Congruent","Incongruent","Incongruent","Congruent","Incongruent","Congruent","Congruent","Congruent","Congruent","Congruent","Incongruent","Congruent","Incongruent","Congruent","Incongruent","Congruent","Incongruent","Incongruent","Incongruent","Incongruent","Congruent","Incongruent","Incongruent","Congruent","Incongruent","Congruent","Congruent","Congruent","Congruent","Incongruent","Incongruent","Incongruent","Congruent","Incongruent","Congruent","Incongruent","Congruent","Incongruent","Congruent","Congruent","Congruent","Incongruent","Incongruent","Congruent","Incongruent","Incongruent","Incongruent","Congruent","Incongruent","Congruent","Incongruent","Congruent","Incongruent","Congruent","Incongruent","Incongruent","Congruent","Incongruent","Incongruent","Congruent","Congruent","Incongruent","Incongruent","Incongruent","Congruent","Incongruent","Incongruent","Incongruent","Congruent","Congruent","Incongruent","Incongruent","Congruent","Congruent","Incongruent","Incongruent","Congruent","Incongruent","Incongruent","Incongruent","Incongruent","Incongruent","Congruent","Congruent","Congruent","Congruent","Incongruent","Incongruent","Congruent","Incongruent","Congruent","Incongruent","Congruent","Congruent","Congruent","Incongruent","Congruent","Incongruent","Congruent","Congruent","Congruent","Congruent","Incongruent","Congruent","Incongruent","Congruent","Congruent","Incongruent","Congruent"],"ratio_trial":[100,200,300,300,300,300,300,300,100,100,100,200,200,300,100,300,300,100,200,100,200,300,200,200,100,300,100,100,100,200,200,200,100,100,300,200,200,200,200,100,200,100,100,100,300,200,200,100,300,300,300,100,300,200,100,200,200,300,100,100,100,100,100,200,300,100,100,300,300,100,200,200,300,300,100,300,300,100,200,200,200,100,300,200,300,200,200,100,100,300,300,200,100,200,300,200,100,300,200,100,300,300,200,100,300,300,200,300,100,200,200,300,300,300,200,100,200,300,200,100],"left_num":[1,4,4,5,8,13,4,12,9,2,6,5,7,8,4,7,20,8,1,12,8,2,4,11,4,4,4,12,3,7,14,3,6,3,1,4,20,21,12,11,4,6,13,1,4,3,4,12,8,4,2,3,13,14,15,6,4,1,3,6,9,9,2,4,8,12,12,3,13,13,6,13,4,13,13,3,1,6,4,8,11,11,4,13,20,3,14,10,3,4,3,4,6,7,4,9,3,13,4,7,13,5,4,6,20,2,11,1,3,8,7,20,20,4,20,8,6,4,7,11],"right_num":[8,6,1,6,14,12,2,2,8,6,7,14,8,9,6,8,5,2,21,13,2,6,3,3,15,2,6,2,8,6,6,14,11,4,11,1,9,2,6,6,1,11,12,3,2,11,1,13,14,2,12,2,12,6,13,3,1,3,2,7,8,13,6,14,1,2,2,11,12,12,7,14,6,12,12,4,3,3,6,2,3,9,2,14,9,11,6,3,7,2,4,6,7,2,13,13,4,12,6,9,12,7,1,5,9,12,3,3,8,2,2,5,9,6,9,6,3,13,4,4],"left_den":[2,5,10,25,10,26,5,24,15,5,10,10,10,10,8,10,25,16,2,30,15,4,10,20,10,20,8,30,5,15,30,6,10,6,5,30,25,30,20,22,30,10,26,2,20,10,30,30,10,5,10,6,26,30,25,20,30,2,6,10,15,15,5,6,16,30,30,12,26,26,12,26,5,26,26,6,2,12,5,15,22,22,20,26,25,4,30,25,9,20,6,5,10,21,20,30,20,26,5,14,26,25,30,20,25,10,20,5,5,15,21,25,25,5,25,16,15,20,15,22],"right_den":[20,10,10,12,28,15,4,10,16,12,14,20,16,18,10,20,10,5,30,26,6,30,15,4,30,4,10,4,16,9,9,20,22,10,22,3,15,4,15,15,3,22,20,5,4,22,3,26,28,4,24,5,15,9,26,6,3,15,5,14,16,26,12,30,5,4,4,20,15,20,10,20,12,15,20,5,15,5,10,6,10,15,4,20,18,20,9,10,30,4,20,10,14,15,26,26,16,15,10,15,15,14,3,25,18,24,4,6,16,6,15,10,18,12,15,10,15,26,6,10],"correct_side":[1,1,1,2,1,2,1,1,1,2,1,2,1,1,2,1,1,1,2,2,1,1,1,2,2,2,2,2,1,2,2,2,1,1,2,2,1,1,1,1,2,1,2,2,2,2,2,2,1,1,2,1,2,2,1,2,2,1,1,1,1,1,2,1,1,2,2,2,2,2,2,2,1,2,2,2,1,2,1,1,1,2,2,2,1,1,2,1,1,2,1,1,1,1,2,2,2,2,1,2,2,2,2,1,1,2,2,2,1,1,1,1,1,1,1,2,1,2,2,1],"img_shown":["img2/100/Incongruent/L/I_Dist_100_LN_1_LD_2_RN_8_RD_20_0.png","img2/200/Incongruent/L/I_Dist_200_LN_4_LD_5_RN_6_RD_10_0.png","img2/300/Congruent/L/C_Dist_300_LN_4_LD_10_RN_1_RD_10_0.png","img2/300/Congruent/R/C_Dist_300_LN_5_LD_25_RN_6_RD_12_1.png","img2/300/Incongruent/L/I_Dist_300_LN_8_LD_10_RN_14_RD_28_0.png","img2/300/Incongruent/R/I_Dist_300_LN_13_LD_26_RN_12_RD_15_1.png","img2/300/Congruent/L/C_Dist_300_LN_4_LD_5_RN_2_RD_4_0.png","img2/300/Congruent/L/C_Dist_300_LN_12_LD_24_RN_2_RD_10_0.png","img2/100/Congruent/L/C_Dist_100_LN_9_LD_15_RN_8_RD_16_0.png","img2/100/Congruent/R/C_Dist_100_LN_2_LD_5_RN_6_RD_12_1.png","img2/100/Incongruent/L/I_Dist_100_LN_6_LD_10_RN_7_RD_14_0.png","img2/200/Congruent/R/C_Dist_200_LN_5_LD_10_RN_14_RD_20_1.png","img2/200/Incongruent/L/I_Dist_200_LN_7_LD_10_RN_8_RD_16_0.png","img2/300/Incongruent/L/I_Dist_300_LN_8_LD_10_RN_9_RD_18_0.png","img2/100/Congruent/R/C_Dist_100_LN_4_LD_8_RN_6_RD_10_1.png","img2/300/Incongruent/L/I_Dist_300_LN_7_LD_10_RN_8_RD_20_0.png","img2/300/Congruent/L/C_Dist_300_LN_20_LD_25_RN_5_RD_10_0.png","img2/100/Congruent/L/C_Dist_100_LN_8_LD_16_RN_2_RD_5_0.png","img2/200/Congruent/R/C_Dist_200_LN_1_LD_2_RN_21_RD_30_1.png","img2/100/Congruent/R/C_Dist_100_LN_12_LD_30_RN_13_RD_26_1.png","img2/200/Congruent/L/C_Dist_200_LN_8_LD_15_RN_2_RD_6_0.png","img2/300/Incongruent/L/I_Dist_300_LN_2_LD_4_RN_6_RD_30_0.png","img2/200/Congruent/L/C_Dist_200_LN_4_LD_10_RN_3_RD_15_0.png","img2/200/Incongruent/R/I_Dist_200_LN_11_LD_20_RN_3_RD_4_1.png","img2/100/Congruent/R/C_Dist_100_LN_4_LD_10_RN_15_RD_30_1.png","img2/300/Incongruent/R/I_Dist_300_LN_4_LD_20_RN_2_RD_4_1.png","img2/100/Congruent/R/C_Dist_100_LN_4_LD_8_RN_6_RD_10_1.png","img2/100/Incongruent/R/I_Dist_100_LN_12_LD_30_RN_2_RD_4_1.png","img2/100/Incongruent/L/I_Dist_100_LN_3_LD_5_RN_8_RD_16_0.png","img2/200/Incongruent/R/I_Dist_200_LN_7_LD_15_RN_6_RD_9_1.png","img2/200/Incongruent/R/I_Dist_200_LN_14_LD_30_RN_6_RD_9_1.png","img2/200/Congruent/R/C_Dist_200_LN_3_LD_6_RN_14_RD_20_1.png","img2/100/Incongruent/L/I_Dist_100_LN_6_LD_10_RN_11_RD_22_0.png","img2/100/Incongruent/L/I_Dist_100_LN_3_LD_6_RN_4_RD_10_0.png","img2/300/Congruent/R/C_Dist_300_LN_1_LD_5_RN_11_RD_22_1.png","img2/200/Incongruent/R/I_Dist_200_LN_4_LD_30_RN_1_RD_3_1.png","img2/200/Congruent/L/C_Dist_200_LN_20_LD_25_RN_9_RD_15_0.png","img2/200/Congruent/L/C_Dist_200_LN_21_LD_30_RN_2_RD_4_0.png","img2/200/Congruent/L/C_Dist_200_LN_12_LD_20_RN_6_RD_15_0.png","img2/100/Congruent/L/C_Dist_100_LN_11_LD_22_RN_6_RD_15_0.png","img2/200/Incongruent/R/I_Dist_200_LN_4_LD_30_RN_1_RD_3_1.png","img2/100/Incongruent/L/I_Dist_100_LN_6_LD_10_RN_11_RD_22_0.png","img2/100/Incongruent/R/I_Dist_100_LN_13_LD_26_RN_12_RD_20_1.png","img2/100/Congruent/R/C_Dist_100_LN_1_LD_2_RN_3_RD_5_1.png","img2/300/Incongruent/R/I_Dist_300_LN_4_LD_20_RN_2_RD_4_1.png","img2/200/Congruent/R/C_Dist_200_LN_3_LD_10_RN_11_RD_22_1.png","img2/200/Incongruent/R/I_Dist_200_LN_4_LD_30_RN_1_RD_3_1.png","img2/100/Congruent/R/C_Dist_100_LN_12_LD_30_RN_13_RD_26_1.png","img2/300/Incongruent/L/I_Dist_300_LN_8_LD_10_RN_14_RD_28_0.png","img2/300/Congruent/L/C_Dist_300_LN_4_LD_5_RN_2_RD_4_0.png","img2/300/Congruent/R/C_Dist_300_LN_2_LD_10_RN_12_RD_24_1.png","img2/100/Congruent/L/C_Dist_100_LN_3_LD_6_RN_2_RD_5_0.png","img2/300/Incongruent/R/I_Dist_300_LN_13_LD_26_RN_12_RD_15_1.png","img2/200/Incongruent/R/I_Dist_200_LN_14_LD_30_RN_6_RD_9_1.png","img2/100/Congruent/L/C_Dist_100_LN_15_LD_25_RN_13_RD_26_0.png","img2/200/Incongruent/R/I_Dist_200_LN_6_LD_20_RN_3_RD_6_1.png","img2/200/Incongruent/R/I_Dist_200_LN_4_LD_30_RN_1_RD_3_1.png","img2/300/Incongruent/L/I_Dist_300_LN_1_LD_2_RN_3_RD_15_0.png","img2/100/Congruent/L/C_Dist_100_LN_3_LD_6_RN_2_RD_5_0.png","img2/100/Incongruent/L/I_Dist_100_LN_6_LD_10_RN_7_RD_14_0.png","img2/100/Congruent/L/C_Dist_100_LN_9_LD_15_RN_8_RD_16_0.png","img2/100/Incongruent/L/I_Dist_100_LN_9_LD_15_RN_13_RD_26_0.png","img2/100/Congruent/R/C_Dist_100_LN_2_LD_5_RN_6_RD_12_1.png","img2/200/Incongruent/L/I_Dist_200_LN_4_LD_6_RN_14_RD_30_0.png","img2/300/Congruent/L/C_Dist_300_LN_8_LD_16_RN_1_RD_5_0.png","img2/100/Incongruent/R/I_Dist_100_LN_12_LD_30_RN_2_RD_4_1.png","img2/100/Incongruent/R/I_Dist_100_LN_12_LD_30_RN_2_RD_4_1.png","img2/300/Congruent/R/C_Dist_300_LN_3_LD_12_RN_11_RD_20_1.png","img2/300/Incongruent/R/I_Dist_300_LN_13_LD_26_RN_12_RD_15_1.png","img2/100/Incongruent/R/I_Dist_100_LN_13_LD_26_RN_12_RD_20_1.png","img2/200/Congruent/R/C_Dist_200_LN_6_LD_12_RN_7_RD_10_1.png","img2/200/Congruent/R/C_Dist_200_LN_13_LD_26_RN_14_RD_20_1.png","img2/300/Incongruent/L/I_Dist_300_LN_4_LD_5_RN_6_RD_12_0.png","img2/300/Incongruent/R/I_Dist_300_LN_13_LD_26_RN_12_RD_15_1.png","img2/100/Incongruent/R/I_Dist_100_LN_13_LD_26_RN_12_RD_20_1.png","img2/300/Congruent/R/C_Dist_300_LN_3_LD_6_RN_4_RD_5_1.png","img2/300/Incongruent/L/I_Dist_300_LN_1_LD_2_RN_3_RD_15_0.png","img2/100/Incongruent/R/I_Dist_100_LN_6_LD_12_RN_3_RD_5_1.png","img2/200/Incongruent/L/I_Dist_200_LN_4_LD_5_RN_6_RD_10_0.png","img2/200/Congruent/L/C_Dist_200_LN_8_LD_15_RN_2_RD_6_0.png","img2/200/Congruent/L/C_Dist_200_LN_11_LD_22_RN_3_RD_10_0.png","img2/100/Incongruent/R/I_Dist_100_LN_11_LD_22_RN_9_RD_15_1.png","img2/300/Incongruent/R/I_Dist_300_LN_4_LD_20_RN_2_RD_4_1.png","img2/200/Congruent/R/C_Dist_200_LN_13_LD_26_RN_14_RD_20_1.png","img2/300/Congruent/L/C_Dist_300_LN_20_LD_25_RN_9_RD_18_0.png","img2/200/Incongruent/L/I_Dist_200_LN_3_LD_4_RN_11_RD_20_0.png","img2/200/Incongruent/R/I_Dist_200_LN_14_LD_30_RN_6_RD_9_1.png","img2/100/Congruent/L/C_Dist_100_LN_10_LD_25_RN_3_RD_10_0.png","img2/100/Incongruent/L/I_Dist_100_LN_3_LD_9_RN_7_RD_30_0.png","img2/300/Incongruent/R/I_Dist_300_LN_4_LD_20_RN_2_RD_4_1.png","img2/300/Incongruent/L/I_Dist_300_LN_3_LD_6_RN_4_RD_20_0.png","img2/200/Incongruent/L/I_Dist_200_LN_4_LD_5_RN_6_RD_10_0.png","img2/100/Incongruent/L/I_Dist_100_LN_6_LD_10_RN_7_RD_14_0.png","img2/200/Congruent/L/C_Dist_200_LN_7_LD_21_RN_2_RD_15_0.png","img2/300/Congruent/R/C_Dist_300_LN_4_LD_20_RN_13_RD_26_1.png","img2/200/Congruent/R/C_Dist_200_LN_9_LD_30_RN_13_RD_26_1.png","img2/100/Congruent/R/C_Dist_100_LN_3_LD_20_RN_4_RD_16_1.png","img2/300/Incongruent/R/I_Dist_300_LN_13_LD_26_RN_12_RD_15_1.png","img2/200/Incongruent/L/I_Dist_200_LN_4_LD_5_RN_6_RD_10_0.png","img2/100/Congruent/R/C_Dist_100_LN_7_LD_14_RN_9_RD_15_1.png","img2/300/Incongruent/R/I_Dist_300_LN_13_LD_26_RN_12_RD_15_1.png","img2/300/Congruent/R/C_Dist_300_LN_5_LD_25_RN_7_RD_14_1.png","img2/200/Incongruent/R/I_Dist_200_LN_4_LD_30_RN_1_RD_3_1.png","img2/100/Congruent/L/C_Dist_100_LN_6_LD_20_RN_5_RD_25_0.png","img2/300/Congruent/L/C_Dist_300_LN_20_LD_25_RN_9_RD_18_0.png","img2/300/Congruent/R/C_Dist_300_LN_2_LD_10_RN_12_RD_24_1.png","img2/200/Incongruent/R/I_Dist_200_LN_11_LD_20_RN_3_RD_4_1.png","img2/300/Congruent/R/C_Dist_300_LN_1_LD_5_RN_3_RD_6_1.png","img2/100/Incongruent/L/I_Dist_100_LN_3_LD_5_RN_8_RD_16_0.png","img2/200/Congruent/L/C_Dist_200_LN_8_LD_15_RN_2_RD_6_0.png","img2/200/Congruent/L/C_Dist_200_LN_7_LD_21_RN_2_RD_15_0.png","img2/300/Congruent/L/C_Dist_300_LN_20_LD_25_RN_5_RD_10_0.png","img2/300/Congruent/L/C_Dist_300_LN_20_LD_25_RN_9_RD_18_0.png","img2/300/Incongruent/L/I_Dist_300_LN_4_LD_5_RN_6_RD_12_0.png","img2/200/Congruent/L/C_Dist_200_LN_20_LD_25_RN_9_RD_15_0.png","img2/100/Incongruent/R/I_Dist_100_LN_8_LD_16_RN_6_RD_10_1.png","img2/200/Congruent/L/C_Dist_200_LN_6_LD_15_RN_3_RD_15_0.png","img2/300/Congruent/R/C_Dist_300_LN_4_LD_20_RN_13_RD_26_1.png","img2/200/Incongruent/R/I_Dist_200_LN_7_LD_15_RN_4_RD_6_1.png","img2/100/Congruent/L/C_Dist_100_LN_11_LD_22_RN_4_RD_10_0.png"],"dist100_C":[["C_Dist_100_LN_10_LD_25_RN_3_RD_10_0.png","C_Dist_100_LN_11_LD_22_RN_4_RD_10_0.png","C_Dist_100_LN_11_LD_22_RN_6_RD_15_0.png","C_Dist_100_LN_15_LD_25_RN_13_RD_26_0.png","C_Dist_100_LN_3_LD_6_RN_2_RD_5_0.png","C_Dist_100_LN_6_LD_20_RN_5_RD_25_0.png","C_Dist_100_LN_8_LD_16_RN_2_RD_5_0.png","C_Dist_100_LN_9_LD_15_RN_8_RD_16_0.png"],["C_Dist_100_LN_1_LD_2_RN_18_RD_30_1.png","C_Dist_100_LN_1_LD_2_RN_3_RD_5_1.png","C_Dist_100_LN_12_LD_30_RN_13_RD_26_1.png","C_Dist_100_LN_2_LD_5_RN_11_RD_22_1.png","C_Dist_100_LN_2_LD_5_RN_6_RD_12_1.png","C_Dist_100_LN_3_LD_20_RN_4_RD_16_1.png","C_Dist_100_LN_4_LD_10_RN_15_RD_30_1.png","C_Dist_100_LN_4_LD_8_RN_6_RD_10_1.png","C_Dist_100_LN_6_LD_12_RN_15_RD_25_1.png","C_Dist_100_LN_7_LD_14_RN_15_RD_25_1.png","C_Dist_100_LN_7_LD_14_RN_9_RD_15_1.png"]],"dist100_I":[["I_Dist_100_LN_1_LD_2_RN_8_RD_20_0.png","I_Dist_100_LN_2_LD_4_RN_6_RD_15_0.png","I_Dist_100_LN_2_LD_4_RN_8_RD_20_0.png","I_Dist_100_LN_3_LD_5_RN_11_RD_22_0.png","I_Dist_100_LN_3_LD_5_RN_8_RD_16_0.png","I_Dist_100_LN_3_LD_6_RN_4_RD_10_0.png","I_Dist_100_LN_3_LD_9_RN_7_RD_30_0.png","I_Dist_100_LN_4_LD_8_RN_8_RD_20_0.png","I_Dist_100_LN_6_LD_10_RN_11_RD_22_0.png","I_Dist_100_LN_6_LD_10_RN_13_RD_26_0.png","I_Dist_100_LN_6_LD_10_RN_7_RD_14_0.png","I_Dist_100_LN_9_LD_10_RN_20_RD_25_0.png","I_Dist_100_LN_9_LD_15_RN_13_RD_26_0.png","I_Dist_100_LN_9_LD_15_RN_14_RD_28_0.png"],["I_Dist_100_LN_10_LD_25_RN_8_RD_16_1.png","I_Dist_100_LN_10_LD_25_RN_9_RD_18_1.png","I_Dist_100_LN_11_LD_22_RN_9_RD_15_1.png","I_Dist_100_LN_12_LD_24_RN_9_RD_15_1.png","I_Dist_100_LN_12_LD_30_RN_2_RD_4_1.png","I_Dist_100_LN_13_LD_26_RN_12_RD_20_1.png","I_Dist_100_LN_13_LD_26_RN_6_RD_10_1.png","I_Dist_100_LN_17_LD_30_RN_10_RD_15_1.png","I_Dist_100_LN_6_LD_12_RN_3_RD_5_1.png","I_Dist_100_LN_8_LD_16_RN_6_RD_10_1.png","I_Dist_100_LN_8_LD_20_RN_1_RD_2_1.png","I_Dist_100_LN_9_LD_18_RN_6_RD_10_1.png"]],"dist100_S":[["E_Dist_100_LN_2_LD_12_RN_2_RD_30_0.png","E_Dist_100_LN_6_LD_10_RN_6_RD_12_0.png"],["E_Dist_100_LN_6_LD_12_RN_6_RD_10_1.png"]],"dist200_C":[["C_Dist_200_LN_11_LD_22_RN_3_RD_10_0.png","C_Dist_200_LN_12_LD_15_RN_6_RD_10_0.png","C_Dist_200_LN_12_LD_20_RN_6_RD_15_0.png","C_Dist_200_LN_14_LD_28_RN_6_RD_20_0.png","C_Dist_200_LN_15_LD_25_RN_4_RD_10_0.png","C_Dist_200_LN_16_LD_20_RN_12_RD_20_0.png","C_Dist_200_LN_16_LD_30_RN_9_RD_27_0.png","C_Dist_200_LN_20_LD_25_RN_9_RD_15_0.png","C_Dist_200_LN_21_LD_30_RN_2_RD_4_0.png","C_Dist_200_LN_4_LD_10_RN_3_RD_15_0.png","C_Dist_200_LN_4_LD_8_RN_3_RD_10_0.png","C_Dist_200_LN_6_LD_15_RN_3_RD_15_0.png","C_Dist_200_LN_7_LD_21_RN_2_RD_15_0.png","C_Dist_200_LN_8_LD_15_RN_2_RD_6_0.png","C_Dist_200_LN_8_LD_15_RN_3_RD_9_0.png","C_Dist_200_LN_8_LD_15_RN_7_RD_21_0.png","C_Dist_200_LN_9_LD_20_RN_4_RD_16_0.png"],["C_Dist_200_LN_1_LD_2_RN_21_RD_30_1.png","C_Dist_200_LN_13_LD_26_RN_14_RD_20_1.png","C_Dist_200_LN_3_LD_10_RN_11_RD_22_1.png","C_Dist_200_LN_3_LD_10_RN_14_RD_28_1.png","C_Dist_200_LN_3_LD_10_RN_7_RD_14_1.png","C_Dist_200_LN_3_LD_12_RN_9_RD_20_1.png","C_Dist_200_LN_3_LD_6_RN_14_RD_20_1.png","C_Dist_200_LN_5_LD_10_RN_14_RD_20_1.png","C_Dist_200_LN_6_LD_12_RN_7_RD_10_1.png","C_Dist_200_LN_6_LD_20_RN_11_RD_22_1.png","C_Dist_200_LN_7_LD_15_RN_18_RD_27_1.png","C_Dist_200_LN_9_LD_30_RN_13_RD_26_1.png"]],"dist200_I":[["I_Dist_200_LN_1_LD_2_RN_3_RD_10_0.png","I_Dist_200_LN_1_LD_3_RN_2_RD_15_0.png","I_Dist_200_LN_3_LD_4_RN_11_RD_20_0.png","I_Dist_200_LN_4_LD_5_RN_6_RD_10_0.png","I_Dist_200_LN_4_LD_6_RN_14_RD_30_0.png","I_Dist_200_LN_7_LD_10_RN_12_RD_24_0.png","I_Dist_200_LN_7_LD_10_RN_14_RD_28_0.png","I_Dist_200_LN_7_LD_10_RN_8_RD_16_0.png"],["I_Dist_200_LN_11_LD_20_RN_3_RD_4_1.png","I_Dist_200_LN_14_LD_30_RN_12_RD_18_1.png","I_Dist_200_LN_14_LD_30_RN_6_RD_9_1.png","I_Dist_200_LN_3_LD_10_RN_1_RD_2_1.png","I_Dist_200_LN_4_LD_30_RN_1_RD_3_1.png","I_Dist_200_LN_6_LD_20_RN_3_RD_6_1.png","I_Dist_200_LN_7_LD_15_RN_4_RD_6_1.png","I_Dist_200_LN_7_LD_15_RN_6_RD_9_1.png","I_Dist_200_LN_9_LD_15_RN_8_RD_10_1.png"]],"dist200_S":[["E_Dist_200_LN_3_LD_6_RN_3_RD_10_0.png"],["E_Dist_200_LN_3_LD_10_RN_3_RD_6_1.png"]],"dist300_C":[["C_Dist_300_LN_11_LD_22_RN_1_RD_5_0.png","C_Dist_300_LN_11_LD_22_RN_2_RD_10_0.png","C_Dist_300_LN_11_LD_22_RN_4_RD_20_0.png","C_Dist_300_LN_12_LD_24_RN_2_RD_10_0.png","C_Dist_300_LN_18_LD_20_RN_9_RD_15_0.png","C_Dist_300_LN_20_LD_25_RN_13_RD_26_0.png","C_Dist_300_LN_20_LD_25_RN_14_RD_28_0.png","C_Dist_300_LN_20_LD_25_RN_5_RD_10_0.png","C_Dist_300_LN_20_LD_25_RN_8_RD_16_0.png","C_Dist_300_LN_20_LD_25_RN_9_RD_18_0.png","C_Dist_300_LN_24_LD_30_RN_2_RD_4_0.png","C_Dist_300_LN_24_LD_30_RN_8_RD_16_0.png","C_Dist_300_LN_3_LD_6_RN_2_RD_10_0.png","C_Dist_300_LN_4_LD_10_RN_1_RD_10_0.png","C_Dist_300_LN_4_LD_5_RN_2_RD_4_0.png","C_Dist_300_LN_8_LD_16_RN_1_RD_5_0.png","C_Dist_300_LN_9_LD_10_RN_3_RD_5_0.png"],["C_Dist_300_LN_1_LD_20_RN_7_RD_20_1.png","C_Dist_300_LN_1_LD_3_RN_19_RD_30_1.png","C_Dist_300_LN_1_LD_30_RN_8_RD_24_1.png","C_Dist_300_LN_1_LD_5_RN_11_RD_22_1.png","C_Dist_300_LN_1_LD_5_RN_3_RD_6_1.png","C_Dist_300_LN_1_LD_5_RN_6_RD_12_1.png","C_Dist_300_LN_2_LD_10_RN_12_RD_24_1.png","C_Dist_300_LN_2_LD_20_RN_10_RD_25_1.png","C_Dist_300_LN_3_LD_12_RN_11_RD_20_1.png","C_Dist_300_LN_3_LD_6_RN_4_RD_5_1.png","C_Dist_300_LN_4_LD_20_RN_13_RD_26_1.png","C_Dist_300_LN_5_LD_25_RN_6_RD_12_1.png","C_Dist_300_LN_5_LD_25_RN_7_RD_14_1.png","C_Dist_300_LN_7_LD_14_RN_20_RD_25_1.png","C_Dist_300_LN_8_LD_15_RN_10_RD_12_1.png"]],"dist300_I":[["I_Dist_300_LN_1_LD_2_RN_2_RD_10_0.png","I_Dist_300_LN_1_LD_2_RN_3_RD_15_0.png","I_Dist_300_LN_2_LD_4_RN_6_RD_30_0.png","I_Dist_300_LN_3_LD_6_RN_4_RD_20_0.png","I_Dist_300_LN_4_LD_5_RN_6_RD_12_0.png","I_Dist_300_LN_4_LD_5_RN_8_RD_16_0.png","I_Dist_300_LN_7_LD_10_RN_8_RD_20_0.png","I_Dist_300_LN_8_LD_10_RN_14_RD_28_0.png","I_Dist_300_LN_8_LD_10_RN_9_RD_18_0.png"],["I_Dist_300_LN_13_LD_26_RN_12_RD_15_1.png","I_Dist_300_LN_4_LD_20_RN_2_RD_4_1.png"]],"dist300_S":[["E_Dist_300_LN_9_LD_12_RN_9_RD_20_0.png"],["E_Dist_300_LN_18_LD_30_RN_18_RD_20_1.png","E_Dist_300_LN_3_LD_10_RN_3_RD_5_1.png","E_Dist_300_LN_9_LD_20_RN_9_RD_12_1.png"]],"dist500_C":[["C_Dist_500_LN_10_LD_13_RN_7_RD_26_0.png","C_Dist_500_LN_10_LD_15_RN_4_RD_24_0.png","C_Dist_500_LN_12_LD_16_RN_3_RD_12_0.png","C_Dist_500_LN_12_LD_18_RN_4_RD_24_0.png","C_Dist_500_LN_15_LD_18_RN_5_RD_15_0.png","C_Dist_500_LN_15_LD_20_RN_1_RD_4_0.png","C_Dist_500_LN_18_LD_27_RN_1_RD_6_0.png","C_Dist_500_LN_20_LD_24_RN_1_RD_3_0.png","C_Dist_500_LN_20_LD_24_RN_3_RD_9_0.png","C_Dist_500_LN_20_LD_24_RN_7_RD_21_0.png","C_Dist_500_LN_20_LD_28_RN_3_RD_14_0.png","C_Dist_500_LN_21_LD_28_RN_6_RD_24_0.png","C_Dist_500_LN_22_LD_28_RN_2_RD_7_0.png","C_Dist_500_LN_25_LD_30_RN_9_RD_27_0.png","C_Dist_500_LN_4_LD_6_RN_1_RD_6_0.png","C_Dist_500_LN_5_LD_6_RN_2_RD_6_0.png","C_Dist_500_LN_6_LD_9_RN_1_RD_6_0.png","C_Dist_500_LN_7_LD_10_RN_1_RD_5_0.png","C_Dist_500_LN_8_LD_12_RN_1_RD_6_0.png","C_Dist_500_LN_8_LD_12_RN_4_RD_24_0.png"],["C_Dist_500_LN_1_LD_4_RN_12_RD_16_1.png","C_Dist_500_LN_1_LD_4_RN_9_RD_12_1.png","C_Dist_500_LN_1_LD_9_RN_11_RD_18_1.png","C_Dist_500_LN_10_LD_24_RN_22_RD_24_1.png","C_Dist_500_LN_2_LD_12_RN_10_RD_15_1.png","C_Dist_500_LN_2_LD_12_RN_12_RD_18_1.png","C_Dist_500_LN_2_LD_12_RN_4_RD_6_1.png","C_Dist_500_LN_2_LD_24_RN_7_RD_12_1.png","C_Dist_500_LN_2_LD_5_RN_18_RD_20_1.png","C_Dist_500_LN_2_LD_5_RN_9_RD_10_1.png","C_Dist_500_LN_2_LD_8_RN_12_RD_16_1.png","C_Dist_500_LN_2_LD_8_RN_21_RD_28_1.png","C_Dist_500_LN_3_LD_10_RN_4_RD_5_1.png","C_Dist_500_LN_3_LD_12_RN_15_RD_20_1.png","C_Dist_500_LN_3_LD_30_RN_6_RD_10_1.png","C_Dist_500_LN_3_LD_8_RN_14_RD_16_1.png","C_Dist_500_LN_4_LD_16_RN_15_RD_20_1.png","C_Dist_500_LN_4_LD_24_RN_12_RD_18_1.png","C_Dist_500_LN_5_LD_14_RN_6_RD_7_1.png","C_Dist_500_LN_7_LD_21_RN_20_RD_24_1.png","C_Dist_500_LN_7_LD_28_RN_12_RD_16_1.png","C_Dist_500_LN_7_LD_28_RN_9_RD_12_1.png","C_Dist_500_LN_9_LD_27_RN_20_RD_24_1.png"]],"dist500_I":[["I_Dist_500_LN_2_LD_3_RN_4_RD_24_0.png","I_Dist_500_LN_5_LD_6_RN_6_RD_18_0.png","I_Dist_500_LN_7_LD_8_RN_9_RD_24_0.png"],["I_Dist_500_LN_7_LD_21_RN_5_RD_6_1.png"]],"dist500_S":[["E_Dist_500_LN_6_LD_8_RN_6_RD_24_0.png"],["E_Dist_500_LN_2_LD_12_RN_2_RD_3_1.png","E_Dist_500_LN_6_LD_24_RN_6_RD_8_1.png"]]}},{"start_time":1552055546278,"click_time":1552055548093,"finger_time":1552055547871,"fix_duration":982.5076524762707,"trial":1,"RT":1593,"MT":222,"sideResp":1,"stimulus":[],"xmouse":[770,770,770,770,770,770,770,770,770,770,770,770,770,770,770,770,770,770,770,770,770,770,770,770,770,770,770,770,770,770,770,770,770,770,770,770,770,770,770,770,770,770,770,770,770,770,770,770,770,770,770,770,770,770,770,770,770,770,770,770,770,770,770,770,770,770,770,770,770,770,770,770,770,770,770,770,770,768,763,747,741,719,687,668,655,641,623,571,535,525,509],"ymouse":[527,527,527,527,527,527,527,527,527,527,527,527,527,527,527,527,527,527,527,527,527,527,527,527,527,527,527,527,527,527,527,527,527,527,527,527,527,527,527,527,527,527,527,527,527,527,527,527,527,527,527,527,527,527,527,527,527,527,527,527,527,527,527,527,527,527,527,527,527,527,527,527,527,527,527,527,521,508,476,433,419,391,344,316,295,273,250,182,135,120,98],"timestamp_mouse":[14,35,55,74,93,114,135,153,175,195,214,234,255,274,295,314,334,355,375,393,415,435,454,474,495,515,534,554,575,595,615,633,655,675,695,714,734,755,774,794,815,835,855,874,895,915,935,955,975,994,1015,1035,1055,1075,1095,1115,1135,1154,1174,1195,1215,1235,1254,1274,1295,1315,1334,1355,1375,1395,1413,1434,1455,1474,1495,1514,1534,1554,1575,1593,1614,1634,1656,1673,1694,1714,1734,1756,1774,1794,1814],"xSR":733.5,"ySR":464.1,"xT1":420.09999999999997,"yT1":0,"xT2":1046.8999999999999,"yT2":0,"toosoon":0,"cond_shown":"Incongruent","ratio_trial":200,"L_num":4,"L_den":5,"R_num":6,"R_den":10,"correct_side":1,"subjID":"samueldavidrealpe27","gender":"0","school":"No_school","age":"No_age"},{"start_time":1552055550237,"click_time":1552055553112,"finger_time":1552055552772,"fix_duration":663.1717279063716,"trial":2,"RT":2535,"MT":340,"sideResp":1,"stimulus":[],"xmouse":[795,795,795,795,795,795,795,795,795,795,795,795,795,795,795,795,795,795,795,795,795,795,795,795,795,795,795,795,795,795,795,795,795,795,795,795,795,795,795,795,795,795,795,795,795,795,795,795,795,795,795,795,795,795,795,795,795,795,795,795,795,795,795,795,795,795,795,795,795,795,795,795,795,795,795,795,795,795,795,795,795,795,795,795,795,795,795,795,795,795,795,795,795,795,795,795,795,795,795,795,795,795,795,795,795,795,795,795,795,795,795,795,795,795,795,795,795,795,795,795,795,795,795,796,785,773,752,729,695,640,620,590,582,554,533,529,529,529,529,523,516,510,496,487],"ymouse":[548,548,548,548,548,548,548,548,548,548,548,548,548,548,548,548,548,548,548,548,548,548,548,548,548,548,548,548,548,548,548,548,548,548,548,548,548,548,548,548,548,548,548,548,548,548,548,548,548,548,548,548,548,548,548,548,548,548,548,548,548,548,548,548,548,548,548,548,548,548,548,548,548,548,548,548,548,548,548,548,548,548,548,548,548,548,548,548,548,548,548,548,548,548,548,548,548,548,548,548,548,548,548,548,548,548,548,548,548,548,548,548,548,548,548,548,548,548,548,548,548,548,548,547,518,497,463,425,378,301,273,238,233,213,201,199,199,199,199,182,164,144,112,93],"timestamp_mouse":[20,36,55,75,96,116,136,156,174,195,216,235,255,276,296,316,336,355,374,395,415,434,455,475,496,514,536,556,576,596,614,636,656,676,695,716,735,755,776,795,814,835,856,875,896,914,936,955,975,996,1015,1035,1055,1076,1096,1115,1136,1155,1175,1194,1216,1236,1256,1275,1294,1315,1336,1356,1376,1395,1414,1435,1455,1476,1496,1516,1535,1555,1576,1595,1616,1636,1655,1675,1695,1716,1735,1755,1775,1795,1814,1836,1856,1876,1895,1916,1936,1956,1975,1995,2016,2035,2056,2076,2095,2116,2135,2156,2176,2196,2216,2235,2254,2276,2296,2316,2335,2356,2375,2396,2416,2436,2456,2476,2495,2515,2535,2556,2575,2597,2614,2637,2655,2675,2696,2715,2735,2756,2775,2796,2815,2835,2855,2875],"xSR":733.5,"ySR":464.1,"xT1":420.09999999999997,"yT1":0,"xT2":1046.8999999999999,"yT2":0,"toosoon":0,"cond_shown":"Congruent","ratio_trial":300,"L_num":4,"L_den":10,"R_num":1,"R_den":10,"correct_side":1,"subjID":"samueldavidrealpe27","gender":"0","school":"No_school","age":"No_age"},{"start_time":1552055556345,"click_time":1552055560832,"finger_time":1552055558233,"fix_duration":250,"trial":3,"RT":1888,"MT":2599,"sideResp":1,"stimulus":[],"xmouse":[771,771,771,771,771,771,771,771,771,771,771,771,771,771,771,771,771,771,771,771,771,771,771,771,771,771,771,771,771,771,771,771,771,771,771,771,771,771,771,771,771,771,771,771,771,771,771,771,771,771,771,771,771,771,771,771,771,771,771,771,771,771,771,771,771,771,771,771,771,771,771,771,771,771,771,771,771,771,771,771,771,771,771,773,775,784,788,794,801,808,819,823,826,829,835,838,842,849,863,885,897,908,926,930,939,956,964,969,972,973,974,975,977,980,988,992,995,999,1008,1019,1026,1031,1036,1039,1043,1048,1051,1052,1054,1056,1061,1063,1066,1071,1074,1076,1077,1080,1081,1083,1084,1084,1084,1084,1084,1084,1084,1084,1084,1084,1084,1084,1084,1084,1084,1084,1084,1084,1084,1084,1084,1084,1084,1084,1083,1082,1081,1078,1072,1053,1042,1035,1029,1025,1013,1006,993,988,974,964,934,916,897,874,819,790,746,687,648,592,572,557,550,548,547,547,547,547,547,547,546,546,546,544,537,533,530,527,522,520,514,511,504,498,496,493,492,492,491,488,481,477,475,474,472],"ymouse":[520,520,520,520,520,520,520,520,520,520,520,520,520,520,520,520,520,520,520,520,520,520,520,520,520,520,520,520,520,520,520,520,520,520,520,520,520,520,520,520,520,520,520,520,520,520,520,520,520,520,520,520,520,520,520,520,520,520,520,520,520,520,520,520,520,520,520,520,520,520,520,520,520,520,520,520,520,520,520,520,520,520,520,519,519,516,513,509,505,501,494,492,490,488,484,481,479,474,464,443,430,417,396,391,378,353,341,334,329,328,326,326,323,320,311,304,299,292,277,256,245,236,230,225,219,210,205,204,200,196,186,180,175,164,155,152,147,139,136,129,126,125,125,124,124,124,124,124,124,124,124,124,124,124,124,124,124,124,124,124,124,124,124,124,124,124,124,125,132,156,168,177,185,190,200,202,207,208,213,217,225,230,235,242,257,265,277,286,291,295,295,295,294,294,294,294,294,294,294,294,289,283,276,265,237,225,216,208,200,196,191,187,183,181,181,180,180,179,174,167,144,131,120,108,99],"timestamp_mouse":[12,33,47,66,88,106,127,148,167,187,208,228,246,267,288,308,328,348,367,386,408,428,447,468,488,508,528,548,568,588,608,628,648,667,686,708,727,748,767,787,808,828,847,866,887,908,926,948,968,987,1007,1027,1047,1067,1087,1108,1127,1147,1167,1187,1208,1228,1248,1268,1288,1307,1328,1348,1367,1387,1408,1428,1447,1468,1487,1507,1528,1547,1567,1587,1607,1628,1648,1667,1687,1707,1728,1747,1767,1788,1807,1827,1848,1867,1888,1907,1927,1947,1968,1988,2007,2029,2047,2067,2087,2107,2127,2147,2167,2188,2208,2227,2248,2268,2287,2306,2327,2347,2368,2389,2407,2427,2448,2468,2487,2508,2527,2548,2566,2587,2608,2627,2647,2667,2687,2707,2727,2747,2766,2788,2807,2827,2848,2867,2888,2906,2928,2948,2968,2988,3008,3027,3048,3067,3088,3108,3127,3147,3166,3188,3208,3228,3247,3267,3288,3307,3327,3347,3367,3388,3407,3427,3448,3468,3488,3507,3528,3548,3567,3588,3607,3627,3648,3667,3689,3707,3727,3747,3768,3789,3807,3827,3847,3867,3887,3908,3927,3948,3967,3988,4006,4027,4047,4068,4089,4107,4127,4148,4167,4187,4207,4227,4248,4268,4288,4307,4327,4346,4366,4388,4407,4427,4448,4467,4487],"xSR":733.5,"ySR":464.1,"xT1":420.09999999999997,"yT1":0,"xT2":1046.8999999999999,"yT2":0,"toosoon":0,"cond_shown":"Congruent","ratio_trial":300,"L_num":5,"L_den":25,"R_num":6,"R_den":12,"correct_side":2,"subjID":"samueldavidrealpe27","gender":"0","school":"No_school","age":"No_age"},{"start_time":1552055563326,"click_time":1552055565692,"finger_time":1552055564933,"fix_duration":672.9128342616726,"trial":4,"RT":1607,"MT":759,"sideResp":1,"stimulus":[],"xmouse":[781,781,781,781,781,781,781,781,781,781,781,781,781,781,781,781,781,781,781,781,781,781,781,781,781,781,781,781,781,781,781,781,781,781,781,781,781,781,781,781,781,781,781,781,781,781,781,781,781,781,781,781,781,781,781,781,781,781,781,781,781,781,781,781,781,781,781,781,781,781,781,781,781,781,781,781,781,781,780,777,668,560,448,361,301,249,241,241,246,252,257,258,258,258,258,258,267,284,286,288,288,288,288,290,293,301,301,301,303,313,334,341,341,341,341,341,352,391,430],"ymouse":[510,510,510,510,510,510,510,510,510,510,510,510,510,510,510,510,510,510,510,510,510,510,510,510,510,510,510,510,510,510,510,510,510,510,510,510,510,510,510,510,510,510,510,510,510,510,510,510,510,510,510,510,510,510,510,510,510,510,510,510,510,510,510,510,510,510,510,510,510,510,510,510,510,510,510,510,510,510,510,508,458,412,352,284,219,117,78,69,43,28,13,12,12,12,12,11,10,7,7,7,7,7,7,7,7,5,5,5,5,4,1,0,0,0,0,0,2,29,48],"timestamp_mouse":[12,35,46,66,87,106,127,146,167,187,206,227,246,267,287,306,327,347,367,386,406,427,446,467,487,507,526,547,566,586,607,627,645,667,686,706,726,747,767,787,806,827,846,867,886,906,927,947,965,987,1006,1026,1047,1067,1086,1107,1127,1146,1165,1186,1207,1227,1247,1266,1287,1307,1325,1347,1366,1387,1407,1427,1446,1466,1487,1506,1527,1545,1566,1585,1607,1626,1645,1666,1687,1707,1726,1746,1766,1786,1807,1826,1846,1867,1886,1906,1926,1947,1966,1986,2007,2026,2046,2066,2086,2108,2127,2146,2166,2185,2207,2226,2246,2267,2286,2306,2326,2346,2366],"xSR":733.5,"ySR":464.1,"xT1":420.09999999999997,"yT1":0,"xT2":1046.8999999999999,"yT2":0,"toosoon":0,"cond_shown":"Incongruent","ratio_trial":300,"L_num":8,"L_den":10,"R_num":14,"R_den":28,"correct_side":1,"subjID":"samueldavidrealpe27","gender":"0","school":"No_school","age":"No_age"},{"start_time":1552055568087,"click_time":1552055570112,"finger_time":1552055569113,"fix_duration":1291.1595798355588,"trial":5,"RT":1026,"MT":999,"sideResp":2,"stimulus":[],"xmouse":[769,769,769,769,769,769,769,769,769,769,769,769,769,769,769,769,769,769,769,769,769,769,769,769,769,769,769,769,769,769,769,769,769,769,769,769,769,769,769,769,769,769,769,769,769,769,771,779,783,789,794,806,815,847,864,880,895,924,939,953,964,966,967,967,967,967,968,972,975,977,983,989,1006,1015,1022,1027,1031,1035,1038,1039,1041,1043,1044,1048,1051,1052,1054,1060,1061,1062,1062,1062,1063,1063,1065,1066,1068,1070,1077,1084,1090,1094],"ymouse":[474,474,474,474,474,474,474,474,474,474,474,474,474,474,474,474,474,474,474,474,474,474,474,474,474,474,474,474,474,474,474,474,474,474,474,474,474,474,474,474,474,474,474,474,474,474,474,472,469,467,465,457,451,433,423,414,403,379,366,354,343,340,338,338,338,338,336,332,328,323,313,301,270,256,243,232,224,216,212,211,208,206,204,197,192,186,182,173,170,170,169,169,167,166,164,160,158,154,142,130,109,98],"timestamp_mouse":[12,26,45,65,86,106,126,146,166,185,206,226,246,266,285,306,326,346,366,385,405,425,445,465,486,505,526,545,566,586,606,626,646,666,685,705,726,745,766,786,806,825,845,864,885,906,925,946,965,986,1005,1026,1046,1065,1085,1106,1124,1146,1165,1186,1206,1225,1245,1264,1286,1306,1326,1346,1365,1385,1405,1425,1447,1465,1485,1506,1524,1546,1565,1585,1606,1625,1645,1666,1686,1705,1726,1745,1764,1785,1805,1826,1847,1865,1885,1904,1926,1945,1965,1985,2004,2025],"xSR":733.5,"ySR":464.1,"xT1":420.09999999999997,"yT1":0,"xT2":1046.8999999999999,"yT2":0,"toosoon":0,"cond_shown":"Incongruent","ratio_trial":300,"L_num":13,"L_den":26,"R_num":12,"R_den":15,"correct_side":2,"subjID":"samueldavidrealpe27","gender":"0","school":"No_school","age":"No_age"},{"start_time":1552055573825,"click_time":1552055576012,"finger_time":1552055575233,"fix_duration":890.0285506975048,"trial":6,"RT":1408,"MT":779,"sideResp":1,"stimulus":[],"xmouse":[773,773,773,773,773,773,773,773,773,773,773,773,773,773,773,773,773,773,773,773,773,773,773,773,773,773,773,773,773,773,773,773,773,773,773,773,773,773,773,773,773,773,773,773,773,773,773,773,773,772,771,771,770,770,770,770,770,770,770,769,769,769,769,769,768,767,765,761,753,741,720,676,656,640,620,612,601,598,597,595,595,595,595,594,594,591,590,585,580,574,569,561,559,555,553,550,550,549,548,547,546,546,545,542,539,535,527,524,521,518],"ymouse":[549,549,549,549,549,549,549,549,549,549,549,549,549,549,549,549,549,549,549,549,549,549,549,549,549,549,549,549,549,549,549,549,549,549,549,549,549,549,549,549,549,549,549,549,549,549,549,549,549,548,546,545,544,543,542,542,542,541,541,540,540,540,540,540,539,538,533,528,516,502,484,445,423,402,371,353,322,309,301,295,291,289,288,284,282,275,269,259,248,235,220,187,173,151,140,117,109,103,98,94,91,91,90,90,90,91,91,91,91,91],"timestamp_mouse":[12,35,47,67,88,107,128,148,167,188,208,228,246,267,288,307,328,348,367,388,408,426,447,467,487,507,527,548,567,588,607,628,648,667,687,708,726,747,766,787,807,828,847,868,887,907,927,947,967,987,1009,1026,1047,1067,1087,1107,1128,1147,1166,1187,1208,1227,1248,1268,1286,1307,1328,1347,1368,1388,1408,1427,1447,1468,1487,1507,1527,1547,1567,1587,1609,1626,1647,1667,1687,1708,1727,1747,1767,1788,1808,1827,1847,1867,1886,1909,1928,1947,1967,1987,2007,2028,2047,2068,2088,2107,2127,2147,2167,2187],"xSR":733.5,"ySR":464.1,"xT1":420.09999999999997,"yT1":0,"xT2":1046.8999999999999,"yT2":0,"toosoon":0,"cond_shown":"Congruent","ratio_trial":300,"L_num":4,"L_den":5,"R_num":2,"R_den":4,"correct_side":1,"subjID":"samueldavidrealpe27","gender":"0","school":"No_school","age":"No_age"},{"start_time":1552055578891,"click_time":1552055583612,"finger_time":1552055580313,"fix_duration":1137.8349900523883,"trial":7,"RT":1422,"MT":3299,"sideResp":1,"stimulus":[],"xmouse":[769,769,769,769,769,769,769,769,769,769,769,769,769,769,769,769,769,769,769,769,770,770,770,770,770,770,770,770,770,770,770,770,770,770,770,770,770,770,770,770,770,770,770,770,770,770,770,770,770,770,770,770,770,770,770,770,770,770,770,770,770,770,770,770,770,770,770,770,770,770,760,743,708,696,687,678,673,671,667,667,667,667,667,667,667,667,667,667,667,667,667,667,667,667,667,667,667,667,667,667,667,667,667,667,668,668,668,668,670,671,673,675,678,680,682,686,687,690,692,692,692,692,692,692,699,744,838,954,963,966,969,969,968,964,963,963,963,963,963,962,959,954,949,927,912,900,890,884,873,866,854,846,835,809,794,777,756,716,703,699,698,698,698,697,693,690,686,680,663,652,638,628,616,568,548,542,542,542,542,542,542,542,542,542,542,540,538,534,526,523,519,519,519,519,519,519,519,519,519,519,519,519,519,519,519,519,519,519,519,519,519,519,519,519,519,519,519,519,519,519,519,519,519,519,519,519,519,519,519,519,519,519,519,519,519,519,517],"ymouse":[494,494,494,494,494,494,494,494,494,494,494,494,494,494,494,494,494,494,494,493,493,491,490,490,490,490,490,490,490,488,487,483,480,477,476,476,476,476,476,476,476,476,476,476,476,476,476,476,476,476,476,476,476,476,476,476,476,476,476,476,476,476,476,476,476,476,476,476,476,475,465,453,427,418,409,403,397,394,391,391,391,391,391,391,391,391,391,391,391,391,391,391,391,391,391,391,391,391,391,391,391,391,391,390,390,390,390,390,390,390,390,390,389,389,388,387,387,386,385,385,385,385,385,385,394,460,558,670,679,680,681,681,678,675,674,674,674,674,674,674,669,666,661,645,637,630,624,620,612,607,598,591,581,557,546,532,516,483,470,459,444,428,392,372,353,337,324,311,285,274,257,247,237,213,206,203,203,203,203,203,203,203,203,203,203,193,182,168,135,123,111,109,108,108,108,108,108,108,108,108,108,108,108,108,108,108,108,108,108,108,108,108,108,108,108,108,108,108,108,108,108,108,108,108,108,108,108,108,108,108,108,108,108,108,105,104,99],"timestamp_mouse":[9,21,41,61,82,102,121,140,161,181,202,222,241,262,281,302,321,341,362,381,401,421,442,460,482,502,522,541,562,581,601,621,641,660,682,701,722,741,762,782,802,821,841,861,881,902,922,940,962,982,1001,1022,1042,1062,1082,1102,1120,1141,1162,1181,1202,1220,1242,1262,1282,1302,1322,1340,1362,1382,1402,1422,1441,1460,1481,1501,1522,1541,1560,1582,1602,1622,1642,1662,1682,1702,1721,1741,1761,1781,1802,1822,1842,1862,1881,1901,1921,1942,1961,1981,2001,2020,2041,2061,2081,2101,2122,2142,2161,2181,2202,2221,2242,2260,2282,2301,2322,2342,2362,2382,2402,2421,2442,2462,2481,2501,2521,2542,2560,2581,2602,2621,2641,2662,2682,2701,2722,2742,2762,2781,2801,2821,2841,2861,2881,2901,2922,2941,2961,2981,3000,3020,3042,3061,3082,3101,3122,3141,3160,3181,3201,3221,3242,3261,3281,3301,3321,3342,3361,3381,3401,3422,3441,3461,3481,3501,3521,3541,3561,3581,3601,3621,3642,3660,3681,3701,3721,3742,3761,3781,3801,3822,3841,3861,3881,3902,3921,3942,3962,3981,4002,4020,4042,4061,4081,4101,4121,4141,4160,4181,4201,4220,4241,4262,4282,4301,4321,4341,4362,4381,4401,4421,4442,4462,4480,4501,4521,4542,4562,4582,4602,4622,4642,4662,4682,4702,4721],"xSR":733.5,"ySR":464.1,"xT1":420.09999999999997,"yT1":0,"xT2":1046.8999999999999,"yT2":0,"toosoon":0,"cond_shown":"Congruent","ratio_trial":300,"L_num":12,"L_den":24,"R_num":2,"R_den":10,"correct_side":1,"subjID":"samueldavidrealpe27","gender":"0","school":"No_school","age":"No_age"},{"start_time":1552055586829,"click_time":1552055590013,"finger_time":1552055588512,"fix_duration":774.5992219348557,"trial":8,"RT":1683,"MT":1501,"sideResp":2,"stimulus":[],"xmouse":[821,821,821,821,821,821,821,821,821,821,821,821,821,821,821,821,821,821,821,821,821,821,821,821,821,821,821,821,821,821,821,821,821,821,821,821,821,821,821,821,821,821,821,821,821,821,821,821,821,821,821,821,821,821,821,821,821,821,821,821,821,821,821,821,821,821,821,821,821,821,821,821,821,821,821,821,821,821,821,821,821,821,822,828,836,851,860,869,878,888,906,915,921,932,946,954,972,979,985,990,997,1009,1016,1020,1026,1031,1032,1033,1034,1035,1036,1037,1037,1038,1039,1041,1042,1044,1044,1045,1046,1046,1046,1046,1046,1046,1046,1046,1046,1046,1046,1046,1046,1046,1046,1046,1046,1046,1046,1046,1046,1046,1046,1046,1046,1046,1046,1046,1046,1046,1046,1046,1046,1046,1046,1046,1046,1046,1046,1047],"ymouse":[549,549,549,549,549,549,549,549,549,549,549,549,549,549,549,549,549,549,549,549,549,549,549,549,549,549,549,549,549,549,549,549,549,549,549,549,549,549,549,549,549,549,549,549,549,549,549,549,549,549,549,549,549,549,549,549,549,549,549,549,549,549,549,549,549,549,549,549,549,549,549,549,549,549,549,549,549,549,549,549,549,549,547,545,539,527,517,505,494,481,461,451,442,429,410,392,350,328,308,286,264,223,194,186,162,145,141,138,136,134,132,130,127,126,122,115,111,107,104,101,98,97,97,97,97,97,97,97,97,97,97,97,97,97,97,97,97,97,97,97,97,97,97,97,97,97,97,97,97,97,97,97,97,97,97,97,97,97,97,97],"timestamp_mouse":[13,31,42,64,84,104,123,143,164,184,204,224,244,264,282,303,323,343,364,383,404,424,443,464,484,504,523,543,563,584,604,623,644,664,684,704,724,744,762,784,803,823,843,863,884,903,923,943,962,984,1003,1022,1044,1064,1083,1103,1124,1143,1164,1183,1204,1224,1244,1264,1284,1303,1324,1344,1363,1382,1404,1424,1443,1464,1483,1504,1523,1544,1563,1583,1603,1624,1643,1664,1682,1705,1723,1743,1763,1784,1804,1822,1843,1863,1883,1904,1923,1943,1963,1983,2004,2023,2043,2063,2084,2104,2123,2143,2163,2184,2203,2223,2244,2263,2282,2305,2323,2343,2363,2384,2404,2423,2444,2463,2483,2504,2523,2543,2562,2582,2604,2623,2643,2664,2683,2704,2723,2743,2763,2784,2804,2824,2843,2863,2884,2904,2922,2944,2963,2984,3004,3024,3043,3064,3084,3103,3123,3143,3163,3184],"xSR":733.5,"ySR":464.1,"xT1":420.09999999999997,"yT1":0,"xT2":1046.8999999999999,"yT2":0,"toosoon":0,"cond_shown":"Congruent","ratio_trial":100,"L_num":9,"L_den":15,"R_num":8,"R_den":16,"correct_side":1,"subjID":"samueldavidrealpe27","gender":"0","school":"No_school","age":"No_age"},{"start_time":1552055593072,"click_time":1552055598635,"finger_time":1552055595112,"fix_duration":1117.2312446980213,"trial":9,"RT":2040,"MT":3523,"sideResp":1,"stimulus":[],"xmouse":[803,803,803,803,803,803,803,803,803,803,803,803,803,803,803,803,803,803,803,803,803,803,803,803,803,803,803,803,803,803,803,803,803,803,803,803,803,803,803,803,803,803,803,803,803,803,803,803,803,803,803,803,803,803,803,803,803,803,803,803,803,803,803,803,803,803,803,803,803,803,803,803,803,803,803,803,803,803,803,803,803,803,803,803,803,803,803,803,803,803,803,803,803,803,803,803,803,803,803,803,803,788,765,727,653,623,608,600,598,598,598,597,597,596,591,589,583,578,572,554,542,536,531,529,529,529,529,529,529,529,529,529,529,529,529,529,529,529,529,529,529,537,548,569,577,585,592,598,608,670,737,832,886,922,960,966,967,969,972,974,975,977,977,979,980,982,983,983,984,984,985,985,986,986,987,987,987,988,989,989,991,992,992,992,992,992,992,992,992,993,993,994,995,997,997,997,997,997,997,997,997,997,997,997,997,997,997,997,997,997,997,997,997,997,997,997,997,997,997,997,997,997,997,997,997,997,997,997,997,997,997,997,997,997,997,997,997,997,997,997,997,997,997,997,997,997,992,985,955,927,880,818,733,643,617,595,579,570,561,549,547,547,547,547,547,547,547,547,546,544,542,540,539,539,536,533,527,521,519],"ymouse":[502,502,502,502,502,502,502,502,502,502,502,502,502,502,502,502,502,502,502,502,502,502,502,502,502,502,502,502,502,502,502,502,502,502,502,502,502,502,502,502,502,502,502,502,502,502,502,502,502,502,502,502,502,502,502,502,502,502,502,502,502,502,502,502,502,502,502,502,502,502,502,502,502,502,502,502,502,502,502,502,502,502,502,502,502,502,502,502,502,502,502,502,502,502,502,502,502,502,502,502,502,483,450,409,339,312,292,278,267,265,265,263,260,256,240,228,213,194,174,132,104,88,79,72,72,72,72,72,72,72,72,72,72,72,72,72,72,72,72,71,71,80,91,106,107,107,107,107,108,126,142,169,181,187,192,192,192,192,192,192,191,190,190,190,189,188,187,187,186,186,185,184,183,181,179,178,176,174,171,168,163,159,154,144,138,135,129,125,118,115,113,111,109,104,103,103,103,103,103,103,103,103,103,103,103,103,103,103,103,103,103,103,103,103,103,103,103,103,103,103,103,103,103,103,103,103,103,103,103,103,103,103,103,103,103,103,103,103,103,103,103,103,103,103,103,103,102,101,98,94,86,78,70,70,70,70,70,69,69,69,69,69,69,69,69,69,69,69,69,69,69,69,69,69,69,69,69,69,69],"timestamp_mouse":[14,21,40,59,81,100,121,140,159,180,200,220,241,260,280,301,319,340,359,381,401,419,440,461,480,500,520,540,560,581,600,621,641,660,681,701,721,740,761,780,800,821,841,860,880,899,920,940,961,981,1001,1021,1040,1060,1080,1101,1121,1140,1160,1180,1201,1221,1241,1261,1281,1301,1320,1341,1361,1381,1400,1419,1441,1461,1480,1501,1520,1541,1561,1580,1601,1620,1640,1660,1681,1701,1721,1741,1760,1779,1801,1820,1841,1860,1881,1900,1921,1940,1960,1980,2000,2020,2040,2061,2081,2100,2120,2140,2160,2180,2200,2220,2240,2260,2280,2300,2320,2340,2360,2381,2400,2421,2441,2461,2480,2500,2520,2542,2562,2582,2601,2621,2641,2663,2681,2701,2721,2742,2762,2781,2803,2823,2842,2862,2881,2901,2921,2941,2962,2981,3001,3021,3041,3061,3082,3101,3121,3143,3162,3181,3201,3222,3242,3263,3281,3302,3322,3342,3363,3381,3401,3421,3443,3463,3481,3502,3521,3541,3563,3583,3601,3621,3642,3663,3681,3701,3722,3741,3762,3781,3803,3821,3842,3863,3881,3901,3922,3942,3962,3981,4002,4021,4041,4063,4083,4102,4122,4141,4162,4182,4201,4222,4242,4261,4282,4302,4322,4341,4362,4382,4402,4422,4442,4461,4482,4503,4522,4541,4561,4581,4602,4622,4642,4662,4681,4702,4721,4741,4763,4781,4801,4822,4843,4862,4881,4901,4921,4942,4963,4981,5002,5023,5042,5063,5081,5101,5121,5141,5161,5181,5203,5223,5242,5262,5282,5302,5321,5341,5363,5382,5401,5422,5441,5462,5481,5501,5522,5542,5563],"xSR":733.5,"ySR":464.1,"xT1":420.09999999999997,"yT1":0,"xT2":1046.8999999999999,"yT2":0,"toosoon":0,"cond_shown":"Congruent","ratio_trial":100,"L_num":2,"L_den":5,"R_num":6,"R_den":12,"correct_side":2,"subjID":"samueldavidrealpe27","gender":"0","school":"No_school","age":"No_age"},{"start_time":1552055602159,"click_time":1552055608635,"finger_time":1552055606995,"fix_duration":424.7559200674178,"trial":10,"RT":4836,"MT":1640,"sideResp":2,"stimulus":[],"xmouse":[789,789,789,789,789,789,789,789,789,789,789,789,789,789,789,789,789,789,789,789,789,789,789,789,789,789,789,789,789,789,789,789,789,789,789,789,789,789,789,789,789,789,789,789,789,789,789,789,789,789,789,789,789,789,789,789,789,789,789,789,789,789,789,789,789,789,789,789,789,789,789,789,789,789,789,789,789,789,789,789,789,789,789,789,789,789,789,789,789,789,789,789,789,789,789,789,789,789,789,789,789,789,789,789,789,789,789,789,789,789,789,789,789,789,789,789,789,789,789,789,789,789,789,789,789,789,789,789,789,789,789,789,789,789,789,789,789,789,789,789,789,789,789,789,789,789,789,789,789,789,789,789,789,789,789,789,789,789,789,789,789,789,789,789,789,789,789,789,789,789,789,789,789,789,789,789,789,789,789,789,789,789,789,788,788,788,787,786,784,784,784,784,784,783,783,783,783,783,783,783,783,783,782,782,781,781,781,781,781,781,781,781,781,781,781,781,781,781,781,781,784,785,786,788,789,789,789,789,789,789,789,790,790,790,790,790,790,790,786,775,768,765,764,762,762,762,762,762,762,762,762,762,762,763,765,768,772,776,782,784,786,787,787,787,787,787,787,787,787,787,787,787,787,787,787,787,787,787,787,788,790,795,801,808,825,840,849,858,873,880,887,894,902,920,928,935,938,945,953,957,960,965,970,980,989,995,1006,1014,1019,1026,1028,1029,1030,1031,1033,1034,1035,1036,1037,1040,1041,1041,1043,1047],"ymouse":[557,557,557,557,557,557,557,557,557,557,557,557,557,557,557,557,557,557,557,557,557,557,557,557,557,557,554,552,552,552,552,551,551,551,551,551,551,551,551,550,548,547,546,544,542,540,538,537,536,532,526,520,515,513,513,513,513,513,513,513,513,513,513,513,513,513,513,513,513,513,513,513,513,513,513,513,513,513,513,513,513,513,513,513,513,513,513,513,513,513,513,513,513,513,513,513,513,513,513,513,513,513,513,513,513,513,513,513,513,513,513,513,513,513,513,513,513,513,513,513,513,513,513,513,513,513,513,513,513,513,513,513,513,513,513,513,513,513,513,513,513,513,513,513,513,513,513,513,513,513,513,513,513,513,513,513,513,513,513,513,513,513,513,513,513,513,513,513,513,513,513,513,513,513,513,513,513,513,513,513,513,513,513,513,513,513,513,513,516,517,517,517,518,519,519,519,519,520,521,523,525,526,528,531,537,538,540,540,540,541,541,541,541,541,541,541,541,541,541,536,529,523,520,513,512,512,512,512,511,511,510,509,509,509,509,509,509,509,512,528,549,577,600,632,642,650,655,660,661,661,661,661,661,660,652,642,627,598,562,547,534,526,520,518,515,515,515,515,515,515,515,515,515,515,515,515,515,515,515,513,508,496,485,475,448,425,411,399,374,365,353,340,323,291,275,263,253,241,227,223,216,209,202,192,184,176,159,147,138,124,122,120,119,117,114,114,111,110,108,104,103,100,95,80],"timestamp_mouse":[14,36,54,74,94,114,135,155,174,194,214,234,254,274,294,315,334,354,374,395,414,434,455,475,495,515,534,556,576,595,616,635,655,675,695,714,736,755,775,795,814,835,855,876,894,916,936,954,975,994,1016,1034,1055,1075,1094,1114,1136,1155,1174,1195,1216,1234,1256,1274,1295,1315,1335,1354,1374,1394,1416,1435,1454,1474,1494,1515,1534,1554,1575,1595,1616,1635,1655,1675,1695,1716,1735,1754,1775,1795,1815,1835,1854,1874,1894,1915,1936,1955,1974,1995,2015,2036,2055,2075,2095,2115,2134,2155,2174,2195,2216,2236,2255,2274,2294,2314,2335,2354,2375,2395,2415,2434,2454,2474,2494,2515,2534,2556,2574,2595,2614,2635,2656,2675,2695,2715,2734,2756,2774,2796,2815,2835,2855,2874,2894,2915,2935,2955,2975,2994,3015,3034,3056,3075,3095,3114,3134,3155,3174,3194,3215,3234,3254,3274,3295,3314,3335,3355,3375,3394,3415,3436,3455,3474,3496,3516,3535,3555,3575,3596,3616,3635,3655,3675,3696,3715,3734,3755,3775,3795,3815,3835,3855,3875,3894,3915,3934,3955,3975,3995,4016,4034,4055,4074,4095,4115,4135,4154,4175,4194,4214,4234,4254,4274,4294,4315,4335,4355,4374,4395,4415,4435,4456,4475,4495,4515,4535,4555,4574,4595,4615,4634,4654,4674,4695,4714,4735,4754,4775,4795,4815,4836,4856,4875,4894,4915,4934,4955,4976,4996,5015,5034,5054,5074,5095,5115,5135,5155,5175,5195,5215,5235,5255,5275,5295,5314,5335,5355,5375,5395,5414,5435,5455,5475,5494,5514,5534,5555,5574,5595,5615,5634,5655,5675,5695,5714,5734,5755,5775,5794,5815,5835,5855,5875,5894,5914,5935,5954,5976,5994,6016,6034,6054,6075,6094,6114,6135,6154,6176,6194,6215,6235,6255,6274,6294,6315,6334,6354,6375,6394,6414,6435,6454,6475],"xSR":733.5,"ySR":464.1,"xT1":420.09999999999997,"yT1":0,"xT2":1046.8999999999999,"yT2":0,"toosoon":0,"cond_shown":"Incongruent","ratio_trial":100,"L_num":6,"L_den":10,"R_num":7,"R_den":14,"correct_side":1,"subjID":"samueldavidrealpe27","gender":"0","school":"No_school","age":"No_age"},{"start_time":1552055611246,"click_time":1552055613535,"finger_time":1552055612694,"fix_duration":250,"trial":11,"RT":1448,"MT":841,"sideResp":2,"stimulus":[],"xmouse":[805,805,805,805,805,805,805,805,805,805,805,805,805,805,805,805,805,805,805,805,805,805,805,805,805,805,805,805,805,805,805,805,805,805,805,805,805,805,805,805,805,805,805,805,805,805,805,805,805,805,805,805,805,805,805,805,805,805,805,805,805,805,805,805,805,805,805,805,805,805,813,822,875,934,957,970,972,974,979,988,989,989,992,995,996,996,996,996,997,1005,1010,1012,1013,1015,1015,1018,1020,1020,1020,1020,1022,1023,1025,1026,1029,1031,1031,1033,1035,1038,1039,1041,1044,1045,1047],"ymouse":[502,502,502,502,502,502,502,502,502,502,502,502,502,502,502,502,502,502,502,502,502,502,502,502,502,502,502,502,502,502,502,502,502,502,502,502,502,502,502,502,502,502,502,502,502,502,502,502,502,502,502,502,502,502,502,502,502,502,502,502,502,502,502,502,502,502,502,502,502,502,495,485,443,389,333,281,266,252,241,220,213,207,202,195,194,194,194,194,192,180,171,160,146,138,129,109,102,98,93,91,88,87,85,84,79,77,77,76,75,73,72,71,70,70,69],"timestamp_mouse":[13,32,48,67,88,109,127,148,167,188,208,229,249,267,288,307,328,347,367,388,408,429,448,467,488,509,528,548,568,587,607,628,649,668,687,707,728,747,767,788,808,827,848,868,888,909,928,948,968,987,1007,1027,1047,1068,1088,1107,1129,1147,1167,1187,1209,1227,1247,1267,1289,1307,1327,1347,1367,1387,1407,1427,1448,1467,1487,1507,1527,1548,1567,1589,1607,1628,1647,1667,1688,1708,1727,1748,1769,1789,1807,1827,1848,1867,1887,1907,1928,1947,1967,1987,2007,2027,2048,2067,2089,2107,2128,2148,2169,2189,2207,2227,2248,2267,2289],"xSR":733.5,"ySR":464.1,"xT1":420.09999999999997,"yT1":0,"xT2":1046.8999999999999,"yT2":0,"toosoon":0,"cond_shown":"Congruent","ratio_trial":200,"L_num":5,"L_den":10,"R_num":14,"R_den":20,"correct_side":2,"subjID":"samueldavidrealpe27","gender":"0","school":"No_school","age":"No_age"},{"start_time":1552055617055,"click_time":1552055618853,"finger_time":1552055618534,"fix_duration":1380.304279173861,"trial":12,"RT":1479,"MT":319,"sideResp":1,"stimulus":[],"xmouse":[818,818,818,818,818,818,818,818,818,818,818,818,818,818,818,818,818,818,818,818,818,818,818,818,818,818,818,818,818,818,818,818,818,818,818,818,818,818,818,818,818,818,818,818,818,818,818,818,818,818,818,818,818,818,818,818,818,818,818,818,818,818,818,818,818,818,818,818,816,811,799,788,773,746,742,739,738,736,730,707,686,649,638,635,629,625,617,603,548,516],"ymouse":[550,550,550,550,550,550,550,550,550,550,550,550,550,550,550,550,550,550,550,550,550,550,550,550,550,550,550,550,550,550,550,550,550,550,550,550,550,550,550,550,550,550,550,550,550,550,550,550,550,550,550,550,550,550,550,550,550,550,550,550,550,550,550,550,550,550,550,550,547,541,523,509,492,462,453,448,444,439,428,395,371,334,318,308,289,276,255,226,114,40],"timestamp_mouse":[18,38,58,78,100,118,139,158,179,199,219,240,258,278,299,320,339,359,380,399,420,440,459,479,499,519,538,559,578,598,619,638,658,679,699,718,738,759,779,800,819,839,859,880,899,918,939,958,980,1000,1019,1039,1060,1079,1099,1119,1138,1159,1178,1200,1219,1239,1259,1279,1300,1319,1339,1358,1379,1399,1418,1439,1460,1479,1498,1518,1538,1559,1578,1598,1618,1639,1658,1679,1698,1719,1739,1759,1779,1798],"xSR":733.5,"ySR":464.1,"xT1":420.09999999999997,"yT1":0,"xT2":1046.8999999999999,"yT2":0,"toosoon":0,"cond_shown":"Incongruent","ratio_trial":200,"L_num":7,"L_den":10,"R_num":8,"R_den":16,"correct_side":1,"subjID":"samueldavidrealpe27","gender":"0","school":"No_school","age":"No_age"},{"start_time":1552055621083,"click_time":1552055622814,"finger_time":1552055622033,"fix_duration":829.1340058951117,"trial":13,"RT":950,"MT":781,"sideResp":1,"stimulus":[],"xmouse":[759,759,759,759,759,759,759,759,759,759,759,759,759,759,759,759,759,759,759,759,759,759,759,759,759,759,759,759,759,759,759,759,759,759,759,759,759,759,759,759,759,759,759,759,757,751,740,728,722,721,721,721,721,721,721,721,721,720,720,718,718,715,707,698,689,678,668,659,645,640,633,630,625,624,622,619,614,601,595,588,578,570,551,541,531,523,518],"ymouse":[547,547,547,547,547,547,547,547,547,547,547,547,547,547,547,547,547,547,547,547,547,547,547,547,547,547,547,547,547,547,547,547,547,547,547,547,547,547,547,547,547,547,547,547,542,532,516,500,488,487,487,486,485,483,481,480,478,476,472,467,463,458,442,428,411,392,375,358,324,305,267,246,217,210,204,197,185,158,146,137,121,111,89,80,70,61,57],"timestamp_mouse":[12,31,52,70,91,111,132,151,171,191,211,231,251,270,290,311,331,351,371,390,410,431,450,470,491,511,531,550,577,591,610,631,650,670,691,711,730,751,771,791,810,830,851,871,890,911,930,950,970,990,1011,1030,1051,1071,1090,1110,1131,1150,1171,1194,1210,1231,1252,1270,1291,1310,1331,1350,1370,1390,1411,1430,1452,1470,1491,1510,1532,1551,1570,1590,1610,1631,1651,1671,1690,1710,1731],"xSR":733.5,"ySR":464.1,"xT1":420.09999999999997,"yT1":0,"xT2":1046.8999999999999,"yT2":0,"toosoon":0,"cond_shown":"Incongruent","ratio_trial":300,"L_num":8,"L_den":10,"R_num":9,"R_den":18,"correct_side":1,"subjID":"samueldavidrealpe27","gender":"0","school":"No_school","age":"No_age"},{"start_time":1552055624705,"click_time":1552055627214,"finger_time":1552055625637,"fix_duration":750.4327115652695,"trial":14,"RT":932,"MT":1577,"sideResp":1,"stimulus":[],"xmouse":[800,800,800,800,800,800,800,800,800,800,800,800,800,800,800,800,800,800,800,800,800,800,800,800,800,800,800,800,800,800,800,800,800,800,800,802,802,804,807,809,812,815,820,823,828,833,837,839,840,842,843,844,846,848,848,848,848,848,848,848,849,849,857,866,877,890,923,948,974,995,1014,1020,1023,1023,1023,1023,1023,1024,1025,1025,1025,1025,1025,1027,1028,1030,1035,1039,1041,1048,1051,1052,1052,1052,1052,1052,1052,1052,1050,1044,1039,1032,1031,1030,1027,1024,1012,1006,1000,995,987,969,958,946,933,912,893,861,848,830,809,741,684,623,558,496],"ymouse":[483,483,483,483,483,483,483,483,483,483,483,483,483,483,483,483,483,483,483,483,483,483,483,483,483,483,483,483,483,483,483,483,483,483,483,483,483,483,482,482,481,480,478,476,474,472,470,469,469,467,467,466,465,465,465,465,465,465,465,464,464,463,453,441,427,410,361,323,280,243,213,201,193,192,192,192,192,191,190,190,189,189,188,187,186,185,178,164,157,136,125,116,116,116,116,116,116,115,115,120,125,134,137,141,146,150,160,166,174,178,188,197,202,209,216,225,230,232,232,225,216,184,161,135,109,83],"timestamp_mouse":[13,28,49,68,88,108,129,148,170,190,208,228,249,269,288,309,328,349,368,389,409,428,449,469,490,509,530,550,568,588,610,629,649,668,689,708,730,749,770,788,808,828,848,880,889,908,932,949,968,989,1008,1029,1048,1068,1088,1108,1129,1150,1168,1188,1209,1228,1248,1268,1289,1309,1330,1348,1369,1388,1409,1429,1448,1468,1488,1508,1529,1549,1569,1589,1609,1629,1649,1668,1690,1709,1729,1748,1768,1788,1809,1830,1849,1868,1889,1909,1929,1950,1969,1988,2009,2029,2048,2069,2088,2109,2130,2149,2169,2189,2209,2229,2248,2269,2289,2309,2330,2350,2368,2388,2409,2430,2448,2469,2488,2509],"xSR":733.5,"ySR":464.1,"xT1":420.09999999999997,"yT1":0,"xT2":1046.8999999999999,"yT2":0,"toosoon":0,"cond_shown":"Congruent","ratio_trial":100,"L_num":4,"L_den":8,"R_num":6,"R_den":10,"correct_side":2,"subjID":"samueldavidrealpe27","gender":"0","school":"No_school","age":"No_age"},{"start_time":1552055629262,"click_time":1552055632274,"finger_time":1552055629734,"fix_duration":906.0676557889253,"trial":15,"RT":472,"MT":2540,"sideResp":1,"stimulus":[],"xmouse":[782,782,782,782,782,782,782,782,782,780,780,779,777,777,777,777,777,777,777,777,776,779,783,794,800,806,812,817,820,821,821,821,821,821,821,821,821,821,821,821,821,821,821,821,821,821,821,821,821,821,821,821,821,819,817,815,814,813,812,811,809,807,807,804,803,803,803,803,803,803,803,803,803,803,803,803,803,803,803,803,803,803,803,803,803,803,803,803,803,803,804,804,804,804,804,804,804,804,804,804,804,804,805,805,805,805,805,805,805,805,805,805,805,805,805,788,741,660,536,254,134,34,13,13,13,13,13,13,13,13,0,8,16,39,45,45,45,45,45,45,45,45,45,45,45,45,45,45,45,383,488],"ymouse":[484,484,484,484,484,484,484,484,485,485,485,486,486,486,486,486,486,486,486,486,486,483,476,460,450,443,437,433,429,429,429,429,428,428,428,428,428,428,428,428,428,428,428,428,428,428,428,428,428,428,428,428,428,430,432,433,434,436,439,441,443,449,455,460,469,471,472,474,482,487,491,492,492,492,492,492,492,492,492,492,492,492,492,492,492,492,492,492,491,488,487,484,483,483,483,482,482,481,481,480,479,478,476,476,476,476,476,476,476,476,476,476,476,476,475,474,467,449,414,317,252,163,133,133,133,133,133,133,133,133,9,7,5,1,0,0,0,0,0,0,0,0,0,0,0,0,0,0,0,12,20],"timestamp_mouse":[13,31,51,71,91,112,131,151,172,191,211,233,251,272,291,312,332,352,371,391,411,432,451,472,491,512,532,553,572,591,611,631,652,672,692,712,731,751,773,792,811,832,853,872,893,912,932,951,971,991,1011,1031,1052,1073,1091,1112,1132,1151,1172,1191,1211,1232,1251,1271,1291,1311,1331,1351,1372,1393,1412,1431,1452,1473,1491,1511,1532,1552,1572,1591,1613,1632,1651,1671,1691,1712,1733,1751,1772,1791,1812,1831,1852,1872,1892,1912,1932,1952,1971,1991,2012,2031,2052,2073,2092,2112,2131,2152,2171,2192,2211,2232,2251,2272,2292,2313,2331,2352,2373,2391,2411,2431,2452,2473,2491,2512,2532,2553,2572,2591,2611,2631,2652,2673,2691,2712,2731,2752,2773,2792,2811,2831,2851,2871,2892,2911,2931,2952,2972,2991,3012],"xSR":733.5,"ySR":464.1,"xT1":420.09999999999997,"yT1":0,"xT2":1046.8999999999999,"yT2":0,"toosoon":0,"cond_shown":"Incongruent","ratio_trial":300,"L_num":7,"L_den":10,"R_num":8,"R_den":20,"correct_side":1,"subjID":"samueldavidrealpe27","gender":"0","school":"No_school","age":"No_age"},{"start_time":1552055635602,"click_time":1552055638233,"finger_time":1552055637134,"fix_duration":427.41089878510365,"trial":16,"RT":1532,"MT":1099,"sideResp":1,"stimulus":[],"xmouse":[769,769,769,769,769,769,769,769,769,769,769,769,769,769,769,769,769,769,769,769,769,769,769,769,769,769,769,769,769,769,769,769,769,769,769,769,769,769,769,769,769,769,769,769,769,769,769,769,769,769,769,769,769,769,769,769,769,769,769,769,769,769,769,769,769,769,769,769,769,769,769,769,769,769,769,767,713,631,569,558,558,558,558,558,558,558,558,558,558,558,558,558,557,553,548,543,539,532,529,525,521,517,509,501,496,493,492,492,492,492,492,492,492,492,492,492,492,492,492,492,492,492,492,492,492,492,492,492,492,492,492,492],"ymouse":[519,519,519,519,519,519,519,519,519,519,519,519,519,519,519,519,519,519,519,519,519,519,519,519,519,519,519,519,519,519,519,519,519,519,519,519,519,519,519,519,519,519,519,519,519,519,519,519,519,519,519,519,519,519,519,519,519,519,519,519,519,519,519,519,519,519,519,519,519,519,519,519,519,519,519,518,486,442,418,411,411,408,407,405,404,402,399,395,392,389,383,365,347,329,300,282,264,230,214,197,183,169,142,123,111,103,102,102,102,102,102,102,102,102,102,102,102,102,102,102,101,101,101,101,101,101,101,101,101,100,100,99],"timestamp_mouse":[20,43,52,71,91,111,131,153,172,191,212,231,253,272,291,312,331,351,372,392,412,432,452,471,493,511,531,552,571,591,612,633,652,672,692,712,731,752,772,791,811,832,852,871,891,912,933,952,972,992,1011,1032,1053,1071,1092,1111,1131,1152,1171,1193,1212,1232,1251,1271,1292,1312,1332,1352,1373,1393,1411,1432,1452,1472,1493,1511,1532,1551,1572,1591,1611,1633,1651,1672,1693,1712,1733,1751,1771,1792,1812,1832,1851,1871,1892,1912,1932,1951,1971,1991,2011,2032,2052,2071,2092,2112,2132,2152,2172,2191,2212,2232,2252,2271,2291,2311,2333,2353,2372,2392,2411,2432,2452,2471,2492,2511,2533,2551,2572,2592,2611,2631],"xSR":733.5,"ySR":464.1,"xT1":420.09999999999997,"yT1":0,"xT2":1046.8999999999999,"yT2":0,"toosoon":0,"cond_shown":"Congruent","ratio_trial":300,"L_num":20,"L_den":25,"R_num":5,"R_den":10,"correct_side":1,"subjID":"samueldavidrealpe27","gender":"0","school":"No_school","age":"No_age"},{"start_time":1552055643475,"click_time":1552055646153,"finger_time":1552055644215,"fix_duration":1100.024270158806,"trial":17,"RT":740,"MT":1938,"sideResp":1,"stimulus":[],"xmouse":[786,786,786,786,786,786,786,786,786,786,786,786,786,786,786,786,786,786,786,786,786,786,786,786,786,786,786,786,786,786,786,786,793,800,805,809,813,816,817,817,817,817,817,817,817,817,817,817,817,817,817,817,817,817,817,817,817,818,827,832,846,865,926,965,998,1026,1038,1052,1053,1053,1053,1053,1053,1053,1053,1053,1053,1046,1042,1036,1025,1019,1009,985,969,954,938,915,903,899,891,885,874,835,807,782,762,749,749,749,749,748,746,743,739,733,722,696,672,667,656,640,621,600,600,598,597,594,572,556,545,544,543,543,543,543,541,539,539,539,539,537,529,516],"ymouse":[475,475,475,475,475,475,475,475,475,475,475,475,475,475,475,475,475,475,475,475,475,475,475,475,475,475,475,475,475,475,475,475,472,470,468,466,464,464,463,463,463,463,463,463,463,463,463,463,463,463,463,463,463,463,463,463,463,462,458,456,448,425,312,257,215,178,155,123,117,115,111,108,106,104,103,103,103,102,102,102,103,108,118,154,175,196,215,238,246,249,254,255,255,255,255,255,258,259,259,259,259,259,255,248,239,227,212,178,153,148,138,127,119,108,108,107,105,103,93,88,86,86,86,86,86,86,85,85,85,85,85,84,81,75],"timestamp_mouse":[19,38,60,78,99,120,138,159,178,198,219,244,258,279,298,319,338,358,380,398,419,438,458,480,499,518,538,558,578,599,620,639,659,678,698,718,740,760,778,798,819,839,862,878,898,918,938,958,979,1000,1019,1039,1060,1078,1098,1118,1138,1159,1179,1199,1218,1238,1260,1278,1298,1319,1339,1359,1378,1398,1418,1438,1459,1479,1498,1518,1539,1560,1578,1598,1618,1639,1658,1679,1698,1718,1738,1759,1778,1798,1818,1839,1859,1878,1898,1918,1938,1959,1978,1999,2019,2038,2060,2078,2099,2118,2140,2159,2178,2198,2219,2239,2258,2279,2299,2318,2339,2358,2378,2399,2418,2440,2460,2478,2499,2519,2538,2559,2578,2598,2619,2638,2659,2678],"xSR":733.5,"ySR":464.1,"xT1":420.09999999999997,"yT1":0,"xT2":1046.8999999999999,"yT2":0,"toosoon":0,"cond_shown":"Congruent","ratio_trial":100,"L_num":8,"L_den":16,"R_num":2,"R_den":5,"correct_side":1,"subjID":"samueldavidrealpe27","gender":"0","school":"No_school","age":"No_age"},{"start_time":1552055649552,"click_time":1552055652654,"finger_time":1552055650934,"fix_duration":1476.950557321607,"trial":18,"RT":1382,"MT":1720,"sideResp":1,"stimulus":[],"xmouse":[774,774,774,774,774,774,774,774,774,774,774,774,774,774,774,774,774,774,774,774,774,774,774,774,774,774,774,774,774,774,774,774,774,774,774,774,774,774,774,774,774,774,774,774,774,774,774,774,774,760,756,755,755,755,755,755,755,755,755,755,755,755,755,755,755,755,754,748,738,706,689,679,676,674,674,674,674,674,674,674,674,674,674,674,674,674,674,674,674,674,674,674,674,674,674,674,674,674,674,674,674,674,674,674,674,674,674,674,674,674,674,674,674,674,674,674,674,674,674,674,674,674,674,674,674,674,674,674,674,674,674,674,674,674,674,674,674,674,674,674,674,674,674,671,637,611,593,578,569,556,549,543,536,529,524,519],"ymouse":[494,494,494,494,494,494,494,494,494,494,494,494,494,494,494,494,494,494,494,494,494,494,494,494,494,494,494,494,494,494,494,494,494,494,494,494,494,494,494,494,494,494,494,494,494,494,494,494,495,490,487,486,486,486,486,486,486,486,486,486,486,486,486,486,486,486,486,480,469,443,430,422,418,413,406,405,404,404,404,404,404,404,404,404,404,404,404,404,404,404,404,404,404,404,404,404,404,404,404,404,404,404,404,404,404,404,404,404,404,404,404,404,404,404,404,404,404,404,404,404,404,404,404,404,404,404,404,404,404,404,404,404,404,404,404,404,404,404,404,404,404,404,404,397,338,302,272,240,221,181,158,133,110,88,68,44],"timestamp_mouse":[9,30,42,61,81,103,121,142,163,183,203,222,241,262,282,302,321,342,361,382,403,422,442,461,482,501,521,542,562,582,601,621,642,663,682,702,722,743,762,782,801,823,841,861,881,901,921,943,961,982,1002,1022,1042,1061,1081,1102,1121,1142,1161,1181,1202,1223,1241,1262,1282,1301,1322,1342,1362,1382,1401,1422,1441,1461,1483,1501,1522,1542,1562,1583,1602,1622,1643,1661,1681,1702,1722,1742,1761,1782,1802,1821,1841,1862,1882,1901,1922,1941,1961,1982,2001,2022,2041,2061,2082,2103,2123,2141,2162,2182,2202,2221,2241,2261,2282,2303,2322,2342,2362,2381,2402,2421,2442,2462,2483,2502,2521,2541,2561,2582,2602,2621,2641,2661,2682,2702,2721,2742,2761,2783,2802,2822,2842,2862,2883,2901,2921,2941,2961,2982,3001,3021,3041,3062,3082,3102],"xSR":733.5,"ySR":464.1,"xT1":420.09999999999997,"yT1":0,"xT2":1046.8999999999999,"yT2":0,"toosoon":0,"cond_shown":"Congruent","ratio_trial":200,"L_num":1,"L_den":2,"R_num":21,"R_den":30,"correct_side":2,"subjID":"samueldavidrealpe27","gender":"0","school":"No_school","age":"No_age"},{"start_time":1552055655371,"click_time":1552055658055,"finger_time":1552055656915,"fix_duration":397.77821603415333,"trial":19,"RT":1544,"MT":1140,"sideResp":2,"stimulus":[],"xmouse":[789,789,789,789,789,789,789,789,789,789,789,789,789,789,789,789,789,789,789,789,789,789,789,789,789,789,789,789,789,789,789,789,789,789,789,789,789,789,789,789,789,789,789,789,789,789,789,789,789,789,789,789,789,789,789,789,789,789,789,789,789,789,789,789,789,789,789,789,789,789,789,789,789,789,791,792,795,806,817,836,846,854,864,883,893,904,919,926,931,935,935,936,936,939,941,944,947,955,963,966,970,973,977,985,990,993,1000,1006,1019,1025,1031,1036,1040,1046,1054,1057,1059,1059,1059,1059,1059,1059,1059,1059,1059,1059,1060,1060,1060,1060,1060,1060,1060,1060,1062],"ymouse":[476,476,476,476,476,476,476,476,476,476,476,476,476,476,476,476,476,476,476,476,476,476,476,476,476,476,476,476,476,476,476,476,476,476,476,476,476,476,476,476,476,476,476,476,476,476,476,476,476,476,476,476,476,476,476,476,476,476,476,476,476,476,476,476,476,476,476,476,476,476,476,476,476,476,474,473,467,461,456,446,441,435,429,405,384,358,323,304,291,283,282,282,281,277,276,274,273,268,260,255,249,245,239,229,222,218,206,195,171,161,151,142,133,125,109,104,102,101,101,101,101,101,101,101,101,101,100,100,100,100,100,100,100,100,98],"timestamp_mouse":[12,34,42,63,82,103,123,143,163,182,202,223,244,262,284,304,323,344,363,383,403,424,443,464,484,504,524,544,563,583,603,624,644,664,683,704,724,744,764,784,803,824,843,863,884,904,924,944,964,984,1002,1024,1044,1063,1084,1104,1124,1144,1163,1184,1204,1224,1244,1263,1284,1304,1323,1342,1364,1384,1404,1424,1444,1464,1484,1503,1523,1544,1564,1583,1603,1623,1643,1665,1683,1704,1723,1743,1763,1784,1804,1823,1844,1865,1883,1903,1922,1943,1964,1983,2003,2023,2043,2064,2082,2103,2123,2143,2165,2183,2203,2224,2243,2263,2283,2304,2324,2343,2363,2383,2404,2422,2444,2464,2483,2503,2524,2543,2564,2583,2603,2624,2644,2664,2684],"xSR":733.5,"ySR":464.1,"xT1":420.09999999999997,"yT1":0,"xT2":1046.8999999999999,"yT2":0,"toosoon":0,"cond_shown":"Congruent","ratio_trial":100,"L_num":12,"L_den":30,"R_num":13,"R_den":26,"correct_side":2,"subjID":"samueldavidrealpe27","gender":"0","school":"No_school","age":"No_age"},{"start_time":1552055660729,"click_time":1552055664394,"finger_time":1552055662434,"fix_duration":1053.5155620291366,"trial":20,"RT":1705,"MT":1960,"sideResp":2,"stimulus":[],"xmouse":[807,807,807,807,807,807,807,807,807,807,807,807,807,807,807,807,807,807,807,807,807,807,807,807,807,807,807,807,807,807,807,807,807,807,807,807,807,807,807,807,807,807,807,807,807,807,807,807,807,807,807,807,807,807,807,807,807,807,807,807,807,807,807,807,807,807,807,807,807,807,807,807,807,807,807,807,807,807,807,807,807,807,806,802,796,777,762,747,725,713,693,685,679,675,674,674,674,674,674,674,674,674,673,673,672,672,672,672,672,671,692,720,746,762,772,777,786,793,799,805,819,826,832,838,845,860,870,883,900,923,947,960,971,980,985,991,992,993,994,996,1000,1004,1007,1010,1013,1015,1015,1015,1017,1019,1021,1026,1028,1028,1028,1028,1028,1028,1028,1028,1030,1031,1031,1031,1031,1031,1032,1032,1032,1033,1033,1033,1033,1033,1034,1034,1034,1034,1035,1036,1039,1043,1046,1049],"ymouse":[519,519,519,519,519,519,519,519,519,519,519,519,519,519,519,519,519,519,519,519,519,519,519,519,519,519,519,519,519,519,519,519,519,519,519,519,519,519,519,519,519,519,519,519,519,519,519,519,519,519,519,519,519,519,519,519,519,519,519,519,519,519,519,519,519,519,519,519,519,519,519,519,519,519,519,519,519,519,519,519,518,516,511,498,479,410,351,301,254,231,200,191,183,181,180,180,180,180,180,180,180,180,180,180,180,180,180,180,180,180,180,180,180,177,176,174,172,170,168,167,161,158,156,153,151,145,141,137,130,122,115,110,105,101,99,97,97,96,96,96,94,93,92,90,90,89,89,89,88,87,86,85,85,84,84,84,84,84,84,84,84,84,84,84,84,84,84,84,84,84,84,84,84,84,84,84,84,84,84,84,84,84,84,84],"timestamp_mouse":[12,31,46,66,85,105,126,145,166,186,205,226,246,266,286,305,326,346,365,385,406,425,446,466,485,505,525,545,565,585,606,626,646,665,685,706,724,746,765,786,806,825,845,866,886,904,926,946,965,986,1005,1026,1046,1066,1085,1105,1126,1146,1166,1186,1205,1225,1246,1265,1286,1305,1326,1346,1365,1386,1406,1425,1445,1466,1485,1504,1525,1546,1565,1584,1605,1626,1645,1666,1686,1705,1725,1746,1765,1786,1807,1824,1845,1865,1885,1906,1926,1944,1965,1985,2006,2025,2045,2064,2085,2106,2126,2145,2165,2186,2206,2224,2245,2265,2286,2305,2326,2345,2366,2386,2406,2426,2445,2465,2486,2507,2525,2545,2565,2585,2606,2625,2645,2665,2685,2707,2725,2746,2765,2785,2805,2825,2845,2866,2885,2905,2926,2946,2966,2986,3006,3025,3045,3065,3086,3105,3126,3145,3165,3186,3205,3225,3245,3265,3285,3306,3324,3345,3365,3386,3406,3426,3445,3465,3486,3505,3525,3545,3566,3585,3606,3625,3646,3665],"xSR":733.5,"ySR":464.1,"xT1":420.09999999999997,"yT1":0,"xT2":1046.8999999999999,"yT2":0,"toosoon":0,"cond_shown":"Congruent","ratio_trial":200,"L_num":8,"L_den":15,"R_num":2,"R_den":6,"correct_side":1,"subjID":"samueldavidrealpe27","gender":"0","school":"No_school","age":"No_age"},{"start_time":1552055669302,"click_time":1552055671435,"finger_time":1552055670814,"fix_duration":845.7559189998567,"trial":21,"RT":1512,"MT":621,"sideResp":1,"stimulus":[],"xmouse":[825,825,825,825,825,825,825,825,825,825,825,825,825,825,825,825,825,825,825,825,825,825,825,825,825,825,825,825,825,825,825,825,825,825,825,825,825,825,825,825,825,825,825,825,825,825,825,825,825,825,825,825,825,825,825,825,825,825,825,825,825,825,825,825,825,825,825,825,825,825,825,825,825,823,820,812,796,790,784,781,773,766,746,733,718,702,676,667,659,645,637,627,614,609,602,597,587,581,577,560,552,547,547,546,543,535,513],"ymouse":[483,483,483,483,483,483,483,483,483,483,483,483,483,483,483,483,483,483,483,483,483,483,483,483,483,483,483,483,483,483,483,483,483,483,483,483,483,483,483,483,483,483,483,483,483,483,483,483,483,483,483,483,483,483,483,483,483,483,483,483,483,483,483,483,483,483,483,483,483,483,483,483,483,474,466,448,413,398,385,376,360,349,312,293,271,250,215,206,196,183,177,171,164,162,160,157,150,144,140,128,122,118,117,114,110,103,90],"timestamp_mouse":[13,32,53,72,92,113,132,152,173,192,213,232,253,272,293,313,332,351,372,393,412,432,453,473,492,511,533,553,573,592,613,633,653,673,692,713,732,752,772,793,813,833,852,873,892,912,933,953,972,993,1012,1032,1053,1072,1093,1113,1133,1153,1173,1193,1213,1233,1253,1272,1293,1313,1333,1353,1372,1392,1413,1432,1453,1471,1492,1512,1533,1552,1573,1592,1612,1632,1653,1672,1692,1712,1733,1751,1773,1792,1812,1832,1852,1873,1892,1912,1932,1951,1972,1992,2012,2032,2052,2072,2093,2112,2133],"xSR":733.5,"ySR":464.1,"xT1":420.09999999999997,"yT1":0,"xT2":1046.8999999999999,"yT2":0,"toosoon":0,"cond_shown":"Incongruent","ratio_trial":300,"L_num":2,"L_den":4,"R_num":6,"R_den":30,"correct_side":1,"subjID":"samueldavidrealpe27","gender":"0","school":"No_school","age":"No_age"},{"start_time":1552055673146,"click_time":1552055676035,"finger_time":1552055675475,"fix_duration":250,"trial":22,"RT":2329,"MT":560,"sideResp":1,"stimulus":[],"xmouse":[766,766,766,766,766,766,766,766,766,766,766,766,766,766,766,766,766,766,766,766,766,766,766,766,766,766,766,766,766,766,766,766,766,766,766,766,766,766,766,766,766,766,766,766,766,766,766,766,766,766,766,766,766,766,766,766,766,766,766,766,766,766,766,766,766,766,766,766,766,766,766,766,766,766,766,766,766,767,771,774,777,778,782,783,783,783,783,783,783,783,783,783,783,783,783,783,783,783,783,783,783,783,783,783,783,783,783,783,783,783,783,783,783,783,783,783,782,780,776,759,745,727,705,680,652,637,618,599,581,567,565,564,564,564,564,564,564,564,564,564,564,561,545,525,506],"ymouse":[511,511,511,511,511,511,511,511,511,511,511,511,511,511,511,511,511,511,511,511,511,511,511,511,511,511,511,511,511,511,511,511,511,511,511,511,511,511,511,511,511,511,511,511,511,511,511,511,511,511,511,511,511,511,511,511,511,511,511,511,511,511,511,511,511,511,511,511,511,511,511,511,511,511,511,511,511,510,509,506,504,503,502,502,502,502,502,502,502,502,502,502,502,502,502,502,502,502,502,502,502,502,502,502,502,502,502,502,502,502,502,502,502,501,501,485,464,452,439,402,380,350,317,283,237,215,192,168,144,128,126,126,126,126,126,126,126,126,126,126,126,123,114,102,91],"timestamp_mouse":[12,33,48,69,88,108,128,148,169,188,208,229,249,268,288,308,329,349,368,389,409,429,449,468,489,508,528,549,568,588,607,629,648,669,689,709,728,749,768,788,808,828,849,868,888,909,928,949,968,989,1008,1029,1049,1068,1088,1109,1128,1148,1169,1188,1209,1228,1248,1268,1287,1308,1329,1349,1369,1389,1408,1429,1449,1468,1489,1509,1529,1548,1568,1589,1608,1628,1648,1668,1689,1708,1729,1748,1768,1788,1809,1828,1848,1868,1888,1908,1929,1949,1969,1988,2009,2028,2049,2068,2088,2109,2129,2148,2167,2188,2208,2229,2247,2267,2288,2309,2329,2348,2369,2388,2408,2428,2448,2468,2489,2508,2528,2549,2569,2589,2607,2629,2649,2668,2689,2708,2728,2747,2768,2789,2808,2829,2849,2868,2889],"xSR":733.5,"ySR":464.1,"xT1":420.09999999999997,"yT1":0,"xT2":1046.8999999999999,"yT2":0,"toosoon":0,"cond_shown":"Congruent","ratio_trial":200,"L_num":4,"L_den":10,"R_num":3,"R_den":15,"correct_side":1,"subjID":"samueldavidrealpe27","gender":"0","school":"No_school","age":"No_age"},{"start_time":1552055678362,"click_time":1552055680974,"finger_time":1552055679755,"fix_duration":687.5683536179773,"trial":23,"RT":1393,"MT":1219,"sideResp":2,"stimulus":[],"xmouse":[759,759,759,759,759,759,759,759,759,759,759,759,759,759,759,759,759,759,759,759,759,759,759,759,759,759,759,759,759,759,759,759,759,759,759,759,759,759,759,759,759,759,759,759,759,759,759,759,759,759,759,759,759,759,759,759,759,759,760,760,760,760,760,760,760,761,762,777,791,818,830,839,848,858,863,865,874,881,893,899,903,911,917,925,928,931,936,939,942,946,948,948,949,952,956,959,962,963,965,967,968,969,970,971,973,973,975,977,979,980,982,988,998,1007,1018,1019,1024,1026,1034,1036,1037,1038,1038,1039,1039,1039,1040,1042,1045,1046,1048],"ymouse":[525,525,525,525,525,525,525,525,525,525,525,525,525,525,525,525,525,525,525,525,525,525,525,525,525,525,525,525,525,525,525,525,525,525,525,525,525,525,525,525,525,525,525,525,525,525,525,525,525,525,525,525,525,525,525,525,525,525,524,524,524,524,524,524,524,521,519,496,477,441,423,410,397,377,368,363,349,336,309,295,281,262,244,216,205,195,178,169,160,146,140,139,138,137,135,133,127,121,113,109,106,104,100,96,93,91,90,88,87,86,84,79,69,61,54,54,54,53,49,49,48,48,48,48,48,48,48,47,46,45,45],"timestamp_mouse":[22,40,52,72,92,111,132,152,172,192,213,233,252,272,293,311,332,352,373,393,413,432,451,471,493,513,533,553,573,592,613,633,652,672,692,711,733,753,772,793,811,832,853,873,893,911,933,953,973,992,1012,1032,1052,1072,1093,1112,1133,1152,1173,1192,1213,1232,1253,1272,1293,1313,1332,1351,1372,1393,1412,1433,1453,1473,1492,1513,1532,1552,1573,1592,1613,1632,1653,1672,1692,1712,1732,1752,1772,1792,1812,1832,1853,1874,1892,1912,1933,1953,1972,1992,2012,2033,2052,2074,2091,2112,2133,2153,2172,2191,2213,2233,2252,2272,2293,2312,2333,2353,2373,2392,2412,2432,2452,2473,2492,2512,2532,2552,2573,2592,2612],"xSR":733.5,"ySR":464.1,"xT1":420.09999999999997,"yT1":0,"xT2":1046.8999999999999,"yT2":0,"toosoon":0,"cond_shown":"Incongruent","ratio_trial":200,"L_num":11,"L_den":20,"R_num":3,"R_den":4,"correct_side":2,"subjID":"samueldavidrealpe27","gender":"0","school":"No_school","age":"No_age"},{"start_time":1552055683874,"click_time":1552055687234,"finger_time":1552055686094,"fix_duration":817.8850940495406,"trial":24,"RT":2220,"MT":1140,"sideResp":2,"stimulus":[],"xmouse":[800,800,800,800,800,800,800,800,800,800,800,800,800,800,800,800,800,800,800,800,800,800,800,800,800,800,800,800,800,800,800,800,800,800,800,800,800,800,800,800,800,800,800,800,800,800,800,800,800,800,800,800,800,800,800,800,800,800,800,800,800,800,800,800,800,800,800,800,800,800,800,800,800,800,800,800,800,800,800,800,800,800,800,800,800,800,800,800,800,800,800,800,800,800,800,800,800,800,800,800,800,800,800,800,800,800,800,800,804,823,827,841,848,878,900,917,932,943,950,958,958,963,970,978,983,986,988,990,992,992,992,992,992,992,992,994,995,996,997,999,999,1000,1000,1000,1001,1002,1004,1006,1010,1012,1015,1017,1020,1024,1026,1028,1030,1031,1035,1036,1037,1039,1040,1041,1042,1043,1045,1046,1047],"ymouse":[518,518,518,518,518,518,518,518,518,518,518,518,518,518,518,518,518,519,519,519,519,519,519,519,519,519,519,519,519,519,519,519,519,519,519,519,519,519,519,519,519,519,519,519,519,519,519,519,519,519,519,519,519,519,519,519,519,519,519,519,519,519,519,519,519,519,519,519,519,519,519,519,519,519,519,519,519,519,519,519,519,519,519,519,519,519,519,519,519,519,519,519,519,519,519,519,519,519,519,519,519,519,519,519,519,519,519,519,516,508,506,500,497,488,482,474,468,463,460,456,455,453,451,446,441,427,409,393,355,334,310,271,245,194,170,146,123,106,92,76,74,73,73,73,71,70,69,68,67,66,65,65,64,63,62,61,61,60,59,59,59,59,59,59,58,58,58,58,58],"timestamp_mouse":[10,21,40,61,80,101,121,140,160,180,201,221,241,261,280,301,320,340,361,380,400,420,441,460,481,500,520,540,561,581,600,621,639,661,680,700,721,741,760,781,800,821,840,861,881,901,921,941,961,981,1000,1020,1041,1060,1081,1101,1120,1141,1160,1180,1201,1220,1240,1261,1280,1301,1321,1340,1361,1380,1400,1419,1440,1461,1481,1500,1521,1540,1560,1581,1600,1620,1641,1661,1681,1701,1721,1740,1760,1781,1801,1821,1841,1861,1880,1899,1921,1941,1961,1981,2001,2020,2041,2060,2081,2101,2120,2141,2161,2181,2200,2220,2241,2261,2279,2300,2321,2341,2361,2380,2400,2421,2440,2461,2480,2500,2520,2540,2561,2580,2601,2621,2640,2661,2680,2700,2721,2740,2760,2780,2801,2820,2841,2859,2879,2900,2921,2941,2962,2980,3000,3021,3040,3060,3080,3100,3120,3139,3162,3179,3200,3220,3247,3260,3280,3299,3320,3340,3360],"xSR":733.5,"ySR":464.1,"xT1":420.09999999999997,"yT1":0,"xT2":1046.8999999999999,"yT2":0,"toosoon":0,"cond_shown":"Congruent","ratio_trial":100,"L_num":4,"L_den":10,"R_num":15,"R_den":30,"correct_side":2,"subjID":"samueldavidrealpe27","gender":"0","school":"No_school","age":"No_age"},{"start_time":1552055689658,"click_time":1552055691134,"finger_time":1552055690875,"fix_duration":723.955843549701,"trial":25,"RT":1217,"MT":259,"sideResp":2,"stimulus":[],"xmouse":[786,786,786,786,786,786,786,786,786,786,786,786,786,786,786,786,786,786,786,786,786,786,786,786,786,786,786,786,786,786,786,786,786,786,786,786,786,786,786,786,786,786,786,786,786,786,786,786,786,786,786,786,786,786,786,786,786,790,809,823,842,864,878,909,928,953,978,1001,1025,1034,1040,1054,1085,1111],"ymouse":[540,540,540,540,540,540,540,540,540,540,540,540,540,540,540,540,540,540,540,540,540,540,540,540,540,540,540,540,540,540,540,540,540,540,540,540,540,540,540,540,540,540,540,540,540,540,540,540,540,540,540,540,540,540,540,540,537,534,519,493,452,411,394,360,338,309,279,253,219,202,186,162,115,75],"timestamp_mouse":[16,38,55,77,95,116,137,157,177,197,217,236,257,277,297,316,337,357,375,397,416,437,457,477,497,517,537,557,577,597,616,637,656,676,697,717,736,757,776,797,816,837,857,877,897,917,936,956,977,996,1017,1037,1057,1076,1095,1117,1136,1156,1176,1196,1217,1236,1257,1277,1295,1317,1336,1356,1378,1395,1416,1436,1456,1476],"xSR":733.5,"ySR":464.1,"xT1":420.09999999999997,"yT1":0,"xT2":1046.8999999999999,"yT2":0,"toosoon":0,"cond_shown":"Incongruent","ratio_trial":300,"L_num":4,"L_den":20,"R_num":2,"R_den":4,"correct_side":2,"subjID":"samueldavidrealpe27","gender":"0","school":"No_school","age":"No_age"},{"start_time":1552055694751,"click_time":1552055698254,"finger_time":1552055697235,"fix_duration":1416.397870724157,"trial":26,"RT":2484,"MT":1019,"sideResp":1,"stimulus":[],"xmouse":[799,799,799,799,799,799,799,799,799,799,799,799,799,799,799,799,799,799,799,799,799,799,799,799,799,799,799,799,799,799,799,799,799,799,799,799,799,799,799,799,799,799,799,799,799,799,799,799,799,799,799,799,799,799,799,799,799,799,799,799,799,799,799,799,799,799,799,799,799,799,799,799,799,799,795,790,783,779,779,779,779,779,779,779,779,779,779,779,782,787,788,788,788,788,788,788,788,788,788,792,793,794,794,794,794,797,800,802,803,804,804,804,804,804,804,804,804,804,804,804,804,804,804,772,731,554,465,375,345,304,287,272,260,250,245,245,245,245,252,264,296,309,322,335,352,367,371,380,386,390,390,390,390,391,393,394,397,405,414,431,440,448,458,465,471,479,482,483,484,484,484,485,486,489,489,492],"ymouse":[522,522,522,522,522,522,522,522,522,522,522,522,522,522,522,522,522,522,522,522,522,522,522,522,522,522,522,522,522,522,522,522,522,522,522,522,522,522,522,522,522,522,522,522,522,522,522,522,522,522,522,522,522,522,522,522,522,522,522,522,522,522,522,522,522,522,522,522,522,522,522,522,522,522,524,524,525,526,526,526,526,526,526,526,526,526,526,526,526,524,523,523,523,523,523,523,523,523,523,522,522,522,522,522,521,520,519,517,517,516,516,516,516,516,516,516,516,516,516,516,516,516,516,502,491,416,377,340,326,304,291,278,267,257,250,249,246,242,238,235,224,220,214,210,206,201,199,196,195,193,193,193,193,193,190,189,187,183,179,168,160,151,144,141,137,128,123,121,120,120,118,113,109,105,103,94],"timestamp_mouse":[13,30,44,63,83,102,124,142,163,183,203,224,243,264,284,304,323,344,364,384,404,424,443,464,483,503,524,544,564,583,604,624,644,663,684,703,723,744,763,784,802,824,844,863,883,903,923,943,963,984,1003,1024,1043,1064,1083,1103,1124,1142,1164,1184,1204,1224,1243,1264,1284,1304,1324,1343,1364,1384,1402,1424,1444,1464,1483,1503,1523,1544,1563,1584,1603,1623,1644,1664,1683,1703,1724,1744,1764,1783,1804,1823,1843,1864,1882,1903,1923,1943,1962,1984,2003,2024,2043,2063,2083,2103,2124,2144,2164,2183,2203,2224,2244,2263,2283,2304,2324,2343,2364,2383,2404,2424,2444,2464,2484,2503,2523,2543,2563,2583,2603,2623,2644,2663,2684,2703,2723,2743,2763,2782,2803,2823,2844,2863,2884,2903,2923,2944,2963,2984,3003,3024,3044,3063,3084,3104,3123,3144,3164,3184,3202,3223,3243,3262,3284,3302,3323,3344,3364,3384,3403,3423,3444,3463,3484,3503],"xSR":733.5,"ySR":464.1,"xT1":420.09999999999997,"yT1":0,"xT2":1046.8999999999999,"yT2":0,"toosoon":0,"cond_shown":"Congruent","ratio_trial":100,"L_num":4,"L_den":8,"R_num":6,"R_den":10,"correct_side":2,"subjID":"samueldavidrealpe27","gender":"0","school":"No_school","age":"No_age"},{"start_time":1552055701913,"click_time":1552055705236,"finger_time":1552055703635,"fix_duration":1158.0587480682022,"trial":27,"RT":1722,"MT":1601,"sideResp":2,"stimulus":[],"xmouse":[798,798,798,798,798,798,798,798,798,798,798,798,798,798,798,798,798,798,798,795,793,792,792,792,792,792,792,792,792,792,792,792,792,792,792,792,792,792,792,792,792,792,792,792,792,792,792,792,792,792,792,792,792,792,792,792,792,792,792,792,792,792,792,792,792,792,792,792,792,792,792,792,792,792,792,792,792,792,792,792,792,792,794,799,805,812,834,852,877,905,917,925,931,935,939,942,944,946,946,946,946,949,952,954,960,968,997,1009,1017,1023,1025,1029,1030,1031,1031,1033,1034,1035,1035,1035,1035,1035,1035,1035,1035,1035,1035,1035,1035,1035,1035,1035,1035,1035,1035,1035,1035,1035,1035,1035,1035,1035,1035,1035,1035,1035,1035,1035,1035,1036,1037,1038,1041,1042,1042,1042,1042,1042,1042,1042,1042,1043,1045,1046,1046,1046,1048],"ymouse":[533,533,533,533,533,533,533,533,533,533,533,533,533,533,533,533,533,533,533,534,535,535,535,535,535,535,535,535,535,535,535,535,535,535,535,535,535,535,535,535,535,535,535,535,535,535,535,535,535,535,535,535,535,535,535,535,535,535,535,535,535,535,535,535,535,535,535,535,535,535,535,535,535,535,535,535,535,535,535,535,535,535,530,521,513,505,488,478,467,445,428,409,384,371,357,341,325,288,267,243,231,217,214,213,211,208,199,195,191,184,180,166,160,155,151,142,134,123,122,122,121,121,121,121,121,121,121,121,121,121,121,121,121,121,121,121,121,121,121,121,121,121,121,121,121,121,121,121,121,120,118,113,106,103,103,103,103,103,103,103,103,101,97,96,95,92,88],"timestamp_mouse":[10,21,42,62,81,101,122,142,161,182,202,222,241,261,282,302,322,341,361,382,402,421,441,462,482,502,522,542,562,582,601,622,642,661,682,702,721,741,762,781,801,822,842,862,881,901,922,940,962,982,1001,1022,1042,1060,1082,1101,1121,1141,1160,1182,1202,1221,1242,1261,1282,1302,1322,1342,1362,1381,1402,1423,1442,1462,1481,1502,1522,1542,1562,1582,1601,1620,1641,1661,1681,1702,1722,1741,1761,1782,1802,1822,1841,1861,1882,1900,1922,1940,1961,1982,2002,2021,2041,2060,2082,2102,2123,2141,2161,2182,2202,2222,2240,2261,2282,2301,2322,2340,2361,2381,2402,2422,2441,2462,2481,2502,2520,2541,2562,2582,2601,2622,2642,2662,2681,2701,2722,2742,2761,2782,2801,2821,2841,2861,2881,2902,2921,2941,2962,2982,3001,3022,3042,3061,3082,3102,3121,3141,3162,3181,3201,3220,3241,3262,3281,3300,3323],"xSR":733.5,"ySR":464.1,"xT1":420.09999999999997,"yT1":0,"xT2":1046.8999999999999,"yT2":0,"toosoon":0,"cond_shown":"Incongruent","ratio_trial":100,"L_num":12,"L_den":30,"R_num":2,"R_den":4,"correct_side":2,"subjID":"samueldavidrealpe27","gender":"0","school":"No_school","age":"No_age"},{"start_time":1552055708249,"click_time":1552055710475,"finger_time":1552055709935,"fix_duration":1033.817350789811,"trial":28,"RT":1686,"MT":540,"sideResp":1,"stimulus":[],"xmouse":[803,803,803,803,803,803,803,803,803,803,803,803,803,803,803,803,803,803,803,803,803,803,803,803,803,803,803,803,803,803,803,803,803,803,803,803,803,803,803,803,803,803,803,803,803,803,803,803,803,803,803,803,803,803,803,803,803,803,803,803,803,803,803,803,803,803,802,801,800,795,792,792,792,792,792,792,792,792,792,792,792,792,789,778,733,687,616,540,459,376,368,363,361,358,355,354,354,354,353,353,364,368,380,387,393,404,409,415,418,427,430,431],"ymouse":[505,505,505,505,505,505,505,505,505,505,505,505,505,505,505,505,505,505,505,505,505,505,505,505,505,505,505,505,505,505,505,505,505,505,505,505,505,505,505,505,505,505,505,505,505,505,505,505,505,505,505,505,505,505,505,505,505,505,505,505,505,505,505,505,505,505,505,506,506,508,509,509,509,509,509,509,509,509,509,509,509,509,508,502,486,474,450,411,359,284,268,251,248,240,235,233,232,232,232,231,226,224,219,213,207,191,179,166,154,124,109,94],"timestamp_mouse":[12,30,46,66,85,105,125,145,164,185,205,225,246,266,284,305,325,346,365,385,405,426,445,466,485,505,525,545,565,586,606,625,645,666,685,705,725,746,766,786,805,825,846,865,885,905,926,945,966,986,1006,1026,1045,1066,1085,1105,1126,1144,1166,1185,1205,1225,1246,1266,1285,1306,1325,1345,1366,1386,1405,1426,1445,1465,1486,1506,1526,1546,1565,1586,1605,1626,1645,1665,1686,1705,1726,1746,1766,1787,1805,1825,1845,1865,1886,1905,1925,1946,1966,1986,2005,2025,2045,2065,2086,2105,2125,2145,2165,2186,2205,2225],"xSR":733.5,"ySR":464.1,"xT1":420.09999999999997,"yT1":0,"xT2":1046.8999999999999,"yT2":0,"toosoon":0,"cond_shown":"Incongruent","ratio_trial":100,"L_num":3,"L_den":5,"R_num":8,"R_den":16,"correct_side":1,"subjID":"samueldavidrealpe27","gender":"0","school":"No_school","age":"No_age"},{"start_time":1552055713389,"click_time":1552055715494,"finger_time":1552055714895,"fix_duration":1453.7473715449282,"trial":29,"RT":1506,"MT":599,"sideResp":2,"stimulus":[],"xmouse":[787,787,787,787,787,787,787,787,787,787,787,787,787,787,787,787,787,787,787,787,787,787,787,787,787,787,787,787,787,787,787,787,787,787,787,787,787,787,787,787,787,787,787,787,787,787,787,787,787,787,787,787,787,787,787,787,787,787,787,787,787,787,787,787,787,787,787,787,787,787,787,788,791,802,812,836,860,909,929,938,946,954,962,965,969,971,972,966,963,962,962,963,976,985,1000,1006,1024,1032,1046,1050,1052,1054,1056,1056,1055,1055],"ymouse":[501,501,501,501,501,501,501,501,501,501,501,501,501,501,501,501,501,501,501,501,501,501,501,501,501,501,501,501,501,501,501,501,501,501,501,501,501,501,501,501,501,501,501,501,501,501,501,501,501,501,501,501,501,501,501,501,501,501,501,501,501,501,501,501,501,501,501,501,501,501,501,501,498,483,471,450,438,419,410,406,401,391,367,354,340,313,293,247,228,219,212,208,203,200,196,195,190,185,177,170,157,142,131,112,103,98],"timestamp_mouse":[12,26,45,65,86,105,125,145,166,186,206,226,246,266,286,306,325,346,366,386,405,425,446,466,486,506,525,546,566,586,606,625,646,666,686,705,725,745,766,786,805,826,846,866,886,905,925,946,966,986,1005,1024,1046,1066,1086,1106,1125,1146,1166,1184,1205,1225,1245,1266,1286,1306,1326,1345,1365,1384,1406,1425,1445,1465,1486,1506,1526,1545,1565,1585,1606,1625,1646,1665,1685,1705,1725,1746,1764,1786,1805,1824,1847,1865,1885,1906,1925,1946,1965,1986,2004,2026,2046,2066,2086,2105],"xSR":733.5,"ySR":464.1,"xT1":420.09999999999997,"yT1":0,"xT2":1046.8999999999999,"yT2":0,"toosoon":0,"cond_shown":"Incongruent","ratio_trial":200,"L_num":7,"L_den":15,"R_num":6,"R_den":9,"correct_side":2,"subjID":"samueldavidrealpe27","gender":"0","school":"No_school","age":"No_age"},{"start_time":1552055718388,"click_time":1552055721075,"finger_time":1552055719894,"fix_duration":1152.8006583692943,"trial":30,"RT":1506,"MT":1181,"sideResp":2,"stimulus":[],"xmouse":[783,783,783,783,783,783,783,783,783,783,783,783,783,783,783,783,783,783,783,783,783,783,783,783,783,783,783,783,783,783,783,783,783,783,783,783,783,783,783,783,783,783,783,783,783,783,783,783,783,783,783,783,783,783,783,783,783,783,783,783,783,783,783,783,783,783,783,783,783,786,788,795,809,818,829,838,856,881,891,906,917,928,952,959,964,965,968,971,976,978,978,978,978,980,981,988,994,1011,1018,1024,1029,1031,1031,1031,1031,1031,1031,1031,1031,1031,1031,1031,1031,1031,1033,1038,1042,1046,1046,1046,1046,1047,1050,1050,1050,1050,1050,1050,1050,1051,1051,1052,1057,1059,1061],"ymouse":[548,548,548,548,548,548,548,548,548,548,548,548,548,548,548,548,548,548,548,548,548,548,548,548,548,548,548,548,548,548,548,548,548,548,548,548,548,548,548,548,548,548,548,548,548,548,548,548,548,548,548,548,548,548,548,548,548,548,548,548,548,548,548,548,548,548,548,548,548,547,547,545,539,536,531,526,519,503,492,475,455,434,391,369,336,328,303,287,273,270,270,270,270,268,265,256,247,219,202,187,176,166,156,155,155,155,155,155,155,155,155,155,155,155,153,144,136,131,131,131,131,131,129,129,129,129,129,129,129,128,128,126,114,106,99],"timestamp_mouse":[20,27,47,66,87,106,126,148,167,186,207,226,247,268,287,307,328,346,367,387,408,427,448,468,487,507,526,548,566,587,608,627,647,668,688,707,726,747,767,788,808,827,847,867,887,908,928,947,967,987,1006,1026,1046,1068,1088,1107,1127,1147,1167,1188,1208,1227,1247,1266,1287,1307,1326,1347,1367,1387,1407,1426,1447,1467,1487,1506,1527,1547,1566,1586,1606,1626,1647,1666,1688,1708,1726,1747,1767,1786,1807,1827,1847,1866,1886,1907,1927,1948,1967,1986,2007,2027,2047,2066,2086,2107,2126,2146,2166,2188,2207,2227,2248,2268,2287,2307,2327,2347,2366,2386,2407,2426,2447,2467,2486,2506,2527,2547,2567,2586,2606,2626,2648,2666,2687],"xSR":733.5,"ySR":464.1,"xT1":420.09999999999997,"yT1":0,"xT2":1046.8999999999999,"yT2":0,"toosoon":0,"cond_shown":"Incongruent","ratio_trial":200,"L_num":14,"L_den":30,"R_num":6,"R_den":9,"correct_side":2,"subjID":"samueldavidrealpe27","gender":"0","school":"No_school","age":"No_age"},{"start_time":1552055722846,"click_time":1552055725014,"finger_time":1552055724155,"fix_duration":250,"trial":31,"RT":1309,"MT":859,"sideResp":2,"stimulus":[],"xmouse":[782,782,782,782,782,782,782,782,782,782,782,782,782,782,782,782,782,782,782,782,782,782,782,782,782,782,782,782,782,782,782,782,782,782,782,782,782,782,782,782,782,782,782,782,782,782,782,782,781,781,780,778,776,775,775,775,775,775,775,775,775,773,769,756,735,728,722,718,717,717,717,717,717,717,717,717,717,717,717,717,717,717,717,717,717,717,720,730,747,840,912,967,991,1006,1009,1024,1033,1041,1050,1063,1063,1063,1063,1063,1063,1063,1061,1059,1058],"ymouse":[504,504,504,504,504,504,504,504,504,504,504,504,504,504,504,504,504,504,504,504,504,504,504,504,504,504,504,504,504,504,504,504,504,504,504,504,504,504,504,504,504,504,504,504,504,504,504,504,505,505,506,506,508,508,508,508,508,508,508,508,508,511,512,522,534,538,542,544,545,545,545,545,545,545,545,545,545,545,545,545,545,545,545,545,545,540,535,526,519,490,465,444,432,417,407,383,366,345,322,264,237,203,194,170,142,130,116,105,95],"timestamp_mouse":[13,32,49,69,88,109,130,149,169,189,209,228,249,269,289,310,329,348,368,388,409,430,449,469,489,510,529,550,569,589,609,629,649,669,689,710,729,748,768,789,808,830,849,869,889,908,929,950,969,988,1008,1030,1048,1069,1090,1108,1130,1149,1168,1189,1209,1228,1250,1269,1289,1309,1328,1349,1370,1389,1409,1429,1448,1468,1490,1508,1529,1548,1569,1588,1609,1629,1649,1668,1689,1708,1728,1749,1770,1789,1808,1829,1850,1869,1889,1909,1929,1949,1968,1990,2008,2028,2048,2069,2090,2108,2128,2148,2168],"xSR":733.5,"ySR":464.1,"xT1":420.09999999999997,"yT1":0,"xT2":1046.8999999999999,"yT2":0,"toosoon":0,"cond_shown":"Congruent","ratio_trial":200,"L_num":3,"L_den":6,"R_num":14,"R_den":20,"correct_side":2,"subjID":"samueldavidrealpe27","gender":"0","school":"No_school","age":"No_age"},{"start_time":1552055727258,"click_time":1552055729656,"finger_time":1552055728755,"fix_duration":1262.6828325331005,"trial":32,"RT":1497,"MT":901,"sideResp":1,"stimulus":[],"xmouse":[806,806,806,806,806,806,806,806,806,806,806,806,806,806,806,806,806,806,806,806,806,806,806,806,806,806,806,806,806,806,806,806,806,806,806,806,806,806,806,806,806,806,806,806,806,806,806,806,806,806,806,806,806,806,806,806,806,806,806,806,806,806,806,806,806,806,806,806,806,806,806,806,806,804,776,740,719,716,716,716,716,716,716,716,715,712,702,687,671,623,603,578,546,477,430,388,352,320,320,320,320,320,320,320,320,320,320,320,320,320,320,320,320,320,320,320,320,320,411,438],"ymouse":[489,489,489,489,489,489,489,489,489,489,489,489,489,489,489,489,489,489,489,489,489,489,489,489,489,489,489,489,489,489,489,489,489,489,489,489,489,489,489,489,489,489,489,489,489,489,489,489,489,489,489,489,489,489,489,489,489,489,489,489,489,489,489,489,489,489,489,489,489,489,489,489,489,488,460,438,428,428,428,428,428,428,428,428,427,423,415,402,388,346,326,295,257,172,125,84,43,3,3,3,3,3,3,3,3,3,3,3,3,3,3,3,3,3,3,3,3,3,13,47],"timestamp_mouse":[18,38,57,76,97,118,137,157,177,197,217,236,258,277,297,317,337,358,377,396,417,436,456,477,497,516,536,556,576,597,616,637,657,676,697,718,736,757,778,798,817,836,856,877,897,916,937,956,977,996,1016,1036,1058,1076,1097,1117,1137,1157,1176,1198,1217,1236,1257,1276,1296,1318,1337,1357,1376,1396,1416,1437,1457,1477,1497,1516,1537,1558,1578,1598,1616,1637,1656,1676,1696,1717,1738,1757,1776,1797,1816,1836,1856,1877,1896,1917,1936,1956,1976,1997,2017,2037,2057,2077,2097,2117,2137,2158,2178,2197,2217,2236,2256,2277,2298,2316,2337,2356,2377,2397],"xSR":733.5,"ySR":464.1,"xT1":420.09999999999997,"yT1":0,"xT2":1046.8999999999999,"yT2":0,"toosoon":0,"cond_shown":"Incongruent","ratio_trial":100,"L_num":6,"L_den":10,"R_num":11,"R_den":22,"correct_side":1,"subjID":"samueldavidrealpe27","gender":"0","school":"No_school","age":"No_age"},{"start_time":1552055732667,"click_time":1552055734756,"finger_time":1552055734534,"fix_duration":1191.3983042366094,"trial":33,"RT":1867,"MT":222,"sideResp":1,"stimulus":[],"xmouse":[807,807,807,807,807,807,807,807,807,807,807,807,807,807,807,807,807,807,807,807,807,807,807,807,807,807,807,807,807,807,807,807,807,807,807,807,807,807,807,807,807,807,807,807,807,807,807,807,807,807,807,807,807,807,807,807,807,807,807,807,807,807,807,807,807,807,807,807,807,807,807,807,807,807,807,807,807,807,807,807,807,807,807,807,807,807,805,804,803,801,800,798,794,790,771,754,733,700,662,584,563,546,538,521,513],"ymouse":[499,499,499,499,499,499,499,499,499,499,499,499,499,499,499,499,499,499,499,499,499,499,499,499,499,499,499,499,499,499,499,499,499,499,499,499,499,499,499,499,499,499,499,499,499,499,499,499,499,499,499,499,499,499,499,499,499,499,499,499,499,499,499,499,499,499,499,499,499,499,499,499,499,499,499,499,499,499,499,499,499,499,499,499,499,499,495,491,482,479,474,471,465,458,438,426,408,382,351,255,202,149,125,97,89],"timestamp_mouse":[12,29,48,68,89,107,127,148,167,189,207,228,249,268,288,307,327,348,368,387,409,427,447,468,487,507,527,547,567,588,609,628,648,668,688,708,729,748,769,788,809,829,849,868,889,908,929,947,968,988,1008,1027,1048,1068,1088,1107,1128,1148,1167,1189,1207,1227,1248,1268,1289,1309,1327,1348,1369,1387,1408,1428,1447,1467,1488,1507,1527,1547,1569,1587,1608,1627,1649,1667,1687,1708,1728,1748,1768,1787,1807,1828,1848,1867,1888,1908,1928,1949,1967,1987,2007,2027,2048,2068,2089],"xSR":733.5,"ySR":464.1,"xT1":420.09999999999997,"yT1":0,"xT2":1046.8999999999999,"yT2":0,"toosoon":0,"cond_shown":"Incongruent","ratio_trial":100,"L_num":3,"L_den":6,"R_num":4,"R_den":10,"correct_side":1,"subjID":"samueldavidrealpe27","gender":"0","school":"No_school","age":"No_age"},{"start_time":1552055738465,"click_time":1552055741595,"finger_time":1552055739955,"fix_duration":250,"trial":34,"RT":1490,"MT":1640,"sideResp":2,"stimulus":[],"xmouse":[753,753,753,753,753,753,753,753,753,753,753,753,753,753,753,753,753,753,753,753,753,753,753,753,753,753,753,753,753,753,753,753,753,753,753,753,753,753,753,753,753,753,753,753,753,753,753,753,753,753,753,756,762,764,764,764,764,764,764,764,764,764,764,764,764,764,764,768,777,783,789,795,801,814,821,832,849,864,889,898,906,917,932,953,960,969,976,979,979,979,980,984,990,1002,1008,1014,1021,1025,1029,1039,1045,1047,1056,1067,1070,1074,1075,1075,1075,1075,1075,1075,1075,1075,1075,1075,1075,1075,1075,1075,1075,1075,1075,1075,1075,1075,1075,1075,1075,1075,1075,1075,1075,1075,1075,1075,1076,1076,1076,1076,1076,1076,1076,1076,1076,1076,1076,1076,1076,1076,1076,1076,1076,1076,1076,1076,1076],"ymouse":[502,502,502,502,502,502,502,502,502,502,502,502,502,502,502,502,502,502,502,502,502,5