[{"start_time":1552056314230,"click_time":1552056315788,"finger_time":1552056315328,"fix_duration":777.3775288955428,"trial":0,"RT":1098,"MT":460,"sideResp":2,"stimulus":"img/900/equaldotanddens/R/11_Ratio_900_L_18_R_20.png","xmouse":[775,775,775,775,775,775,775,775,775,775,775,775,775,775,775,775,775,775,775,775,775,775,775,775,775,775,775,775,775,775,775,775,775,775,775,775,775,775,775,775,775,775,775,775,775,775,775,775,775,775,775,775,776,795,824,840,841,841,842,847,851,859,884,898,914,927,942,967,983,999,1017,1036,1072,1095,1108,1116,1124,1130,1134],"ymouse":[487,487,487,487,487,487,487,487,487,487,487,487,487,487,487,487,487,487,487,487,487,487,487,487,487,487,487,487,487,487,487,487,487,487,487,487,487,487,487,487,487,487,487,487,487,487,487,487,487,487,487,487,487,479,470,467,467,466,465,463,461,455,438,428,416,404,395,377,365,353,338,319,270,229,205,184,160,106,82],"timestamp_mouse":[9,18,39,58,79,99,118,138,158,179,199,218,238,258,278,299,318,338,359,378,399,418,439,458,478,498,519,538,559,578,599,618,639,659,678,699,718,739,759,778,798,819,838,858,879,899,918,938,958,980,999,1018,1038,1059,1079,1098,1118,1138,1158,1178,1199,1218,1238,1258,1278,1298,1318,1338,1358,1378,1399,1418,1438,1459,1478,1498,1519,1538,1558],"xSR":733.5,"ySR":464.1,"xT1":420.09999999999997,"yT1":0,"xT2":1046.8999999999999,"yT2":0,"toosoon":0,"cond_shown":"equaldotanddens","ratio_trial":900,"smaller_num":"18","larger_num":"20","correct_side":2,"subjID":"samuelrealpe27","gender":"0","age":"9","school":"4","test":{"fix_dur":[250,1500],"timestim":300,"targets_dim":[100,100],"targets_relative_coord":[0.3,0.7],"size_stim":[880,420],"start_dim":[100,100],"size_start":[300,300],"size_fix":60,"samplingrate":20,"img_types":["equaldotsize","equaldotanddens","randomdotsizeEA"],"ratios":[250,500,750,900],"rep_conds":9,"nTrials":120,"trials_to_rest":500,"Trials_order":[118,83,110,40,2,85,64,119,56,115,61,25,84,111,0,89,67,60,18,34,96,91,13,63,48,50,19,106,74,1,57,71,38,109,58,66,12,108,3,100,105,98,16,76,77,10,72,11,86,112,62,28,80,37,78,35,41,46,43,49,65,5,82,15,99,21,116,31,29,94,90,103,24,69,23,22,68,114,104,4,32,88,73,81,53,33,42,30,75,17,27,8,97,44,14,6,92,59,51,95,26,102,79,93,7,36,54,52,113,117,39,45,9,70,101,87,55,20,107,47],"cond_shown":["equaldotanddens","randomdotsizeEA","randomdotsizeEA","equaldotanddens","randomdotsizeEA","equaldotanddens","equaldotanddens","randomdotsizeEA","randomdotsizeEA","equaldotanddens","equaldotanddens","equaldotanddens","equaldotsize","equaldotsize","equaldotsize","randomdotsizeEA","equaldotanddens","equaldotsize","equaldotsize","equaldotanddens","equaldotsize","equaldotanddens","equaldotanddens","equaldotsize","equaldotsize","randomdotsizeEA","equaldotanddens","equaldotanddens","randomdotsizeEA","equaldotanddens","equaldotsize","randomdotsizeEA","randomdotsizeEA","equaldotanddens","equaldotanddens","equaldotsize","equaldotsize","equaldotsize","equaldotsize","equaldotanddens","equaldotsize","randomdotsizeEA","equaldotanddens","equaldotanddens","randomdotsizeEA","equaldotanddens","equaldotsize","randomdotsizeEA","randomdotsizeEA","equaldotanddens","randomdotsizeEA","equaldotanddens","randomdotsizeEA","equaldotanddens","equaldotsize","randomdotsizeEA","randomdotsizeEA","equaldotanddens","equaldotanddens","equaldotanddens","randomdotsizeEA","randomdotsizeEA","equaldotanddens","equaldotsize","equaldotsize","equaldotsize","randomdotsizeEA","equaldotanddens","randomdotsizeEA","equaldotanddens","equaldotsize","equaldotanddens","equaldotsize","equaldotsize","randomdotsizeEA","equaldotanddens","randomdotsizeEA","equaldotsize","randomdotsizeEA","equaldotanddens","randomdotsizeEA","equaldotanddens","equaldotanddens","equaldotsize","randomdotsizeEA","equaldotsize","equaldotsize","equaldotsize","equaldotsize","randomdotsizeEA","equaldotsize","randomdotsizeEA","equaldotanddens","randomdotsizeEA","randomdotsizeEA","equaldotsize","randomdotsizeEA","randomdotsizeEA","equaldotsize","randomdotsizeEA","randomdotsizeEA","equaldotsize","equaldotanddens","equaldotsize","equaldotanddens","equaldotsize","equaldotsize","equaldotanddens","randomdotsizeEA","equaldotsize","equaldotsize","equaldotsize","equaldotsize","equaldotanddens","randomdotsizeEA","equaldotsize","equaldotanddens","randomdotsizeEA","randomdotsizeEA","randomdotsizeEA"],"ratio_trial":[900,900,250,500,250,250,500,900,750,750,250,250,250,500,250,500,750,250,750,900,250,750,250,500,250,250,750,900,250,250,900,900,250,250,900,750,250,250,500,500,900,250,500,500,500,900,250,900,250,500,250,500,750,250,750,900,500,900,750,250,500,500,900,500,500,900,750,750,500,900,750,750,250,900,900,900,750,750,750,500,750,500,250,900,500,900,750,750,500,500,500,750,250,750,250,750,750,900,500,900,250,750,750,900,750,250,750,500,500,900,500,900,900,900,500,500,750,750,900,900],"smaller_num":["18","18","3","2","6","2","9","18","3","6","4","3","2","3","3","6","15","5","9","18","3","3","2","2","2","3","9","18","5","4","9","9","3","4","18","15","4","4","6","6","18","6","9","9","6","18","5","18","6","9","4","2","3","2","15","18","5","18","3","3","2","9","9","2","5","9","3","15","1","9","3","6","3","18","18","18","3","15","18","5","6","9","6","18","6","18","6","15","10","6","1","3","2","18","2","6","6","18","2","18","3","6","3","18","3","2","3","1","5","18","5","18","9","9","9","3","3","3","18","18"],"larger_num":["20","20","12","4","24","8","18","20","4","8","16","12","8","6","12","12","20","20","12","20","12","4","8","4","8","12","12","20","20","16","10","10","12","16","20","20","16","16","12","12","20","24","18","18","12","20","20","20","24","18","16","4","4","8","20","20","10","20","4","12","4","18","10","4","10","10","4","20","2","10","4","8","12","20","20","20","4","20","24","10","8","18","24","20","12","20","8","20","20","12","2","4","8","24","8","8","8","20","4","20","12","8","4","20","4","8","4","2","10","20","10","20","10","10","18","6","4","4","20","20"],"correct_side":[2,2,2,2,2,1,1,2,2,1,2,1,1,2,1,1,1,2,2,1,2,1,1,1,1,2,2,1,2,1,1,2,2,2,2,2,1,2,1,1,1,2,1,2,1,1,2,1,2,1,1,2,1,1,2,2,1,1,2,1,2,1,2,2,1,2,1,2,2,2,2,1,1,1,2,1,1,2,1,1,2,2,1,2,1,1,2,1,2,1,2,1,1,1,1,2,2,1,2,2,1,1,1,1,1,1,1,2,1,1,2,1,2,2,1,2,1,2,1,1],"img_shown":["img/900/equaldotanddens/R/11_Ratio_900_L_18_R_20.png","img/900/randomdotsizeEA/R/14_Ratio_900_L_18_R_20.png","img/250/randomdotsizeEA/R/4_Ratio_250_L_3_R_12.png","img/500/equaldotanddens/R/9_Ratio_500_L_2_R_4.png","img/250/randomdotsizeEA/R/6_Ratio_250_L_6_R_24.png","img/250/equaldotanddens/L/3_Ratio_250_L_8_R_2.png","img/500/equaldotanddens/L/4_Ratio_500_L_18_R_9.png","img/900/randomdotsizeEA/R/12_Ratio_900_L_18_R_20.png","img/750/randomdotsizeEA/R/7_Ratio_750_L_3_R_4.png","img/750/equaldotanddens/L/14_Ratio_750_L_8_R_6.png","img/250/equaldotanddens/R/10_Ratio_250_L_4_R_16.png","img/250/equaldotanddens/L/14_Ratio_250_L_12_R_3.png","img/250/equaldotsize/L/1_Ratio_250_L_8_R_2.png","img/500/equaldotsize/R/2_Ratio_500_L_3_R_6.png","img/250/equaldotsize/L/14_Ratio_250_L_12_R_3.png","img/500/randomdotsizeEA/L/11_Ratio_500_L_12_R_6.png","img/750/equaldotanddens/L/1_Ratio_750_L_20_R_15.png","img/250/equaldotsize/R/12_Ratio_250_L_5_R_20.png","img/750/equaldotsize/R/15_Ratio_750_L_9_R_12.png","img/900/equaldotanddens/L/10_Ratio_900_L_20_R_18.png","img/250/equaldotsize/R/4_Ratio_250_L_3_R_12.png","img/750/equaldotanddens/L/8_Ratio_750_L_4_R_3.png","img/250/equaldotanddens/L/3_Ratio_250_L_8_R_2.png","img/500/equaldotsize/L/10_Ratio_500_L_4_R_2.png","img/250/equaldotsize/L/3_Ratio_250_L_8_R_2.png","img/250/randomdotsizeEA/R/4_Ratio_250_L_3_R_12.png","img/750/equaldotanddens/R/15_Ratio_750_L_9_R_12.png","img/900/equaldotanddens/L/8_Ratio_900_L_20_R_18.png","img/250/randomdotsizeEA/R/12_Ratio_250_L_5_R_20.png","img/250/equaldotanddens/L/2_Ratio_250_L_16_R_4.png","img/900/equaldotsize/L/1_Ratio_900_L_10_R_9.png","img/900/randomdotsizeEA/R/15_Ratio_900_L_9_R_10.png","img/250/randomdotsizeEA/R/4_Ratio_250_L_3_R_12.png","img/250/equaldotanddens/R/10_Ratio_250_L_4_R_16.png","img/900/equaldotanddens/R/12_Ratio_900_L_18_R_20.png","img/750/equaldotsize/R/3_Ratio_750_L_15_R_20.png","img/250/equaldotsize/L/2_Ratio_250_L_16_R_4.png","img/250/equaldotsize/R/10_Ratio_250_L_4_R_16.png","img/500/equaldotsize/L/11_Ratio_500_L_12_R_6.png","img/500/equaldotanddens/L/11_Ratio_500_L_12_R_6.png","img/900/equaldotsize/L/10_Ratio_900_L_20_R_18.png","img/250/randomdotsizeEA/R/6_Ratio_250_L_6_R_24.png","img/500/equaldotanddens/L/4_Ratio_500_L_18_R_9.png","img/500/equaldotanddens/R/1_Ratio_500_L_9_R_18.png","img/500/randomdotsizeEA/L/11_Ratio_500_L_12_R_6.png","img/900/equaldotanddens/L/4_Ratio_900_L_20_R_18.png","img/250/equaldotsize/R/12_Ratio_250_L_5_R_20.png","img/900/randomdotsizeEA/L/4_Ratio_900_L_20_R_18.png","img/250/randomdotsizeEA/R/6_Ratio_250_L_6_R_24.png","img/500/equaldotanddens/L/4_Ratio_500_L_18_R_9.png","img/250/randomdotsizeEA/L/2_Ratio_250_L_16_R_4.png","img/500/equaldotanddens/R/9_Ratio_500_L_2_R_4.png","img/750/randomdotsizeEA/L/9_Ratio_750_L_4_R_3.png","img/250/equaldotanddens/L/1_Ratio_250_L_8_R_2.png","img/750/equaldotsize/R/5_Ratio_750_L_15_R_20.png","img/900/randomdotsizeEA/R/13_Ratio_900_L_18_R_20.png","img/500/randomdotsizeEA/L/7_Ratio_500_L_10_R_5.png","img/900/equaldotanddens/L/4_Ratio_900_L_20_R_18.png","img/750/equaldotanddens/R/12_Ratio_750_L_3_R_4.png","img/250/equaldotanddens/L/14_Ratio_250_L_12_R_3.png","img/500/randomdotsizeEA/R/9_Ratio_500_L_2_R_4.png","img/500/randomdotsizeEA/L/4_Ratio_500_L_18_R_9.png","img/900/equaldotanddens/R/6_Ratio_900_L_9_R_10.png","img/500/equaldotsize/R/9_Ratio_500_L_2_R_4.png","img/500/equaldotsize/L/7_Ratio_500_L_10_R_5.png","img/900/equaldotsize/R/7_Ratio_900_L_9_R_10.png","img/750/randomdotsizeEA/L/10_Ratio_750_L_4_R_3.png","img/750/equaldotanddens/R/4_Ratio_750_L_15_R_20.png","img/500/randomdotsizeEA/R/12_Ratio_500_L_1_R_2.png","img/900/equaldotanddens/R/3_Ratio_900_L_9_R_10.png","img/750/equaldotsize/R/12_Ratio_750_L_3_R_4.png","img/750/equaldotanddens/L/14_Ratio_750_L_8_R_6.png","img/250/equaldotsize/L/15_Ratio_250_L_12_R_3.png","img/900/equaldotsize/L/10_Ratio_900_L_20_R_18.png","img/900/randomdotsizeEA/R/12_Ratio_900_L_18_R_20.png","img/900/equaldotanddens/L/4_Ratio_900_L_20_R_18.png","img/750/randomdotsizeEA/L/8_Ratio_750_L_4_R_3.png","img/750/equaldotsize/R/3_Ratio_750_L_15_R_20.png","img/750/randomdotsizeEA/L/6_Ratio_750_L_24_R_18.png","img/500/equaldotanddens/L/7_Ratio_500_L_10_R_5.png","img/750/randomdotsizeEA/R/2_Ratio_750_L_6_R_8.png","img/500/equaldotanddens/R/6_Ratio_500_L_9_R_18.png","img/250/equaldotanddens/L/5_Ratio_250_L_24_R_6.png","img/900/equaldotsize/R/11_Ratio_900_L_18_R_20.png","img/500/randomdotsizeEA/L/13_Ratio_500_L_12_R_6.png","img/900/equaldotsize/L/2_Ratio_900_L_20_R_18.png","img/750/equaldotsize/R/2_Ratio_750_L_6_R_8.png","img/750/equaldotsize/L/1_Ratio_750_L_20_R_15.png","img/500/equaldotsize/R/3_Ratio_500_L_10_R_20.png","img/500/randomdotsizeEA/L/13_Ratio_500_L_12_R_6.png","img/500/equaldotsize/R/12_Ratio_500_L_1_R_2.png","img/750/randomdotsizeEA/L/9_Ratio_750_L_4_R_3.png","img/250/equaldotanddens/L/3_Ratio_250_L_8_R_2.png","img/750/randomdotsizeEA/L/6_Ratio_750_L_24_R_18.png","img/250/randomdotsizeEA/L/3_Ratio_250_L_8_R_2.png","img/750/equaldotsize/R/2_Ratio_750_L_6_R_8.png","img/750/randomdotsizeEA/R/2_Ratio_750_L_6_R_8.png","img/900/randomdotsizeEA/L/4_Ratio_900_L_20_R_18.png","img/500/equaldotsize/R/9_Ratio_500_L_2_R_4.png","img/900/randomdotsizeEA/R/11_Ratio_900_L_18_R_20.png","img/250/randomdotsizeEA/L/14_Ratio_250_L_12_R_3.png","img/750/equaldotsize/L/13_Ratio_750_L_8_R_6.png","img/750/equaldotanddens/L/8_Ratio_750_L_4_R_3.png","img/900/equaldotsize/L/4_Ratio_900_L_20_R_18.png","img/750/equaldotanddens/L/10_Ratio_750_L_4_R_3.png","img/250/equaldotsize/L/7_Ratio_250_L_8_R_2.png","img/750/equaldotsize/L/9_Ratio_750_L_4_R_3.png","img/500/equaldotanddens/R/15_Ratio_500_L_1_R_2.png","img/500/randomdotsizeEA/L/7_Ratio_500_L_10_R_5.png","img/900/equaldotsize/L/2_Ratio_900_L_20_R_18.png","img/500/equaldotsize/R/14_Ratio_500_L_5_R_10.png","img/900/equaldotsize/L/8_Ratio_900_L_20_R_18.png","img/900/equaldotsize/R/6_Ratio_900_L_9_R_10.png","img/900/equaldotanddens/R/5_Ratio_900_L_9_R_10.png","img/500/randomdotsizeEA/L/4_Ratio_500_L_18_R_9.png","img/500/equaldotsize/R/2_Ratio_500_L_3_R_6.png","img/750/equaldotanddens/L/9_Ratio_750_L_4_R_3.png","img/750/randomdotsizeEA/R/12_Ratio_750_L_3_R_4.png","img/900/randomdotsizeEA/L/10_Ratio_900_L_20_R_18.png","img/900/randomdotsizeEA/L/4_Ratio_900_L_20_R_18.png"],"Rat0":[["12_Ratio_0_L_9_R_0.png","13_Ratio_0_L_6_R_0.png","5_Ratio_0_L_2_R_0.png","6_Ratio_0_L_4_R_0.png","8_Ratio_0_L_6_R_0.png"],["1_Ratio_0_L_0_R_17.png","10_Ratio_0_L_0_R_22.png","11_Ratio_0_L_0_R_1.png","14_Ratio_0_L_0_R_24.png","15_Ratio_0_L_0_R_4.png","2_Ratio_0_L_0_R_5.png","3_Ratio_0_L_0_R_17.png","4_Ratio_0_L_0_R_7.png","7_Ratio_0_L_0_R_19.png","9_Ratio_0_L_0_R_15.png"]],"Rat250":[["1_Ratio_250_L_8_R_2.png","14_Ratio_250_L_12_R_3.png","15_Ratio_250_L_12_R_3.png","2_Ratio_250_L_16_R_4.png","3_Ratio_250_L_8_R_2.png","5_Ratio_250_L_24_R_6.png","7_Ratio_250_L_8_R_2.png"],["10_Ratio_250_L_4_R_16.png","11_Ratio_250_L_3_R_12.png","12_Ratio_250_L_5_R_20.png","13_Ratio_250_L_2_R_8.png","4_Ratio_250_L_3_R_12.png","6_Ratio_250_L_6_R_24.png","8_Ratio_250_L_1_R_4.png","9_Ratio_250_L_3_R_12.png"]],"Rat500":[["10_Ratio_500_L_4_R_2.png","11_Ratio_500_L_12_R_6.png","13_Ratio_500_L_12_R_6.png","4_Ratio_500_L_18_R_9.png","5_Ratio_500_L_4_R_2.png","7_Ratio_500_L_10_R_5.png","8_Ratio_500_L_8_R_4.png"],["1_Ratio_500_L_9_R_18.png","12_Ratio_500_L_1_R_2.png","14_Ratio_500_L_5_R_10.png","15_Ratio_500_L_1_R_2.png","2_Ratio_500_L_3_R_6.png","3_Ratio_500_L_10_R_20.png","6_Ratio_500_L_9_R_18.png","9_Ratio_500_L_2_R_4.png"]],"Rat750":[["1_Ratio_750_L_20_R_15.png","10_Ratio_750_L_4_R_3.png","13_Ratio_750_L_8_R_6.png","14_Ratio_750_L_8_R_6.png","6_Ratio_750_L_24_R_18.png","8_Ratio_750_L_4_R_3.png","9_Ratio_750_L_4_R_3.png"],["11_Ratio_750_L_12_R_16.png","12_Ratio_750_L_3_R_4.png","15_Ratio_750_L_9_R_12.png","2_Ratio_750_L_6_R_8.png","3_Ratio_750_L_15_R_20.png","4_Ratio_750_L_15_R_20.png","5_Ratio_750_L_15_R_20.png","7_Ratio_750_L_3_R_4.png"]],"Rat900":[["1_Ratio_900_L_10_R_9.png","10_Ratio_900_L_20_R_18.png","2_Ratio_900_L_20_R_18.png","4_Ratio_900_L_20_R_18.png","8_Ratio_900_L_20_R_18.png"],["11_Ratio_900_L_18_R_20.png","12_Ratio_900_L_18_R_20.png","13_Ratio_900_L_18_R_20.png","14_Ratio_900_L_18_R_20.png","15_Ratio_900_L_9_R_10.png","3_Ratio_900_L_9_R_10.png","5_Ratio_900_L_9_R_10.png","6_Ratio_900_L_9_R_10.png","7_Ratio_900_L_9_R_10.png","9_Ratio_900_L_18_R_20.png"]],"Rat1000":[["10_Ratio_1000_L_16_R_16.png","11_Ratio_1000_L_6_R_6.png","12_Ratio_1000_L_14_R_14.png","13_Ratio_1000_L_20_R_20.png","15_Ratio_1000_L_15_R_15.png","2_Ratio_1000_L_17_R_17.png","4_Ratio_1000_L_9_R_9.png","5_Ratio_1000_L_6_R_6.png","6_Ratio_1000_L_19_R_19.png","8_Ratio_1000_L_14_R_14.png","9_Ratio_1000_L_25_R_25.png"],["1_Ratio_1000_L_1_R_1.png","14_Ratio_1000_L_17_R_17.png","3_Ratio_1000_L_17_R_17.png","7_Ratio_1000_L_6_R_6.png"]]}},{"start_time":1552056317766,"click_time":1552056320730,"finger_time":1552056318468,"fix_duration":495.9734221566762,"trial":1,"RT":702,"MT":2262,"sideResp":1,"stimulus":"img/900/randomdotsizeEA/R/14_Ratio_900_L_18_R_20.png","xmouse":[789,789,789,789,789,789,789,789,789,789,789,789,789,789,789,789,789,789,789,789,789,789,789,789,789,789,789,789,789,789,798,808,819,823,829,839,846,851,854,856,856,856,857,858,858,858,858,858,860,862,860,857,855,854,853,850,848,847,845,845,845,845,845,845,844,835,833,832,832,832,832,832,832,832,832,831,833,837,838,839,841,843,846,848,853,858,860,863,866,870,879,883,884,885,887,892,898,901,904,907,916,924,932,940,948,970,977,979,981,983,986,987,989,991,992,993,993,994,994,994,994,994,994,989,964,934,886,874,860,839,785,756,728,701,678,613,588,566,550,544,544,544,544,544,544,541,537,529,520],"ymouse":[500,500,500,500,500,500,500,500,500,500,500,500,500,500,500,500,500,500,500,500,500,500,500,500,500,500,500,500,500,501,497,488,479,474,466,450,436,424,418,409,404,403,400,394,382,344,323,302,287,272,249,242,234,227,216,200,195,193,192,191,191,191,191,190,190,190,189,188,188,188,188,188,188,188,188,188,187,184,184,184,183,183,181,181,180,178,177,177,176,174,172,171,170,170,170,167,166,165,164,162,159,156,153,149,147,137,134,133,132,132,131,130,129,129,128,127,127,127,127,127,127,127,126,125,125,125,128,129,129,129,129,129,128,125,119,111,108,105,102,100,100,100,100,100,98,88,84,80,77],"timestamp_mouse":[13,30,43,63,83,102,122,143,162,182,202,223,243,262,282,302,323,342,362,382,402,423,442,462,482,503,523,542,564,582,602,624,643,662,682,702,722,742,763,783,802,822,842,862,882,902,922,943,963,983,1002,1023,1042,1063,1082,1102,1124,1143,1163,1183,1203,1222,1244,1263,1283,1302,1323,1342,1362,1382,1403,1427,1443,1463,1483,1502,1523,1542,1563,1582,1602,1622,1643,1662,1683,1702,1722,1742,1762,1783,1802,1823,1843,1862,1883,1902,1923,1942,1962,1982,2002,2022,2043,2063,2083,2103,2123,2143,2162,2183,2203,2222,2242,2263,2282,2302,2323,2342,2362,2382,2402,2422,2443,2462,2483,2502,2523,2544,2562,2583,2602,2623,2642,2663,2683,2702,2723,2742,2763,2783,2802,2823,2842,2863,2883,2902,2923,2942,2963],"xSR":733.5,"ySR":464.1,"xT1":420.09999999999997,"yT1":0,"xT2":1046.8999999999999,"yT2":0,"toosoon":0,"cond_shown":"randomdotsizeEA","ratio_trial":900,"smaller_num":"18","larger_num":"20","correct_side":2,"subjID":"samuelrealpe27","gender":"0","age":"9","school":"4"},{"start_time":1552056322238,"click_time":1552056324149,"finger_time":1552056323310,"fix_duration":526.6171465011132,"trial":2,"RT":1072,"MT":839,"sideResp":2,"stimulus":"img/250/randomdotsizeEA/R/4_Ratio_250_L_3_R_12.png","xmouse":[772,772,772,772,772,772,772,772,772,772,772,772,772,772,772,772,772,772,772,772,772,772,772,772,772,772,772,772,772,772,772,772,772,772,772,772,772,772,772,773,774,779,783,787,792,797,809,814,817,818,820,824,831,838,847,856,882,895,911,925,942,968,986,997,1007,1015,1025,1031,1033,1036,1037,1040,1041,1042,1043,1046,1050,1051,1052,1052,1052,1052,1052,1052,1052,1052,1053,1053,1054,1057,1059,1066,1068,1070,1073,1074],"ymouse":[538,538,538,538,538,538,538,538,538,538,538,538,538,538,538,538,538,538,538,538,538,538,538,538,538,538,538,538,538,538,538,538,538,538,538,538,538,538,538,537,537,535,533,532,530,528,524,522,521,519,518,516,512,509,504,495,473,462,448,435,420,390,369,356,342,326,308,299,292,283,279,268,261,258,253,245,215,197,177,161,149,129,126,122,121,121,120,120,119,119,118,111,107,103,100,98],"timestamp_mouse":[21,37,52,71,91,111,130,151,172,191,211,230,251,272,290,311,331,352,371,392,411,430,451,472,491,511,531,551,572,592,610,631,652,670,691,712,730,752,770,791,811,830,852,872,890,911,931,950,972,991,1011,1030,1051,1072,1092,1112,1131,1150,1171,1191,1210,1231,1252,1271,1291,1311,1331,1352,1371,1392,1411,1430,1451,1471,1491,1511,1531,1551,1571,1591,1612,1631,1651,1671,1691,1712,1732,1752,1771,1792,1811,1831,1852,1872,1891,1911],"xSR":733.5,"ySR":464.1,"xT1":420.09999999999997,"yT1":0,"xT2":1046.8999999999999,"yT2":0,"toosoon":0,"cond_shown":"randomdotsizeEA","ratio_trial":250,"smaller_num":"3","larger_num":"12","correct_side":2,"subjID":"samuelrealpe27","gender":"0","age":"9","school":"4"},{"start_time":1552056326080,"click_time":1552056329569,"finger_time":1552056326969,"fix_duration":250,"trial":3,"RT":889,"MT":2600,"sideResp":2,"stimulus":"img/500/equaldotanddens/R/9_Ratio_500_L_2_R_4.png","xmouse":[812,812,812,812,812,812,812,812,812,812,812,812,812,811,811,811,811,811,811,811,811,811,811,811,811,811,811,811,811,811,811,811,811,811,811,811,811,811,811,811,811,814,821,828,853,870,886,902,919,957,984,997,1001,1002,1005,1007,1010,1018,1025,1039,1041,1044,1047,1049,1052,1053,1053,1053,1053,1053,1054,1054,1055,1055,1057,1057,1058,1058,1060,1061,1062,1063,1063,1063,1064,1065,1067,1067,1070,1075,1075,1075,1076,1077,1078,1078,1080,1080,1080,1082,1082,1083,1083,1083,1083,1083,1083,1083,1083,1083,1083,1083,1083,1083,1083,1083,1083,1083,1083,1083,1083,1083,1083,1083,1083,1083,1083,1083,1083,1083,1083,1083,1083,1083,1083,1083,1083,1083,1083,1083,1083,1083,1083,1083,1083,1083,1083,1083,1083,1083,1083,1083,1083,1083,1083,1083,1085,1085,1086,1089,1090,1090,1091,1091,1091,1091,1091,1091,1091,1091,1091,1091,1092,1093,1096],"ymouse":[517,517,517,517,517,517,517,517,517,517,517,517,517,517,517,517,517,517,517,517,517,517,517,517,517,517,517,517,517,517,517,517,517,517,517,517,517,517,517,517,517,516,513,510,497,488,481,474,461,425,396,382,374,370,363,359,348,331,310,263,244,226,215,208,200,199,198,198,198,198,198,197,197,197,196,196,195,192,191,187,185,184,184,184,182,175,170,169,163,155,154,153,151,147,142,140,138,136,132,121,116,113,113,113,113,113,113,113,113,113,113,113,113,113,113,113,113,113,112,109,108,108,108,108,108,108,108,108,108,108,108,108,108,108,108,108,108,108,108,108,108,108,108,108,108,108,108,108,108,108,108,108,108,108,108,108,107,107,107,104,103,103,102,102,102,102,102,102,102,102,102,102,101,100,98],"timestamp_mouse":[12,32,50,69,90,110,129,148,170,190,210,230,249,268,290,310,329,350,370,389,409,428,450,469,489,509,528,550,569,590,609,629,650,669,689,708,729,749,769,789,809,828,849,869,889,910,929,950,969,988,1008,1028,1049,1070,1089,1109,1129,1148,1169,1189,1209,1229,1250,1269,1290,1309,1329,1350,1369,1388,1409,1429,1449,1469,1489,1510,1530,1550,1569,1589,1610,1630,1649,1670,1688,1710,1730,1750,1770,1789,1809,1829,1849,1869,1889,1909,1929,1950,1970,1989,2010,2029,2049,2069,2089,2109,2128,2150,2170,2189,2210,2230,2248,2268,2290,2310,2330,2350,2370,2389,2410,2430,2450,2469,2489,2510,2530,2550,2570,2589,2609,2628,2649,2669,2689,2710,2729,2750,2770,2790,2809,2830,2849,2870,2888,2909,2929,2949,2968,2989,3010,3030,3050,3070,3090,3110,3130,3149,3169,3189,3210,3229,3250,3269,3289,3310,3329,3349,3369,3389,3410,3430,3449,3470,3489],"xSR":733.5,"ySR":464.1,"xT1":420.09999999999997,"yT1":0,"xT2":1046.8999999999999,"yT2":0,"toosoon":0,"cond_shown":"equaldotanddens","ratio_trial":500,"smaller_num":"2","larger_num":"4","correct_side":2,"subjID":"samuelrealpe27","gender":"0","age":"9","school":"4"},{"start_time":1552056331067,"click_time":1552056332869,"finger_time":1552056332028,"fix_duration":316.7018997744705,"trial":4,"RT":961,"MT":841,"sideResp":2,"stimulus":"img/250/randomdotsizeEA/R/6_Ratio_250_L_6_R_24.png","xmouse":[811,811,811,811,811,811,811,811,811,811,811,811,811,811,811,811,811,811,811,811,811,811,811,811,811,811,811,811,811,811,811,811,811,811,811,811,811,811,811,811,811,811,811,811,811,811,814,824,834,845,875,902,922,940,966,1004,1009,1009,1009,1009,1010,1010,1012,1013,1016,1020,1022,1024,1026,1028,1030,1030,1030,1030,1030,1030,1032,1033,1034,1035,1036,1037,1037,1039,1041,1042,1042,1042,1043,1044,1047],"ymouse":[535,535,535,535,535,535,535,535,535,535,535,535,535,535,535,535,535,535,535,535,535,535,535,535,535,535,535,535,535,535,534,533,532,532,532,532,532,532,531,531,529,529,529,529,529,528,524,512,502,489,451,415,387,361,325,239,208,181,155,155,84,67,54,44,38,34,33,33,33,33,33,33,33,33,33,33,33,33,33,33,34,34,34,34,34,34,34,34,34,34,34],"timestamp_mouse":[12,30,43,62,82,101,122,142,161,182,201,222,242,262,282,302,322,342,363,382,402,423,442,463,482,502,523,542,563,582,602,622,643,663,683,703,722,742,763,783,803,822,842,861,882,902,923,942,961,982,1001,1022,1042,1062,1082,1102,1123,1142,1163,1183,1201,1222,1242,1262,1282,1302,1323,1342,1363,1383,1402,1422,1442,1461,1481,1502,1522,1542,1563,1582,1602,1623,1642,1662,1683,1702,1722,1742,1762,1782,1802],"xSR":733.5,"ySR":464.1,"xT1":420.09999999999997,"yT1":0,"xT2":1046.8999999999999,"yT2":0,"toosoon":0,"cond_shown":"randomdotsizeEA","ratio_trial":250,"smaller_num":"6","larger_num":"24","correct_side":2,"subjID":"samuelrealpe27","gender":"0","age":"9","school":"4"},{"start_time":1552056334561,"click_time":1552056336509,"finger_time":1552056335310,"fix_duration":250,"trial":5,"RT":749,"MT":1199,"sideResp":1,"stimulus":"img/250/equaldotanddens/L/3_Ratio_250_L_8_R_2.png","xmouse":[791,791,791,791,791,791,791,791,792,792,792,792,792,792,792,792,792,792,792,792,792,792,792,792,792,792,792,792,792,792,792,792,792,792,790,778,767,754,740,704,691,683,677,673,666,663,651,635,613,549,511,470,436,418,403,401,401,401,401,401,401,401,401,401,401,401,401,401,401,401,401,401,401,402,403,403,403,404,404,405,406,407,409,411,416,418,419,419,419,419,419,419,419,419,419,420,421],"ymouse":[506,506,506,506,506,506,506,506,506,506,506,506,506,506,506,506,506,506,506,506,506,506,506,506,506,506,506,506,506,506,506,506,506,506,499,471,445,410,380,298,267,251,242,237,233,232,226,219,210,183,166,147,128,114,87,81,76,74,71,70,70,70,70,70,70,70,70,70,70,70,70,69,69,69,69,69,69,69,69,68,68,68,68,68,67,67,67,67,67,67,67,67,67,67,67,67,67],"timestamp_mouse":[28,48,68,88,108,127,147,169,188,209,229,249,268,289,308,327,348,368,388,409,427,449,469,489,508,529,548,569,589,608,628,648,668,687,708,729,749,768,789,807,828,848,869,889,908,928,948,968,989,1008,1029,1047,1067,1089,1108,1129,1148,1169,1187,1207,1227,1249,1269,1289,1308,1328,1348,1369,1389,1408,1428,1449,1469,1488,1509,1528,1549,1568,1589,1609,1629,1649,1668,1689,1708,1728,1748,1768,1788,1808,1829,1848,1869,1888,1908,1929,1947],"xSR":733.5,"ySR":464.1,"xT1":420.09999999999997,"yT1":0,"xT2":1046.8999999999999,"yT2":0,"toosoon":0,"cond_shown":"equaldotanddens","ratio_trial":250,"smaller_num":"2","larger_num":"8","correct_side":1,"subjID":"samuelrealpe27","gender":"0","age":"9","school":"4"},{"start_time":1552056338725,"click_time":1552056340469,"finger_time":1552056339788,"fix_duration":993.7338745456553,"trial":6,"RT":1063,"MT":681,"sideResp":1,"stimulus":"img/500/equaldotanddens/L/4_Ratio_500_L_18_R_9.png","xmouse":[784,784,784,784,784,784,784,784,784,784,784,784,784,784,784,784,784,784,784,784,784,784,784,784,784,784,784,784,784,784,784,784,784,784,784,784,785,788,790,792,795,797,801,801,802,804,805,805,805,805,805,805,802,794,777,757,737,699,680,660,642,642,642,642,642,642,642,642,642,642,642,642,642,642,642,642,642,642,642,642,642,642,642,642,642,642,642,468],"ymouse":[494,494,494,494,494,494,494,494,494,494,494,494,494,494,494,494,494,494,494,494,494,494,494,494,494,494,494,494,494,494,494,494,494,494,494,494,494,494,494,492,491,490,489,488,488,488,488,488,488,488,488,487,477,451,408,340,280,141,91,45,9,9,9,9,9,9,9,9,9,9,9,9,9,9,9,9,9,9,9,9,9,9,9,9,9,9,9,6],"timestamp_mouse":[20,37,44,64,84,104,123,144,165,185,204,224,243,264,283,305,324,345,363,385,404,424,444,465,485,505,524,544,564,585,605,625,643,665,685,705,724,744,764,784,804,824,843,863,885,905,924,944,965,985,1005,1025,1044,1063,1085,1105,1124,1144,1164,1184,1205,1225,1244,1265,1285,1304,1325,1345,1364,1385,1405,1424,1443,1465,1484,1505,1524,1545,1565,1583,1604,1625,1645,1664,1685,1704,1725,1744],"xSR":733.5,"ySR":464.1,"xT1":420.09999999999997,"yT1":0,"xT2":1046.8999999999999,"yT2":0,"toosoon":0,"cond_shown":"equaldotanddens","ratio_trial":500,"smaller_num":"9","larger_num":"18","correct_side":1,"subjID":"samuelrealpe27","gender":"0","age":"9","school":"4"},{"start_time":1552056342278,"click_time":1552056343749,"finger_time":1552056343049,"fix_duration":567.2691076316095,"trial":7,"RT":771,"MT":700,"sideResp":2,"stimulus":"img/900/randomdotsizeEA/R/12_Ratio_900_L_18_R_20.png","xmouse":[784,784,784,784,784,784,784,784,784,784,784,784,784,784,784,784,784,784,784,784,784,784,784,784,784,784,784,785,787,790,792,795,799,802,810,816,821,827,841,905,933,951,965,974,989,996,1004,1012,1019,1032,1038,1039,1042,1043,1046,1048,1052,1054,1058,1066,1069,1070,1071,1072,1074,1075,1076,1077,1077,1080,1082,1083,1086,1089],"ymouse":[498,498,498,498,498,498,498,498,498,498,498,498,498,498,498,498,498,498,498,498,498,498,499,499,499,499,499,499,499,499,498,497,495,494,490,488,485,482,471,415,387,369,355,346,322,310,297,282,269,243,228,222,217,214,207,201,193,183,172,155,150,148,147,146,142,140,137,135,134,128,122,117,108,98],"timestamp_mouse":[13,34,51,72,92,112,130,151,171,191,210,231,251,272,291,311,330,352,371,391,410,432,451,472,491,512,531,552,571,591,612,631,650,671,691,712,732,750,771,791,811,831,852,872,891,911,931,950,971,991,1012,1031,1050,1071,1092,1111,1131,1152,1171,1190,1211,1231,1250,1272,1291,1311,1331,1351,1371,1391,1411,1431,1452,1471],"xSR":733.5,"ySR":464.1,"xT1":420.09999999999997,"yT1":0,"xT2":1046.8999999999999,"yT2":0,"toosoon":0,"cond_shown":"randomdotsizeEA","ratio_trial":900,"smaller_num":"18","larger_num":"20","correct_side":2,"subjID":"samuelrealpe27","gender":"0","age":"9","school":"4"},{"start_time":1552056345933,"click_time":1552056347789,"finger_time":1552056347089,"fix_duration":703.6095308375476,"trial":8,"RT":1156,"MT":700,"sideResp":2,"stimulus":"img/750/randomdotsizeEA/R/7_Ratio_750_L_3_R_4.png","xmouse":[777,777,777,777,778,779,782,784,785,786,786,786,786,786,786,786,786,786,786,786,786,786,786,787,787,787,787,787,787,787,787,787,790,795,798,800,801,801,801,801,801,801,801,801,801,801,801,801,801,801,801,801,801,801,801,802,814,843,862,869,871,875,878,883,889,897,914,928,939,950,963,984,994,999,1003,1004,1004,1004,1004,1004,1004,1004,1004,1004,1004,1004,1004,1004,1004,1004,1004,1004,1048],"ymouse":[551,551,551,551,550,550,548,547,546,544,544,544,544,544,544,544,544,544,544,544,544,544,544,543,543,543,543,543,543,543,543,543,542,539,539,537,537,537,537,537,537,537,537,537,537,537,537,537,537,537,537,537,537,537,537,536,531,518,502,487,476,465,463,462,458,454,431,405,388,365,325,189,126,85,47,10,10,10,10,10,10,10,10,10,10,10,10,10,10,10,10,10,1],"timestamp_mouse":[17,36,56,76,95,116,136,156,176,197,216,236,256,275,297,316,335,357,377,397,416,436,456,476,496,516,535,557,576,597,615,637,657,676,696,715,736,757,777,796,817,836,856,877,897,917,937,956,977,997,1016,1037,1055,1076,1097,1116,1135,1156,1176,1197,1216,1235,1257,1276,1295,1316,1336,1357,1376,1397,1417,1436,1456,1477,1496,1516,1536,1556,1577,1596,1617,1636,1656,1676,1697,1716,1737,1757,1776,1796,1816,1836,1856],"xSR":733.5,"ySR":464.1,"xT1":420.09999999999997,"yT1":0,"xT2":1046.8999999999999,"yT2":0,"toosoon":0,"cond_shown":"randomdotsizeEA","ratio_trial":750,"smaller_num":"3","larger_num":"4","correct_side":2,"subjID":"samuelrealpe27","gender":"0","age":"9","school":"4"},{"start_time":1552056350899,"click_time":1552056352569,"finger_time":1552056351650,"fix_duration":1288.2209590996008,"trial":9,"RT":751,"MT":919,"sideResp":2,"stimulus":"img/750/equaldotanddens/L/14_Ratio_750_L_8_R_6.png","xmouse":[769,769,769,769,769,769,769,769,769,769,769,769,769,769,769,769,769,769,769,769,769,769,769,769,769,769,769,769,769,769,769,769,769,769,769,769,769,769,769,767,759,750,741,730,728,728,728,728,728,728,728,729,732,754,769,789,808,823,843,849,854,861,872,911,932,949,966,982,1004,1008,1012,1015,1016,1017,1017,1017,1017,1018,1021,1025,1030,1035,1042,1060],"ymouse":[507,507,507,507,507,507,507,507,507,507,507,507,507,507,507,507,507,507,507,507,507,507,507,507,507,507,507,507,507,507,507,507,507,507,507,506,492,443,326,236,179,152,130,110,108,108,108,108,108,108,108,108,108,109,112,115,118,118,117,116,115,113,110,100,94,90,86,81,75,74,73,72,72,71,71,71,71,71,70,69,68,66,64,64],"timestamp_mouse":[13,30,50,70,90,111,129,151,170,190,209,230,250,270,290,310,329,351,370,391,409,431,450,469,490,511,530,549,570,590,609,629,651,671,689,711,730,751,770,791,810,830,851,870,890,910,930,949,969,990,1010,1029,1051,1069,1090,1110,1129,1150,1170,1191,1210,1230,1251,1270,1291,1311,1331,1350,1369,1390,1410,1431,1451,1471,1490,1511,1530,1549,1569,1591,1609,1631,1651,1669],"xSR":733.5,"ySR":464.1,"xT1":420.09999999999997,"yT1":0,"xT2":1046.8999999999999,"yT2":0,"toosoon":0,"cond_shown":"equaldotanddens","ratio_trial":750,"smaller_num":"6","larger_num":"8","correct_side":1,"subjID":"samuelrealpe27","gender":"0","age":"9","school":"4"},{"start_time":1552056354602,"click_time":1552056355989,"finger_time":1552056355369,"fix_duration":250,"trial":10,"RT":767,"MT":620,"sideResp":2,"stimulus":"img/250/equaldotanddens/R/10_Ratio_250_L_4_R_16.png","xmouse":[743,743,743,743,743,743,743,743,743,743,743,743,744,748,748,748,748,748,748,748,748,748,748,748,748,748,748,748,748,748,748,748,748,755,766,782,799,815,845,858,875,891,913,972,989,999,1006,1012,1039,1061,1086,1109,1129,1159,1164,1166,1167,1169,1169,1169,1169,1169,1169,1169,1169,1168,1165,1161,1153,1146],"ymouse":[504,504,504,504,504,504,504,504,504,504,504,504,505,504,504,504,504,504,504,504,504,504,504,504,504,504,504,504,504,504,504,504,504,503,498,492,485,479,466,460,453,448,439,415,408,403,400,394,355,315,266,221,185,112,90,76,69,66,65,64,64,64,64,64,64,63,63,64,67,71],"timestamp_mouse":[12,29,48,67,87,108,127,147,166,187,206,227,247,267,288,307,328,347,367,387,408,427,448,467,487,507,527,548,567,588,608,628,647,667,687,708,727,747,767,787,807,827,847,867,887,907,927,947,966,987,1008,1027,1048,1067,1088,1107,1127,1147,1167,1187,1207,1227,1247,1266,1286,1308,1328,1348,1367,1387],"xSR":733.5,"ySR":464.1,"xT1":420.09999999999997,"yT1":0,"xT2":1046.8999999999999,"yT2":0,"toosoon":0,"cond_shown":"equaldotanddens","ratio_trial":250,"smaller_num":"4","larger_num":"16","correct_side":2,"subjID":"samuelrealpe27","gender":"0","age":"9","school":"4"},{"start_time":1552056359416,"click_time":1552056362029,"finger_time":1552056360409,"fix_duration":1346.0598275678437,"trial":11,"RT":993,"MT":1620,"sideResp":1,"stimulus":"img/250/equaldotanddens/L/14_Ratio_250_L_12_R_3.png","xmouse":[739,739,738,737,737,737,737,737,737,737,737,737,737,737,737,737,737,737,737,737,737,737,737,737,737,737,737,737,737,737,737,737,737,737,737,737,737,737,737,737,737,737,737,737,737,737,737,738,739,739,735,726,712,712,710,709,708,702,696,690,685,680,675,670,662,656,646,632,628,625,624,623,621,620,618,614,609,595,592,591,591,591,590,589,589,589,589,589,589,589,588,588,583,580,576,572,570,570,570,570,570,570,570,570,570,570,570,570,570,570,570,570,568,565,559,553,548,545,545,545,545,545,545,545,543,542,539,533,530,523,519],"ymouse":[503,503,503,504,504,504,504,504,504,504,504,504,504,504,504,504,504,504,504,504,504,504,504,504,504,504,504,504,504,504,504,504,504,504,504,504,504,504,504,504,504,504,504,504,504,504,503,493,478,460,438,420,389,387,383,379,373,353,338,323,310,301,285,265,242,223,202,181,178,177,176,175,173,172,171,170,167,158,157,157,157,157,157,157,157,157,157,157,157,157,157,157,144,133,124,115,110,108,108,108,108,108,108,108,108,108,108,108,108,108,108,108,106,98,91,85,80,78,78,78,78,78,78,78,78,78,79,81,81,75,72],"timestamp_mouse":[15,33,53,73,93,114,134,153,173,194,212,233,253,273,293,314,334,354,373,394,413,434,453,473,493,514,532,552,574,593,613,632,653,672,693,712,733,753,774,794,813,834,852,873,892,913,933,953,974,993,1014,1034,1053,1074,1093,1113,1133,1152,1173,1193,1214,1233,1253,1273,1293,1314,1334,1353,1373,1393,1413,1432,1453,1473,1493,1514,1534,1553,1573,1593,1614,1632,1653,1673,1694,1714,1733,1753,1774,1793,1813,1833,1852,1874,1893,1913,1934,1953,1973,1992,2013,2034,2053,2073,2093,2114,2133,2153,2174,2194,2213,2234,2254,2274,2293,2313,2333,2353,2372,2393,2413,2433,2453,2474,2493,2514,2533,2552,2574,2594,2613],"xSR":733.5,"ySR":464.1,"xT1":420.09999999999997,"yT1":0,"xT2":1046.8999999999999,"yT2":0,"toosoon":0,"cond_shown":"equaldotanddens","ratio_trial":250,"smaller_num":"3","larger_num":"12","correct_side":1,"subjID":"samuelrealpe27","gender":"0","age":"9","school":"4"},{"start_time":1552056364166,"click_time":1552056365750,"finger_time":1552056364869,"fix_duration":894.6498194163344,"trial":12,"RT":703,"MT":881,"sideResp":1,"stimulus":"img/250/equaldotsize/L/1_Ratio_250_L_8_R_2.png","xmouse":[774,774,774,774,774,774,774,777,778,778,778,778,778,778,778,778,778,778,778,778,778,779,779,780,781,784,785,786,788,789,794,797,802,809,822,871,885,891,894,896,899,900,900,900,900,900,886,868,839,788,663,634,620,617,617,617,617,617,617,617,617,617,617,617,617,616,616,616,616,616,616,616,616,616,616,616,604,587,553,519],"ymouse":[497,497,497,497,497,497,498,498,498,498,498,498,498,498,498,498,498,498,498,498,498,498,498,497,497,496,496,495,495,495,493,492,490,487,480,461,455,452,451,449,446,445,443,440,439,435,420,408,389,343,241,217,203,201,200,200,200,200,200,200,200,200,200,200,200,199,199,199,198,198,198,198,198,198,198,196,180,161,127,91],"timestamp_mouse":[13,30,43,62,84,103,123,143,163,184,203,222,243,263,283,304,323,343,363,383,402,423,443,463,483,503,523,543,563,583,603,623,643,664,683,703,723,743,762,784,803,823,842,863,883,903,923,943,963,982,1003,1022,1043,1063,1084,1103,1124,1143,1164,1182,1204,1224,1243,1263,1283,1303,1323,1343,1363,1382,1402,1423,1442,1464,1484,1503,1523,1544,1563,1584],"xSR":733.5,"ySR":464.1,"xT1":420.09999999999997,"yT1":0,"xT2":1046.8999999999999,"yT2":0,"toosoon":0,"cond_shown":"equaldotsize","ratio_trial":250,"smaller_num":"2","larger_num":"8","correct_side":1,"subjID":"samuelrealpe27","gender":"0","age":"9","school":"4"},{"start_time":1552056368095,"click_time":1552056369949,"finger_time":1552056368909,"fix_duration":805.8282057096777,"trial":13,"RT":814,"MT":1040,"sideResp":2,"stimulus":"img/500/equaldotsize/R/2_Ratio_500_L_3_R_6.png","xmouse":[789,789,789,789,789,789,789,789,789,789,789,789,789,789,789,789,789,789,789,789,789,789,789,789,789,789,789,789,789,789,789,789,789,789,789,789,791,794,818,831,842,852,862,887,901,921,944,963,1019,1033,1043,1049,1057,1071,1074,1077,1078,1080,1081,1081,1081,1081,1081,1081,1081,1081,1081,1081,1083,1083,1084,1084,1085,1085,1086,1087,1088,1089,1092,1094,1095,1096,1097,1097,1097,1097,1097,1097,1097,1097,1097,1097,1097],"ymouse":[503,503,503,503,503,503,503,503,503,503,503,503,503,503,503,503,503,503,503,503,503,503,503,503,503,503,503,503,503,503,503,503,503,503,503,503,503,503,496,491,488,484,482,473,467,459,434,412,343,324,311,303,292,270,263,251,242,231,218,215,214,213,211,206,202,198,193,188,176,172,170,169,167,164,162,158,154,151,141,136,133,128,124,117,115,113,111,111,108,106,104,102,99],"timestamp_mouse":[15,34,54,75,94,114,135,153,174,194,214,235,254,274,295,315,334,355,374,395,415,434,455,474,495,514,535,554,574,594,613,634,654,674,694,714,734,754,774,794,814,834,855,874,895,914,933,955,974,994,1015,1034,1054,1074,1093,1113,1134,1155,1174,1194,1215,1235,1253,1274,1293,1313,1334,1355,1374,1395,1414,1434,1455,1473,1494,1514,1534,1555,1574,1594,1615,1635,1655,1674,1694,1713,1734,1755,1773,1795,1813,1834,1854],"xSR":733.5,"ySR":464.1,"xT1":420.09999999999997,"yT1":0,"xT2":1046.8999999999999,"yT2":0,"toosoon":0,"cond_shown":"equaldotsize","ratio_trial":500,"smaller_num":"3","larger_num":"6","correct_side":2,"subjID":"samuelrealpe27","gender":"0","age":"9","school":"4"},{"start_time":1552056372181,"click_time":1552056374350,"finger_time":1552056372809,"fix_duration":1010.388625794252,"trial":14,"RT":628,"MT":1541,"sideResp":1,"stimulus":"img/250/equaldotsize/L/14_Ratio_250_L_12_R_3.png","xmouse":[781,781,781,781,781,781,781,781,781,781,781,781,781,781,781,781,781,781,781,781,781,781,781,781,781,781,781,781,781,781,781,781,781,765,744,738,732,729,727,719,711,701,688,676,646,618,600,577,558,530,526,526,526,526,526,528,528,528,528,527,527,526,526,526,526,526,526,526,526,525,525,525,523,523,521,519,519,519,519,519,519,519,519,519,519,519,519,518,518,518,518,518,518,518,518,518,518,518,518,518,518,518,518,517,517,517,517,517,517],"ymouse":[472,472,472,472,472,472,472,472,472,472,472,472,472,472,472,472,472,472,472,472,472,472,472,472,472,472,472,472,472,472,472,460,438,376,314,303,294,289,285,270,257,245,232,222,210,205,200,193,183,166,164,164,164,164,153,138,123,111,103,101,101,100,100,100,100,100,100,100,100,100,100,100,100,100,100,100,100,100,100,100,100,100,100,100,100,100,100,100,100,100,100,100,100,100,100,100,100,100,100,100,100,100,100,100,100,100,100,100,99],"timestamp_mouse":[12,30,47,69,89,108,129,148,167,187,208,229,247,268,288,308,327,349,368,388,409,429,449,468,488,507,527,548,568,589,609,628,649,668,688,708,727,749,768,788,808,828,849,869,888,908,928,949,968,988,1009,1028,1047,1069,1087,1108,1128,1148,1169,1188,1208,1228,1249,1268,1288,1307,1329,1348,1369,1387,1409,1427,1448,1469,1489,1508,1529,1549,1568,1588,1607,1627,1648,1669,1688,1708,1728,1748,1768,1789,1807,1828,1849,1868,1889,1909,1929,1949,1968,1988,2008,2027,2047,2069,2089,2108,2128,2148,2169],"xSR":733.5,"ySR":464.1,"xT1":420.09999999999997,"yT1":0,"xT2":1046.8999999999999,"yT2":0,"toosoon":0,"cond_shown":"equaldotsize","ratio_trial":250,"smaller_num":"3","larger_num":"12","correct_side":1,"subjID":"samuelrealpe27","gender":"0","age":"9","school":"4"},{"start_time":1552056375401,"click_time":1552056378349,"finger_time":1552056377150,"fix_duration":250,"trial":15,"RT":1749,"MT":1199,"sideResp":2,"stimulus":"img/500/randomdotsizeEA/L/11_Ratio_500_L_12_R_6.png","xmouse":[829,829,829,829,829,829,829,829,828,828,827,827,827,827,827,827,827,827,827,827,827,827,827,827,827,827,827,827,827,827,827,827,827,827,827,827,827,827,827,827,827,827,827,827,827,827,827,827,827,827,827,827,827,827,827,827,827,827,825,814,801,791,788,788,788,787,787,786,786,786,786,786,786,786,786,786,786,786,786,786,786,786,786,788,799,816,833,850,858,859,859,859,859,859,865,878,892,914,954,975,995,1018,1043,1102,1127,1135,1138,1138,1138,1138,1138,1138,1138,1135,1123,1110,1095,1089,1088,1088,1088,1088,1088,1088,1085,1082,1081,1081,1081,1081,1081,1081,1081,1081,1081,1080,1082,1085,1089,1089,1089,1089,1089,1091,1093,1097,1101,1104],"ymouse":[554,554,554,554,554,554,553,550,543,539,536,534,533,532,531,531,531,531,526,523,522,521,521,521,521,521,521,521,521,521,521,521,521,521,521,521,521,521,521,521,521,521,521,521,521,521,521,521,521,521,521,521,521,521,521,521,521,521,520,523,525,526,526,526,526,526,526,526,526,526,526,526,526,526,526,526,526,526,526,526,526,526,526,526,524,518,510,495,463,459,457,457,457,456,444,425,408,389,358,343,328,311,293,242,219,207,199,195,195,195,195,195,195,191,180,167,154,148,146,146,146,146,146,146,145,145,145,145,145,145,145,145,145,145,145,145,141,136,128,125,123,120,118,114,112,107,103,99],"timestamp_mouse":[13,30,49,68,87,107,127,148,167,187,208,228,248,267,288,308,327,348,368,388,408,428,448,468,488,508,529,548,568,588,607,628,648,668,688,709,728,748,768,788,808,828,848,868,888,909,927,948,967,988,1009,1029,1049,1068,1087,1109,1129,1148,1168,1187,1209,1229,1247,1268,1288,1308,1328,1347,1369,1388,1407,1428,1449,1469,1489,1509,1527,1549,1567,1589,1609,1628,1649,1667,1689,1708,1729,1749,1768,1788,1808,1829,1849,1868,1889,1907,1928,1948,1967,1988,2008,2029,2047,2067,2088,2108,2129,2148,2168,2189,2209,2228,2249,2268,2288,2309,2327,2347,2368,2388,2409,2428,2448,2468,2488,2509,2528,2550,2567,2588,2609,2628,2647,2669,2688,2709,2727,2747,2768,2788,2808,2829,2849,2868,2888,2908,2929,2948],"xSR":733.5,"ySR":464.1,"xT1":420.09999999999997,"yT1":0,"xT2":1046.8999999999999,"yT2":0,"toosoon":0,"cond_shown":"randomdotsizeEA","ratio_trial":500,"smaller_num":"6","larger_num":"12","correct_side":1,"subjID":"samuelrealpe27","gender":"0","age":"9","school":"4"},{"start_time":1552056379953,"click_time":1552056381269,"finger_time":1552056380608,"fix_duration":482.1088083816929,"trial":16,"RT":655,"MT":661,"sideResp":1,"stimulus":"img/750/equaldotanddens/L/1_Ratio_750_L_20_R_15.png","xmouse":[795,795,795,795,795,795,795,795,795,795,795,795,795,795,795,795,795,795,795,795,795,795,795,795,795,795,795,795,795,798,799,796,786,768,751,725,717,711,705,697,673,661,646,634,621,588,565,555,546,541,539,539,539,539,539,539,539,539,539,539,538,536,533,530,525,517],"ymouse":[536,536,536,536,536,536,536,536,536,536,536,536,536,536,536,536,536,536,536,536,536,536,536,536,536,536,536,536,536,531,503,472,434,394,356,278,248,230,214,197,160,147,134,124,114,97,84,74,64,56,50,50,50,50,50,50,50,50,50,49,49,49,49,49,50,51],"timestamp_mouse":[17,36,56,76,95,116,136,155,176,196,216,235,256,275,296,316,335,356,377,396,416,436,455,477,496,516,536,555,575,596,616,637,655,675,697,716,736,757,777,796,816,837,856,877,897,916,937,955,976,996,1016,1036,1055,1077,1097,1116,1136,1156,1177,1195,1215,1235,1257,1277,1297,1315],"xSR":733.5,"ySR":464.1,"xT1":420.09999999999997,"yT1":0,"xT2":1046.8999999999999,"yT2":0,"toosoon":0,"cond_shown":"equaldotanddens","ratio_trial":750,"smaller_num":"15","larger_num":"20","correct_side":1,"subjID":"samuelrealpe27","gender":"0","age":"9","school":"4"},{"start_time":1552056384308,"click_time":1552056385410,"finger_time":1552056384969,"fix_duration":1336.3090023015102,"trial":17,"RT":661,"MT":441,"sideResp":2,"stimulus":"img/250/equaldotsize/R/12_Ratio_250_L_5_R_20.png","xmouse":[803,803,803,803,803,803,803,803,803,803,803,803,803,803,803,803,803,803,803,803,803,803,803,803,803,803,803,803,803,803,804,809,819,841,854,870,885,908,972,999,1024,1041,1055,1073,1083,1093,1104,1117,1136,1143,1146,1148,1148,1148,1147,1146],"ymouse":[535,535,535,535,535,535,535,535,535,535,535,535,535,535,535,535,535,535,535,535,535,535,535,535,535,535,535,535,535,535,534,532,527,516,511,506,500,487,437,414,393,379,366,337,320,302,282,259,205,180,158,137,120,100,97,97],"timestamp_mouse":[10,21,41,61,82,101,122,142,162,181,202,221,242,262,282,301,321,340,360,382,401,422,440,462,481,502,521,541,561,581,600,622,641,661,682,701,720,740,760,781,802,821,841,860,881,901,922,941,961,980,1001,1021,1041,1061,1081,1102],"xSR":733.5,"ySR":464.1,"xT1":420.09999999999997,"yT1":0,"xT2":1046.8999999999999,"yT2":0,"toosoon":0,"cond_shown":"equaldotsize","ratio_trial":250,"smaller_num":"5","larger_num":"20","correct_side":2,"subjID":"samuelrealpe27","gender":"0","age":"9","school":"4"},{"start_time":1552056387261,"click_time":1552056388190,"finger_time":1552056387950,"fix_duration":250,"trial":18,"RT":689,"MT":240,"sideResp":1,"stimulus":"img/750/equaldotsize/R/15_Ratio_750_L_9_R_12.png","xmouse":[768,767,767,766,766,766,766,766,766,766,766,766,766,766,766,766,766,766,766,766,766,766,766,766,766,766,766,766,766,766,766,766,766,765,761,740,730,724,717,710,689,679,667,658,644,578,515],"ymouse":[483,483,483,484,484,484,484,484,484,484,484,484,484,484,484,484,484,484,484,484,484,484,484,484,484,484,484,484,484,484,484,484,481,475,455,375,334,300,273,251,201,185,172,162,153,117,84],"timestamp_mouse":[14,35,47,69,87,108,128,149,168,189,207,228,249,268,288,308,328,348,369,388,408,427,447,467,487,507,527,549,569,589,609,628,648,668,689,708,729,749,768,788,808,829,848,868,888,908,929],"xSR":733.5,"ySR":464.1,"xT1":420.09999999999997,"yT1":0,"xT2":1046.8999999999999,"yT2":0,"toosoon":0,"cond_shown":"equaldotsize","ratio_trial":750,"smaller_num":"9","larger_num":"12","correct_side":2,"subjID":"samuelrealpe27","gender":"0","age":"9","school":"4"},{"start_time":1552056390041,"click_time":1552056391189,"finger_time":1552056390470,"fix_duration":250,"trial":19,"RT":429,"MT":719,"sideResp":2,"stimulus":"img/900/equaldotanddens/L/10_Ratio_900_L_20_R_18.png","xmouse":[810,809,809,809,809,809,809,809,809,809,809,809,809,809,809,809,809,809,813,815,823,847,871,885,898,913,936,945,955,962,969,980,991,999,1006,1018,1047,1060,1069,1072,1072,1070,1070,1074,1077,1079,1080,1080,1080,1080,1080,1080,1080,1080,1080,1085,1101,1103],"ymouse":[561,561,561,561,561,561,561,561,561,561,561,561,561,561,561,561,561,561,560,560,556,546,538,532,526,520,510,506,502,498,493,485,477,465,451,432,383,362,342,323,306,279,265,253,240,231,226,225,225,225,225,225,225,224,219,202,101,76],"timestamp_mouse":[21,33,48,68,87,109,128,149,169,189,209,229,249,268,288,308,329,347,369,388,408,429,448,468,487,507,527,548,568,589,609,628,648,667,687,709,728,749,768,789,808,828,847,868,887,909,929,949,968,989,1009,1029,1047,1067,1089,1109,1128,1148],"xSR":733.5,"ySR":464.1,"xT1":420.09999999999997,"yT1":0,"xT2":1046.8999999999999,"yT2":0,"toosoon":0,"cond_shown":"equaldotanddens","ratio_trial":900,"smaller_num":"18","larger_num":"20","correct_side":1,"subjID":"samuelrealpe27","gender":"0","age":"9","school":"4"},{"start_time":1552056393399,"click_time":1552056395289,"finger_time":1552056394309,"fix_duration":1049.5036091182212,"trial":20,"RT":910,"MT":980,"sideResp":2,"stimulus":"img/250/equaldotsize/R/4_Ratio_250_L_3_R_12.png","xmouse":[794,794,794,794,794,794,794,794,794,794,794,794,794,794,794,794,794,794,794,794,794,794,794,794,794,794,794,794,794,794,794,794,794,794,794,794,794,794,794,794,794,796,799,818,828,839,850,859,907,958,1019,1084,1127,1160,1163,1165,1171,1177,1186,1188,1189,1189,1189,1186,1182,1178,1173,1170,1166,1164,1162,1161,1159,1154,1153,1151,1147,1143,1132,1130,1130,1130,1130,1130,1130,1130,1130,1130,1130,1130,1130,1130,1130,1131,1135],"ymouse":[552,552,552,552,552,552,552,552,552,552,552,552,552,552,552,552,552,552,552,552,552,552,552,552,552,552,552,552,552,552,552,552,552,552,552,552,552,552,552,552,552,550,550,544,541,537,534,531,504,475,427,379,355,331,328,323,314,303,280,265,249,232,208,150,138,125,114,108,104,103,103,103,103,103,103,104,104,105,107,107,107,107,107,107,107,107,107,107,107,107,107,107,107,103,98],"timestamp_mouse":[12,30,51,71,89,111,131,149,170,190,209,230,250,270,289,310,329,351,370,390,411,431,450,469,491,511,529,550,571,589,611,631,650,670,691,710,730,750,771,791,810,829,851,870,890,910,930,951,969,991,1010,1030,1050,1070,1090,1110,1131,1149,1170,1190,1211,1231,1249,1270,1291,1309,1331,1351,1370,1390,1410,1430,1450,1470,1490,1510,1530,1551,1569,1591,1611,1631,1651,1671,1690,1710,1730,1750,1769,1790,1811,1830,1850,1869,1890],"xSR":733.5,"ySR":464.1,"xT1":420.09999999999997,"yT1":0,"xT2":1046.8999999999999,"yT2":0,"toosoon":0,"cond_shown":"equaldotsize","ratio_trial":250,"smaller_num":"3","larger_num":"12","correct_side":2,"subjID":"samuelrealpe27","gender":"0","age":"9","school":"4"},{"start_time":1552056398735,"click_time":1552056401310,"finger_time":1552056400809,"fix_duration":664.9653556637729,"trial":21,"RT":2074,"MT":501,"sideResp":1,"stimulus":"img/750/equaldotanddens/L/8_Ratio_750_L_4_R_3.png","xmouse":[769,769,769,769,769,769,769,769,769,769,769,769,769,769,769,769,769,769,769,769,769,769,769,769,769,769,769,769,769,769,769,769,769,769,769,769,769,769,769,769,769,769,769,769,769,769,769,769,769,769,769,769,769,769,769,769,770,770,770,770,770,770,770,770,770,770,770,771,771,771,771,771,771,771,771,771,771,771,771,771,771,771,771,771,771,771,771,771,771,771,773,774,776,776,776,776,776,776,776,776,778,786,790,795,797,798,795,782,772,764,758,744,735,728,716,691,691,691,691,691,691,691,691,691,691,691,691,691,506],"ymouse":[508,508,508,508,508,508,508,508,508,508,508,508,508,508,508,508,508,508,508,508,508,508,508,508,508,508,508,508,508,508,508,508,508,508,508,508,508,508,508,508,508,508,508,508,508,508,508,508,508,508,508,508,508,508,508,508,508,508,508,508,508,508,508,508,508,508,508,508,508,508,508,508,508,508,508,508,508,508,508,508,508,508,508,508,508,508,508,508,508,508,507,506,505,505,505,505,505,505,505,505,504,491,482,460,441,420,355,281,239,204,180,136,114,94,65,8,8,8,8,8,8,8,8,8,8,8,8,8,3],"timestamp_mouse":[14,34,55,74,94,113,135,154,173,193,213,234,254,275,294,314,333,354,375,395,415,433,454,473,495,514,534,553,573,595,615,633,655,673,695,714,734,753,775,795,814,835,853,874,895,915,934,953,975,995,1015,1033,1055,1075,1094,1114,1135,1154,1173,1195,1215,1234,1255,1273,1295,1315,1335,1353,1374,1394,1414,1434,1454,1475,1495,1515,1533,1555,1573,1594,1614,1634,1654,1675,1695,1713,1733,1753,1775,1795,1814,1834,1854,1873,1893,1914,1934,1954,1973,1993,2015,2034,2055,2074,2094,2114,2135,2154,2173,2194,2214,2234,2255,2274,2294,2314,2334,2354,2374,2393,2413,2434,2454,2474,2495,2514,2534,2555,2575],"xSR":733.5,"ySR":464.1,"xT1":420.09999999999997,"yT1":0,"xT2":1046.8999999999999,"yT2":0,"toosoon":0,"cond_shown":"equaldotanddens","ratio_trial":750,"smaller_num":"3","larger_num":"4","correct_side":1,"subjID":"samuelrealpe27","gender":"0","age":"9","school":"4"},{"start_time":1552056402924,"click_time":1552056406269,"finger_time":1552056404569,"fix_duration":291.57774776679946,"trial":22,"RT":1645,"MT":1700,"sideResp":1,"stimulus":"img/250/equaldotanddens/L/3_Ratio_250_L_8_R_2.png","xmouse":[754,754,754,754,754,754,754,754,754,754,754,754,754,754,754,754,754,754,754,754,754,755,755,755,755,755,755,755,755,755,755,755,755,755,755,755,755,755,755,755,755,755,755,755,755,755,755,755,755,755,756,758,767,776,784,793,798,804,804,804,804,805,807,809,810,812,813,814,814,814,814,814,814,814,814,814,814,814,814,816,819,821,836,855,885,931,982,1074,1115,1133,1143,1147,1148,1149,1149,1150,1150,1150,1150,1150,1150,1150,1150,1149,1137,1117,1088,991,970,951,937,927,923,923,923,918,898,851,835,827,816,810,803,797,792,785,773,726,708,694,686,682,681,680,672,656,635,617,617,617,617,617,617,617,617,617,617,617,611,604,595,587,567,558,554,551,550,550,550,550,550,549,548,547,543,538,531,520],"ymouse":[502,502,502,502,502,502,502,502,502,502,502,502,502,502,502,502,502,502,502,502,502,501,501,501,501,501,501,501,501,501,501,501,501,501,501,501,501,501,501,501,501,501,501,501,501,501,501,501,501,501,500,500,497,494,491,487,485,482,482,482,482,482,481,481,480,480,479,479,479,479,479,479,479,479,479,479,479,479,479,478,477,476,470,463,449,429,407,357,327,299,278,265,252,250,248,243,235,222,222,222,222,222,222,221,224,233,245,281,290,295,299,302,303,303,303,292,258,192,180,176,173,173,171,171,171,171,172,178,182,183,184,185,185,186,184,171,158,146,146,146,146,146,146,146,146,146,146,146,136,123,111,102,87,82,79,77,77,77,77,77,77,77,77,77,77,78,81,82],"timestamp_mouse":[13,26,45,66,85,106,124,145,166,184,206,224,246,265,285,306,325,345,365,385,405,425,445,465,484,505,525,545,565,585,605,626,644,664,686,705,725,745,765,785,806,825,845,864,884,905,924,944,966,986,1005,1024,1044,1066,1086,1105,1126,1144,1165,1186,1205,1225,1245,1265,1286,1305,1324,1346,1365,1384,1406,1426,1444,1465,1486,1506,1525,1545,1566,1586,1605,1625,1645,1665,1685,1705,1725,1745,1765,1785,1806,1825,1845,1866,1884,1905,1926,1945,1965,1986,2005,2025,2045,2064,2085,2106,2125,2145,2166,2184,2205,2224,2244,2266,2285,2305,2326,2345,2365,2385,2405,2426,2445,2465,2486,2506,2526,2545,2566,2586,2605,2626,2645,2666,2685,2705,2726,2745,2765,2785,2804,2824,2844,2864,2884,2904,2926,2945,2965,2986,3005,3026,3044,3065,3086,3105,3126,3144,3166,3186,3204,3225,3244,3265,3286,3306,3325,3344],"xSR":733.5,"ySR":464.1,"xT1":420.09999999999997,"yT1":0,"xT2":1046.8999999999999,"yT2":0,"toosoon":0,"cond_shown":"equaldotanddens","ratio_trial":250,"smaller_num":"2","larger_num":"8","correct_side":1,"subjID":"samuelrealpe27","gender":"0","age":"9","school":"4"},{"start_time":1552056408801,"click_time":1552056412470,"finger_time":1552056411110,"fix_duration":250,"trial":23,"RT":2309,"MT":1360,"sideResp":2,"stimulus":"img/500/equaldotsize/L/10_Ratio_500_L_4_R_2.png","xmouse":[764,765,766,767,768,768,770,771,771,771,771,771,771,771,771,771,771,771,771,772,773,774,774,775,776,776,776,776,776,776,776,776,776,776,776,777,778,778,778,779,779,779,779,779,779,779,779,779,779,779,779,779,779,779,779,779,779,779,779,779,779,779,779,779,779,779,779,779,779,779,779,779,779,779,779,779,779,781,781,781,782,782,782,782,782,782,782,782,782,782,782,782,782,782,782,782,782,782,782,782,782,782,782,782,782,782,782,782,782,785,791,798,807,823,829,838,847,855,870,875,881,886,892,902,909,915,922,931,947,953,958,964,968,982,990,1000,1008,1015,1023,1026,1028,1032,1033,1036,1038,1038,1039,1040,1043,1045,1047,1050,1051,1055,1057,1058,1062,1065,1071,1074,1076,1080,1084,1093,1095,1096,1097,1098,1099,1099,1101,1101,1102,1104,1104,1105,1105,1106,1107,1108,1108,1109,1110,1112],"ymouse":[531,531,531,530,530,530,529,529,528,528,528,528,528,528,528,528,528,528,528,528,528,528,527,527,527,527,527,527,527,527,527,527,527,527,527,526,526,526,526,526,526,526,526,526,526,526,526,526,526,526,526,526,526,526,526,526,526,526,526,526,526,526,526,526,526,526,526,526,526,526,526,526,526,526,526,526,526,525,525,525,524,524,524,524,524,524,524,524,524,524,524,524,524,524,524,524,524,524,524,524,524,524,524,524,524,524,524,524,524,523,521,517,514,507,504,500,495,489,481,478,475,472,469,463,459,453,445,438,416,399,386,373,360,332,322,308,295,284,272,266,261,256,252,245,240,239,238,235,230,225,219,213,207,192,187,181,173,166,154,148,144,140,137,129,128,127,126,124,123,122,119,119,117,115,115,113,112,111,108,106,105,104,102,98],"timestamp_mouse":[12,31,49,67,88,109,127,148,168,188,209,227,248,267,287,309,328,349,367,388,408,428,448,468,488,509,528,547,568,588,609,629,647,668,687,709,729,748,768,788,808,829,848,868,888,909,927,949,967,988,1008,1029,1047,1068,1087,1108,1127,1147,1167,1187,1208,1228,1247,1267,1287,1307,1327,1347,1368,1388,1409,1428,1448,1468,1488,1507,1527,1548,1568,1588,1608,1628,1647,1668,1688,1707,1729,1747,1768,1789,1807,1828,1847,1868,1888,1909,1927,1948,1967,1988,2009,2029,2048,2068,2088,2109,2128,2147,2168,2189,2208,2227,2248,2268,2288,2309,2328,2348,2368,2388,2408,2428,2449,2467,2488,2508,2528,2549,2568,2588,2608,2629,2648,2668,2689,2708,2728,2748,2767,2788,2809,2828,2848,2868,2887,2908,2929,2948,2967,2988,3008,3028,3048,3067,3088,3108,3128,3149,3167,3188,3208,3228,3248,3267,3289,3308,3329,3349,3369,3389,3407,3429,3449,3467,3488,3508,3529,3549,3567,3588,3609,3628,3649,3669],"xSR":733.5,"ySR":464.1,"xT1":420.09999999999997,"yT1":0,"xT2":1046.8999999999999,"yT2":0,"toosoon":0,"cond_shown":"equaldotsize","ratio_trial":500,"smaller_num":"2","larger_num":"4","correct_side":1,"subjID":"samuelrealpe27","gender":"0","age":"9","school":"4"},{"start_time":1552056414519,"click_time":1552056416108,"finger_time":1552056415109,"fix_duration":768.7842568266396,"trial":24,"RT":590,"MT":999,"sideResp":1,"stimulus":"img/250/equaldotsize/L/3_Ratio_250_L_8_R_2.png","xmouse":[792,792,792,792,792,792,792,792,792,792,792,792,792,792,792,792,792,792,792,792,792,792,792,792,792,792,792,792,791,774,712,639,598,598,598,598,598,598,598,598,598,598,598,598,598,598,597,589,573,551,536,529,529,529,529,529,529,529,528,528,528,529,531,531,531,531,531,531,531,531,531,529,525,524,523,523,523,522,521,520],"ymouse":[483,483,483,483,483,483,483,483,483,483,483,483,483,483,483,483,483,483,483,483,483,483,483,483,483,483,483,483,480,451,341,246,197,197,197,197,197,197,196,196,196,196,196,196,196,196,196,196,191,183,175,170,169,169,169,169,169,169,169,168,164,161,157,154,152,152,151,148,145,142,136,128,113,108,104,103,101,95,92,90],"timestamp_mouse":[12,30,49,71,91,109,129,150,170,189,210,231,250,270,291,311,331,350,370,391,411,429,450,470,491,509,530,550,570,590,609,630,649,670,690,710,731,750,769,791,811,831,850,870,889,911,930,949,970,991,1011,1030,1050,1071,1091,1110,1130,1151,1170,1191,1211,1230,1249,1269,1289,1310,1331,1350,1370,1391,1410,1431,1449,1470,1490,1510,1530,1550,1570,1589],"xSR":733.5,"ySR":464.1,"xT1":420.09999999999997,"yT1":0,"xT2":1046.8999999999999,"yT2":0,"toosoon":0,"cond_shown":"equaldotsize","ratio_trial":250,"smaller_num":"2","larger_num":"8","correct_side":1,"subjID":"samuelrealpe27","gender":"0","age":"9","school":"4"},{"start_time":1552056418404,"click_time":1552056420209,"finger_time":1552056419068,"fix_duration":1293.8392169846384,"trial":25,"RT":664,"MT":1141,"sideResp":2,"stimulus":"img/250/randomdotsizeEA/R/4_Ratio_250_L_3_R_12.png","xmouse":[782,782,782,782,782,782,782,782,782,782,782,782,782,782,782,782,782,782,782,782,782,782,782,786,791,796,798,803,812,816,820,826,831,845,857,867,879,890,913,927,940,954,964,973,978,982,986,990,1000,1006,1016,1028,1041,1058,1065,1068,1071,1074,1077,1077,1080,1082,1084,1090,1095,1097,1099,1099,1099,1099,1099,1099,1099,1099,1099,1099,1101,1104,1106,1107,1108,1108,1108,1108,1108,1108,1108,1108,1110,1110,1110],"ymouse":[529,529,529,529,529,529,529,529,529,529,529,529,529,529,529,529,529,529,529,529,529,529,529,528,527,524,524,521,518,516,515,511,509,504,499,494,485,476,458,446,436,425,416,410,407,406,405,401,392,385,370,351,332,309,300,295,290,287,283,283,282,280,275,257,236,221,208,200,197,197,197,197,197,197,197,197,192,177,161,154,148,144,141,135,132,132,131,130,118,107,87],"timestamp_mouse":[12,31,46,64,85,105,126,145,165,185,206,225,245,265,285,305,324,345,365,384,405,426,446,465,485,505,526,545,565,584,605,625,645,664,685,705,725,746,765,785,806,826,845,865,884,904,925,946,964,986,1006,1025,1045,1065,1085,1105,1126,1146,1164,1185,1206,1224,1247,1265,1286,1305,1325,1346,1365,1386,1406,1425,1446,1465,1485,1506,1524,1545,1564,1584,1605,1625,1645,1665,1685,1705,1726,1745,1764,1785,1805],"xSR":733.5,"ySR":464.1,"xT1":420.09999999999997,"yT1":0,"xT2":1046.8999999999999,"yT2":0,"toosoon":0,"cond_shown":"randomdotsizeEA","ratio_trial":250,"smaller_num":"3","larger_num":"12","correct_side":2,"subjID":"samuelrealpe27","gender":"0","age":"9","school":"4"},{"start_time":1552056422855,"click_time":1552056424629,"finger_time":1552056423590,"fix_duration":1342.0761341042917,"trial":26,"RT":735,"MT":1039,"sideResp":2,"stimulus":"img/750/equaldotanddens/R/15_Ratio_750_L_9_R_12.png","xmouse":[794,794,794,794,794,794,794,794,794,794,794,794,794,794,794,794,794,794,795,795,796,796,797,797,797,797,798,798,799,800,801,802,803,808,812,827,837,846,857,869,897,916,928,938,950,972,987,1004,1022,1040,1068,1073,1076,1080,1084,1090,1094,1099,1101,1103,1104,1106,1107,1108,1110,1112,1114,1114,1115,1117,1118,1119,1120,1120,1120,1121,1121,1122,1122,1122,1122,1122,1122,1122,1123,1124,1125,1126,1126],"ymouse":[542,542,542,542,542,542,542,542,542,542,542,542,542,542,542,542,542,542,541,541,540,540,539,539,538,538,536,536,534,534,532,531,530,527,525,513,506,498,489,477,445,423,410,398,385,358,342,324,309,298,275,268,263,257,252,238,229,218,209,201,190,184,181,177,174,167,163,160,155,152,143,138,133,131,127,120,118,116,114,114,114,114,113,113,113,110,107,102,96],"timestamp_mouse":[29,34,54,74,94,115,134,155,173,195,213,235,255,275,295,314,335,354,375,395,413,435,455,473,493,515,534,555,575,594,614,635,655,674,693,714,735,754,775,794,814,834,854,875,894,913,935,955,973,993,1014,1035,1054,1075,1093,1114,1133,1154,1175,1194,1214,1235,1253,1274,1294,1313,1333,1355,1375,1395,1414,1433,1453,1474,1494,1513,1534,1555,1574,1594,1613,1633,1654,1673,1694,1714,1734,1755,1774],"xSR":733.5,"ySR":464.1,"xT1":420.09999999999997,"yT1":0,"xT2":1046.8999999999999,"yT2":0,"toosoon":0,"cond_shown":"equaldotanddens","ratio_trial":750,"smaller_num":"9","larger_num":"12","correct_side":2,"subjID":"samuelrealpe27","gender":"0","age":"9","school":"4"},{"start_time":1552056427693,"click_time":1552056429409,"finger_time":1552056428568,"fix_duration":382.26307299782445,"trial":27,"RT":875,"MT":841,"sideResp":2,"stimulus":"img/900/equaldotanddens/L/8_Ratio_900_L_20_R_18.png","xmouse":[806,806,806,806,806,806,806,806,806,806,806,806,806,806,806,806,806,806,806,806,806,806,806,806,806,806,806,806,806,806,806,806,806,806,806,806,806,806,806,806,808,814,820,835,844,860,878,899,944,973,989,999,1007,1017,1022,1026,1030,1032,1036,1036,1036,1036,1036,1036,1037,1037,1038,1040,1043,1043,1043,1044,1044,1044,1044,1044,1044,1046,1049,1051,1055,1056,1059,1063,1065,1067],"ymouse":[515,515,515,515,515,515,515,515,515,515,515,515,515,515,515,515,515,515,515,515,515,515,515,515,515,515,515,515,515,515,515,515,515,515,515,515,515,515,515,515,514,507,499,480,465,440,411,376,308,256,227,208,193,175,170,165,161,157,149,149,149,149,149,149,148,147,146,144,135,133,130,129,128,128,128,127,127,125,120,117,114,111,107,104,101,97],"timestamp_mouse":[16,36,57,76,96,115,135,156,176,196,217,235,255,276,296,316,336,356,377,396,416,436,457,477,495,516,537,557,576,596,617,637,657,676,695,717,737,756,777,796,817,837,857,875,896,916,936,957,976,996,1016,1037,1056,1075,1096,1117,1136,1156,1175,1196,1216,1236,1256,1276,1295,1317,1337,1356,1376,1396,1417,1436,1457,1477,1496,1516,1536,1557,1576,1596,1616,1637,1656,1675,1696,1716],"xSR":733.5,"ySR":464.1,"xT1":420.09999999999997,"yT1":0,"xT2":1046.8999999999999,"yT2":0,"toosoon":0,"cond_shown":"equaldotanddens","ratio_trial":900,"smaller_num":"18","larger_num":"20","correct_side":1,"subjID":"samuelrealpe27","gender":"0","age":"9","school":"4"},{"start_time":1552056433073,"click_time":1552056435569,"finger_time":1552056433889,"fix_duration":1383.7139048842125,"trial":28,"RT":816,"MT":1680,"sideResp":2,"stimulus":"img/250/randomdotsizeEA/R/12_Ratio_250_L_5_R_20.png","xmouse":[796,796,796,796,796,796,797,797,799,799,800,800,800,800,800,800,800,800,800,800,800,800,800,800,800,800,800,800,800,802,804,806,809,811,813,815,816,818,820,830,837,844,850,855,869,880,893,914,934,976,985,992,1000,1005,1015,1019,1021,1023,1024,1028,1030,1031,1032,1033,1036,1039,1041,1043,1046,1054,1064,1071,1079,1085,1095,1097,1097,1099,1099,1099,1099,1099,1099,1099,1099,1099,1099,1099,1100,1102,1102,1103,1103,1103,1103,1103,1103,1103,1103,1103,1104,1106,1109,1110,1112,1114,1114,1114,1114,1114,1114,1114,1114,1114,1114,1114,1114,1114,1114,1114,1115,1117,1117,1118,1121],"ymouse":[502,502,502,502,502,502,501,500,499,499,499,499,499,499,499,499,499,499,499,499,499,499,499,499,499,499,499,499,499,498,498,497,496,495,494,493,492,491,489,481,478,473,467,463,449,438,422,401,387,361,351,341,332,324,306,295,288,279,271,254,247,243,240,235,227,222,217,212,207,196,181,171,156,144,121,115,111,109,109,108,108,108,108,108,108,108,108,108,108,107,106,106,106,106,106,106,106,106,106,106,105,105,103,103,102,102,102,102,102,102,102,102,102,102,102,102,102,102,102,102,101,100,100,100,98],"timestamp_mouse":[17,39,56,76,96,116,137,156,177,197,215,236,255,277,297,316,335,356,377,395,417,436,455,475,496,516,537,557,575,596,616,635,656,676,696,716,736,757,777,796,816,836,856,875,895,916,936,955,977,996,1016,1036,1056,1077,1095,1117,1137,1156,1177,1196,1216,1236,1255,1276,1297,1317,1335,1357,1376,1395,1416,1435,1456,1476,1495,1515,1536,1556,1576,1595,1617,1636,1656,1677,1696,1716,1737,1756,1777,1796,1817,1836,1856,1877,1896,1917,1937,1957,1977,1995,2015,2035,2057,2077,2096,2116,2137,2156,2176,2196,2217,2237,2257,2277,2297,2317,2335,2357,2377,2397,2416,2436,2456,2476,2496],"xSR":733.5,"ySR":464.1,"xT1":420.09999999999997,"yT1":0,"xT2":1046.8999999999999,"yT2":0,"toosoon":0,"cond_shown":"randomdotsizeEA","ratio_trial":250,"smaller_num":"5","larger_num":"20","correct_side":2,"subjID":"samuelrealpe27","gender":"0","age":"9","school":"4"},{"start_time":1552056438411,"click_time":1552056440368,"finger_time":1552056439268,"fix_duration":1479.547140370478,"trial":29,"RT":857,"MT":1100,"sideResp":1,"stimulus":"img/250/equaldotanddens/L/2_Ratio_250_L_16_R_4.png","xmouse":[793,793,793,793,793,794,794,796,796,797,797,797,797,797,798,798,799,800,800,800,801,802,802,803,803,803,805,808,810,811,812,813,813,813,813,813,813,813,813,807,801,791,753,713,655,583,503,372,342,334,333,333,338,344,347,347,347,347,347,347,347,347,347,347,347,358,360,363,363,363,363,364,365,365,365,366,366,367,367,368,369,371,378,381,383,383,383,383,384,386,388,388,390,390,393,395,409,451],"ymouse":[498,498,498,498,498,498,498,498,498,497,497,497,497,497,496,496,496,496,495,495,495,495,495,494,494,494,493,492,492,491,490,490,490,490,490,490,490,490,488,485,482,478,446,412,356,278,196,74,47,36,35,34,20,6,0,0,0,0,0,0,0,0,0,0,0,1,6,10,10,10,11,12,14,14,14,14,14,14,14,14,14,14,14,14,14,14,14,14,14,14,14,14,14,14,14,14,18,35],"timestamp_mouse":[18,39,57,78,98,118,138,158,178,198,219,238,257,278,298,318,338,358,378,398,418,438,458,478,497,519,538,558,577,598,618,638,659,678,698,717,738,759,779,798,818,838,857,878,897,918,937,957,979,998,1018,1038,1058,1077,1098,1119,1138,1157,1178,1199,1218,1238,1257,1279,1297,1318,1338,1357,1377,1398,1418,1439,1458,1478,1499,1517,1538,1558,1577,1599,1619,1639,1658,1678,1699,1719,1738,1759,1778,1798,1819,1839,1857,1878,1899,1918,1938,1957],"xSR":733.5,"ySR":464.1,"xT1":420.09999999999997,"yT1":0,"xT2":1046.8999999999999,"yT2":0,"toosoon":0,"cond_shown":"equaldotanddens","ratio_trial":250,"smaller_num":"4","larger_num":"16","correct_side":1,"subjID":"samuelrealpe27","gender":"0","age":"9","school":"4"},{"start_time":1552056453604,"click_time":1552056455491,"finger_time":1552056454450,"fix_duration":473.1131047765471,"trial":30,"RT":846,"MT":1041,"sideResp":1,"stimulus":"img/900/equaldotsize/L/1_Ratio_900_L_10_R_9.png","xmouse":[749,749,749,749,749,749,749,749,749,749,749,749,749,749,749,749,749,749,749,749,749,749,749,749,749,749,749,749,749,749,749,749,749,749,749,749,749,750,753,756,758,759,760,760,758,751,740,724,691,674,661,647,635,611,599,585,562,526,441,419,402,393,387,381,378,378,377,377,378,379,382,384,385,390,391,392,394,397,403,404,404,403,402,401,401,402,403,404,404,405,407,411,414,419,421],"ymouse":[479,479,479,479,479,479,479,479,479,479,479,479,479,479,479,479,479,479,479,479,479,479,479,479,479,479,479,479,479,479,479,479,479,479,479,479,479,479,477,475,470,467,463,452,425,403,383,360,329,319,313,309,304,288,279,268,253,229,179,164,151,143,133,121,115,114,114,114,113,112,112,111,111,109,108,107,106,101,78,67,60,56,56,56,57,60,63,63,64,64,65,65,65,65,65],"timestamp_mouse":[7,26,46,67,86,105,125,146,166,186,206,226,245,266,286,306,326,345,365,385,405,425,445,465,485,505,526,547,567,587,607,626,646,666,687,707,726,746,766,787,806,825,846,866,887,906,926,947,965,986,1006,1027,1046,1066,1086,1106,1126,1146,1166,1186,1206,1227,1246,1266,1286,1306,1327,1347,1366,1387,1406,1427,1447,1465,1487,1506,1527,1547,1565,1587,1607,1626,1647,1666,1686,1707,1726,1747,1766,1787,1806,1826,1846,1865,1887],"xSR":733.5,"ySR":464.1,"xT1":420.09999999999997,"yT1":0,"xT2":1046.8999999999999,"yT2":0,"toosoon":0,"cond_shown":"equaldotsize","ratio_trial":900,"smaller_num":"9","larger_num":"10","correct_side":1,"subjID":"samuelrealpe27","gender":"0","age":"9","school":"4"},{"start_time":1552056457600,"click_time":1552056459329,"finger_time":1552056458189,"fix_duration":1107.8428150038778,"trial":31,"RT":589,"MT":1140,"sideResp":2,"stimulus":"img/900/randomdotsizeEA/R/15_Ratio_900_L_9_R_10.png","xmouse":[794,794,794,794,794,794,794,794,794,794,794,794,794,794,794,794,794,794,794,794,794,794,793,793,793,793,793,794,801,806,812,818,823,835,841,844,849,853,867,881,900,922,942,976,989,1003,1021,1037,1077,1088,1095,1100,1102,1102,1102,1102,1102,1102,1102,1102,1102,1102,1102,1102,1102,1102,1102,1102,1102,1102,1102,1102,1102,1102,1102,1102,1102,1102,1102,1102,1102,1102,1103,1103,1103,1103,1104],"ymouse":[509,509,509,509,509,509,509,509,509,509,509,509,509,509,509,509,509,509,509,509,509,509,509,508,505,501,497,493,479,460,439,420,401,371,356,350,344,338,326,320,313,307,299,288,282,273,250,224,157,137,119,106,102,102,102,101,101,101,101,101,101,101,101,101,101,101,101,101,101,101,101,101,101,101,101,101,101,101,101,101,101,101,101,101,100,100,97],"timestamp_mouse":[19,32,51,69,90,110,130,151,169,190,211,229,249,270,290,310,330,351,370,391,410,429,450,470,490,509,531,551,570,589,610,631,651,670,691,710,730,751,770,791,811,830,851,870,890,910,931,951,970,989,1011,1031,1050,1070,1091,1111,1131,1150,1170,1191,1210,1230,1249,1270,1291,1310,1330,1351,1369,1390,1411,1431,1450,1470,1491,1510,1531,1551,1570,1590,1611,1631,1651,1669,1691,1711,1729],"xSR":733.5,"ySR":464.1,"xT1":420.09999999999997,"yT1":0,"xT2":1046.8999999999999,"yT2":0,"toosoon":0,"cond_shown":"randomdotsizeEA","ratio_trial":900,"smaller_num":"9","larger_num":"10","correct_side":2,"subjID":"samuelrealpe27","gender":"0","age":"9","school":"4"},{"start_time":1552056462322,"click_time":1552056464070,"finger_time":1552056462931,"fix_duration":1191.7405399560942,"trial":32,"RT":609,"MT":1139,"sideResp":2,"stimulus":"img/250/randomdotsizeEA/R/4_Ratio_250_L_3_R_12.png","xmouse":[760,760,760,760,760,760,760,760,760,760,760,760,760,760,760,760,760,760,760,760,760,760,760,760,760,760,760,761,772,791,824,876,976,1003,1016,1026,1034,1050,1057,1059,1060,1061,1067,1072,1082,1096,1106,1112,1111,1111,1111,1111,1111,1111,1111,1111,1111,1111,1111,1111,1111,1111,1112,1112,1113,1114,1114,1115,1117,1118,1121,1123,1128,1129,1130,1131,1132,1133,1133,1134,1134,1134,1134,1134,1134,1134,1134,1134],"ymouse":[481,481,481,481,481,481,481,481,481,481,481,481,481,481,481,481,481,481,481,481,481,481,481,481,481,481,481,482,477,465,437,389,271,243,237,234,231,225,222,222,221,219,216,210,200,183,165,131,124,124,124,124,124,124,124,124,123,123,123,123,121,121,120,118,117,114,112,110,109,109,108,108,107,106,106,106,106,106,105,105,105,104,102,102,102,102,101,99],"timestamp_mouse":[13,32,48,69,89,108,129,148,169,189,209,228,248,269,289,309,329,349,368,387,409,428,448,468,489,509,529,548,567,589,609,628,648,669,688,708,729,748,768,788,808,828,848,869,888,908,928,948,968,987,1008,1029,1048,1068,1089,1108,1128,1148,1167,1187,1209,1228,1248,1269,1288,1309,1329,1347,1368,1388,1409,1428,1448,1468,1488,1509,1529,1548,1568,1588,1608,1629,1648,1668,1689,1708,1728,1748],"xSR":733.5,"ySR":464.1,"xT1":420.09999999999997,"yT1":0,"xT2":1046.8999999999999,"yT2":0,"toosoon":0,"cond_shown":"randomdotsizeEA","ratio_trial":250,"smaller_num":"3","larger_num":"12","correct_side":2,"subjID":"samuelrealpe27","gender":"0","age":"9","school":"4"},{"start_time":1552056466610,"click_time":1552056467770,"finger_time":1552056467510,"fix_duration":698.0093130745933,"trial":33,"RT":900,"MT":260,"sideResp":2,"stimulus":"img/250/equaldotanddens/R/10_Ratio_250_L_4_R_16.png","xmouse":[788,788,788,788,788,788,788,788,788,788,788,788,788,788,788,788,788,788,788,788,788,788,788,788,788,788,788,788,788,788,788,788,788,788,788,788,788,788,788,788,788,788,790,814,830,839,852,865,897,916,952,1003,1022,1054,1064,1077,1090,1104,1126],"ymouse":[491,491,491,491,491,491,491,491,491,491,491,491,491,491,491,491,491,491,491,491,491,491,491,491,491,491,491,491,491,491,491,491,491,491,491,491,491,491,491,491,491,491,491,481,473,470,465,459,441,425,388,336,313,273,248,215,181,148,98],"timestamp_mouse":[2,20,39,60,80,101,120,140,160,181,200,220,240,260,280,300,321,340,360,380,401,421,440,460,481,501,520,540,560,580,600,619,641,659,680,701,720,741,760,779,800,821,840,859,880,900,920,941,960,981,1000,1020,1041,1060,1080,1112,1120,1141,1160],"xSR":733.5,"ySR":464.1,"xT1":420.09999999999997,"yT1":0,"xT2":1046.8999999999999,"yT2":0,"toosoon":0,"cond_shown":"equaldotanddens","ratio_trial":250,"smaller_num":"4","larger_num":"16","correct_side":2,"subjID":"samuelrealpe27","gender":"0","age":"9","school":"4"},{"start_time":1552056469928,"click_time":1552056472770,"finger_time":1552056470369,"fix_duration":1116.3096447330693,"trial":34,"RT":441,"MT":2401,"sideResp":1,"stimulus":"img/900/equaldotanddens/R/12_Ratio_900_L_18_R_20.png","xmouse":[809,809,809,809,809,809,809,809,809,809,809,809,809,809,809,809,809,809,809,812,816,821,835,848,860,875,887,911,918,924,927,928,927,924,916,907,893,806,756,729,703,686,675,674,674,672,671,668,666,663,658,654,646,646,646,646,646,646,646,646,646,646,642,637,628,614,608,604,604,604,604,603,603,603,603,603,603,603,602,601,601,601,601,600,600,599,599,599,599,598,598,598,594,588,580,570,555,521,499,487,479,477,475,475,475,475,475,475,477,480,486,492,500,503,503,503,504,504,504,504,504,505,505,505,505,505,505,506,506,506,506,506,506,507,508,508,508,509,509,509,509,510,510],"ymouse":[525,525,525,525,525,525,525,525,525,525,525,525,525,525,525,525,525,525,525,524,522,519,513,508,500,487,475,429,411,388,367,347,317,306,294,282,269,222,201,188,176,167,164,164,164,164,164,164,164,164,166,167,170,171,171,171,171,171,171,171,171,171,171,171,172,172,172,171,171,171,171,171,171,171,171,171,171,171,171,171,171,171,171,171,171,171,171,171,171,171,171,171,171,168,163,156,149,135,124,119,115,114,113,113,113,113,113,113,112,111,109,107,105,104,104,104,103,103,103,103,103,103,103,103,103,103,103,102,102,102,102,102,102,102,102,102,102,102,102,102,102,101,99],"timestamp_mouse":[11,24,42,63,83,103,123,143,161,183,203,222,242,263,282,301,322,343,362,383,401,422,441,463,482,502,523,542,562,581,602,623,641,663,682,702,723,741,762,783,802,822,842,863,882,902,922,942,962,982,1001,1022,1042,1061,1083,1103,1123,1142,1163,1183,1202,1223,1242,1262,1282,1302,1322,1342,1363,1382,1403,1423,1442,1463,1482,1503,1522,1542,1563,1583,1603,1622,1642,1661,1682,1702,1723,1742,1763,1782,1802,1822,1842,1863,1882,1902,1923,1941,1963,1982,2002,2023,2042,2061,2083,2103,2121,2141,2161,2182,2203,2223,2241,2263,2282,2302,2323,2342,2362,2382,2402,2422,2442,2462,2483,2502,2522,2541,2562,2583,2602,2622,2642,2662,2682,2703,2723,2742,2762,2783,2801,2822,2841],"xSR":733.5,"ySR":464.1,"xT1":420.09999999999997,"yT1":0,"xT2":1046.8999999999999,"yT2":0,"toosoon":0,"cond_shown":"equaldotanddens","ratio_trial":900,"smaller_num":"18","larger_num":"20","correct_side":2,"subjID":"samuelrealpe27","gender":"0","age":"9","school":"4"},{"start_time":1552056475130,"click_time":1552056476431,"finger_time":1552056475691,"fix_duration":617.0524886705989,"trial":35,"RT":561,"MT":740,"sideResp":2,"stimulus":"img/750/equaldotsize/R/3_Ratio_750_L_15_R_20.png","xmouse":[820,820,820,820,820,820,820,820,820,820,820,820,820,820,820,820,820,820,820,820,820,820,820,821,823,825,831,837,842,849,855,869,876,882,889,898,932,974,995,1014,1027,1045,1050,1054,1057,1060,1070,1071,1071,1071,1071,1071,1071,1072,1073,1073,1077,1079,1080,1082,1084,1091,1096,1100,1103],"ymouse":[542,542,542,542,542,542,542,542,542,542,542,542,542,542,542,542,542,542,542,542,542,542,542,540,540,539,537,533,523,511,501,483,477,472,467,459,415,367,350,336,323,293,280,271,263,255,225,211,207,207,207,207,206,206,205,205,183,170,161,155,150,136,121,108,96],"timestamp_mouse":[21,42,60,80,100,120,141,161,181,200,221,241,259,280,301,320,341,359,381,399,420,441,460,479,500,521,541,561,579,601,620,639,659,680,701,720,740,761,780,800,819,839,860,880,900,921,939,959,980,1000,1021,1041,1060,1080,1100,1121,1139,1160,1181,1200,1220,1240,1260,1280,1300],"xSR":733.5,"ySR":464.1,"xT1":420.09999999999997,"yT1":0,"xT2":1046.8999999999999,"yT2":0,"toosoon":0,"cond_shown":"equaldotsize","ratio_trial":750,"smaller_num":"15","larger_num":"20","correct_side":2,"subjID":"samuelrealpe27","gender":"0","age":"9","school":"4"},{"start_time":1552056478959,"click_time":1552056480131,"finger_time":1552056479670,"fix_duration":1388.161402523751,"trial":36,"RT":711,"MT":461,"sideResp":1,"stimulus":"img/250/equaldotsize/L/2_Ratio_250_L_16_R_4.png","xmouse":[769,769,769,769,769,769,769,769,769,769,769,769,769,769,769,769,769,769,769,769,769,769,769,769,769,769,769,769,769,769,769,769,769,766,760,684,645,629,624,622,614,613,613,613,613,612,608,605,598,591,571,560,546,533,527,523,522,521,516],"ymouse":[515,515,515,515,515,515,515,515,515,515,515,515,515,515,515,515,515,515,515,515,515,515,515,515,515,515,515,515,515,515,515,515,515,512,502,355,300,278,262,250,230,227,227,227,223,215,198,185,170,153,123,112,101,91,87,83,82,82,82],"timestamp_mouse":[13,37,52,70,90,110,131,152,172,191,212,231,252,271,292,312,331,352,371,390,411,432,452,470,492,510,532,551,571,592,610,631,652,670,691,711,731,751,770,791,811,830,851,872,893,911,932,951,972,992,1012,1031,1051,1071,1092,1112,1131,1152,1171],"xSR":733.5,"ySR":464.1,"xT1":420.09999999999997,"yT1":0,"xT2":1046.8999999999999,"yT2":0,"toosoon":0,"cond_shown":"equaldotsize","ratio_trial":250,"smaller_num":"4","larger_num":"16","correct_side":1,"subjID":"samuelrealpe27","gender":"0","age":"9","school":"4"},{"start_time":1552056481423,"click_time":1552056482470,"finger_time":1552056481951,"fix_duration":250,"trial":37,"RT":528,"MT":519,"sideResp":2,"stimulus":"img/250/equaldotsize/R/10_Ratio_250_L_4_R_16.png","xmouse":[796,796,796,796,796,796,796,796,796,796,796,796,796,796,796,796,796,796,796,796,796,796,796,796,801,821,843,885,914,946,988,1056,1090,1106,1120,1133,1145,1161,1167,1173,1176,1179,1181,1181,1181,1180,1178,1167,1160,1156,1153,1150,1141],"ymouse":[532,532,532,532,532,532,532,532,532,532,532,532,532,532,532,532,532,532,532,532,532,532,532,532,530,523,509,483,464,445,414,338,297,275,254,233,212,182,169,156,146,137,123,118,117,114,112,107,103,99,95,90,82],"timestamp_mouse":[13,39,47,68,88,107,128,148,167,187,206,227,246,267,287,308,327,346,368,387,406,427,447,467,488,508,528,547,568,587,608,629,647,668,687,707,727,746,767,788,807,827,847,868,886,906,926,947,967,987,1008,1027,1046],"xSR":733.5,"ySR":464.1,"xT1":420.09999999999997,"yT1":0,"xT2":1046.8999999999999,"yT2":0,"toosoon":0,"cond_shown":"equaldotsize","ratio_trial":250,"smaller_num":"4","larger_num":"16","correct_side":2,"subjID":"samuelrealpe27","gender":"0","age":"9","school":"4"},{"start_time":1552056484383,"click_time":1552056485851,"finger_time":1552056485090,"fix_duration":250,"trial":38,"RT":707,"MT":761,"sideResp":1,"stimulus":"img/500/equaldotsize/L/11_Ratio_500_L_12_R_6.png","xmouse":[749,749,749,749,749,749,749,749,749,749,749,749,749,749,749,749,749,749,749,749,749,749,749,749,749,749,749,749,749,749,749,749,749,748,755,757,759,760,760,760,760,760,760,760,760,759,757,756,756,756,756,756,756,756,756,756,756,756,756,756,756,756,756,756,755,749,743,729,708,636,595,560,532,515],"ymouse":[507,507,507,507,507,507,507,507,507,507,507,507,507,507,507,507,507,507,507,507,507,507,507,507,507,507,507,507,507,507,507,507,507,506,470,457,444,436,434,433,433,433,433,432,430,426,424,422,422,422,422,422,422,422,422,422,422,422,422,422,422,422,422,422,416,396,376,353,325,235,172,121,88,68],"timestamp_mouse":[12,29,47,66,88,107,128,148,167,188,207,227,247,268,287,307,328,347,367,388,408,426,448,468,487,507,526,548,568,587,608,626,647,667,687,707,728,747,766,786,807,827,847,866,886,908,927,947,967,987,1007,1027,1047,1066,1088,1107,1127,1147,1167,1187,1207,1228,1248,1268,1287,1308,1328,1347,1367,1387,1408,1427,1448,1468],"xSR":733.5,"ySR":464.1,"xT1":420.09999999999997,"yT1":0,"xT2":1046.8999999999999,"yT2":0,"toosoon":0,"cond_shown":"equaldotsize","ratio_trial":500,"smaller_num":"6","larger_num":"12","correct_side":1,"subjID":"samuelrealpe27","gender":"0","age":"9","school":"4"},{"start_time":1552056488388,"click_time":1552056490593,"finger_time":1552056489370,"fix_duration":635.143066756866,"trial":39,"RT":982,"MT":1223,"sideResp":1,"stimulus":"img/500/equaldotanddens/L/11_Ratio_500_L_12_R_6.png","xmouse":[742,742,742,742,742,742,742,742,742,742,742,742,742,742,742,742,742,742,742,742,742,742,742,742,742,742,742,742,742,742,742,742,742,742,743,744,745,748,750,755,755,755,756,756,756,756,756,756,755,750,748,748,745,741,725,724,723,723,723,723,723,723,723,721,704,681,668,657,648,636,633,630,630,627,615,611,606,599,591,574,564,555,538,520,501,501,501,501,501,501,500,500,505,512,532,535,536,536,536,536,537,537,537,537,537,537,533,530,527,523,520],"ymouse":[512,512,512,512,512,512,512,512,512,512,512,512,512,512,512,512,512,512,512,512,512,512,512,512,512,512,512,512,512,512,512,512,511,511,510,509,509,507,505,497,495,493,491,490,489,488,485,481,467,445,432,421,406,385,340,337,336,336,336,336,336,335,330,324,292,256,239,225,214,200,197,195,194,193,184,179,173,166,159,150,144,140,136,133,131,131,131,131,131,131,130,130,128,126,119,119,118,118,118,118,117,117,117,117,114,104,94,85,79,72,69],"timestamp_mouse":[12,29,42,62,83,101,123,143,163,183,202,222,243,263,282,302,323,342,361,382,402,423,443,462,482,503,523,543,563,582,602,623,643,663,682,703,723,743,762,782,801,823,843,862,882,903,923,943,961,982,1002,1022,1043,1061,1082,1103,1122,1143,1162,1182,1202,1222,1242,1261,1281,1303,1321,1342,1363,1381,1401,1422,1443,1463,1482,1502,1523,1541,1562,1582,1602,1623,1643,1662,1681,1702,1723,1743,1763,1782,1803,1822,1842,1862,1882,1903,1923,1943,1962,1982,2002,2022,2042,2062,2083,2103,2122,2143,2162,2182,2204],"xSR":733.5,"ySR":464.1,"xT1":420.09999999999997,"yT1":0,"xT2":1046.8999999999999,"yT2":0,"toosoon":0,"cond_shown":"equaldotanddens","ratio_trial":500,"smaller_num":"6","larger_num":"12","correct_side":1,"subjID":"samuelrealpe27","gender":"0","age":"9","school":"4"},{"start_time":1552056492722,"click_time":1552056494250,"finger_time":1552056493470,"fix_duration":651.7703734578306,"trial":40,"RT":748,"MT":780,"sideResp":1,"stimulus":"img/900/equaldotsize/L/10_Ratio_900_L_20_R_18.png","xmouse":[751,751,751,751,751,751,751,751,751,751,751,751,751,751,751,751,751,751,751,751,751,751,751,751,751,751,751,751,751,751,751,751,752,756,757,761,762,778,793,814,836,858,896,909,921,924,926,926,926,926,924,914,852,786,709,634,565,481,473,471,468,462,456,450,446,444,444,444,444,444,444,444,444,445,449,452,454],"ymouse":[475,475,475,475,475,475,475,475,475,475,475,475,475,475,475,475,475,475,475,475,475,475,475,475,475,475,475,475,475,475,475,475,474,473,472,470,469,462,456,447,437,428,412,406,400,397,396,396,395,394,392,382,334,294,253,222,197,173,170,169,167,160,154,150,146,145,145,145,145,145,145,145,140,128,114,103,98],"timestamp_mouse":[12,31,48,68,88,108,128,149,168,188,209,227,248,269,289,308,329,349,369,388,409,427,449,468,488,509,529,549,569,589,609,628,649,668,689,709,729,748,768,788,807,827,848,868,888,908,928,948,969,989,1008,1028,1048,1069,1089,1108,1128,1148,1168,1189,1208,1230,1248,1268,1289,1309,1328,1348,1369,1388,1407,1428,1449,1469,1489,1508,1528],"xSR":733.5,"ySR":464.1,"xT1":420.09999999999997,"yT1":0,"xT2":1046.8999999999999,"yT2":0,"toosoon":0,"cond_shown":"equaldotsize","ratio_trial":900,"smaller_num":"18","larger_num":"20","correct_side":1,"subjID":"samuelrealpe27","gender":"0","age":"9","school":"4"},{"start_time":1552056496866,"click_time":1552056498150,"finger_time":1552056497569,"fix_duration":874.5842432400115,"trial":41,"RT":703,"MT":581,"sideResp":2,"stimulus":"img/250/randomdotsizeEA/R/6_Ratio_250_L_6_R_24.png","xmouse":[741,741,741,741,741,741,741,739,738,738,738,738,738,738,738,738,738,738,738,738,738,738,738,738,738,738,738,738,740,742,743,745,748,750,756,789,810,832,855,877,915,922,928,931,936,948,953,958,962,971,992,997,1003,1008,1014,1021,1024,1026,1028,1030,1040,1043,1047,1052,1059],"ymouse":[478,478,478,478,478,478,478,479,479,479,479,479,479,479,479,479,479,479,479,479,479,479,479,479,479,479,479,479,479,478,477,477,475,474,472,462,455,448,440,432,418,416,413,412,410,405,402,399,394,386,357,346,336,325,315,295,285,278,270,263,226,201,170,137,98],"timestamp_mouse":[13,31,45,64,85,104,125,144,164,184,205,224,244,265,285,304,325,343,365,384,404,425,445,465,484,505,525,544,564,585,604,624,643,664,684,703,724,745,765,784,803,824,844,864,884,904,924,944,963,985,1004,1024,1045,1064,1084,1104,1123,1144,1164,1185,1204,1223,1243,1264,1283],"xSR":733.5,"ySR":464.1,"xT1":420.09999999999997,"yT1":0,"xT2":1046.8999999999999,"yT2":0,"toosoon":0,"cond_shown":"randomdotsizeEA","ratio_trial":250,"smaller_num":"6","larger_num":"24","correct_side":2,"subjID":"samuelrealpe27","gender":"0","age":"9","school":"4"},{"start_time":1552056501012,"click_time":1552056504030,"finger_time":1552056501670,"fix_duration":1339.3492914603178,"trial":42,"RT":658,"MT":2360,"sideResp":1,"stimulus":"img/500/equaldotanddens/L/4_Ratio_500_L_18_R_9.png","xmouse":[806,806,805,805,805,806,808,809,809,809,809,809,809,809,809,809,809,809,809,809,809,809,809,813,815,817,819,820,823,824,827,828,830,831,832,832,832,832,832,832,832,832,832,832,833,833,833,832,829,828,827,823,816,780,752,684,586,456,168,43,43,43,43,43,43,43,43,43,43,43,43,43,43,43,43,43,521,565,662,679,684,686,687,687,687,687,687,687,684,675,666,655,646,641,640,640,640,640,636,633,633,633,633,633,633,633,633,633,633,633,633,633,633,633,633,633,633,633,633,633,633,633,633,633,633,633,633,633,633,633,633,633,633,633,633,633,633,633,633,633,633,633,633,633,633,633,633,633,633,633,633,494],"ymouse":[491,491,493,493,493,493,493,493,493,494,495,495,495,496,496,496,496,496,496,496,496,496,495,486,483,479,478,477,475,474,473,471,468,456,442,424,408,393,367,352,328,299,219,170,150,137,131,126,124,124,124,126,127,137,137,137,137,137,85,44,44,44,44,44,44,44,44,44,44,44,44,44,44,44,44,44,13,28,69,76,79,81,81,81,81,81,81,81,81,81,82,84,86,88,88,88,88,88,37,14,14,14,14,14,14,14,14,14,14,14,14,14,14,14,14,14,14,14,14,14,14,14,14,14,14,14,14,14,14,14,14,14,14,14,14,14,14,14,14,14,14,14,14,14,14,14,14,14,14,14,14,1],"timestamp_mouse":[6,20,43,58,78,97,119,139,158,178,198,218,238,258,278,299,318,338,358,378,399,418,439,458,477,497,518,538,557,579,598,618,640,658,677,698,718,738,757,779,798,818,841,859,879,898,918,938,957,978,998,1019,1038,1058,1078,1099,1119,1138,1158,1179,1199,1219,1238,1258,1279,1299,1319,1338,1358,1378,1399,1418,1439,1458,1478,1499,1519,1539,1558,1578,1599,1618,1640,1658,1678,1699,1719,1739,1758,1778,1799,1819,1838,1859,1879,1899,1918,1939,1958,1978,1999,2018,2038,2058,2078,2098,2118,2141,2158,2178,2198,2218,2239,2258,2278,2298,2318,2339,2358,2379,2397,2418,2438,2457,2478,2499,2518,2539,2558,2578,2599,2617,2639,2658,2678,2698,2719,2739,2759,2778,2798,2818,2838,2859,2878,2898,2919,2938,2958,2978,2999,3018],"xSR":733.5,"ySR":464.1,"xT1":420.09999999999997,"yT1":0,"xT2":1046.8999999999999,"yT2":0,"toosoon":0,"cond_shown":"equaldotanddens","ratio_trial":500,"smaller_num":"9","larger_num":"18","correct_side":1,"subjID":"samuelrealpe27","gender":"0","age":"9","school":"4"},{"start_time":1552056507310,"click_time":1552056509390,"finger_time":1552056507971,"fix_duration":1277.4223693416136,"trial":43,"RT":661,"MT":1419,"sideResp":2,"stimulus":"img/500/equaldotanddens/R/1_Ratio_500_L_9_R_18.png","xmouse":[805,805,805,805,805,805,805,805,805,805,805,805,805,805,805,805,805,805,805,805,805,805,805,805,805,805,805,805,806,810,813,818,827,853,867,875,878,879,879,879,879,879,879,879,879,879,881,891,903,905,905,909,917,927,937,947,952,957,957,961,964,968,970,970,970,970,971,971,978,984,994,1006,1015,1031,1040,1046,1046,1046,1046,1046,1046,1046,1046,1046,1046,1046,1046,1046,1046,1046,1046,1046,1046,1046,1046,1046,1046,1046,1046,1046,1046,1046,1049,1077,1090],"ymouse":[475,475,475,475,475,475,475,475,475,475,475,475,475,475,475,475,475,475,475,475,475,475,475,475,475,475,475,475,475,473,473,471,468,458,452,447,445,444,444,444,444,444,444,444,444,444,444,441,437,436,436,434,431,426,415,403,392,340,288,264,252,247,245,244,244,244,243,243,241,240,235,222,183,128,115,111,111,111,111,111,111,111,111,111,111,111,111,111,111,111,111,111,111,111,111,111,111,111,111,111,111,111,110,102,98],"timestamp_mouse":[10,22,40,60,79,101,121,141,160,180,201,221,241,260,280,300,321,340,360,380,400,419,441,460,481,501,521,541,560,580,599,620,639,661,679,700,720,740,760,780,800,820,841,860,880,899,919,941,961,980,1000,1020,1040,1060,1080,1100,1120,1141,1160,1181,1200,1220,1241,1260,1280,1301,1321,1339,1360,1380,1400,1420,1441,1461,1481,1501,1520,1540,1559,1580,1599,1620,1640,1660,1680,1701,1720,1739,1761,1780,1799,1819,1847,1860,1880,1901,1920,1941,1961,1980,2000,2020,2040,2060,2080],"xSR":733.5,"ySR":464.1,"xT1":420.09999999999997,"yT1":0,"xT2":1046.8999999999999,"yT2":0,"toosoon":0,"cond_shown":"equaldotanddens","ratio_trial":500,"smaller_num":"9","larger_num":"18","correct_side":2,"subjID":"samuelrealpe27","gender":"0","age":"9","school":"4"},{"start_time":1552056512316,"click_time":1552056513932,"finger_time":1552056513170,"fix_duration":625.2174369063829,"trial":44,"RT":854,"MT":762,"sideResp":1,"stimulus":"img/500/randomdotsizeEA/L/11_Ratio_500_L_12_R_6.png","xmouse":[804,804,804,804,804,804,804,804,804,804,804,804,804,804,804,804,804,804,804,804,804,804,804,804,804,804,804,804,804,804,804,804,804,803,803,803,802,800,798,797,797,795,785,778,770,760,732,708,696,687,683,683,683,683,683,683,683,680,679,677,673,668,654,646,634,620,605,571,568,568,568,568,568,568,564,559,554,540,532,527,520],"ymouse":[483,483,483,483,483,483,483,483,483,483,483,483,483,483,483,483,483,483,483,483,481,481,481,481,481,481,481,481,481,481,481,481,481,480,479,479,479,476,476,475,473,471,457,449,441,428,386,345,322,305,296,294,294,294,293,293,289,276,272,266,260,251,222,202,176,143,106,42,34,34,34,34,34,33,33,34,36,41,43,46,48],"timestamp_mouse":[14,35,53,75,94,113,134,154,174,195,214,234,254,274,294,315,335,355,374,393,415,435,455,473,494,515,534,554,574,594,615,633,654,675,693,715,734,753,774,795,814,835,854,874,894,914,936,955,974,994,1014,1034,1054,1074,1094,1115,1135,1154,1174,1194,1214,1235,1254,1275,1296,1316,1336,1356,1377,1397,1416,1436,1456,1476,1496,1515,1535,1556,1575,1596,1616],"xSR":733.5,"ySR":464.1,"xT1":420.09999999999997,"yT1":0,"xT2":1046.8999999999999,"yT2":0,"toosoon":0,"cond_shown":"randomdotsizeEA","ratio_trial":500,"smaller_num":"6","larger_num":"12","correct_side":1,"subjID":"samuelrealpe27","gender":"0","age":"9","school":"4"},{"start_time":1552056515426,"click_time":1552056518332,"finger_time":1552056516232,"fix_duration":250,"trial":45,"RT":806,"MT":2100,"sideResp":1,"stimulus":"img/900/equaldotanddens/L/4_Ratio_900_L_20_R_18.png","xmouse":[756,757,759,760,761,763,763,763,763,763,763,763,763,763,763,763,763,763,763,763,763,763,763,763,764,766,769,773,777,779,781,784,794,799,804,808,814,822,827,831,836,847,864,873,884,898,908,915,915,915,915,915,916,919,922,927,933,953,964,971,975,980,985,987,989,992,996,1001,1006,1009,1014,1019,1023,1026,1029,1033,1037,1046,1052,1056,1063,1066,1072,1073,1074,1074,1075,1079,1084,1091,1099,1106,1110,1109,1108,1107,1107,1107,1107,1107,1106,1106,1102,1092,1085,1073,1049,1042,1040,1037,1034,1026,984,954,902,839,771,607,519,440,362,307,225,211,206,205,205,205,205,205,205,205,211,223,243,257,263,263,263,265,269,277,307,332,374,431],"ymouse":[525,525,524,524,524,523,523,523,523,523,523,523,523,523,523,523,523,523,523,523,523,523,523,523,522,521,521,519,517,516,515,514,510,508,507,504,503,500,498,495,493,488,480,474,466,453,443,436,436,436,436,436,436,434,434,431,429,417,409,401,398,395,392,391,390,389,387,385,381,377,372,366,361,358,354,349,344,334,325,320,310,304,294,291,290,290,289,279,267,250,227,203,154,144,140,139,139,139,139,139,139,139,139,141,144,146,147,147,147,147,147,147,147,147,147,147,147,139,125,110,88,72,41,35,32,32,32,32,32,32,32,32,32,36,41,45,46,46,46,46,46,46,47,50,56,64],"timestamp_mouse":[9,31,45,66,87,105,127,146,165,186,207,225,246,266,286,305,327,346,366,385,405,425,446,466,486,506,526,547,566,586,606,626,646,666,686,706,726,746,766,787,806,825,846,867,886,905,926,946,965,986,1006,1027,1046,1065,1086,1106,1127,1146,1167,1186,1206,1226,1246,1266,1287,1306,1326,1346,1367,1387,1406,1427,1446,1465,1487,1505,1526,1546,1565,1586,1606,1627,1647,1667,1686,1707,1726,1747,1765,1787,1805,1826,1846,1867,1885,1906,1925,1946,1966,1986,2006,2027,2046,2067,2087,2106,2128,2145,2166,2186,2205,2226,2247,2267,2287,2306,2326,2345,2367,2386,2406,2426,2445,2466,2486,2507,2527,2547,2567,2585,2606,2627,2646,2666,2687,2706,2726,2746,2767,2786,2806,2826,2846,2866,2887,2906],"xSR":733.5,"ySR":464.1,"xT1":420.09999999999997,"yT1":0,"xT2":1046.8999999999999,"yT2":0,"toosoon":0,"cond_shown":"equaldotanddens","ratio_trial":900,"smaller_num":"18","larger_num":"20","correct_side":1,"subjID":"samuelrealpe27","gender":"0","age":"9","school":"4"},{"start_time":1552056524596,"click_time":1552056526453,"finger_time":1552056525392,"fix_duration":322.59738875027364,"trial":46,"RT":796,"MT":1061,"sideResp":2,"stimulus":"img/250/equaldotsize/R/12_Ratio_250_L_5_R_20.png","xmouse":[756,756,756,756,756,756,756,756,756,756,756,756,756,756,756,756,756,756,756,756,756,756,756,756,756,756,756,756,757,761,765,771,785,795,802,807,814,819,831,838,844,850,856,867,877,883,891,900,919,928,939,945,950,950,950,950,950,950,950,948,947,947,947,947,946,946,945,942,938,937,937,937,937,941,943,947,949,951,958,962,966,972,983,1001,1009,1018,1026,1035,1053,1062,1069,1073,1075],"ymouse":[530,530,530,530,530,530,530,530,530,530,530,530,530,530,530,530,530,530,530,530,530,530,530,530,530,530,530,530,529,527,525,522,516,512,509,507,504,502,496,493,491,487,485,479,475,472,469,462,452,446,441,437,435,435,435,435,435,435,435,436,436,436,436,436,436,436,435,424,413,403,393,381,363,349,340,332,327,322,310,304,295,284,265,235,220,206,190,174,139,123,111,103,98],"timestamp_mouse":[16,35,56,76,96,116,137,155,177,197,216,237,257,276,296,317,335,355,376,396,415,437,456,477,495,517,537,555,575,597,617,636,657,675,696,715,736,755,776,796,816,837,857,876,896,915,936,956,975,997,1016,1037,1056,1076,1096,1116,1136,1157,1177,1196,1216,1237,1256,1276,1297,1315,1336,1358,1375,1397,1416,1437,1457,1476,1496,1516,1536,1556,1576,1597,1616,1636,1656,1676,1697,1716,1737,1756,1776,1796,1816,1835,1856],"xSR":733.5,"ySR":464.1,"xT1":420.09999999999997,"yT1":0,"xT2":1046.8999999999999,"yT2":0,"toosoon":0,"cond_shown":"equaldotsize","ratio_trial":250,"smaller_num":"5","larger_num":"20","correct_side":2,"subjID":"samuelrealpe27","gender":"0","age":"9","school":"4"},{"start_time":1552056529270,"click_time":1552056531972,"finger_time":1552056530711,"fix_duration":1276.1978290381737,"trial":47,"RT":1441,"MT":1261,"sideResp":2,"stimulus":"img/900/randomdotsizeEA/L/4_Ratio_900_L_20_R_18.png","xmouse":[820,820,820,820,820,820,820,820,820,820,820,820,820,820,820,820,820,820,820,820,820,820,822,823,827,827,824,822,822,822,822,822,822,822,822,822,822,822,822,822,822,822,822,822,822,822,822,822,822,822,822,822,822,822,822,822,822,822,822,822,822,822,822,822,822,822,822,822,824,825,827,831,835,838,844,858,870,880,894,905,917,926,939,948,954,967,974,985,993,1013,1024,1030,1033,1038,1043,1059,1065,1070,1073,1078,1082,1090,1097,1105,1111,1121,1124,1126,1126,1128,1128,1128,1128,1128,1128,1128,1128,1128,1128,1128,1126,1125,1125,1125,1125,1125,1125,1125,1125,1125,1122,1122,1122,1120,1119,1118],"ymouse":[530,530,530,530,530,530,530,530,530,530,530,530,530,530,530,530,530,530,530,530,530,530,528,513,487,487,495,496,496,496,496,496,496,496,496,496,496,496,496,496,496,496,496,496,496,496,496,496,496,496,496,496,496,496,496,496,496,496,496,496,496,496,496,496,496,496,496,496,495,495,493,491,489,487,485,476,465,448,422,382,367,360,354,349,345,337,332,320,306,288,284,281,280,278,276,269,266,264,262,260,257,253,246,238,231,218,214,211,208,206,206,206,206,206,206,206,205,197,177,166,141,137,137,137,137,137,137,137,135,135,126,122,118,113,100,96],"timestamp_mouse":[10,35,41,62,83,102,122,142,163,181,202,221,243,262,282,303,322,342,363,381,401,422,442,463,482,502,523,543,562,582,602,622,642,662,682,702,721,743,762,783,802,822,843,862,881,902,922,942,963,983,1002,1022,1043,1063,1082,1102,1121,1142,1162,1183,1202,1222,1242,1261,1281,1302,1322,1343,1361,1382,1402,1423,1441,1461,1482,1502,1523,1542,1562,1584,1602,1621,1642,1662,1682,1702,1722,1742,1762,1783,1802,1823,1842,1862,1882,1902,1923,1941,1962,1985,2001,2023,2043,2062,2081,2103,2123,2142,2162,2183,2202,2223,2241,2263,2282,2303,2323,2342,2362,2381,2401,2422,2442,2463,2483,2503,2523,2543,2562,2583,2602,2622,2643,2663,2684,2702],"xSR":733.5,"ySR":464.1,"xT1":420.09999999999997,"yT1":0,"xT2":1046.8999999999999,"yT2":0,"toosoon":0,"cond_shown":"randomdotsizeEA","ratio_trial":900,"smaller_num":"18","larger_num":"20","correct_side":1,"subjID":"samuelrealpe27","gender":"0","age":"9","school":"4"},{"start_time":1552056536423,"click_time":1552056538093,"finger_time":1552056537211,"fix_duration":250,"trial":48,"RT":788,"MT":882,"sideResp":2,"stimulus":"img/250/randomdotsizeEA/R/6_Ratio_250_L_6_R_24.png","xmouse":[786,786,788,788,788,788,788,788,788,788,788,788,788,788,788,788,788,788,788,788,788,788,789,789,789,789,789,789,789,789,789,790,794,798,807,814,823,828,833,841,845,857,866,871,879,892,907,944,961,979,994,1002,1017,1033,1043,1058,1070,1086,1090,1094,1098,1105,1120,1126,1130,1138,1151,1151,1151,1151,1151,1151,1151,1151,1151,1151,1151,1151,1151,1151,1172,1166,1150,1144],"ymouse":[541,541,538,538,538,538,538,538,538,538,537,537,537,537,537,537,537,537,537,537,537,537,537,537,537,537,537,537,537,537,537,536,534,533,529,525,522,519,517,514,511,504,501,498,496,490,483,467,459,450,443,438,413,392,375,355,335,305,298,291,284,273,226,197,165,116,19,19,19,19,19,19,19,19,19,19,19,19,19,19,0,4,11,22],"timestamp_mouse":[9,32,49,69,90,110,130,148,169,189,209,229,249,268,289,309,329,350,369,390,410,430,448,469,490,510,529,549,568,588,609,628,649,669,690,709,730,748,769,788,810,830,848,869,889,910,929,949,970,989,1009,1031,1050,1070,1089,1110,1129,1149,1168,1189,1209,1229,1249,1269,1290,1309,1329,1349,1369,1389,1409,1429,1449,1468,1490,1510,1529,1549,1569,1590,1609,1629,1650,1670],"xSR":733.5,"ySR":464.1,"xT1":420.09999999999997,"yT1":0,"xT2":1046.8999999999999,"yT2":0,"toosoon":0,"cond_shown":"randomdotsizeEA","ratio_trial":250,"smaller_num":"6","larger_num":"24","correct_side":2,"subjID":"samuelrealpe27","gender":"0","age":"9","school":"4"},{"start_time":1552056539700,"click_time":1552056542972,"finger_time":1552056540413,"fix_duration":626.6646023776573,"trial":49,"RT":713,"MT":2559,"sideResp":1,"stimulus":"img/500/equaldotanddens/L/4_Ratio_500_L_18_R_9.png","xmouse":[740,740,740,740,741,742,743,745,745,745,745,745,745,745,745,745,745,745,745,745,745,745,745,745,745,745,745,745,745,745,745,745,745,745,742,739,735,720,706,696,685,676,664,656,647,635,621,600,587,583,579,577,575,573,568,567,567,567,567,567,567,567,567,564