[{"start_time":1552054728857,"click_time":1552054732741,"finger_time":1552054728868,"fix_duration":671.4376264814482,"trial":0,"RT":11,"MT":3873,"sideResp":2,"stimulus":"img/250/equaldotsize/L/5_Ratio_250_L_24_R_6.png","xmouse":[765,765,765,765,765,770,772,772,772,772,772,772,772,772,772,772,772,772,772,772,772,772,772,772,772,772,772,772,772,772,772,772,772,772,772,772,772,772,772,771,771,771,771,771,771,771,771,770,767,767,767,767,767,771,777,777,777,777,778,778,778,778,779,780,780,780,780,780,780,780,780,780,780,780,781,781,781,781,781,781,781,781,781,781,781,781,781,781,781,781,781,781,781,781,781,781,781,781,781,781,781,781,781,781,781,781,781,781,781,781,781,781,781,781,781,781,781,781,781,781,781,781,781,781,781,781,781,781,781,781,781,781,781,781,781,781,781,781,781,781,781,781,781,781,781,781,781,781,781,781,781,781,781,781,781,781,781,781,782,783,785,789,805,822,864,888,899,911,947,968,976,977,977,977,977,977,977,977,977,977,979,981,999,1013,1028,1028,1028,1028,1028,1028,1028,1028,1030,1050,1074],"ymouse":[560,560,560,560,560,560,560,560,560,560,560,560,560,560,560,560,560,560,560,560,560,560,560,560,560,560,560,560,560,560,560,560,560,560,560,560,560,560,561,562,562,562,562,562,562,562,562,562,564,564,564,564,564,567,569,569,569,569,575,579,580,581,582,584,594,594,594,594,594,594,594,595,596,607,619,620,621,621,621,621,621,621,621,621,621,621,621,621,621,621,621,621,621,621,621,621,621,621,621,621,621,621,621,621,621,621,621,621,621,621,621,621,621,621,621,621,621,621,621,621,621,621,621,621,621,621,621,621,621,621,621,621,621,621,621,621,621,621,621,621,621,621,621,621,621,621,621,621,621,621,621,621,621,621,621,621,621,621,616,609,599,586,549,508,389,308,224,153,35,0,0,0,0,0,0,0,0,0,0,0,0,0,0,0,0,0,0,0,0,0,0,0,0,13,28],"timestamp_mouse":[10,24,46,64,84,104,123,143,164,185,205,224,244,264,283,303,324,344,364,385,404,425,444,464,484,504,524,543,565,583,603,624,643,663,685,705,724,744,765,784,803,824,844,863,884,905,925,944,964,983,1004,1025,1043,1064,1084,1103,1124,1143,1164,1184,1204,1225,1244,1263,1283,1303,1324,1343,1365,1383,1404,1425,1443,1463,1483,1505,1524,1544,1565,1583,1605,1625,1644,1665,1685,1703,1723,1744,1765,1784,1805,1823,1844,1865,1885,1903,1925,1945,1964,1983,2004,2024,2045,2064,2083,2105,2123,2143,2165,2183,2205,2223,2244,2265,2284,2303,2325,2344,2364,2384,2404,2424,2444,2464,2483,2503,2525,2543,2563,2585,2604,2623,2644,2665,2683,2704,2723,2743,2765,2784,2804,2825,2844,2864,2884,2905,2925,2944,2964,2983,3005,3023,3043,3063,3084,3105,3125,3145,3163,3183,3204,3224,3245,3263,3284,3304,3324,3345,3364,3386,3404,3424,3445,3465,3484,3505,3524,3545,3564,3585,3605,3625,3645,3664,3685,3703,3724,3744,3764,3785,3804,3825,3844,3865,3884],"xSR":741.5,"ySR":501.8,"xT1":424.9,"yT1":0,"xT2":1058.1,"yT2":0,"toosoon":0,"cond_shown":"equaldotsize","ratio_trial":250,"smaller_num":"6","larger_num":"24","correct_side":1,"subjID":"samuelgonzalezgarcia6","gender":"0","age":"10","school":"4","test":{"fix_dur":[250,1500],"timestim":300,"targets_dim":[100,100],"targets_relative_coord":[0.3,0.7],"size_stim":[880,420],"start_dim":[100,100],"size_start":[300,300],"size_fix":60,"samplingrate":20,"img_types":["equaldotsize","equaldotanddens","randomdotsizeEA"],"ratios":[250,500,750,900],"rep_conds":9,"nTrials":120,"trials_to_rest":500,"Trials_order":[72,58,20,41,96,94,110,114,26,44,13,90,82,83,25,28,50,66,98,6,73,106,116,40,81,79,27,87,39,70,59,42,107,71,80,85,108,43,11,111,18,65,95,76,53,84,86,61,2,102,118,16,104,8,32,15,52,89,100,115,57,60,48,45,78,97,46,21,17,55,101,69,22,47,117,4,1,36,34,5,38,9,31,37,49,12,109,77,74,23,35,112,91,93,88,0,68,56,113,24,75,67,3,63,29,30,7,19,103,10,54,14,119,51,62,92,64,105,33,99],"cond_shown":["equaldotsize","equaldotanddens","randomdotsizeEA","randomdotsizeEA","equaldotsize","equaldotanddens","randomdotsizeEA","equaldotsize","randomdotsizeEA","randomdotsizeEA","equaldotanddens","equaldotsize","equaldotanddens","randomdotsizeEA","equaldotanddens","equaldotanddens","randomdotsizeEA","equaldotsize","randomdotsizeEA","equaldotsize","equaldotanddens","equaldotanddens","randomdotsizeEA","equaldotanddens","equaldotsize","equaldotanddens","equaldotsize","equaldotsize","equaldotsize","equaldotanddens","randomdotsizeEA","equaldotsize","randomdotsizeEA","randomdotsizeEA","randomdotsizeEA","equaldotanddens","equaldotsize","equaldotanddens","randomdotsizeEA","equaldotsize","equaldotsize","randomdotsizeEA","randomdotsizeEA","equaldotanddens","randomdotsizeEA","equaldotsize","randomdotsizeEA","equaldotanddens","randomdotsizeEA","equaldotsize","equaldotanddens","equaldotanddens","randomdotsizeEA","randomdotsizeEA","randomdotsizeEA","equaldotsize","equaldotanddens","randomdotsizeEA","equaldotanddens","equaldotanddens","equaldotsize","equaldotsize","equaldotsize","equaldotsize","equaldotsize","equaldotanddens","equaldotanddens","equaldotsize","randomdotsizeEA","equaldotanddens","randomdotsizeEA","equaldotsize","equaldotanddens","randomdotsizeEA","equaldotsize","equaldotanddens","equaldotanddens","equaldotsize","equaldotanddens","randomdotsizeEA","randomdotsizeEA","equaldotsize","equaldotanddens","equaldotanddens","equaldotanddens","equaldotsize","equaldotanddens","randomdotsizeEA","randomdotsizeEA","randomdotsizeEA","randomdotsizeEA","equaldotanddens","equaldotanddens","equaldotsize","equaldotanddens","equaldotsize","randomdotsizeEA","randomdotsizeEA","randomdotsizeEA","equaldotsize","equaldotsize","equaldotanddens","equaldotsize","equaldotsize","randomdotsizeEA","equaldotsize","equaldotanddens","equaldotanddens","equaldotanddens","equaldotanddens","equaldotsize","randomdotsizeEA","randomdotsizeEA","equaldotsize","randomdotsizeEA","randomdotsizeEA","equaldotanddens","equaldotsize","equaldotsize","equaldotsize"],"ratio_trial":[250,900,750,500,250,900,250,750,250,750,250,750,900,900,250,500,250,750,250,750,250,900,750,500,900,750,500,500,500,900,900,750,900,900,750,250,250,750,900,500,750,500,900,500,500,250,250,250,250,750,900,500,750,750,750,500,500,500,500,750,900,250,250,900,750,250,900,900,500,750,500,900,900,900,900,500,250,250,900,500,250,900,750,250,250,250,250,500,250,900,900,500,750,900,500,250,750,750,500,250,500,750,500,500,500,750,750,750,750,900,750,250,900,500,250,750,500,900,900,500],"smaller_num":["6","18","18","6","4","18","6","15","2","3","3","12","9","18","2","9","3","3","1","15","3","18","3","5","18","15","2","4","2","18","18","3","18","9","15","3","4","15","9","10","6","1","18","4","2","2","3","1","4","15","18","6","15","15","6","6","2","4","2","18","9","2","2","18","15","3","18","9","2","3","3","18","18","18","18","6","2","2","9","5","3","18","15","2","3","3","4","10","4","18","9","1","3","18","6","3","12","9","1","3","9","9","2","9","6","15","6","9","15","18","12","6","18","5","1","3","5","18","18","10"],"larger_num":["24","20","24","12","16","20","24","20","8","4","12","16","10","20","8","18","12","4","4","20","12","20","4","10","20","20","4","8","4","20","20","4","20","10","20","12","16","20","10","20","8","2","20","8","4","8","12","4","16","20","20","12","20","20","8","12","4","8","4","24","10","8","8","20","20","12","20","10","4","4","6","20","20","20","20","12","8","8","10","10","12","20","20","8","12","12","16","20","16","20","10","2","4","20","12","12","16","12","2","12","18","12","4","18","12","20","8","12","20","20","16","24","20","10","4","4","10","20","20","20"],"correct_side":[1,2,1,1,1,1,2,2,1,1,2,2,2,1,1,1,1,1,2,2,2,1,1,2,1,2,1,1,1,1,1,1,1,2,2,1,1,1,1,2,1,2,1,1,2,1,1,2,1,1,1,1,2,2,1,1,1,1,1,1,2,2,1,1,2,1,1,2,1,1,2,1,2,2,1,1,2,1,2,2,1,1,1,1,2,2,1,2,1,1,1,2,2,2,1,1,2,2,2,1,2,2,1,2,1,1,1,2,1,1,2,1,1,1,2,1,1,2,1,2],"img_shown":["img/250/equaldotsize/L/5_Ratio_250_L_24_R_6.png","img/900/equaldotanddens/R/11_Ratio_900_L_18_R_20.png","img/750/randomdotsizeEA/L/6_Ratio_750_L_24_R_18.png","img/500/randomdotsizeEA/L/11_Ratio_500_L_12_R_6.png","img/250/equaldotsize/L/2_Ratio_250_L_16_R_4.png","img/900/equaldotanddens/L/4_Ratio_900_L_20_R_18.png","img/250/randomdotsizeEA/R/6_Ratio_250_L_6_R_24.png","img/750/equaldotsize/R/5_Ratio_750_L_15_R_20.png","img/250/randomdotsizeEA/L/3_Ratio_250_L_8_R_2.png","img/750/randomdotsizeEA/L/10_Ratio_750_L_4_R_3.png","img/250/equaldotanddens/R/11_Ratio_250_L_3_R_12.png","img/750/equaldotsize/R/11_Ratio_750_L_12_R_16.png","img/900/equaldotanddens/R/6_Ratio_900_L_9_R_10.png","img/900/randomdotsizeEA/L/2_Ratio_900_L_20_R_18.png","img/250/equaldotanddens/L/3_Ratio_250_L_8_R_2.png","img/500/equaldotanddens/L/4_Ratio_500_L_18_R_9.png","img/250/randomdotsizeEA/L/15_Ratio_250_L_12_R_3.png","img/750/equaldotsize/L/10_Ratio_750_L_4_R_3.png","img/250/randomdotsizeEA/R/8_Ratio_250_L_1_R_4.png","img/750/equaldotsize/R/4_Ratio_750_L_15_R_20.png","img/250/equaldotanddens/R/9_Ratio_250_L_3_R_12.png","img/900/equaldotanddens/L/4_Ratio_900_L_20_R_18.png","img/750/randomdotsizeEA/L/10_Ratio_750_L_4_R_3.png","img/500/equaldotanddens/R/14_Ratio_500_L_5_R_10.png","img/900/equaldotsize/L/10_Ratio_900_L_20_R_18.png","img/750/equaldotanddens/R/5_Ratio_750_L_15_R_20.png","img/500/equaldotsize/L/10_Ratio_500_L_4_R_2.png","img/500/equaldotsize/L/8_Ratio_500_L_8_R_4.png","img/500/equaldotsize/L/5_Ratio_500_L_4_R_2.png","img/900/equaldotanddens/L/4_Ratio_900_L_20_R_18.png","img/900/randomdotsizeEA/L/10_Ratio_900_L_20_R_18.png","img/750/equaldotsize/L/9_Ratio_750_L_4_R_3.png","img/900/randomdotsizeEA/L/4_Ratio_900_L_20_R_18.png","img/900/randomdotsizeEA/R/7_Ratio_900_L_9_R_10.png","img/750/randomdotsizeEA/R/3_Ratio_750_L_15_R_20.png","img/250/equaldotanddens/L/15_Ratio_250_L_12_R_3.png","img/250/equaldotsize/L/2_Ratio_250_L_16_R_4.png","img/750/equaldotanddens/L/1_Ratio_750_L_20_R_15.png","img/900/randomdotsizeEA/L/1_Ratio_900_L_10_R_9.png","img/500/equaldotsize/R/3_Ratio_500_L_10_R_20.png","img/750/equaldotsize/L/14_Ratio_750_L_8_R_6.png","img/500/randomdotsizeEA/R/15_Ratio_500_L_1_R_2.png","img/900/randomdotsizeEA/L/4_Ratio_900_L_20_R_18.png","img/500/equaldotanddens/L/8_Ratio_500_L_8_R_4.png","img/500/randomdotsizeEA/R/9_Ratio_500_L_2_R_4.png","img/250/equaldotsize/L/7_Ratio_250_L_8_R_2.png","img/250/randomdotsizeEA/L/15_Ratio_250_L_12_R_3.png","img/250/equaldotanddens/R/8_Ratio_250_L_1_R_4.png","img/250/randomdotsizeEA/L/2_Ratio_250_L_16_R_4.png","img/750/equaldotsize/L/1_Ratio_750_L_20_R_15.png","img/900/equaldotanddens/L/10_Ratio_900_L_20_R_18.png","img/500/equaldotanddens/L/11_Ratio_500_L_12_R_6.png","img/750/randomdotsizeEA/R/4_Ratio_750_L_15_R_20.png","img/750/randomdotsizeEA/R/4_Ratio_750_L_15_R_20.png","img/750/randomdotsizeEA/L/13_Ratio_750_L_8_R_6.png","img/500/equaldotsize/L/13_Ratio_500_L_12_R_6.png","img/500/equaldotanddens/L/10_Ratio_500_L_4_R_2.png","img/500/randomdotsizeEA/L/8_Ratio_500_L_8_R_4.png","img/500/equaldotanddens/L/5_Ratio_500_L_4_R_2.png","img/750/equaldotanddens/L/6_Ratio_750_L_24_R_18.png","img/900/equaldotsize/R/5_Ratio_900_L_9_R_10.png","img/250/equaldotsize/R/13_Ratio_250_L_2_R_8.png","img/250/equaldotsize/L/1_Ratio_250_L_8_R_2.png","img/900/equaldotsize/L/2_Ratio_900_L_20_R_18.png","img/750/equaldotsize/R/4_Ratio_750_L_15_R_20.png","img/250/equaldotanddens/L/15_Ratio_250_L_12_R_3.png","img/900/equaldotanddens/L/8_Ratio_900_L_20_R_18.png","img/900/equaldotsize/R/7_Ratio_900_L_9_R_10.png","img/500/randomdotsizeEA/L/5_Ratio_500_L_4_R_2.png","img/750/equaldotanddens/L/9_Ratio_750_L_4_R_3.png","img/500/randomdotsizeEA/R/2_Ratio_500_L_3_R_6.png","img/900/equaldotsize/L/10_Ratio_900_L_20_R_18.png","img/900/equaldotanddens/R/14_Ratio_900_L_18_R_20.png","img/900/randomdotsizeEA/R/13_Ratio_900_L_18_R_20.png","img/900/equaldotsize/L/2_Ratio_900_L_20_R_18.png","img/500/equaldotanddens/L/11_Ratio_500_L_12_R_6.png","img/250/equaldotanddens/R/13_Ratio_250_L_2_R_8.png","img/250/equaldotsize/L/7_Ratio_250_L_8_R_2.png","img/900/equaldotanddens/R/6_Ratio_900_L_9_R_10.png","img/500/randomdotsizeEA/R/14_Ratio_500_L_5_R_10.png","img/250/randomdotsizeEA/L/14_Ratio_250_L_12_R_3.png","img/900/equaldotsize/L/4_Ratio_900_L_20_R_18.png","img/750/equaldotanddens/L/1_Ratio_750_L_20_R_15.png","img/250/equaldotanddens/L/3_Ratio_250_L_8_R_2.png","img/250/equaldotanddens/R/4_Ratio_250_L_3_R_12.png","img/250/equaldotsize/R/9_Ratio_250_L_3_R_12.png","img/250/equaldotanddens/L/2_Ratio_250_L_16_R_4.png","img/500/randomdotsizeEA/R/3_Ratio_500_L_10_R_20.png","img/250/randomdotsizeEA/L/2_Ratio_250_L_16_R_4.png","img/900/randomdotsizeEA/L/10_Ratio_900_L_20_R_18.png","img/900/randomdotsizeEA/L/1_Ratio_900_L_10_R_9.png","img/500/equaldotanddens/R/12_Ratio_500_L_1_R_2.png","img/750/equaldotanddens/R/12_Ratio_750_L_3_R_4.png","img/900/equaldotsize/R/14_Ratio_900_L_18_R_20.png","img/500/equaldotanddens/L/11_Ratio_500_L_12_R_6.png","img/250/equaldotsize/L/15_Ratio_250_L_12_R_3.png","img/750/randomdotsizeEA/R/11_Ratio_750_L_12_R_16.png","img/750/randomdotsizeEA/R/15_Ratio_750_L_9_R_12.png","img/500/randomdotsizeEA/R/12_Ratio_500_L_1_R_2.png","img/250/equaldotsize/L/15_Ratio_250_L_12_R_3.png","img/500/equaldotsize/R/1_Ratio_500_L_9_R_18.png","img/750/equaldotanddens/R/15_Ratio_750_L_9_R_12.png","img/500/equaldotsize/L/5_Ratio_500_L_4_R_2.png","img/500/equaldotsize/R/6_Ratio_500_L_9_R_18.png","img/500/randomdotsizeEA/L/13_Ratio_500_L_12_R_6.png","img/750/equaldotsize/L/1_Ratio_750_L_20_R_15.png","img/750/equaldotanddens/L/14_Ratio_750_L_8_R_6.png","img/750/equaldotanddens/R/15_Ratio_750_L_9_R_12.png","img/750/equaldotanddens/L/1_Ratio_750_L_20_R_15.png","img/900/equaldotanddens/L/4_Ratio_900_L_20_R_18.png","img/750/equaldotsize/R/11_Ratio_750_L_12_R_16.png","img/250/randomdotsizeEA/L/5_Ratio_250_L_24_R_6.png","img/900/randomdotsizeEA/L/4_Ratio_900_L_20_R_18.png","img/500/equaldotsize/L/7_Ratio_500_L_10_R_5.png","img/250/randomdotsizeEA/R/8_Ratio_250_L_1_R_4.png","img/750/randomdotsizeEA/L/10_Ratio_750_L_4_R_3.png","img/500/equaldotanddens/L/7_Ratio_500_L_10_R_5.png","img/900/equaldotsize/R/13_Ratio_900_L_18_R_20.png","img/900/equaldotsize/L/8_Ratio_900_L_20_R_18.png","img/500/equaldotsize/R/3_Ratio_500_L_10_R_20.png"],"Rat0":[["12_Ratio_0_L_9_R_0.png","13_Ratio_0_L_6_R_0.png","5_Ratio_0_L_2_R_0.png","6_Ratio_0_L_4_R_0.png","8_Ratio_0_L_6_R_0.png"],["1_Ratio_0_L_0_R_17.png","10_Ratio_0_L_0_R_22.png","11_Ratio_0_L_0_R_1.png","14_Ratio_0_L_0_R_24.png","15_Ratio_0_L_0_R_4.png","2_Ratio_0_L_0_R_5.png","3_Ratio_0_L_0_R_17.png","4_Ratio_0_L_0_R_7.png","7_Ratio_0_L_0_R_19.png","9_Ratio_0_L_0_R_15.png"]],"Rat250":[["1_Ratio_250_L_8_R_2.png","14_Ratio_250_L_12_R_3.png","15_Ratio_250_L_12_R_3.png","2_Ratio_250_L_16_R_4.png","3_Ratio_250_L_8_R_2.png","5_Ratio_250_L_24_R_6.png","7_Ratio_250_L_8_R_2.png"],["10_Ratio_250_L_4_R_16.png","11_Ratio_250_L_3_R_12.png","12_Ratio_250_L_5_R_20.png","13_Ratio_250_L_2_R_8.png","4_Ratio_250_L_3_R_12.png","6_Ratio_250_L_6_R_24.png","8_Ratio_250_L_1_R_4.png","9_Ratio_250_L_3_R_12.png"]],"Rat500":[["10_Ratio_500_L_4_R_2.png","11_Ratio_500_L_12_R_6.png","13_Ratio_500_L_12_R_6.png","4_Ratio_500_L_18_R_9.png","5_Ratio_500_L_4_R_2.png","7_Ratio_500_L_10_R_5.png","8_Ratio_500_L_8_R_4.png"],["1_Ratio_500_L_9_R_18.png","12_Ratio_500_L_1_R_2.png","14_Ratio_500_L_5_R_10.png","15_Ratio_500_L_1_R_2.png","2_Ratio_500_L_3_R_6.png","3_Ratio_500_L_10_R_20.png","6_Ratio_500_L_9_R_18.png","9_Ratio_500_L_2_R_4.png"]],"Rat750":[["1_Ratio_750_L_20_R_15.png","10_Ratio_750_L_4_R_3.png","13_Ratio_750_L_8_R_6.png","14_Ratio_750_L_8_R_6.png","6_Ratio_750_L_24_R_18.png","8_Ratio_750_L_4_R_3.png","9_Ratio_750_L_4_R_3.png"],["11_Ratio_750_L_12_R_16.png","12_Ratio_750_L_3_R_4.png","15_Ratio_750_L_9_R_12.png","2_Ratio_750_L_6_R_8.png","3_Ratio_750_L_15_R_20.png","4_Ratio_750_L_15_R_20.png","5_Ratio_750_L_15_R_20.png","7_Ratio_750_L_3_R_4.png"]],"Rat900":[["1_Ratio_900_L_10_R_9.png","10_Ratio_900_L_20_R_18.png","2_Ratio_900_L_20_R_18.png","4_Ratio_900_L_20_R_18.png","8_Ratio_900_L_20_R_18.png"],["11_Ratio_900_L_18_R_20.png","12_Ratio_900_L_18_R_20.png","13_Ratio_900_L_18_R_20.png","14_Ratio_900_L_18_R_20.png","15_Ratio_900_L_9_R_10.png","3_Ratio_900_L_9_R_10.png","5_Ratio_900_L_9_R_10.png","6_Ratio_900_L_9_R_10.png","7_Ratio_900_L_9_R_10.png","9_Ratio_900_L_18_R_20.png"]],"Rat1000":[["10_Ratio_1000_L_16_R_16.png","11_Ratio_1000_L_6_R_6.png","12_Ratio_1000_L_14_R_14.png","13_Ratio_1000_L_20_R_20.png","15_Ratio_1000_L_15_R_15.png","2_Ratio_1000_L_17_R_17.png","4_Ratio_1000_L_9_R_9.png","5_Ratio_1000_L_6_R_6.png","6_Ratio_1000_L_19_R_19.png","8_Ratio_1000_L_14_R_14.png","9_Ratio_1000_L_25_R_25.png"],["1_Ratio_1000_L_1_R_1.png","14_Ratio_1000_L_17_R_17.png","3_Ratio_1000_L_17_R_17.png","7_Ratio_1000_L_6_R_6.png"]]}},{"start_time":1552054733910,"click_time":1552054735981,"finger_time":1552054734740,"fix_duration":287.24563080782895,"trial":1,"RT":830,"MT":1241,"sideResp":2,"stimulus":"img/900/equaldotanddens/R/11_Ratio_900_L_18_R_20.png","xmouse":[811,811,811,811,811,811,811,811,811,811,811,811,811,811,811,811,811,811,811,811,811,811,811,811,811,811,811,811,811,811,811,811,811,811,811,811,811,811,811,826,836,842,845,845,845,845,845,846,851,854,854,854,854,854,854,854,854,854,854,854,854,841,821,797,764,763,763,763,762,762,762,762,762,762,762,762,763,768,769,795,807,814,815,815,815,815,817,837,845,861,864,864,864,864,864,864,869,880,908,978,1030,1091,1152],"ymouse":[623,623,623,623,623,623,623,623,623,623,623,623,623,623,623,623,623,623,623,623,623,623,623,623,623,623,623,623,623,623,623,623,623,623,623,623,623,623,617,576,550,526,513,507,507,507,507,515,538,544,545,545,545,545,545,545,545,545,545,545,547,548,548,548,554,555,555,555,557,557,557,557,557,558,564,567,572,580,581,599,603,605,605,605,605,606,606,608,608,608,608,608,608,608,594,577,551,519,458,331,240,133,19],"timestamp_mouse":[14,56,70,91,110,131,152,172,191,211,232,251,270,292,311,332,351,371,392,411,430,451,471,491,510,530,551,572,590,610,632,650,671,690,712,730,750,772,790,812,830,850,872,891,911,931,951,972,992,1011,1031,1050,1071,1090,1112,1131,1151,1171,1191,1211,1231,1250,1270,1290,1311,1330,1351,1371,1392,1412,1430,1451,1470,1491,1511,1531,1551,1570,1590,1611,1631,1650,1670,1691,1710,1731,1751,1770,1791,1811,1832,1852,1871,1890,1911,1930,1951,1972,1991,2011,2031,2050,2070],"xSR":741.5,"ySR":573.95,"xT1":424.9,"yT1":0,"xT2":1058.1,"yT2":0,"toosoon":0,"cond_shown":"equaldotanddens","ratio_trial":900,"smaller_num":"18","larger_num":"20","correct_side":2,"subjID":"samuelgonzalezgarcia6","gender":"0","age":"10","school":"4"},{"start_time":1552054738919,"click_time":1552054740621,"finger_time":1552054740100,"fix_duration":594.2097821724499,"trial":2,"RT":1181,"MT":521,"sideResp":1,"stimulus":"img/750/randomdotsizeEA/L/6_Ratio_750_L_24_R_18.png","xmouse":[777,777,777,777,777,777,777,777,777,777,777,777,777,783,785,786,786,786,786,786,786,786,786,786,786,786,786,786,786,786,786,786,786,786,786,786,786,786,786,786,786,786,786,786,786,786,786,786,786,786,786,786,786,786,786,786,786,785,771,757,737,731,725,713,696,657,646,642,638,633,619,552,501,442,402,387,392,397,401,404,405,405,405,405,421,451],"ymouse":[671,671,671,671,671,671,671,671,671,671,671,671,671,665,663,660,660,660,660,660,660,660,660,660,660,660,660,660,660,660,660,660,660,660,660,660,660,660,660,660,660,660,660,660,660,660,660,660,660,660,660,660,660,660,660,660,659,653,612,563,514,502,491,475,453,406,397,394,389,384,367,294,239,185,148,96,73,52,38,26,17,17,17,16,17,23],"timestamp_mouse":[11,37,42,63,81,101,121,143,163,183,202,222,242,263,283,301,322,341,363,382,401,422,441,463,483,502,523,543,561,582,603,623,643,662,681,701,722,742,761,783,803,821,841,861,881,901,922,941,961,983,1001,1021,1043,1062,1081,1102,1121,1142,1162,1181,1201,1222,1242,1261,1283,1302,1321,1342,1362,1383,1401,1422,1441,1461,1483,1502,1521,1541,1561,1583,1602,1623,1642,1662,1681,1702],"xSR":741.5,"ySR":573.95,"xT1":424.9,"yT1":0,"xT2":1058.1,"yT2":0,"toosoon":0,"cond_shown":"randomdotsizeEA","ratio_trial":750,"smaller_num":"18","larger_num":"24","correct_side":1,"subjID":"samuelgonzalezgarcia6","gender":"0","age":"10","school":"4"},{"start_time":1552054743836,"click_time":1552054744920,"finger_time":1552054744740,"fix_duration":852.3563524290555,"trial":3,"RT":904,"MT":180,"sideResp":2,"stimulus":"img/500/randomdotsizeEA/L/11_Ratio_500_L_12_R_6.png","xmouse":[791,791,791,791,791,791,791,791,791,791,791,791,791,791,791,791,791,791,791,791,791,791,791,791,791,791,791,791,791,791,791,791,792,792,792,792,792,792,793,794,801,804,808,810,831,848,866,888,910,966,997,1026,1049,1075,1112],"ymouse":[647,647,647,647,647,647,647,647,647,647,647,647,647,647,647,647,647,647,647,647,647,647,647,647,647,647,647,647,647,647,647,647,644,643,641,641,641,641,640,638,628,624,617,615,578,552,520,481,441,361,317,276,232,170,83],"timestamp_mouse":[13,32,45,64,84,106,124,144,164,185,205,226,246,265,284,304,324,345,366,386,404,426,444,465,486,506,525,545,564,585,606,625,645,665,685,705,725,746,764,785,806,825,844,866,885,904,925,945,966,985,1004,1025,1045,1065,1084],"xSR":741.5,"ySR":573.95,"xT1":424.9,"yT1":0,"xT2":1058.1,"yT2":0,"toosoon":0,"cond_shown":"randomdotsizeEA","ratio_trial":500,"smaller_num":"6","larger_num":"12","correct_side":1,"subjID":"samuelgonzalezgarcia6","gender":"0","age":"10","school":"4"},{"start_time":1552054746908,"click_time":1552054748021,"finger_time":1552054747542,"fix_duration":1125.5190210142507,"trial":4,"RT":634,"MT":479,"sideResp":1,"stimulus":"img/250/equaldotsize/L/2_Ratio_250_L_16_R_4.png","xmouse":[815,815,815,815,815,815,815,815,815,815,815,815,812,809,808,808,808,808,808,808,808,808,808,808,808,808,808,808,808,808,807,772,732,689,651,619,617,616,616,616,616,616,616,616,615,606,597,589,578,563,499,476,463,460,460,460],"ymouse":[588,588,588,588,588,588,588,588,588,588,588,588,586,585,584,584,584,584,584,584,584,584,584,584,584,584,584,584,584,584,582,546,512,476,439,394,386,380,375,372,367,360,344,318,293,256,240,232,223,212,165,146,130,123,118,98],"timestamp_mouse":[13,35,54,74,93,112,132,153,174,193,213,234,253,273,293,313,332,352,374,393,412,433,454,472,492,513,534,554,573,592,612,634,653,674,692,713,732,752,772,793,813,832,852,874,894,913,932,952,972,994,1013,1032,1053,1073,1093,1113],"xSR":741.5,"ySR":573.95,"xT1":424.9,"yT1":0,"xT2":1058.1,"yT2":0,"toosoon":0,"cond_shown":"equaldotsize","ratio_trial":250,"smaller_num":"4","larger_num":"16","correct_side":1,"subjID":"samuelgonzalezgarcia6","gender":"0","age":"10","school":"4"},{"start_time":1552054751086,"click_time":1552054752021,"finger_time":1552054751642,"fix_duration":623.0530267914224,"trial":5,"RT":556,"MT":379,"sideResp":2,"stimulus":"img/900/equaldotanddens/L/4_Ratio_900_L_20_R_18.png","xmouse":[836,836,836,836,836,836,836,836,836,836,836,836,836,836,836,836,834,834,833,832,832,832,832,832,832,832,836,850,872,909,943,954,954,957,959,960,967,974,987,1005,1020,1031,1032,1039,1052,1058,1063],"ymouse":[648,648,648,648,648,648,648,648,648,648,648,648,648,648,648,648,646,645,643,640,637,632,629,627,625,621,606,583,543,467,361,266,233,211,200,196,187,176,156,129,109,95,94,93,90,86,77],"timestamp_mouse":[14,37,54,74,95,115,135,156,176,196,216,236,255,276,296,316,335,354,374,396,416,435,455,476,494,514,535,556,575,594,615,634,654,674,696,715,735,755,774,796,816,835,856,874,895,914,934],"xSR":741.5,"ySR":573.95,"xT1":424.9,"yT1":0,"xT2":1058.1,"yT2":0,"toosoon":0,"cond_shown":"equaldotanddens","ratio_trial":900,"smaller_num":"18","larger_num":"20","correct_side":1,"subjID":"samuelgonzalezgarcia6","gender":"0","age":"10","school":"4"},{"start_time":1552054753028,"click_time":1552054754622,"finger_time":1552054753820,"fix_duration":287.43747688005226,"trial":6,"RT":792,"MT":802,"sideResp":1,"stimulus":"img/250/randomdotsizeEA/R/6_Ratio_250_L_6_R_24.png","xmouse":[770,770,770,770,770,770,770,770,770,770,770,770,770,770,770,770,770,770,770,770,770,770,770,770,770,770,770,770,770,770,770,770,770,770,770,770,770,768,762,753,749,739,699,585,523,214,178,177,177,177,177,178,208,251,298,303,307,313,319,346,353,353,353,353,357,362,369,372,380,391,402,408,420,449,465,465,465,465,465,467],"ymouse":[646,646,646,646,646,646,646,646,646,646,646,646,646,646,646,646,646,646,646,646,646,646,646,646,646,646,646,646,646,646,643,642,642,642,633,626,618,605,589,557,535,507,422,253,184,0,0,0,0,0,0,0,12,30,42,42,41,37,35,31,29,29,29,28,26,24,19,14,6,0,0,0,0,0,0,0,0,0,0,1],"timestamp_mouse":[17,40,52,74,93,114,132,153,174,193,212,232,254,272,293,313,333,354,374,393,412,433,453,472,494,512,532,553,573,592,613,634,653,673,692,713,733,753,773,792,812,833,854,873,894,914,932,953,974,993,1012,1032,1052,1073,1092,1113,1132,1153,1172,1194,1213,1233,1254,1274,1294,1313,1332,1353,1373,1392,1414,1433,1453,1474,1493,1514,1533,1553,1572,1593],"xSR":741.5,"ySR":573.95,"xT1":424.9,"yT1":0,"xT2":1058.1,"yT2":0,"toosoon":0,"cond_shown":"randomdotsizeEA","ratio_trial":250,"smaller_num":"6","larger_num":"24","correct_side":2,"subjID":"samuelgonzalezgarcia6","gender":"0","age":"10","school":"4"},{"start_time":1552054756550,"click_time":1552054757161,"finger_time":1552054756661,"fix_duration":1028.3508818976336,"trial":7,"RT":111,"MT":500,"sideResp":2,"stimulus":"img/750/equaldotsize/R/5_Ratio_750_L_15_R_20.png","xmouse":[833,833,833,836,840,845,853,855,859,861,865,873,882,900,910,922,924,929,946,953,962,971,980,1012,1023,1027,1027,1027,1034,1052,1075],"ymouse":[630,629,629,624,617,606,589,587,580,578,571,560,543,502,467,406,308,244,189,168,148,129,116,93,85,81,81,81,78,68,54],"timestamp_mouse":[13,37,51,70,92,111,130,150,171,191,210,231,252,270,290,311,331,352,370,392,411,431,451,471,490,511,531,550,570,591,611],"xSR":741.5,"ySR":573.95,"xT1":424.9,"yT1":0,"xT2":1058.1,"yT2":0,"toosoon":0,"cond_shown":"equaldotsize","ratio_trial":750,"smaller_num":"15","larger_num":"20","correct_side":2,"subjID":"samuelgonzalezgarcia6","gender":"0","age":"10","school":"4"},{"start_time":1552054759163,"click_time":1552054760860,"finger_time":1552054759821,"fix_duration":541.0651733478255,"trial":8,"RT":658,"MT":1039,"sideResp":2,"stimulus":"img/250/randomdotsizeEA/L/3_Ratio_250_L_8_R_2.png","xmouse":[812,812,812,812,812,812,812,812,812,812,812,812,812,812,812,812,812,812,812,812,812,808,803,803,803,803,803,803,803,803,808,816,870,891,897,908,913,941,957,973,982,983,984,986,995,1013,1036,1047,1049,1049,1049,1049,1049,1049,1050,1052,1053,1063,1067,1070,1071,1072,1076,1079,1079,1079,1079,1079,1079,1078,1074,1059,1047,1016,1016,1016,1016,1016,1016,1017,1026,1033,1037,1049,1063],"ymouse":[626,626,626,626,626,626,626,626,626,626,626,626,626,626,626,626,626,626,626,626,619,611,605,605,605,605,605,605,605,605,599,589,486,442,425,386,363,280,247,219,206,200,199,197,192,184,167,153,148,147,147,147,147,147,146,143,142,134,130,127,124,118,113,108,107,107,107,107,107,107,107,103,99,87,87,87,87,87,87,87,86,85,85,82,81],"timestamp_mouse":[18,37,59,79,98,118,138,159,178,197,217,239,259,277,297,317,337,357,378,398,419,439,457,478,499,519,538,559,577,597,618,638,658,677,698,718,738,758,777,798,818,838,858,877,898,918,939,958,978,999,1017,1038,1058,1079,1099,1118,1139,1158,1177,1197,1217,1237,1258,1278,1299,1318,1338,1358,1378,1398,1418,1437,1457,1478,1497,1518,1539,1558,1578,1599,1618,1638,1657,1678,1697],"xSR":741.5,"ySR":573.95,"xT1":424.9,"yT1":0,"xT2":1058.1,"yT2":0,"toosoon":0,"cond_shown":"randomdotsizeEA","ratio_trial":250,"smaller_num":"2","larger_num":"8","correct_side":1,"subjID":"samuelgonzalezgarcia6","gender":"0","age":"10","school":"4"},{"start_time":1552054762346,"click_time":1552054762681,"finger_time":1552054762440,"fix_duration":664.910228926735,"trial":9,"RT":94,"MT":241,"sideResp":1,"stimulus":"img/750/randomdotsizeEA/L/10_Ratio_750_L_4_R_3.png","xmouse":[810,810,805,777,737,705,683,655,633,626,617,609,601,581,557,526,502],"ymouse":[632,632,632,604,573,545,522,483,425,393,361,331,303,237,171,98,49],"timestamp_mouse":[15,35,55,75,94,114,135,154,174,196,215,236,256,274,294,315,335],"xSR":741.5,"ySR":573.95,"xT1":424.9,"yT1":0,"xT2":1058.1,"yT2":0,"toosoon":0,"cond_shown":"randomdotsizeEA","ratio_trial":750,"smaller_num":"3","larger_num":"4","correct_side":1,"subjID":"samuelgonzalezgarcia6","gender":"0","age":"10","school":"4"},{"start_time":1552054764620,"click_time":1552054765761,"finger_time":1552054765321,"fix_duration":1076.2999541697116,"trial":10,"RT":701,"MT":440,"sideResp":2,"stimulus":"img/250/equaldotanddens/R/11_Ratio_250_L_3_R_12.png","xmouse":[801,801,801,801,801,801,801,801,801,801,801,801,801,801,801,801,801,801,801,801,801,801,801,801,801,801,801,801,801,801,801,801,803,808,815,822,823,826,834,847,863,876,883,891,904,918,934,973,1041,1099,1140,1146,1147,1147,1149,1150,1150,1150],"ymouse":[636,636,636,636,636,636,636,636,636,636,636,636,636,636,636,636,636,636,636,636,636,636,636,636,636,636,636,636,636,636,636,628,622,609,588,570,565,556,537,510,471,425,404,385,363,345,332,311,269,224,159,140,126,121,116,108,100,93],"timestamp_mouse":[15,34,40,60,81,101,120,140,162,180,200,220,242,260,281,302,320,341,361,380,401,422,440,461,481,502,521,540,560,581,602,621,641,661,681,701,721,741,760,780,800,820,840,860,881,901,922,942,962,982,1001,1020,1041,1061,1082,1101,1120,1141],"xSR":741.5,"ySR":573.95,"xT1":424.9,"yT1":0,"xT2":1058.1,"yT2":0,"toosoon":0,"cond_shown":"equaldotanddens","ratio_trial":250,"smaller_num":"3","larger_num":"12","correct_side":2,"subjID":"samuelgonzalezgarcia6","gender":"0","age":"10","school":"4"},{"start_time":1552054767516,"click_time":1552054768340,"finger_time":1552054767980,"fix_duration":813.3903081359776,"trial":11,"RT":464,"MT":360,"sideResp":1,"stimulus":"img/750/equaldotsize/R/11_Ratio_750_L_12_R_16.png","xmouse":[811,811,811,811,811,811,811,811,811,811,811,811,811,811,811,811,806,802,798,798,798,797,793,784,771,730,694,656,608,562,438,395,370,365,365,365,365,369,374,376,406,431],"ymouse":[603,603,603,603,603,603,603,603,603,603,603,603,603,603,603,603,599,596,593,593,593,590,583,566,544,481,440,399,358,320,205,156,125,109,102,96,93,87,79,75,75,81],"timestamp_mouse":[13,39,45,64,86,105,126,145,166,185,205,224,245,265,286,304,324,344,364,386,405,426,446,464,485,505,524,544,564,585,605,625,645,665,685,705,724,745,765,785,805,824],"xSR":741.5,"ySR":573.95,"xT1":424.9,"yT1":0,"xT2":1058.1,"yT2":0,"toosoon":0,"cond_shown":"equaldotsize","ratio_trial":750,"smaller_num":"12","larger_num":"16","correct_side":2,"subjID":"samuelgonzalezgarcia6","gender":"0","age":"10","school":"4"},{"start_time":1552054783205,"click_time":1552054784641,"finger_time":1552054783802,"fix_duration":623.5590240270096,"trial":12,"RT":597,"MT":839,"sideResp":2,"stimulus":"img/900/equaldotanddens/R/6_Ratio_900_L_9_R_10.png","xmouse":[745,745,745,745,745,745,745,745,745,745,745,745,745,745,745,745,745,758,795,811,821,823,823,823,823,823,823,824,825,826,838,846,862,879,898,965,990,1010,1033,1055,1094,1112,1135,1162,1186,1189,1189,1190,1190,1190,1186,1179,1169,1155,1137,1114,1109,1103,1098,1092,1089,1087,1083,1078,1076,1078,1083,1090,1099,1112,1129,1135],"ymouse":[618,618,618,618,618,618,618,618,618,618,618,618,618,618,618,618,618,616,595,585,581,581,581,581,581,580,580,578,577,570,541,513,468,406,344,210,170,126,89,49,0,0,0,0,0,0,0,0,0,2,16,40,88,157,270,334,342,349,353,357,357,357,356,349,339,300,275,250,220,184,117,99],"timestamp_mouse":[16,35,56,76,96,115,137,157,176,196,216,235,257,277,297,316,336,356,377,397,416,435,456,476,497,516,535,555,576,597,616,635,655,675,696,716,735,755,777,797,816,837,857,877,897,916,936,955,975,996,1016,1035,1057,1077,1097,1117,1136,1156,1177,1196,1216,1235,1255,1275,1296,1316,1337,1355,1377,1397,1416,1435],"xSR":741.5,"ySR":573.95,"xT1":424.9,"yT1":0,"xT2":1058.1,"yT2":0,"toosoon":0,"cond_shown":"equaldotanddens","ratio_trial":900,"smaller_num":"9","larger_num":"10","correct_side":2,"subjID":"samuelgonzalezgarcia6","gender":"0","age":"10","school":"4"},{"start_time":1552054786766,"click_time":1552054787341,"finger_time":1552054786880,"fix_duration":943.7423749094074,"trial":13,"RT":114,"MT":461,"sideResp":1,"stimulus":"img/900/randomdotsizeEA/L/2_Ratio_900_L_20_R_18.png","xmouse":[795,795,795,795,794,788,785,757,743,738,738,738,738,735,730,724,720,691,644,579,523,494,480,463,461,461,461,470,476],"ymouse":[590,590,590,590,585,567,556,487,454,437,423,411,380,368,352,337,328,293,267,237,209,194,186,173,171,165,142,107,89],"timestamp_mouse":[21,48,55,75,95,114,134,154,174,195,216,234,255,274,294,314,334,355,375,395,416,435,455,475,495,515,535,555,575],"xSR":741.5,"ySR":573.95,"xT1":424.9,"yT1":0,"xT2":1058.1,"yT2":0,"toosoon":0,"cond_shown":"randomdotsizeEA","ratio_trial":900,"smaller_num":"18","larger_num":"20","correct_side":1,"subjID":"samuelgonzalezgarcia6","gender":"0","age":"10","school":"4"},{"start_time":1552054788730,"click_time":1552054789740,"finger_time":1552054789241,"fix_duration":506.9753439097117,"trial":14,"RT":511,"MT":499,"sideResp":2,"stimulus":"img/250/equaldotanddens/L/3_Ratio_250_L_8_R_2.png","xmouse":[828,828,828,828,828,828,828,828,828,828,828,828,828,828,828,828,828,828,828,828,828,828,828,829,834,838,845,859,870,955,987,1010,1022,1025,1025,1025,1025,1023,1023,1023,1023,1023,1023,1023,1023,1024,1025,1025,1025,1048,1103],"ymouse":[619,619,619,619,619,619,619,619,619,619,619,619,619,619,619,619,619,619,619,619,619,612,607,597,579,571,558,532,514,367,314,270,236,210,185,127,109,94,92,92,92,92,92,92,92,88,87,87,87,80,71],"timestamp_mouse":[11,38,50,71,91,112,130,152,183,191,210,230,251,271,290,310,329,350,371,390,411,430,451,471,490,511,530,550,570,590,610,630,650,671,691,711,731,749,771,790,811,830,851,870,891,910,930,950,970,990,1010],"xSR":741.5,"ySR":573.95,"xT1":424.9,"yT1":0,"xT2":1058.1,"yT2":0,"toosoon":0,"cond_shown":"equaldotanddens","ratio_trial":250,"smaller_num":"2","larger_num":"8","correct_side":1,"subjID":"samuelgonzalezgarcia6","gender":"0","age":"10","school":"4"},{"start_time":1552054862645,"click_time":1552054863495,"finger_time":1552054863414,"fix_duration":508.28857224870006,"trial":15,"RT":769,"MT":81,"sideResp":2,"stimulus":"img/500/equaldotanddens/L/4_Ratio_500_L_18_R_9.png","xmouse":[750,750,750,750,750,750,750,750,750,750,750,750,750,750,750,750,750,750,750,750,750,750,750,750,750,750,750,750,750,750,750,750,750,752,756,766,778,800,894,949,989,1020,1063],"ymouse":[637,637,637,637,637,637,637,637,637,637,637,637,637,637,637,637,637,637,637,637,637,637,637,637,637,637,637,637,637,637,637,637,637,634,629,621,609,580,439,340,236,136,17],"timestamp_mouse":[14,39,50,69,90,109,130,149,170,190,209,230,250,270,290,310,329,350,370,389,410,430,450,469,490,510,529,550,570,590,610,631,649,669,690,710,730,750,769,789,809,829,850],"xSR":741.5,"ySR":573.95,"xT1":424.9,"yT1":0,"xT2":1058.1,"yT2":0,"toosoon":0,"cond_shown":"equaldotanddens","ratio_trial":500,"smaller_num":"9","larger_num":"18","correct_side":1,"subjID":"samuelgonzalezgarcia6","gender":"0","age":"10","school":"4"},{"start_time":1552054864981,"click_time":1552054866134,"finger_time":1552054866015,"fix_duration":624.1200898683461,"trial":16,"RT":1034,"MT":119,"sideResp":2,"stimulus":"img/250/randomdotsizeEA/L/15_Ratio_250_L_12_R_3.png","xmouse":[777,777,777,777,777,777,777,777,777,777,777,777,777,777,777,777,777,777,777,777,777,777,777,777,777,777,777,777,777,777,777,779,783,787,794,796,800,800,800,800,800,800,800,800,800,800,800,800,803,807,820,870,923,965,994,1019,1049,1077],"ymouse":[664,664,664,664,664,664,664,664,664,664,664,664,664,664,664,664,664,664,664,664,664,664,664,664,664,664,664,664,664,664,664,662,659,654,646,642,635,634,634,634,634,634,634,634,634,634,634,634,632,629,619,557,480,401,326,232,145,81],"timestamp_mouse":[19,43,53,73,93,113,133,153,174,193,214,233,253,273,293,314,334,354,373,393,414,433,454,473,493,514,533,554,573,593,613,633,654,673,694,714,733,754,773,794,813,834,854,874,894,914,934,955,973,994,1014,1034,1054,1074,1094,1113,1133,1153],"xSR":741.5,"ySR":573.95,"xT1":424.9,"yT1":0,"xT2":1058.1,"yT2":0,"toosoon":0,"cond_shown":"randomdotsizeEA","ratio_trial":250,"smaller_num":"3","larger_num":"12","correct_side":1,"subjID":"samuelgonzalezgarcia6","gender":"0","age":"10","school":"4"},{"start_time":1552054867560,"click_time":1552054867775,"finger_time":1552054867614,"fix_duration":703.4488796783933,"trial":17,"RT":54,"MT":161,"sideResp":1,"stimulus":"img/750/equaldotsize/L/10_Ratio_750_L_4_R_3.png","xmouse":[749,747,722,682,628,583,538,505,499,497,497],"ymouse":[597,583,503,427,345,280,210,151,128,107,84],"timestamp_mouse":[14,41,54,75,94,115,134,154,176,194,215],"xSR":741.5,"ySR":573.95,"xT1":424.9,"yT1":0,"xT2":1058.1,"yT2":0,"toosoon":0,"cond_shown":"equaldotsize","ratio_trial":750,"smaller_num":"3","larger_num":"4","correct_side":1,"subjID":"samuelgonzalezgarcia6","gender":"0","age":"10","school":"4"},{"start_time":1552054917828,"click_time":1552054919354,"finger_time":1552054919014,"fix_duration":1071.9083726214726,"trial":18,"RT":1186,"MT":340,"sideResp":2,"stimulus":"img/250/randomdotsizeEA/R/8_Ratio_250_L_1_R_4.png","xmouse":[779,779,779,779,779,779,779,779,779,779,779,779,779,779,779,779,779,779,779,779,779,779,779,779,779,779,779,779,779,779,779,779,779,779,779,779,779,779,779,779,779,779,779,779,779,779,779,779,779,779,779,778,779,781,786,790,793,795,801,848,896,939,966,975,989,999,1003,1010,1012,1021,1022,1020,1018,1018,1038,1048,1059],"ymouse":[650,650,650,650,650,650,650,650,650,650,650,650,650,650,650,650,650,650,650,650,650,650,650,650,650,650,650,650,650,650,650,650,650,650,650,650,650,650,650,650,650,650,650,650,650,650,650,650,650,650,650,647,646,645,636,627,616,601,581,524,486,433,400,385,353,330,313,286,262,206,182,162,143,125,73,51,30],"timestamp_mouse":[13,36,46,67,87,107,126,147,167,186,206,226,246,267,286,307,327,346,367,386,407,426,446,468,487,507,528,547,566,588,606,626,647,666,687,707,726,746,766,786,806,827,847,866,887,906,926,947,966,986,1007,1027,1047,1066,1086,1107,1127,1147,1166,1186,1206,1226,1246,1266,1286,1307,1326,1347,1366,1386,1406,1427,1447,1467,1486,1508,1526],"xSR":741.5,"ySR":573.95,"xT1":424.9,"yT1":0,"xT2":1058.1,"yT2":0,"toosoon":0,"cond_shown":"randomdotsizeEA","ratio_trial":250,"smaller_num":"1","larger_num":"4","correct_side":2,"subjID":"samuelgonzalezgarcia6","gender":"0","age":"10","school":"4"},{"start_time":1552054921622,"click_time":1552054922790,"finger_time":1552054922310,"fix_duration":1330.8442379823998,"trial":19,"RT":688,"MT":480,"sideResp":2,"stimulus":"img/750/equaldotsize/R/4_Ratio_750_L_15_R_20.png","xmouse":[801,801,801,801,801,801,801,801,801,801,801,801,801,801,801,801,801,801,801,801,801,801,801,801,801,801,801,801,801,801,801,802,810,815,849,869,887,900,908,921,926,929,932,946,959,961,962,968,983,1004,1015,1023,1025,1026,1032,1038,1049,1056,1059],"ymouse":[655,655,655,655,655,655,655,655,655,655,655,655,655,655,655,655,655,655,655,655,655,655,655,655,655,655,655,655,655,655,654,651,637,625,560,450,321,239,179,111,75,44,12,0,0,0,0,0,0,0,0,0,0,1,3,7,12,15,18],"timestamp_mouse":[13,38,49,68,89,107,129,147,169,189,208,229,248,269,289,307,327,347,369,388,409,428,448,469,487,508,527,548,568,587,607,628,649,668,688,708,727,748,767,787,807,828,849,868,888,907,928,948,968,989,1007,1028,1048,1069,1089,1107,1128,1148,1168],"xSR":741.5,"ySR":573.95,"xT1":424.9,"yT1":0,"xT2":1058.1,"yT2":0,"toosoon":0,"cond_shown":"equaldotsize","ratio_trial":750,"smaller_num":"15","larger_num":"20","correct_side":2,"subjID":"samuelgonzalezgarcia6","gender":"0","age":"10","school":"4"},{"start_time":1552054924323,"click_time":1552054925331,"finger_time":1552054925009,"fix_duration":250,"trial":20,"RT":686,"MT":322,"sideResp":2,"stimulus":"img/250/equaldotanddens/R/9_Ratio_250_L_3_R_12.png","xmouse":[810,810,810,810,810,810,810,810,810,810,810,810,810,810,810,810,810,810,810,810,810,810,810,810,810,810,810,810,810,810,810,810,810,814,838,863,880,891,895,911,926,937,951,973,1000,1002,1002,1002,1002,1025,1082],"ymouse":[618,618,618,618,618,618,618,618,618,618,618,618,618,618,618,618,618,618,618,618,618,618,618,618,618,618,618,618,618,618,618,618,618,613,569,512,442,363,243,120,85,61,45,31,18,16,16,16,16,21,29],"timestamp_mouse":[12,34,48,67,86,106,128,148,168,187,208,226,247,268,286,307,327,346,367,387,408,426,446,468,486,508,527,547,567,588,606,626,648,667,686,706,727,747,767,786,808,827,847,867,887,906,926,948,967,987,1007],"xSR":741.5,"ySR":573.95,"xT1":424.9,"yT1":0,"xT2":1058.1,"yT2":0,"toosoon":0,"cond_shown":"equaldotanddens","ratio_trial":250,"smaller_num":"3","larger_num":"12","correct_side":2,"subjID":"samuelgonzalezgarcia6","gender":"0","age":"10","school":"4"},{"start_time":1552054928003,"click_time":1552054929071,"finger_time":1552054928710,"fix_duration":250,"trial":21,"RT":707,"MT":361,"sideResp":1,"stimulus":"img/900/equaldotanddens/L/4_Ratio_900_L_20_R_18.png","xmouse":[783,783,783,783,783,783,783,783,783,783,783,783,783,783,783,783,783,783,783,783,783,783,783,783,783,783,783,783,783,783,783,783,783,781,778,734,704,670,641,605,553,528,507,493,488,488,493,496,498,501,509,510,510,510],"ymouse":[614,614,614,614,614,614,614,614,614,614,614,614,614,614,614,614,614,614,614,614,614,614,614,614,614,614,614,614,614,614,614,608,602,582,574,507,474,438,403,359,284,246,218,198,188,178,164,148,134,122,104,100,100,99],"timestamp_mouse":[21,46,46,67,87,107,127,147,167,187,207,227,247,267,286,307,327,348,367,386,408,426,446,466,488,506,527,546,567,587,608,628,647,666,687,707,727,747,767,788,806,826,848,868,888,908,926,947,967,987,1007,1027,1048,1068],"xSR":741.5,"ySR":573.95,"xT1":424.9,"yT1":0,"xT2":1058.1,"yT2":0,"toosoon":0,"cond_shown":"equaldotanddens","ratio_trial":900,"smaller_num":"18","larger_num":"20","correct_side":1,"subjID":"samuelgonzalezgarcia6","gender":"0","age":"10","school":"4"},{"start_time":1552054930773,"click_time":1552054931950,"finger_time":1552054931430,"fix_duration":341.0315233063184,"trial":22,"RT":657,"MT":520,"sideResp":2,"stimulus":"img/750/randomdotsizeEA/L/10_Ratio_750_L_4_R_3.png","xmouse":[807,807,807,807,807,807,807,807,807,807,807,807,807,807,807,807,807,807,807,807,807,807,807,807,807,807,807,807,809,811,815,840,853,868,877,886,900,905,908,912,922,931,943,943,943,943,957,964,971,976,978,984,988,997,1002,1010,1041,1057,1067],"ymouse":[622,622,622,622,622,622,622,622,622,622,622,622,622,622,622,622,622,622,622,622,622,622,622,622,622,622,622,622,619,616,611,588,578,566,556,537,507,496,487,478,463,433,315,287,263,217,144,123,107,97,89,79,75,72,72,71,71,71,71],"timestamp_mouse":[16,36,58,78,97,118,136,157,177,197,218,238,258,278,296,317,337,358,377,397,416,437,457,478,497,517,538,557,576,597,617,636,657,677,698,717,737,757,777,796,817,836,857,876,896,917,936,956,977,997,1016,1037,1056,1078,1097,1116,1136,1156,1176],"xSR":741.5,"ySR":573.95,"xT1":424.9,"yT1":0,"xT2":1058.1,"yT2":0,"toosoon":0,"cond_shown":"randomdotsizeEA","ratio_trial":750,"smaller_num":"3","larger_num":"4","correct_side":1,"subjID":"samuelgonzalezgarcia6","gender":"0","age":"10","school":"4"},{"start_time":1552054944145,"click_time":1552054949150,"finger_time":1552054944409,"fix_duration":874.3253303095988,"trial":23,"RT":264,"MT":4741,"sideResp":2,"stimulus":"img/500/equaldotanddens/R/14_Ratio_500_L_5_R_10.png","xmouse":[815,815,815,815,815,815,815,815,815,815,815,819,825,848,855,864,876,897,915,916,919,924,932,940,941,941,941,941,941,941,941,941,941,941,941,941,941,936,930,918,910,904,903,901,901,901,901,901,901,901,901,901,901,901,901,901,901,901,901,901,901,901,901,901,901,901,901,901,901,901,901,901,901,901,901,901,901,901,901,901,901,901,901,901,901,901,901,901,901,901,901,901,901,901,901,901,901,894,871,868,868,868,868,868,868,868,868,868,868,868,868,868,867,867,867,867,867,867,867,867,867,867,867,867,867,867,867,867,867,867,867,867,867,867,867,867,867,867,867,867,867,867,867,867,867,867,867,867,867,867,867,867,867,867,867,867,867,867,867,867,867,867,867,867,867,867,867,867,867,867,867,867,867,867,867,867,867,867,867,867,867,867,867,867,867,867,867,867,867,867,867,867,867,867,867,867,867,867,867,867,867,867,867,867,867,867,864,847,742,736,739,743,754,774,781,785,789,793,806,812,820,827,835,857,868,880,892,903,921,929,941,957,974,992,1000,1005,1018,1022,1057,1067,1073,1073,1074,1074,1074,1075,1078,1079,1083,1084,1086],"ymouse":[640,640,640,640,640,640,640,640,640,640,640,634,629,586,561,538,518,492,471,466,459,454,445,434,432,431,431,431,430,430,430,430,430,430,429,429,429,429,430,440,450,460,463,469,469,469,469,469,469,469,469,469,469,470,470,470,471,471,471,471,471,471,471,471,471,471,471,471,471,471,471,471,471,471,471,471,471,471,471,471,471,471,471,471,471,471,471,471,471,471,471,471,471,471,471,471,472,478,498,502,502,502,502,502,502,502,502,502,502,502,502,502,503,503,503,503,503,503,503,503,503,503,503,503,503,503,503,503,503,503,503,503,503,503,503,503,503,503,503,503,503,503,503,503,503,503,503,503,503,503,503,503,503,503,503,503,503,503,503,503,503,503,503,503,503,503,503,503,503,503,503,503,503,503,503,503,503,503,503,503,503,503,503,503,503,503,503,503,503,503,503,503,503,503,503,503,503,503,503,503,503,503,503,503,503,503,506,518,586,591,592,592,591,576,566,554,533,519,493,483,468,456,443,412,394,377,362,348,324,315,303,291,280,265,258,249,227,220,169,152,140,135,130,127,127,124,118,117,107,102,95],"timestamp_mouse":[14,39,45,66,86,105,125,145,166,186,205,225,244,264,284,304,325,344,365,384,405,425,445,465,484,505,525,545,564,586,605,626,646,665,685,706,726,746,765,785,804,825,845,865,886,904,924,945,965,986,1006,1025,1046,1064,1086,1106,1125,1145,1165,1186,1206,1226,1246,1266,1286,1306,1325,1345,1365,1386,1406,1426,1444,1465,1484,1505,1524,1544,1564,1586,1605,1625,1645,1665,1685,1705,1725,1745,1766,1786,1806,1826,1845,1864,1885,1905,1925,1945,1965,1986,2006,2025,2045,2065,2085,2104,2125,2145,2166,2185,2206,2226,2245,2265,2286,2305,2325,2345,2365,2385,2406,2426,2446,2465,2485,2505,2525,2546,2566,2586,2606,2626,2646,2665,2685,2705,2726,2746,2766,2785,2806,2825,2845,2865,2885,2905,2925,2946,2966,2986,3006,3025,3045,3065,3085,3105,3125,3146,3166,3186,3205,3226,3246,3264,3286,3305,3324,3345,3365,3385,3406,3426,3445,3465,3485,3505,3525,3546,3565,3586,3605,3626,3645,3665,3685,3705,3726,3745,3765,3785,3804,3824,3845,3864,3885,3905,3926,3945,3965,3985,4005,4025,4046,4066,4086,4106,4125,4144,4165,4185,4204,4225,4246,4265,4285,4304,4326,4344,4365,4385,4406,4424,4444,4464,4485,4504,4525,4546,4565,4586,4605,4624,4645,4664,4684,4704,4726,4746,4765,4786,4805,4825,4846,4864,4884,4905,4925,4944,4964,4984,5005],"xSR":741.5,"ySR":573.95,"xT1":424.9,"yT1":0,"xT2":1058.1,"yT2":0,"toosoon":0,"cond_shown":"equaldotanddens","ratio_trial":500,"smaller_num":"5","larger_num":"10","correct_side":2,"subjID":"samuelgonzalezgarcia6","gender":"0","age":"10","school":"4"},{"start_time":1552054950301,"click_time":1552054952410,"finger_time":1552054951751,"fix_duration":309.8027602693436,"trial":24,"RT":1450,"MT":659,"sideResp":2,"stimulus":"img/900/equaldotsize/L/10_Ratio_900_L_20_R_18.png","xmouse":[803,802,800,800,800,800,800,800,800,800,800,800,800,800,800,800,800,800,800,800,800,800,800,800,800,800,800,800,800,800,800,800,800,800,800,800,800,800,800,800,800,800,800,800,800,800,800,800,800,800,800,800,800,800,800,800,800,800,800,800,800,800,800,800,800,800,800,800,800,800,803,826,877,932,975,1008,1009,1009,1010,1016,1037,1046,1055,1064,1071,1076,1079,1080,1084,1086,1092,1097,1106,1122,1139,1163,1165,1165,1165,1164,1164,1164,1164,1163,1148,1132],"ymouse":[608,609,611,612,613,613,613,613,613,613,613,613,613,613,613,613,613,613,613,613,613,613,613,613,613,613,613,613,613,613,613,613,613,613,613,613,613,613,613,613,613,613,613,613,613,613,613,613,613,613,613,613,613,613,613,613,613,613,613,613,613,613,613,613,613,613,613,613,613,613,612,587,534,489,454,436,436,436,436,433,422,416,404,386,369,350,342,333,321,309,293,282,262,230,180,66,21,0,0,0,0,0,0,0,0,4],"timestamp_mouse":[14,38,49,69,89,108,130,150,169,189,208,229,249,268,289,310,330,350,369,388,408,430,450,469,488,509,530,550,569,589,610,628,650,669,688,710,730,750,768,789,810,830,850,870,888,909,929,949,968,989,1010,1030,1049,1068,1089,1109,1130,1149,1169,1189,1210,1229,1250,1269,1289,1309,1330,1349,1370,1389,1408,1430,1450,1470,1489,1508,1529,1548,1569,1590,1609,1629,1649,1670,1689,1710,1729,1749,1768,1790,1809,1830,1848,1870,1890,1909,1930,1950,1968,1989,2009,2028,2050,2069,2089,2109],"xSR":741.5,"ySR":573.95,"xT1":424.9,"yT1":0,"xT2":1058.1,"yT2":0,"toosoon":0,"cond_shown":"equaldotsize","ratio_trial":900,"smaller_num":"18","larger_num":"20","correct_side":1,"subjID":"samuelgonzalezgarcia6","gender":"0","age":"10","school":"4"},{"start_time":1552054955753,"click_time":1552054956889,"finger_time":1552054956329,"fix_duration":481.31041866563686,"trial":25,"RT":576,"MT":560,"sideResp":2,"stimulus":"img/750/equaldotanddens/R/5_Ratio_750_L_15_R_20.png","xmouse":[768,768,768,768,768,768,768,768,768,768,767,766,766,766,766,766,766,766,766,766,766,766,766,766,766,766,766,775,851,938,988,1013,1036,1041,1044,1054,1075,1126,1129,1129,1129,1129,1129,1132,1136,1141,1146,1146,1146,1145,1142,1139,1138,1138,1138,1137,1133],"ymouse":[660,660,660,660,660,660,660,660,660,660,658,658,658,658,658,658,658,658,658,658,658,658,658,658,658,658,658,652,611,547,511,494,466,447,427,398,359,270,247,231,223,221,219,216,207,189,154,119,114,111,110,110,110,108,108,104,97],"timestamp_mouse":[16,39,57,78,98,117,138,157,176,196,217,237,258,276,296,318,337,356,377,397,417,437,457,477,496,516,536,556,576,597,617,637,657,677,697,716,736,757,777,797,816,838,857,877,898,917,937,957,978,997,1018,1037,1056,1076,1097,1117,1136],"xSR":741.5,"ySR":573.95,"xT1":424.9,"yT1":0,"xT2":1058.1,"yT2":0,"toosoon":0,"cond_shown":"equaldotanddens","ratio_trial":750,"smaller_num":"15","larger_num":"20","correct_side":2,"subjID":"samuelgonzalezgarcia6","gender":"0","age":"10","school":"4"},{"start_time":1552054958462,"click_time":1552054959411,"finger_time":1552054959110,"fix_duration":250,"trial":26,"RT":648,"MT":301,"sideResp":1,"stimulus":"img/500/equaldotsize/L/10_Ratio_500_L_4_R_2.png","xmouse":[803,803,803,803,803,803,804,804,804,804,804,804,804,804,804,804,804,804,804,804,804,804,804,804,804,805,805,805,806,806,806,806,777,747,707,667,632,605,605,605,605,605,605,604,599,593,578,490],"ymouse":[659,659,659,659,659,659,659,659,659,659,659,659,659,659,659,659,659,659,659,659,659,659,659,659,659,658,658,658,656,654,646,622,502,394,264,131,15,0,0,0,0,0,0,0,0,0,0,4],"timestamp_mouse":[11,34,49,68,88,107,128,147,168,189,208,228,248,267,289,308,329,348,368,387,409,427,447,468,488,508,527,548,567,589,607,628,648,668,688,708,728,749,769,788,808,828,848,868,889,908,927,949],"xSR":741.5,"ySR":573.95,"xT1":424.9,"yT1":0,"xT2":1058.1,"yT2":0,"toosoon":0,"cond_shown":"equaldotsize","ratio_trial":500,"smaller_num":"2","larger_num":"4","correct_side":1,"subjID":"samuelgonzalezgarcia6","gender":"0","age":"10","school":"4"},{"start_time":1552054960774,"click_time":1552054961811,"finger_time":1552054961390,"fix_duration":482.8418054025625,"trial":27,"RT":616,"MT":421,"sideResp":1,"stimulus":"img/500/equaldotsize/L/8_Ratio_500_L_8_R_4.png","xmouse":[806,806,806,806,806,806,806,806,806,806,806,806,806,806,806,806,806,806,806,806,806,806,806,806,806,806,806,806,806,805,804,769,728,687,654,629,598,588,580,563,551,547,547,546,543,538,535,532,529,527,525,522],"ymouse":[586,586,586,586,586,586,586,586,586,586,586,586,586,586,586,586,586,586,586,586,586,586,586,586,586,586,586,586,586,576,568,478,403,336,278,231,90,29,0,0,0,0,0,0,0,7,16,31,36,40,42,43],"timestamp_mouse":[15,37,56,76,97,116,137,155,176,197,216,236,256,277,296,316,336,356,376,396,415,436,456,476,497,516,537,557,575,597,616,635,655,675,695,716,736,757,777,796,817,836,856,875,895,915,935,955,976,995,1017,1037],"xSR":741.5,"ySR":573.95,"xT1":424.9,"yT1":0,"xT2":1058.1,"yT2":0,"toosoon":0,"cond_shown":"equaldotsize","ratio_trial":500,"smaller_num":"4","larger_num":"8","correct_side":1,"subjID":"samuelgonzalezgarcia6","gender":"0","age":"10","school":"4"},{"start_time":1552054963800,"click_time":1552054964609,"finger_time":1552054964330,"fix_duration":1108.1054759882854,"trial":28,"RT":530,"MT":279,"sideResp":1,"stimulus":"img/500/equaldotsize/L/5_Ratio_500_L_4_R_2.png","xmouse":[770,770,770,770,770,770,770,770,770,770,770,770,770,770,770,770,770,770,770,770,770,770,770,770,770,763,734,697,649,606,578,578,578,578,578,578,578,578,573,561,499],"ymouse":[602,602,602,602,602,602,602,602,602,602,602,602,602,602,602,602,602,602,602,602,602,602,602,602,602,582,525,438,331,241,168,167,167,167,167,165,163,162,154,132,42],"timestamp_mouse":[12,39,51,70,89,109,129,151,170,189,211,231,251,269,289,310,330,351,371,389,411,430,450,469,491,510,530,550,571,590,609,631,650,669,690,710,731,750,770,790,809],"xSR":741.5,"ySR":573.95,"xT1":424.9,"yT1":0,"xT2":1058.1,"yT2":0,"toosoon":0,"cond_shown":"equaldotsize","ratio_trial":500,"smaller_num":"2","larger_num":"4","correct_side":1,"subjID":"samuelgonzalezgarcia6","gender":"0","age":"10","school":"4"},{"start_time":1552054966215,"click_time":1552054967130,"finger_time":1552054966710,"fix_duration":764.3556164362682,"trial":29,"RT":495,"MT":420,"sideResp":2,"stimulus":"img/900/equaldotanddens/L/4_Ratio_900_L_20_R_18.png","xmouse":[747,747,747,747,747,747,747,747,747,747,747,747,747,747,747,747,747,747,747,747,747,747,757,779,830,851,867,882,894,926,949,964,979,996,1018,1032,1044,1053,1062,1073,1081,1085,1088,1089,1090,1090],"ymouse":[589,589,589,589,589,589,589,589,589,589,589,589,589,589,589,589,589,589,589,589,589,589,587,584,566,556,544,529,513,458,429,413,401,385,348,326,307,291,274,227,192,164,133,127,105,97],"timestamp_mouse":[14,44,56,74,95,116,135,155,176,196,215,235,255,276,296,315,336,355,376,396,416,434,456,475,495,515,535,555,575,594,615,635,656,676,695,715,735,755,776,795,816,834,854,875,894,915],"xSR":741.5,"ySR":573.95,"xT1":424.9,"yT1":0,"xT2":1058.1,"yT2":0,"toosoon":0,"cond_shown":"equaldotanddens","ratio_trial":900,"smaller_num":"18","larger_num":"20","correct_side":1,"subjID":"samuelgonzalezgarcia6","gender":"0","age":"10","school":"4"},{"start_time":1552054968261,"click_time":1552054968910,"finger_time":1552054968830,"fix_duration":250,"trial":30,"RT":569,"MT":80,"sideResp":1,"stimulus":"img/900/randomdotsizeEA/L/10_Ratio_900_L_20_R_18.png","xmouse":[798,798,798,798,798,798,798,798,798,798,798,798,798,798,797,796,796,796,798,798,799,799,799,800,800,801,801,801,801,800,786,712,447],"ymouse":[591,591,591,591,591,591,591,591,591,591,591,591,591,591,593,594,594,594,593,593,592,592,591,590,589,585,581,574,570,562,532,399,90],"timestamp_mouse":[12,36,49,68,90,109,129,150,169,189,210,229,248,269,289,310,329,349,369,390,408,429,449,470,489,508,530,549,569,589,610,629,649],"xSR":741.5,"ySR":573.95,"xT1":424.9,"yT1":0,"xT2":1058.1,"yT2":0,"toosoon":0,"cond_shown":"randomdotsizeEA","ratio_trial":900,"smaller_num":"18","larger_num":"20","correct_side":1,"subjID":"samuelgonzalezgarcia6","gender":"0","age":"10","school":"4"},{"start_time":1552054972085,"click_time":1552054973029,"finger_time":1552054972630,"fix_duration":572.8317065694341,"trial":31,"RT":545,"MT":399,"sideResp":1,"stimulus":"img/750/equaldotsize/L/9_Ratio_750_L_4_R_3.png","xmouse":[774,775,775,775,775,775,775,775,775,775,775,775,775,775,775,775,775,775,775,775,775,775,775,775,775,775,768,756,733,711,687,631,613,605,600,600,600,593,581,557,552,548,546,545,542,537,527,524],"ymouse":[615,614,614,614,614,614,614,614,614,614,614,614,614,614,614,614,614,614,614,614,614,614,613,611,609,608,584,555,511,455,386,178,123,104,97,96,92,78,53,22,15,10,10,9,8,7,7,8],"timestamp_mouse":[13,40,46,66,86,105,126,145,166,186,206,225,244,264,284,304,325,345,365,385,405,424,445,466,485,506,526,545,565,585,605,625,644,665,685,705,725,746,766,784,805,825,845,866,885,905,924,944],"xSR":741.5,"ySR":573.95,"xT1":424.9,"yT1":0,"xT2":1058.1,"yT2":0,"toosoon":0,"cond_shown":"equaldotsize","ratio_trial":750,"smaller_num":"3","larger_num":"4","correct_side":1,"subjID":"samuelgonzalezgarcia6","gender":"0","age":"10","school":"4"},{"start_time":1552054974381,"click_time":1552054975651,"finger_time":1552054975070,"fix_duration":250,"trial":32,"RT":689,"MT":581,"sideResp":2,"stimulus":"img/900/randomdotsizeEA/L/4_Ratio_900_L_20_R_18.png","xmouse":[788,788,788,788,788,788,788,788,788,788,788,788,788,788,788,788,788,788,788,788,788,788,788,788,788,788,788,788,788,788,791,794,800,808,820,843,882,906,943,973,993,1018,1023,1026,1029,1034,1053,1061,1065,1065,1066,1066,1075,1088,1102,1116,1118,1118,1118,1118,1118,1117,1114,1106],"ymouse":[621,621,621,621,621,621,621,621,621,621,621,621,621,621,621,621,621,621,621,621,621,621,621,621,621,621,621,621,619,616,608,598,590,580,572,564,546,526,495,462,429,378,365,360,352,335,261,232,219,213,212,210,196,178,158,125,121,121,121,121,121,117,110,97],"timestamp_mouse":[20,44,48,68,88,109,129,149,169,190,208,228,250,268,289,308,330,349,370,389,409,430,450,469,489,508,530,549,569,590,609,629,648,669,689,710,728,750,768,789,809,830,849,869,889,908,929,950,969,990,1010,1029,1048,1068,1089,1108,1129,1150,1169,1188,1209,1229,1249,1270],"xSR":741.5,"ySR":573.95,"xT1":424.9,"yT1":0,"xT2":1058.1,"yT2":0,"toosoon":0,"cond_shown":"randomdotsizeEA","ratio_trial":900,"smaller_num":"18","larger_num":"20","correct_side":1,"subjID":"samuelgonzalezgarcia6","gender":"0","age":"10","school":"4"},{"start_time":1552054978266,"click_time":1552054979210,"finger_time":1552054978991,"fix_duration":1493.3530776695236,"trial":33,"RT":725,"MT":219,"sideResp":2,"stimulus":"img/900/randomdotsizeEA/R/7_Ratio_900_L_9_R_10.png","xmouse":[763,763,763,763,763,763,763,763,763,763,763,763,763,763,763,763,763,763,763,763,763,763,763,763,763,763,763,763,763,763,763,763,764,769,782,802,819,852,871,901,940,1004,1050,1060,1071,1083,1096,1114],"ymouse":[630,630,630,630,630,630,630,630,630,630,630,630,630,630,630,630,630,630,630,630,630,630,630,630,630,630,630,630,630,630,630,630,627,619,602,580,559,512,483,436,365,270,195,177,160,139,117,85],"timestamp_mouse":[13,24,43,64,85,104,123,144,164,185,205,224,243,265,285,304,323,344,363,383,403,425,444,464,484,504,525,545,564,583,605,623,644,664,685,704,725,743,765,783,805,825,844,865,884,903,924,943],"xSR":741.5,"ySR":573.95,"xT1":424.9,"yT1":0,"xT2":1058.1,"yT2":0,"toosoon":0,"cond_shown":"randomdotsizeEA","ratio_trial":900,"smaller_num":"9","larger_num":"10","correct_side":2,"subjID":"samuelgonzalezgarcia6","gender":"0","age":"10","school":"4"},{"start_time":1552054981330,"click_time":1552054982106,"finger_time":1552054982006,"fix_duration":922.258847370808,"trial":34,"RT":676,"MT":100,"sideResp":1,"stimulus":"img/750/randomdotsizeEA/R/3_Ratio_750_L_15_R_20.png","xmouse":[802,802,802,802,802,802,802,802,803,804,806,806,806,806,806,806,806,806,806,806,806,806,806,806,806,806,806,806,806,806,807,807,807,793,779,757,709,632,483],"ymouse":[606,606,606,606,606,606,606,606,608,610,612,612,612,613,614,614,614,614,614,614,614,614,614,614,614,614,614,614,614,614,615,609,603,556,526,487,416,310,74],"timestamp_mouse":[22,36,56,76,95,116,136,156,177,197,217,235,256,277,297,317,337,357,376,396,416,436,457,476,497,517,536,557,576,596,616,637,657,676,695,717,737,756,776],"xSR":741.5,"ySR":573.95,"xT1":424.9,"yT1":0,"xT2":1058.1,"yT2":0,"toosoon":0,"cond_shown":"randomdotsizeEA","ratio_trial":750,"smaller_num":"15","larger_num":"20","correct_side":2,"subjID":"samuelgonzalezgarcia6","gender":"0","age":"10","school":"4"},{"start_time":1552054983330,"click_time":1552054984728,"finger_time":1552054984426,"fix_duration":300.73469568271304,"trial":35,"RT":1096,"MT":302,"sideResp":1,"stimulus":"img/250/equaldotanddens/L/15_Ratio_250_L_12_R_3.png","xmouse":[791,791,791,791,791,791,791,791,791,791,791,791,791,791,791,791,791,791,791,791,791,791,791,791,791,791,791,791,791,791,791,791,791,792,792,793,795,795,795,795,795,795,795,795,795,795,795,795,795,795,795,795,789,765,736,695,631,593,539,532,531,531,531,531,528,525,523,521,516,517],"ymouse":[620,620,620,620,621,621,621,621,621,621,621,621,621,621,621,621,621,622,622,622,622,622,622,622,622,622,622,622,622,622,622,622,622,621,621,619,619,619,618,618,618,618,618,618,618,618,618,618,618,618,618,618,611,579,538,478,386,326,236,220,216,216,215,204,185,169,159,147,105,94],"timestamp_mouse":[32,36,56,76,97,117,137,157,176,197,215,236,256,277,296,317,337,357,376,396,416,436,457,477,496,517,536,556,577,595,617,637,656,676,696,717,736,756,776,796,817,835,857,877,897,916,936,955,977,997,1016,1037,1056,1076,1096,1116,1137,1156,1175,1197,1216,1236,1256,1277,1295,1316,1336,1356,1376,1397],"xSR":741.5,"ySR":573.95,"xT1":424.9,"yT1":0,"xT2":1058.1,"yT2":0,"toosoon":0,"cond_shown":"equaldotanddens","ratio_trial":250,"smaller_num":"3","larger_num":"12","correct_side":1,"subjID":"samuelgonzalezgarcia6","gender":"0","age":"10","school":"4"},{"start_time":1552054987882,"click_time":1552054988626,"finger_time":1552054988526,"fix_duration":533.5319093923256,"trial":36,"RT":644,"MT":100,"sideResp":1,"stimulus":"img/250/equaldotsize/L/2_Ratio_250_L_16_R_4.png","xmouse":[793,793,793,793,793,793,793,793,793,793,793,793,793,793,793,793,793,793,793,793,793,793,793,793,793,793,793,793,793,793,792,790,782,771,748,712,571,499],"ymouse":[602,602,602,602,602,602,602,602,602,602,602,602,602,602,602,602,602,602,602,602,602,602,602,602,602,602,602,602,602,602,599,581,557,512,441,355,172,98],"timestamp_mouse":[13,38,44,65,84,104,124,145,164,185,204,225,245,264,284,303,325,345,365,384,403,425,445,464,484,504,525,545,565,585,603,624,644,664,685,705,725,744],"xSR":741.5,"ySR":573.95,"xT1":424.9,"yT1":0,"xT2":1058.1,"yT2":0,"toosoon":0,"cond_shown":"equaldotsize","ratio_trial":250,"smaller_num":"4","larger_num":"16","correct_side":1,"subjID":"samuelgonzalezgarcia6","gender":"0","age":"10","school":"4"},{"start_time":1552054991057,"click_time":1552054992327,"finger_time":1552054991646,"fix_duration":1050.240790346507,"trial":37,"RT":589,"MT":681,"sideResp":1,"stimulus":"img/750/equaldotanddens/L/1_Ratio_750_L_20_R_15.png","xmouse":[760,760,760,760,760,760,760,760,760,759,759,759,759,759,759,759,759,759,759,759,759,759,759,760,764,774,786,821,841,863,886,917,939,944,950,954,958,968,973,974,974,975,975,975,975,975,975,974,972,970,968,949,773,645,590,494,487,487,488,488,485,480,475,472],"ymouse":[628,628,628,628,628,628,628,628,628,628,628,628,628,628,628,628,628,628,628,628,628,628,628,627,624,618,611,589,575,554,530,481,421,402,389,381,372,346,335,329,323,322,322,322,322,322,322,322,323,323,323,315,171,76,27,0,0,0,0,0,0,0,0,1],"timestamp_mouse":[14,40,49,70,89,110,129,148,170,189,210,229,250,269,289,310,329,349,369,389,409,430,449,470,489,509,530,550,570,589,610,629,649,670,689,709,729,749,770,789,810,829,850,870,889,908,930,949,970,988,1009,1030,1049,1069,1090,1109,1129,1149,1169,1190,1210,1228,1249,1270],"xSR":741.5,"ySR":573.95,"xT1":424.9,"yT1":0,"xT2":1058.1,"yT2":0,"toosoon":0,"cond_shown":"equaldotanddens","ratio_trial":750,"smaller_num":"15","larger_num":"20","correct_side":1,"subjID":"samuelgonzalezgarcia6","gender":"0","age":"10","school":"4"},{"start_time":1552054993759,"click_time":1552054995647,"finger_time":1552054994727,"fix_duration":250,"trial":38,"RT":968,"MT":920,"sideResp":1,"stimulus":"img/900/randomdotsizeEA/L/1_Ratio_900_L_10_R_9.png","xmouse":[764,764,764,764,764,764,764,764,764,764,764,764,764,764,764,764,764,764,764,764,764,764,764,764,764,764,764,764,764,764,764,764,764,764,764,764,764,764,771,777,782,785,788,791,796,811,820,831,835,841,849,866,901,915,927,943,952,962,968,972,973,974,974,974,973,972,969,969,969,969,968,968,961,951,935,902,863,780,760,741,723,706,655,620,602,597,594,586,574,559,548,545,545,543,503],"ymouse":[656,656,656,656,656,656,656,656,656,656,656,656,656,656,656,656,656,656,656,656,656,656,656,656,656,656,656,656,656,656,656,656,656,656,656,656,656,656,647,638,631,625,621,618,613,599,591,577,570,558,537,503,426,396,371,340,327,303,289,278,269,266,266,266,266,268,269,269,269,269,270,270,267,259,246,223,193,134,119,107,97,88,66,49,42,40,39,39,39,39,41,43,43,44,49],"timestamp_mouse":[14,28,47,67,88,108,127,147,168,187,207,228,248,268,287,307,327,348,368,387,406,428,447,467,488,507,528,547,567,588,608,627,647,667,688,707,727,748,767,787,808,827,847,867,887,907,928,947,968,988,1007,1028,1047,1068,1087,1107,1127,1147,1167,1187,1207,1228,1248,1267,1288,1308,1328,1347,1367,1387,1408,1427,1447,1467,1487,1507,1527,1547,1568,1587,1606,1628,1647,1667,1688,1707,1727,1747,1768,1787,1808,1828,1847,1867,1888],"xSR":741.5,"ySR":573.95,"xT1":424.9,"yT1":0,"xT2":1058.1,"yT2":0,"toosoon":0,"cond_shown":"randomdotsizeEA","ratio_trial":900,"smaller_num":"9","larger_num":"10","correct_side":1,"subjID":"samuelgonzalezgarcia6","gender":"0","age":"10","school":"4"},{"start_time":1552054997089,"click_time":1552054998247,"finger_time":1552054997686,"fix_duration":560.3887038583817,"trial":39,"RT":597,"MT":561,"sideResp":2,"stimulus":"img/500/equaldotsize/R/3_Ratio_500_L_10_R_20.png","xmouse":[801,801,801,801,801,801,801,801,801,801,801,801,801,801,801,801,801,801,801,801,801,801,801,801,801,803,806,811,826,858,912,936,949,960,968,978,983,991,1005,1009,1026,1031,1039,1050,1059,1073,1075,1076,1078,1081,1086,1088,1089,1089,1089,1091,1092,1095],"ymouse":[614,614,614,614,614,614,614,614,614,614,614,614,614,614,614,614,614,614,614,614,614,614,614,614,615,615,613,610,603,586,543,518,498,479,460,422,407,391,360,348,296,277,247,208,185,150,147,145,143,139,133,130,125,120,116,110,103,96],"timestamp_mouse":[18,37,58,78,98,118,138,157,177,197,217,237,258,277,298,318,337,358,378,396,418,438,458,478,498,517,537,557,578,597,617,637,657,678,697,717,737,757,777,798,817,838,858,877,898,917,937,958,978,998,1017,1038,1058,1076,1097,1118,1138,1158],"xSR":741.5,"ySR":573.95,"xT1":424.9,"yT1":0,"xT2":1058.1,"yT2":0,"toosoon":0,"cond_shown":"equaldotsize","ratio_trial":500,"smaller_num":"10","larger_num":"20","correct_side":2,"subjID":"samuelgonzalezgarcia6","gender":"0","age":"10","school":"4"},{"start_time":1552054999908,"click_time":1552055000947,"finger_time":1552055000506,"fix_duration":618.88452346034,"trial":40,"RT":598,"MT":441,"sideResp":1,"stimulus":"img/750/equaldotsize/L/14_Ratio_750_L_8_R_6.png","xmouse":[802,802,802,802,802,802,802,802,802,802,802,802,802,802,802,802,802,802,802,802,802,802,802,802,802,802,802,802,801,799,780,758,728,700,679,656,650,643,633,622,611,609,608,607,605,584,563,547,539,536,533,526,512],"ymouse":[635,635,635,635,635,635,635,635,635,635,635,635,635,635,635,635,635,635,635,635,635,635,635,635,635,635,635,635,630,621,561,500,435,370,324,264,240,220,201,183,167,165,163,162,156,122,99,85,82,82,79,71,57],"timestamp_mouse":[1,19,39,59,79,99,119,138,159,179,199,219,239,258,279,298,318,339,359,379,399,418,438,458,479,498,518,538,558,578,598,619,638,658,678,698,718,738,758,778,798,819,838,859,878,898,917,939,959,978,998,1018,1038],"xSR":741.5,"ySR":573.95,"xT1":424.9,"yT1":0,"xT2":1058.1,"yT2":0,"toosoon":0,"cond_shown":"equaldotsize","ratio_trial":750,"smaller_num":"6","larger_num":"8","correct_side":1,"subjID":"samuelgonzalezgarcia6","gender":"0","age":"10","school":"4"},{"start_time":1552055003004,"click_time":1552055004286,"finger_time":1552055004027,"fix_duration":1335.9968342653203,"trial":41,"RT":1023,"MT":259,"sideResp":2,"stimulus":"img/500/randomdotsizeEA/R/15_Ratio_500_L_1_R_2.png","xmouse":[795,795,795,795,795,795,795,795,795,795,795,795,795,795,795,795,795,795,795,795,795,795,795,795,795,795,795,795,795,795,795,805,817,824,825,825,825,825,825,825,825,825,825,825,825,825,825,828,831,832,835,843,855,873,892,932,954,981,1002,1020,1042,1051,1060,1069,1077],"ymouse":[618,618,618,618,618,618,618,618,618,618,618,618,618,618,618,618,618,618,618,618,618,618,618,618,618,618,618,618,618,618,618,615,609,604,603,602,602,602,602,602,602,602,602,602,602,602,598,591,585,583,580,574,563,546,527,470,435,396,359,316,208,163,130,106,78],"timestamp_mouse":[12,36,42,63,82,102,123,143,163,183,202,223,243,263,282,302,322,343,363,382,403,423,443,462,483,503,523,543,562,583,603,623,642,662,682,702,723,742,762,782,803,823,842,862,883,902,923,942,963,982,1002,1023,1043,1063,1082,1101,1123,1142,1162,1182,1202,1223,1242,1262,1282],"xSR":741.5,"ySR":573.95,"xT1":424.9,"yT1":0,"xT2":1058.1,"yT2":0,"toosoon":0,"cond_shown":"randomdotsizeEA","ratio_trial":500,"smaller_num":"1","larger_num":"2","correct_side":2,"subjID":"samuelgonzalezgarcia6","gender":"0","age":"10","school":"4"},{"start_time":1552055006187,"click_time":1552055007746,"finger_time":1552055007106,"fix_duration":1178.4952763025615,"trial":42,"RT":919,"MT":640,"sideResp":1,"stimulus":"img/900/randomdotsizeEA/L/4_Ratio_900_L_20_R_18.png","xmouse":[783,783,783,783,783,783,783,783,783,783,783,783,783,783,783,783,783,783,783,783,783,783,783,783,783,783,783,783,783,783,783,783,783,783,783,783,784,787,789,793,799,815,821,822,823,826,852,863,875,882,896,911,911,911,908,899,875,855,817,776,736,651,609,564,511,467,416,409,402,392,388,392,398,401,406,406,410,424,448],"ymouse":[634,634,634,634,634,634,634,634,634,634,634,634,634,634,634,634,634,634,634,634,634,634,634,634,634,634,634,634,634,634,634,634,634,634,634,634,634,634,633,632,628,618,614,613,612,609,588,581,572,565,551,522,507,498,487,465,409,368,307,244,180,66,34,5,0,0,0,0,0,0,0,22,39,47,55,55,61,74,97],"timestamp_mouse":[1,19,39,60,79,100,120,140,159,179,200,219,239,260,280,299,318,340,359,380,400,420,439,459,480,499,520,540,558,580,600,619,640,660,678,699,719,740,759,780,799,819,839,859,879,899,919,939,959,980,999,1020,1040,1060,1080,1099,1118,1139,1159,1179,1199,1220,1240,1259,1279,1300,1321,1339,1359,1379,1400,1418,1439,1459,1479,1499,1521,1538,1559],"xSR":741.5,"ySR":573.95,"xT1":424.9,"yT1":0,"xT2":1058.1,"yT2":0,"toosoon":0,"cond_shown":"randomdotsizeEA","ratio_trial":900,"smaller_num":"18","larger_num":"20","correct_side":1,"subjID":"samuelgonzalezgarcia6","gender":"0","age":"10","school":"4"},{"start_time":1552055010294,"click_time":1552055011287,"finger_time":1552055010926,"fix_duration":265.817161042165,"trial":43,"RT":632,"MT":361,"sideResp":1,"stimulus":"img/500/equaldotanddens/L/8_Ratio_500_L_8_R_4.png","xmouse":[818,818,818,818,818,818,818,818,818,818,818,818,818,818,818,818,818,818,818,818,818,818,818,818,818,818,818,818,818,818,806,794,776,749,720,675,662,651,647,644,633,600,543,492,469,459,459,455,444,434],"ymouse":[612,612,612,612,611,611,611,611,611,611,611,611,611,611,611,611,611,611,611,611,611,611,611,611,611,611,611,611,611,610,583,558,510,447,380,275,249,235,232,231,227,214,185,157,142,132,128,120,107,85],"timestamp_mouse":[25,43,52,72,92,112,133,152,173,192,212,232,253,272,293,312,332,352,373,392,413,432,451,472,493,512,532,552,573,592,611,632,652,672,693,713,732,752,772,793,812,833,852,873,892,912,932,952,972,993],"xSR":741.5,"ySR":573.95,"xT1":424.9,"yT1":0,"xT2":1058.1,"yT2":0,"toosoon":0,"cond_shown":"equaldotanddens","ratio_trial":500,"smaller_num":"4","larger_num":"8","correct_side":1,"subjID":"samuelgonzalezgarcia6","gender":"0","age":"10","school":"4"},{"start_time":1552055014961,"click_time":1552055016446,"finger_time":1552055015687,"fix_duration":1291.6467047300291,"trial":44,"RT":726,"MT":759,"sideResp":2,"stimulus":"img/500/randomdotsizeEA/R/9_Ratio_500_L_2_R_4.png","xmouse":[820,820,820,820,820,820,820,820,820,820,820,820,820,820,820,820,820,820,820,820,820,820,820,820,820,820,820,820,820,820,820,820,820,820,820,825,826,838,857,869,879,882,886,890,901,921,926,947,955,971,1011,1078,1287,1340,1358,1362,1363,1363,1363,1363,1363,1363,1363,1363,1363,1355,1349,1320,1301,1282,1260,1237,1183,1160,1139],"ymouse":[643,643,643,643,643,643,643,643,643,643,643,643,643,643,643,643,643,643,643,643,643,643,643,643,643,643,643,643,643,642,641,640,631,620,607,576,566,515,444,368,302,273,259,251,234,208,202,181,171,158,132,104,0,0,0,0,0,0,0,0,0,0,0,0,0,1,3,0,0,0,0,0,0,0,2],"timestamp_mouse":[13,25,45,64,85,105,126,145,166,186,205,225,245,266,285,305,324,345,366,386,405,425,445,465,486,505,526,545,566,585,606,624,645,666,685,706,726,745,765,785,805,825,846,866,886,906,925,945,966,985,1006,1025,1046,1066,1084,1105,1125,1145,1165,1185,1206,1226,1245,1266,1286,1305,1325,1346,1366,1385,1406,1426,1445,1466,1485],"xSR":741.5,"ySR":573.95,"xT1":424.9,"yT1":0,"xT2":1058.1,"yT2":0,"toosoon":0,"cond_shown":"randomdotsizeEA","ratio_trial":500,"smaller_num":"2","larger_num":"4","correct_side":2,"subjID":"samuelgonzalezgarcia6","gender":"0","age":"10","school":"4"},{"start_time":1552055017579,"click_time":1552055018587,"finger_time":1552055018187,"fix_duration":250,"trial":45,"RT":608,"MT":400,"sideResp":1,"stimulus":"img/250/equaldotsize/L/7_Ratio_250_L_8_R_2.png","xmouse":[770,770,770,770,770,770,770,770,770,770,770,770,770,770,770,770,770,770,770,770,770,770,770,770,770,770,770,770,766,758,739,685,658,627,620,603,584,575,565,557,552,549,549,549,549,549,541,536,529,526,524],"ymouse":[650,650,650,650,650,650,650,650,650,650,650,650,650,650,650,650,650,650,650,650,650,650,650,650,650,650,650,650,632,596,533,404,356,301,288,257,215,195,171,153,141,134,134,133,129,114,87,78,71,67,65],"timestamp_mouse":[12,42,48,67,88,107,128,148,168,186,208,228,247,267,288,308,327,348,368,387,408,428,447,468,487,507,528,548,568,587,607,627,647,668,687,707,728,747,767,787,807,827,847,867,887,908,927,947,967,988,1008],"xSR":741.5,"ySR":573.95,"xT1":424.9,"yT1":0,"xT2":1058.1,"yT2":0,"toosoon":0,"cond_shown":"equaldotsize","ratio_trial":250,"smaller_num":"2","larger_num":"8","correct_side":1,"subjID":"samuelgonzalezgarcia6","gender":"0","age":"10","school":"4"},{"start_time":1552055020351,"click_time":1552055021186,"finger_time":1552055020947,"fix_duration":943.5663333219323,"trial":46,"RT":596,"MT":239,"sideResp":1,"stimulus":"img/250/randomdotsizeEA/L/15_Ratio_250_L_12_R_3.png","xmouse":[786,786,786,786,786,786,786,786,786,786,786,786,786,786,786,786,786,786,786,786,786,786,786,786,786,786,786,786,786,786,786,783,764,752,739,728,716,669,629,584,533,487],"ymouse":[585,585,585,585,585,585,585,585,585,585,585,585,585,585,585,585,585,585,585,585,585,585,585,585,585,585,585,581,574,559,538,511,423,387,358,333,313,247,190,125,63,14],"timestamp_mouse":[16,35,55,75,96,116,136,156,176,195,214,235,255,275,295,315,336,356,375,396,416,435,456,475,496,516,536,555,576,596,616,636,655,675,696,716,736,755,776,795,815,835],"xSR":741.5,"ySR":573.95,"xT1":424.9,"yT1":0,"xT2":1058.1,"yT2":0,"toosoon":0,"cond_shown":"randomdotsizeEA","ratio_trial":250,"smaller_num":"3","larger_num":"12","correct_side":1,"subjID":"samuelgonzalezgarcia6","gender":"0","age":"10","school":"4"},{"start_time":1552055024438,"click_time":1552055025606,"finger_time":1552055025106,"fix_duration":510.3291759123112,"trial":47,"RT":668,"MT":500,"sideResp":2,"stimulus":"img/250/equaldotanddens/R/8_Ratio_250_L_1_R_4.png","xmouse":[809,809,809,809,809,809,809,809,809,809,809,809,809,809,809,809,809,809,809,809,809,809,809,809,809,809,809,809,809,809,812,813,821,848,858,871,886,907,949,957,963,968,971,966,963,963,963,972,988,997,1008,1022,1034,1050,1050,1050,1057,1072,1124],"ymouse":[610,610,610,610,610,610,610,610,610,610,610,610,610,610,610,610,610,610,610,610,610,610,610,610,610,610,610,610,610,610,609,607,597,556,536,518,498,465,390,362,340,316,280,242,230,221,211,194,169,162,159,157,155,150,150,150,143,123,48],"timestamp_mouse":[12,37,49,67,89,109,129,148,168,189,209,229,249,269,289,308,327,349,368,389,408,429,449,469,488,508,529,549,568,589,608,627,648,668,688,708,729,749,769,788,809,828,848,867,889,908,928,948,968,988,1009,1029,1049,1068,1088,1108,1128,1148,1168],"xSR":741.5,"ySR":573.95,"xT1":424.9,"yT1":0,"xT2":1058.1,"yT2":0,"toosoon":0,"cond_shown":"equaldotanddens","ratio_trial":250,"smaller_num":"1","larger_num":"4","correct_side":2,"subjID":"samuelgonzalezgarcia6","gender":"0","age":"10","school":"4"},{"start_time":1552055027102,"click_time":1552055028046,"finger_time":1552055027706,"fix_duration":593.2980840769178,"trial":48,"RT":604,"MT":340,"sideResp":1,"stimulus":"img/250/randomdotsizeEA/L/2_Ratio_250_L_16_R_4.png","xmouse":[788,788,788,788,788,788,788,788,788,788,788,788,788,788,789,789,789,789,790,790,790,790,790,790,790,790,790,790,790,787,773,764,758,748,738,716,703,694,687,681,651,638,628,615,599,549,531,522],"ymouse":[606,606,606,606,606,606,606,606,606,606,606,606,606,606,606,606,606,606,606,606,606,606,606,606,606,605,605,603,600,592,565,548,529,512,492,444,413,388,354,326,247,229,215,196,166,83,59,47],"timestamp_mouse":[13,37,44,65,84,104,124,145,164,184,203,225,245,265,284,305,325,344,364,383,404,423,445,465,485,504,525,545,565,584,604,624,645,664,685,703,724,744,765,784,804,824,843,864,885,905,924,944],"xSR":741.5,"ySR":573.95,"xT1":424.9,"yT1":0,"xT2":1058.1,"yT2":0,"toosoon":0,"cond_shown":"randomdotsizeEA","ratio_trial":250,"smaller_num":"4","larger_num":"16","correct_side":1,"subjID":"samuelgonzalezgarcia6","gender":"0","age":"10","school":"4"},{"start_time":1552055029098,"click_time":1552055030346,"finger_time":1552055029887,"fix_duration":250,"trial":49,"RT":789,"MT":459,"sideResp":1,"stimulus":"img/750/equaldotsize/L/1_Ratio_750_L_20_R_15.png","xmouse":[759,759,759,760,760,760,760,760,760,760,760,760,760,760,760,760,760,760,760,760,760,760,760,760,760,760,760,760,760,760,760,760,760,760,760,760,760,759,753,732,715,713,708,701,701,701,701,701,701,701,701,701,701,701,701,701,701,702,699,670,602,552,508],"ymouse":[644,644,644,644,644,644,644,644,644,644,644,644,644,644,644,644,644,644,644,644,644,644,644,644,644,644,644,644,644,644,644,644,644,643,642,640,639,636,629,601,576,574,571,567,567,567,567,567,567,567,567,567,567,567,567,566,563,550,524,423,242,139,44],"timestamp_mouse":[10,41,49,68,88,109,128,148,169,189,209,228,249,268,288,309,329,348,367,389,408,429,449,469,488,508,528,548,569,589,608,629,648,668,689,708,728,749,768,789,807,829,848,869,888,908,928,948,969,988,1008,1028,1048,1069,1088,1107,1127,1147,1167,1187,1207,1228,1248],"xSR":741.5,"ySR":573.95,"xT1":424.9,"yT1":0,"xT2":1058.1,"yT2":0,"toosoon":0,"cond_shown":"equaldotsize","ratio_trial":750,"smaller_num":"15","larger_num":"20","correct_side":1,"subjID":"samuelgonzalezgarcia6","gender":"0","age":"10","school":"4"},{"start_time":1552055032508,"click_time":1552055033706,"finger_time":1552055033467,"fix_duration":1298.284414069503,"trial":50,"RT":959,"MT":239,"sideResp":1,"stimulus":"img/900/equaldotanddens/L/10_Ratio_900_L_20_R_18.png","xmouse":[800,800,800,800,800,800,800,800,800,800,800,800,800,800,800,800,800,800,800,800,800,800,800,800,800,800,800,799,799,799,799,799,799,799,799,801,803,804,804,804,804,804,804,804,803,789,780,768,748,742,718,694,638,572,510,473,473,473,474,474,474],"ymouse":[667,667,667,667,667,667,667,667,667,667,667,667,667,667,667,667,667,667,667,667,667,667,667,667,667,667,667,666,666,666,664,663,662,660,657,651,647,644,644,643,643,643,643,642,641,628,616,599,560,545,496,461,382,295,215,143,132,125,112,107,70],"timestamp_mouse":[1,35,38,59,78,98,119,138,159,178,199,219,239,258,279,299,319,339,358,378,399,418,438,459,478,499,518,538,559,579,599,618,638,659,678,699,719,737,759,778,799,819,839,857,879,898,919,939,959,978,998,1018,1038,1058,1079,1098,1118,1138,1159,1178,1197],"xSR":741.5,"ySR":573.95,"xT1":424.9,"yT1":0,"xT2":1058.1,"yT2":0,"toosoon":0,"cond_shown":"equaldotanddens","ratio_trial":900,"smaller_num":"18","larger_num":"20","correct_side":1,"subjID":"samuelgonzalezgarcia6","gender":"0","age":"10","school":"4"},{"start_time":1552055035157,"click_time":1552055036326,"finger_time":1552055036026,"fix_duration":250,"trial":51,"RT":869,"MT":300,"sideResp":1,"stimulus":"img/500/equaldotanddens/L/11_Ratio_500_L_12_R_6.png","xmouse":[770,770,770,770,770,770,770,770,770,770,770,770,770,770,770,770,770,770,770,770,770,770,770,770,770,770,770,770,770,770,770,770,771,773,773,775,776,777,777,777,777,775,759,737,690,675,635,598,589,584,580,577,571,569,567,562,555,535,523],"ymouse":[632,632,632,632,632,632,632,632,632,632,632,632,632,632,632,632,632,632,632,632,632,632,632,632,632,632,632,632,632,632,632,632,632,632,632,632,632,630,630,630,628,623,583,531,424,388,290,182,152,132,121,116,106,102,96,79,63,36,26],"timestamp_mouse":[12,38,50,70,90,110,130,150,169,190,209,229,249,270,290,309,330,349,369,389,409,429,450,469,490,509,530,549,568,589,610,629,649,670,690,710,729,749,770,790,809,830,849,869,889,909,930,949,969,989,1010,1030,1050,1069,1089,1110,1130,1149,1169],"xSR":741.5,"ySR":573.95,"xT1":424.9,"yT1":0,"xT2":1058.1,"yT2":0,"toosoon":0,"cond_shown":"equaldotanddens","ratio_trial":500,"smaller_num":"6","larger_num":"12","correct_side":1,"subjID":"samuelgonzalezgarcia6","gender":"0","age":"10","school":"4"},{"start_time":1552055038322,"click_time":1552055039507,"finger_time":1552055039406,"fix_duration":892.0044366349495,"trial":52,"RT":1084,"MT":101,"sideResp":1,"stimulus":"img/750/randomdotsizeEA/R/4_Ratio_750_L_15_R_20.png","xmouse":[762,762,762,762,762,762,762,762,762,762,762,762,762,762,762,762,762,762,762,762,762,762,762,762,762,762,762,762,762,762,762,762,762,764,764,765,765,768,770,775,777,778,779,779,779,779,779,779,779,780,780,778,771,760,707,678,647,607,566,515],"ymouse":[638,638,638,638,638,638,638,638,638,638,638,638,638,638,638,638,638,638,638,638,638,638,638,638,638,638,638,638,638,638,638,638,638,638,638,638,638,638,638,636,635,635,634,634,634,634,634,634,634,633,631,623,606,581,462,361,251,146,67,4],"timestamp_mouse":[20,38,44,65,85,104,125,143,164,185,204,224,245,263,285,305,324,344,365,385,404,424,445,463,485,504,525,543,565,584,604,624,645,664,685,705,724,745,765,784,805,824,845,864,885,905,925,945,965,984,1005,1024,1045,1064,1084,1105,1125,1144,1163,1185],"xSR":741.5,"ySR":573.95,"xT1":424.9,"yT1":0,"xT2":1058.1,"yT2":0,"toosoon":0,"cond_shown":"randomdotsizeEA","ratio_trial":750,"smaller_num":"15","larger_num":"20","correct_side":2,"subjID":"samuelgonzalezgarcia6","gender":"0","age":"10","school":"4"},{"start_time":1552055045094,"click_time":1552055046123,"finger_time":1552055045724,"fix_duration":648.0690339644618,"trial":53,"RT":630,"MT":399,"sideResp":2,"stimulus":"img/750/randomdotsizeEA/R/4_Ratio_750_L_15_R_20.png","xmouse":[829,829,829,829,829,829,829,829,829,829,829,829,829,829,829,829,829,829,829,829,829,829,829,829,829,829,829,829,829,829,837,849,870,896,917,935,937,937,937,937,936,936,936,942,953,985,995,1000,1005,1011,1060,1085],"ymouse":[648,648,648,648,648,648,648,648,648,648,648,648,648,648,648,648,648,648,648,648,648,648,648,648,648,648,648,648,648,648,637,618,584,543,509,475,466,459,451,447,442,436,426,409,384,309,280,262,241,231,131,86],"timestamp_mouse":[8,29,49,69,89,109,129,148,170,189,209,229,250,270,289,309,330,348,369,390,410,429,450,470,489,509,528,549,569,590,609,630,650,668,688,709,729,750,768,790,809,829,849,868,890,909,929,950,970,989,1009,1029],"xSR":741.5,"ySR":573.95,"xT1":424.9,"yT1":0,"xT2":1058.1,"yT2":0,"toosoon":0,"cond_shown":"randomdotsizeEA","ratio_trial":750,"smaller_num":"15","larger_num":"20","correct_side":2,"subjID":"samuelgonzalezgarcia6","gender":"0","age":"10","school":"4"},{"start_time":1552055047689,"click_time":1552055049002,"finger_time":1552055048403,"fix_duration":704.1920448178611,"trial":54,"RT":714,"MT":599,"sideResp":1,"stimulus":"img/750/randomdotsizeEA/L/13_Ratio_750_L_8_R_6.png","xmouse":[785,785,785,787,788,790,790,790,790,790,790,790,790,790,790,790,790,791,791,791,792,792,792,792,792,792,792,792,792,792,792,791,787,781,773,750,743,738,736,736,733,728,724,720,719,716,716,716,716,716,710,699,687,675,661,636,626,613,594,567,540,530,526,525,524,513],"ymouse":[645,645,646,643,639,628,627,627,627,627,627,627,627,627,627,627,627,625,625,625,624,624,624,624,624,624,624,624,624,624,624,621,611,598,578,535,517,504,498,496,476,458,444,434,428,423,423,421,419,415,394,369,345,323,300,264,249,228,203,165,131,121,118,116,116,94],"timestamp_mouse":[15,38,55,74,94,114,135,154,175,195,214,235,254,275,295,314,333,354,374,395,414,435,454,473,493,515,535,555,575,595,613,635,654,674,694,714,733,754,773,794,814,834,854,874,894,913,935,954,975,994,1014,1034,1054,1075,1095,1113,1134,1154,1174,1195,1213,1234,1254,1274,1294,1313],"xSR":741.5,"ySR":573.95,"xT1":424.9,"yT1":0,"xT2":1058.1,"yT2":0,"toosoon":0,"cond_shown":"randomdotsizeEA","ratio_trial":750,"smaller_num":"6","larger_num":"8","correct_side":1,"subjID":"samuelgonzalezgarcia6","gender":"0","age":"10","school":"4"},{"start_time":1552055052639,"click_time":1552055053523,"finger_time":1552055053283,"fix_duration":1095.0024117872742,"trial":55,"RT":644,"MT":240,"sideResp":1,"stimulus":"img/500/equaldotsize/L/13_Ratio_500_L_12_R_6.png","xmouse":[807,807,807,807,807,807,807,807,807,807,807,807,807,807,807,807,807,807,807,807,807,807,807,807,807,807,807,807,807,806,802,787,776,718,676,630,583,551,536,534,531,521,511,475,462],"ymouse":[619,619,619,619,619,619,619,619,619,619,619,619,619,619,619,619,619,619,619,619,619,619,619,619,619,619,619,619,619,615,608,578,544,414,344,286,241,216,205,203,197,185,173,119,98],"timestamp_mouse":[20,27,44,63,84,105,123,145,164,184,205,223,245,265,285,303,324,345,364,383,404,423,445,464,483,505,524,545,565,585,604,624,644,664,683,705,724,744,764,785,805,824,843,864,884],"xSR":741.5,"ySR":573.95,"xT1":424.9,"yT1":0,"xT2":1058.1,"yT2":0,"toosoon":0,"cond_shown":"equaldotsize","ratio_trial":500,"smaller_num":"6","larger_num":"12","correct_side":1,"subjID":"samuelgonzalezgarcia6","gender":"0","age":"10","school":"4"},{"start_time":1552055057074,"click_time":1552055058162,"finger_time":1552055057744,"fix_duration":908.9085602407074,"trial":56,"RT":670,"MT":418,"sideResp":1,"stimulus":"img/500/equaldotanddens/L/10_Ratio_500_L_4_R_2.png","xmouse":[750,750,750,750,750,750,751,751,752,752,752,752,752,752,752,752,752,752,752,752,752,752,752,752,753,753,753,753,754,755,758,760,762,763,762,733,692,640,578,507,409,402,401,401,401,406,409,410,410,410,411,414,421,431],"ymouse":[586,586,586,586,586,586,587,587,588,588,588,588,588,588,588,588,588,588,588,588,588,588,588,588,588,588,588,588,588,586,581,575,569,558,551,486,412,314,209,114,8,1,0,0,0,0,0,0,0,0,0,9,27,48],"timestamp_mouse":[12,49,69,89,108,129,149,169,189,208,230,250,269,290,309,329,349,370,390,409,430,448,470,489,509,529,548,568,589,608,629,649,670,689,709,729,749,770,789,810,829,848,870,890,909,928,949,969,989,1010,1030,1050,1068,1088],"xSR":741.5,"ySR":573.95,"xT1":424.9,"yT1":0,"xT2":1058.1,"yT2":0,"toosoon":0,"cond_shown":"equaldotanddens","ratio_trial":500,"smaller_num":"2","larger_num":"4","correct_side":1,"subjID":"samuelgonzalezgarcia6","gender":"0","age":"10","school":"4"},{"start_time":1552055060976,"click_time":1552055062463,"finger_time":1552055061723,"fix_duration":352.2581990088071,"trial":57,"RT":747,"MT":740,"sideResp":1,"stimulus":"img/500/randomdotsizeEA/L/8_Ratio_500_L_8_R_4.png","xmouse":[787,787,787,787,787,787,787,787,787,786,786,786,785,785,783,783,783,782,782,782,782,782,782,781,781,781,781,781,781,781,781,781,781,781,781,781,784,787,790,792,792,792,785,773,729,713,619,604,594,589,583,575,573,572,570,567,561,558,553,551,549,548,547,545,544,543,540,538,536,534,533,530,529,526,524],"ymouse":[622,622,622,622,622,622,622,622,621,620,620,619,618,618,618,618,617,616,616,616,616,616,616,616,616,616,616,616,616,615,614,612,610,606,598,596,581,572,558,540,522,494,469,427,321,284,136,115,99,87,73,53,51,48,45,42,39,39,41,42,44,48,51,52,53,53,53,53,53,54,55,55,56,56,58],"timestamp_mouse":[12,40,47,67,86,107,127,148,167,186,208,227,248,267,286,307,327,347,366,388,407,426,447,467,488,506,528,547,568,588,607,628,647,668,687,707,726,747,767,787,806,827,847,868,887,907,926,948,967,987,1006,1026,1048,1068,1087,1106,1126,1147,1167,1187,1206,1227,1247,1267,1288,1308,1326,1347,1367,1388,1407,1426,1447,1467,1486],"xSR":741.5,"ySR":573.95,"xT1":424.9,"yT1":0,"xT2":1058.1,"yT2":0,"toosoon":0,"cond_shown":"randomdotsizeEA","ratio_trial":500,"smaller_num":"4","larger_num":"8","correct_side":1,"subjID":"samuelgonzalezgarcia6","gender":"0","age":"10","school":"4"},{"start_time":1552055063809,"click_time":1552055065122,"finger_time":1552055064644,"fix_duration":324.7166367072281,"trial":58,"RT":835,"MT":478,"sideResp":1,"stimulus":"img/500/equaldotanddens/L/5_Ratio_500_L_4_R_2.png","xmouse":[780,780,780,780,780,780,780,780,780,779,778,778,778,777,777,777,775,769,763,763,763,763,763,763,763,763,763,763,763,763,763,763,763,763,763,763,763,763,769,782,792,798,799,795,772,753,728,703,682,659,649,638,627,613,579,570,559,552,550,547,543,537,524,519,517,516],"ymouse":[599,599,599,599,599,599,599,599,599,599,599,599,599,599,599,599,599,599,599,599,599,599,599,599,599,599,599,599,599,599,599,599,599,599,599,599,599,599,596,586,578,567,552,525,480,453,421,392,366,333,313,291,262,228,168,150,136,126,123,121,118,114,105,101,100,99],"timestamp_mouse":[14,42,55,75,94,114,135,154,175,195,214,235,255,273,294,314,333,354,375,394,414,434,455,475,494,514,535,554,574,594,615,635,654,673,695,714,735,755,775,795,814,835,854,875,894,913,933,955,974,994,1014,1034,1054,1073,1093,1115,1133,1153,1174,1193,1214,1235,1254,1275,1294,1313],"xSR":741.5,"ySR":573.95,"xT1":424.9,"yT1":0,"xT2":1058.1,"yT2":0,"toosoon":0,"cond_shown":"equaldotanddens","ratio_trial":500,"smaller_num":"2","larger_num":"4","correct_side":1,"subjID":"samuelgonzalezgarcia6","gender":"0","age":"10","school":"4"},{"start_time":1552055066361,"click_time":1552055067223,"finger_time":1552055066923,"fix_duration":294.81629548665387,"trial":59,"RT":562,"MT":300,"sideResp":1,"stimulus":"img/750/equaldotanddens/L/6_Ratio_750_L_24_R_18.png","xmouse":[764,764,764,764,764,764,764,764,764,764,764,764,764,764,764,764,764,764,764,764,764,764,764,764,764,764,764,756,748,737,725,715,686,680,676,675,673,648,621,591,564,538,486,459],"ymouse":[592,592,592,592,593,593,593,593,593,593,593,593,593,593,593,593,593,593,593,593,593,593,593,593,593,593,593,575,560,541,520,497,449,439,434,431,428,388,343,294,256,211,118,71],"timestamp_mouse":[14,22,41,61,81,102,123,142,162,181,203,222,242,262,282,302,322,342,363,383,402,421,441,463,483,501,523,542,562,582,602,622,643,662,683,703,721,743,763,783,803,821,843,861],"xSR":741.5,"ySR":573.95,"xT1":424.9,"yT1":0,"xT2":1058.1,"yT2":0,"toosoon":0,"cond_shown":"equaldotanddens","ratio_trial":750,"smaller_num":"18","larger_num":"24","correct_side":1,"subjID":"samuelgonzalezgarcia6","gender":"0","age":"10","school":"4"},{"start_time":1552055068136,"click_time":1552055069244,"finger_time":1552055068983,"fix_duration":250,"trial":60,"RT":847,"MT":261,"sideResp":2,"stimulus":"img/900/equaldotsize/R/5_Ratio_900_L_9_R_10.png","xmouse":[794,794,794,794,794,794,794,794,794,794,794,794,794,794,794,794,794,794,794,794,794,794,794,794,794,794,794,794,794,794,794,794,794,794,794,795,796,796,797,800,812,825,842,874,884,897,919,929,985,998,1009,1020,1040,1071,1071,1071],"ymouse":[665,665,665,665,665,665,665,665,665,665,665,665,665,665,665,665,665,665,665,665,665,665,665,665,665,665,665,665,665,665,665,665,662,662,661,659,659,659,659,656,648,638,627,602,590,573,535,520,419,395,379,361,307,140,103,88],"timestamp_mouse":[10,33,46,67,87,107,128,148,167,187,206,228,247,267,287,308,327,346,366,386,408,427,448,466,488,506,528,547,568,587,607,628,648,666,687,708,728,748,766,788,808,827,847,866,886,908,928,947,967,987,1007,1028,1047,1067,1087,1108],"xSR":741.5,"ySR":573.95,"xT1":424.9,"yT1":0,"xT2":1058.1,"yT2":0,"toosoon":0,"cond_shown":"equaldotsize","ratio_trial":900,"smaller_num":"9","larger_num":"10","correct_side":2,"subjID":"samuelgonzalezgarcia6","gender":"0","age":"10","school":"4"},{"start_time":1552055071774,"click_time":1552055072703,"finger_time":1552055072324,"fix_duration":1348.035668570319,"trial":61,"RT":550,"MT":379,"sideResp":2,"stimulus":"img/250/equaldotsize/R/13_Ratio_250_L_2_R_8.png","xmouse":[835,835,835,835,835,835,835,835,835,835,835,835,835,835,835,835,835,835,835,835,835,835,835,835,835,835,837,844,855,867,880,915,934,958,981,1003,1023,1033,1041,1051,1064,1108,1118,1125,1126,1126,1126],"ymouse":[641,640,639,639,639,639,639,639,639,639,639,639,639,639,639,639,639,639,639,639,639,639,639,639,637,635,629,618,603,589,578,546,521,471,427,384,353,335,317,292,253,143,118,110,109,108,95],"timestamp_mouse":[12,41,51,69,90,108,130,150,168,189,208,229,249,270,290,309,329,349,370,388,408,430,450,469,489,510,528,550,569,588,608,628,650,669,689,710,728,749,769,790,810,830,850,870,890,908,928],"xSR":741.5,"ySR":573.95,"xT1":424.9,"yT1":0,"xT2":1058.1,"yT2":0,"toosoon":0,"cond_shown":"equaldotsize","ratio_trial":250,"smaller_num":"2","larger_num":"8","correct_side":2,"subjID":"samuelgonzalezgarcia6","gender":"0","age":"10","school":"4"},{"start_time":1552055074243,"click_time":1552055075244,"finger_time":1552055074702,"fix_duration":717.5432291780692,"trial":62,"RT":459,"MT":542,"sideResp":1,"stimulus":"img/250/equaldotsize/L/1_Ratio_250_L_8_R_2.png","xmouse":[812,812,812,812,812,812,812,812,812,812,813,813,813,813,813,813,813,813,813,813,813,814,814,811,805,798,790,783,773,766,756,746,735,693,654,596,550,538,538,539,540,540,540,540,540,537,530,522,511,507,504],"ymouse":[595,595,595,595,595,595,595,595,595,595,595,595,595,595,595,595,595,595,595,595,595,594,593,570,555,534,512,494,467,450,428,407,389,326,281,227,188,176,175,174,173,171,170,169,164,154,140,123,106,102,98],"timestamp_mouse":[10,21,41,59,81,101,119,141,161,181,201,220,239,261,280,300,321,341,361,381,399,420,440,459,480,499,520,540,561,581,599,620,639,659,680,699,720,741,760,780,801,821,840,861,880,899,919,940,959,981,1000],"xSR":741.5,"ySR":573.95,"xT1":424.9,"yT1":0,"xT2":1058.1,"yT2":0,"toosoon":0,"cond_shown":"equaldotsize","ratio_trial":250,"smaller_num":"2","larger_num":"8","correct_side":1,"subjID":"samuelgonzalezgarcia6","gender":"0","age":"10","school":"4"},{"start_time":1552055077384,"click_time":1552055078984,"finger_time":1552055078064,"fix_duration":1458.9756833884994,"trial":63,"RT":680,"MT":920,"sideResp":1,"stimulus":"img/900/equaldotsize/L/2_Ratio_900_L_20_R_18.png","xmouse":[805,805,805,805,805,805,805,805,805,805,805,805,805,805,805,806,806,807,807,807,807,807,807,807,807,807,807,807,807,807,807,805,804,803,798,794,773,752,718,690,667,647,646,645,645,645,644,644,644,644,643,642,641,640,636,622,600,596,596,596,596,594,590,584,577,568,556,544,534,526,525,525,525,525,525,525,525,525,525,525,524],"ymouse":[593,593,593,593,593,593,593,593,593,593,593,593,593,593,593,593,593,592,591,591,591,591,591,591,591,591,591,591,591,591,589,586,582,576,566,556,522,494,456,422,397,369,366,364,363,362,360,359,358,357,356,349,344,338,329,301,269,263,263,263,263,252,238,221,205,180,135,109,83,66,62,62,62,61,57,57,56,56,56,56,55],"timestamp_mouse":[1,32,39,58,80,99,120,138,158,179,199,218,240,260,279,299,319,339,360,379,400,420,439,460,480,499,520,539,559,580,598,618,640,659,680,699,718,738,759,780,799,820,838,858,878,899,918,938,959,979,998,1019,1039,1060,1080,1100,1119,1139,1160,1179,1199,1218,1240,1258,1280,1299,1319,1339,1359,1378,1399,1420,1440,1459,1480,1500,1519,1539,1558,1578,1599],"xSR":741.5,"ySR":573.95,"xT1":424.9,"yT1":0,"xT2":1058.1,"yT2":0,"toosoon":0,"cond_shown":"equaldotsize","ratio_trial":900,"smaller_num":"18","larger_num":"20","correct_side":1,"subjID":"samuelgonzalezgarcia6","gender":"0","age":"10","school":"4"},{"start_time":1552055080755,"click_time":1552055081824,"finger_time":1552055081364,"fix_duration":930.5809934328972,"trial":64,"RT":609,"MT":460,"sideResp":2,"stimulus":"img/750/equaldotsize/R/4_Ratio_750_L_15_R_20.png","xmouse":[762,762,762,762,762,762,762,762,762,762,762,762,762,762,762,762,762,762,762,762,762,762,762,762,762,762,762,771,788,802,822,845,868,886,909,926,943,964,965,967,971,976,983,989,995,1006,1021,1024,1028,1034,1046,1062,1079,1082],"ymouse":[621,621,621,621,621,621,621,621,621,621,621,621,621,621,621,621,621,621,621,621,621,621,621,621,621,621,621,617,607,592,564,529,484,454,397,335,273,194,190,186,181,171,151,143,137,129,125,124,122,120,114,107,100,99],"timestamp_mouse":[12,38,48,69,88,107,128,149,168,189,208,228,249,268,287,308,327,349,369,388,407,427,449,468,488,507,527,547,567,589,609,629,648,667,689,709,729,748,768,787,808,829,848,868,888,909,928,948,968,987,1007,1027,1048,1069],"xSR":741.5,"ySR":573.95,"xT1":424.9,"yT1":0,"xT2":1058.1,"yT2":0,"toosoon":0,"cond_shown":"equaldotsize","ratio_trial":750,"smaller_num":"15","larger_num":"20","correct_side":2,"subjID":"samuelgonzalezgarcia6","gender":"0","age":"10","school":"4"},{"start_time":1552055083389,"click_time":1552055084202,"finger_time":1552055084003,"fix_duration":804.9652459870141,"trial":65,"RT":614,"MT":199,"sideResp":1,"stimulus":"img/250/equaldotanddens/L/15_Ratio_250_L_12_R_3.png","xmouse":[758,758,758,758,758,758,758,758,758,758,758,758,758,758,758,758,758,758,758,758,758,758,758,758,758,758,758,759,762,767,771,771,771,767,745,689,655,613,572,541,508],"ymouse":[653,653,653,653,653,653,653,653,653,653,653,653,653,653,653,653,653,653,653,653,653,653,653,653,653,653,653,647,640,618,561,533,509,481,407,290,231,176,123,85,38],"timestamp_mouse":[15,34,55,73,94,114,134,154,175,193,213,233,255,275,295,315,334,354,374,393,414,435,454,475,494,515,534,554,574,593,614,634,654,675,695,713,735,754,774,795,813],"xSR":741.5,"ySR":573.95,"xT1":424.9,"yT1":0,"xT2":1058.1,"yT2":0,"toosoon":0,"cond_shown":"equaldotanddens","ratio_trial":250,"smaller_num":"3","larger_num":"12","correct_side":1,"subjID":"samuelgonzalezgarcia6","gender":"0","age":"10","school":"4"},{"start_time":1552055086007,"click_time":1552055087284,"finger_time":1552055086843,"fix_duration":1081.382754662484,"trial":66,"RT":836,"MT":441,"sideResp":2,"stimulus":"img/900/equaldotanddens/L/8_Ratio_900_L_20_R_18.png","xmouse":[779,779,779,779,779,779,779,779,779,779,779,779,779,780,781,781,781,781,781,781,781,781,781,782,784,784,785,785,786,787,788,791,793,796,800,801,801,802,803,818,830,847,877,886,938,957,969,979,991,1002,1004,1006,1007,1013,1023,1027,1031,1032,1035,1036,1038,1043,1055,1064],"ymouse":[660,660,660,660,660,660,660,660,660,660,660,660,660,660,660,660,660,660,660,660,660,660,660,660,660,660,660,660,659,659,658,654,652,649,647,647,646,645,644,634,627,616,590,580,487,436,383,322,259,180,162,154,146,123,86,69,58,53,49,46,44,40,29,19],"timestamp_mouse":[16,45,57,76,96,116,136,157,177,197,216,237,257,276,296,316,337,356,376,397,417,437,456,476,496,517,536,557,576,597,616,637,656,677,697,715,737,755,775,797,816,836,856,875,895,917,935,956,976,995,1016,1036,1056,1077,1095,1116,1136,1156,1175,1196,1217,1236,1256,1276],"xSR":741.5,"ySR":573.95,"xT1":424.9,"yT1":0,"xT2":1058.1,"yT2":0,"toosoon":0,"cond_shown":"equaldotanddens","ratio_trial":900,"smaller_num":"18","larger_num":"20","correct_side":1,"subjID":"samuelgonzalezgarcia6","gender":"0","age":"10","school":"4"},{"start_time":1552055090710,"click_time":1552055091463,"finger_time":1552055091302,"fix_duration":1206.5697284550042,"trial":67,"RT":592,"MT":161,"sideResp":2,"stimulus":"img/900/equaldotsize/R/7_Ratio_900_L_9_R_10.png","xmouse":[775,775,775,775,775,775,775,775,775,775,775,775,775,775,775,775,775,775,775,775,775,775,775,775,775,776,777,780,789,831,874,928,984,1031,1077,1088,1095,1102],"ymouse":[612,612,612,612,612,612,612,612,612,612,612,612,612,612,612,612,612,612,612,612,612,612,612,612,612,612,611,609,602,556,510,441,362,274,164,129,100,74],"timestamp_mouse":[13,39,53,72,93,114,133,152,174,193,212,232,253,274,292,312,333,353,374,393,414,433,453,474,494,514,533,553,573,592,613,632,653,672,692,712,733,753],"xSR":741.5,"ySR":573.95,"xT1":424.9,"yT1":0,"xT2":1058.1,"yT2":0,"toosoon":0,"cond_shown":"equaldotsize","ratio_trial":900,"smaller_num":"9","larger_num":"10","correct_side":2,"subjID":"samuelgonzalezgarcia6","gender":"0","age":"10","school":"4"},{"start_time":1552055094993,"click_time":1552055095982,"finger_time":1552055095663,"fix_duration":1188.5337907408987,"trial":68,"RT":670,"MT":319,"sideResp":1,"stimulus":"img/500/randomdotsizeEA/L/5_Ratio_500_L_4_R_2.png","xmouse":[808,808,808,808,808,808,808,808,808,808,808,808,808,808,808,808,808,808,808,808,808,808,808,808,808,808,808,808,808,808,808,819,825,850,858,900,914,920,923,924,924,924,923,921,904,789,711,629,550,479],"ymouse":[642,642,642,642,642,642,642,642,642,642,642,642,642,642,642,642,642,642,642,642,642,642,642,642,642,642,642,642,642,642,642,634,631,605,594,514,475,456,443,436,430,430,427,425,410,300,230,150,75,20],"timestamp_mouse":[21,39,51,70,89,109,131,151,170,191,210,230,249,270,291,310,331,350,370,389,409,429,449,471,490,509,529,551,571,591,609,629,651,670,690,710,729,749,770,789,809,830,851,871,891,911,930,950,970,989],"xSR":741.5,"ySR":573.95,"xT1":424.9,"yT1":0,"xT2":1058.1,"yT2":0,"toosoon":0,"cond_shown":"randomdotsizeEA","ratio_trial":500,"smaller_num":"2","larger_num":"4","correct_side":1,"subjID":"samuelgonzalezgarcia6","gender":"0","age":"10","school":"4"},{"start_tim