[{"start_time":1552054117832,"click_time":1552054121788,"finger_time":1552054117848,"fix_duration":1221.3537052774439,"trial":0,"RT":16,"MT":3940,"sideResp":2,"stimulus":[],"xmouse":[779,779,779,779,779,779,779,779,779,779,779,779,779,779,779,779,779,779,779,779,779,779,779,779,779,779,779,779,779,779,779,779,779,779,779,778,778,778,778,779,779,779,779,779,779,779,779,779,779,779,777,776,774,773,771,771,770,770,769,766,769,772,772,772,772,772,772,772,772,772,772,772,772,772,772,772,772,772,772,772,772,772,772,772,773,773,773,773,773,773,773,773,773,773,773,774,774,774,774,774,774,774,774,774,774,774,774,774,774,774,774,774,774,774,774,774,774,774,774,774,774,774,774,774,774,774,774,774,775,776,777,777,779,780,781,783,783,783,783,784,790,805,826,846,858,874,881,893,911,943,1077,1136,1177,1200,1238,1250,1267,1288,1319,1361,1520,1520,1520,1520,1520,1520,1520,1520,1520,1520,1565,1552,1546,1546,1545,1545,1545,1547,1548,1549,1549,1549,1549,1541,1517,1375,1291,1229,1196,1182,1173,1171,1166,1157,1142,1139,1141,1148],"ymouse":[524,524,524,524,524,524,524,524,524,524,524,524,524,524,524,524,524,524,524,524,524,524,524,524,524,524,524,524,524,524,524,524,524,524,524,525,526,527,528,531,532,533,535,535,536,536,536,537,537,539,544,546,549,550,556,557,558,559,561,567,601,610,612,612,612,612,612,612,612,612,612,612,612,612,612,612,612,612,612,612,612,612,612,612,612,612,612,612,612,612,612,612,612,612,612,612,612,612,612,612,612,612,612,612,612,612,612,612,612,612,612,612,612,612,612,612,612,612,612,612,612,612,612,612,612,612,612,612,612,611,611,611,611,611,611,612,612,612,612,612,611,603,594,583,575,555,544,533,519,499,427,394,373,364,353,344,328,302,264,209,0,0,0,0,0,0,0,0,0,0,0,0,0,0,0,0,0,0,0,0,0,0,0,2,12,66,95,111,119,122,122,122,122,122,118,111,106,98],"timestamp_mouse":[15,35,55,75,95,114,134,155,175,196,214,234,255,274,296,316,335,356,375,394,414,435,454,474,496,514,534,555,575,594,614,635,656,676,694,715,734,755,775,795,814,836,856,875,895,916,935,956,974,995,1014,1034,1054,1075,1095,1115,1135,1155,1176,1195,1214,1236,1255,1274,1295,1316,1335,1356,1376,1395,1415,1435,1454,1476,1494,1515,1535,1556,1575,1594,1614,1635,1654,1676,1695,1715,1735,1756,1775,1795,1814,1835,1856,1875,1895,1915,1936,1955,1974,1995,2014,2034,2055,2076,2096,2115,2135,2156,2176,2195,2215,2236,2254,2274,2295,2315,2336,2354,2376,2394,2414,2434,2456,2476,2495,2515,2535,2556,2575,2595,2614,2635,2654,2676,2694,2715,2735,2755,2774,2795,2814,2835,2855,2875,2896,2916,2935,2956,2975,2996,3014,3035,3055,3075,3095,3114,3134,3155,3174,3196,3215,3235,3256,3276,3297,3315,3335,3355,3374,3397,3416,3435,3455,3474,3495,3515,3535,3554,3575,3594,3614,3634,3654,3676,3695,3714,3735,3754,3774,3794,3814,3834,3855,3875,3895,3916,3935,3955],"xSR":741.5,"ySR":469.95,"xT1":424.9,"yT1":0,"xT2":1058.1,"yT2":0,"toosoon":0,"cond_shown":"Congruent","ratio_trial":300,"L_num":1,"L_den":30,"R_num":8,"R_den":24,"correct_side":2,"subjID":"samuelgonzalezgarcia6","gender":"0","age":"9","school":"4","test":{"fix_dur":[250,1500],"timestim":1000,"targets_dim":[100,100],"targets_relative_coord":[0.3,0.7],"size_stim":[880,420],"start_dim":[100,100],"size_start":[300,300],"size_fix":60,"samplingrate":20,"img_types":["Congruent","Incongruent"],"ratios":[100,200,300],"rep_conds":19,"nTrials":120,"trials_to_rest":500,"Trials_order":[22,77,61,17,107,109,81,43,41,72,105,53,104,0,99,2,27,96,12,50,21,115,46,116,9,13,66,85,5,28,74,29,24,25,34,73,15,102,3,118,89,54,31,35,71,8,33,103,6,93,48,4,47,39,75,45,62,70,11,100,108,114,65,59,67,19,42,10,36,97,80,111,101,30,69,86,76,92,38,18,44,119,57,91,83,79,7,26,88,14,78,90,20,40,110,55,82,63,68,106,1,60,95,58,23,98,84,64,32,56,49,52,16,112,117,87,113,51,37,94],"cond_shown":["Congruent","Incongruent","Incongruent","Incongruent","Incongruent","Incongruent","Incongruent","Incongruent","Incongruent","Congruent","Incongruent","Incongruent","Congruent","Congruent","Incongruent","Congruent","Incongruent","Congruent","Congruent","Congruent","Incongruent","Incongruent","Congruent","Congruent","Incongruent","Incongruent","Congruent","Incongruent","Incongruent","Congruent","Congruent","Incongruent","Congruent","Incongruent","Congruent","Incongruent","Incongruent","Congruent","Incongruent","Congruent","Incongruent","Congruent","Incongruent","Incongruent","Incongruent","Congruent","Incongruent","Incongruent","Congruent","Incongruent","Congruent","Congruent","Incongruent","Incongruent","Incongruent","Incongruent","Congruent","Congruent","Incongruent","Congruent","Congruent","Congruent","Incongruent","Incongruent","Incongruent","Incongruent","Congruent","Congruent","Congruent","Incongruent","Congruent","Incongruent","Incongruent","Congruent","Incongruent","Congruent","Congruent","Congruent","Congruent","Congruent","Congruent","Incongruent","Incongruent","Incongruent","Incongruent","Incongruent","Incongruent","Congruent","Congruent","Congruent","Congruent","Congruent","Congruent","Congruent","Congruent","Incongruent","Congruent","Incongruent","Congruent","Congruent","Incongruent","Congruent","Incongruent","Congruent","Incongruent","Congruent","Congruent","Congruent","Congruent","Congruent","Incongruent","Congruent","Congruent","Congruent","Incongruent","Incongruent","Incongruent","Incongruent","Incongruent","Congruent"],"ratio_trial":[300,300,100,300,300,100,200,100,300,100,200,300,200,100,200,200,200,100,100,200,200,100,300,200,200,100,100,100,300,300,200,300,100,100,300,100,200,100,200,300,300,100,100,300,300,200,200,100,100,200,100,300,300,200,200,200,200,300,300,300,100,100,300,300,100,100,100,300,100,100,200,200,300,100,200,200,300,200,200,100,200,300,200,100,300,100,100,200,300,200,100,100,200,300,200,100,300,200,200,300,100,100,300,300,300,200,100,300,200,200,100,300,300,300,200,200,300,200,100,300],"left_num":[1,4,6,2,7,9,14,9,1,6,7,8,9,8,7,11,14,7,6,20,7,13,8,6,7,12,10,6,13,1,13,4,2,12,5,3,4,4,14,18,4,12,10,13,4,6,7,13,1,4,8,4,1,7,7,11,16,8,7,1,2,3,13,4,2,8,7,1,4,6,16,7,8,15,4,7,2,16,20,2,12,8,14,9,1,6,9,7,24,12,8,6,9,3,8,3,7,14,11,1,13,4,1,24,1,6,2,1,6,3,6,4,24,5,6,7,7,4,10,1],"right_num":[8,2,7,6,8,6,6,6,3,5,14,9,13,2,14,3,6,15,5,9,12,6,1,11,4,9,3,7,12,19,14,8,11,9,6,4,1,15,12,9,2,13,9,12,8,11,8,6,3,1,2,1,3,4,4,3,9,10,8,6,11,4,12,2,8,1,15,11,15,3,9,12,9,13,1,18,10,12,9,11,6,14,6,13,3,13,13,18,8,6,2,15,4,2,2,11,20,6,3,19,6,6,3,8,3,7,11,6,3,14,3,1,2,6,3,4,8,14,9,8],"left_den":[30,20,10,4,10,18,30,18,2,20,10,10,30,16,10,22,30,14,20,25,10,26,16,20,15,24,25,10,26,3,26,5,5,24,25,6,30,10,30,20,20,30,25,26,5,20,10,26,2,30,16,10,2,15,15,20,30,15,10,5,5,20,26,20,4,20,14,5,10,12,30,10,10,25,30,15,20,20,25,5,20,10,30,15,2,10,15,15,30,20,16,12,20,6,15,5,14,30,22,3,26,8,2,30,2,12,5,5,15,6,12,10,30,25,20,15,10,6,25,30],"right_den":[24,4,14,30,20,10,9,10,15,25,28,18,26,5,28,10,9,25,25,15,24,10,5,22,6,15,10,14,15,30,20,16,22,15,12,10,3,30,18,15,4,26,18,15,16,22,16,10,5,3,5,10,15,6,6,4,27,12,20,12,22,16,15,4,20,2,25,22,30,5,27,24,18,26,3,27,25,20,15,22,15,28,9,26,15,26,26,27,16,15,5,25,16,10,6,22,25,9,10,30,10,10,15,16,15,10,22,12,15,20,5,10,4,12,6,6,20,30,18,24],"correct_side":[2,2,1,1,1,2,2,2,1,1,1,1,2,1,1,1,2,2,1,1,1,2,1,2,2,2,1,1,2,2,2,1,2,2,2,1,2,2,2,1,2,2,2,2,1,2,1,2,2,2,1,1,1,2,2,2,1,2,1,2,2,2,2,2,1,2,2,2,2,2,1,1,1,1,2,2,2,1,1,2,1,1,2,1,1,1,1,2,1,1,1,2,1,1,1,1,2,2,1,2,2,2,1,1,1,2,2,2,1,2,2,1,1,2,2,2,1,1,2,2],"img_shown":["img2/300/Congruent/R/C_Dist_300_LN_1_LD_30_RN_8_RD_24_1.png","img2/300/Incongruent/R/I_Dist_300_LN_4_LD_20_RN_2_RD_4_1.png","img2/100/Incongruent/L/I_Dist_100_LN_6_LD_10_RN_7_RD_14_0.png","img2/300/Incongruent/L/I_Dist_300_LN_2_LD_4_RN_6_RD_30_0.png","img2/300/Incongruent/L/I_Dist_300_LN_7_LD_10_RN_8_RD_20_0.png","img2/100/Incongruent/R/I_Dist_100_LN_9_LD_18_RN_6_RD_10_1.png","img2/200/Incongruent/R/I_Dist_200_LN_14_LD_30_RN_6_RD_9_1.png","img2/100/Incongruent/R/I_Dist_100_LN_9_LD_18_RN_6_RD_10_1.png","img2/300/Incongruent/L/I_Dist_300_LN_1_LD_2_RN_3_RD_15_0.png","img2/100/Congruent/L/C_Dist_100_LN_6_LD_20_RN_5_RD_25_0.png","img2/200/Incongruent/L/I_Dist_200_LN_7_LD_10_RN_14_RD_28_0.png","img2/300/Incongruent/L/I_Dist_300_LN_8_LD_10_RN_9_RD_18_0.png","img2/200/Congruent/R/C_Dist_200_LN_9_LD_30_RN_13_RD_26_1.png","img2/100/Congruent/L/C_Dist_100_LN_8_LD_16_RN_2_RD_5_0.png","img2/200/Incongruent/L/I_Dist_200_LN_7_LD_10_RN_14_RD_28_0.png","img2/200/Congruent/L/C_Dist_200_LN_11_LD_22_RN_3_RD_10_0.png","img2/200/Incongruent/R/I_Dist_200_LN_14_LD_30_RN_6_RD_9_1.png","img2/100/Congruent/R/C_Dist_100_LN_7_LD_14_RN_15_RD_25_1.png","img2/100/Congruent/L/C_Dist_100_LN_6_LD_20_RN_5_RD_25_0.png","img2/200/Congruent/L/C_Dist_200_LN_20_LD_25_RN_9_RD_15_0.png","img2/200/Incongruent/L/I_Dist_200_LN_7_LD_10_RN_12_RD_24_0.png","img2/100/Incongruent/R/I_Dist_100_LN_13_LD_26_RN_6_RD_10_1.png","img2/300/Congruent/L/C_Dist_300_LN_8_LD_16_RN_1_RD_5_0.png","img2/200/Congruent/R/C_Dist_200_LN_6_LD_20_RN_11_RD_22_1.png","img2/200/Incongruent/R/I_Dist_200_LN_7_LD_15_RN_4_RD_6_1.png","img2/100/Incongruent/R/I_Dist_100_LN_12_LD_24_RN_9_RD_15_1.png","img2/100/Congruent/L/C_Dist_100_LN_10_LD_25_RN_3_RD_10_0.png","img2/100/Incongruent/L/I_Dist_100_LN_6_LD_10_RN_7_RD_14_0.png","img2/300/Incongruent/R/I_Dist_300_LN_13_LD_26_RN_12_RD_15_1.png","img2/300/Congruent/R/C_Dist_300_LN_1_LD_3_RN_19_RD_30_1.png","img2/200/Congruent/R/C_Dist_200_LN_13_LD_26_RN_14_RD_20_1.png","img2/300/Incongruent/L/I_Dist_300_LN_4_LD_5_RN_8_RD_16_0.png","img2/100/Congruent/R/C_Dist_100_LN_2_LD_5_RN_11_RD_22_1.png","img2/100/Incongruent/R/I_Dist_100_LN_12_LD_24_RN_9_RD_15_1.png","img2/300/Congruent/R/C_Dist_300_LN_5_LD_25_RN_6_RD_12_1.png","img2/100/Incongruent/L/I_Dist_100_LN_3_LD_6_RN_4_RD_10_0.png","img2/200/Incongruent/R/I_Dist_200_LN_4_LD_30_RN_1_RD_3_1.png","img2/100/Congruent/R/C_Dist_100_LN_4_LD_10_RN_15_RD_30_1.png","img2/200/Incongruent/R/I_Dist_200_LN_14_LD_30_RN_12_RD_18_1.png","img2/300/Congruent/L/C_Dist_300_LN_18_LD_20_RN_9_RD_15_0.png","img2/300/Incongruent/R/I_Dist_300_LN_4_LD_20_RN_2_RD_4_1.png","img2/100/Congruent/R/C_Dist_100_LN_12_LD_30_RN_13_RD_26_1.png","img2/100/Incongruent/R/I_Dist_100_LN_10_LD_25_RN_9_RD_18_1.png","img2/300/Incongruent/R/I_Dist_300_LN_13_LD_26_RN_12_RD_15_1.png","img2/300/Incongruent/L/I_Dist_300_LN_4_LD_5_RN_8_RD_16_0.png","img2/200/Congruent/R/C_Dist_200_LN_6_LD_20_RN_11_RD_22_1.png","img2/200/Incongruent/L/I_Dist_200_LN_7_LD_10_RN_8_RD_16_0.png","img2/100/Incongruent/R/I_Dist_100_LN_13_LD_26_RN_6_RD_10_1.png","img2/100/Congruent/R/C_Dist_100_LN_1_LD_2_RN_3_RD_5_1.png","img2/200/Incongruent/R/I_Dist_200_LN_4_LD_30_RN_1_RD_3_1.png","img2/100/Congruent/L/C_Dist_100_LN_8_LD_16_RN_2_RD_5_0.png","img2/300/Congruent/L/C_Dist_300_LN_4_LD_10_RN_1_RD_10_0.png","img2/300/Incongruent/L/I_Dist_300_LN_1_LD_2_RN_3_RD_15_0.png","img2/200/Incongruent/R/I_Dist_200_LN_7_LD_15_RN_4_RD_6_1.png","img2/200/Incongruent/R/I_Dist_200_LN_7_LD_15_RN_4_RD_6_1.png","img2/200/Incongruent/R/I_Dist_200_LN_11_LD_20_RN_3_RD_4_1.png","img2/200/Congruent/L/C_Dist_200_LN_16_LD_30_RN_9_RD_27_0.png","img2/300/Congruent/R/C_Dist_300_LN_8_LD_15_RN_10_RD_12_1.png","img2/300/Incongruent/L/I_Dist_300_LN_7_LD_10_RN_8_RD_20_0.png","img2/300/Congruent/R/C_Dist_300_LN_1_LD_5_RN_6_RD_12_1.png","img2/100/Congruent/R/C_Dist_100_LN_2_LD_5_RN_11_RD_22_1.png","img2/100/Congruent/R/C_Dist_100_LN_3_LD_20_RN_4_RD_16_1.png","img2/300/Incongruent/R/I_Dist_300_LN_13_LD_26_RN_12_RD_15_1.png","img2/300/Incongruent/R/I_Dist_300_LN_4_LD_20_RN_2_RD_4_1.png","img2/100/Incongruent/L/I_Dist_100_LN_2_LD_4_RN_8_RD_20_0.png","img2/100/Incongruent/R/I_Dist_100_LN_8_LD_20_RN_1_RD_2_1.png","img2/100/Congruent/R/C_Dist_100_LN_7_LD_14_RN_15_RD_25_1.png","img2/300/Congruent/R/C_Dist_300_LN_1_LD_5_RN_11_RD_22_1.png","img2/100/Congruent/R/C_Dist_100_LN_4_LD_10_RN_15_RD_30_1.png","img2/100/Incongruent/R/I_Dist_100_LN_6_LD_12_RN_3_RD_5_1.png","img2/200/Congruent/L/C_Dist_200_LN_16_LD_30_RN_9_RD_27_0.png","img2/200/Incongruent/L/I_Dist_200_LN_7_LD_10_RN_12_RD_24_0.png","img2/300/Incongruent/L/I_Dist_300_LN_8_LD_10_RN_9_RD_18_0.png","img2/100/Congruent/L/C_Dist_100_LN_15_LD_25_RN_13_RD_26_0.png","img2/200/Incongruent/R/I_Dist_200_LN_4_LD_30_RN_1_RD_3_1.png","img2/200/Congruent/R/C_Dist_200_LN_7_LD_15_RN_18_RD_27_1.png","img2/300/Congruent/R/C_Dist_300_LN_2_LD_20_RN_10_RD_25_1.png","img2/200/Congruent/L/C_Dist_200_LN_16_LD_20_RN_12_RD_20_0.png","img2/200/Congruent/L/C_Dist_200_LN_20_LD_25_RN_9_RD_15_0.png","img2/100/Congruent/R/C_Dist_100_LN_2_LD_5_RN_11_RD_22_1.png","img2/200/Congruent/L/C_Dist_200_LN_12_LD_20_RN_6_RD_15_0.png","img2/300/Incongruent/L/I_Dist_300_LN_8_LD_10_RN_14_RD_28_0.png","img2/200/Incongruent/R/I_Dist_200_LN_14_LD_30_RN_6_RD_9_1.png","img2/100/Incongruent/L/I_Dist_100_LN_9_LD_15_RN_13_RD_26_0.png","img2/300/Incongruent/L/I_Dist_300_LN_1_LD_2_RN_3_RD_15_0.png","img2/100/Incongruent/L/I_Dist_100_LN_6_LD_10_RN_13_RD_26_0.png","img2/100/Incongruent/L/I_Dist_100_LN_9_LD_15_RN_13_RD_26_0.png","img2/200/Congruent/R/C_Dist_200_LN_7_LD_15_RN_18_RD_27_1.png","img2/300/Congruent/L/C_Dist_300_LN_24_LD_30_RN_8_RD_16_0.png","img2/200/Congruent/L/C_Dist_200_LN_12_LD_20_RN_6_RD_15_0.png","img2/100/Congruent/L/C_Dist_100_LN_8_LD_16_RN_2_RD_5_0.png","img2/100/Congruent/R/C_Dist_100_LN_6_LD_12_RN_15_RD_25_1.png","img2/200/Congruent/L/C_Dist_200_LN_9_LD_20_RN_4_RD_16_0.png","img2/300/Congruent/L/C_Dist_300_LN_3_LD_6_RN_2_RD_10_0.png","img2/200/Congruent/L/C_Dist_200_LN_8_LD_15_RN_2_RD_6_0.png","img2/100/Incongruent/L/I_Dist_100_LN_3_LD_5_RN_11_RD_22_0.png","img2/300/Congruent/R/C_Dist_300_LN_7_LD_14_RN_20_RD_25_1.png","img2/200/Incongruent/R/I_Dist_200_LN_14_LD_30_RN_6_RD_9_1.png","img2/200/Congruent/L/C_Dist_200_LN_11_LD_22_RN_3_RD_10_0.png","img2/300/Congruent/R/C_Dist_300_LN_1_LD_3_RN_19_RD_30_1.png","img2/100/Incongruent/R/I_Dist_100_LN_13_LD_26_RN_6_RD_10_1.png","img2/100/Congruent/R/C_Dist_100_LN_4_LD_8_RN_6_RD_10_1.png","img2/300/Incongruent/L/I_Dist_300_LN_1_LD_2_RN_3_RD_15_0.png","img2/300/Congruent/L/C_Dist_300_LN_24_LD_30_RN_8_RD_16_0.png","img2/300/Incongruent/L/I_Dist_300_LN_1_LD_2_RN_3_RD_15_0.png","img2/200/Congruent/R/C_Dist_200_LN_6_LD_12_RN_7_RD_10_1.png","img2/100/Congruent/R/C_Dist_100_LN_2_LD_5_RN_11_RD_22_1.png","img2/300/Congruent/R/C_Dist_300_LN_1_LD_5_RN_6_RD_12_1.png","img2/200/Congruent/L/C_Dist_200_LN_6_LD_15_RN_3_RD_15_0.png","img2/200/Congruent/R/C_Dist_200_LN_3_LD_6_RN_14_RD_20_1.png","img2/100/Incongruent/R/I_Dist_100_LN_6_LD_12_RN_3_RD_5_1.png","img2/300/Congruent/L/C_Dist_300_LN_4_LD_10_RN_1_RD_10_0.png","img2/300/Congruent/L/C_Dist_300_LN_24_LD_30_RN_2_RD_4_0.png","img2/300/Congruent/R/C_Dist_300_LN_5_LD_25_RN_6_RD_12_1.png","img2/200/Incongruent/R/I_Dist_200_LN_6_LD_20_RN_3_RD_6_1.png","img2/200/Incongruent/R/I_Dist_200_LN_7_LD_15_RN_4_RD_6_1.png","img2/300/Incongruent/L/I_Dist_300_LN_7_LD_10_RN_8_RD_20_0.png","img2/200/Incongruent/L/I_Dist_200_LN_4_LD_6_RN_14_RD_30_0.png","img2/100/Incongruent/R/I_Dist_100_LN_10_LD_25_RN_9_RD_18_1.png","img2/300/Congruent/R/C_Dist_300_LN_1_LD_30_RN_8_RD_24_1.png"],"dist100_C":[["C_Dist_100_LN_10_LD_25_RN_3_RD_10_0.png","C_Dist_100_LN_11_LD_22_RN_4_RD_10_0.png","C_Dist_100_LN_11_LD_22_RN_6_RD_15_0.png","C_Dist_100_LN_15_LD_25_RN_13_RD_26_0.png","C_Dist_100_LN_3_LD_6_RN_2_RD_5_0.png","C_Dist_100_LN_6_LD_20_RN_5_RD_25_0.png","C_Dist_100_LN_8_LD_16_RN_2_RD_5_0.png","C_Dist_100_LN_9_LD_15_RN_8_RD_16_0.png"],["C_Dist_100_LN_1_LD_2_RN_18_RD_30_1.png","C_Dist_100_LN_1_LD_2_RN_3_RD_5_1.png","C_Dist_100_LN_12_LD_30_RN_13_RD_26_1.png","C_Dist_100_LN_2_LD_5_RN_11_RD_22_1.png","C_Dist_100_LN_2_LD_5_RN_6_RD_12_1.png","C_Dist_100_LN_3_LD_20_RN_4_RD_16_1.png","C_Dist_100_LN_4_LD_10_RN_15_RD_30_1.png","C_Dist_100_LN_4_LD_8_RN_6_RD_10_1.png","C_Dist_100_LN_6_LD_12_RN_15_RD_25_1.png","C_Dist_100_LN_7_LD_14_RN_15_RD_25_1.png","C_Dist_100_LN_7_LD_14_RN_9_RD_15_1.png"]],"dist100_I":[["I_Dist_100_LN_1_LD_2_RN_8_RD_20_0.png","I_Dist_100_LN_2_LD_4_RN_6_RD_15_0.png","I_Dist_100_LN_2_LD_4_RN_8_RD_20_0.png","I_Dist_100_LN_3_LD_5_RN_11_RD_22_0.png","I_Dist_100_LN_3_LD_5_RN_8_RD_16_0.png","I_Dist_100_LN_3_LD_6_RN_4_RD_10_0.png","I_Dist_100_LN_3_LD_9_RN_7_RD_30_0.png","I_Dist_100_LN_4_LD_8_RN_8_RD_20_0.png","I_Dist_100_LN_6_LD_10_RN_11_RD_22_0.png","I_Dist_100_LN_6_LD_10_RN_13_RD_26_0.png","I_Dist_100_LN_6_LD_10_RN_7_RD_14_0.png","I_Dist_100_LN_9_LD_10_RN_20_RD_25_0.png","I_Dist_100_LN_9_LD_15_RN_13_RD_26_0.png","I_Dist_100_LN_9_LD_15_RN_14_RD_28_0.png"],["I_Dist_100_LN_10_LD_25_RN_8_RD_16_1.png","I_Dist_100_LN_10_LD_25_RN_9_RD_18_1.png","I_Dist_100_LN_11_LD_22_RN_9_RD_15_1.png","I_Dist_100_LN_12_LD_24_RN_9_RD_15_1.png","I_Dist_100_LN_12_LD_30_RN_2_RD_4_1.png","I_Dist_100_LN_13_LD_26_RN_12_RD_20_1.png","I_Dist_100_LN_13_LD_26_RN_6_RD_10_1.png","I_Dist_100_LN_17_LD_30_RN_10_RD_15_1.png","I_Dist_100_LN_6_LD_12_RN_3_RD_5_1.png","I_Dist_100_LN_8_LD_16_RN_6_RD_10_1.png","I_Dist_100_LN_8_LD_20_RN_1_RD_2_1.png","I_Dist_100_LN_9_LD_18_RN_6_RD_10_1.png"]],"dist100_S":[["E_Dist_100_LN_2_LD_12_RN_2_RD_30_0.png","E_Dist_100_LN_6_LD_10_RN_6_RD_12_0.png"],["E_Dist_100_LN_6_LD_12_RN_6_RD_10_1.png"]],"dist200_C":[["C_Dist_200_LN_11_LD_22_RN_3_RD_10_0.png","C_Dist_200_LN_12_LD_15_RN_6_RD_10_0.png","C_Dist_200_LN_12_LD_20_RN_6_RD_15_0.png","C_Dist_200_LN_14_LD_28_RN_6_RD_20_0.png","C_Dist_200_LN_15_LD_25_RN_4_RD_10_0.png","C_Dist_200_LN_16_LD_20_RN_12_RD_20_0.png","C_Dist_200_LN_16_LD_30_RN_9_RD_27_0.png","C_Dist_200_LN_20_LD_25_RN_9_RD_15_0.png","C_Dist_200_LN_21_LD_30_RN_2_RD_4_0.png","C_Dist_200_LN_4_LD_10_RN_3_RD_15_0.png","C_Dist_200_LN_4_LD_8_RN_3_RD_10_0.png","C_Dist_200_LN_6_LD_15_RN_3_RD_15_0.png","C_Dist_200_LN_7_LD_21_RN_2_RD_15_0.png","C_Dist_200_LN_8_LD_15_RN_2_RD_6_0.png","C_Dist_200_LN_8_LD_15_RN_3_RD_9_0.png","C_Dist_200_LN_8_LD_15_RN_7_RD_21_0.png","C_Dist_200_LN_9_LD_20_RN_4_RD_16_0.png"],["C_Dist_200_LN_1_LD_2_RN_21_RD_30_1.png","C_Dist_200_LN_13_LD_26_RN_14_RD_20_1.png","C_Dist_200_LN_3_LD_10_RN_11_RD_22_1.png","C_Dist_200_LN_3_LD_10_RN_14_RD_28_1.png","C_Dist_200_LN_3_LD_10_RN_7_RD_14_1.png","C_Dist_200_LN_3_LD_12_RN_9_RD_20_1.png","C_Dist_200_LN_3_LD_6_RN_14_RD_20_1.png","C_Dist_200_LN_5_LD_10_RN_14_RD_20_1.png","C_Dist_200_LN_6_LD_12_RN_7_RD_10_1.png","C_Dist_200_LN_6_LD_20_RN_11_RD_22_1.png","C_Dist_200_LN_7_LD_15_RN_18_RD_27_1.png","C_Dist_200_LN_9_LD_30_RN_13_RD_26_1.png"]],"dist200_I":[["I_Dist_200_LN_1_LD_2_RN_3_RD_10_0.png","I_Dist_200_LN_1_LD_3_RN_2_RD_15_0.png","I_Dist_200_LN_3_LD_4_RN_11_RD_20_0.png","I_Dist_200_LN_4_LD_5_RN_6_RD_10_0.png","I_Dist_200_LN_4_LD_6_RN_14_RD_30_0.png","I_Dist_200_LN_7_LD_10_RN_12_RD_24_0.png","I_Dist_200_LN_7_LD_10_RN_14_RD_28_0.png","I_Dist_200_LN_7_LD_10_RN_8_RD_16_0.png"],["I_Dist_200_LN_11_LD_20_RN_3_RD_4_1.png","I_Dist_200_LN_14_LD_30_RN_12_RD_18_1.png","I_Dist_200_LN_14_LD_30_RN_6_RD_9_1.png","I_Dist_200_LN_3_LD_10_RN_1_RD_2_1.png","I_Dist_200_LN_4_LD_30_RN_1_RD_3_1.png","I_Dist_200_LN_6_LD_20_RN_3_RD_6_1.png","I_Dist_200_LN_7_LD_15_RN_4_RD_6_1.png","I_Dist_200_LN_7_LD_15_RN_6_RD_9_1.png","I_Dist_200_LN_9_LD_15_RN_8_RD_10_1.png"]],"dist200_S":[["E_Dist_200_LN_3_LD_6_RN_3_RD_10_0.png"],["E_Dist_200_LN_3_LD_10_RN_3_RD_6_1.png"]],"dist300_C":[["C_Dist_300_LN_11_LD_22_RN_1_RD_5_0.png","C_Dist_300_LN_11_LD_22_RN_2_RD_10_0.png","C_Dist_300_LN_11_LD_22_RN_4_RD_20_0.png","C_Dist_300_LN_12_LD_24_RN_2_RD_10_0.png","C_Dist_300_LN_18_LD_20_RN_9_RD_15_0.png","C_Dist_300_LN_20_LD_25_RN_13_RD_26_0.png","C_Dist_300_LN_20_LD_25_RN_14_RD_28_0.png","C_Dist_300_LN_20_LD_25_RN_5_RD_10_0.png","C_Dist_300_LN_20_LD_25_RN_8_RD_16_0.png","C_Dist_300_LN_20_LD_25_RN_9_RD_18_0.png","C_Dist_300_LN_24_LD_30_RN_2_RD_4_0.png","C_Dist_300_LN_24_LD_30_RN_8_RD_16_0.png","C_Dist_300_LN_3_LD_6_RN_2_RD_10_0.png","C_Dist_300_LN_4_LD_10_RN_1_RD_10_0.png","C_Dist_300_LN_4_LD_5_RN_2_RD_4_0.png","C_Dist_300_LN_8_LD_16_RN_1_RD_5_0.png","C_Dist_300_LN_9_LD_10_RN_3_RD_5_0.png"],["C_Dist_300_LN_1_LD_20_RN_7_RD_20_1.png","C_Dist_300_LN_1_LD_3_RN_19_RD_30_1.png","C_Dist_300_LN_1_LD_30_RN_8_RD_24_1.png","C_Dist_300_LN_1_LD_5_RN_11_RD_22_1.png","C_Dist_300_LN_1_LD_5_RN_3_RD_6_1.png","C_Dist_300_LN_1_LD_5_RN_6_RD_12_1.png","C_Dist_300_LN_2_LD_10_RN_12_RD_24_1.png","C_Dist_300_LN_2_LD_20_RN_10_RD_25_1.png","C_Dist_300_LN_3_LD_12_RN_11_RD_20_1.png","C_Dist_300_LN_3_LD_6_RN_4_RD_5_1.png","C_Dist_300_LN_4_LD_20_RN_13_RD_26_1.png","C_Dist_300_LN_5_LD_25_RN_6_RD_12_1.png","C_Dist_300_LN_5_LD_25_RN_7_RD_14_1.png","C_Dist_300_LN_7_LD_14_RN_20_RD_25_1.png","C_Dist_300_LN_8_LD_15_RN_10_RD_12_1.png"]],"dist300_I":[["I_Dist_300_LN_1_LD_2_RN_2_RD_10_0.png","I_Dist_300_LN_1_LD_2_RN_3_RD_15_0.png","I_Dist_300_LN_2_LD_4_RN_6_RD_30_0.png","I_Dist_300_LN_3_LD_6_RN_4_RD_20_0.png","I_Dist_300_LN_4_LD_5_RN_6_RD_12_0.png","I_Dist_300_LN_4_LD_5_RN_8_RD_16_0.png","I_Dist_300_LN_7_LD_10_RN_8_RD_20_0.png","I_Dist_300_LN_8_LD_10_RN_14_RD_28_0.png","I_Dist_300_LN_8_LD_10_RN_9_RD_18_0.png"],["I_Dist_300_LN_13_LD_26_RN_12_RD_15_1.png","I_Dist_300_LN_4_LD_20_RN_2_RD_4_1.png"]],"dist300_S":[["E_Dist_300_LN_9_LD_12_RN_9_RD_20_0.png"],["E_Dist_300_LN_18_LD_30_RN_18_RD_20_1.png","E_Dist_300_LN_3_LD_10_RN_3_RD_5_1.png","E_Dist_300_LN_9_LD_20_RN_9_RD_12_1.png"]],"dist500_C":[["C_Dist_500_LN_10_LD_13_RN_7_RD_26_0.png","C_Dist_500_LN_10_LD_15_RN_4_RD_24_0.png","C_Dist_500_LN_12_LD_16_RN_3_RD_12_0.png","C_Dist_500_LN_12_LD_18_RN_4_RD_24_0.png","C_Dist_500_LN_15_LD_18_RN_5_RD_15_0.png","C_Dist_500_LN_15_LD_20_RN_1_RD_4_0.png","C_Dist_500_LN_18_LD_27_RN_1_RD_6_0.png","C_Dist_500_LN_20_LD_24_RN_1_RD_3_0.png","C_Dist_500_LN_20_LD_24_RN_3_RD_9_0.png","C_Dist_500_LN_20_LD_24_RN_7_RD_21_0.png","C_Dist_500_LN_20_LD_28_RN_3_RD_14_0.png","C_Dist_500_LN_21_LD_28_RN_6_RD_24_0.png","C_Dist_500_LN_22_LD_28_RN_2_RD_7_0.png","C_Dist_500_LN_25_LD_30_RN_9_RD_27_0.png","C_Dist_500_LN_4_LD_6_RN_1_RD_6_0.png","C_Dist_500_LN_5_LD_6_RN_2_RD_6_0.png","C_Dist_500_LN_6_LD_9_RN_1_RD_6_0.png","C_Dist_500_LN_7_LD_10_RN_1_RD_5_0.png","C_Dist_500_LN_8_LD_12_RN_1_RD_6_0.png","C_Dist_500_LN_8_LD_12_RN_4_RD_24_0.png"],["C_Dist_500_LN_1_LD_4_RN_12_RD_16_1.png","C_Dist_500_LN_1_LD_4_RN_9_RD_12_1.png","C_Dist_500_LN_1_LD_9_RN_11_RD_18_1.png","C_Dist_500_LN_10_LD_24_RN_22_RD_24_1.png","C_Dist_500_LN_2_LD_12_RN_10_RD_15_1.png","C_Dist_500_LN_2_LD_12_RN_12_RD_18_1.png","C_Dist_500_LN_2_LD_12_RN_4_RD_6_1.png","C_Dist_500_LN_2_LD_24_RN_7_RD_12_1.png","C_Dist_500_LN_2_LD_5_RN_18_RD_20_1.png","C_Dist_500_LN_2_LD_5_RN_9_RD_10_1.png","C_Dist_500_LN_2_LD_8_RN_12_RD_16_1.png","C_Dist_500_LN_2_LD_8_RN_21_RD_28_1.png","C_Dist_500_LN_3_LD_10_RN_4_RD_5_1.png","C_Dist_500_LN_3_LD_12_RN_15_RD_20_1.png","C_Dist_500_LN_3_LD_30_RN_6_RD_10_1.png","C_Dist_500_LN_3_LD_8_RN_14_RD_16_1.png","C_Dist_500_LN_4_LD_16_RN_15_RD_20_1.png","C_Dist_500_LN_4_LD_24_RN_12_RD_18_1.png","C_Dist_500_LN_5_LD_14_RN_6_RD_7_1.png","C_Dist_500_LN_7_LD_21_RN_20_RD_24_1.png","C_Dist_500_LN_7_LD_28_RN_12_RD_16_1.png","C_Dist_500_LN_7_LD_28_RN_9_RD_12_1.png","C_Dist_500_LN_9_LD_27_RN_20_RD_24_1.png"]],"dist500_I":[["I_Dist_500_LN_2_LD_3_RN_4_RD_24_0.png","I_Dist_500_LN_5_LD_6_RN_6_RD_18_0.png","I_Dist_500_LN_7_LD_8_RN_9_RD_24_0.png"],["I_Dist_500_LN_7_LD_21_RN_5_RD_6_1.png"]],"dist500_S":[["E_Dist_500_LN_6_LD_8_RN_6_RD_24_0.png"],["E_Dist_500_LN_2_LD_12_RN_2_RD_3_1.png","E_Dist_500_LN_6_LD_24_RN_6_RD_8_1.png"]]}},{"start_time":1552054127029,"click_time":1552054130228,"finger_time":1552054128566,"fix_duration":1279.0440330134288,"trial":1,"RT":1537,"MT":1662,"sideResp":2,"stimulus":[],"xmouse":[817,817,817,817,817,817,817,817,817,817,817,817,817,817,817,817,817,817,817,817,817,817,817,817,817,817,817,817,817,817,817,817,817,817,817,817,817,817,817,817,817,817,817,817,817,817,817,817,817,817,817,817,817,817,817,817,817,817,817,817,817,817,817,817,817,820,825,827,828,828,828,828,828,828,829,837,847,858,864,866,866,866,866,866,866,866,866,866,866,866,866,866,865,864,863,861,861,860,858,855,854,853,853,853,853,851,850,850,848,848,848,848,848,848,848,848,848,848,848,848,848,848,848,848,848,848,845,842,840,840,840,840,841,844,846,874,895,918,939,982,993,1001,1013,1029,1056,1085,1092,1093,1093,1093,1093,1093,1093,1093,1094,1097,1109,1113,1113,1091],"ymouse":[646,646,646,646,646,646,646,646,646,646,646,646,646,646,646,646,646,646,646,646,646,646,646,646,646,646,646,646,646,646,646,646,646,646,646,646,646,646,646,646,646,646,646,646,646,646,646,646,646,646,646,646,646,646,646,646,646,646,646,646,646,646,646,646,646,642,638,636,635,635,635,635,635,635,634,627,616,603,596,593,593,592,592,592,592,592,592,592,592,592,592,592,592,592,592,592,592,592,592,592,592,592,592,592,592,592,593,593,594,594,594,594,594,594,594,594,594,594,594,594,594,594,594,594,594,594,599,605,608,608,608,608,608,608,607,583,562,536,511,454,437,424,408,386,339,296,287,285,285,285,284,283,280,279,276,267,246,211,154,30],"timestamp_mouse":[19,39,57,78,97,118,139,158,178,197,217,239,258,278,298,317,337,358,377,399,417,439,459,478,499,518,539,558,578,599,618,637,657,678,698,717,738,758,778,798,817,839,859,878,898,918,939,959,978,997,1018,1038,1059,1079,1098,1118,1138,1158,1179,1197,1217,1239,1259,1277,1297,1318,1337,1357,1378,1399,1418,1437,1458,1478,1497,1518,1537,1558,1577,1598,1618,1638,1659,1678,1699,1718,1739,1758,1778,1797,1818,1837,1857,1877,1899,1918,1939,1959,1977,1998,2018,2037,2058,2078,2098,2119,2138,2157,2178,2198,2218,2239,2259,2279,2297,2317,2337,2358,2379,2398,2418,2438,2459,2479,2499,2519,2537,2558,2578,2598,2618,2639,2657,2677,2697,2718,2738,2758,2777,2798,2817,2838,2858,2878,2898,2918,2938,2957,2978,2999,3017,3038,3059,3078,3098,3117,3138,3157,3177,3198],"xSR":741.5,"ySR":573.95,"xT1":424.9,"yT1":0,"xT2":1058.1,"yT2":0,"toosoon":0,"cond_shown":"Incongruent","ratio_trial":300,"L_num":4,"L_den":20,"R_num":2,"R_den":4,"correct_side":2,"subjID":"samuelgonzalezgarcia6","gender":"0","school":"4","age":"9"},{"start_time":1552054132419,"click_time":1552054135308,"finger_time":1552054134687,"fix_duration":250,"trial":2,"RT":2268,"MT":621,"sideResp":2,"stimulus":[],"xmouse":[816,816,816,816,816,816,816,816,816,816,816,816,816,816,816,816,816,816,816,816,816,816,816,816,816,816,816,816,816,816,816,816,816,816,816,816,817,817,817,817,817,817,817,817,817,817,817,817,817,817,817,817,817,817,817,817,817,817,817,817,817,817,817,817,818,818,818,818,818,818,818,818,818,818,818,818,818,817,816,814,811,807,806,806,806,806,806,806,806,806,806,806,806,806,806,806,806,806,806,806,806,806,806,806,806,806,806,806,806,806,806,809,816,829,848,881,906,906,906,906,915,953,974,984,992,1006,1009,1015,1022,1029,1034,1038,1040,1043,1045,1046,1046,1046,1048,1050,1056,1066,1071,1075,1078],"ymouse":[649,649,649,649,649,649,649,649,649,649,649,649,649,649,649,649,649,649,649,649,649,649,649,649,649,649,649,649,649,649,649,649,649,649,649,649,649,649,649,649,649,649,649,649,649,649,649,649,649,649,649,649,649,649,649,649,649,649,649,649,649,649,649,649,649,649,649,649,649,649,649,648,644,642,639,638,636,636,632,628,622,614,614,614,614,614,614,613,613,613,613,613,613,613,613,613,613,613,613,613,613,613,613,613,613,613,613,613,613,613,607,596,576,548,513,460,398,373,337,300,277,229,195,178,166,159,158,157,156,153,152,151,151,148,147,146,146,146,142,140,130,115,106,100,95],"timestamp_mouse":[13,42,48,69,87,108,128,149,168,187,208,228,249,268,289,308,328,347,368,389,409,428,447,467,487,507,528,549,567,588,609,629,648,668,688,707,728,748,768,789,808,829,849,869,888,908,929,949,969,988,1007,1028,1048,1068,1087,1108,1127,1148,1169,1189,1209,1227,1248,1268,1288,1307,1328,1348,1367,1387,1409,1427,1448,1467,1488,1509,1529,1547,1568,1587,1608,1628,1647,1669,1689,1708,1727,1747,1768,1787,1809,1828,1848,1867,1888,1907,1928,1947,1968,1989,2009,2028,2047,2068,2088,2108,2128,2149,2169,2187,2208,2227,2247,2268,2289,2308,2329,2348,2368,2388,2408,2427,2448,2468,2488,2508,2528,2548,2569,2588,2607,2627,2648,2667,2689,2709,2728,2751,2768,2788,2808,2828,2848,2867,2888],"xSR":741.5,"ySR":573.95,"xT1":424.9,"yT1":0,"xT2":1058.1,"yT2":0,"toosoon":0,"cond_shown":"Incongruent","ratio_trial":100,"L_num":6,"L_den":10,"R_num":7,"R_den":14,"correct_side":1,"subjID":"samuelgonzalezgarcia6","gender":"0","school":"4","age":"9"},{"start_time":1552054138328,"click_time":1552054140607,"finger_time":1552054139747,"fix_duration":699.5931882223293,"trial":3,"RT":1419,"MT":860,"sideResp":1,"stimulus":[],"xmouse":[787,787,787,787,787,787,787,787,787,787,787,787,787,787,787,787,787,787,787,787,787,787,787,787,787,787,787,787,787,787,787,787,787,787,787,787,787,787,787,787,787,787,787,787,787,787,787,787,787,787,787,787,787,787,787,787,787,787,787,787,787,787,787,787,787,787,787,786,784,775,770,780,794,798,799,797,792,787,784,784,784,784,783,780,761,740,724,712,709,700,694,691,690,690,690,688,682,674,651,633,594,584,577,574,559,551,546,542,539,539,536,533,528,524],"ymouse":[592,592,592,592,592,592,592,592,592,592,592,592,592,592,592,592,592,592,592,592,592,592,592,592,592,592,592,592,592,592,592,592,592,592,592,592,592,592,592,592,592,592,592,592,592,592,592,592,592,592,592,592,592,592,592,592,592,592,592,592,592,592,592,592,592,592,592,592,592,586,572,560,553,552,548,543,532,513,502,500,500,500,495,473,377,308,251,211,189,128,84,58,52,52,51,51,50,49,49,48,42,39,38,36,31,30,29,29,29,29,29,29,29,29],"timestamp_mouse":[18,38,58,80,98,119,140,159,178,200,218,239,260,279,299,318,340,358,380,400,419,439,460,480,498,518,539,560,580,599,618,639,660,679,700,720,739,759,778,799,819,840,860,880,899,919,939,958,980,999,1020,1039,1059,1079,1099,1119,1138,1159,1178,1200,1219,1239,1260,1278,1298,1320,1338,1359,1379,1398,1418,1440,1458,1478,1499,1519,1539,1559,1578,1599,1619,1638,1660,1679,1698,1719,1739,1759,1778,1799,1818,1839,1859,1879,1899,1919,1938,1958,1979,1999,2019,2038,2058,2078,2099,2119,2139,2159,2179,2199,2219,2239,2258,2279],"xSR":741.5,"ySR":573.95,"xT1":424.9,"yT1":0,"xT2":1058.1,"yT2":0,"toosoon":0,"cond_shown":"Incongruent","ratio_trial":300,"L_num":2,"L_den":4,"R_num":6,"R_den":30,"correct_side":1,"subjID":"samuelgonzalezgarcia6","gender":"0","school":"4","age":"9"},{"start_time":1552054142627,"click_time":1552054144727,"finger_time":1552054144407,"fix_duration":599.5060922561642,"trial":4,"RT":1780,"MT":320,"sideResp":1,"stimulus":[],"xmouse":[802,802,802,802,802,802,802,802,802,802,802,802,802,802,802,802,802,802,802,802,801,802,803,803,803,803,803,803,803,803,803,803,803,803,803,803,803,803,803,803,803,803,803,803,803,803,803,803,803,803,803,803,803,803,803,803,803,803,803,803,803,803,803,803,803,803,803,803,804,807,812,812,812,813,813,813,813,813,813,813,813,813,813,813,813,813,811,808,803,798,792,769,743,689,644,603,593,593,592,591,590,582,573,563,547,508],"ymouse":[622,622,622,622,622,622,621,621,621,621,621,621,621,621,621,621,621,621,621,621,619,615,614,613,613,613,613,613,613,613,613,613,613,613,613,613,613,613,613,613,613,613,613,613,613,613,613,613,613,613,613,613,613,613,613,613,613,613,613,613,613,613,613,613,613,613,613,613,613,612,608,608,608,607,607,607,607,607,607,607,607,607,607,607,607,607,602,595,582,559,533,408,298,159,44,0,0,0,0,0,0,1,6,11,19,40],"timestamp_mouse":[2,20,39,60,81,100,119,141,161,180,200,220,241,259,280,299,320,341,361,379,400,420,440,460,481,500,520,539,560,581,601,620,640,659,679,699,720,739,760,779,799,820,840,861,879,900,919,939,961,980,1000,1019,1041,1061,1079,1101,1121,1140,1160,1181,1200,1220,1239,1260,1281,1300,1321,1340,1360,1380,1401,1421,1440,1461,1481,1499,1520,1539,1560,1581,1601,1620,1641,1660,1681,1699,1720,1739,1761,1780,1801,1820,1839,1859,1879,1901,1920,1940,1960,1980,2002,2019,2040,2059,2080,2100],"xSR":741.5,"ySR":573.95,"xT1":424.9,"yT1":0,"xT2":1058.1,"yT2":0,"toosoon":0,"cond_shown":"Incongruent","ratio_trial":300,"L_num":7,"L_den":10,"R_num":8,"R_den":20,"correct_side":1,"subjID":"samuelgonzalezgarcia6","gender":"0","school":"4","age":"9"},{"start_time":1552054146400,"click_time":1552054148827,"finger_time":1552054148167,"fix_duration":490.5969965472977,"trial":5,"RT":1767,"MT":660,"sideResp":2,"stimulus":[],"xmouse":[821,821,821,821,821,821,821,821,821,821,821,821,821,821,821,821,821,821,821,821,821,821,821,821,821,821,821,821,821,821,821,821,821,821,821,821,821,821,821,821,821,821,821,821,821,821,821,821,821,821,821,821,821,821,821,821,821,821,821,823,824,837,837,837,837,837,837,837,837,837,836,836,835,835,835,835,835,835,835,835,834,833,831,829,827,826,826,820,816,816,816,808,778,772,770,769,768,745,707,665,642,617,610,603,600,599,599,599,606,623,649,699,725,757,785,811,827,848,871,912,975,1063],"ymouse":[616,616,616,616,616,616,616,616,616,616,616,616,616,616,616,616,616,616,616,616,616,616,616,616,616,616,616,616,616,616,616,616,616,616,616,616,616,616,616,616,616,616,616,616,616,616,616,616,616,616,616,616,616,616,616,617,617,617,617,620,621,623,623,623,623,623,623,623,623,623,623,624,624,624,624,624,624,624,624,624,624,622,620,617,615,614,610,574,539,506,419,320,256,253,251,251,250,232,211,186,174,164,161,158,157,157,157,159,162,165,167,167,167,166,162,159,153,137,125,111,101,95],"timestamp_mouse":[12,26,46,67,88,108,127,147,166,187,207,228,247,267,288,308,327,347,367,388,406,427,446,466,486,507,527,547,567,587,606,627,647,666,687,708,727,746,766,788,807,826,846,867,887,908,928,947,967,986,1007,1028,1047,1066,1088,1107,1127,1146,1166,1188,1207,1227,1247,1267,1287,1308,1326,1346,1368,1386,1406,1426,1446,1468,1488,1508,1527,1547,1566,1588,1606,1628,1646,1667,1686,1707,1728,1747,1767,1787,1807,1826,1847,1868,1887,1906,1927,1947,1967,1987,2007,2027,2046,2067,2087,2107,2127,2147,2167,2186,2206,2227,2246,2266,2287,2308,2327,2348,2366,2387,2407,2427],"xSR":741.5,"ySR":573.95,"xT1":424.9,"yT1":0,"xT2":1058.1,"yT2":0,"toosoon":0,"cond_shown":"Incongruent","ratio_trial":100,"L_num":9,"L_den":18,"R_num":6,"R_den":10,"correct_side":2,"subjID":"samuelgonzalezgarcia6","gender":"0","school":"4","age":"9"},{"start_time":1552054150279,"click_time":1552054152428,"finger_time":1552054151606,"fix_duration":410.9486554175343,"trial":6,"RT":1327,"MT":822,"sideResp":2,"stimulus":[],"xmouse":[805,805,805,804,804,804,804,804,804,804,804,804,804,804,804,804,804,804,804,804,804,804,804,804,804,804,804,804,804,804,804,804,804,804,804,804,804,804,804,804,804,804,804,804,804,804,804,804,804,804,804,804,804,804,804,804,804,804,804,804,804,804,804,804,817,832,847,877,898,928,979,1033,1067,1150,1168,1174,1175,1169,1144,1108,1064,1015,984,966,966,966,966,973,978,988,1003,1018,1022,1031,1041,1048,1052,1053,1053,1053,1053,1053,1053,1052,1052,1054,1057,1072],"ymouse":[640,640,640,640,640,640,640,640,640,640,640,640,640,640,640,640,640,640,640,640,640,640,640,640,640,640,640,640,640,640,640,640,640,640,640,640,640,640,640,640,640,640,640,640,640,640,640,640,640,640,640,640,640,640,640,640,640,640,640,640,640,640,640,640,633,625,615,595,578,549,484,388,307,112,76,59,37,0,0,0,0,0,0,12,12,12,12,6,5,2,0,0,0,0,0,0,0,0,0,0,0,0,7,18,22,26,30,45],"timestamp_mouse":[13,38,47,68,88,108,128,147,167,189,207,227,249,268,288,308,328,347,367,387,409,427,448,468,488,509,529,548,568,587,607,628,648,668,687,709,729,748,768,787,809,829,848,867,888,908,929,949,968,988,1007,1027,1048,1069,1087,1108,1129,1147,1167,1188,1208,1228,1248,1267,1287,1308,1327,1348,1367,1387,1407,1428,1448,1468,1487,1509,1529,1549,1568,1587,1608,1628,1648,1667,1688,1707,1728,1749,1767,1787,1807,1827,1848,1867,1887,1908,1928,1948,1969,1988,2007,2028,2048,2068,2087,2108,2128,2148],"xSR":741.5,"ySR":573.95,"xT1":424.9,"yT1":0,"xT2":1058.1,"yT2":0,"toosoon":0,"cond_shown":"Incongruent","ratio_trial":200,"L_num":14,"L_den":30,"R_num":6,"R_den":9,"correct_side":2,"subjID":"samuelgonzalezgarcia6","gender":"0","school":"4","age":"9"},{"start_time":1552054154265,"click_time":1552054156467,"finger_time":1552054155646,"fix_duration":996.9198254875851,"trial":7,"RT":1381,"MT":821,"sideResp":2,"stimulus":[],"xmouse":[774,774,775,775,780,780,780,780,780,780,780,780,780,780,780,780,780,780,780,780,780,780,780,780,780,780,780,780,780,780,780,780,780,780,780,780,780,780,780,780,780,780,780,780,780,780,780,780,780,780,780,780,780,780,780,780,780,780,780,780,780,780,780,780,780,780,780,780,781,788,792,795,795,795,795,795,795,795,795,795,795,795,795,797,805,820,833,848,881,891,902,915,926,941,949,958,968,978,988,991,991,991,994,1010,1017,1025,1031,1038,1045,1051,1059],"ymouse":[619,619,619,619,620,620,620,620,620,620,620,620,620,620,620,620,620,620,620,620,620,620,620,620,620,620,620,620,620,620,620,620,620,620,620,620,620,620,620,620,620,620,620,620,620,620,620,620,620,620,620,620,620,620,620,620,620,620,620,620,620,620,620,620,620,620,620,619,593,569,546,533,533,533,533,533,533,533,533,533,533,533,533,530,527,520,511,501,440,418,382,316,245,159,139,117,97,78,68,65,65,65,64,59,56,53,48,46,44,44,44],"timestamp_mouse":[10,22,44,62,83,103,122,142,162,182,202,223,241,261,282,303,321,341,362,382,402,422,442,461,482,503,521,543,563,582,602,621,641,661,682,702,721,741,762,782,803,821,841,861,883,901,923,942,962,981,1003,1022,1042,1061,1082,1103,1122,1142,1161,1182,1203,1223,1242,1263,1282,1302,1322,1341,1362,1381,1401,1421,1442,1463,1482,1501,1523,1541,1561,1581,1602,1622,1642,1662,1682,1702,1722,1742,1762,1781,1803,1822,1843,1862,1881,1902,1922,1942,1961,1982,2003,2022,2043,2062,2082,2102,2122,2142,2162,2181,2202],"xSR":741.5,"ySR":573.95,"xT1":424.9,"yT1":0,"xT2":1058.1,"yT2":0,"toosoon":0,"cond_shown":"Incongruent","ratio_trial":100,"L_num":9,"L_den":18,"R_num":6,"R_den":10,"correct_side":2,"subjID":"samuelgonzalezgarcia6","gender":"0","school":"4","age":"9"},{"start_time":1552054158968,"click_time":1552054160666,"finger_time":1552054160326,"fix_duration":1220.8675567666892,"trial":8,"RT":1358,"MT":340,"sideResp":1,"stimulus":[],"xmouse":[779,779,782,782,782,782,782,782,782,782,782,782,782,782,782,782,782,782,782,782,782,782,782,782,782,782,782,782,782,782,782,782,782,782,782,782,782,782,784,787,788,788,789,789,789,789,788,788,788,788,788,788,788,788,788,788,788,788,788,788,788,788,788,788,786,785,781,751,692,671,655,632,611,611,611,611,611,611,611,611,611,611,576,539,489],"ymouse":[626,626,623,623,623,623,623,623,625,627,628,628,628,628,628,628,628,628,628,628,628,628,628,628,628,628,628,628,628,628,628,628,628,628,628,628,628,627,625,623,622,620,619,617,616,614,614,614,614,613,613,613,613,613,613,613,613,613,613,613,613,613,613,613,612,608,594,514,362,289,214,143,81,80,80,80,80,80,78,77,77,77,65,45,15],"timestamp_mouse":[35,39,59,78,98,120,138,159,178,198,220,240,259,278,299,320,340,360,380,400,420,439,458,479,499,519,540,559,579,598,620,639,658,679,700,720,740,759,779,799,819,840,859,878,899,919,940,958,979,999,1018,1038,1060,1079,1098,1120,1140,1159,1178,1200,1220,1239,1259,1278,1300,1319,1340,1358,1379,1399,1419,1439,1459,1478,1499,1518,1540,1560,1582,1599,1619,1639,1659,1678,1698],"xSR":741.5,"ySR":573.95,"xT1":424.9,"yT1":0,"xT2":1058.1,"yT2":0,"toosoon":0,"cond_shown":"Incongruent","ratio_trial":300,"L_num":1,"L_den":2,"R_num":3,"R_den":15,"correct_side":1,"subjID":"samuelgonzalezgarcia6","gender":"0","school":"4","age":"9"},{"start_time":1552054163443,"click_time":1552054165427,"finger_time":1552054165186,"fix_duration":1214.373297910456,"trial":9,"RT":1743,"MT":241,"sideResp":1,"stimulus":[],"xmouse":[789,789,789,789,789,789,789,789,789,789,789,789,789,789,789,789,789,789,789,789,789,789,789,789,789,789,790,790,790,788,787,787,787,787,787,786,786,786,786,786,786,786,786,786,786,786,786,786,786,786,786,786,786,786,786,786,786,786,786,786,786,786,786,786,786,786,786,786,786,786,786,786,786,786,786,786,786,786,786,786,787,787,787,787,786,783,782,782,782,782,786,791,794,795,790,781,756,710,635,458],"ymouse":[605,605,605,605,605,605,605,605,605,605,605,605,605,605,605,605,605,605,605,605,605,605,605,605,605,605,605,605,607,609,609,609,609,609,609,609,609,609,609,609,609,609,609,609,609,609,609,609,609,609,609,609,609,609,609,609,609,609,609,609,609,609,609,609,609,609,609,609,609,609,609,609,609,609,609,609,609,609,609,609,609,608,605,602,597,579,575,572,572,569,563,555,547,536,502,473,416,336,233,46],"timestamp_mouse":[12,35,44,65,83,103,124,145,165,184,204,223,244,264,284,303,324,343,365,385,404,425,445,464,484,504,524,543,563,584,605,624,643,664,684,705,725,744,765,783,804,824,844,865,885,904,923,945,965,983,1003,1024,1045,1065,1085,1105,1124,1145,1165,1185,1205,1223,1245,1264,1283,1303,1323,1343,1364,1383,1404,1424,1445,1464,1484,1503,1525,1543,1565,1585,1604,1624,1643,1663,1683,1704,1723,1743,1764,1784,1803,1824,1843,1864,1884,1903,1924,1945,1964,1984],"xSR":741.5,"ySR":573.95,"xT1":424.9,"yT1":0,"xT2":1058.1,"yT2":0,"toosoon":0,"cond_shown":"Congruent","ratio_trial":100,"L_num":6,"L_den":20,"R_num":5,"R_den":25,"correct_side":1,"subjID":"samuelgonzalezgarcia6","gender":"0","school":"4","age":"9"},{"start_time":1552054169255,"click_time":1552054171167,"finger_time":1552054170646,"fix_duration":1366.2533742687485,"trial":10,"RT":1391,"MT":521,"sideResp":1,"stimulus":[],"xmouse":[801,801,801,801,801,801,801,801,801,801,801,801,801,801,801,801,801,801,801,801,801,801,801,801,801,801,801,801,801,801,801,801,801,801,801,801,801,801,801,801,801,801,801,801,801,801,801,801,801,801,801,801,801,801,801,801,801,801,801,801,801,801,801,800,799,799,799,799,799,790,781,768,754,743,718,685,639,596,553,481,477,477,478,482,486,490,493,494,495,495,495,495,490,461,437,427],"ymouse":[614,614,614,614,614,614,614,614,614,614,614,614,614,614,614,614,614,614,614,614,614,614,614,614,614,614,614,614,614,614,614,614,614,614,614,614,614,614,614,614,614,614,614,614,614,614,614,614,614,614,614,614,614,614,614,614,614,614,614,614,614,614,614,614,612,610,607,603,599,571,550,530,510,492,453,422,383,346,308,235,223,220,217,213,210,207,204,202,200,198,194,189,177,142,109,94],"timestamp_mouse":[21,48,52,72,92,112,133,153,172,192,211,231,252,272,292,312,332,351,371,391,412,433,453,472,492,513,533,553,572,592,612,631,652,673,691,713,732,752,772,791,812,831,851,872,892,912,931,951,972,992,1012,1032,1053,1072,1092,1111,1133,1153,1172,1193,1211,1232,1252,1272,1291,1311,1331,1352,1372,1391,1411,1432,1453,1472,1493,1512,1532,1552,1571,1591,1611,1631,1653,1672,1692,1712,1732,1751,1772,1791,1812,1833,1853,1872,1892,1912],"xSR":741.5,"ySR":573.95,"xT1":424.9,"yT1":0,"xT2":1058.1,"yT2":0,"toosoon":0,"cond_shown":"Incongruent","ratio_trial":200,"L_num":7,"L_den":10,"R_num":14,"R_den":28,"correct_side":1,"subjID":"samuelgonzalezgarcia6","gender":"0","school":"4","age":"9"},{"start_time":1552054172559,"click_time":1552054174507,"finger_time":1552054173887,"fix_duration":250,"trial":11,"RT":1328,"MT":620,"sideResp":1,"stimulus":[],"xmouse":[806,806,806,806,806,806,806,806,805,805,805,805,805,805,805,805,805,805,805,805,805,805,805,805,805,805,805,805,805,805,805,805,805,805,805,805,805,805,805,804,804,804,804,804,804,804,804,804,804,804,804,804,804,804,804,804,804,804,804,804,804,804,804,804,804,804,804,796,783,776,773,768,766,766,763,757,744,722,702,674,673,672,669,647,635,628,628,627,619,603,586,565,548,538,535,532,526,522],"ymouse":[624,624,624,624,624,624,624,624,625,625,625,625,626,626,626,626,626,626,626,626,626,626,626,626,626,626,626,626,626,626,626,626,626,626,626,626,626,626,626,626,626,626,626,626,626,626,626,626,626,626,626,626,626,626,626,626,626,626,626,626,626,626,624,606,597,587,568,531,485,462,445,431,426,418,414,402,378,345,317,276,272,266,262,247,237,231,226,219,197,167,147,129,119,111,107,102,95,91],"timestamp_mouse":[12,35,48,68,88,108,128,149,169,189,208,228,247,269,289,309,329,349,367,388,408,429,449,469,487,509,529,548,569,587,608,629,649,668,688,709,728,747,767,788,808,829,849,869,888,909,927,947,968,988,1008,1029,1049,1068,1088,1109,1129,1148,1168,1187,1209,1228,1247,1268,1287,1308,1328,1347,1368,1387,1408,1428,1448,1468,1487,1509,1528,1548,1568,1589,1608,1628,1647,1668,1687,1708,1727,1748,1768,1788,1808,1827,1848,1868,1887,1909,1927,1948],"xSR":741.5,"ySR":573.95,"xT1":424.9,"yT1":0,"xT2":1058.1,"yT2":0,"toosoon":0,"cond_shown":"Incongruent","ratio_trial":300,"L_num":8,"L_den":10,"R_num":9,"R_den":18,"correct_side":1,"subjID":"samuelgonzalezgarcia6","gender":"0","school":"4","age":"9"},{"start_time":1552054177088,"click_time":1552054178908,"finger_time":1552054178148,"fix_duration":1320.9287739913646,"trial":12,"RT":1060,"MT":760,"sideResp":2,"stimulus":[],"xmouse":[818,818,818,818,818,818,818,818,818,818,818,818,818,818,818,818,818,818,818,818,818,818,818,818,818,818,818,818,818,818,818,818,818,818,818,818,818,818,818,818,818,818,818,818,818,818,818,819,819,819,820,823,842,850,859,866,878,879,879,879,879,879,883,891,903,923,1011,1070,1113,1126,1130,1140,1148,1148,1148,1148,1161,1173,1186,1193,1193,1154,1143,1143,1143,1143,1143,1143,1143,1143,1142],"ymouse":[634,634,634,634,633,633,633,633,633,633,633,633,633,633,633,633,633,633,633,633,633,633,633,633,633,633,633,633,633,633,633,633,633,633,633,633,633,633,633,633,633,633,633,633,633,633,633,633,632,632,631,628,603,592,581,569,553,551,551,551,551,551,540,529,519,502,437,403,377,362,353,335,327,326,323,317,281,251,195,117,31,0,0,0,0,0,0,0,0,0,2],"timestamp_mouse":[27,48,59,79,99,118,138,158,179,198,219,240,259,280,299,319,338,359,379,398,419,439,460,479,499,519,540,560,579,599,619,639,660,679,698,718,740,761,781,800,819,840,860,879,901,920,939,960,980,1000,1020,1039,1060,1080,1099,1120,1140,1159,1180,1201,1220,1239,1260,1280,1299,1319,1340,1359,1380,1399,1421,1439,1459,1479,1500,1519,1539,1559,1580,1599,1619,1639,1659,1679,1700,1720,1740,1760,1779,1800,1820],"xSR":741.5,"ySR":573.95,"xT1":424.9,"yT1":0,"xT2":1058.1,"yT2":0,"toosoon":0,"cond_shown":"Congruent","ratio_trial":200,"L_num":9,"L_den":30,"R_num":13,"R_den":26,"correct_side":2,"subjID":"samuelgonzalezgarcia6","gender":"0","school":"4","age":"9"},{"start_time":1552054181464,"click_time":1552054183787,"finger_time":1552054183047,"fix_duration":1353.0585885500889,"trial":13,"RT":1583,"MT":740,"sideResp":1,"stimulus":[],"xmouse":[800,800,800,800,800,800,800,800,800,800,800,800,800,800,800,800,800,800,800,800,800,800,800,800,800,800,800,800,800,800,800,800,800,800,800,800,800,800,800,800,800,800,800,800,800,800,800,800,800,800,800,800,800,800,800,800,800,800,800,800,800,800,800,800,800,800,800,800,800,800,800,800,800,800,800,800,800,799,789,776,759,743,735,734,734,734,734,699,618,602,600,601,604,604,586,579,575,575,575,571,565,556,547,543,542,541,539,537,533,532,532,531,530,529,525,525,523],"ymouse":[623,623,623,623,623,623,623,623,623,623,623,623,623,623,623,623,623,623,623,623,623,623,623,623,623,623,623,623,623,623,623,623,623,623,623,623,623,623,623,623,623,623,623,623,623,623,623,623,623,623,623,623,623,623,623,623,623,623,623,623,623,623,623,623,623,623,623,623,623,623,623,623,623,623,623,623,623,623,605,573,542,514,503,502,502,495,467,351,109,32,0,0,0,0,0,0,0,0,0,0,2,9,17,24,25,26,29,30,31,31,31,31,31,32,33,33,33],"timestamp_mouse":[14,24,44,65,83,103,124,144,163,184,204,224,245,264,283,304,324,343,364,384,404,424,444,464,485,504,524,544,563,584,605,624,645,664,683,704,724,743,763,784,804,824,844,865,883,904,925,945,964,984,1003,1023,1044,1064,1083,1105,1123,1143,1163,1185,1203,1225,1245,1265,1283,1305,1323,1343,1364,1385,1405,1423,1444,1463,1483,1503,1524,1543,1564,1583,1604,1624,1645,1664,1683,1704,1724,1744,1764,1783,1804,1823,1844,1863,1884,1903,1924,1943,1965,1983,2005,2023,2044,2063,2085,2104,2124,2143,2165,2184,2203,2224,2243,2264,2285,2304,2323],"xSR":741.5,"ySR":573.95,"xT1":424.9,"yT1":0,"xT2":1058.1,"yT2":0,"toosoon":0,"cond_shown":"Congruent","ratio_trial":100,"L_num":8,"L_den":16,"R_num":2,"R_den":5,"correct_side":1,"subjID":"samuelgonzalezgarcia6","gender":"0","school":"4","age":"9"},{"start_time":1552054188381,"click_time":1552054190827,"finger_time":1552054189767,"fix_duration":1311.6597502493933,"trial":14,"RT":1386,"MT":1060,"sideResp":1,"stimulus":[],"xmouse":[801,801,801,801,801,801,801,801,801,801,801,801,801,802,802,802,802,802,802,802,802,802,802,802,802,802,802,802,802,802,802,802,802,802,802,802,802,802,802,802,802,802,802,802,802,802,802,802,802,802,802,802,802,802,802,802,802,802,802,802,802,802,802,802,802,802,802,802,761,656,573,561,580,589,593,600,612,635,743,786,808,817,826,837,855,876,888,895,895,895,895,894,890,879,877,876,874,871,869,869,868,867,862,858,853,846,839,831,766,711,652,597,556,556,556,556,556,555,555,555,551,539,522],"ymouse":[609,609,609,609,609,609,609,609,609,609,609,609,609,611,611,611,611,611,611,611,611,611,611,611,611,611,611,611,611,611,611,611,611,611,611,611,611,611,611,611,611,611,611,611,611,611,611,611,611,611,611,611,611,611,611,611,611,611,611,611,611,611,611,611,611,611,611,611,582,485,402,384,384,382,379,373,365,351,243,180,137,113,86,65,32,4,0,0,0,0,1,4,9,16,17,17,18,18,18,18,18,18,18,18,18,18,18,18,18,9,0,0,0,0,0,0,0,0,0,0,2,8,18],"timestamp_mouse":[12,36,47,67,88,107,126,147,166,186,207,228,248,268,287,307,327,348,368,388,407,428,446,467,488,507,528,546,567,587,608,628,648,667,687,708,728,747,768,786,808,828,848,866,886,906,927,947,966,986,1007,1027,1047,1067,1088,1107,1127,1147,1168,1186,1207,1226,1247,1266,1287,1307,1327,1347,1368,1386,1407,1426,1447,1466,1487,1507,1527,1547,1566,1587,1608,1627,1647,1666,1687,1706,1727,1747,1766,1786,1806,1828,1847,1866,1886,1907,1926,1948,1966,1986,2007,2027,2047,2067,2086,2106,2127,2146,2167,2187,2207,2227,2247,2266,2286,2307,2327,2347,2367,2386,2406,2427,2446],"xSR":741.5,"ySR":573.95,"xT1":424.9,"yT1":0,"xT2":1058.1,"yT2":0,"toosoon":0,"cond_shown":"Incongruent","ratio_trial":200,"L_num":7,"L_den":10,"R_num":14,"R_den":28,"correct_side":1,"subjID":"samuelgonzalezgarcia6","gender":"0","school":"4","age":"9"},{"start_time":1552054196615,"click_time":1552054198827,"finger_time":1552054198167,"fix_duration":1445.6665395518894,"trial":15,"RT":1552,"MT":660,"sideResp":1,"stimulus":[],"xmouse":[816,816,816,816,816,816,816,816,816,816,816,816,816,816,816,816,816,816,816,816,816,816,816,816,816,816,816,816,816,816,816,816,816,816,816,816,816,816,816,816,816,816,816,816,816,816,816,816,816,816,816,816,816,816,816,816,816,816,816,816,816,816,816,816,816,816,816,816,816,816,816,816,816,816,816,816,822,834,837,833,818,784,767,753,731,692,691,691,691,686,648,630,624,622,621,621,598,589,585,583,583,583,580,571,560,537,533,532,531,526,521],"ymouse":[626,626,626,626,626,626,626,626,626,626,626,626,626,626,626,626,626,626,626,626,626,626,626,626,626,626,626,626,626,626,626,626,626,626,626,626,626,626,626,626,626,626,626,626,626,626,626,626,626,626,626,626,626,626,626,626,626,626,626,626,626,626,626,626,626,626,626,626,626,626,626,626,626,626,626,626,604,563,528,475,390,230,185,143,97,33,32,32,32,32,32,32,31,30,29,29,29,31,32,33,33,33,33,36,40,46,47,47,47,45,45],"timestamp_mouse":[12,34,54,74,93,113,132,153,173,194,213,233,253,273,292,312,333,353,373,394,425,434,453,473,493,514,534,553,573,594,613,632,652,673,694,713,732,752,774,793,813,832,853,874,894,913,934,953,972,992,1013,1034,1053,1073,1094,1112,1132,1154,1172,1192,1213,1234,1252,1274,1293,1313,1333,1353,1372,1394,1414,1432,1453,1474,1493,1512,1534,1552,1573,1593,1613,1632,1653,1672,1693,1713,1732,1754,1773,1793,1813,1832,1852,1873,1893,1912,1933,1953,1973,1992,2013,2032,2053,2073,2092,2113,2133,2153,2173,2193,2212],"xSR":741.5,"ySR":573.95,"xT1":424.9,"yT1":0,"xT2":1058.1,"yT2":0,"toosoon":0,"cond_shown":"Congruent","ratio_trial":200,"L_num":11,"L_den":22,"R_num":3,"R_den":10,"correct_side":1,"subjID":"samuelgonzalezgarcia6","gender":"0","school":"4","age":"9"},{"start_time":1552054202642,"click_time":1552054204568,"finger_time":1552054204188,"fix_duration":713.0032661320712,"trial":16,"RT":1546,"MT":380,"sideResp":2,"stimulus":[],"xmouse":[760,762,762,765,765,765,765,765,765,765,765,765,765,765,765,765,765,765,765,765,765,765,765,765,765,765,765,765,764,764,764,764,764,764,764,764,764,764,764,764,764,764,764,764,764,764,764,764,764,764,764,764,764,764,764,764,764,764,764,764,764,764,764,764,764,764,764,764,764,764,764,765,766,776,786,801,806,815,838,924,993,1064,1120,1146,1160,1172,1191,1208,1218,1220,1220,1220,1217,1211,1190,1162,1152],"ymouse":[657,657,657,655,655,655,655,654,654,654,654,654,654,654,653,652,652,652,652,652,652,652,652,652,652,652,652,652,651,651,651,651,651,651,651,651,651,651,651,651,651,651,651,651,651,651,651,651,651,651,651,651,651,651,651,651,651,651,651,651,651,651,651,651,651,651,651,651,651,651,651,649,648,639,628,601,588,568,531,405,197,0,0,0,0,0,0,0,0,0,0,0,0,5,26,44,46],"timestamp_mouse":[14,41,46,65,86,105,127,146,166,186,205,225,245,267,287,306,327,345,366,386,405,425,447,466,486,506,526,547,566,585,607,626,646,666,686,705,726,747,765,785,805,827,846,865,885,905,925,946,966,986,1005,1025,1047,1067,1085,1106,1126,1146,1166,1186,1205,1225,1245,1267,1286,1306,1326,1347,1366,1385,1406,1427,1445,1465,1486,1507,1525,1546,1566,1586,1605,1627,1646,1667,1686,1706,1726,1746,1766,1786,1807,1826,1847,1866,1885,1905,1925],"xSR":741.5,"ySR":573.95,"xT1":424.9,"yT1":0,"xT2":1058.1,"yT2":0,"toosoon":0,"cond_shown":"Incongruent","ratio_trial":200,"L_num":14,"L_den":30,"R_num":6,"R_den":9,"correct_side":2,"subjID":"samuelgonzalezgarcia6","gender":"0","school":"4","age":"9"},{"start_time":1552054207481,"click_time":1552054209788,"finger_time":1552054208947,"fix_duration":250,"trial":17,"RT":1466,"MT":841,"sideResp":2,"stimulus":[],"xmouse":[769,769,769,769,769,769,769,769,769,769,769,769,769,769,769,769,769,769,769,769,769,769,769,769,769,769,769,769,769,769,769,769,769,769,769,769,769,769,769,769,769,769,769,769,769,769,769,769,769,769,769,769,769,769,769,769,769,769,769,769,769,769,769,769,769,769,769,769,772,774,781,782,813,865,931,979,1005,1046,1055,1056,1056,1056,1056,1056,1056,1056,1056,1056,1056,1057,1059,1061,1068,1078,1099,1115,1128,1160,1167,1171,1175,1179,1185,1182,1172,1171,1170,1155,1152,1148,1140,1132,1126,1103,1095,1093],"ymouse":[614,614,614,614,614,614,614,614,614,614,614,614,614,614,614,614,614,614,614,614,614,614,614,614,614,614,614,614,614,614,614,614,614,614,614,614,614,614,614,614,614,614,614,614,614,614,614,614,614,614,614,614,614,614,614,614,614,614,614,614,614,614,614,614,614,614,614,614,614,614,614,614,605,590,571,559,551,540,539,539,539,539,539,539,539,539,539,539,537,533,526,516,484,460,429,409,388,348,328,315,302,284,240,219,201,199,199,191,190,187,180,173,167,135,117,98],"timestamp_mouse":[22,44,48,67,86,107,128,146,166,187,207,226,246,266,286,306,326,347,366,387,406,427,446,466,487,506,527,546,566,586,606,627,646,667,686,708,726,746,767,787,807,827,846,867,888,907,927,947,968,986,1007,1027,1046,1067,1088,1106,1127,1147,1166,1186,1207,1228,1247,1266,1286,1307,1327,1347,1366,1387,1406,1427,1446,1466,1486,1506,1526,1547,1566,1586,1608,1628,1646,1666,1687,1708,1726,1747,1766,1787,1806,1827,1847,1867,1886,1906,1926,1947,1966,1987,2007,2027,2047,2066,2087,2106,2126,2147,2166,2188,2207,2226,2246,2267,2287,2307],"xSR":741.5,"ySR":573.95,"xT1":424.9,"yT1":0,"xT2":1058.1,"yT2":0,"toosoon":0,"cond_shown":"Congruent","ratio_trial":100,"L_num":7,"L_den":14,"R_num":15,"R_den":25,"correct_side":2,"subjID":"samuelgonzalezgarcia6","gender":"0","school":"4","age":"9"},{"start_time":1552054213994,"click_time":1552054216228,"finger_time":1552054215949,"fix_duration":1485.5954644839862,"trial":18,"RT":1955,"MT":279,"sideResp":2,"stimulus":[],"xmouse":[818,818,818,818,818,818,818,818,818,818,818,818,818,818,818,818,818,818,818,818,818,818,818,818,818,818,818,818,818,818,818,818,818,818,818,818,818,818,818,818,818,818,818,818,818,818,818,818,818,818,818,818,818,818,818,818,818,818,818,818,818,818,818,818,818,818,818,818,818,818,818,818,818,818,817,817,816,816,816,816,816,816,816,816,816,816,816,816,816,816,816,816,816,816,816,818,836,858,881,898,900,982,998,1010,1025,1042,1107,1122,1130,1136,1140,1158],"ymouse":[640,640,640,640,640,640,640,640,640,640,640,640,640,640,640,640,640,640,640,640,640,640,640,640,640,640,640,640,640,640,640,640,640,640,640,640,640,640,640,640,640,640,640,640,640,640,640,640,640,640,640,640,640,640,640,640,640,640,640,640,640,640,640,640,640,640,640,640,640,640,640,640,640,640,640,640,640,640,640,640,640,640,640,640,640,640,640,640,640,640,640,640,640,640,640,640,631,616,599,585,582,510,487,460,425,373,221,176,151,133,118,76],"timestamp_mouse":[14,38,53,73,94,113,133,153,174,195,214,235,253,275,294,313,334,353,374,395,415,434,453,474,493,515,534,553,574,595,614,634,654,673,695,714,733,753,775,794,815,834,854,873,893,914,935,954,973,993,1013,1034,1054,1075,1093,1114,1134,1154,1175,1194,1213,1234,1254,1274,1295,1314,1334,1354,1375,1394,1414,1433,1453,1475,1494,1513,1534,1553,1575,1594,1613,1635,1654,1674,1694,1713,1735,1754,1774,1795,1815,1834,1853,1874,1895,1914,1934,1955,1974,1994,2014,2034,2053,2075,2094,2113,2134,2153,2174,2195,2214,2234],"xSR":741.5,"ySR":573.95,"xT1":424.9,"yT1":0,"xT2":1058.1,"yT2":0,"toosoon":0,"cond_shown":"Congruent","ratio_trial":100,"L_num":6,"L_den":20,"R_num":5,"R_den":25,"correct_side":1,"subjID":"samuelgonzalezgarcia6","gender":"0","school":"4","age":"9"},{"start_time":1552054221887,"click_time":1552054223628,"finger_time":1552054223208,"fix_duration":1417.6064488906743,"trial":19,"RT":1321,"MT":420,"sideResp":1,"stimulus":[],"xmouse":[830,830,830,830,830,830,830,830,830,830,830,830,830,830,830,830,830,830,830,830,830,830,830,830,830,830,830,830,830,830,830,830,830,830,830,830,830,830,830,830,830,830,830,830,830,830,830,830,830,830,830,830,830,830,830,830,830,829,829,829,829,829,829,828,825,816,806,749,717,691,675,666,653,645,634,621,608,596,562,546,534,531,528,528,527,526,526,524],"ymouse":[615,615,615,615,615,615,615,615,615,615,615,615,615,615,615,615,615,615,615,615,615,615,615,615,615,615,615,615,615,615,615,615,615,615,615,615,615,615,615,615,615,615,615,615,615,615,615,615,615,615,615,615,615,615,615,615,615,615,615,615,615,615,615,614,605,587,564,442,389,343,303,272,222,206,191,177,166,155,111,83,62,57,53,52,51,51,51,50],"timestamp_mouse":[9,22,42,61,81,101,120,141,160,181,202,221,241,260,281,300,321,342,362,382,401,422,442,460,480,501,521,541,560,581,601,622,641,660,680,701,720,740,760,782,801,820,841,860,880,902,920,941,960,980,1001,1021,1040,1060,1080,1101,1122,1141,1161,1181,1201,1221,1241,1261,1280,1302,1321,1341,1360,1380,1400,1420,1440,1462,1481,1501,1520,1540,1560,1581,1601,1620,1640,1660,1681,1700,1721,1741],"xSR":741.5,"ySR":573.95,"xT1":424.9,"yT1":0,"xT2":1058.1,"yT2":0,"toosoon":0,"cond_shown":"Congruent","ratio_trial":200,"L_num":20,"L_den":25,"R_num":9,"R_den":15,"correct_side":1,"subjID":"samuelgonzalezgarcia6","gender":"0","school":"4","age":"9"},{"start_time":1552054224760,"click_time":1552054226608,"finger_time":1552054226127,"fix_duration":250,"trial":20,"RT":1367,"MT":481,"sideResp":1,"stimulus":[],"xmouse":[775,775,775,775,775,775,775,775,775,775,775,775,775,775,775,775,775,775,775,775,775,775,775,775,775,775,775,775,775,775,775,775,775,775,775,775,775,775,775,775,775,775,775,775,775,775,775,775,775,775,775,775,775,775,775,775,775,775,775,775,775,775,775,775,775,775,775,775,775,775,774,771,767,752,743,735,726,719,700,687,679,676,675,665,655,640,612,596,588,576,573,552,444],"ymouse":[604,604,604,604,604,604,604,604,604,604,604,604,604,604,604,604,604,604,604,604,604,604,604,604,604,604,604,604,604,604,604,604,604,604,604,604,604,604,604,604,604,604,604,604,604,604,604,604,604,604,604,604,604,604,604,604,604,604,604,604,604,604,604,603,600,599,594,580,557,546,537,523,506,452,423,394,368,345,300,268,252,246,241,228,218,200,176,163,156,148,145,132,79],"timestamp_mouse":[20,46,47,68,89,107,127,149,168,187,209,227,247,268,288,307,328,347,367,389,407,427,449,469,487,507,529,547,569,587,607,628,647,668,689,707,728,747,769,787,808,828,848,867,887,909,927,948,969,989,1009,1029,1049,1068,1087,1108,1127,1148,1167,1187,1209,1228,1248,1267,1287,1308,1327,1348,1367,1389,1408,1428,1448,1467,1487,1507,1527,1548,1568,1588,1608,1628,1647,1667,1687,1708,1727,1748,1768,1788,1808,1828,1848],"xSR":741.5,"ySR":573.95,"xT1":424.9,"yT1":0,"xT2":1058.1,"yT2":0,"toosoon":0,"cond_shown":"Incongruent","ratio_trial":200,"L_num":7,"L_den":10,"R_num":12,"R_den":24,"correct_side":1,"subjID":"samuelgonzalezgarcia6","gender":"0","school":"4","age":"9"},{"start_time":1552054229746,"click_time":1552054231547,"finger_time":1552054231087,"fix_duration":1436.516602469999,"trial":21,"RT":1341,"MT":460,"sideResp":2,"stimulus":[],"xmouse":[809,809,809,809,809,809,810,810,812,812,812,812,812,812,812,812,812,812,812,812,812,812,812,812,812,812,812,812,812,812,812,812,812,812,812,812,812,811,811,811,811,811,811,811,811,811,811,811,811,811,811,811,810,810,810,810,810,810,810,810,810,810,810,810,812,818,828,838,846,857,864,871,874,877,882,900,914,941,962,984,1006,1011,1024,1043,1090,1104,1111,1116,1118,1123,1125],"ymouse":[647,647,647,647,647,647,647,646,645,645,644,644,643,643,643,643,643,643,643,643,643,643,643,643,643,643,643,643,643,643,643,643,643,643,643,643,643,642,642,642,642,642,642,642,642,642,642,642,642,642,642,642,641,641,641,641,641,641,641,641,641,641,641,639,632,619,598,572,546,521,508,496,488,480,468,421,381,331,283,217,11,0,0,0,0,0,0,0,0,0,1],"timestamp_mouse":[10,35,42,63,81,101,122,143,162,182,201,223,243,263,283,303,322,343,361,382,401,423,442,463,481,501,523,541,562,583,601,622,643,663,681,701,723,742,761,782,801,823,841,862,883,903,922,941,961,983,1002,1022,1041,1061,1081,1101,1122,1141,1162,1181,1202,1223,1241,1261,1282,1302,1321,1341,1361,1381,1401,1422,1442,1462,1482,1501,1522,1542,1561,1581,1602,1621,1641,1662,1682,1701,1723,1743,1762,1782,1801],"xSR":741.5,"ySR":573.95,"xT1":424.9,"yT1":0,"xT2":1058.1,"yT2":0,"toosoon":0,"cond_shown":"Incongruent","ratio_trial":100,"L_num":13,"L_den":26,"R_num":6,"R_den":10,"correct_side":2,"subjID":"samuelgonzalezgarcia6","gender":"0","school":"4","age":"9"},{"start_time":1552054233581,"click_time":1552054235431,"finger_time":1552054235028,"fix_duration":670.181142506894,"trial":22,"RT":1447,"MT":403,"sideResp":1,"stimulus":[],"xmouse":[786,786,786,786,786,786,786,786,786,786,786,786,786,786,786,786,786,786,786,786,786,786,786,786,786,786,786,786,786,786,786,786,786,786,786,786,786,786,786,786,786,786,786,786,786,786,786,786,786,786,786,786,786,786,786,786,786,786,786,786,786,786,786,786,786,786,786,786,786,786,784,779,768,757,741,713,703,649,644,644,644,644,643,628,605,581,550,496,484,480,479,479,475],"ymouse":[644,644,644,644,644,644,644,644,644,644,644,644,644,644,644,644,644,644,644,644,644,644,644,644,644,644,644,644,644,644,644,644,644,644,644,644,644,644,644,644,644,644,644,644,644,644,644,644,644,644,644,644,644,644,644,644,644,644,644,644,644,644,644,644,644,644,644,644,644,642,628,612,573,543,488,401,373,250,231,225,220,213,202,139,82,28,0,0,0,0,0,0,8],"timestamp_mouse":[12,38,47,68,88,107,127,147,167,188,208,227,247,266,286,307,328,348,366,387,407,427,447,467,486,508,527,547,566,586,607,626,648,667,687,707,728,747,766,787,807,826,847,867,888,906,926,948,967,987,1007,1027,1047,1067,1087,1107,1127,1147,1167,1188,1208,1227,1247,1268,1288,1307,1327,1347,1368,1387,1407,1426,1447,1467,1486,1506,1526,1547,1567,1587,1608,1627,1647,1666,1687,1706,1726,1748,1766,1786,1807,1827,1850],"xSR":741.5,"ySR":573.95,"xT1":424.9,"yT1":0,"xT2":1058.1,"yT2":0,"toosoon":0,"cond_shown":"Congruent","ratio_trial":300,"L_num":8,"L_den":16,"R_num":1,"R_den":5,"correct_side":1,"subjID":"samuelgonzalezgarcia6","gender":"0","school":"4","age":"9"},{"start_time":1552054237690,"click_time":1552054239508,"finger_time":1552054239108,"fix_duration":1461.903958260957,"trial":23,"RT":1418,"MT":400,"sideResp":2,"stimulus":[],"xmouse":[819,819,819,819,819,819,819,819,819,819,819,819,818,818,818,818,818,817,817,816,816,815,815,815,815,815,815,815,815,815,815,815,815,815,815,815,815,815,815,815,815,815,815,815,814,814,814,814,814,814,814,814,814,814,814,815,815,815,815,815,815,815,815,815,815,817,818,819,821,831,841,845,875,902,927,946,969,975,981,986,991,1002,1009,1021,1033,1042,1057,1059,1060,1060,1061],"ymouse":[610,612,612,612,612,612,612,612,612,612,612,612,612,612,612,611,611,611,611,611,611,611,611,611,611,611,611,611,611,611,611,611,611,611,611,611,611,611,611,611,611,611,611,611,612,614,614,614,614,614,614,615,615,615,615,615,615,613,612,612,612,612,612,612,611,607,606,604,601,589,557,545,439,350,276,239,202,185,172,159,150,133,129,128,128,125,109,106,103,100,96],"timestamp_mouse":[19,39,59,77,97,118,138,157,178,198,218,239,259,278,299,318,338,358,377,399,419,437,457,477,499,517,538,557,577,597,618,639,659,678,697,718,738,759,779,797,818,838,858,877,898,918,938,957,979,998,1017,1038,1058,1079,1097,1118,1138,1158,1178,1199,1217,1239,1257,1278,1298,1317,1338,1357,1378,1398,1418,1437,1457,1477,1497,1518,1538,1558,1578,1597,1618,1637,1657,1677,1697,1717,1737,1757,1779,1798,1818],"xSR":741.5,"ySR":573.95,"xT1":424.9,"yT1":0,"xT2":1058.1,"yT2":0,"toosoon":0,"cond_shown":"Congruent","ratio_trial":200,"L_num":6,"L_den":20,"R_num":11,"R_den":22,"correct_side":2,"subjID":"samuelgonzalezgarcia6","gender":"0","school":"4","age":"9"},{"start_time":1552054243191,"click_time":1552054246408,"finger_time":1552054245227,"fix_duration":1241.5487508074955,"trial":24,"RT":2036,"MT":1181,"sideResp":1,"stimulus":[],"xmouse":[749,749,749,749,748,746,744,744,744,744,744,744,744,744,744,744,743,743,743,743,743,743,743,743,743,743,743,743,743,743,743,743,743,743,743,743,743,743,745,745,746,746,748,749,750,750,750,750,750,750,750,750,750,750,750,750,750,750,750,750,750,750,750,750,752,756,780,781,781,781,781,781,782,782,782,782,782,782,782,782,782,782,786,788,789,789,790,790,791,791,791,793,794,794,795,796,797,796,795,789,780,744,738,738,738,738,738,738,738,738,738,738,738,738,738,738,739,740,740,740,740,740,740,739,736,733,728,724,721,713,705,680,676,675,675,675,675,667,656,637,614,585,517,502,499,499,499,499,499,499,499,499,499,499,499,499,499,498,496,495,494],"ymouse":[665,665,665,665,665,666,666,666,666,666,666,666,666,666,666,666,666,666,666,666,666,666,666,666,666,666,666,666,666,666,666,666,666,666,666,666,667,667,668,668,668,668,669,669,669,669,669,669,669,669,669,669,669,669,669,669,669,669,669,669,669,669,669,669,669,668,662,662,662,662,662,662,661,661,661,661,661,661,661,661,660,659,651,648,647,646,645,645,645,645,643,640,639,638,635,632,631,624,616,606,586,525,515,515,515,515,515,515,515,515,515,515,515,515,515,515,515,515,515,515,515,513,510,506,499,481,437,401,378,319,220,54,23,10,8,7,6,0,0,0,0,0,0,0,0,0,0,0,0,0,0,0,0,0,0,0,0,0,0,0,1],"timestamp_mouse":[17,36,56,77,96,117,137,158,176,196,217,238,256,277,296,317,337,356,377,398,417,437,456,476,498,516,537,558,576,596,617,637,657,678,697,717,737,756,777,797,817,838,856,877,896,918,936,956,976,997,1017,1037,1056,1076,1096,1117,1137,1157,1176,1198,1218,1236,1256,1276,1296,1317,1336,1357,1376,1396,1416,1436,1457,1476,1497,1518,1536,1556,1578,1598,1617,1636,1656,1676,1697,1718,1737,1758,1777,1797,1816,1837,1857,1876,1897,1916,1936,1957,1977,1996,2016,2036,2056,2078,2096,2116,2136,2158,2177,2197,2217,2237,2256,2276,2297,2317,2337,2369,2377,2396,2418,2436,2457,2476,2496,2516,2536,2556,2577,2597,2617,2637,2656,2676,2697,2717,2738,2756,2776,2797,2817,2837,2856,2877,2898,2917,2937,2957,2977,2997,3017,3037,3057,3077,3097,3118,3137,3156,3176,3197,3217],"xSR":741.5,"ySR":573.95,"xT1":424.9,"yT1":0,"xT2":1058.1,"yT2":0,"toosoon":0,"cond_shown":"Incongruent","ratio_trial":200,"L_num":7,"L_den":15,"R_num":4,"R_den":6,"correct_side":2,"subjID":"samuelgonzalezgarcia6","gender":"0","school":"4","age":"9"},{"start_time":1552054251514,"click_time":1552054253328,"finger_time":1552054253148,"fix_duration":1265.3035492607628,"trial":25,"RT":1634,"MT":180,"sideResp":2,"stimulus":[],"xmouse":[783,783,783,783,783,783,783,783,783,783,783,783,783,783,783,783,783,783,783,783,783,783,783,783,783,783,783,783,783,783,783,783,783,783,783,783,783,783,783,783,783,783,783,783,783,783,783,783,783,783,783,783,783,783,783,783,783,783,783,783,783,783,783,783,783,783,783,783,783,783,783,794,795,795,795,795,795,795,796,796,806,826,836,849,875,943,979,1012,1047,1069,1088],"ymouse":[613,613,613,613,613,613,613,613,613,613,613,613,613,613,613,613,613,613,613,613,613,613,613,613,613,613,613,613,613,613,613,613,613,613,613,613,613,613,613,613,613,613,613,613,613,613,613,613,613,613,613,613,613,613,613,613,613,613,613,613,613,613,613,613,613,613,613,613,613,613,613,604,603,603,603,603,603,603,602,600,582,535,513,479,439,338,289,225,154,112,70],"timestamp_mouse":[13,35,55,73,93,113,135,155,173,194,215,235,254,274,293,315,333,353,373,394,414,433,454,473,494,515,533,554,574,595,615,633,654,674,695,713,733,753,773,794,814,833,853,873,893,914,933,955,975,994,1013,1034,1054,1074,1095,1114,1133,1153,1174,1194,1215,1235,1253,1273,1294,1314,1333,1354,1375,1395,1413,1433,1453,1475,1494,1514,1533,1555,1574,1594,1613,1634,1654,1675,1695,1714,1733,1754,1773,1793,1813],"xSR":741.5,"ySR":573.95,"xT1":424.9,"yT1":0,"xT2":1058.1,"yT2":0,"toosoon":0,"cond_shown":"Incongruent","ratio_trial":100,"L_num":12,"L_den":24,"R_num":9,"R_den":15,"correct_side":2,"subjID":"samuelgonzalezgarcia6","gender":"0","school":"4","age":"9"},{"start_time":1552054257359,"click_time":1552054259887,"finger_time":1552054257747,"fix_duration":809.6216273083796,"trial":26,"RT":388,"MT":2140,"sideResp":1,"stimulus":[],"xmouse":[768,768,768,768,768,768,768,768,768,768,768,768,768,768,768,768,768,772,810,825,829,831,831,831,831,831,831,831,831,831,831,831,831,831,831,831,831,831,831,831,831,834,843,844,838,830,819,810,805,804,804,804,802,802,799,798,798,798,798,798,798,798,798,798,798,798,798,798,798,798,798,798,798,798,798,798,800,804,820,829,836,839,842,843,843,843,845,849,863,872,879,886,895,902,903,903,903,903,903,903,903,903,903,903,903,905,905,900,841,780,719,664,630,613,612,610,606,600,593,591,582,574,570,567,555,537,521],"ymouse":[625,625,625,625,625,625,625,625,625,625,625,625,625,625,625,625,625,623,589,566,562,562,562,562,562,562,563,563,563,563,563,563,563,563,563,563,563,563,563,563,563,565,570,576,589,601,617,628,636,637,637,637,636,634,625,622,622,622,622,622,622,622,622,622,622,622,622,622,622,622,622,622,622,622,622,621,619,615,592,579,569,565,560,557,556,553,548,540,505,485,471,458,443,432,431,431,431,431,431,431,431,431,431,431,429,423,417,400,306,222,135,61,18,0,0,0,0,0,0,4,22,36,43,46,46,46,46],"timestamp_mouse":[13,41,48,69,89,108,129,149,169,190,209,229,250,269,288,308,330,349,368,388,408,429,449,468,490,508,528,548,569,589,608,629,650,669,689,708,729,749,770,789,808,829,848,868,888,909,928,949,969,988,1009,1029,1049,1069,1089,1108,1129,1149,1168,1190,1208,1229,1249,1269,1289,1309,1329,1349,1368,1389,1408,1429,1449,1470,1488,1509,1528,1549,1568,1589,1609,1629,1648,1669,1688,1710,1729,1749,1769,1788,1808,1828,1849,1869,1889,1910,1930,1949,1969,1989,2009,2029,2050,2069,2088,2108,2128,2148,2169,2188,2208,2228,2250,2269,2289,2309,2329,2349,2369,2388,2408,2429,2448,2471,2488,2508,2528],"xSR":741.5,"ySR":573.95,"xT1":424.9,"yT1":0,"xT2":1058.1,"yT2":0,"toosoon":0,"cond_shown":"Congruent","ratio_trial":100,"L_num":10,"L_den":25,"R_num":3,"R_den":10,"correct_side":1,"subjID":"samuelgonzalezgarcia6","gender":"0","school":"4","age":"9"},{"start_time":1552054263737,"click_time":1552054266768,"finger_time":1552054266208,"fix_duration":1267.83432912185,"trial":27,"RT":2471,"MT":560,"sideResp":2,"stimulus":[],"xmouse":[816,816,816,816,816,816,816,816,816,816,816,816,816,816,816,816,816,817,817,817,817,817,817,817,818,818,818,818,818,818,818,818,818,818,818,818,818,818,818,818,818,818,818,818,818,818,818,818,818,818,818,818,818,818,818,818,818,818,818,818,818,818,818,818,818,818,818,818,818,818,818,818,818,818,818,818,818,818,818,818,818,818,818,819,819,820,821,821,822,823,824,824,824,824,825,825,825,825,825,825,825,825,825,825,825,825,825,825,825,825,825,825,826,827,830,831,832,832,834,834,834,837,840,840,841,841,846,864,891,967,994,1008,1019,1030,1068,1107,1145,1170,1185,1200,1204,1213,1225,1232,1235,1236,1236,1236,1236,1202,1177,1158],"ymouse":[639,639,639,639,639,639,639,639,639,639,639,639,639,639,639,639,639,636,635,632,632,632,632,632,631,631,631,631,631,631,631,631,631,631,631,631,631,631,631,631,631,631,631,631,631,631,631,631,631,631,631,631,631,631,631,631,631,631,631,631,631,631,631,631,631,631,631,631,631,631,631,631,631,631,630,630,629,628,627,627,627,627,627,626,626,624,624,623,622,621,620,620,619,618,617,617,617,617,617,617,617,617,617,617,617,617,617,617,617,616,616,614,613,611,605,603,601,600,597,596,587,581,574,569,559,555,553,551,554,561,564,564,564,560,531,476,397,321,266,216,199,170,122,92,78,75,75,75,75,76,65,48],"timestamp_mouse":[13,38,51,70,90,111,130,151,170,191,211,231,251,271,290,310,331,350,371,391,410,430,452,471,491,510,530,551,570,592,611,631,652,671,690,711,731,752,771,791,810,831,850,871,891,912,931,950,971,991,1010,1032,1051,1070,1090,1112,1131,1150,1171,1190,1210,1231,1252,1272,1291,1310,1331,1351,1372,1391,1410,1432,1452,1471,1491,1510,1530,1550,1572,1591,1612,1630,1652,1671,1691,1712,1731,1750,1770,1792,1812,1831,1851,1871,1892,1910,1931,1950,1971,1990,2010,2030,2051,2071,2090,2110,2130,2150,2172,2192,2212,2231,2251,2270,2291,2311,2330,2350,2372,2391,2410,2430,2450,2471,2491,2510,2530,2550,2570,2591,2610,2631,2650,2670,2690,2711,2731,2751,2771,2791,2810,2830,2852,2871,2890,2911,2930,2951,2972,2990,3012,3030],"xSR":741.5,"ySR":573.95,"xT1":424.9,"yT1":0,"xT2":1058.1,"yT2":0,"toosoon":0,"cond_shown":"Incongruent","ratio_trial":100,"L_num":6,"L_den":10,"R_num":7,"R_den":14,"correct_side":1,"subjID":"samuelgonzalezgarcia6","gender":"0","school":"4","age":"9"},{"start_time":1552054270668,"click_time":1552054272607,"finger_time":1552054271988,"fix_duration":1278.7315520715083,"trial":28,"RT":1320,"MT":619,"sideResp":2,"stimulus":[],"xmouse":[811,811,811,811,811,811,811,811,811,811,811,811,811,811,811,811,811,811,811,811,811,811,811,811,811,811,811,811,811,811,811,811,811,811,811,811,811,811,811,811,811,811,811,811,811,811,811,811,811,811,811,811,811,811,811,811,811,811,811,811,811,811,811,813,813,822,859,913,1016,1044,1069,1109,1160,1209,1253,1253,1253,1253,1251,1250,1248,1244,1232,1198,1122,1078,1053,1044,1041,1041,1041,1041,1041,1043,1047,1050,1056,1068],"ymouse":[640,640,640,640,640,640,640,640,640,640,640,640,640,640,640,640,640,640,640,640,640,640,640,640,640,640,640,640,640,640,640,640,640,640,640,640,640,640,640,640,640,640,640,640,640,640,640,640,640,640,640,640,640,640,640,640,640,640,640,640,640,640,640,641,641,641,611,549,428,395,368,324,260,175,0,0,0,0,0,0,0,0,0,0,0,0,0,0,0,0,0,0,0,6,11,15,19,25],"timestamp_mouse":[10,20,43,61,80,101,120,140,160,180,200,221,241,259,279,301,319,339,360,379,400,420,439,460,479,501,520,541,559,579,601,619,640,660,680,701,721,740,759,779,799,821,840,860,879,900,919,941,959,979,1000,1020,1041,1059,1080,1101,1121,1139,1159,1180,1201,1219,1241,1260,1279,1299,1320,1339,1359,1379,1399,1419,1440,1460,1479,1500,1519,1539,1562,1580,1600,1619,1639,1661,1679,1699,1719,1739,1760,1780,1800,1820,1841,1859,1880,1899,1920,1939],"xSR":741.5,"ySR":573.95,"xT1":424.9,"yT1":0,"xT2":1058.1,"yT2":0,"toosoon":0,"cond_shown":"Incongruent","ratio_trial":300,"L_num":13,"L_den":26,"R_num":12,"R_den":15,"correct_side":2,"subjID":"samuelgonzalezgarcia6","gender":"0","school":"4","age":"9"},{"start_time":1552054276435,"click_time":1552054278228,"finger_time":1552054277767,"fix_duration":1226.047219504557,"trial":29,"RT":1332,"MT":461,"sideResp":2,"stimulus":[],"xmouse":[788,788,788,788,788,788,788,788,788,788,788,788,788,788,788,788,788,788,788,788,788,788,788,788,788,788,788,788,788,788,788,788,788,788,788,788,788,788,788,788,788,788,788,788,788,788,788,788,788,788,788,788,788,788,788,788,788,788,788,788,788,790,792,795,806,815,826,840,858,924,962,997,1021,1034,1046,1048,1051,1055,1056,1061,1063,1065,1067,1069,1077,1080,1083,1087,1093,1106],"ymouse":[617,617,617,617,617,617,617,617,617,617,617,617,617,617,617,617,617,617,617,617,617,617,617,617,617,617,617,617,617,617,617,617,617,617,617,617,617,617,617,617,617,617,617,617,617,617,617,617,617,617,617,617,617,617,617,617,617,617,617,617,617,616,614,612,599,583,561,535,510,426,382,346,315,291,237,217,199,186,181,174,171,166,163,158,145,140,136,128,118,88],"timestamp_mouse":[14,40,53,72,93,112,133,153,173,193,212,234,254,272,293,313,333,352,374,392,413,433,452,472,494,513,532,553,573,594,614,634,653,673,693,712,732,754,774,792,813,834,853,874,893,912,932,952,972,993,1012,1034,1053,1073,1092,1114,1133,1153,1174,1193,1212,1232,1252,1274,1293,1313,1332,1352,1372,1393,1412,1433,1453,1473,1493,1512,1533,1553,1572,1592,1612,1632,1652,1674,1692,1713,1732,1752,1772,1792],"xSR":741.5,"ySR":573.95,"xT1":424.9,"yT1":0,"xT2":1058.1,"yT2":0,"toosoon":0,"cond_shown":"Congruent","ratio_trial":300,"L_num":1,"L_den":3,"R_num":19,"R_den":30,"correct_side":2,"subjID":"samuelgonzalezgarcia6","gender":"0","school":"4","age":"9"},{"start_time":1552054279339,"click_time":1552054281308,"finger_time":1552054280909,"fix_duration":330.5083886099689,"trial":30,"RT":1570,"MT":399,"sideResp":2,"stimulus":[],"xmouse":[805,805,805,805,805,805,805,805,805,805,805,805,805,805,805,805,805,805,805,805,805,805,805,805,805,805,805,805,805,805,805,805,805,805,805,805,805,805,805,805,805,805,805,805,805,805,805,805,805,805,805,805,805,805,805,805,805,805,805,805,805,804,804,804,804,804,804,804,804,804,804,804,804,804,804,812,822,831,843,859,897,923,980,1049,1151,1162,1164,1165,1167,1168,1174,1177,1178,1178,1178,1173,1168,1159,1148],"ymouse":[633,633,633,633,633,633,633,633,633,633,633,633,633,633,633,633,633,633,633,633,633,633,633,633,633,633,633,633,633,633,633,633,633,633,633,633,633,633,633,633,633,633,633,633,633,633,633,633,633,633,633,633,633,633,633,633,633,633,633,633,633,633,633,633,633,633,633,633,633,633,633,633,633,633,630,612,595,579,560,537,493,471,419,351,219,183,157,137,125,118,104,94,83,74,73,73,74,76,77],"timestamp_mouse":[20,40,48,70,88,108,129,148,170,188,209,228,249,270,289,308,330,349,369,388,409,430,449,468,490,508,529,549,568,589,609,628,649,670,690,708,730,750,769,788,808,830,849,870,888,909,928,949,968,988,1009,1028,1048,1069,1089,1109,1128,1149,1170,1190,1208,1229,1250,1268,1289,1310,1329,1349,1369,1388,1410,1429,1449,1469,1488,1508,1529,1549,1570,1588,1608,1628,1648,1668,1688,1709,1729,1748,1768,1788,1809,1829,1849,1869,1889,1909,1930,1949,1969],"xSR":741.5,"ySR":573.95,"xT1":424.9,"yT1":0,"xT2":1058.1,"yT2":0,"toosoon":0,"cond_shown":"Congruent","ratio_trial":200,"L_num":13,"L_den":26,"R_num":14,"R_den":20,"correct_side":2,"subjID":"samuelgonzalezgarcia6","gender":"0","school":"4","age":"9"},{"start_time":1552054282932,"click_time":1552054284308,"finger_time":1552054283808,"fix_duration":603.2721807528652,"trial":31,"RT":876,"MT":500,"sideResp":2,"stimulus":[],"xmouse":[783,783,783,783,783,783,783,783,783,783,783,783,783,783,783,783,783,783,783,783,783,783,783,783,783,783,783,783,783,783,783,784,784,785,786,787,789,790,792,797,801,805,811,816,829,838,847,859,868,891,902,915,931,945,969,977,988,1001,1021,1092,1106,1116,1122,1127,1127,1127,1126,1121,1114],"ymouse":[612,612,612,612,612,612,612,612,612,612,612,612,612,612,612,612,612,612,612,612,612,612,612,612,612,612,612,612,612,612,612,612,612,612,611,610,609,607,606,598,592,585,577,568,548,537,527,516,507,485,476,465,452,439,406,387,369,347,319,220,195,177,161,148,141,137,130,111,87],"timestamp_mouse":[16,43,56,75,95,115,136,155,175,195,216,236,257,275,296,316,335,356,375,396,416,437,456,476,495,516,535,555,575,595,615,636,656,675,696,715,736,756,775,796,817,835,855,876,895,915,935,956,976,995,1015,1035,1056,1076,1095,1115,1135,1155,1175,1195,1215,1235,1255,1276,1296,1316,1335,1356,1376],"xSR":741.5,"ySR":573.95,"xT1":424.9,"yT1":0,"xT2":1058.1,"yT2":0,"toosoon":0,"cond_shown":"Incongruent","ratio_trial":300,"L_num":4,"L_den":5,"R_num":8,"R_den":16,"correct_side":1,"subjID":"samuelgonzalezgarcia6","gender":"0","school":"4","age":"9"},{"start_time":1552054288198,"click_time":1552054289988,"finger_time":1552054289087,"fix_duration":469.0980850403761,"trial":32,"RT":889,"MT":901,"sideResp":2,"stimulus":[],"xmouse":[820,820,820,820,820,820,820,820,820,820,820,820,820,820,820,820,820,820,820,820,820,820,820,820,820,820,820,820,820,820,820,820,820,820,820,820,820,820,820,820,820,820,828,838,868,923,1094,1212,1258,1286,1309,1340,1348,1355,1359,1360,1360,1360,1364,1373,1381,1391,1400,1401,1401,1400,1382,1367,1351,1338,1332,1326,1308,1296,1287,1284,1284,1258,1214,1157,1111,1081,1061,1060,1060,1060,1060,1059,1059,1059],"ymouse":[642,642,642,642,642,642,642,642,642,642,642,642,642,642,642,642,642,642,642,642,642,642,642,642,642,642,642,642,642,642,642,642,642,642,642,642,642,642,642,642,642,642,640,634,615,576,419,263,193,152,112,46,23,1,0,0,0,0,0,0,0,0,0,0,0,0,0,0,0,0,0,0,0,0,0,0,0,0,0,0,0,0,0,0,0,0,0,0,0,1],"timestamp_mouse":[14,45,49,69,90,109,131,149,170,189,210,230,250,269,290,310,330,350,370,389,410,430,451,470,490,510,531,551,571,590,609,631,649,670,689,710,729,751,769,790,810,831,849,870,889,911,929,949,969,989,1009,1029,1049,1070,1090,1109,1130,1150,1170,1189,1209,1230,1249,1269,1289,1309,1329,1349,1370,1389,1410,1429,1450,1470,1489,1509,1530,1550,1570,1591,1611,1629,1649,1669,1690,1709,1730,1749,1771,1790],"xSR":741.5,"ySR":573.95,"xT1":424.9,"yT1":0,"xT2":1058.1,"yT2":0,"toosoon":0,"cond_shown":"Congruent","ratio_trial":100,"L_num":2,"L_den":5,"R_num":11,"R_den":22,"correct_side":2,"subjID":"samuelgonzalezgarcia6","gender":"0","school":"4","age":"9"},{"start_time":1552054291650,"click_time":1552054293568,"finger_time":1552054293268,"fix_duration":361.3645397202776,"trial":33,"RT":1618,"MT":300,"sideResp":1,"stimulus":[],"xmouse":[803,803,803,803,803,803,803,803,803,803,803,803,803,803,803,803,803,803,803,803,803,803,803,803,803,803,803,803,803,803,803,803,803,803,803,803,803,803,803,803,803,803,803,803,803,803,803,803,803,803,803,803,803,803,803,803,803,803,803,803,803,803,803,803,803,803,803,803,803,803,803,803,803,804,805,805,805,805,805,805,805,807,807,787,772,755,741,738,737,735,731,719,705,690,559,500],"ymouse":[614,614,614,614,614,614,614,614,614,614,614,614,614,614,614,614,614,614,614,614,614,614,614,614,614,614,614,614,614,614,614,614,614,614,614,614,614,614,614,614,614,614,614,614,614,614,614,614,614,614,614,614,614,614,614,614,614,614,614,614,614,614,614,614,614,614,614,614,614,614,614,614,614,612,608,604,600,595,593,578,555,514,427,334,282,232,195,174,162,159,155,148,140,132,64,32],"timestamp_mouse":[17,43,59,77,99,117,137,159,178,198,217,238,257,277,298,317,338,358,377,397,417,439,459,478,497,517,538,558,578,599,617,638,659,679,697,717,738,757,778,797,818,839,857,878,897,918,939,957,977,997,1019,1038,1059,1077,1098,1118,1137,1158,1178,1199,1217,1237,1258,1277,1298,1317,1338,1358,1377,1399,1417,1437,1457,1477,1497,1517,1538,1557,1577,1597,1618,1639,1658,1678,1699,1717,1738,1757,1778,1797,1818,1838,1857,1877,1898,1918],"xSR":741.5,"ySR":573.95,"xT1":424.9,"yT1":0,"xT2":1058.1,"yT2":0,"toosoon":0,"cond_shown":"Incongruent","ratio_trial":100,"L_num":12,"L_den":24,"R_num":9,"R_den":15,"correct_side":2,"subjID":"samuelgonzalezgarcia6","gender":"0","school":"4","age":"9"},{"start_time":1552054295337,"click_time":1552054297028,"finger_time":1552054296727,"fix_duration":906.6889224011466,"trial":34,"RT":1390,"MT":301,"sideResp":2,"stimulus":[],"xmouse":[769,769,769,769,769,769,769,769,769,769,769,769,769,769,769,769,769,769,769,769,769,769,769,769,769,769,769,769,769,769,769,769,769,769,769,769,769,769,769,768,768,768,768,768,768,768,768,768,768,768,768,768,768,768,768,768,768,768,768,769,769,769,769,769,770,771,772,775,779,802,810,816,823,836,896,928,951,964,970,973,1004,1022,1037,1050,1071],"ymouse":[614,614,613,613,613,613,613,613,613,613,613,613,613,613,613,613,613,613,613,613,613,613,613,613,613,613,613,613,613,613,613,613,613,613,613,613,613,613,613,613,613,610,608,607,601,598,597,597,597,596,596,595,595,595,594,594,593,593,593,591,590,589,589,589,588,586,585,581,575,536,518,505,487,458,340,287,251,227,217,212,172,152,133,115,78],"timestamp_mouse":[28,30,51,71,91,112,131,151,171,190,210,230,250,270,292,310,330,350,372,390,410,431,451,471,491,511,531,552,571,590,611,631,650,671,692,710,731,752,771,791,810,831,851,871,891,911,931,951,970,990,1010,1030,1052,1071,1091,1110,1132,1151,1171,1191,1211,1230,1251,1270,1291,1310,1330,1352,1370,1390,1411,1430,1451,1470,1491,1510,1531,1550,1570,1590,1610,1630,1651,1671,1691],"xSR":741.5,"ySR":573.95,"xT1":424.9,"yT1":0,"xT2":1058.1,"yT2":0,"toosoon":0,"cond_shown":"Congruent","ratio_trial":300,"L_num":5,"L_den":25,"R_num":6,"R_den":12,"correct_side":2,"subjID":"samuelgonzalezgarcia6","gender":"0","school":"4","age":"9"},{"start_time":1552054298489,"click_time":1552054300689,"finger_time":1552054299947,"fix_duration":360.6880195133169,"trial":35,"RT":1458,"MT":742,"sideResp":2,"stimulus":[],"xmouse":[793,793,793,793,793,793,793,793,793,793,793,793,793,793,793,793,793,793,793,793,793,793,793,793,793,793,793,793,793,793,793,793,793,793,793,793,793,793,793,793,793,793,793,793,793,793,793,793,793,793,793,793,793,793,793,793,793,793,793,793,793,793,793,794,794,794,795,795,796,796,796,797,797,797,797,798,798,798,798,798,798,797,796,793,791,789,788,788,788,788,788,789,791,800,816,832,847,874,891,911,936,985,1013,1029,1040,1052,1066,1084,1091,1095],"ymouse":[651,651,651,651,651,651,651,651,651,651,651,651,651,651,651,651,651,651,651,651,651,651,650,650,649,649,648,648,648,648,648,648,648,648,648,648,648,648,648,648,648,648,648,648,648,648,648,648,648,648,648,648,648,648,648,648,648,648,648,648,648,648,647,646,645,643,642,640,638,633,621,582,536,495,461,436,409,405,403,402,400,395,392,389,386,384,383,383,383,383,383,382,381,375,367,356,346,325,309,287,257,200,175,162,152,142,131,109,100,94],"timestamp_mouse":[18,39,58,78,99,119,140,158,178,198,218,240,259,278,299,319,338,359,380,399,419,439,459,479,498,520,538,558,578,598,618,638,659,678,699,718,738,759,779,799,819,839,860,879,899,919,939,958,979,998,1018,1038,1059,1079,1099,1119,1138,1158,1178,1199,1219,1239,1258,1278,1300,1318,1338,1358,1379,1398,1419,1438,1458,1478,1498,1518,1538,1558,1578,1598,1618,1639,1658,1678,1700,1718,1738,1758,1778,1798,1818,1839,1858,1878,1898,1918,1938,1958,1979,2000,2020,2038,2058,2078,2099,2118,2138,2158,2179,2200],"xSR":741.5,"ySR":573.95,"xT1":424.9,"yT1":0,"xT2":1058.1,"yT2":0,"toosoon":0,"cond_shown":"Incongruent","ratio_trial":100,"L_num":3,"L_den":6,"R_num":4,"R_den":10,"correct_side":1,"subjID":"samuelgonzalezgarcia6","gender":"0","school":"4","age":"9"},{"start_time":1552054302000,"click_time":1552054303789,"finger_time":1552054303267,"fix_duration":250,"trial":36,"RT":1267,"MT":522,"sideResp":2,"stimulus":[],"xmouse":[780,780,780,780,780,780,780,780,780,780,780,780,780,780,780,780,780,780,780,780,781,786,790,790,792,792,793,793,793,793,793,794,795,795,796,797,804,806,808,809,809,809,810,810,810,811,811,811,811,811,811,811,811,811,811,811,811,811,811,811,811,811,813,814,814,816,819,824,829,840,857,921,967,1015,1061,1114,1173,1185,1194,1199,1203,1205,1205,1204,1204,1201,1182,1170,1163,1158],"ymouse":[622,622,622,622,622,622,622,622,622,622,622,622,622,622,622,622,622,622,622,622,620,609,603,597,593,590,588,588,587,587,587,586,585,585,584,584,580,579,578,577,577,577,577,577,577,576,576,576,576,576,576,576,576,576,576,576,576,576,576,576,575,575,574,573,573,572,570,567,564,555,538,462,413,363,322,281,216,193,170,154,138,116,113,111,111,107,90,80,75,71],"timestamp_mouse":[13,43,48,67,87,107,128,147,168,188,208,227,247,268,287,308,328,349,368,388,407,427,448,468,488,507,529,547,568,588,607,627,647,667,688,708,727,747,768,788,808,828,847,867,888,908,927,948,967,988,1008,1028,1049,1068,1087,1108,1128,1149,1168,1188,1209,1228,1248,1267,1287,1309,1327,1347,1367,1387,1407,1427,1447,1468,1488,1508,1528,1547,1567,1588,1607,1627,1647,1667,1687,1707,1727,1749,1767,1789],"xSR":741.5,"ySR":573.95,"xT1":424.9,"yT1":0,"xT2":1058.1,"yT2":0,"toosoon":0,"cond_shown":"Incongruent","ratio_trial":200,"L_num":4,"L_den":30,"R_num":1,"R_den":3,"correct_side":2,"subjID":"samuelgonzalezgarcia6","gender":"0","school":"4","age":"9"},{"start_time":1552054305599,"click_time":1552054307167,"finger_time":1552054306507,"fix_duration":250,"trial":37,"RT":908,"MT":660,"sideResp":1,"stimulus":[],"xmouse":[820,820,820,820,820,820,820,820,820,820,820,820,820,820,820,820,820,820,820,820,820,820,820,820,820,820,820,820,820,820,820,820,820,820,820,820,821,821,822,823,823,823,823,823,823,823,823,823,823,823,823,823,823,823,823,822,822,821,818,816,811,776,748,715,686,665,659,659,659,659,658,656,652,639,621,604,568,541,510],"ymouse":[636,636,636,636,636,636,636,636,636,636,636,636,636,636,636,636,636,636,636,636,636,636,636,636,636,636,636,636,636,636,636,636,636,636,636,636,630,626,620,616,610,594,588,583,576,569,545,532,527,523,519,518,517,517,517,516,513,510,505,498,485,390,325,250,170,122,103,103,103,103,101,97,94,88,80,74,63,61,59],"timestamp_mouse":[12,38,48,70,88,110,128,149,170,189,208,228,248,269,288,308,328,348,368,388,409,428,448,469,489,509,528,548,569,588,609,629,649,669,689,709,728,749,768,789,808,828,848,868,888,908,928,948,968,988,1009,1028,1049,1069,1089,1108,1128,1148,1168,1189,1209,1228,1248,1268,1289,1309,1328,1349,1369,1389,1409,1428,1448,1468,1489,1509,1528,1548,1568],"xSR":741.5,"ySR":573.95,"xT1":424.9,"yT1":0,"xT2":1058.1,"yT2":0,"toosoon":0,"cond_shown":"Congruent","ratio_trial":100,"L_num":4,"L_den":10,"R_num":15,"R_den":30,"correct_side":2,"subjID":"samuelgonzalezgarcia6","gender":"0","school":"4","age":"9"},{"start_time":1552054308617,"click_time":1552054309008,"finger_time":1552054308727,"fix_duration":468.53833708909497,"trial":38,"RT":110,"MT":281,"sideResp":2,"stimulus":[],"xmouse":[810,810,810,810,825,846,875,917,949,991,1002,1011,1017,1021,1025,1031,1039,1057,1073],"ymouse":[599,599,596,592,558,534,499,444,388,293,266,246,231,218,211,202,179,134,77],"timestamp_mouse":[37,51,70,92,110,130,150,170,190,210,230,250,271,291,311,330,350,370,391],"xSR":741.5,"ySR":573.95,"xT1":424.9,"yT1":0,"xT2":1058.1,"yT2":0,"toosoon":0,"cond_shown":"Incongruent","ratio_trial":200,"L_num":14,"L_den":30,"R_num":12,"R_den":18,"correct_side":2,"subjID":"samuelgonzalezgarcia6","gender":"0","school":"4","age":"9"},{"start_time":1552054312703,"click_time":1552054314247,"finger_time":1552054313767,"fix_duration":574.4580696109441,"trial":39,"RT":1064,"MT":480,"sideResp":1,"stimulus":[],"xmouse":[776,776,776,776,776,776,776,776,776,776,776,776,776,776,776,776,776,776,776,776,776,776,776,776,776,776,776,776,776,776,776,776,776,776,776,776,776,776,778,780,782,783,783,783,783,783,783,783,783,783,783,779,771,759,743,720,695,684,677,674,674,674,675,675,675,673,668,661,642,607,593,553,547,541,540,537,533,496],"ymouse":[639,639,639,639,639,639,639,639,639,639,639,639,639,639,639,639,639,639,639,639,639,639,639,639,639,639,639,639,639,639,639,639,639,639,639,639,639,639,637,634,632,632,631,631,631,631,631,631,631,631,631,620,598,561,499,405,208,134,93,70,56,33,23,10,0,0,0,0,0,0,0,0,0,0,0,0,1,1],"timestamp_mouse":[23,24,45,64,84,105,124,146,165,184,204,224,245,264,285,305,325,345,366,384,404,424,445,464,485,504,525,545,565,585,605,625,646,665,684,705,724,745,764,784,806,824,845,864,884,904,925,945,965,985,1006,1024,1044,1064,1085,1104,1124,1144,1164,1184,1204,1224,1244,1264,1284,1306,1324,1344,1365,1384,1405,1424,1444,1464,1485,1506,1525,1544],"xSR":741.5,"ySR":573.95,"xT1":424.9,"yT1":0,"xT2":1058.1,"yT2":0,"toosoon":0,"cond_shown":"Congruent","ratio_trial":300,"L_num":18,"L_den":20,"R_num":9,"R_den":15,"correct_side":1,"subjID":"samuelgonzalezgarcia6","gender":"0","school":"4","age":"9"},{"start_time":1552054316755,"click_time":1552054317869,"finger_time":1552054317167,"fix_duration":1385.161040021651,"trial":40,"RT":412,"MT":702,"sideResp":2,"stimulus":[],"xmouse":[816,816,816,816,816,816,816,816,816,816,816,816,816,816,816,818,820,820,822,832,836,842,845,848,849,850,850,850,856,858,859,859,859,859,859,859,858,857,857,857,857,857,857,859,868,878,889,902,973,994,1008,1016,1024,1037,1047,1062],"ymouse":[602,602,602,602,602,602,602,602,602,602,602,602,602,602,602,598,597,596,593,580,572,564,559,553,552,550,549,547,538,536,535,535,535,535,535,535,535,535,535,535,535,535,535,532,524,513,498,482,339,253,194,170,153,124,105,73],"timestamp_mouse":[15,34,52,72,93,112,133,154,174,192,213,232,252,272,294,313,332,353,372,393,412,432,452,472,492,514,532,552,572,592,613,634,653,673,694,712,732,753,773,793,813,834,853,872,892,912,933,954,972,992,1013,1032,1052,1073,1092,1113],"xSR":741.5,"ySR":573.95,"xT1":424.9,"yT1":0,"xT2":1058.1,"yT2":0,"toosoon":0,"cond_shown":"Incongruent","ratio_trial":300,"L_num":4,"L_den":20,"R_num":2,"R_den":4,"correct_side":2,"subjID":"samuelgonzalezgarcia6","gender":"0","school":"4","age":"9"},{"start_time":1552054319890,"click_time":1552054321808,"finger_time":1552054320727,"fix_duration":861.7662397433794,"trial":41,"RT":837,"MT":1081,"sideResp":2,"stimulus":[],"xmouse":[802,802,802,802,802,802,802,802,802,802,802,802,802,802,802,802,802,802,802,802,802,802,802,802,802,802,802,802,802,802,802,802,802,802,802,802,802,802,802,801,799,755,727,704,695,692,691,690,690,689,686,684,684,683,683,683,683,683,683,684,686,696,712,732,746,752,759,774,802,856,908,1020,1045,1056,1060,1074,1184,1279,1334,1357,1366,1383,1386,1386,1378,1369,1353,1320,1305,1291,1270,1199,1091,1080,1079,1080],"ymouse":[641,641,641,641,641,641,641,641,641,641,641,641,641,641,641,641,641,641,641,641,641,641,641,641,641,641,641,641,641,641,641,641,641,641,641,641,641,641,641,633,610,438,348,282,251,231,220,216,215,215,215,215,215,215,215,215,215,215,215,216,218,220,220,220,220,220,218,216,212,205,197,173,165,158,154,147,119,90,61,36,14,0,0,0,0,0,0,0,0,1,4,5,0,0,0,3],"timestamp_mouse":[19,45,57,77,98,117,137,158,177,197,218,237,257,278,297,318,337,357,378,398,419,437,459,477,498,518,538,558,579,599,618,638,658,678,697,717,739,759,777,797,818,837,858,877,899,918,938,958,978,997,1017,1038,1057,1077,1097,1117,1137,1158,1178,1198,1217,1237,1257,1277,1298,1317,1338,1357,1377,1398,1418,1437,1457,1477,1499,1517,1538,1557,1577,1598,1618,1638,1657,1678,1698,1718,1737,1757,1778,1797,1817,1838,1858,1877,1898,1918],"xSR":741.5,"ySR":573.95,"xT1":424.9,"yT1":0,"xT2":1058.1,"yT2":0,"toosoon":0,"cond_shown":"Congruent","ratio_trial":100,"L_num":12,"L_den":30,"R_num":13,"R_den":26,"correct_side":2,"subjID":"samuelgonzalezgarcia6","gender":"0","school":"4","age":"9"},{"start_time":1552054323079,"click_time":1552054324989,"finger_time":1552054324527,"fix_duration":309.55808677017535,"trial":42,"RT":1448,"MT":462,"sideResp":1,"stimulus":[],"xmouse":[807,807,809,809,809,810,811,811,812,812,812,812,813,813,813,814,814,815,815,816,817,817,817,818,818,818,818,818,818,818,818,818,818,818,818,818,818,818,818,818,818,818,818,818,818,818,818,818,818,818,818,818,818,818,818,818,818,818,818,818,819,820,820,820,820,820,820,820,821,821,821,823,831,843,847,851,853,857,855,843,819,794,753,740,733,724,709,636,610,604,603,602,592,580,540,466],"ymouse":[593,593,593,593,593,593,593,593,593,593,593,593,592,592,592,592,592,592,591,590,589,589,588,588,588,588,588,588,587,587,586,586,586,586,585,585,585,585,585,585,585,585,585,585,585,585,585,585,585,585,585,585,585,585,585,585,585,585,585,588,589,592,592,592,592,592,592,592,592,592,590,585,570,546,537,529,522,501,468,417,355,299,201,178,167,159,146,88,70,67,67,67,68,68,68,58],"timestamp_mouse":[12,38,48,69,88,108,128,148,169,189,209,228,248,268,289,309,329,348,369,388,408,429,448,468,488,508,528,548,568,588,608,628,649,668,688,709,729,748,768,789,808,828,848,869,888,908,930,948,968,990,1008,1028,1048,1069,1088,1109,1129,1148,1168,1189,1208,1229,1250,1269,1289,1309,1328,1348,1368,1389,1408,1428,1448,1468,1489,1510,1528,1548,1568,1589,1608,1629,1648,1668,1688,1708,1728,1748,1768,1788,1808,1828,1848,1870,1888,1910],"xSR":741.5,"ySR":573.95,"xT1":424.9,"yT1":0,"xT2":1058.1,"yT2":0,"toosoon":0,"cond_shown":"Incongruent","ratio_trial":100,"L_num":10,"L_den":25,"R_num":9,"R_den":18,"correct_side":2,"subjID":"samuelgonzalezgarcia6","gender":"0","school":"4","age":"9"},{"start_time":1552054327268,"click_time":1552054329127,"finger_time":1552054328607,"fix_duration":1458.6741993274397,"trial":43,"RT":1339,"MT":520,"sideResp":2,"stimulus":[],"xmouse":[789,789,789,789,789,789,789,789,789,789,789,789,789,789,789,789,789,789,789,789,789,789,789,789,789,789,789,789,789,789,789,789,789,789,789,789,789,789,789,789,789,789,789,789,789,789,789,789,789,789,789,789,789,789,789,789,789,789,789,789,790,791,796,804,817,836,854,891,911,926,936,946,995,1013,1023,1028,1029,1029,1029,1028,1028,1028,1028,1028,1028,1029,1030,1035,1040,1044,1048,1051,1059],"ymouse":[625,625,625,625,625,625,625,625,625,625,625,625,625,625,625,625,625,625,625,625,625,625,625,625,625,625,625,625,625,625,625,625,625,625,625,625,625,625,625,625,625,625,625,625,625,625,625,625,625,625,625,625,625,625,625,625,625,625,625,625,623,622,617,610,599,582,563,505,477,451,429,402,264,204,170,147,139,132,128,121,115,112,109,109,109,108,107,101,98,93,89,87,79],"timestamp_mouse":[21,45,59,80,100,121,139,159,179,200,219,239,259,280,300,321,340,360,381,400,420,439,460,481,500,519,539,559,579,599,619,640,660,679,699,720,740,759,779,799,820,840,859,879,900,920,941,959,980,1000,1019,1040,1059,1081,1100,1119,1140,1160,1179,1201,1219,1239,1259,1280,1300,1320,1339,1359,1379,1399,1419,1440,1460,1479,1500,1519,1539,1559,1579,1599,1619,1640,1660,1679,1699,1720,1741,1759,1779,1800,1819,1841,1859],"xSR":741.5,"ySR":573.95,"xT1":424.9,"yT1":0,"xT2":1058.1,"yT2":0,"toosoon":0,"cond_shown":"Incongruent","ratio_trial":300,"L_num":13,"L_den":26,"R_num":12,"R_den":15,"correct_side":2,"subjID":"samuelgonzalezgarcia6","gender":"0","school":"4","age":"9"},{"start_time":1552054331483,"click_time":1552054332908,"finger_time":1552054332327,"fix_duration":1413.9706921765744,"trial":44,"RT":844,"MT":581,"sideResp":1,"stimulus":[],"xmouse":[795,795,795,795,795,795,795,795,795,795,795,795,795,795,795,795,795,795,795,795,795,795,795,795,795,795,795,795,795,795,795,795,795,795,795,795,795,795,795,795,795,792,784,766,746,718,687,621,590,566,558,557,557,559,562,565,566,567,567,567,567,567,558,544,534,523,510,478,470,464,462,459],"ymouse":[626,626,626,626,626,626,626,626,626,626,626,626,626,626,626,626,626,626,626,626,626,626,626,626,626,626,626,626,626,626,626,626,626,626,626,626,626,626,626,623,616,598,561,505,457,392,320,171,113,71,51,48,42,32,22,11,5,3,3,3,3,3,0,0,0,0,0,0,0,0,0,1],"timestamp_mouse":[13,25,44,65,85,105,126,144,164,184,204,224,245,265,285,305,324,345,366,384,405,425,445,465,484,504,525,544,565,585,605,624,644,664,685,705,726,745,764,785,804,826,844,865,884,905,924,944,965,984,1005,1026,1044,1064,1084,1105,1124,1144,1164,1185,1206,1225,1244,1264,1284,1304,1324,1347,1364,1384,1406,1425],"xSR":741.5,"ySR":573.95,"xT1":424.9,"yT1":0,"xT2":1058.1,"yT2":0,"toosoon":0,"cond_shown":"Incongruent","ratio_trial":300,"L_num":4,"L_den":5,"R_num":8,"R_den":16,"correct_side":1,"subjID":"samuelgonzalezgarcia6","gender":"0","school":"4","age":"9"},{"start_time":1552054334986,"click_time":1552054336428,"finger_time":1552054335887,"fix_duration":1237.0669579924352,"trial":45,"RT":901,"MT":541,"sideResp":2,"stimulus":[],"xmouse":[813,813,813,813,813,813,813,813,813,813,813,813,813,813,813,813,813,813,813,813,813,813,813,813,813,813,813,813,813,813,813,813,813,813,813,813,813,813,813,813,813,813,812,819,831,854,907,945,970,982,1007,1015,1028,1033,1036,1038,1041,1042,1042,1042,1042,1042,1042,1042,1042,1042,1042,1045,1048,1051,1052,1053,1059],"ymouse":[619,619,619,619,619,619,619,619,619,619,619,619,619,619,619,619,619,619,619,619,619,619,619,619,619,619,619,619,619,619,619,619,619,619,619,619,619,619,619,619,619,619,619,608,589,549,365,139,50,14,0,0,0,0,0,0,0,0,0,0,0,0,0,0,0,0,0,6,13,20,28,38,69],"timestamp_mouse":[13,24,45,61,82,101,121,142,162,181,201,221,242,261,281,301,321,341,361,381,401,421,443,461,481,502,521,542,561,582,601,622,642,661,682,701,722,743,761,781,802,821,841,861,882,901,922,942,962,982,1001,1022,1043,1061,1082,1101,1122,1141,1161,1182,1201,1222,1242,1261,1282,1302,1322,1341,1362,1381,1402,1422,1442],"xSR":741.5,"ySR":573.95,"xT1":424.9,"yT1":0,"xT2":1058.1,"yT2":0,"toosoon":0,"cond_shown":"Congruent","ratio_trial":200,"L_num":6,"L_den":20,"R_num":11,"R_den":22,"correct_side":2,"subjID":"samuelgonzalezgarcia6","gender":"0","school":"4","age":"9"},{"start_time":1552054339534,"click_time":1552054340869,"finger_time":1552054340588,"fix_duration":903.9478818047559,"trial":46,"RT":1054,"MT":281,"sideResp":1,"stimulus":[],"xmouse":[746,746,746,746,746,746,746,746,746,746,746,746,746,746,746,746,746,746,746,746,746,746,746,746,746,746,746,746,746,746,746,746,746,746,746,746,746,746,746,746,746,746,746,746,746,746,746,746,746,768,821,841,844,844,843,839,828,806,750,660,616,576,554,541,529,523,516],"ymouse":[663,663,663,6