[{"start_time":1552054117828,"click_time":1552054124838,"finger_time":1552054117840,"fix_duration":945.8564972656806,"trial":0,"RT":12,"MT":6998,"sideResp":2,"stimulus":[],"xmouse":[787,787,787,787,787,787,787,787,787,787,787,787,787,787,787,787,787,787,787,787,787,787,785,783,772,770,769,769,769,769,775,783,795,807,818,818,818,818,818,818,818,820,827,829,830,830,830,830,829,828,826,826,825,825,825,824,824,824,824,823,819,815,813,812,775,751,733,726,729,761,769,774,778,792,817,826,833,834,834,834,837,837,837,837,839,839,839,839,839,839,839,839,839,839,839,838,832,823,816,811,811,811,810,808,799,797,796,796,796,796,796,796,796,796,795,795,795,795,795,795,795,795,795,795,796,796,796,796,796,796,796,796,796,796,796,796,796,796,796,796,796,796,796,796,796,796,796,796,796,796,796,796,796,796,796,796,796,796,796,796,796,796,796,796,796,796,796,796,796,796,796,796,796,796,796,796,796,796,796,796,796,796,796,796,796,796,796,796,796,796,796,796,796,796,796,796,796,796,796,796,796,796,796,796,796,796,796,796,796,796,796,796,796,796,796,796,796,796,796,796,796,796,796,796,796,796,796,796,796,796,796,796,796,796,796,796,796,796,796,796,796,796,796,796,796,796,796,796,796,796,796,796,796,796,796,796,796,796,796,796,796,796,796,796,796,796,796,796,796,796,796,796,796,796,796,796,796,796,796,796,809,842,862,883,901,902,903,906,908,911,916,921,925,929,929,937,941,947,956,960,962,962,959,957,956,955,955,943,920,878,743,714,694,668,633,583,571,571,573,578,585,592,597,603,613,690,764,834,887,915,955,962,966,971,976,989,991,992,993,993,1001,1010,1016,1019,1023,1034,1041,1048,1057,1069,1079],"ymouse":[532,532,532,532,532,532,532,532,532,532,532,532,532,532,533,533,533,533,533,533,533,533,533,533,545,555,562,564,564,565,566,566,566,566,566,566,566,566,566,566,566,566,563,560,557,553,548,544,537,530,516,513,511,510,510,510,510,510,510,510,507,503,502,501,529,545,556,563,564,565,565,572,587,614,627,627,625,625,625,625,625,625,625,625,624,619,617,616,616,616,616,616,616,615,615,615,616,619,621,623,623,623,623,625,638,641,643,643,643,643,643,643,643,643,643,643,643,643,643,643,643,643,643,640,631,627,627,627,627,627,627,627,627,627,627,627,627,627,627,627,627,627,627,627,627,627,627,627,627,627,627,627,627,627,627,627,627,627,627,627,627,627,627,627,627,627,627,627,627,627,627,627,627,627,627,627,627,627,627,627,627,627,627,627,627,627,627,627,627,627,627,627,627,627,627,627,627,627,627,627,627,627,627,627,627,627,627,627,627,627,627,627,627,627,627,627,627,627,627,627,627,627,627,627,627,627,627,627,627,627,627,627,627,627,627,627,627,627,627,627,627,627,627,627,627,627,627,627,627,627,627,627,627,627,627,627,627,627,627,627,627,627,627,627,627,627,627,627,627,627,627,627,627,627,627,627,627,627,627,627,604,543,511,474,439,435,431,429,423,417,403,392,384,375,370,351,337,317,297,281,272,272,271,271,271,261,194,99,0,0,0,0,0,11,43,100,127,144,155,161,162,158,152,148,146,159,186,213,226,226,186,177,172,168,163,147,144,141,139,139,133,131,131,130,129,123,120,116,110,100,87],"timestamp_mouse":[11,29,50,71,89,110,130,150,169,190,209,231,251,271,289,309,330,350,370,391,410,430,449,470,490,511,529,550,570,590,609,629,651,671,690,710,730,750,770,790,810,830,850,870,889,910,929,949,970,989,1010,1030,1051,1070,1091,1110,1130,1150,1170,1190,1209,1229,1250,1269,1289,1311,1329,1351,1371,1390,1409,1429,1451,1471,1490,1509,1529,1551,1571,1589,1609,1630,1650,1670,1689,1710,1730,1749,1770,1791,1810,1830,1850,1869,1889,1911,1931,1950,1971,1990,2010,2031,2049,2070,2090,2110,2130,2149,2169,2189,2211,2229,2250,2270,2291,2310,2331,2349,2370,2389,2411,2430,2451,2470,2489,2509,2529,2551,2570,2590,2610,2630,2649,2670,2690,2709,2729,2751,2770,2789,2809,2830,2850,2870,2889,2911,2930,2951,2970,2990,3011,3029,3049,3070,3089,3110,3131,3150,3171,3190,3210,3231,3250,3269,3291,3310,3329,3349,3369,3391,3411,3430,3451,3470,3491,3510,3530,3550,3569,3591,3610,3630,3649,3670,3691,3710,3731,3749,3770,3790,3809,3829,3851,3869,3890,3911,3929,3949,3970,3989,4010,4031,4050,4070,4089,4110,4131,4150,4171,4190,4211,4231,4249,4271,4289,4309,4330,4349,4369,4391,4411,4430,4450,4471,4490,4510,4529,4549,4570,4591,4610,4629,4651,4669,4689,4710,4730,4749,4770,4791,4810,4830,4850,4870,4889,4910,4931,4949,4969,4989,5010,5030,5049,5071,5090,5110,5130,5151,5169,5189,5210,5229,5250,5270,5289,5309,5330,5350,5370,5390,5410,5429,5451,5470,5490,5509,5530,5550,5569,5589,5611,5630,5649,5671,5691,5710,5730,5751,5771,5790,5809,5831,5849,5869,5889,5910,5930,5950,5970,5991,6011,6030,6049,6071,6090,6111,6130,6150,6171,6190,6211,6231,6250,6270,6290,6310,6331,6350,6371,6390,6409,6430,6450,6470,6491,6511,6531,6549,6570,6590,6609,6629,6650,6670,6689,6709,6731,6750,6770,6790,6810,6831,6849,6871,6889,6909,6929,6950,6969,6991,7010],"xSR":741.5,"ySR":501.8,"xT1":424.9,"yT1":0,"xT2":1058.1,"yT2":0,"toosoon":0,"cond_shown":"Congruent","ratio_trial":200,"L_num":14,"L_den":28,"R_num":6,"R_den":20,"correct_side":1,"subjID":"samuelmolina9","gender":"0","age":"9","school":"4","test":{"fix_dur":[250,1500],"timestim":1000,"targets_dim":[100,100],"targets_relative_coord":[0.3,0.7],"size_stim":[880,420],"start_dim":[100,100],"size_start":[300,300],"size_fix":60,"samplingrate":20,"img_types":["Congruent","Incongruent"],"ratios":[100,200,300],"rep_conds":19,"nTrials":120,"trials_to_rest":500,"Trials_order":[32,52,107,109,11,113,48,70,71,33,111,99,12,38,35,25,9,102,81,115,51,37,15,47,50,77,4,18,8,93,103,14,41,36,20,6,31,19,85,55,72,96,1,108,90,44,13,118,53,83,22,94,116,24,57,42,43,45,40,64,92,117,80,112,5,87,89,66,16,61,58,76,119,100,60,30,114,97,73,75,54,49,39,104,63,62,46,0,78,98,74,7,27,86,67,21,65,26,110,23,69,56,88,106,105,91,17,59,29,82,68,3,10,101,2,28,95,34,79,84],"cond_shown":["Congruent","Congruent","Incongruent","Incongruent","Incongruent","Incongruent","Congruent","Congruent","Incongruent","Incongruent","Incongruent","Incongruent","Congruent","Congruent","Incongruent","Incongruent","Incongruent","Congruent","Incongruent","Incongruent","Incongruent","Incongruent","Incongruent","Incongruent","Congruent","Incongruent","Congruent","Congruent","Congruent","Incongruent","Incongruent","Congruent","Incongruent","Congruent","Congruent","Congruent","Incongruent","Incongruent","Incongruent","Incongruent","Congruent","Congruent","Incongruent","Congruent","Congruent","Congruent","Incongruent","Congruent","Incongruent","Incongruent","Congruent","Congruent","Congruent","Congruent","Incongruent","Congruent","Incongruent","Incongruent","Congruent","Congruent","Congruent","Incongruent","Congruent","Congruent","Incongruent","Incongruent","Incongruent","Congruent","Congruent","Incongruent","Congruent","Congruent","Incongruent","Congruent","Congruent","Congruent","Congruent","Incongruent","Incongruent","Incongruent","Congruent","Incongruent","Incongruent","Congruent","Incongruent","Congruent","Congruent","Congruent","Congruent","Congruent","Congruent","Incongruent","Incongruent","Congruent","Incongruent","Incongruent","Incongruent","Congruent","Congruent","Incongruent","Incongruent","Congruent","Congruent","Congruent","Incongruent","Incongruent","Incongruent","Incongruent","Incongruent","Congruent","Congruent","Incongruent","Congruent","Incongruent","Congruent","Congruent","Incongruent","Congruent","Incongruent","Congruent"],"ratio_trial":[200,300,300,100,300,300,100,300,300,200,200,200,100,200,300,100,200,100,200,100,200,100,200,300,200,300,300,100,200,200,100,200,300,100,200,100,100,100,100,100,100,100,100,100,100,200,100,300,300,300,300,300,200,100,200,100,100,200,300,300,200,200,200,300,300,200,300,100,300,100,300,300,300,300,100,100,100,100,100,200,100,100,200,200,200,200,300,100,100,200,200,100,200,200,100,200,300,200,200,300,200,200,300,300,200,100,300,300,300,300,200,200,300,300,200,300,300,300,100,100],"left_num":[14,2,4,9,4,4,1,20,4,3,7,11,3,14,13,13,4,3,7,6,9,8,11,4,12,13,1,15,3,7,3,5,13,3,21,10,1,3,3,1,6,3,9,6,3,3,2,8,1,13,24,2,13,6,7,15,10,7,5,11,9,4,7,4,13,14,1,3,11,8,8,24,3,1,11,15,3,3,12,7,10,8,1,3,7,3,2,10,7,7,5,2,14,16,11,3,4,21,21,7,3,9,1,5,4,9,4,3,4,5,3,9,7,2,1,3,1,9,12,6],"right_num":[6,12,2,20,2,2,3,13,2,1,4,3,4,6,12,6,1,2,4,11,8,6,3,2,6,12,3,13,14,8,11,14,12,4,2,3,8,11,11,8,5,2,13,5,2,14,6,1,3,12,8,10,14,5,6,13,8,4,6,1,13,6,18,13,12,6,2,4,2,1,1,8,4,3,4,13,4,4,9,6,3,1,2,9,4,9,10,3,9,18,14,6,12,12,9,11,2,2,2,8,11,13,8,6,14,13,2,4,2,7,9,8,20,6,21,11,2,3,2,15],"left_den":[28,10,20,10,20,20,2,25,20,10,15,20,20,28,26,26,30,6,15,10,15,16,20,20,15,26,5,25,6,10,5,10,26,20,30,25,2,5,5,2,20,6,15,20,6,10,4,16,2,26,30,20,26,20,15,25,25,15,25,22,30,5,15,20,26,30,2,20,22,20,16,30,6,5,22,25,20,6,24,15,25,20,3,12,15,12,20,25,14,15,10,4,30,20,22,4,20,30,30,10,4,30,30,25,6,15,20,6,20,25,12,15,14,4,2,12,2,10,30,12],"right_den":[20,24,4,25,4,4,5,26,4,2,6,4,16,20,15,10,3,5,6,22,10,10,4,4,10,15,6,26,20,16,22,20,15,16,4,10,20,22,22,20,25,5,26,25,5,28,15,5,15,15,16,25,20,25,9,26,16,6,12,5,26,10,27,26,15,9,10,16,10,2,5,16,20,6,10,26,16,10,15,9,10,2,15,20,6,20,25,10,15,27,20,15,18,20,15,20,4,4,4,20,20,26,24,12,30,26,4,20,4,14,20,10,25,30,30,20,10,5,4,25],"correct_side":[1,2,2,1,2,2,2,1,2,2,2,2,2,1,2,2,2,1,2,1,2,2,2,2,1,2,2,1,2,1,1,2,2,2,1,1,1,1,1,1,1,1,1,1,1,2,1,1,1,2,1,2,2,1,2,1,2,2,2,1,2,1,2,2,2,2,1,2,1,2,1,1,1,2,1,1,2,1,2,2,1,2,1,2,2,2,2,1,2,2,2,1,2,1,2,1,2,1,1,1,1,2,2,2,1,1,2,1,2,2,2,2,2,1,2,2,1,1,2,2],"img_shown":["img2/200/Congruent/L/C_Dist_200_LN_14_LD_28_RN_6_RD_20_0.png","img2/300/Congruent/R/C_Dist_300_LN_2_LD_10_RN_12_RD_24_1.png","img2/300/Incongruent/R/I_Dist_300_LN_4_LD_20_RN_2_RD_4_1.png","img2/100/Incongruent/L/I_Dist_100_LN_9_LD_10_RN_20_RD_25_0.png","img2/300/Incongruent/R/I_Dist_300_LN_4_LD_20_RN_2_RD_4_1.png","img2/300/Incongruent/R/I_Dist_300_LN_4_LD_20_RN_2_RD_4_1.png","img2/100/Congruent/R/C_Dist_100_LN_1_LD_2_RN_3_RD_5_1.png","img2/300/Congruent/L/C_Dist_300_LN_20_LD_25_RN_13_RD_26_0.png","img2/300/Incongruent/R/I_Dist_300_LN_4_LD_20_RN_2_RD_4_1.png","img2/200/Incongruent/R/I_Dist_200_LN_3_LD_10_RN_1_RD_2_1.png","img2/200/Incongruent/R/I_Dist_200_LN_7_LD_15_RN_4_RD_6_1.png","img2/200/Incongruent/R/I_Dist_200_LN_11_LD_20_RN_3_RD_4_1.png","img2/100/Congruent/R/C_Dist_100_LN_3_LD_20_RN_4_RD_16_1.png","img2/200/Congruent/L/C_Dist_200_LN_14_LD_28_RN_6_RD_20_0.png","img2/300/Incongruent/R/I_Dist_300_LN_13_LD_26_RN_12_RD_15_1.png","img2/100/Incongruent/R/I_Dist_100_LN_13_LD_26_RN_6_RD_10_1.png","img2/200/Incongruent/R/I_Dist_200_LN_4_LD_30_RN_1_RD_3_1.png","img2/100/Congruent/L/C_Dist_100_LN_3_LD_6_RN_2_RD_5_0.png","img2/200/Incongruent/R/I_Dist_200_LN_7_LD_15_RN_4_RD_6_1.png","img2/100/Incongruent/L/I_Dist_100_LN_6_LD_10_RN_11_RD_22_0.png","img2/200/Incongruent/R/I_Dist_200_LN_9_LD_15_RN_8_RD_10_1.png","img2/100/Incongruent/R/I_Dist_100_LN_8_LD_16_RN_6_RD_10_1.png","img2/200/Incongruent/R/I_Dist_200_LN_11_LD_20_RN_3_RD_4_1.png","img2/300/Incongruent/R/I_Dist_300_LN_4_LD_20_RN_2_RD_4_1.png","img2/200/Congruent/L/C_Dist_200_LN_12_LD_15_RN_6_RD_10_0.png","img2/300/Incongruent/R/I_Dist_300_LN_13_LD_26_RN_12_RD_15_1.png","img2/300/Congruent/R/C_Dist_300_LN_1_LD_5_RN_3_RD_6_1.png","img2/100/Congruent/L/C_Dist_100_LN_15_LD_25_RN_13_RD_26_0.png","img2/200/Congruent/R/C_Dist_200_LN_3_LD_6_RN_14_RD_20_1.png","img2/200/Incongruent/L/I_Dist_200_LN_7_LD_10_RN_8_RD_16_0.png","img2/100/Incongruent/L/I_Dist_100_LN_3_LD_5_RN_11_RD_22_0.png","img2/200/Congruent/R/C_Dist_200_LN_5_LD_10_RN_14_RD_20_1.png","img2/300/Incongruent/R/I_Dist_300_LN_13_LD_26_RN_12_RD_15_1.png","img2/100/Congruent/R/C_Dist_100_LN_3_LD_20_RN_4_RD_16_1.png","img2/200/Congruent/L/C_Dist_200_LN_21_LD_30_RN_2_RD_4_0.png","img2/100/Congruent/L/C_Dist_100_LN_10_LD_25_RN_3_RD_10_0.png","img2/100/Incongruent/L/I_Dist_100_LN_1_LD_2_RN_8_RD_20_0.png","img2/100/Incongruent/L/I_Dist_100_LN_3_LD_5_RN_11_RD_22_0.png","img2/100/Incongruent/L/I_Dist_100_LN_3_LD_5_RN_11_RD_22_0.png","img2/100/Incongruent/L/I_Dist_100_LN_1_LD_2_RN_8_RD_20_0.png","img2/100/Congruent/L/C_Dist_100_LN_6_LD_20_RN_5_RD_25_0.png","img2/100/Congruent/L/C_Dist_100_LN_3_LD_6_RN_2_RD_5_0.png","img2/100/Incongruent/L/I_Dist_100_LN_9_LD_15_RN_13_RD_26_0.png","img2/100/Congruent/L/C_Dist_100_LN_6_LD_20_RN_5_RD_25_0.png","img2/100/Congruent/L/C_Dist_100_LN_3_LD_6_RN_2_RD_5_0.png","img2/200/Congruent/R/C_Dist_200_LN_3_LD_10_RN_14_RD_28_1.png","img2/100/Incongruent/L/I_Dist_100_LN_2_LD_4_RN_6_RD_15_0.png","img2/300/Congruent/L/C_Dist_300_LN_8_LD_16_RN_1_RD_5_0.png","img2/300/Incongruent/L/I_Dist_300_LN_1_LD_2_RN_3_RD_15_0.png","img2/300/Incongruent/R/I_Dist_300_LN_13_LD_26_RN_12_RD_15_1.png","img2/300/Congruent/L/C_Dist_300_LN_24_LD_30_RN_8_RD_16_0.png","img2/300/Congruent/R/C_Dist_300_LN_2_LD_20_RN_10_RD_25_1.png","img2/200/Congruent/R/C_Dist_200_LN_13_LD_26_RN_14_RD_20_1.png","img2/100/Congruent/L/C_Dist_100_LN_6_LD_20_RN_5_RD_25_0.png","img2/200/Incongruent/R/I_Dist_200_LN_7_LD_15_RN_6_RD_9_1.png","img2/100/Congruent/L/C_Dist_100_LN_15_LD_25_RN_13_RD_26_0.png","img2/100/Incongruent/R/I_Dist_100_LN_10_LD_25_RN_8_RD_16_1.png","img2/200/Incongruent/R/I_Dist_200_LN_7_LD_15_RN_4_RD_6_1.png","img2/300/Congruent/R/C_Dist_300_LN_5_LD_25_RN_6_RD_12_1.png","img2/300/Congruent/L/C_Dist_300_LN_11_LD_22_RN_1_RD_5_0.png","img2/200/Congruent/R/C_Dist_200_LN_9_LD_30_RN_13_RD_26_1.png","img2/200/Incongruent/L/I_Dist_200_LN_4_LD_5_RN_6_RD_10_0.png","img2/200/Congruent/R/C_Dist_200_LN_7_LD_15_RN_18_RD_27_1.png","img2/300/Congruent/R/C_Dist_300_LN_4_LD_20_RN_13_RD_26_1.png","img2/300/Incongruent/R/I_Dist_300_LN_13_LD_26_RN_12_RD_15_1.png","img2/200/Incongruent/R/I_Dist_200_LN_14_LD_30_RN_6_RD_9_1.png","img2/300/Incongruent/L/I_Dist_300_LN_1_LD_2_RN_2_RD_10_0.png","img2/100/Congruent/R/C_Dist_100_LN_3_LD_20_RN_4_RD_16_1.png","img2/300/Congruent/L/C_Dist_300_LN_11_LD_22_RN_2_RD_10_0.png","img2/100/Incongruent/R/I_Dist_100_LN_8_LD_20_RN_1_RD_2_1.png","img2/300/Congruent/L/C_Dist_300_LN_8_LD_16_RN_1_RD_5_0.png","img2/300/Congruent/L/C_Dist_300_LN_24_LD_30_RN_8_RD_16_0.png","img2/300/Incongruent/L/I_Dist_300_LN_3_LD_6_RN_4_RD_20_0.png","img2/300/Congruent/R/C_Dist_300_LN_1_LD_5_RN_3_RD_6_1.png","img2/100/Congruent/L/C_Dist_100_LN_11_LD_22_RN_4_RD_10_0.png","img2/100/Congruent/L/C_Dist_100_LN_15_LD_25_RN_13_RD_26_0.png","img2/100/Congruent/R/C_Dist_100_LN_3_LD_20_RN_4_RD_16_1.png","img2/100/Incongruent/L/I_Dist_100_LN_3_LD_6_RN_4_RD_10_0.png","img2/100/Incongruent/R/I_Dist_100_LN_12_LD_24_RN_9_RD_15_1.png","img2/200/Incongruent/R/I_Dist_200_LN_7_LD_15_RN_6_RD_9_1.png","img2/100/Congruent/L/C_Dist_100_LN_10_LD_25_RN_3_RD_10_0.png","img2/100/Incongruent/R/I_Dist_100_LN_8_LD_20_RN_1_RD_2_1.png","img2/200/Incongruent/L/I_Dist_200_LN_1_LD_3_RN_2_RD_15_0.png","img2/200/Congruent/R/C_Dist_200_LN_3_LD_12_RN_9_RD_20_1.png","img2/200/Incongruent/R/I_Dist_200_LN_7_LD_15_RN_4_RD_6_1.png","img2/200/Congruent/R/C_Dist_200_LN_3_LD_12_RN_9_RD_20_1.png","img2/300/Congruent/R/C_Dist_300_LN_2_LD_20_RN_10_RD_25_1.png","img2/100/Congruent/L/C_Dist_100_LN_10_LD_25_RN_3_RD_10_0.png","img2/100/Congruent/R/C_Dist_100_LN_7_LD_14_RN_9_RD_15_1.png","img2/200/Congruent/R/C_Dist_200_LN_7_LD_15_RN_18_RD_27_1.png","img2/200/Congruent/R/C_Dist_200_LN_5_LD_10_RN_14_RD_20_1.png","img2/100/Incongruent/L/I_Dist_100_LN_2_LD_4_RN_6_RD_15_0.png","img2/200/Incongruent/R/I_Dist_200_LN_14_LD_30_RN_12_RD_18_1.png","img2/200/Congruent/L/C_Dist_200_LN_16_LD_20_RN_12_RD_20_0.png","img2/100/Incongruent/R/I_Dist_100_LN_11_LD_22_RN_9_RD_15_1.png","img2/200/Incongruent/L/I_Dist_200_LN_3_LD_4_RN_11_RD_20_0.png","img2/300/Incongruent/R/I_Dist_300_LN_4_LD_20_RN_2_RD_4_1.png","img2/200/Congruent/L/C_Dist_200_LN_21_LD_30_RN_2_RD_4_0.png","img2/200/Congruent/L/C_Dist_200_LN_21_LD_30_RN_2_RD_4_0.png","img2/300/Incongruent/L/I_Dist_300_LN_7_LD_10_RN_8_RD_20_0.png","img2/200/Incongruent/L/I_Dist_200_LN_3_LD_4_RN_11_RD_20_0.png","img2/200/Congruent/R/C_Dist_200_LN_9_LD_30_RN_13_RD_26_1.png","img2/300/Congruent/R/C_Dist_300_LN_1_LD_30_RN_8_RD_24_1.png","img2/300/Congruent/R/C_Dist_300_LN_5_LD_25_RN_6_RD_12_1.png","img2/200/Incongruent/L/I_Dist_200_LN_4_LD_6_RN_14_RD_30_0.png","img2/100/Incongruent/L/I_Dist_100_LN_9_LD_15_RN_13_RD_26_0.png","img2/300/Incongruent/R/I_Dist_300_LN_4_LD_20_RN_2_RD_4_1.png","img2/300/Incongruent/L/I_Dist_300_LN_3_LD_6_RN_4_RD_20_0.png","img2/300/Incongruent/R/I_Dist_300_LN_4_LD_20_RN_2_RD_4_1.png","img2/300/Congruent/R/C_Dist_300_LN_5_LD_25_RN_7_RD_14_1.png","img2/200/Congruent/R/C_Dist_200_LN_3_LD_12_RN_9_RD_20_1.png","img2/200/Incongruent/R/I_Dist_200_LN_9_LD_15_RN_8_RD_10_1.png","img2/300/Congruent/R/C_Dist_300_LN_7_LD_14_RN_20_RD_25_1.png","img2/300/Incongruent/L/I_Dist_300_LN_2_LD_4_RN_6_RD_30_0.png","img2/200/Congruent/R/C_Dist_200_LN_1_LD_2_RN_21_RD_30_1.png","img2/300/Congruent/R/C_Dist_300_LN_3_LD_12_RN_11_RD_20_1.png","img2/300/Incongruent/L/I_Dist_300_LN_1_LD_2_RN_2_RD_10_0.png","img2/300/Congruent/L/C_Dist_300_LN_9_LD_10_RN_3_RD_5_0.png","img2/100/Incongruent/R/I_Dist_100_LN_12_LD_30_RN_2_RD_4_1.png","img2/100/Congruent/R/C_Dist_100_LN_6_LD_12_RN_15_RD_25_1.png"],"dist100_C":[["C_Dist_100_LN_10_LD_25_RN_3_RD_10_0.png","C_Dist_100_LN_11_LD_22_RN_4_RD_10_0.png","C_Dist_100_LN_11_LD_22_RN_6_RD_15_0.png","C_Dist_100_LN_15_LD_25_RN_13_RD_26_0.png","C_Dist_100_LN_3_LD_6_RN_2_RD_5_0.png","C_Dist_100_LN_6_LD_20_RN_5_RD_25_0.png","C_Dist_100_LN_8_LD_16_RN_2_RD_5_0.png","C_Dist_100_LN_9_LD_15_RN_8_RD_16_0.png"],["C_Dist_100_LN_1_LD_2_RN_18_RD_30_1.png","C_Dist_100_LN_1_LD_2_RN_3_RD_5_1.png","C_Dist_100_LN_12_LD_30_RN_13_RD_26_1.png","C_Dist_100_LN_2_LD_5_RN_11_RD_22_1.png","C_Dist_100_LN_2_LD_5_RN_6_RD_12_1.png","C_Dist_100_LN_3_LD_20_RN_4_RD_16_1.png","C_Dist_100_LN_4_LD_10_RN_15_RD_30_1.png","C_Dist_100_LN_4_LD_8_RN_6_RD_10_1.png","C_Dist_100_LN_6_LD_12_RN_15_RD_25_1.png","C_Dist_100_LN_7_LD_14_RN_15_RD_25_1.png","C_Dist_100_LN_7_LD_14_RN_9_RD_15_1.png"]],"dist100_I":[["I_Dist_100_LN_1_LD_2_RN_8_RD_20_0.png","I_Dist_100_LN_2_LD_4_RN_6_RD_15_0.png","I_Dist_100_LN_2_LD_4_RN_8_RD_20_0.png","I_Dist_100_LN_3_LD_5_RN_11_RD_22_0.png","I_Dist_100_LN_3_LD_5_RN_8_RD_16_0.png","I_Dist_100_LN_3_LD_6_RN_4_RD_10_0.png","I_Dist_100_LN_3_LD_9_RN_7_RD_30_0.png","I_Dist_100_LN_4_LD_8_RN_8_RD_20_0.png","I_Dist_100_LN_6_LD_10_RN_11_RD_22_0.png","I_Dist_100_LN_6_LD_10_RN_13_RD_26_0.png","I_Dist_100_LN_6_LD_10_RN_7_RD_14_0.png","I_Dist_100_LN_9_LD_10_RN_20_RD_25_0.png","I_Dist_100_LN_9_LD_15_RN_13_RD_26_0.png","I_Dist_100_LN_9_LD_15_RN_14_RD_28_0.png"],["I_Dist_100_LN_10_LD_25_RN_8_RD_16_1.png","I_Dist_100_LN_10_LD_25_RN_9_RD_18_1.png","I_Dist_100_LN_11_LD_22_RN_9_RD_15_1.png","I_Dist_100_LN_12_LD_24_RN_9_RD_15_1.png","I_Dist_100_LN_12_LD_30_RN_2_RD_4_1.png","I_Dist_100_LN_13_LD_26_RN_12_RD_20_1.png","I_Dist_100_LN_13_LD_26_RN_6_RD_10_1.png","I_Dist_100_LN_17_LD_30_RN_10_RD_15_1.png","I_Dist_100_LN_6_LD_12_RN_3_RD_5_1.png","I_Dist_100_LN_8_LD_16_RN_6_RD_10_1.png","I_Dist_100_LN_8_LD_20_RN_1_RD_2_1.png","I_Dist_100_LN_9_LD_18_RN_6_RD_10_1.png"]],"dist100_S":[["E_Dist_100_LN_2_LD_12_RN_2_RD_30_0.png","E_Dist_100_LN_6_LD_10_RN_6_RD_12_0.png"],["E_Dist_100_LN_6_LD_12_RN_6_RD_10_1.png"]],"dist200_C":[["C_Dist_200_LN_11_LD_22_RN_3_RD_10_0.png","C_Dist_200_LN_12_LD_15_RN_6_RD_10_0.png","C_Dist_200_LN_12_LD_20_RN_6_RD_15_0.png","C_Dist_200_LN_14_LD_28_RN_6_RD_20_0.png","C_Dist_200_LN_15_LD_25_RN_4_RD_10_0.png","C_Dist_200_LN_16_LD_20_RN_12_RD_20_0.png","C_Dist_200_LN_16_LD_30_RN_9_RD_27_0.png","C_Dist_200_LN_20_LD_25_RN_9_RD_15_0.png","C_Dist_200_LN_21_LD_30_RN_2_RD_4_0.png","C_Dist_200_LN_4_LD_10_RN_3_RD_15_0.png","C_Dist_200_LN_4_LD_8_RN_3_RD_10_0.png","C_Dist_200_LN_6_LD_15_RN_3_RD_15_0.png","C_Dist_200_LN_7_LD_21_RN_2_RD_15_0.png","C_Dist_200_LN_8_LD_15_RN_2_RD_6_0.png","C_Dist_200_LN_8_LD_15_RN_3_RD_9_0.png","C_Dist_200_LN_8_LD_15_RN_7_RD_21_0.png","C_Dist_200_LN_9_LD_20_RN_4_RD_16_0.png"],["C_Dist_200_LN_1_LD_2_RN_21_RD_30_1.png","C_Dist_200_LN_13_LD_26_RN_14_RD_20_1.png","C_Dist_200_LN_3_LD_10_RN_11_RD_22_1.png","C_Dist_200_LN_3_LD_10_RN_14_RD_28_1.png","C_Dist_200_LN_3_LD_10_RN_7_RD_14_1.png","C_Dist_200_LN_3_LD_12_RN_9_RD_20_1.png","C_Dist_200_LN_3_LD_6_RN_14_RD_20_1.png","C_Dist_200_LN_5_LD_10_RN_14_RD_20_1.png","C_Dist_200_LN_6_LD_12_RN_7_RD_10_1.png","C_Dist_200_LN_6_LD_20_RN_11_RD_22_1.png","C_Dist_200_LN_7_LD_15_RN_18_RD_27_1.png","C_Dist_200_LN_9_LD_30_RN_13_RD_26_1.png"]],"dist200_I":[["I_Dist_200_LN_1_LD_2_RN_3_RD_10_0.png","I_Dist_200_LN_1_LD_3_RN_2_RD_15_0.png","I_Dist_200_LN_3_LD_4_RN_11_RD_20_0.png","I_Dist_200_LN_4_LD_5_RN_6_RD_10_0.png","I_Dist_200_LN_4_LD_6_RN_14_RD_30_0.png","I_Dist_200_LN_7_LD_10_RN_12_RD_24_0.png","I_Dist_200_LN_7_LD_10_RN_14_RD_28_0.png","I_Dist_200_LN_7_LD_10_RN_8_RD_16_0.png"],["I_Dist_200_LN_11_LD_20_RN_3_RD_4_1.png","I_Dist_200_LN_14_LD_30_RN_12_RD_18_1.png","I_Dist_200_LN_14_LD_30_RN_6_RD_9_1.png","I_Dist_200_LN_3_LD_10_RN_1_RD_2_1.png","I_Dist_200_LN_4_LD_30_RN_1_RD_3_1.png","I_Dist_200_LN_6_LD_20_RN_3_RD_6_1.png","I_Dist_200_LN_7_LD_15_RN_4_RD_6_1.png","I_Dist_200_LN_7_LD_15_RN_6_RD_9_1.png","I_Dist_200_LN_9_LD_15_RN_8_RD_10_1.png"]],"dist200_S":[["E_Dist_200_LN_3_LD_6_RN_3_RD_10_0.png"],["E_Dist_200_LN_3_LD_10_RN_3_RD_6_1.png"]],"dist300_C":[["C_Dist_300_LN_11_LD_22_RN_1_RD_5_0.png","C_Dist_300_LN_11_LD_22_RN_2_RD_10_0.png","C_Dist_300_LN_11_LD_22_RN_4_RD_20_0.png","C_Dist_300_LN_12_LD_24_RN_2_RD_10_0.png","C_Dist_300_LN_18_LD_20_RN_9_RD_15_0.png","C_Dist_300_LN_20_LD_25_RN_13_RD_26_0.png","C_Dist_300_LN_20_LD_25_RN_14_RD_28_0.png","C_Dist_300_LN_20_LD_25_RN_5_RD_10_0.png","C_Dist_300_LN_20_LD_25_RN_8_RD_16_0.png","C_Dist_300_LN_20_LD_25_RN_9_RD_18_0.png","C_Dist_300_LN_24_LD_30_RN_2_RD_4_0.png","C_Dist_300_LN_24_LD_30_RN_8_RD_16_0.png","C_Dist_300_LN_3_LD_6_RN_2_RD_10_0.png","C_Dist_300_LN_4_LD_10_RN_1_RD_10_0.png","C_Dist_300_LN_4_LD_5_RN_2_RD_4_0.png","C_Dist_300_LN_8_LD_16_RN_1_RD_5_0.png","C_Dist_300_LN_9_LD_10_RN_3_RD_5_0.png"],["C_Dist_300_LN_1_LD_20_RN_7_RD_20_1.png","C_Dist_300_LN_1_LD_3_RN_19_RD_30_1.png","C_Dist_300_LN_1_LD_30_RN_8_RD_24_1.png","C_Dist_300_LN_1_LD_5_RN_11_RD_22_1.png","C_Dist_300_LN_1_LD_5_RN_3_RD_6_1.png","C_Dist_300_LN_1_LD_5_RN_6_RD_12_1.png","C_Dist_300_LN_2_LD_10_RN_12_RD_24_1.png","C_Dist_300_LN_2_LD_20_RN_10_RD_25_1.png","C_Dist_300_LN_3_LD_12_RN_11_RD_20_1.png","C_Dist_300_LN_3_LD_6_RN_4_RD_5_1.png","C_Dist_300_LN_4_LD_20_RN_13_RD_26_1.png","C_Dist_300_LN_5_LD_25_RN_6_RD_12_1.png","C_Dist_300_LN_5_LD_25_RN_7_RD_14_1.png","C_Dist_300_LN_7_LD_14_RN_20_RD_25_1.png","C_Dist_300_LN_8_LD_15_RN_10_RD_12_1.png"]],"dist300_I":[["I_Dist_300_LN_1_LD_2_RN_2_RD_10_0.png","I_Dist_300_LN_1_LD_2_RN_3_RD_15_0.png","I_Dist_300_LN_2_LD_4_RN_6_RD_30_0.png","I_Dist_300_LN_3_LD_6_RN_4_RD_20_0.png","I_Dist_300_LN_4_LD_5_RN_6_RD_12_0.png","I_Dist_300_LN_4_LD_5_RN_8_RD_16_0.png","I_Dist_300_LN_7_LD_10_RN_8_RD_20_0.png","I_Dist_300_LN_8_LD_10_RN_14_RD_28_0.png","I_Dist_300_LN_8_LD_10_RN_9_RD_18_0.png"],["I_Dist_300_LN_13_LD_26_RN_12_RD_15_1.png","I_Dist_300_LN_4_LD_20_RN_2_RD_4_1.png"]],"dist300_S":[["E_Dist_300_LN_9_LD_12_RN_9_RD_20_0.png"],["E_Dist_300_LN_18_LD_30_RN_18_RD_20_1.png","E_Dist_300_LN_3_LD_10_RN_3_RD_5_1.png","E_Dist_300_LN_9_LD_20_RN_9_RD_12_1.png"]],"dist500_C":[["C_Dist_500_LN_10_LD_13_RN_7_RD_26_0.png","C_Dist_500_LN_10_LD_15_RN_4_RD_24_0.png","C_Dist_500_LN_12_LD_16_RN_3_RD_12_0.png","C_Dist_500_LN_12_LD_18_RN_4_RD_24_0.png","C_Dist_500_LN_15_LD_18_RN_5_RD_15_0.png","C_Dist_500_LN_15_LD_20_RN_1_RD_4_0.png","C_Dist_500_LN_18_LD_27_RN_1_RD_6_0.png","C_Dist_500_LN_20_LD_24_RN_1_RD_3_0.png","C_Dist_500_LN_20_LD_24_RN_3_RD_9_0.png","C_Dist_500_LN_20_LD_24_RN_7_RD_21_0.png","C_Dist_500_LN_20_LD_28_RN_3_RD_14_0.png","C_Dist_500_LN_21_LD_28_RN_6_RD_24_0.png","C_Dist_500_LN_22_LD_28_RN_2_RD_7_0.png","C_Dist_500_LN_25_LD_30_RN_9_RD_27_0.png","C_Dist_500_LN_4_LD_6_RN_1_RD_6_0.png","C_Dist_500_LN_5_LD_6_RN_2_RD_6_0.png","C_Dist_500_LN_6_LD_9_RN_1_RD_6_0.png","C_Dist_500_LN_7_LD_10_RN_1_RD_5_0.png","C_Dist_500_LN_8_LD_12_RN_1_RD_6_0.png","C_Dist_500_LN_8_LD_12_RN_4_RD_24_0.png"],["C_Dist_500_LN_1_LD_4_RN_12_RD_16_1.png","C_Dist_500_LN_1_LD_4_RN_9_RD_12_1.png","C_Dist_500_LN_1_LD_9_RN_11_RD_18_1.png","C_Dist_500_LN_10_LD_24_RN_22_RD_24_1.png","C_Dist_500_LN_2_LD_12_RN_10_RD_15_1.png","C_Dist_500_LN_2_LD_12_RN_12_RD_18_1.png","C_Dist_500_LN_2_LD_12_RN_4_RD_6_1.png","C_Dist_500_LN_2_LD_24_RN_7_RD_12_1.png","C_Dist_500_LN_2_LD_5_RN_18_RD_20_1.png","C_Dist_500_LN_2_LD_5_RN_9_RD_10_1.png","C_Dist_500_LN_2_LD_8_RN_12_RD_16_1.png","C_Dist_500_LN_2_LD_8_RN_21_RD_28_1.png","C_Dist_500_LN_3_LD_10_RN_4_RD_5_1.png","C_Dist_500_LN_3_LD_12_RN_15_RD_20_1.png","C_Dist_500_LN_3_LD_30_RN_6_RD_10_1.png","C_Dist_500_LN_3_LD_8_RN_14_RD_16_1.png","C_Dist_500_LN_4_LD_16_RN_15_RD_20_1.png","C_Dist_500_LN_4_LD_24_RN_12_RD_18_1.png","C_Dist_500_LN_5_LD_14_RN_6_RD_7_1.png","C_Dist_500_LN_7_LD_21_RN_20_RD_24_1.png","C_Dist_500_LN_7_LD_28_RN_12_RD_16_1.png","C_Dist_500_LN_7_LD_28_RN_9_RD_12_1.png","C_Dist_500_LN_9_LD_27_RN_20_RD_24_1.png"]],"dist500_I":[["I_Dist_500_LN_2_LD_3_RN_4_RD_24_0.png","I_Dist_500_LN_5_LD_6_RN_6_RD_18_0.png","I_Dist_500_LN_7_LD_8_RN_9_RD_24_0.png"],["I_Dist_500_LN_7_LD_21_RN_5_RD_6_1.png"]],"dist500_S":[["E_Dist_500_LN_6_LD_8_RN_6_RD_24_0.png"],["E_Dist_500_LN_2_LD_12_RN_2_RD_3_1.png","E_Dist_500_LN_6_LD_24_RN_6_RD_8_1.png"]]}},{"start_time":1552054126252,"click_time":1552054127618,"finger_time":1552054127037,"fix_duration":250,"trial":1,"RT":785,"MT":581,"sideResp":1,"stimulus":[],"xmouse":[811,811,811,811,811,811,811,811,811,811,811,811,811,811,811,811,811,811,811,811,811,811,811,811,811,811,811,811,811,811,811,811,811,811,811,811,810,806,744,695,650,616,596,573,570,569,568,566,564,563,563,563,563,560,555,548,544,541,540,540,540,540,540,540,540,538,531,512],"ymouse":[603,603,603,603,603,603,603,603,603,603,603,603,603,603,603,603,603,603,603,603,603,603,603,603,603,603,603,603,603,603,603,603,603,603,603,603,602,586,456,371,291,227,188,147,142,138,133,127,121,121,120,120,120,116,109,101,96,92,91,91,91,91,91,91,91,90,87,81],"timestamp_mouse":[14,45,65,85,107,126,146,167,185,206,225,246,266,287,305,327,347,366,386,405,426,445,466,487,507,527,546,566,586,606,627,647,666,685,707,725,745,766,785,805,825,847,866,885,906,926,945,967,985,1005,1026,1047,1066,1086,1106,1125,1147,1167,1185,1206,1225,1246,1265,1287,1306,1326,1347,1366],"xSR":741.5,"ySR":573.95,"xT1":424.9,"yT1":0,"xT2":1058.1,"yT2":0,"toosoon":0,"cond_shown":"Congruent","ratio_trial":300,"L_num":2,"L_den":10,"R_num":12,"R_den":24,"correct_side":2,"subjID":"samuelmolina9","gender":"0","school":"4","age":"9"},{"start_time":1552054132483,"click_time":1552054135699,"finger_time":1552054134957,"fix_duration":424.3346887158393,"trial":2,"RT":2474,"MT":742,"sideResp":1,"stimulus":[],"xmouse":[830,830,830,830,830,830,830,830,830,830,830,830,830,830,830,830,830,830,830,830,830,830,830,830,830,830,830,830,830,830,830,830,830,830,830,830,830,830,830,830,830,830,830,830,830,830,830,830,830,830,830,830,830,830,830,830,830,830,830,830,830,830,830,830,830,830,830,830,830,830,830,830,830,830,830,830,830,830,830,830,830,828,828,821,819,817,815,814,813,813,813,813,813,813,813,813,813,813,813,813,813,813,813,813,813,813,813,813,813,813,813,813,813,813,813,812,812,812,811,811,811,810,809,803,798,793,787,783,770,764,758,752,744,706,686,666,654,643,630,625,623,623,623,622,622,622,621,621,607,605,605,605,605,605,605,604,604,604,584,556,518],"ymouse":[610,610,610,610,610,610,610,610,610,610,610,610,610,610,610,610,610,610,610,610,610,610,610,610,610,610,610,610,610,610,610,610,610,610,610,610,610,610,610,610,610,610,610,610,610,610,610,610,610,610,610,610,610,610,610,610,610,610,610,610,610,610,610,610,610,610,610,610,610,610,610,610,610,610,610,610,610,610,610,610,610,608,607,601,599,598,597,596,595,595,595,595,595,595,595,595,595,595,595,595,595,595,595,595,595,595,595,595,595,595,595,595,595,595,595,592,591,589,586,586,586,584,576,554,544,533,519,502,464,447,434,420,403,320,271,213,170,127,78,66,61,60,60,59,59,59,59,59,66,67,67,67,67,67,67,67,67,67,67,67,67],"timestamp_mouse":[15,36,56,75,94,115,135,156,175,194,214,234,256,274,295,316,335,355,375,396,416,435,455,475,496,516,535,554,575,596,615,635,656,675,694,714,736,754,774,796,815,835,854,875,895,915,935,956,975,994,1014,1035,1054,1074,1096,1115,1136,1156,1175,1195,1215,1235,1256,1275,1295,1315,1334,1356,1375,1395,1414,1435,1454,1476,1495,1515,1536,1556,1575,1595,1615,1634,1655,1675,1695,1715,1735,1755,1774,1795,1814,1834,1854,1875,1896,1916,1936,1955,1974,1994,2016,2036,2056,2074,2094,2116,2135,2155,2175,2195,2216,2234,2255,2276,2295,2314,2335,2356,2375,2395,2415,2436,2456,2474,2494,2514,2536,2556,2575,2595,2615,2634,2655,2675,2696,2714,2734,2755,2774,2795,2816,2835,2855,2875,2895,2915,2935,2956,2975,2996,3015,3035,3056,3076,3094,3115,3134,3154,3175,3194,3216],"xSR":741.5,"ySR":573.95,"xT1":424.9,"yT1":0,"xT2":1058.1,"yT2":0,"toosoon":0,"cond_shown":"Incongruent","ratio_trial":300,"L_num":4,"L_den":20,"R_num":2,"R_den":4,"correct_side":2,"subjID":"samuelmolina9","gender":"0","school":"4","age":"9"},{"start_time":1552054140511,"click_time":1552054144138,"finger_time":1552054142618,"fix_duration":250,"trial":3,"RT":2107,"MT":1520,"sideResp":1,"stimulus":[],"xmouse":[791,791,791,791,791,791,791,791,791,791,791,791,791,791,791,791,791,791,791,791,791,791,791,791,791,791,791,791,791,791,791,791,791,791,791,791,791,791,791,791,791,791,791,791,791,791,791,791,791,791,791,791,791,791,791,791,791,791,791,791,791,791,791,791,791,791,791,791,791,791,791,791,791,791,791,791,791,791,791,791,791,791,791,791,791,791,791,791,791,791,791,791,791,791,791,791,791,791,791,791,791,791,791,791,791,791,791,791,788,788,788,788,788,788,788,788,788,788,793,806,823,832,839,840,840,840,840,840,840,839,838,834,832,829,829,829,829,829,829,829,829,829,824,776,758,751,747,744,731,724,717,712,712,712,712,712,708,696,666,663,662,662,662,637,599,555,525,506,497,497,497,497,497,493,493,493,493,493,494,494,494,491],"ymouse":[592,592,592,592,592,592,592,592,592,592,592,592,592,592,592,592,592,592,592,592,592,592,592,592,592,592,592,592,592,592,592,592,592,592,592,592,592,592,592,592,592,592,592,592,592,592,592,592,592,592,592,592,592,592,592,592,592,592,592,592,592,592,592,592,592,592,592,592,592,592,592,592,592,592,592,592,592,590,588,586,586,586,586,586,586,586,586,586,586,586,584,583,582,581,580,580,580,580,580,580,580,580,580,578,575,572,568,565,554,552,552,552,552,552,552,552,552,552,532,495,448,415,393,389,389,389,389,390,390,390,391,394,397,401,401,401,401,401,401,401,401,401,401,390,385,381,378,375,353,343,335,330,330,329,328,327,323,316,302,301,300,300,300,275,248,218,200,189,184,184,184,184,183,171,169,168,167,163,136,122,109,98],"timestamp_mouse":[7,27,48,67,87,106,126,147,166,188,207,226,248,267,287,307,326,346,366,388,408,427,447,467,486,506,526,547,567,587,607,627,647,667,687,707,726,748,767,788,806,826,846,867,886,908,927,947,967,988,1006,1027,1046,1067,1088,1108,1126,1146,1167,1188,1207,1226,1247,1267,1288,1307,1327,1347,1366,1388,1407,1427,1447,1467,1486,1508,1526,1547,1567,1587,1608,1628,1647,1668,1686,1706,1726,1747,1766,1788,1808,1827,1847,1867,1888,1906,1927,1946,1967,1988,2006,2027,2048,2067,2088,2107,2126,2147,2167,2188,2207,2226,2246,2266,2286,2306,2326,2347,2367,2387,2406,2428,2448,2468,2486,2506,2527,2548,2567,2586,2606,2627,2648,2666,2687,2706,2727,2748,2767,2786,2807,2827,2848,2867,2887,2907,2927,2948,2966,2986,3006,3027,3046,3066,3086,3107,3127,3148,3167,3188,3207,3226,3246,3266,3286,3307,3327,3348,3367,3386,3408,3428,3447,3467,3486,3506,3526,3547,3566,3586,3607,3627],"xSR":741.5,"ySR":573.95,"xT1":424.9,"yT1":0,"xT2":1058.1,"yT2":0,"toosoon":0,"cond_shown":"Incongruent","ratio_trial":100,"L_num":9,"L_den":10,"R_num":20,"R_den":25,"correct_side":1,"subjID":"samuelmolina9","gender":"0","school":"4","age":"9"},{"start_time":1552054146442,"click_time":1552054148998,"finger_time":1552054147619,"fix_duration":563.4539105122773,"trial":4,"RT":1177,"MT":1379,"sideResp":2,"stimulus":[],"xmouse":[776,771,766,765,765,765,765,765,765,765,765,765,765,765,765,765,765,765,765,765,765,765,765,765,765,765,765,765,765,765,765,765,765,765,765,765,765,765,765,765,765,765,765,765,765,765,766,774,777,780,780,781,781,781,781,781,781,781,782,783,784,785,785,785,787,788,788,788,790,798,806,822,827,830,833,837,846,851,857,861,867,868,869,870,873,875,878,886,889,890,891,895,896,904,917,935,999,1040,1078,1104,1125,1129,1129,1129,1129,1129,1129,1129,1129,1129,1129,1129,1129,1129,1129,1129,1129,1129,1129,1129,1129,1129,1129,1129,1129,1129,1128,1119],"ymouse":[611,600,591,590,590,590,590,590,590,590,590,590,590,590,590,590,590,590,590,590,590,590,590,590,590,590,590,590,590,590,590,590,590,590,590,590,590,590,590,590,590,590,590,590,590,590,588,581,578,576,575,575,575,575,575,575,575,575,571,569,566,564,561,560,558,555,554,554,551,541,533,518,513,510,506,500,486,474,465,458,450,449,447,445,442,437,433,421,416,416,412,405,404,392,378,356,285,243,205,177,150,145,145,145,145,145,145,145,145,145,145,145,145,145,144,142,131,122,117,112,111,111,111,111,111,110,108,86],"timestamp_mouse":[21,42,55,76,95,115,137,157,176,195,217,236,256,276,295,316,336,355,376,396,417,437,457,476,497,517,536,556,577,597,615,635,657,677,696,717,737,757,776,796,815,837,856,877,895,917,936,956,976,996,1016,1036,1056,1075,1095,1116,1137,1155,1177,1195,1215,1236,1257,1276,1296,1315,1337,1355,1376,1396,1415,1436,1455,1475,1495,1517,1537,1555,1576,1595,1617,1635,1657,1677,1696,1717,1736,1755,1775,1796,1817,1837,1855,1876,1895,1916,1937,1955,1977,1996,2016,2036,2056,2075,2095,2115,2137,2155,2175,2195,2215,2237,2256,2275,2295,2316,2337,2355,2376,2395,2416,2436,2455,2476,2495,2515,2537,2555],"xSR":741.5,"ySR":573.95,"xT1":424.9,"yT1":0,"xT2":1058.1,"yT2":0,"toosoon":0,"cond_shown":"Incongruent","ratio_trial":300,"L_num":4,"L_den":20,"R_num":2,"R_den":4,"correct_side":2,"subjID":"samuelmolina9","gender":"0","school":"4","age":"9"},{"start_time":1552054150630,"click_time":1552054152479,"finger_time":1552054150878,"fix_duration":250,"trial":5,"RT":248,"MT":1601,"sideResp":1,"stimulus":[],"xmouse":[809,807,806,803,802,800,798,796,794,793,791,785,774,770,770,770,770,770,770,770,770,770,770,767,764,759,757,757,757,756,753,747,745,740,738,738,738,738,738,737,736,725,708,686,677,668,657,645,627,624,615,610,606,601,600,600,600,600,600,599,598,596,594,589,587,584,584,583,577,574,572,570,567,562,560,558,556,555,553,552,547,542,538,519,502,491,485,484,483,483,483,483,483],"ymouse":[624,623,620,616,614,610,607,602,599,596,592,584,572,565,565,565,564,564,564,564,564,564,564,562,554,549,547,546,546,541,534,521,514,503,499,499,499,499,499,498,497,487,474,458,449,437,422,410,388,383,373,368,362,354,352,351,351,350,346,343,338,330,324,306,301,296,293,290,275,268,262,252,241,222,212,202,195,191,189,186,180,172,161,139,127,118,112,109,108,108,107,103,97],"timestamp_mouse":[11,29,49,68,87,108,128,149,168,188,208,228,248,268,288,308,327,348,367,389,409,427,447,468,489,508,528,547,567,587,607,628,648,667,689,709,729,747,767,787,808,828,848,868,888,908,929,948,968,988,1007,1028,1049,1068,1088,1108,1128,1147,1168,1189,1207,1228,1248,1268,1287,1308,1328,1348,1367,1388,1408,1428,1448,1468,1487,1508,1529,1549,1568,1588,1607,1627,1648,1668,1687,1709,1727,1749,1769,1788,1807,1828,1849],"xSR":741.5,"ySR":573.95,"xT1":424.9,"yT1":0,"xT2":1058.1,"yT2":0,"toosoon":0,"cond_shown":"Incongruent","ratio_trial":300,"L_num":4,"L_den":20,"R_num":2,"R_den":4,"correct_side":2,"subjID":"samuelmolina9","gender":"0","school":"4","age":"9"},{"start_time":1552054155534,"click_time":1552054157079,"finger_time":1552054155819,"fix_duration":474.86081415370353,"trial":6,"RT":285,"MT":1260,"sideResp":2,"stimulus":[],"xmouse":[818,818,818,818,818,818,818,818,817,817,817,817,817,817,817,817,817,817,820,824,831,839,846,863,867,872,878,883,906,929,933,942,945,945,945,947,947,949,957,971,977,998,1005,1014,1015,1015,1015,1015,1015,1015,1017,1020,1023,1030,1064,1103,1159,1192,1202,1203,1203,1203,1203,1203,1203,1203,1203,1203,1203,1203,1203,1203,1203,1203,1190,1178,1165,1153],"ymouse":[620,618,618,612,607,605,601,598,597,595,595,594,592,585,548,517,476,437,366,335,312,288,274,256,251,246,245,245,242,236,233,229,228,228,228,228,228,226,221,211,207,186,179,169,168,168,168,168,168,168,165,165,162,159,142,113,68,30,4,0,0,0,0,0,0,0,0,0,0,0,0,0,0,1,18,30,41,49],"timestamp_mouse":[3,39,44,64,85,103,123,144,164,184,204,223,244,264,285,304,323,344,364,383,404,423,444,464,484,504,523,544,564,583,604,623,643,663,684,703,725,743,765,783,804,823,843,864,885,904,925,944,964,983,1005,1023,1043,1064,1085,1104,1123,1144,1165,1185,1203,1224,1244,1264,1283,1304,1323,1343,1363,1384,1403,1424,1443,1463,1484,1503,1524,1544],"xSR":741.5,"ySR":573.95,"xT1":424.9,"yT1":0,"xT2":1058.1,"yT2":0,"toosoon":0,"cond_shown":"Congruent","ratio_trial":100,"L_num":1,"L_den":2,"R_num":3,"R_den":5,"correct_side":2,"subjID":"samuelmolina9","gender":"0","school":"4","age":"9"},{"start_time":1552054159362,"click_time":1552054160979,"finger_time":1552054159438,"fix_duration":643.2844109522457,"trial":7,"RT":76,"MT":1541,"sideResp":2,"stimulus":[],"xmouse":[816,813,804,798,790,780,773,767,766,766,766,766,766,766,766,766,766,766,766,766,766,766,766,766,766,766,766,769,772,776,778,780,780,780,780,782,784,799,814,832,858,879,894,900,909,920,936,949,953,956,960,963,967,968,969,970,970,978,983,990,997,1004,1015,1017,1020,1020,1021,1021,1021,1021,1021,1021,1032,1039,1045,1048,1050,1054,1055,1057,1063],"ymouse":[613,608,586,567,546,525,508,478,476,475,475,475,475,475,475,475,475,475,475,475,475,475,475,475,475,475,475,468,464,459,455,452,451,450,450,447,444,429,417,403,384,367,336,319,299,281,255,230,222,215,206,198,189,186,184,182,181,169,164,158,152,144,128,123,118,117,116,116,116,116,116,115,110,108,105,104,102,100,100,99,97],"timestamp_mouse":[15,39,56,76,95,116,136,156,176,196,216,236,256,275,296,315,336,355,375,396,417,436,455,475,496,516,537,556,576,595,616,636,656,675,695,717,736,756,776,795,815,836,856,876,896,917,937,956,976,995,1016,1037,1056,1077,1096,1115,1137,1156,1177,1195,1216,1236,1255,1276,1295,1316,1336,1357,1376,1397,1417,1436,1455,1476,1496,1517,1536,1555,1576,1595,1616],"xSR":741.5,"ySR":573.95,"xT1":424.9,"yT1":0,"xT2":1058.1,"yT2":0,"toosoon":0,"cond_shown":"Congruent","ratio_trial":300,"L_num":20,"L_den":25,"R_num":13,"R_den":26,"correct_side":1,"subjID":"samuelmolina9","gender":"0","school":"4","age":"9"},{"start_time":1552054166101,"click_time":1552054168178,"finger_time":1552054167277,"fix_duration":1180.9174653327473,"trial":8,"RT":1176,"MT":901,"sideResp":1,"stimulus":[],"xmouse":[802,802,802,802,802,802,802,802,802,802,802,802,802,802,802,802,802,802,802,802,802,802,802,802,802,802,802,802,802,802,802,802,802,802,802,802,802,802,802,802,802,802,802,802,802,802,802,802,802,802,802,802,802,802,802,800,795,787,781,776,772,771,770,769,768,766,758,748,743,741,737,714,699,683,671,662,645,632,627,622,618,616,614,612,611,607,597,588,580,575,569,555,550,545,539,535,533,533,533,533,533,532,522,510],"ymouse":[617,617,617,617,617,617,617,617,617,617,617,617,617,617,617,617,617,617,617,617,617,617,617,617,617,617,617,617,617,617,617,617,617,617,617,617,617,617,617,617,615,613,611,610,609,609,609,609,609,609,609,609,608,605,602,597,588,576,569,564,561,557,555,552,546,539,520,504,497,494,486,457,440,420,404,388,352,322,309,298,290,280,276,271,266,260,246,237,233,230,226,213,197,180,160,145,126,126,126,126,126,120,110,99],"timestamp_mouse":[17,38,56,76,98,117,137,156,178,197,218,236,257,278,297,316,337,357,376,397,418,437,457,476,498,518,537,556,577,597,618,638,657,676,698,717,737,757,776,798,817,838,858,877,898,918,937,957,977,997,1016,1036,1058,1078,1098,1118,1138,1157,1176,1196,1217,1238,1258,1276,1296,1317,1336,1357,1376,1398,1418,1438,1458,1476,1496,1516,1537,1557,1577,1596,1616,1636,1656,1678,1696,1718,1737,1758,1776,1797,1818,1837,1856,1877,1897,1918,1937,1958,1977,1996,2017,2036,2058,2077],"xSR":741.5,"ySR":573.95,"xT1":424.9,"yT1":0,"xT2":1058.1,"yT2":0,"toosoon":0,"cond_shown":"Incongruent","ratio_trial":300,"L_num":4,"L_den":20,"R_num":2,"R_den":4,"correct_side":2,"subjID":"samuelmolina9","gender":"0","school":"4","age":"9"},{"start_time":1552054169652,"click_time":1552054171719,"finger_time":1552054170499,"fix_duration":250,"trial":9,"RT":847,"MT":1220,"sideResp":2,"stimulus":[],"xmouse":[816,816,816,816,816,816,816,816,816,816,816,816,816,816,816,816,816,816,816,816,816,816,816,816,816,816,816,816,816,816,816,816,816,816,816,816,816,816,817,823,827,834,839,848,868,878,881,882,882,883,884,884,885,885,885,885,885,885,885,885,885,886,889,889,891,892,892,895,897,917,924,929,932,933,936,938,940,942,946,954,959,969,977,989,1006,1015,1022,1031,1034,1037,1038,1039,1042,1045,1048,1048,1048,1048,1048,1050,1050,1052,1056,1062],"ymouse":[606,606,606,606,606,606,606,606,606,606,606,606,606,606,606,606,606,606,606,606,606,606,606,606,606,606,606,606,606,606,606,606,606,606,606,606,606,604,602,594,587,579,571,561,536,522,513,509,505,498,494,490,489,489,488,488,488,488,488,488,487,482,477,473,466,462,459,448,441,385,368,355,350,345,337,333,327,320,309,290,277,260,246,230,200,182,165,147,137,127,125,122,116,109,100,100,100,100,100,97,95,93,87,79],"timestamp_mouse":[13,36,46,66,86,107,125,145,166,187,206,225,247,266,286,305,326,347,366,386,406,427,447,466,485,506,527,546,566,586,607,626,646,667,686,706,726,745,766,786,807,827,847,867,886,906,926,947,966,985,1005,1025,1046,1065,1086,1105,1125,1145,1166,1186,1205,1225,1245,1267,1286,1306,1326,1346,1366,1386,1405,1425,1445,1467,1486,1506,1526,1545,1566,1585,1605,1625,1646,1666,1686,1706,1726,1747,1766,1786,1807,1825,1845,1866,1885,1906,1925,1945,1967,1985,2005,2027,2046,2067],"xSR":741.5,"ySR":573.95,"xT1":424.9,"yT1":0,"xT2":1058.1,"yT2":0,"toosoon":0,"cond_shown":"Incongruent","ratio_trial":200,"L_num":3,"L_den":10,"R_num":1,"R_den":2,"correct_side":2,"subjID":"samuelmolina9","gender":"0","school":"4","age":"9"},{"start_time":1552054188387,"click_time":1552054190918,"finger_time":1552054190397,"fix_duration":388.46411759637414,"trial":10,"RT":2010,"MT":521,"sideResp":2,"stimulus":[],"xmouse":[779,779,779,779,779,779,779,779,779,779,779,779,779,779,779,779,779,779,779,779,779,779,779,779,779,779,779,779,779,779,779,779,779,779,779,779,779,779,779,779,779,779,779,779,779,779,779,779,779,779,779,779,779,779,779,779,779,779,779,779,779,779,779,779,779,779,779,779,779,779,779,779,779,779,779,779,779,779,779,779,779,779,779,779,779,779,779,779,779,779,779,779,779,779,779,779,779,779,781,793,803,812,823,841,857,866,874,883,890,910,920,930,940,952,968,975,980,988,996,1017,1028,1038,1047,1053,1057,1058,1059],"ymouse":[622,622,622,622,622,622,622,622,622,622,622,622,622,622,622,622,622,622,622,622,622,622,622,622,622,622,622,622,622,622,622,622,622,622,622,622,622,622,622,622,622,622,622,622,622,622,622,622,622,622,622,622,622,622,622,622,622,622,622,622,622,622,622,622,622,622,622,622,622,622,622,622,622,622,622,622,622,622,622,622,622,622,622,622,622,622,622,622,622,622,622,622,622,622,622,622,622,619,612,581,566,549,532,501,463,444,423,403,388,351,333,314,298,277,249,237,228,213,202,166,146,122,101,86,77,77,74],"timestamp_mouse":[13,40,51,71,90,111,131,151,170,190,211,231,250,270,290,311,331,351,371,391,411,430,451,471,491,510,531,551,571,591,611,631,650,670,690,711,730,750,771,803,811,830,851,871,890,910,930,951,971,991,1011,1032,1051,1071,1092,1111,1131,1150,1172,1191,1211,1231,1252,1271,1290,1311,1331,1350,1370,1390,1411,1431,1451,1470,1491,1511,1531,1550,1570,1591,1611,1631,1650,1670,1690,1710,1731,1751,1770,1791,1810,1832,1850,1870,1891,1910,1931,1950,1971,1990,2010,2030,2051,2070,2091,2110,2130,2150,2171,2191,2210,2231,2251,2270,2291,2310,2330,2351,2372,2390,2410,2431,2450,2471,2491,2510,2530],"xSR":741.5,"ySR":573.95,"xT1":424.9,"yT1":0,"xT2":1058.1,"yT2":0,"toosoon":0,"cond_shown":"Incongruent","ratio_trial":200,"L_num":7,"L_den":15,"R_num":4,"R_den":6,"correct_side":2,"subjID":"samuelmolina9","gender":"0","school":"4","age":"9"},{"start_time":1552054194668,"click_time":1552054196117,"finger_time":1552054195497,"fix_duration":430.44360056213327,"trial":11,"RT":829,"MT":620,"sideResp":1,"stimulus":[],"xmouse":[797,797,797,797,797,797,797,797,797,797,797,797,797,797,797,797,797,797,797,797,797,797,797,797,797,797,797,797,797,797,797,797,797,797,797,797,797,797,797,797,798,787,772,759,750,741,731,725,719,714,708,696,689,686,684,683,672,667,658,647,632,601,587,579,575,572,558,550,538,530,525,517,507],"ymouse":[600,600,600,600,600,600,600,600,600,600,600,600,600,600,600,600,600,600,600,600,600,600,600,600,600,600,600,600,600,600,600,600,600,600,600,600,600,600,600,600,600,553,511,481,456,425,388,367,349,333,318,292,281,276,273,270,257,249,238,227,214,192,181,175,169,165,153,148,142,135,128,105,92],"timestamp_mouse":[21,37,51,70,89,109,129,149,170,189,209,230,250,270,289,310,329,349,369,390,409,430,449,469,489,509,530,549,571,590,609,629,649,670,689,710,731,751,770,790,810,829,849,869,889,910,930,949,969,989,1011,1029,1049,1070,1090,1109,1129,1149,1169,1190,1210,1229,1250,1270,1290,1309,1329,1349,1369,1390,1409,1429,1449],"xSR":741.5,"ySR":573.95,"xT1":424.9,"yT1":0,"xT2":1058.1,"yT2":0,"toosoon":0,"cond_shown":"Incongruent","ratio_trial":200,"L_num":11,"L_den":20,"R_num":3,"R_den":4,"correct_side":2,"subjID":"samuelmolina9","gender":"0","school":"4","age":"9"},{"start_time":1552054200321,"click_time":1552054201717,"finger_time":1552054200517,"fix_duration":522.6623743229104,"trial":12,"RT":196,"MT":1200,"sideResp":2,"stimulus":[],"xmouse":[790,792,793,795,797,799,803,807,822,833,840,848,854,865,872,878,887,898,914,923,928,932,943,948,953,957,958,958,958,958,958,958,958,958,958,961,964,975,982,993,1001,1008,1014,1023,1027,1031,1033,1037,1039,1040,1040,1040,1041,1043,1045,1047,1050,1053,1061,1063,1063,1065,1066,1073,1075,1075,1075,1075,1077],"ymouse":[621,619,618,615,613,610,604,598,573,556,542,529,517,500,488,476,461,447,420,400,388,378,358,348,341,334,333,333,333,333,333,333,333,333,333,328,322,303,291,272,258,245,230,205,197,189,183,177,171,171,170,170,169,167,166,164,161,158,151,148,146,139,132,119,115,114,114,113,99],"timestamp_mouse":[37,56,77,97,116,137,157,177,196,216,236,257,277,298,317,337,356,376,396,417,437,456,477,496,516,537,557,577,597,617,636,656,677,696,716,737,757,778,796,816,837,857,877,896,917,936,956,977,996,1017,1037,1056,1077,1096,1117,1137,1157,1177,1197,1216,1237,1256,1277,1297,1316,1336,1356,1376,1396],"xSR":741.5,"ySR":573.95,"xT1":424.9,"yT1":0,"xT2":1058.1,"yT2":0,"toosoon":0,"cond_shown":"Congruent","ratio_trial":100,"L_num":3,"L_den":20,"R_num":4,"R_den":16,"correct_side":2,"subjID":"samuelmolina9","gender":"0","school":"4","age":"9"},{"start_time":1552054203914,"click_time":1552054205318,"finger_time":1552054204378,"fix_duration":595.0044594597429,"trial":13,"RT":464,"MT":940,"sideResp":1,"stimulus":[],"xmouse":[813,813,813,813,813,813,813,813,813,813,813,813,813,813,813,812,812,812,811,810,805,801,798,795,794,794,794,794,794,792,772,758,746,733,722,703,692,680,667,657,647,643,640,636,632,623,618,615,612,611,608,602,590,577,566,555,552,549,547,545,543,542,542,541,540,536,532,529,527,525,524],"ymouse":[617,617,617,617,617,617,617,617,617,617,617,617,617,617,617,616,616,615,615,608,592,583,576,570,569,569,569,569,569,565,542,526,510,496,484,462,446,430,411,397,376,350,341,330,314,281,264,253,245,243,230,217,197,178,160,139,134,128,122,117,112,110,109,108,105,99,95,92,89,86,85],"timestamp_mouse":[12,35,44,63,84,104,124,144,164,183,203,223,243,264,284,303,323,344,363,383,403,423,444,464,485,503,524,545,564,584,603,623,643,664,684,703,723,743,764,784,803,825,843,864,883,903,923,943,963,984,1003,1023,1043,1063,1083,1103,1123,1144,1164,1184,1203,1223,1243,1264,1283,1303,1323,1343,1364,1383,1404],"xSR":741.5,"ySR":573.95,"xT1":424.9,"yT1":0,"xT2":1058.1,"yT2":0,"toosoon":0,"cond_shown":"Congruent","ratio_trial":200,"L_num":14,"L_den":28,"R_num":6,"R_den":20,"correct_side":1,"subjID":"samuelmolina9","gender":"0","school":"4","age":"9"},{"start_time":1552054207911,"click_time":1552054208657,"finger_time":1552054208378,"fix_duration":1150.4416416230706,"trial":14,"RT":467,"MT":279,"sideResp":1,"stimulus":[],"xmouse":[814,814,814,814,814,814,814,814,814,814,814,814,814,814,814,814,814,814,814,814,814,813,810,808,805,791,779,762,728,691,603,571,556,548,541,529,527,523],"ymouse":[628,628,628,628,628,628,628,628,628,628,628,628,628,628,621,613,610,604,602,598,588,582,576,565,555,524,503,473,407,357,241,183,158,141,127,106,103,95],"timestamp_mouse":[12,40,47,67,87,106,127,146,166,186,206,227,247,267,286,306,326,346,367,387,406,428,447,467,487,507,526,546,566,587,606,626,647,667,688,706,727,746],"xSR":741.5,"ySR":573.95,"xT1":424.9,"yT1":0,"xT2":1058.1,"yT2":0,"toosoon":0,"cond_shown":"Incongruent","ratio_trial":300,"L_num":13,"L_den":26,"R_num":12,"R_den":15,"correct_side":2,"subjID":"samuelmolina9","gender":"0","school":"4","age":"9"},{"start_time":1552054211230,"click_time":1552054213438,"finger_time":1552054211557,"fix_duration":250,"trial":15,"RT":327,"MT":1881,"sideResp":1,"stimulus":[],"xmouse":[773,773,773,773,773,773,773,773,773,773,773,773,774,777,785,813,831,847,864,879,911,952,981,1005,1042,1051,1055,1057,1057,1057,1063,1065,1073,1079,1084,1089,1089,1089,1089,1089,1089,1089,1089,1089,1089,1089,1089,1089,1089,1089,1089,1089,1089,1089,1089,1089,1089,1089,1089,1089,1089,1089,1089,1089,1089,1089,1089,1089,1089,1089,1089,1089,1089,1089,1089,1089,1089,1089,1089,1089,1089,1089,1089,1089,1089,1089,1089,1089,1089,1089,1089,1089,1089,1089,1089,1089,1089,1086,1084,1084,1077,1067,1042,995,930,767,697,636,579,532,472],"ymouse":[620,620,620,620,620,620,620,620,620,620,620,620,620,620,614,587,571,557,540,524,478,420,374,330,262,241,228,224,224,224,206,198,168,146,127,106,105,105,105,105,105,105,105,105,105,105,105,105,105,105,105,105,105,105,105,105,105,105,105,105,105,105,105,105,105,105,105,105,105,105,105,105,105,105,105,105,105,105,105,105,105,105,105,105,105,105,105,105,105,105,105,105,105,105,105,105,104,104,104,104,104,108,113,115,115,114,106,96,88,81,72],"timestamp_mouse":[13,37,47,68,88,107,128,147,168,188,207,228,247,268,287,308,327,347,368,388,407,428,447,467,489,507,528,547,567,588,608,628,647,667,688,707,727,748,768,787,809,827,847,867,887,907,928,947,967,988,1007,1027,1048,1067,1088,1107,1127,1147,1167,1187,1208,1227,1248,1267,1288,1307,1327,1347,1368,1387,1408,1427,1448,1467,1487,1507,1527,1547,1568,1588,1607,1627,1647,1668,1687,1708,1727,1747,1767,1787,1808,1828,1847,1867,1887,1908,1928,1947,1968,1989,2007,2028,2047,2067,2087,2107,2128,2148,2168,2188,2207],"xSR":741.5,"ySR":573.95,"xT1":424.9,"yT1":0,"xT2":1058.1,"yT2":0,"toosoon":0,"cond_shown":"Incongruent","ratio_trial":100,"L_num":13,"L_den":26,"R_num":6,"R_den":10,"correct_side":2,"subjID":"samuelmolina9","gender":"0","school":"4","age":"9"},{"start_time":1552054215849,"click_time":1552054216997,"finger_time":1552054216157,"fix_duration":1229.7858686061584,"trial":16,"RT":308,"MT":840,"sideResp":2,"stimulus":[],"xmouse":[802,802,802,802,802,802,802,802,802,802,802,802,802,803,811,816,826,834,845,870,878,885,889,894,913,925,933,943,950,963,965,969,973,981,991,1013,1021,1025,1028,1030,1030,1030,1030,1034,1050,1057,1061,1061,1063,1063,1063,1063,1063,1063,1064,1065,1067,1067],"ymouse":[606,606,606,606,606,606,606,606,606,606,606,606,606,601,579,562,540,523,502,458,445,433,426,418,396,384,372,357,345,321,314,308,296,279,257,214,198,187,177,174,174,174,172,169,153,143,133,132,129,129,129,128,126,124,116,110,101,94],"timestamp_mouse":[13,38,49,69,88,108,129,150,170,189,209,228,249,269,288,308,328,349,369,388,410,428,448,469,488,509,529,548,569,588,608,628,648,668,688,709,728,749,769,788,808,829,848,868,888,908,933,948,968,988,1008,1028,1048,1068,1088,1108,1129,1148],"xSR":741.5,"ySR":573.95,"xT1":424.9,"yT1":0,"xT2":1058.1,"yT2":0,"toosoon":0,"cond_shown":"Incongruent","ratio_trial":200,"L_num":4,"L_den":30,"R_num":1,"R_den":3,"correct_side":2,"subjID":"samuelmolina9","gender":"0","school":"4","age":"9"},{"start_time":1552054219368,"click_time":1552054223578,"finger_time":1552054219657,"fix_duration":928.1885038352618,"trial":17,"RT":289,"MT":3921,"sideResp":1,"stimulus":[],"xmouse":[804,804,804,804,804,804,804,804,804,806,813,826,833,841,856,866,878,886,905,911,920,924,929,939,943,946,952,956,962,968,971,975,980,986,1005,1008,1011,1014,1017,1026,1031,1032,1032,1032,1032,1032,1032,1032,1032,1032,1032,1032,1026,987,968,962,962,962,962,962,960,949,926,902,859,856,856,856,856,856,856,856,856,856,856,856,856,856,869,924,926,928,928,928,928,913,881,843,794,707,667,656,655,655,655,655,665,678,750,800,848,858,860,860,860,852,829,796,763,709,706,706,719,742,808,829,839,841,841,841,841,837,806,770,723,719,718,718,736,798,839,868,893,908,910,911,911,897,870,824,808,803,802,802,802,802,806,828,848,893,906,906,890,855,773,730,707,703,703,757,818,859,892,918,953,956,956,949,930,907,867,846,829,821,820,835,863,908,935,970,973,973,973,973,973,973,973,974,953,755,698,649,619,602,599,604,631,682,739,940,1016,1062,1081,1083,1083,1052,980,898,807,576,519],"ymouse":[622,622,622,622,622,622,622,622,622,621,613,597,587,576,552,538,519,505,473,460,439,423,405,376,361,345,325,310,292,266,257,245,232,218,174,168,161,154,146,127,116,115,115,115,115,115,115,115,115,113,113,116,120,134,135,135,135,135,135,135,135,134,131,129,129,129,129,129,129,129,129,129,129,129,129,129,129,129,127,112,112,111,111,111,111,111,113,118,125,130,130,130,130,130,130,130,130,128,132,142,154,155,156,156,156,156,158,160,160,160,161,161,160,157,147,144,143,142,142,142,142,142,142,142,142,142,142,142,142,135,135,135,136,138,139,139,139,141,145,152,154,155,155,155,155,155,155,152,150,150,150,151,153,158,164,164,164,164,164,157,145,140,136,135,135,137,137,137,138,144,149,155,161,164,171,177,182,183,183,183,183,183,183,183,183,183,183,183,183,183,183,183,183,183,183,183,179,175,175,185,195,201,202,202,202,202,185,161,137,97,89],"timestamp_mouse":[13,35,50,70,90,109,129,149,170,190,209,229,250,270,289,309,329,350,371,389,410,429,450,470,489,509,529,549,569,590,609,629,649,670,689,709,729,749,769,789,810,829,849,869,889,910,930,950,969,990,1009,1029,1050,1070,1089,1110,1129,1150,1169,1190,1209,1230,1249,1270,1290,1309,1330,1350,1369,1390,1409,1429,1449,1470,1489,1509,1530,1549,1569,1589,1609,1629,1649,1669,1689,1709,1730,1749,1769,1789,1809,1829,1849,1870,1890,1910,1930,1950,1971,1989,2009,2029,2050,2070,2089,2109,2130,2150,2169,2189,2209,2230,2249,2269,2290,2309,2330,2349,2369,2390,2409,2430,2450,2470,2489,2509,2530,2550,2571,2590,2609,2629,2650,2670,2690,2709,2729,2750,2770,2790,2810,2830,2850,2870,2889,2909,2930,2951,2970,2989,3009,3029,3049,3070,3089,3110,3130,3149,3169,3189,3210,3229,3249,3270,3289,3310,3330,3350,3370,3389,3409,3429,3449,3469,3490,3509,3529,3550,3569,3589,3609,3629,3650,3669,3690,3710,3729,3750,3770,3789,3809,3829,3849,3869,3889,3909,3930,3950,3970,3989,4009,4029,4049,4069,4090,4109,4130,4150,4169,4189,4209],"xSR":741.5,"ySR":573.95,"xT1":424.9,"yT1":0,"xT2":1058.1,"yT2":0,"toosoon":0,"cond_shown":"Congruent","ratio_trial":100,"L_num":3,"L_den":6,"R_num":2,"R_den":5,"correct_side":1,"subjID":"samuelmolina9","gender":"0","school":"4","age":"9"},{"start_time":1552054228347,"click_time":1552054235418,"finger_time":1552054229197,"fix_duration":447.96483086676363,"trial":18,"RT":850,"MT":6221,"sideResp":1,"stimulus":[],"xmouse":[818,818,818,818,818,818,818,818,818,818,818,818,818,818,818,818,818,818,818,818,818,818,817,816,816,813,811,810,808,806,806,805,805,805,805,803,802,802,800,797,790,788,788,785,783,778,777,777,775,773,763,755,745,739,738,735,735,735,735,735,735,735,735,734,734,734,734,734,738,764,851,922,1000,1060,1080,1082,1072,1043,1035,1028,1028,1028,1027,1023,1008,993,976,966,960,959,959,959,960,962,962,927,856,799,776,775,776,815,910,979,999,1002,1002,1002,1002,1002,997,957,881,802,740,703,686,686,697,716,746,831,855,859,859,856,819,801,716,686,677,677,679,706,752,872,898,901,901,890,797,761,747,746,746,746,755,844,939,1026,1086,1101,1095,1075,1045,1001,899,819,775,746,724,717,717,717,717,717,722,731,736,737,737,743,790,889,976,1049,1096,1096,1096,1096,1096,1094,1083,1069,1052,1033,972,920,849,779,704,629,624,624,624,624,624,624,624,624,624,624,624,624,624,624,631,631,631,631,631,631,631,631,631,631,631,631,631,631,631,631,631,631,631,631,631,631,631,631,631,631,631,631,631,631,631,644,733,791,854,974,1024,1040,1041,1006,985,982,981,981,977,961,941,920,896,873,828,786,755,722,691,655,652,651,650,640,591,558,544,540,540,540,540,540,540,540,540,543,549,555,566,658,761,899,1050,1193,1405,1424,1426,1426,1426,1426,1426,1426,1426,1426,1424,1418,1410,1398,1378,1269,1182,1082,974,832,690,664,645,631,614,572,566,566,566,566,566,566,566,566,566,566,566,566,566,566,564,559,555,553,552,546,540,536,535,535,535,535,534,518,504,487,487,487,487,487,485,485,485,485,485,485,483,480],"ymouse":[648,648,648,648,648,648,648,648,648,648,648,648,648,648,648,648,648,648,648,648,648,648,644,642,639,633,629,628,626,624,622,622,621,621,620,617,615,613,607,598,579,575,572,568,562,553,552,549,547,542,527,517,505,499,496,491,491,491,491,491,491,489,486,486,485,485,485,485,482,476,451,428,394,365,346,328,322,317,316,316,316,316,316,316,316,316,316,316,316,316,316,316,315,315,315,317,317,317,317,317,317,313,313,309,307,306,306,306,306,306,305,305,305,305,305,300,291,291,283,278,273,269,269,269,269,269,274,275,277,277,277,277,277,276,270,270,270,270,270,271,284,289,291,291,291,291,291,291,302,306,306,306,306,306,306,299,282,271,266,258,253,251,251,251,251,251,250,248,248,248,248,247,244,251,262,271,278,278,278,278,278,280,281,283,283,284,284,284,284,284,287,303,305,305,305,305,305,305,305,305,305,305,305,305,305,305,304,304,304,304,304,304,304,304,304,304,304,304,304,304,304,304,304,304,304,304,304,304,304,304,304,304,304,304,304,304,304,303,290,287,287,287,289,295,297,297,297,297,297,297,297,295,291,286,283,279,275,275,275,275,275,275,275,275,275,274,273,270,270,270,270,270,270,270,270,270,270,270,269,267,267,267,267,267,267,267,290,292,293,293,293,293,293,293,293,293,294,294,294,294,294,286,274,260,244,225,204,201,198,196,194,187,187,187,187,187,187,187,187,187,187,187,187,187,187,187,187,187,187,187,187,187,187,187,187,187,187,187,187,189,192,195,195,195,195,195,195,183,171,160,148,121,102,83],"timestamp_mouse":[20,40,50,71,90,110,131,150,170,190,211,231,250,270,290,311,331,351,370,391,411,431,450,471,490,511,531,550,571,591,610,630,651,670,690,711,730,750,771,791,810,831,850,870,891,910,930,951,972,991,1012,1030,1050,1070,1091,1110,1130,1150,1171,1190,1211,1230,1250,1271,1290,1311,1330,1351,1372,1392,1411,1430,1451,1471,1491,1511,1530,1550,1570,1591,1611,1631,1650,1670,1690,1710,1730,1750,1770,1791,1811,1831,1850,1870,1890,1911,1930,1951,1971,1990,2011,2030,2050,2070,2091,2111,2130,2151,2171,2191,2210,2230,2250,2271,2290,2312,2330,2350,2370,2391,2410,2430,2450,2471,2491,2511,2530,2551,2571,2591,2610,2630,2650,2670,2690,2712,2730,2751,2770,2791,2811,2830,2850,2870,2890,2910,2930,2950,2970,2990,3011,3030,3051,3070,3091,3111,3130,3150,3170,3190,3211,3230,3251,3270,3290,3310,3330,3350,3370,3390,3412,3431,3450,3470,3490,3510,3530,3550,3571,3590,3610,3630,3650,3671,3690,3710,3731,3750,3770,3791,3811,3830,3850,3870,3890,3910,3931,3951,3970,3991,4011,4030,4050,4072,4092,4111,4130,4151,4172,4191,4211,4231,4250,4270,4291,4310,4331,4350,4370,4391,4410,4431,4451,4471,4491,4511,4530,4550,4571,4590,4610,4630,4651,4670,4690,4710,4730,4750,4770,4791,4811,4830,4851,4870,4891,4912,4930,4950,4971,4990,5012,5030,5050,5070,5091,5110,5131,5151,5170,5190,5211,5230,5250,5270,5291,5310,5331,5351,5371,5391,5410,5430,5450,5470,5490,5511,5530,5550,5570,5591,5611,5630,5652,5670,5690,5710,5730,5750,5771,5791,5811,5830,5850,5870,5891,5912,5930,5950,5971,5991,6011,6030,6051,6071,6090,6110,6130,6150,6170,6191,6212,6231,6250,6270,6290,6311,6331,6351,6371,6391,6411,6430,6450,6472,6490,6510,6531,6551,6570,6590,6611,6630,6650,6670,6690,6711,6731,6751,6772,6791,6811,6831,6850,6870,6890,6910,6930,6950,6970,6990,7011,7031,7050,7070],"xSR":741.5,"ySR":573.95,"xT1":424.9,"yT1":0,"xT2":1058.1,"yT2":0,"toosoon":0,"cond_shown":"Incongruent","ratio_trial":200,"L_num":7,"L_den":15,"R_num":4,"R_den":6,"correct_side":2,"subjID":"samuelmolina9","gender":"0","school":"4","age":"9"},{"start_time":1552054238882,"click_time":1552054246298,"finger_time":1552054239218,"fix_duration":882.6770559256586,"trial":19,"RT":336,"MT":7080,"sideResp":2,"stimulus":[],"xmouse":[785,785,785,785,785,785,785,785,785,785,785,785,785,785,786,803,813,819,822,823,824,824,825,825,825,826,827,827,827,827,827,827,827,827,828,828,830,831,831,831,816,766,699,645,615,615,615,617,655,682,713,718,720,723,728,728,728,728,728,691,671,657,646,638,637,638,655,680,725,740,750,750,750,750,750,750,750,724,651,465,389,354,348,348,347,389,486,590,717,844,1029,1042,1042,1012,813,756,727,710,708,708,699,687,680,678,678,684,699,782,849,1068,1195,1307,1376,1392,1392,1385,1340,1272,1202,1065,1005,946,899,854,807,611,563,491,477,487,512,533,545,549,549,549,549,550,552,560,591,615,652,714,872,954,1027,1089,1108,1119,1119,1119,1119,1105,1077,962,844,802,676,532,490,459,435,417,414,414,414,414,418,463,485,511,537,570,611,741,793,825,848,865,902,921,941,963,985,1011,1011,1011,1008,991,937,911,878,837,804,747,709,680,657,602,576,557,552,552,552,599,718,819,936,1058,1214,1233,1233,1233,1233,1189,1097,1009,892,765,484,360,270,235,224,224,236,334,507,736,1281,1514,1514,1514,1514,1514,1514,1514,1578,1527,1319,1169,992,812,634,267,168,98,61,37,27,27,27,27,29,67,72,84,109,172,446,645,883,1118,1339,1339,1339,1339,1339,1339,1339,1339,1339,1339,1339,1339,1339,1339,1339,1339,1339,1339,1339,1339,1339,1339,1568,1537,1463,1361,1067,905,743,605,486,339,316,313,313,313,310,309,309,309,309,309,309,309,309,311,317,325,339,365,455,704,864,1036,1159,1246,1281,1282,1282,1282,1282,1285,1285,1285,1284,1283,1280,1278,1276,1276,1276,1276,1276,1276,1276,1276,1276,1276,1276,1274,1274,1229,1212,1200,1192,1190,1188,1185,1181,1181,1181,1176,1175,1175,1175,1175,1175,1175,1175,1175,1174,1174,1172,1168,1163,1159,1154],"ymouse":[603,603,603,603,603,603,603,603,603,603,603,603,603,603,603,574,553,533,522,512,510,508,505,501,492,487,485,482,481,480,479,477,474,470,459,456,449,444,442,442,437,432,414,402,392,392,392,392,386,383,378,378,377,376,376,376,376,376,376,368,364,363,361,360,360,359,341,332,319,315,313,312,312,312,312,312,312,309,298,291,291,291,291,291,291,298,306,322,340,361,379,379,379,378,357,357,357,357,357,357,357,357,357,357,357,357,355,344,337,337,353,360,362,362,362,362,357,345,331,307,299,291,283,281,281,279,279,290,298,299,299,299,299,299,299,299,299,299,299,299,296,293,290,290,302,315,325,333,336,338,338,338,338,338,338,329,313,306,289,270,268,268,267,267,267,267,267,267,267,267,267,267,267,267,273,291,297,299,304,306,311,314,317,319,323,327,327,327,327,327,323,320,315,310,301,292,286,281,278,270,266,264,263,263,263,263,263,270,288,304,324,324,324,324,324,320,295,275,256,238,200,182,169,164,163,163,163,163,164,201,288,327,327,327,327,327,327,327,388,388,357,323,287,247,214,163,152,145,142,141,141,141,141,141,141,141,141,141,143,152,192,219,258,297,334,334,334,334,334,334,334,334,334,334,334,334,334,334,334,334,334,334,334,334,334,334,466,462,450,427,369,345,322,301,284,265,262,261,261,261,261,261,261,261,261,261,261,261,261,261,261,260,260,260,260,280,306,325,333,333,333,333,333,333,333,321,315,310,304,301,297,295,293,293,293,293,293,293,293,293,293,293,293,289,289,260,248,238,231,227,221,205,167,79,50,0,0,0,0,0,0,0,0,0,0,0,2,8,12,15,19],"timestamp_mouse":[16,44,56,77,95,117,136,155,177,197,217,235,257,275,297,316,336,355,377,396,415,435,455,477,496,516,536,557,576,596,615,636,656,676,696,716,736,757,777,796,815,836,857,875,897,915,937,957,976,996,1016,1037,1057,1077,1096,1115,1136,1156,1176,1196,1215,1235,1256,1276,1296,1315,1336,1356,1375,1396,1415,1436,1455,1476,1497,1515,1535,1555,1575,1596,1615,1635,1656,1676,1695,1715,1736,1756,1777,1795,1816,1835,1857,1877,1896,1915,1936,1956,1977,1995,2015,2035,2055,2076,2097,2115,2136,2156,2175,2196,2215,2236,2256,2277,2296,2317,2336,2355,2375,2397,2415,2436,2455,2475,2495,2515,2536,2555,2575,2597,2616,2635,2655,2675,2696,2716,2737,2756,2776,2796,2815,2836,2855,2876,2897,2915,2936,2955,2976,2996,3016,3036,3056,3076,3095,3115,3135,3157,3176,3196,3215,3235,3256,3275,3295,3316,3336,3355,3376,3396,3415,3435,3455,3477,3496,3516,3536,3556,3577,3596,3616,3636,3655,3675,3695,3717,3737,3757,3777,3795,3816,3836,3855,3875,3896,3917,3936,3956,3976,3997,4016,4036,4055,4077,4096,4115,4135,4156,4176,4196,4216,4236,4256,4276,4295,4316,4336,4356,4377,4396,4416,4435,4455,4476,4496,4516,4536,4555,4576,4597,4617,4637,4657,4676,4695,4717,4736,4755,4775,4795,4816,4836,4857,4876,4896,4916,4936,4956,4975,4995,5016,5036,5055,5075,5096,5116,5136,5156,5176,5196,5215,5236,5255,5275,5295,5315,5336,5355,5377,5396,5416,5436,5456,5475,5495,5516,5535,5557,5576,5596,5617,5637,5657,5675,5695,5716,5737,5757,5775,5796,5815,5836,5855,5876,5896,5916,5936,5956,5975,5996,6015,6035,6055,6076,6097,6117,6136,6157,6175,6196,6215,6236,6256,6276,6295,6315,6335,6356,6375,6396,6415,6436,6455,6476,6497,6516,6535,6556,6576,6596,6616,6636,6656,6676,6695,6717,6736,6756,6776,6795,6816,6835,6855,6875,6896,6915,6937,6956,6976,6996,7016,7036,7056,7075,7095,7115,7136,7155,7175,7195,7216,7237,7256,7277,7297,7316,7336,7356,7375,7396,7415],"xSR":741.5,"ySR":573.95,"xT1":424.9,"yT1":0,"xT2":1058.1,"yT2":0,"toosoon":0,"cond_shown":"Incongruent","ratio_trial":100,"L_num":6,"L_den":10,"R_num":11,"R_den":22,"correct_side":1,"subjID":"samuelmolina9","gender":"0","school":"4","age":"9"},{"start_time":1552054256649,"click_time":1552054258398,"finger_time":1552054257738,"fix_duration":250,"trial":20,"RT":1089,"MT":660,"sideResp":1,"stimulus":[],"xmouse":[783,783,783,783,783,783,783,783,783,783,783,783,783,783,783,783,783,783,783,783,783,783,783,783,783,783,783,783,783,783,783,783,783,783,783,783,783,783,783,783,783,783,783,783,783,783,783,783,783,783,783,798,810,832,840,845,845,839,807,726,702,689,680,675,674,673,673,673,671,658,646,631,615,598,578,577,576,576,574,568,565,562,559,556,544,534,527,518],"ymouse":[636,636,636,636,636,636,636,636,636,636,636,636,636,636,636,636,636,636,636,636,636,636,636,636,636,636,636,636,636,636,636,636,636,636,636,636,636,636,636,636,636,636,636,636,636,636,636,636,636,636,636,634,631,622,568,509,446,377,294,112,60,26,5,0,0,0,0,0,0,0,9,24,37,47,53,53,53,53,53,53,54,55,55,55,54,53,52,52],"timestamp_mouse":[12,41,49,68,89,110,130,149,170,190,209,229,249,268,288,310,328,349,368,390,409,429,449,470,489,508,528,550,570,589,609,630,648,670,690,710,728,749,769,789,808,828,850,869,888,908,928,949,969,990,1010,1029,1049,1069,1089,1108,1129,1148,1168,1188,1210,1229,1248,1269,1289,1310,1330,1349,1368,1389,1408,1428,1449,1468,1489,1508,1529,1549,1570,1588,1608,1628,1650,1669,1688,1709,1729,1749],"xSR":741.5,"ySR":573.95,"xT1":424.9,"yT1":0,"xT2":1058.1,"yT2":0,"toosoon":0,"cond_shown":"Incongruent","ratio_trial":200,"L_num":9,"L_den":15,"R_num":8,"R_den":10,"correct_side":2,"subjID":"samuelmolina9","gender":"0","school":"4","age":"9"},{"start_time":1552054263377,"click_time":1552054268678,"finger_time":1552054267018,"fix_duration":497.08037198712816,"trial":21,"RT":3641,"MT":1660,"sideResp":2,"stimulus":[],"xmouse":[811,811,811,811,811,811,811,811,811,811,811,811,811,811,811,811,811,811,811,811,811,811,811,811,811,811,811,811,811,811,811,811,811,811,811,811,811,811,811,811,811,811,811,811,811,811,811,811,811,811,811,811,811,811,811,811,811,811,811,811,811,811,811,811,811,811,811,811,811,811,811,811,811,811,811,811,811,811,811,811,811,811,811,811,811,811,811,811,811,811,811,811,811,811,811,811,811,811,811,811,811,811,811,811,811,811,811,811,811,811,811,811,811,811,811,811,811,811,811,811,811,811,811,811,811,811,811,811,811,811,811,811,811,811,811,811,811,811,811,811,811,811,811,811,811,811,811,811,811,811,811,811,811,811,811,811,811,811,811,811,811,811,811,811,811,811,811,811,811,811,811,811,811,811,811,811,811,811,811,811,811,811,814,815,817,818,819,819,821,827,831,835,840,843,849,856,856,858,859,860,863,864,866,868,871,874,875,877,878,880,880,881,882,884,890,892,894,898,899,903,906,911,916,923,933,935,937,939,940,943,948,952,958,965,974,980,984,987,992,998,1002,1006,1010,1012,1019,1022,1026,1032,1038,1042,1046,1046,1046,1046,1046,1049,1054,1061,1069,1075,1075,1075,1075,1075,1079,1083],"ymouse":[579,579,579,579,579,579,579,579,579,579,579,579,579,579,579,579,579,579,579,579,579,579,579,579,579,579,579,579,579,579,579,579,579,579,579,579,579,579,579,579,579,579,579,579,579,579,579,579,579,579,579,579,579,579,579,579,579,579,579,579,579,579,579,579,579,579,579,579,579,579,579,579,579,579,579,579,579,579,579,579,579,579,579,579,579,579,579,579,579,579,579,579,579,579,579,579,579,579,579,579,579,579,579,579,579,579,579,579,579,579,579,579,579,579,579,579,579,579,579,579,579,579,579,579,579,579,579,579,579,579,579,579,579,579,579,579,579,579,579,579,579,579,579,579,579,579,579,579,579,579,579,579,579,579,579,579,579,579,579,579,579,579,579,579,579,579,579,579,579,579,579,579,579,579,579,579,579,579,579,579,579,574,567,561,554,551,549,547,544,529,522,515,505,496,482,464,460,457,450,441,435,431,426,421,412,406,402,399,395,390,389,388,385,381,371,367,363,357,354,346,339,332,322,313,297,292,289,284,283,280,272,266,259,251,241,232,227,223,217,209,203,199,194,190,180,174,167,159,151,145,140,140,140,140,139,135,130,125,119,113,113,113,113,113,101,92],"timestamp_mouse":[10,21,42,61,81,101,121,141,160,181,201,220,241,260,280,300,320,341,361,381,400,422,441,461,481,502,520,540,562,581,600,622,640,662,680,700,721,741,761,782,801,822,842,862,881,900,921,940,960,981,1001,1021,1041,1061,1080,1102,1122,1141,1161,1182,1200,1220,1241,1260,1281,1300,1322,1342,1361,1381,1401,1422,1442,1460,1481,1501,1522,1540,1561,1581,1602,1620,1640,1661,1682,1702,1720,1740,1762,1782,1802,1821,1841,1861,1881,1900,1922,1941,1960,1980,2001,2021,2041,2060,2082,2100,2121,2141,2161,2182,2202,2222,2241,2261,2281,2301,2322,2341,2361,2381,2401,2421,2441,2460,2481,2502,2521,2540,2561,2580,2600,2622,2641,2660,2682,2700,2722,2740,2760,2780,2802,2820,2840,2861,2882,2901,2921,2942,2960,2981,3002,3020,3040,3061,3080,3101,3122,3140,3162,3180,3202,3221,3240,3262,3281,3300,3320,3341,3362,3381,3400,3422,3441,3461,3481,3502,3521,3541,3560,3581,3602,3620,3641,3660,3681,3700,3720,3740,3760,3780,3800,3820,3840,3860,3881,3902,3922,3941,3960,3980,4001,4020,4041,4061,4080,4102,4121,4141,4161,4180,4200,4220,4241,4262,4281,4302,4320,4340,4360,4381,4400,4421,4441,4461,4481,4502,4521,4541,4561,4581,4601,4621,4641,4660,4681,4700,4722,4740,4761,4780,4800,4820,4840,4860,4880,4900,4920,4941,4962,4981,5002,5020,5040,5061,5081,5101,5121,5140,5160,5180,5201,5220,5241,5260,5281,5300],"xSR":741.5,"ySR":573.95,"xT1":424.9,"yT1":0,"xT2":1058.1,"yT2":0,"toosoon":0,"cond_shown":"Incongruent","ratio_trial":100,"L_num":8,"L_den":16,"R_num":6,"R_den":10,"correct_side":2,"subjID":"samuelmolina9","gender":"0","school":"4","age":"9"},{"start_time":1552054271230,"click_time":1552054275779,"finger_time":1552054274537,"fix_duration":250,"trial":22,"RT":3307,"MT":1242,"sideResp":2,"stimulus":[],"xmouse":[804,804,804,804,804,804,804,804,804,804,804,804,804,804,804,804,804,804,804,804,804,804,804,804,804,804,804,804,804,804,804,804,804,804,804,804,804,804,804,804,804,804,804,804,804,804,804,804,804,804,804,804,804,804,804,804,804,804,804,804,804,804,804,804,804,804,804,804,804,804,804,804,804,804,804,804,804,804,804,804,804,804,804,804,804,804,804,804,804,804,804,804,804,804,804,804,804,804,804,804,804,804,804,804,806,806,807,807,807,807,808,808,808,808,808,808,808,808,808,808,808,808,808,808,808,808,808,808,808,808,808,808,808,808,808,808,808,808,808,808,808,808,808,808,808,808,808,808,808,808,808,808,808,808,808,808,808,808,808,808,808,808,808,805,784,738,681,591,553,528,511,483,451,428,400,368,341,318,316,316,317,318,323,327,332,338,347,363,365,368,371,372,372,377,395,419,444,477,484,488,495,510,568,595,626,659,691,731,745,755,767,782,827,840,851,859,867,892,910,946,994,1038,1083,1084,1085,1085,1085,1085],"ymouse":[628,628,628,628,628,628,628,628,628,628,628,628,628,628,628,628,628,628,628,628,628,628,628,628,628,628,628,628,628,628,628,628,628,628,628,628,628,628,628,628,628,628,628,628,628,628,628,628,628,628,628,628,628,628,628,628,628,628,628,628,628,628,628,628,628,628,628,628,628,628,628,628,628,628,628,628,628,628,628,628,628,628,628,628,628,628,628,628,628,628,628,628,628,628,628,628,628,628,628,628,628,628,628,622,617,615,614,614,614,614,613,613,613,613,613,613,613,613,613,613,613,613,613,613,613,613,613,613,613,613,613,613,613,613,613,613,613,613,613,613,613,613,613,613,613,613,613,613,613,613,613,613,613,613,613,613,613,613,613,613,613,613,613,612,594,557,515,447,411,386,361,324,283,254,224,196,171,147,139,134,131,129,128,128,128,128,128,128,128,128,129,130,130,131,136,142,145,151,151,151,151,151,151,151,151,151,149,143,141,139,138,138,138,136,134,131,129,122,114,86,44,4,0,0,0,0,0,1],"timestamp_mouse":[12,29,48,68,89,108,127,147,167,187,208,229,248,267,288,307,328,347,368,387,408,429,447,467,487,508,528,548,567,588,608,629,647,667,689,708,727,749,768,788,808,827,848,867,887,908,927,948,967,989,1009,1028,1048,1067,1087,1107,1128,1148,1167,1188,1208,1227,1248,1268,1288,1308,1329,1347,1368,1387,1407,1429,1448,1469,1487,1507,1528,1549,1569,1589,1609,1628,1648,1669,1688,1707,1728,1749,1767,1788,1808,1829,1848,1868,1887,1908,1928,1948,1969,1989,2009,2028,2048,2067,2087,2109,2127,2148,2169,2188,2208,2228,2249,2268,2288,2309,2327,2347,2368,2388,2409,2428,2447,2468,2489,2508,2529,2549,2569,2587,2608,2627,2647,2669,2689,2708,2729,2748,2768,2787,2807,2827,2848,2867,2887,2908,2927,2947,2968,2987,3008,3028,3049,3068,3088,3108,3128,3148,3169,3187,3208,3228,3248,3268,3287,3307,3328,3347,3367,3387,3408,3427,3448,3468,3488,3507,3527,3547,3568,3588,3609,3628,3648,3668,3688,3708,3728,3747,3768,3788,3808,3827,3849,3869,3888,3908,3927,3948,3967,3987,4008,4028,4047,4069,4087,4107,4129,4148,4167,4188,4207,4227,4247,4268,4288,4307,4327,4348,4367,4388,4407,4427,4448,4469,4488,4507,4529,4548],"xSR":741.5,"ySR":573.95,"xT1":424.9,"yT1":0,"xT2":1058.1,"yT2":0,"toosoon":0,"cond_shown":"Incongruent","ratio_trial":200,"L_num":11,"L_den":20,"R_num":3,"R_den":4,"correct_side":2,"subjID":"samuelmolina9","gender":"0","school":"4","age":"9"},{"start_time":1552054280948,"click_time":1552054285059,"finger_time":1552054283659,"fix_duration":1168.3332607963803,"trial":23,"RT":2711,"MT":1400,"sideResp":2,"stimulus":[],"xmouse":[761,758,757,757,757,757,757,757,757,757,757,757,757,757,757,757,757,757,757,757,757,757,757,757,757,757,757,757,757,757,757,757,757,757,757,757,757,757,757,757,757,757,757,757,757,757,757,757,757,757,757,757,757,757,757,757,757,757,757,757,757,757,757,757,757,757,757,757,757,757,757,757,757,757,757,757,757,757,757,757,757,757,757,757,757,757,757,757,757,757,757,757,757,757,757,757,757,757,757,757,757,757,757,757,757,757,757,757,757,757,757,757,757,757,757,757,757,757,757,755,751,748,745,745,745,745,745,745,745,745,745,745,745,745,746,747,749,751,758,760,763,764,766,766,768,771,775,786,788,791,794,797,799,801,804,811,819,838,851,865,880,904,936,956,973,987,998,1013,1020,1024,1028,1029,1029,1029,1029,1029,1029,1030,1031,1037,1041,1045,1050,1050,1050,1050,1050,1050,1050,1050,1050,1050,1050,1052,1052,1052,1052,1052,1053,1054,1055,1055,1056,1057,1058,1060],"ymouse":[624,620,618,618,618,618,618,618,618,618,618,618,618,618,618,618,618,618,618,618,618,618,618,618,618,618,618,618,618,618,618,618,618,618,618,618,618,618,618,618,618,618,618,618,618,618,618,618,618,618,618,618,618,618,618,618,618,618,618,618,618,618,618,618,618,618,618,618,618,618,618,618,618,618,618,618,618,618,618,618,618,618,618,618,618,618,618,618,618,618,618,618,618,618,618,618,618,618,618,618,618,618,618,618,618,618,618,618,618,618,618,618,618,618,618,618,618,618,616,612,604,595,588,586,585,585,585,585,584,584,584,583,580,579,575,573,569,563,546,541,536,534,530,527,523,516,507,488,484,475,468,461,455,451,443,432,418,380,357,334,307,265,208,171,133,94,63,7,0,0,0,0,0,0,0,0,0,2,7,16,20,25,30,30,30,30,30,31,31,31,31,31,32,34,34,34,34,34,35,35,35,35,36,36,37,38],"timestamp_mouse":[10,37,51,69,91,111,129,149,170,189,209,230,249,270,290,310,331,350,370,391,410,431,450,469,489,509,531,550,571,590,609,630,650,669,691,710,729,749,769,791,809,829,849,870,890,911,929,950,970,990,1010,1030,1050,1070,1090,1111,1131,1149,1170,1189,1211,1229,1251,1271,1290,1311,1331,1350,1371,1391,1410,1429,1449,1471,1490,1510,1531,1550,1570,1590,1610,1631,1651,1670,1690,1710,1730,1751,1771,1790,1810,1830,1849,1869,1890,1909,1930,1951,1970,1989,2009,2031,2051,2071,2090,2109,2129,2150,2169,2189,2210,2230,2251,2270,2290,2310,2329,2349,2369,2390,2410,2430,2449,2470,2490,2510,2530,2549,2569,2591,2611,2631,2649,2669,2690,2711,2729,2749,2770,2790,2809,2830,2850,2869,2889,2909,2929,2953,2969,2990,3010,3029,3050,3069,3089,3111,3130,3149,3169,3189,3210,3231,3250,3269,3290,3310,3329,3350,3369,3389,3410,3430,3450,3470,3490,3510,3529,3551,3571,3590,3610,3629,3649,3669,3690,3709,3730,3750,3770,3789,3810,3830,3850,3870,3890,3910,3929,3949,3970,3989,4010,4030,4050,4071,4090,4111],"xSR":741.5,"ySR":573.95,"xT1":424.9,"yT1":0,"xT2":1058.1,"yT2":0,"toosoon":0,"cond_shown":"Incongruent","ratio_trial":300,"L_num":4,"L_den":20,"R_num":2,"R_den":4,"correct_side":2,"subjID":"samuelmolina9","gender":"0","school":"4","age":"9"},{"start_time":1552054287539,"click_time":1552054289857,"finger_time":1552054289058,"fix_duration":958.0102426780471,"trial":24,"RT":1519,"MT":799,"sideResp":1,"stimulus":[],"xmouse":[816,816,816,817,817,817,817,817,817,818,818,818,818,818,818,818,818,818,818,818,818,818,818,818,818,818,818,818,818,818,818,818,818,818,818,818,818,818,818,818,818,818,818,818,818,818,818,818,818,818,818,818,818,818,818,818,818,818,818,818,818,818,818,818,818,818,818,818,818,818,818,818,816,812,789,770,747,727,709,657,646,645,645,644,644,643,640,636,629,610,603,601,599,599,595,588,583,574,565,546,540,535,531,527,519,513,508,502,497,484,475,471,469,467,462,458,457],"ymouse":[614,614,612,608,608,608,607,607,607,606,606,606,606,606,606,606,606,606,606,606,606,606,606,606,606,606,606,606,606,606,606,606,606,606,606,606,606,606,606,606,606,606,606,606,606,606,606,606,606,606,606,606,606,606,606,606,606,606,606,606,606,606,606,606,606,606,606,606,606,606,606,606,605,603,593,583,568,549,529,414,392,386,384,381,378,375,370,365,356,342,338,337,336,336,330,322,312,298,281,243,230,220,212,204,195,190,186,184,179,169,160,155,148,141,123,104,84],"timestamp_mouse":[2,18,39,59,78,100,118,140,159,180,199,219,240,258,280,300,319,339,360,379,399,419,439,458,479,500,519,539,559,579,600,619,638,659,678,699,719,738,760,779,799,820,840,859,879,899,919,939,960,979,998,1019,1038,1058,1079,1100,1120,1140,1159,1179,1200,1218,1239,1260,1280,1299,1318,1338,1359,1380,1399,1420,1439,1458,1478,1499,1519,1538,1559,1578,1599,1619,1639,1660,1679,1698,1718,1739,1758,1778,1798,1818,1838,1859,1879,1899,1919,1938,1958,1978,1998,2019,2040,2060,2080,2098,2118,2138,2160,2179,2200,2219,2240,2259,2279,2298,2318],"xSR":741.5,"ySR":573.95,"xT1":424.9,"yT1":0,"xT2":1058.1,"yT2":0,"toosoon":0,"cond_shown":"Congruent","ratio_trial":200,"L_num":12,"L_den":15,"R_num":6,"R_den":10,"correct_side":1,"subjID":"samuelmolina9","gender":"0","school":"4","age":"9"},{"start_time":1552054292118,"click_time":1552054294238,"finger_time":1552054293739,"fix_duration":657.6653268513976,"trial":25,"RT":1621,"MT":499,"sideResp":2,"stimulus":[],"xmouse":[782,782,782,782,782,782,782,782,782,782,782,782,782,782,782,782,782,782,782,782,782,782,782,782,782,782,782,782,782,782,782,782,782,782,782,782,782,782,782,782,782,782,782,782,782,782,782,782,782,782,782,782,782,782,782,782,782,782,782,782,782,782,782,782,782,782,782,782,782,782,782,782,782,782,782,782,782,782,782,786,793,799,802,805,809,818,826,834,844,854,859,860,861,866,872,892,900,909,924,936,966,981,998,1017,1039,1076,1089],"ymouse":[601,601,601,601,601,601,601,601,601,601,601,601,601,601,601,601,601,601,601,601,601,601,601,601,601,601,601,601,601,601,601,601,601,601,601,601,601,601,601,601,601,601,601,601,601,601,601,601,601,601,601,601,601,601,601,601,601,601,601,601,601,601,601,601,601,601,601,601,601,601,601,601,601,601,601,601,601,601,601,594,581,571,566,560,553,537,523,507,483,446,427,422,418,405,390,345,323,302,276,255,214,194,178,160,141,107,92],"timestamp_mouse":[7,21,46,59,80,99,120,139,159,179,200,220,240,259,279,300,319,340,359,381,401,419,441,459,480,499,520,541,560,579,600,620,639,659,679,700,719,739,760,780,801,819,839,859,880,899,920,941,960,980,1001,1021,1039,1060,1081,1100,1120,1141,1161,1180,1200,1220,1240,1259,1280,1299,1320,1339,1361,1380,1399,1420,1441,1460,1480,1499,1520,1539,1561,1580,1600,1621,1639,1659,1680,1699,1720,1739,1760,1780,1799,1819,1840,1861,1879,1899,1919,1940,1961,1980,2000,2019,2039,2060,2080,2100,2119],"xSR":741.5,"ySR":573.95,"xT1":424.9,"yT1":0,"xT2":1058.1,"yT2":0,"toosoon":0,"cond_shown":"Incongruent","ratio_trial":300,"L_num":13,"L_den":26,"R_num":12,"R_den":15,"correct_side":2,"subjID":"samuelmolina9","gender":"0","school":"4","age":"9"},{"start_time":1552054296609,"click_time":1552054299659,"finger_time":1552054298759,"fix_duration":1149.8621270391734,"trial":26,"RT":2150,"MT":900,"sideResp":2,"stimulus":[],"xmouse":[793,793,793,793,793,793,793,793,793,793,793,793,793,793,793,793,793,793,793,793,793,793,793,793,793,793,793,793,793,793,793,793,793,793,793,793,793,793,793,793,793,793,793,793,793,793,793,793,793,793,793,793,793,793,793,793,793,793,793,793,793,793,793,793,793,793,793,793,793,793,793,793,793,793,793,793,793,793,793,793,793,793,793,793,793,793,793,793,793,795,797,810,813,814,814,814,814,814,815,815,815,815,815,815,815,815,815,815,815,816,817,827,838,848,863,884,897,909,923,934,944,947,947,950,952,959,981,997,1010,1017,1021,1023,1023,1023,1023,1023,1023,1023,1023,1023,1023,1024,1032,1041,1044,1047,1048,1048,1048,1048,1048,1056,1063],"ymouse":[622,622,622,622,622,622,622,622,622,622,622,622,622,622,621,620,619,619,619,618,618,618,618,618,618,618,618,618,618,618,618,618,618,618,618,618,618,618,618,618,618,618,618,618,618,618,618,618,618,618,618,618,618,618,618,618,618,618,618,618,618,618,618,618,618,618,618,618,618,618,618,618,618,618,618,618,618,618,618,618,618,618,618,618,618,618,618,618,618,611,607,592,589,588,587,587,587,587,586,586,586,586,586,586,586,583,578,571,564,558,549,515,496,472,444,381,330,291,254,229,212,204,204,194,187,172,125,103,83,73,70,69,69,69,69,69,69,69,69,69,69,69,69,69,69,68,68,68,68,68,68,66,65],"timestamp_mouse":[12,44,48,70,90,110,128,150,169,190,210,228,249,269,288,309,329,349,369,388,410,430,449,468,489,510,528,549,568,588,608,628,650,670,688,709,728,750,770,788,808,829,848,869,889,909,928,950,968,989,1008,1030,1050,1069,1088,1110,1129,1148,1170,1188,1209,1229,1250,1268,1289,1310,1328,1349,1370,1390,1408,1429,1449,1469,1490,1509,1529,1550,1569,1590,1610,1628,1648,1670,1690,1710,1729,1749,1768,1789,1809,1829,1848,1869,1888,1909,1928,1948,1970,1988,2009,2030,2050,2069,2088,2108,2129,2150,2168,2188,2208,2228,2248,2268,2289,2310,2329,2349,2368,2389,2410,2429,2449,2470,2490,2509,2528,2549,2570,2589,2608,2629,2650,2668,2688,2709,2730,2749,2768,2788,2810,2829,2849,2868,2889,2909,2930,2949,2970,2989,3010,3028,3050],"xSR":741.5,"ySR":573.95,"xT1":424.9,"yT1":0,"xT2":1058.1,"yT2":0,"toosoon":0,"cond_shown":"Congruent","ratio_trial":300,"L_num":1,"L_den":5,"R_num":3,"R_den":6,"correct_side":2,"subjID":"samuelmolina9","gender":"0","school":"4","age":"9"},{"start_time":1552054302211,"click_time":1552054304717,"finger_time":1552054304058,"fix_duration":672.2116070311911,"trial":27,"RT":1847,"MT":659,"sideResp":1,"stimulus":[],"xmouse":[796,796,796,796,796,796,796,796,796,796,796,796,796,796,796,796,796,796,796,796,796,796,796,796,796,796,796,796,796,796,796,796,796,796,796,796,796,796,796,796,796,796,796,796,796,796,796,796,796,796,796,796,796,796,796,796,796,796,796,796,796,796,796,796,796,796,796,796,796,796,796,796,796,796,796,796,796,796,796,796,796,796,796,796,796,796,796,796,795,795,795,792,789,783,774,766,750,744,736,734,728,710,703,698,690,684,671,666,660,634,605,534,511,494,485,481,477,477,476,476,476,476,476,476,476,475],"ymouse":[628,628,628,628,628,628,628,628,628,628,628,628,628,628,628,628,628,628,628,628,628,628,628,628,628,628,628,628,628,628,628,628,628,628,628,628,628,628,628,628,628,628,628,628,628,628,628,628,628,628,628,628,628,628,628,628,628,628,628,628,628,628,628,628,628,628,628,628,628,628,628,628,628,628,628,628,628,628,628,628,628,628,628,625,623,622,619,613,609,602,597,577,569,556,542,531,507,495,483,477,465,434,420,407,390,373,328,305,284,247,217,170,156,144,139,135,131,130,129,129,125,123,116,110,103,97],"timestamp_mouse":[13,41,47,67,86,107,126,147,167,187,207,227,247,267,287,308,326,348,368,388,408,427,448,467,486,508,526,546,568,588,607,627,646,667,688,708,727,747,768,786,806,828,847,868,888,907,927,946,967,987,1008,1027,1047,1066,1087,1107,1128,1148,1167,1186,1206,1228,1248,1266,1287,1307,1328,1346,1367,1386,1406,1426,1448,1466,1487,1506,1528,1547,1567,1587,1607,1627,1647,1667,1688,1707,1726,1747,1767,1786,1807,1827,1847,1866,1887,1907,1927,1946,1966,1986,2007,2026,2047,2067,2087,2107,2126,2146,2166,2186,2206,2227,2247,2267,2286,2307,2326,2346,2368,2387,2408,2426,2447,2466,2486,2506],"xSR":741.5,"ySR":573.95,"xT1":424.9,"yT1":0,"xT2":1058.1,"yT2":0,"toosoon":0,"cond_shown":"Congruent","ratio_trial":100,"L_num":15,"L_den":25,"R_num":13,"R_den":26,"correct_side":1,"subjID":"samuelmolina9","gender":"0","school":"4","age":"9"},{"start_time":1552054306423,"click_time":1552054310358,"finger_time":1552054308539,"fix_duration":283.32934263168784,"trial":28,"RT":2116,"MT":1819,"sideResp":1,"stimulus":[],"xmouse":[808,808,807,807,807,807,807,807,807,807,807,807,807,807,807,807,807,807,807,807,807,807,807,807,807,807,807,807,807,807,807,807,807,807,807,807,807,807,807,807,807,807,807,807,807,807,807,807,807,807,807,807,807,807,807,807,807,807,807,807,807,807,807,807,807,807,807,807,807,807,807,807,807,807,807,807,807,807,807,807,807,807,807,807,807,806,803,798,791,786,781,779,778,776,775,775,773,773,773,773,773,773,773,773,773,773,773,773,773,773,773,773,773,773,773,773,773,773,773,774,774,776,776,776,776,776,777,777,777,777,777,777,777,777,777,777,777,777,777,777,777,777,777,777,777,777,777,777,777,777,777,777,777,777,777,777,777,777,775,772,767,761,745,739,733,726,710,705,699,687,674,660,627,614,604,589,586,575,570,565,556,541,534,527,521,506,502,502,502,502,502,501,501,501,501,500,490],"ymouse":[625,625,625,625,625,625,625,625,625,625,625,625,625,625,625,625,625,625,625,625,625,625,625,625,625,625,625,625,625,625,625,625,625,625,625,625,625,625,625,625,625,625,625,625,625,625,625,625,625,625,625,625,625,625,625,625,625,625,625,625,625,625,625,625,625,625,625,625,625,625,625,625,625,625,625,625,625,625,625,625,625,625,625,625,625,625,620,614,606,601,596,594,591,589,587,586,582,580,579,578,578,578,578,578,577,572,569,564,562,559,556,552,549,547,546,544,540,538,536,533,531,528,526,524,523,522,520,520,519,519,518,518,518,518,518,518,518,518,518,518,518,518,518,518,518,518,518,518,518,518,518,518,518,518,518,518,518,510,502,494,484,470,437,426,415,404,381,377,371,365,360,354,339,329,319,305,296,273,260,243,225,183,164,146,134,116,113,113,113,113,113,113,113,113,113,110,91],"timestamp_mouse":[15,37,55,74,94,116,134,156,174,195,215,236,254,274,296,315,334,356,376,394,414,435,455,476,496,514,536,556,575,594,615,635,655,676,696,715,735,755,775,796,814,835,856,875,894,914,936,954,974,994,1015,1036,1056,1075,1094,1116,1135,1154,1175,1195,1216,1236,1255,1275,1296,1315,1335,1355,1374,1395,1416,1436,1455,1475,1495,1516,1535,1554,1576,1595,1616,1636,1656,1674,1695,1714,1735,1755,1775,1794,1815,1834,1855,1875,1896,1914,1935,1954,1975,1995,2016,2035,2055,2074,2095,2116,2134,2155,2175,2196,2215,2235,2254,2274,2295,2316,2334,2354,2374,2395,2415,2435,2455,2475,2495,2514,2535,2555,2575,2594,2614,2634,2656,2675,2696,2716,2734,2755,2774,2794,2816,2835,2855,2876,2894,2914,2935,2956,2976,2995,3014,3035,3055,3075,3095,3115,3134,3155,3175,3195,3216,3234,3254,3275,3296,3315,3335,3355,3374,3394,3415,3434,3455,3475,3495,3514,3534,3554,3574,3594,3614,3634,3654,3675,3695,3716,3735,3756,3775,3794,3815,3834,3854,3876,3896,3915,3934],"xSR":741.5,"ySR":573.95,"xT1":424.9,"yT1":0,"xT2":1058.1,"yT2":0,"toosoon":0,"cond_shown":"Congruent","ratio_trial":200,"L_num":3,"L_den":6,"R_num":14,"R_den":20,"correct_side":2,"subjID":"samuelmolina9","gender":"0","school":"4","age":"9"},{"start_time":1552054315765,"click_time":1552054317999,"finger_time":1552054317477,"fix_duration":985.1201028300184,"trial":29,"RT":1712,"MT":522,"sideResp":1,"stimulus":[],"xmouse":[799,797,797,797,797,797,797,797,797,797,797,797,797,797,797,797,797,797,797,797,797,797,797,797,797,797,797,797,797,797,797,797,797,797,797,797,797,797,797,797,797,797,797,797,797,797,797,797,797,797,797,797,797,797,797,797,797,797,797,797,797,797,797,797,797,797,797,797,797,797,797,797,797,797,797,797,797,797,797,797,797,797,797,794,777,767,749,730,710,675,660,643,630,622,613,613,613,616,619,621,617,609,603,597,585,569,552,530,510,466,442],"ymouse":[595,593,593,593,593,593,593,593,593,593,593,593,593,593,593,593,593,593,593,593,593,593,593,593,593,593,593,593,593,593,593,593,593,593,593,593,593,593,593,593,593,593,593,593,593,593,593,593,593,593,593,593,593,593,593,593,593,593,593,593,593,593,593,593,593,593,593,593,593,593,593,593,593,593,593,593,593,593,593,593,593,593,592,587,568,555,539,524,507,471,453,433,417,403,375,357,333,305,267,212,190,172,161,156,154,154,152,148,140,109,87],"timestamp_mouse":[39,53,73,93,112,133,153,172,193,213,232,252,272,293,312,333,352,374,393,413,432,453,473,492,513,533,553,573,593,612,634,652,672,692,714,734,753,773,794,813,832,853,873,894,913,934,952,973,994,1012,1033,1053,1072,1093,1114,1133,1153,1174,1192,1213,1232,1253,1273,1294,1313,1333,1354,1373,1392,1412,1433,1454,1473,1493,1512,1533,1554,1572,1592,1614,1633,1653,1672,1692,1712,1732,1752,1772,1792,1813,1832,1852,1872,1893,1912,1932,1952,1974,1993,2013,2034,2053,2073,2093,2112,2134,2154,2173,2194,2213,2234],"xSR":741.5,"ySR":573.95,"xT1":424.9,"yT1":0,"xT2":1058.1,"yT2":0,"toosoon":0,"cond_shown":"Incongruent","ratio_trial":200,"L_num":7,"L_den":10,"R_num":8,"R_den":16,"correct_side":1,"subjID":"samuelmolina9","gender":"0","school":"4","age":"9"},{"start_time":1552054319490,"click_time":1552054321858,"finger_time":1552054321279,"fix_duration":250,"trial":30,"RT":1789,"MT":579,"sideResp":1,"stimulus":[],"xmouse":[780,780,780,780,780,780,780,780,780,780,780,780,780,780,780,780,780,780,780,780,780,780,780,780,780,780,780,780,780,780,780,780,780,780,780,780,780,780,780,780,780,780,780,780,780,780,780,780,780,780,780,780,780,780,780,780,780,780,780,780,780,780,780,780,780,780,780,780,780,780,780,780,780,780,780,780,780,780,780,780,780,780,780,780,780,780,780,780,780,762,744,727,712,701,694,671,660,650,646,631,624,619,615,609,598,563,534,523,515,509,509,509,509,509,508,507,507,505,504],"ymouse":[586,586,586,586,586,586,586,586,586,586,586,586,586,586,586,586,586,586,586,586,586,586,586,586,586,586,586,586,586,586,586,586,586,586,586,586,586,586,586,586,586,586,586,586,586,586,586,586,586,586,586,586,586,586,586,586,586,586,586,586,586,586,586,586,586,586,586,586,586,586,586,586,586,586,586,586,586,586,586,586,586,586,586,586,586,586,586,586,580,553,532,511,493,477,463,423,405,384,366,331,317,305,296,280,258,191,150,134,122,115,115,115,115,115,113,108,106,102,99],"timestamp_mouse":[14,36,47,67,87,109,127,147,168,187,209,227,247,269,287,309,329,349,369,387,407,427,448,468,487,507,528,547,568,588,607,627,648,668,688,708,727,747,768,788,809,829,849,868,888,907,928,948,967,988,1008,1028,1049,1067,1088,1108,1129,1149,1169,1188,1208,1228,1249,1267,1287,1308,1329,1348,1368,1389,1408,1427,1448,1468,1489,1507,1527,1549,1567,1588,1608,1629,1649,1667,1687,1709,1728,1748,1768,1789,1808,1827,1847,1867,1889,1907,1927,1947,1967,1989,2008,2029,2048,2067,2087,2108,2127,2147,2167,2189,2207,2228,2249,2267,2289,2307,2327,2347,2367],"xSR":741.5,"ySR":573.95,"xT1":424.9,"yT1":0,"xT2":1058.1,"yT2":0,"toosoon":0,"cond_shown":"Incongruent","ratio_trial":100,"L_num":3,"L_den":5,"R_num":11,"R_den":22,"correct_side":1,"subjID":"samuelmolina9","gender":"0","school":"4","age":"9"},{"start_time":1552054323283,"click_time":1552054326558,"finger_time":1552054325078,"fix_duration":304.28386277722973,"trial":31,"RT":1795,"MT":1480,"sideResp":1,"stimulus":[],"xmouse":[814,814,814,814,814,814,814,814,814,814,814,814,814,814,814,814,814,814,814,814,814,814,814,814,814,814,814,814,814,814,814,814,814,814,814,814,814,814,814,814,814,814,814,814,814,814,814,814,814,814,814,814,814,814,814,814,814,814,814,814,814,814,814,814,814,814,814,814,814,814,814,814,814,814,814,814,814,814,814,814,814,814,814,814,814,814,814,814,814,814,810,808,806,805,802,798,797,795,793,790,785,783,782,779,770,760,756,752,748,742,723,713,702,690,681,649,641,632,626,623,619,617,614,610,602,562,551,540,536,536,534,534,534,534,534,534,534,534,534,543,566,570,570,570,570,568,561,560,560,560,560,560,560,558,557,556,556,556,556,556,555,549,536,515],"ymouse":[590,590,590,590,590,590,590,590,590,590,590,590,590,590,590,590,590,590,590,590,590,590,590,590,590,590,590,590,590,590,590,590,590,590,590,590,590,590,590,590,590,590,590,590,590,590,590,590,590,590,590,590,590,590,590,590,590,590,590,590,590,590,590,590,590,590,590,590,590,590,590,590,590,590,590,590,590,590,590,590,590,590,590,590,590,590,590,584,577,571,556,549,544,540,534,515,504,492,478,463,446,440,433,416,386,354,341,327,313,298,261,241,220,197,177,109,95,82,76,73,72,72,71,71,71,77,78,78,78,78,78,78,78,78,78,78,78,78,79,86,96,96,96,96,96,96,96,96,96,96,96,96,96,96,96,96,96,96,96,96,96,93,87,76],"timestamp_mouse":[15,44,55,76,94,114,136,154,174,195,214,235,255,274,295,314,335,354,376,395,415,434,456,476,495,514,535,556,575,596,615,634,655,674,696,716,735,755,775,796,814,835,854,876,896,915,935,956,976,995,1015,1034,1054,1075,1096,1115,1134,1156,1175,1196,1214,1235,1256,1275,1294,1315,1334,1356,1376,1394,1415,1435,1455,1475,1496,1516,1535,1554,1575,1596,1615,1634,1656,1674,1694,1715,1736,1755,1775,1795,1814,1834,1854,1876,1895,1915,1936,1955,1974,1994,2014,2034,2056,2075,2094,2114,2135,2155,2175,2196,2215,2235,2255,2274,2294,2314,2336,2355,2374,2394,2415,2435,2455,2476,2494,2514,2534,2555,2576,2596,2615,2636,2656,2674,2694,2715,2736,2756,2774,2795,2814,2836,2855,2875,2894,2914,2935,2955,2976,2995,3016,3034,3054,3076,3096,3116,3135,3154,3175,3195,3215,3234,3254,3275],"xSR":741.5,"ySR":573.95,"xT1":424.9,"yT1":0,"xT2":1058.1,"yT2":0,"toosoon":0,"cond_shown":"Congruent","ratio_trial":200,"L_num":5,"L_den":10,"R_num":14,"R_den":20,"correct_side":2,"subjID":"samuelmolina9","gender":"0","school":"4","age":"9"},{"start_time":1552054328348,"click_time":1552054330357,"finger_time":1552054329657,"fix_duration":609.6075379924857,"trial":32,"RT":1309,"MT":700,"sideResp":2,"stimulus":[],"xmouse":[799,799,799,799,799,799,799,799,799,798,798,798,798,798,798,798,798,798,798,798,798,798,798,798,798,798,798,798,798,798,798,798,798,798,798,798,798,798,798,798,798,798,798,798,798,798,798,798,798,798,798,798,798,798,798,798,798,798,798,798,798,798,798,798,800,808,816,833,839,842,847,851,855,864,868,874,881,892,898,903,911,922,940,956,968,978,987,990,990,990,990,990,992,1002,1008,1014,1022,1041,1048,1052,1060],"ymouse":[593,593,593,593,593,593,593,593,593,593,593,593,592,592,591,591,590,590,590,590,590,590,590,590,590,590,590,590,590,590,590,590,590,590,590,590,590,590,590,590,590,590,590,590,590,590,590,590,590,590,590,590,590,590,590,590,590,590,590,590,590,590,590,585,576,558,531,469,446,428,403,387,374,353,344,335,321,297,284,270,253,230,202,182,162,138,119,102,102,102,102,104,106,107,107,107,107,103,101,97,89],"timestamp_mouse":[12,38,50,70,89,109,131,149,170,189,211,230,250,271,290,310,329,351,371,391,409,430,451,471,490,510,531,551,571,590,610,630,650,671,691,710,730,751,771,789,810,831,851,870,891,909,930,951,970,991,1010,1029,1050,1070,1090,1110,1129,1149,1170,1191,1211,1230,1251,1270,1290,1309,1330,1351,1370,1390,1410,1430,1450,1470,1490,1510,1530,1550,1569,1589,1610,1630,1650,1669,1690,1709,1730,1750,1769,1791,1810,1831,1849,1871,1891,1911,1931,1950,1969,1990,2009],"xSR":741.5,"ySR":573.95,"xT1":424.9,"yT1":0,"xT2":1058.1,"yT2":0,"toosoon":0,"cond_shown":"Incongruent","ratio_trial":300,"L_num":13,"L_den":26,"R_num":12,"R_den":15,"correct_side":2,"subjID":"samuelmolina9","gender":"0","school":"4","age":"9"},{"start_time":1552054332129,"click_time":1552054334702,"finger_time":1552054334038,"fix_duration":788.330530817715,"trial":33,"RT":1909,"MT":664,"sideResp":2,"stimulus":[],"xmouse":[770,770,770,770,770,770,770,770,770,770,770,770,770,770,770,770,770,770,770,770,770,770,770,770,770,770,770,770,770,770,770,770,770,770,770,770,770,770,770,770,770,770,770,770,770,770,770,770,770,770,770,770,770,770,770,770,770,770,770,770,770,770,770,770,770,770,770,770,770,770,770,770,770,770,770,770,770,770,770,770,770,770,770,770,770,770,770,770,770,770,770,770,773,776,807,842,885,912,929,955,975,988,996,1003,1014,1019,1024,1028,1031,1037,1040,1043,1048,1051,1058,1060,1061,1061,1061,1061,1061,1061,1061,1061,1061,1061,1061,1061,1062],"ymouse":[622,622,622,622,622,622,622,622,622,622,622,622,622,622,622,622,622,622,622,622,622,622,622,622,622,622,622,622,622,622,622,622,622,622,622,622,622,622,622,622,622,622,622,622,622,622,622,622,622,622,622,622,622,622,622,622,622,622,622,622,622,622,622,622,622,622,622,622,622,622,622,622,622,622,622,622,622,622,622,622,622,622,622,622,622,622,622,622,622,622,622,622,619,616,604,594,576,559,540,501,480,467,452,436,404,390,378,364,353,310,284,257,229,199,155,139,131,128,127,121,118,117,117,117,117,115,112,109,98],"timestamp_mouse":[13,36,50,68,89,110,129,150,169,189,208,228,248,269,290,308,328,348,369,389,410,430,449,468,489,509,530,550,568,590,609,629,649,668,689,710,729,749,770,789,810,830,848,869,890,909,928,949,969,989,1010,1029,1050,1068,1090,1109,1129,1150,1170,1189,1208,1229,1249,1269,1289,1309,1330,1348,1368,1388,1410,1430,1448,1468,1490,1510,1530,1549,1568,1590,1610,1630,1649,1669,1688,1709,1729,1750,1770,1788,1810,1829,1849,1868,1888,1909,1929,1950,1969,1989,2010,2030,2048,2068,2090,2108,2128,2150,2169,2188,2209,2229,2250,2269,2290,2309,2328,2349,2368,2388,2408,2430,2448,2470,2488,2510,2528,2548,2573],"xSR":741.5,"ySR":573.95,"xT1":424.9,"yT1":0,"xT2":1058.1,"yT2":0,"toosoon":0,"cond_shown":"Congruent","ratio_trial":100,"L_num":3,"L_den":20,"R_num":4,"R_den":16,"correct_side":2,"subjID":"samuelmolina9","gender":"0","school":"4","age":"9"},{"start_time":1552054337242,"click_time":1552054340898,"finger_time":1552054339478,"fix_duration":1443.3708960418205,"trial":34,"RT":2236,"MT":1420,"sideResp":1,"stimulus":[],"xmouse":[819,819,819,819,819,819,819,819,819,819,819,819,819,819,819,819,819,819,819,819,819,819,819,819,819,819,819,819,819,819,819,819,819,819,819,819,819,819,819,819,819,819,819,819,819,819,819,819,819,819,819,819,819,819,819,819,819,819,819,819,819,819,819,819,819,819,819,819,819,819,819,819,819,819,819,819,819,819,819,819,819,819,819,819,819,819,819,819,819,819,819,819,819,819,819,820,820,818,817,816,816,816,815,814,814,814,814,814,814,814,814,812,811,809,807,807,807,806,806,806,806,806,806,806,806,806,806,806,806,806,806,806,806,806,805,805,804,804,802,800,797,795,793,783,779,775,771,762,753,731,713,700,687,665,656,645,637,632,628,624,619,617,616,611,599,595,591,589,589,589,589,589,589,589,586,576,558,541,527,518,517,517,516],"ymouse":[615,615,615,615,615,615,615,615,615,615,615,615,615,615,615,615,615,615,615,615,615,615,615,615,615,615,615,615,615,615,615,615,615,615,615,615,615,615,615,615,615,615,615,615,615,615,615,615,615,615,615,615,615,615,615,615,615,615,615,615,615,615,615,615,615,615,615,615,615,615,615,615,615,615,615,615,615,615,615,615,615,615,615,615,615,615,615,615,615,615,615,615,615,615,615,610,606,599,593,588,586,584,583,581,581,581,581,581,581,579,577,571,568,566,561,560,560,559,559,559,559,559,559,559,559,557,556,554,551,545,540,535,532,529,522,521,520,517,514,509,503,499,492,469,455,440,427,410,394,368,347,331,315,285,271,256,242,230,219,201,188,181,175,164,146,141,136,134,134,134,134,134,134,134,131,127,120,112,106,100,100,100,99],"timestamp_mouse":[15,43,56,76,96,115,136,157,175,196,217,237,256,277,296,316,335,356,375,397,416,437,456,476,495,517,536,557,576,596,615,636,655,676,69