[{"start_time":1552054964471,"click_time":1552054968702,"finger_time":1552054964482,"fix_duration":623.3202018363654,"trial":0,"RT":11,"MT":4220,"sideResp":2,"stimulus":"img/900/randomdotsizeEA/L/4_Ratio_900_L_20_R_18.png","xmouse":[790,790,790,790,790,790,790,790,790,790,790,790,790,790,790,790,790,790,790,790,790,790,790,790,790,790,790,789,787,787,787,787,786,786,785,784,783,782,781,781,781,781,781,781,781,781,781,781,781,781,781,781,781,781,781,781,781,781,781,781,781,780,779,778,778,778,778,778,778,778,778,778,778,778,778,778,778,778,778,778,778,778,778,778,778,778,779,779,779,779,779,779,779,779,779,779,779,779,779,779,779,779,779,779,779,779,779,779,779,779,779,779,779,779,779,779,779,779,779,779,779,779,779,779,779,779,779,779,779,779,779,779,779,779,779,779,779,779,779,779,779,779,779,779,779,779,779,779,779,779,779,779,779,779,779,779,779,780,783,790,793,794,796,797,799,800,801,804,808,829,839,849,860,874,884,895,905,920,940,963,975,986,994,1003,1005,1007,1010,1013,1021,1028,1036,1042,1045,1048,1049,1055,1060,1065,1070,1071,1071,1071,1071,1071,1071,1071,1073,1076,1080,1080,1081,1083],"ymouse":[547,547,547,547,547,547,547,547,547,547,547,547,547,547,547,547,547,547,547,547,547,547,547,547,547,547,552,559,574,574,574,574,575,575,575,577,580,581,583,583,583,583,583,583,583,583,583,583,583,583,583,583,583,583,583,583,583,583,583,583,582,582,588,589,589,589,589,589,591,594,595,595,595,598,601,603,603,603,603,603,603,603,603,603,603,603,603,603,603,603,603,603,603,603,603,603,603,603,603,603,603,603,603,603,603,603,603,603,603,603,603,603,603,603,603,603,603,603,603,603,603,603,603,603,603,603,603,603,603,603,603,603,603,603,603,603,603,603,603,603,603,603,603,603,603,603,603,603,603,603,603,603,603,603,603,603,603,601,597,586,580,578,576,573,571,568,564,558,549,514,498,482,468,449,438,426,415,403,381,348,327,308,289,266,259,251,243,235,221,209,198,191,186,180,177,168,156,146,132,127,127,127,127,127,127,126,122,117,108,105,101,97],"timestamp_mouse":[11,31,51,71,90,111,131,151,170,191,210,232,251,272,291,312,331,351,371,391,411,432,452,472,491,512,531,551,571,591,612,632,651,671,691,710,731,751,771,792,810,830,851,872,891,912,931,950,972,992,1011,1031,1050,1071,1092,1112,1131,1150,1171,1191,1211,1231,1250,1271,1291,1311,1330,1352,1371,1392,1412,1431,1450,1470,1491,1511,1530,1551,1571,1591,1610,1631,1652,1670,1690,1710,1732,1750,1770,1791,1811,1831,1851,1870,1891,1911,1931,1950,1972,1992,2011,2032,2052,2072,2091,2110,2132,2151,2170,2191,2210,2231,2252,2272,2291,2312,2331,2350,2372,2392,2412,2431,2452,2471,2491,2510,2531,2551,2571,2592,2612,2630,2651,2670,2690,2711,2732,2752,2772,2791,2811,2832,2851,2870,2892,2912,2932,2952,2971,2991,3012,3031,3050,3072,3091,3110,3132,3152,3170,3192,3211,3230,3252,3271,3290,3311,3330,3350,3370,3390,3411,3431,3450,3471,3490,3511,3530,3551,3570,3590,3611,3630,3650,3670,3691,3711,3731,3752,3771,3790,3811,3831,3851,3871,3890,3910,3930,3951,3972,3991,4011,4031,4051,4071,4090,4110,4130,4150,4171,4190,4211,4230],"xSR":741.5,"ySR":501.8,"xT1":424.9,"yT1":0,"xT2":1058.1,"yT2":0,"toosoon":0,"cond_shown":"randomdotsizeEA","ratio_trial":900,"smaller_num":"18","larger_num":"20","correct_side":1,"subjID":"samuelmolina9","gender":"0","age":"9","school":"4","test":{"fix_dur":[250,1500],"timestim":300,"targets_dim":[100,100],"targets_relative_coord":[0.3,0.7],"size_stim":[880,420],"start_dim":[100,100],"size_start":[300,300],"size_fix":60,"samplingrate":20,"img_types":["equaldotsize","equaldotanddens","randomdotsizeEA"],"ratios":[250,500,750,900],"rep_conds":9,"nTrials":120,"trials_to_rest":500,"Trials_order":[71,13,56,23,8,24,66,64,89,74,119,22,44,0,61,27,1,29,105,67,32,75,103,28,117,108,69,81,79,54,87,101,80,30,97,59,49,33,11,47,52,99,98,102,15,83,96,78,88,35,114,110,9,77,10,73,109,26,118,42,57,68,5,21,17,20,50,25,84,90,94,112,60,86,76,65,72,7,63,40,39,93,91,12,100,48,14,3,115,53,36,111,113,107,58,18,38,116,82,45,104,46,4,31,34,19,95,6,62,106,92,85,16,51,37,55,70,2,43,41],"cond_shown":["randomdotsizeEA","equaldotanddens","randomdotsizeEA","randomdotsizeEA","randomdotsizeEA","equaldotsize","equaldotsize","equaldotanddens","randomdotsizeEA","randomdotsizeEA","randomdotsizeEA","equaldotanddens","randomdotsizeEA","equaldotsize","equaldotanddens","equaldotsize","equaldotanddens","randomdotsizeEA","equaldotsize","equaldotanddens","randomdotsizeEA","equaldotsize","equaldotanddens","equaldotanddens","equaldotsize","equaldotsize","equaldotsize","equaldotsize","equaldotanddens","equaldotsize","equaldotsize","randomdotsizeEA","randomdotsizeEA","equaldotsize","equaldotanddens","randomdotsizeEA","equaldotanddens","equaldotsize","randomdotsizeEA","randomdotsizeEA","equaldotanddens","equaldotsize","randomdotsizeEA","equaldotsize","equaldotsize","randomdotsizeEA","equaldotsize","equaldotsize","equaldotanddens","randomdotsizeEA","equaldotsize","randomdotsizeEA","equaldotsize","randomdotsizeEA","equaldotanddens","equaldotanddens","equaldotanddens","randomdotsizeEA","equaldotanddens","equaldotsize","equaldotsize","randomdotsizeEA","randomdotsizeEA","equaldotsize","randomdotsizeEA","randomdotsizeEA","randomdotsizeEA","equaldotanddens","equaldotsize","equaldotsize","equaldotanddens","equaldotanddens","equaldotsize","randomdotsizeEA","equaldotanddens","randomdotsizeEA","equaldotsize","equaldotanddens","equaldotsize","equaldotanddens","equaldotsize","equaldotsize","equaldotanddens","equaldotsize","equaldotanddens","equaldotsize","randomdotsizeEA","equaldotsize","equaldotanddens","randomdotsizeEA","equaldotsize","equaldotsize","randomdotsizeEA","randomdotsizeEA","equaldotanddens","equaldotsize","randomdotsizeEA","randomdotsizeEA","equaldotanddens","equaldotsize","randomdotsizeEA","equaldotanddens","equaldotanddens","equaldotanddens","equaldotanddens","equaldotanddens","randomdotsizeEA","equaldotsize","randomdotsizeEA","equaldotanddens","randomdotsizeEA","equaldotanddens","equaldotanddens","equaldotsize","equaldotanddens","equaldotanddens","equaldotanddens","randomdotsizeEA","equaldotanddens","randomdotsizeEA"],"ratio_trial":[900,250,750,900,750,250,750,500,500,250,900,900,750,250,250,500,250,500,900,750,750,500,750,500,900,250,900,900,750,750,500,500,750,750,250,900,250,900,900,900,500,500,250,750,500,900,250,750,500,900,750,250,900,500,900,250,250,250,900,750,900,750,500,900,500,750,250,250,250,750,900,500,250,250,500,500,250,750,500,500,500,900,750,250,500,250,250,500,750,500,250,500,500,900,900,750,250,750,900,900,750,900,500,750,900,750,900,750,250,900,750,250,500,500,250,750,900,250,750,500],"smaller_num":["18","4","3","9","12","4","15","6","1","2","18","9","12","2","3","5","4","9","9","3","6","4","12","4","9","3","9","18","6","15","1","2","18","15","6","18","2","18","18","9","4","2","3","15","2","18","6","9","1","9","15","2","18","1","18","3","3","3","9","3","9","3","10","9","2","3","3","3","2","6","18","2","6","5","9","10","2","15","6","5","2","9","18","3","3","6","3","9","3","5","2","6","9","18","18","9","3","15","9","18","3","9","4","9","18","3","18","15","5","18","3","4","2","9","4","6","18","6","6","9"],"larger_num":["20","16","4","10","16","16","20","12","2","8","20","10","16","8","12","10","16","18","10","4","8","8","16","8","10","12","10","20","8","20","2","4","24","20","24","20","8","20","20","10","8","4","12","20","4","20","24","12","2","10","20","8","20","2","20","12","12","12","10","4","10","4","20","10","4","4","12","12","8","8","20","4","24","20","18","20","8","20","12","10","4","10","24","12","6","24","12","18","4","10","8","12","18","20","20","12","12","20","10","20","4","10","8","12","20","4","20","20","20","20","4","16","4","18","16","8","20","24","8","18"],"correct_side":[1,2,2,2,2,1,2,1,2,1,1,2,2,1,2,2,2,2,1,2,1,1,2,1,2,2,2,2,1,2,2,2,1,1,2,2,1,1,1,2,1,1,2,2,1,1,1,2,2,1,2,1,1,2,1,2,2,1,1,1,1,1,2,1,1,1,2,2,1,2,2,1,2,2,1,2,2,2,1,1,2,1,1,1,2,1,2,2,1,2,2,1,2,1,1,2,1,2,2,1,2,2,1,2,1,2,2,2,2,1,2,1,1,2,1,1,1,2,1,2],"img_shown":["img/900/randomdotsizeEA/L/4_Ratio_900_L_20_R_18.png","img/250/equaldotanddens/R/10_Ratio_250_L_4_R_16.png","img/750/randomdotsizeEA/R/12_Ratio_750_L_3_R_4.png","img/900/randomdotsizeEA/R/6_Ratio_900_L_9_R_10.png","img/750/randomdotsizeEA/R/11_Ratio_750_L_12_R_16.png","img/250/equaldotsize/L/2_Ratio_250_L_16_R_4.png","img/750/equaldotsize/R/4_Ratio_750_L_15_R_20.png","img/500/equaldotanddens/L/11_Ratio_500_L_12_R_6.png","img/500/randomdotsizeEA/R/15_Ratio_500_L_1_R_2.png","img/250/randomdotsizeEA/L/3_Ratio_250_L_8_R_2.png","img/900/randomdotsizeEA/L/8_Ratio_900_L_20_R_18.png","img/900/equaldotanddens/R/6_Ratio_900_L_9_R_10.png","img/750/randomdotsizeEA/R/11_Ratio_750_L_12_R_16.png","img/250/equaldotsize/L/3_Ratio_250_L_8_R_2.png","img/250/equaldotanddens/R/4_Ratio_250_L_3_R_12.png","img/500/equaldotsize/R/14_Ratio_500_L_5_R_10.png","img/250/equaldotanddens/R/10_Ratio_250_L_4_R_16.png","img/500/randomdotsizeEA/R/1_Ratio_500_L_9_R_18.png","img/900/equaldotsize/L/1_Ratio_900_L_10_R_9.png","img/750/equaldotanddens/R/7_Ratio_750_L_3_R_4.png","img/750/randomdotsizeEA/L/14_Ratio_750_L_8_R_6.png","img/500/equaldotsize/L/8_Ratio_500_L_8_R_4.png","img/750/equaldotanddens/R/11_Ratio_750_L_12_R_16.png","img/500/equaldotanddens/L/8_Ratio_500_L_8_R_4.png","img/900/equaldotsize/R/5_Ratio_900_L_9_R_10.png","img/250/equaldotsize/R/11_Ratio_250_L_3_R_12.png","img/900/equaldotsize/R/15_Ratio_900_L_9_R_10.png","img/900/equaldotsize/R/13_Ratio_900_L_18_R_20.png","img/750/equaldotanddens/L/14_Ratio_750_L_8_R_6.png","img/750/equaldotsize/R/4_Ratio_750_L_15_R_20.png","img/500/equaldotsize/R/15_Ratio_500_L_1_R_2.png","img/500/randomdotsizeEA/R/9_Ratio_500_L_2_R_4.png","img/750/randomdotsizeEA/L/6_Ratio_750_L_24_R_18.png","img/750/equaldotsize/L/1_Ratio_750_L_20_R_15.png","img/250/equaldotanddens/R/6_Ratio_250_L_6_R_24.png","img/900/randomdotsizeEA/R/13_Ratio_900_L_18_R_20.png","img/250/equaldotanddens/L/3_Ratio_250_L_8_R_2.png","img/900/equaldotsize/L/4_Ratio_900_L_20_R_18.png","img/900/randomdotsizeEA/L/4_Ratio_900_L_20_R_18.png","img/900/randomdotsizeEA/R/7_Ratio_900_L_9_R_10.png","img/500/equaldotanddens/L/8_Ratio_500_L_8_R_4.png","img/500/equaldotsize/L/10_Ratio_500_L_4_R_2.png","img/250/randomdotsizeEA/R/11_Ratio_250_L_3_R_12.png","img/750/equaldotsize/R/4_Ratio_750_L_15_R_20.png","img/500/equaldotsize/L/5_Ratio_500_L_4_R_2.png","img/900/randomdotsizeEA/L/8_Ratio_900_L_20_R_18.png","img/250/equaldotsize/L/5_Ratio_250_L_24_R_6.png","img/750/equaldotsize/R/15_Ratio_750_L_9_R_12.png","img/500/equaldotanddens/R/12_Ratio_500_L_1_R_2.png","img/900/randomdotsizeEA/L/1_Ratio_900_L_10_R_9.png","img/750/equaldotsize/R/4_Ratio_750_L_15_R_20.png","img/250/randomdotsizeEA/L/1_Ratio_250_L_8_R_2.png","img/900/equaldotsize/L/8_Ratio_900_L_20_R_18.png","img/500/randomdotsizeEA/R/15_Ratio_500_L_1_R_2.png","img/900/equaldotanddens/L/8_Ratio_900_L_20_R_18.png","img/250/equaldotanddens/R/9_Ratio_250_L_3_R_12.png","img/250/equaldotanddens/R/9_Ratio_250_L_3_R_12.png","img/250/randomdotsizeEA/L/14_Ratio_250_L_12_R_3.png","img/900/equaldotanddens/L/1_Ratio_900_L_10_R_9.png","img/750/equaldotsize/L/10_Ratio_750_L_4_R_3.png","img/900/equaldotsize/L/1_Ratio_900_L_10_R_9.png","img/750/randomdotsizeEA/L/9_Ratio_750_L_4_R_3.png","img/500/randomdotsizeEA/R/3_Ratio_500_L_10_R_20.png","img/900/equaldotsize/L/1_Ratio_900_L_10_R_9.png","img/500/randomdotsizeEA/L/10_Ratio_500_L_4_R_2.png","img/750/randomdotsizeEA/L/10_Ratio_750_L_4_R_3.png","img/250/randomdotsizeEA/R/11_Ratio_250_L_3_R_12.png","img/250/equaldotanddens/R/9_Ratio_250_L_3_R_12.png","img/250/equaldotsize/L/7_Ratio_250_L_8_R_2.png","img/750/equaldotsize/R/2_Ratio_750_L_6_R_8.png","img/900/equaldotanddens/R/12_Ratio_900_L_18_R_20.png","img/500/equaldotanddens/L/10_Ratio_500_L_4_R_2.png","img/250/equaldotsize/R/6_Ratio_250_L_6_R_24.png","img/250/randomdotsizeEA/R/12_Ratio_250_L_5_R_20.png","img/500/equaldotanddens/L/4_Ratio_500_L_18_R_9.png","img/500/randomdotsizeEA/R/3_Ratio_500_L_10_R_20.png","img/250/equaldotsize/R/13_Ratio_250_L_2_R_8.png","img/750/equaldotanddens/R/3_Ratio_750_L_15_R_20.png","img/500/equaldotsize/L/13_Ratio_500_L_12_R_6.png","img/500/equaldotanddens/L/7_Ratio_500_L_10_R_5.png","img/500/equaldotsize/R/9_Ratio_500_L_2_R_4.png","img/900/equaldotsize/L/1_Ratio_900_L_10_R_9.png","img/750/equaldotanddens/L/6_Ratio_750_L_24_R_18.png","img/250/equaldotsize/L/14_Ratio_250_L_12_R_3.png","img/500/equaldotanddens/R/2_Ratio_500_L_3_R_6.png","img/250/equaldotsize/L/5_Ratio_250_L_24_R_6.png","img/250/randomdotsizeEA/R/9_Ratio_250_L_3_R_12.png","img/500/equaldotsize/R/1_Ratio_500_L_9_R_18.png","img/750/equaldotanddens/L/9_Ratio_750_L_4_R_3.png","img/500/randomdotsizeEA/R/14_Ratio_500_L_5_R_10.png","img/250/equaldotsize/R/13_Ratio_250_L_2_R_8.png","img/500/equaldotsize/L/13_Ratio_500_L_12_R_6.png","img/500/randomdotsizeEA/R/1_Ratio_500_L_9_R_18.png","img/900/randomdotsizeEA/L/2_Ratio_900_L_20_R_18.png","img/900/equaldotanddens/L/2_Ratio_900_L_20_R_18.png","img/750/equaldotsize/R/15_Ratio_750_L_9_R_12.png","img/250/randomdotsizeEA/L/15_Ratio_250_L_12_R_3.png","img/750/randomdotsizeEA/R/3_Ratio_750_L_15_R_20.png","img/900/equaldotanddens/R/3_Ratio_900_L_9_R_10.png","img/900/equaldotsize/L/4_Ratio_900_L_20_R_18.png","img/750/randomdotsizeEA/R/12_Ratio_750_L_3_R_4.png","img/900/equaldotanddens/R/7_Ratio_900_L_9_R_10.png","img/500/equaldotanddens/L/8_Ratio_500_L_8_R_4.png","img/750/equaldotanddens/R/15_Ratio_750_L_9_R_12.png","img/900/equaldotanddens/L/2_Ratio_900_L_20_R_18.png","img/750/equaldotanddens/R/7_Ratio_750_L_3_R_4.png","img/900/randomdotsizeEA/R/13_Ratio_900_L_18_R_20.png","img/750/equaldotsize/R/3_Ratio_750_L_15_R_20.png","img/250/randomdotsizeEA/R/12_Ratio_250_L_5_R_20.png","img/900/equaldotanddens/L/8_Ratio_900_L_20_R_18.png","img/750/randomdotsizeEA/R/7_Ratio_750_L_3_R_4.png","img/250/equaldotanddens/L/2_Ratio_250_L_16_R_4.png","img/500/equaldotanddens/L/10_Ratio_500_L_4_R_2.png","img/500/equaldotsize/R/6_Ratio_500_L_9_R_18.png","img/250/equaldotanddens/L/2_Ratio_250_L_16_R_4.png","img/750/equaldotanddens/L/14_Ratio_750_L_8_R_6.png","img/900/equaldotanddens/L/10_Ratio_900_L_20_R_18.png","img/250/randomdotsizeEA/R/6_Ratio_250_L_6_R_24.png","img/750/equaldotanddens/L/14_Ratio_750_L_8_R_6.png","img/500/randomdotsizeEA/R/6_Ratio_500_L_9_R_18.png"],"Rat0":[["12_Ratio_0_L_9_R_0.png","13_Ratio_0_L_6_R_0.png","5_Ratio_0_L_2_R_0.png","6_Ratio_0_L_4_R_0.png","8_Ratio_0_L_6_R_0.png"],["1_Ratio_0_L_0_R_17.png","10_Ratio_0_L_0_R_22.png","11_Ratio_0_L_0_R_1.png","14_Ratio_0_L_0_R_24.png","15_Ratio_0_L_0_R_4.png","2_Ratio_0_L_0_R_5.png","3_Ratio_0_L_0_R_17.png","4_Ratio_0_L_0_R_7.png","7_Ratio_0_L_0_R_19.png","9_Ratio_0_L_0_R_15.png"]],"Rat250":[["1_Ratio_250_L_8_R_2.png","14_Ratio_250_L_12_R_3.png","15_Ratio_250_L_12_R_3.png","2_Ratio_250_L_16_R_4.png","3_Ratio_250_L_8_R_2.png","5_Ratio_250_L_24_R_6.png","7_Ratio_250_L_8_R_2.png"],["10_Ratio_250_L_4_R_16.png","11_Ratio_250_L_3_R_12.png","12_Ratio_250_L_5_R_20.png","13_Ratio_250_L_2_R_8.png","4_Ratio_250_L_3_R_12.png","6_Ratio_250_L_6_R_24.png","8_Ratio_250_L_1_R_4.png","9_Ratio_250_L_3_R_12.png"]],"Rat500":[["10_Ratio_500_L_4_R_2.png","11_Ratio_500_L_12_R_6.png","13_Ratio_500_L_12_R_6.png","4_Ratio_500_L_18_R_9.png","5_Ratio_500_L_4_R_2.png","7_Ratio_500_L_10_R_5.png","8_Ratio_500_L_8_R_4.png"],["1_Ratio_500_L_9_R_18.png","12_Ratio_500_L_1_R_2.png","14_Ratio_500_L_5_R_10.png","15_Ratio_500_L_1_R_2.png","2_Ratio_500_L_3_R_6.png","3_Ratio_500_L_10_R_20.png","6_Ratio_500_L_9_R_18.png","9_Ratio_500_L_2_R_4.png"]],"Rat750":[["1_Ratio_750_L_20_R_15.png","10_Ratio_750_L_4_R_3.png","13_Ratio_750_L_8_R_6.png","14_Ratio_750_L_8_R_6.png","6_Ratio_750_L_24_R_18.png","8_Ratio_750_L_4_R_3.png","9_Ratio_750_L_4_R_3.png"],["11_Ratio_750_L_12_R_16.png","12_Ratio_750_L_3_R_4.png","15_Ratio_750_L_9_R_12.png","2_Ratio_750_L_6_R_8.png","3_Ratio_750_L_15_R_20.png","4_Ratio_750_L_15_R_20.png","5_Ratio_750_L_15_R_20.png","7_Ratio_750_L_3_R_4.png"]],"Rat900":[["1_Ratio_900_L_10_R_9.png","10_Ratio_900_L_20_R_18.png","2_Ratio_900_L_20_R_18.png","4_Ratio_900_L_20_R_18.png","8_Ratio_900_L_20_R_18.png"],["11_Ratio_900_L_18_R_20.png","12_Ratio_900_L_18_R_20.png","13_Ratio_900_L_18_R_20.png","14_Ratio_900_L_18_R_20.png","15_Ratio_900_L_9_R_10.png","3_Ratio_900_L_9_R_10.png","5_Ratio_900_L_9_R_10.png","6_Ratio_900_L_9_R_10.png","7_Ratio_900_L_9_R_10.png","9_Ratio_900_L_18_R_20.png"]],"Rat1000":[["10_Ratio_1000_L_16_R_16.png","11_Ratio_1000_L_6_R_6.png","12_Ratio_1000_L_14_R_14.png","13_Ratio_1000_L_20_R_20.png","15_Ratio_1000_L_15_R_15.png","2_Ratio_1000_L_17_R_17.png","4_Ratio_1000_L_9_R_9.png","5_Ratio_1000_L_6_R_6.png","6_Ratio_1000_L_19_R_19.png","8_Ratio_1000_L_14_R_14.png","9_Ratio_1000_L_25_R_25.png"],["1_Ratio_1000_L_1_R_1.png","14_Ratio_1000_L_17_R_17.png","3_Ratio_1000_L_17_R_17.png","7_Ratio_1000_L_6_R_6.png"]]}},{"start_time":1552054970803,"click_time":1552054973103,"finger_time":1552054972481,"fix_duration":739.7451618221245,"trial":1,"RT":1678,"MT":622,"sideResp":2,"stimulus":"img/250/equaldotanddens/R/10_Ratio_250_L_4_R_16.png","xmouse":[800,799,799,799,799,799,799,799,799,799,799,799,799,799,799,799,799,799,799,799,799,799,799,799,799,799,799,799,799,799,799,799,799,799,799,799,799,799,800,804,804,805,806,806,806,806,806,806,806,806,806,806,806,806,806,806,806,806,806,806,806,806,806,806,806,806,806,806,806,806,806,806,806,806,806,806,806,806,806,806,806,806,806,807,810,814,816,820,831,840,848,857,865,884,896,904,914,923,949,967,987,1006,1016,1030,1035,1037,1037,1040,1041,1042,1042,1042,1043,1050,1059,1076],"ymouse":[605,606,606,606,606,606,606,606,606,606,606,606,606,606,606,606,606,606,606,606,606,606,606,606,606,606,606,606,606,606,606,606,606,606,606,606,606,605,597,586,582,578,578,578,578,578,578,578,578,578,578,578,578,578,578,578,578,578,578,578,578,578,578,578,578,578,578,578,578,578,578,578,578,578,578,578,578,578,578,578,578,578,578,575,570,565,560,556,537,523,509,496,484,456,440,426,406,387,339,309,277,242,217,172,157,147,139,132,131,130,130,130,128,118,105,87],"timestamp_mouse":[1,19,53,59,79,100,118,139,159,179,198,219,240,259,280,298,318,340,358,380,400,419,439,459,480,499,518,539,559,580,600,619,639,660,679,700,718,738,759,780,798,820,840,859,880,900,918,939,959,980,999,1018,1039,1058,1079,1099,1120,1139,1160,1179,1200,1218,1239,1260,1279,1300,1319,1339,1360,1380,1398,1420,1439,1458,1480,1500,1519,1540,1560,1579,1598,1619,1639,1658,1678,1699,1718,1738,1758,1780,1798,1819,1839,1858,1878,1899,1919,1940,1959,1979,1999,2018,2039,2059,2079,2100,2119,2140,2159,2178,2199,2219,2239,2259,2279,2299],"xSR":741.5,"ySR":573.95,"xT1":424.9,"yT1":0,"xT2":1058.1,"yT2":0,"toosoon":0,"cond_shown":"equaldotanddens","ratio_trial":250,"smaller_num":"4","larger_num":"16","correct_side":2,"subjID":"samuelmolina9","gender":"0","age":"9","school":"4"},{"start_time":1552054975185,"click_time":1552054976822,"finger_time":1552054976161,"fix_duration":983.6131992052943,"trial":2,"RT":976,"MT":661,"sideResp":2,"stimulus":"img/750/randomdotsizeEA/R/12_Ratio_750_L_3_R_4.png","xmouse":[788,788,788,789,789,789,789,789,789,789,789,789,789,789,789,789,789,789,789,789,789,789,789,789,789,789,789,789,789,789,789,789,789,789,789,789,789,789,789,789,789,789,789,789,796,800,814,834,868,888,903,924,951,998,1016,1031,1041,1046,1047,1048,1048,1048,1046,1043,1039,1038,1038,1045,1056,1057,1057,1057,1057,1057,1057,1059,1061,1065,1073,1075,1077,1079],"ymouse":[638,638,638,638,638,638,638,638,638,638,638,638,638,638,638,638,638,638,638,638,638,638,638,638,638,638,638,638,638,638,638,638,638,638,638,638,638,638,638,638,638,638,638,638,631,626,611,592,549,520,494,464,432,374,348,329,315,307,301,292,287,280,272,266,245,227,209,175,141,135,134,134,134,134,134,133,131,126,112,106,100,95],"timestamp_mouse":[34,36,57,76,97,118,136,158,176,198,217,236,258,277,297,317,338,357,376,397,418,438,457,477,498,518,537,558,577,598,618,637,656,676,698,718,738,757,778,797,816,838,858,877,896,916,937,958,976,996,1017,1037,1057,1077,1097,1118,1136,1156,1176,1197,1217,1237,1256,1276,1296,1317,1337,1356,1376,1396,1416,1437,1457,1477,1497,1517,1538,1558,1576,1596,1617,1636],"xSR":741.5,"ySR":573.95,"xT1":424.9,"yT1":0,"xT2":1058.1,"yT2":0,"toosoon":0,"cond_shown":"randomdotsizeEA","ratio_trial":750,"smaller_num":"3","larger_num":"4","correct_side":2,"subjID":"samuelmolina9","gender":"0","age":"9","school":"4"},{"start_time":1552054980407,"click_time":1552054981982,"finger_time":1552054981303,"fix_duration":282.9399505730429,"trial":3,"RT":896,"MT":679,"sideResp":1,"stimulus":"img/900/randomdotsizeEA/R/6_Ratio_900_L_9_R_10.png","xmouse":[797,797,797,797,797,797,797,797,797,797,797,797,797,797,797,797,797,797,797,797,797,797,797,797,797,797,797,797,797,797,797,797,797,797,797,797,797,797,797,797,797,797,795,784,767,713,667,612,489,426,382,351,333,315,307,306,306,306,320,333,343,351,357,365,369,372,375,381,390,393,394,394,394,394,396,400,406,412,427],"ymouse":[598,598,598,598,598,598,598,598,598,598,598,598,598,598,598,598,598,598,598,598,598,598,598,598,598,598,598,598,598,598,598,598,598,598,598,598,598,598,598,598,598,598,598,583,560,507,466,424,337,282,222,171,128,78,58,54,52,51,51,51,51,51,51,51,51,51,53,57,62,63,63,63,63,63,63,63,62,62,62],"timestamp_mouse":[14,34,54,75,95,115,136,154,176,195,216,234,254,276,295,315,334,355,376,395,416,434,456,475,496,514,535,556,575,596,615,635,656,676,696,715,734,756,775,796,814,834,855,874,896,914,936,955,974,994,1014,1034,1056,1075,1094,1114,1135,1155,1174,1194,1215,1235,1256,1275,1294,1315,1335,1355,1374,1395,1415,1435,1455,1474,1495,1515,1534,1554,1575],"xSR":741.5,"ySR":573.95,"xT1":424.9,"yT1":0,"xT2":1058.1,"yT2":0,"toosoon":0,"cond_shown":"randomdotsizeEA","ratio_trial":900,"smaller_num":"9","larger_num":"10","correct_side":2,"subjID":"samuelmolina9","gender":"0","age":"9","school":"4"},{"start_time":1552054984732,"click_time":1552054985982,"finger_time":1552054985503,"fix_duration":328.9049359310763,"trial":4,"RT":771,"MT":479,"sideResp":2,"stimulus":"img/750/randomdotsizeEA/R/11_Ratio_750_L_12_R_16.png","xmouse":[806,804,800,799,798,798,798,798,798,798,798,798,798,798,798,798,798,798,798,797,797,797,797,797,797,797,797,797,797,797,797,797,797,798,801,802,806,810,811,814,818,821,828,848,862,876,889,921,934,948,963,983,1031,1050,1061,1072,1086,1094,1098,1101,1104,1110,1118],"ymouse":[612,620,642,650,653,653,653,653,653,653,653,653,653,653,653,653,653,653,653,652,651,650,649,646,645,644,642,642,642,642,642,642,639,634,628,619,608,575,558,538,517,499,469,409,372,330,301,236,216,196,181,169,149,139,132,124,118,117,115,114,112,107,91],"timestamp_mouse":[10,40,49,69,91,111,130,150,170,189,210,231,250,270,290,310,330,349,371,389,410,430,450,469,490,511,530,550,571,589,609,631,650,669,690,710,730,750,771,789,809,829,850,869,890,910,931,950,969,990,1010,1029,1050,1069,1090,1110,1131,1150,1169,1191,1209,1230,1250],"xSR":741.5,"ySR":573.95,"xT1":424.9,"yT1":0,"xT2":1058.1,"yT2":0,"toosoon":0,"cond_shown":"randomdotsizeEA","ratio_trial":750,"smaller_num":"12","larger_num":"16","correct_side":2,"subjID":"samuelmolina9","gender":"0","age":"9","school":"4"},{"start_time":1552054988512,"click_time":1552054989661,"finger_time":1552054989181,"fix_duration":1447.2635584776833,"trial":5,"RT":669,"MT":480,"sideResp":1,"stimulus":"img/250/equaldotsize/L/2_Ratio_250_L_16_R_4.png","xmouse":[802,802,802,802,802,802,802,802,802,802,802,802,802,802,802,802,802,802,802,802,802,802,802,802,802,802,802,802,802,802,801,798,789,775,750,740,734,720,707,666,648,636,631,625,592,536,495,462,441,425,425,425,425,425,432,440,443,465],"ymouse":[610,610,610,610,610,610,610,610,610,610,610,610,610,610,610,610,610,610,610,610,610,610,610,610,610,610,610,610,610,610,611,609,593,573,535,516,501,469,442,371,348,336,329,324,306,268,237,207,187,166,166,166,166,165,148,129,121,90],"timestamp_mouse":[13,38,49,71,91,109,131,151,171,191,209,231,251,271,291,311,330,349,371,389,411,430,450,471,490,511,529,551,570,590,610,630,650,669,690,711,730,749,770,789,809,830,849,871,891,910,929,951,970,989,1010,1030,1049,1070,1090,1110,1130,1149],"xSR":741.5,"ySR":573.95,"xT1":424.9,"yT1":0,"xT2":1058.1,"yT2":0,"toosoon":0,"cond_shown":"equaldotsize","ratio_trial":250,"smaller_num":"4","larger_num":"16","correct_side":1,"subjID":"samuelmolina9","gender":"0","age":"9","school":"4"},{"start_time":1552054992366,"click_time":1552054993402,"finger_time":1552054993042,"fix_duration":321.93405107210947,"trial":6,"RT":676,"MT":360,"sideResp":2,"stimulus":"img/750/equaldotsize/R/4_Ratio_750_L_15_R_20.png","xmouse":[800,800,800,800,800,800,800,800,800,800,800,800,800,800,800,800,800,800,800,800,800,800,800,800,800,800,800,800,800,800,800,811,824,836,845,854,869,889,912,945,965,996,1008,1018,1025,1032,1040,1045,1047,1053,1057,1065],"ymouse":[614,614,614,614,614,614,614,614,614,614,614,614,614,614,614,614,614,614,614,614,614,614,614,614,614,614,614,614,614,614,614,605,585,563,542,522,482,460,440,417,395,319,292,267,246,224,181,159,143,122,107,73],"timestamp_mouse":[20,36,56,77,95,116,136,156,176,197,216,235,255,275,296,316,336,357,375,396,416,436,457,476,497,516,536,556,576,595,616,636,656,676,696,715,736,756,776,797,816,836,856,876,897,916,936,956,976,996,1016,1035],"xSR":741.5,"ySR":573.95,"xT1":424.9,"yT1":0,"xT2":1058.1,"yT2":0,"toosoon":0,"cond_shown":"equaldotsize","ratio_trial":750,"smaller_num":"15","larger_num":"20","correct_side":2,"subjID":"samuelmolina9","gender":"0","age":"9","school":"4"},{"start_time":1552054995045,"click_time":1552054995942,"finger_time":1552054995663,"fix_duration":402.6739639252801,"trial":7,"RT":618,"MT":279,"sideResp":1,"stimulus":"img/500/equaldotanddens/L/11_Ratio_500_L_12_R_6.png","xmouse":[794,794,794,794,794,794,794,794,794,794,794,794,794,794,794,794,794,794,794,794,794,794,794,794,794,794,794,794,794,789,775,747,654,614,590,580,579,579,576,567,550,538,527,525,523],"ymouse":[585,585,585,585,585,585,585,585,585,585,585,585,585,585,585,585,585,585,585,585,585,585,585,585,585,585,585,585,585,582,564,521,397,342,300,273,256,213,190,165,127,100,63,52,49],"timestamp_mouse":[18,40,58,76,97,118,138,158,176,196,217,237,257,278,297,318,337,357,376,398,416,438,458,476,497,518,537,558,576,597,618,637,657,677,697,717,737,757,777,796,816,837,857,877,896],"xSR":741.5,"ySR":573.95,"xT1":424.9,"yT1":0,"xT2":1058.1,"yT2":0,"toosoon":0,"cond_shown":"equaldotanddens","ratio_trial":500,"smaller_num":"6","larger_num":"12","correct_side":1,"subjID":"samuelmolina9","gender":"0","age":"9","school":"4"},{"start_time":1552054997799,"click_time":1552054999161,"finger_time":1552054998381,"fix_duration":894.259020805487,"trial":8,"RT":582,"MT":780,"sideResp":2,"stimulus":"img/500/randomdotsizeEA/R/15_Ratio_500_L_1_R_2.png","xmouse":[816,816,816,816,816,816,816,816,816,816,816,816,816,816,816,816,816,816,816,816,816,816,816,816,816,816,818,825,834,847,851,852,852,852,852,852,852,852,853,855,857,858,858,858,858,858,858,858,858,858,858,858,858,860,869,886,948,986,1021,1065,1080,1088,1089,1090,1096,1103,1111,1111,1110],"ymouse":[648,648,648,648,648,648,648,648,648,648,648,648,648,648,648,648,648,648,648,648,648,648,648,648,648,645,633,618,600,577,568,565,565,565,565,565,565,564,560,556,552,550,550,550,550,550,550,550,550,550,550,550,550,544,529,500,412,362,312,258,234,214,211,208,197,179,132,107,90],"timestamp_mouse":[20,35,43,62,83,104,123,143,163,183,203,224,242,262,284,303,322,342,364,382,402,423,443,464,483,503,522,543,562,582,602,623,643,663,683,703,724,743,762,782,803,823,843,862,883,904,922,943,962,983,1003,1024,1044,1062,1082,1104,1123,1143,1163,1183,1202,1222,1242,1264,1282,1302,1322,1344,1362],"xSR":741.5,"ySR":573.95,"xT1":424.9,"yT1":0,"xT2":1058.1,"yT2":0,"toosoon":0,"cond_shown":"randomdotsizeEA","ratio_trial":500,"smaller_num":"1","larger_num":"2","correct_side":2,"subjID":"samuelmolina9","gender":"0","age":"9","school":"4"},{"start_time":1552055001636,"click_time":1552055002302,"finger_time":1552055002162,"fix_duration":933.8810317739935,"trial":9,"RT":526,"MT":140,"sideResp":1,"stimulus":"img/250/randomdotsizeEA/L/3_Ratio_250_L_8_R_2.png","xmouse":[774,774,774,774,774,774,774,774,774,774,774,774,774,774,774,774,774,774,774,774,774,774,774,774,773,757,733,702,669,634,559,537,522,518],"ymouse":[615,615,615,615,615,615,615,615,615,615,615,615,615,615,615,615,615,615,615,615,615,615,615,615,615,594,564,529,492,449,304,223,146,82],"timestamp_mouse":[12,37,47,65,86,107,126,146,166,185,207,225,245,266,287,306,327,346,367,386,405,427,447,466,486,505,525,546,565,585,605,626,646,666],"xSR":741.5,"ySR":573.95,"xT1":424.9,"yT1":0,"xT2":1058.1,"yT2":0,"toosoon":0,"cond_shown":"randomdotsizeEA","ratio_trial":250,"smaller_num":"2","larger_num":"8","correct_side":1,"subjID":"samuelmolina9","gender":"0","age":"9","school":"4"},{"start_time":1552055004101,"click_time":1552055005462,"finger_time":1552055004842,"fix_duration":657.1724059815307,"trial":10,"RT":741,"MT":620,"sideResp":2,"stimulus":"img/900/randomdotsizeEA/L/8_Ratio_900_L_20_R_18.png","xmouse":[777,777,777,777,777,777,777,777,777,777,777,777,777,777,777,777,777,777,777,777,777,777,777,777,777,777,777,777,777,777,777,777,777,777,777,779,796,816,845,871,904,912,926,934,945,956,965,981,996,1001,1013,1016,1027,1038,1045,1049,1052,1054,1054,1054,1054,1054,1054,1054,1054,1054,1054,1055,1062],"ymouse":[601,601,601,601,601,601,601,601,601,601,601,601,601,601,601,601,601,601,601,601,601,601,601,601,601,601,601,601,601,601,601,601,601,601,601,599,578,557,526,494,439,411,366,342,317,290,261,201,169,160,137,126,116,110,104,96,84,70,68,68,68,68,68,68,68,68,68,67,66],"timestamp_mouse":[13,34,42,61,80,100,120,141,161,181,201,221,240,261,281,300,322,342,362,382,400,422,441,461,481,501,521,540,562,581,602,622,640,661,681,700,722,741,761,780,800,820,842,861,882,901,921,940,960,981,1001,1021,1042,1061,1082,1100,1121,1140,1161,1181,1202,1221,1242,1262,1281,1301,1321,1340,1360],"xSR":741.5,"ySR":573.95,"xT1":424.9,"yT1":0,"xT2":1058.1,"yT2":0,"toosoon":0,"cond_shown":"randomdotsizeEA","ratio_trial":900,"smaller_num":"18","larger_num":"20","correct_side":1,"subjID":"samuelmolina9","gender":"0","age":"9","school":"4"},{"start_time":1552055009362,"click_time":1552055010662,"finger_time":1552055010101,"fix_duration":1058.3876424468153,"trial":11,"RT":739,"MT":561,"sideResp":2,"stimulus":"img/900/equaldotanddens/R/6_Ratio_900_L_9_R_10.png","xmouse":[780,780,780,780,780,780,780,780,780,780,780,780,781,781,781,781,781,781,781,781,781,781,781,781,781,781,783,784,785,786,787,787,788,789,797,806,818,841,876,955,968,968,962,954,953,954,959,963,971,978,979,979,981,989,1024,1035,1039,1041,1041,1041,1042,1051,1055,1055,1055,1060],"ymouse":[624,624,623,623,623,623,623,623,623,623,623,623,622,622,622,622,622,622,622,622,622,622,622,622,622,622,621,620,619,618,617,617,616,616,609,601,590,565,527,410,352,297,230,170,85,41,17,9,0,0,0,0,0,1,13,19,20,21,21,21,21,24,25,25,25,26],"timestamp_mouse":[10,20,45,60,80,99,120,140,160,180,199,219,239,260,281,300,321,339,361,380,401,420,439,460,481,500,519,539,559,580,600,620,640,659,680,701,721,739,760,780,799,820,840,860,879,899,920,939,960,982,999,1021,1039,1059,1080,1099,1120,1139,1160,1181,1201,1221,1240,1260,1280,1300],"xSR":741.5,"ySR":573.95,"xT1":424.9,"yT1":0,"xT2":1058.1,"yT2":0,"toosoon":0,"cond_shown":"equaldotanddens","ratio_trial":900,"smaller_num":"9","larger_num":"10","correct_side":2,"subjID":"samuelmolina9","gender":"0","age":"9","school":"4"},{"start_time":1552055013226,"click_time":1552055014362,"finger_time":1552055013982,"fix_duration":1482.045336519873,"trial":12,"RT":756,"MT":380,"sideResp":2,"stimulus":"img/750/randomdotsizeEA/R/11_Ratio_750_L_12_R_16.png","xmouse":[811,811,811,811,811,811,811,811,811,811,811,811,811,811,811,811,811,811,811,811,811,811,811,811,811,811,811,811,811,811,811,811,811,811,811,812,822,843,854,865,884,894,904,915,930,967,984,1013,1030,1044,1052,1062,1065,1066,1066,1070,1076],"ymouse":[612,612,612,612,612,612,612,612,611,611,611,611,611,611,611,611,611,611,611,611,611,611,611,611,611,611,611,611,611,611,611,611,611,611,611,610,601,581,566,551,516,495,473,448,417,331,286,227,186,156,137,113,108,107,106,101,95],"timestamp_mouse":[16,36,56,75,97,116,135,156,176,196,216,237,257,276,296,316,336,355,377,396,416,437,456,476,497,516,537,555,576,597,617,637,656,677,696,716,735,756,776,797,817,835,856,875,896,917,935,956,976,995,1015,1035,1057,1076,1096,1117,1136],"xSR":741.5,"ySR":573.95,"xT1":424.9,"yT1":0,"xT2":1058.1,"yT2":0,"toosoon":0,"cond_shown":"randomdotsizeEA","ratio_trial":750,"smaller_num":"12","larger_num":"16","correct_side":2,"subjID":"samuelmolina9","gender":"0","age":"9","school":"4"},{"start_time":1552055015641,"click_time":1552055016844,"finger_time":1552055016344,"fix_duration":437.80678717505236,"trial":13,"RT":703,"MT":500,"sideResp":1,"stimulus":"img/250/equaldotsize/L/3_Ratio_250_L_8_R_2.png","xmouse":[799,799,799,799,799,799,799,799,799,799,799,799,799,799,799,799,803,804,805,806,806,806,806,806,806,806,806,806,806,806,807,807,807,804,798,787,754,724,708,692,677,653,640,629,619,612,600,592,586,580,576,571,562,546,532,523,516,508,499,484,476],"ymouse":[622,622,622,622,622,622,621,621,621,621,621,621,621,621,621,621,621,621,620,620,619,619,619,619,619,619,619,619,619,619,618,617,611,598,584,561,502,462,442,423,406,378,363,350,335,323,297,279,267,254,241,216,197,176,158,142,123,115,108,100,95],"timestamp_mouse":[12,35,43,63,83,103,123,143,164,183,203,223,253,263,283,302,323,343,363,383,402,422,443,463,483,503,522,544,563,583,602,622,643,663,682,703,722,743,762,783,802,822,843,863,882,902,922,943,962,983,1002,1022,1042,1062,1082,1104,1122,1142,1162,1182,1202],"xSR":741.5,"ySR":573.95,"xT1":424.9,"yT1":0,"xT2":1058.1,"yT2":0,"toosoon":0,"cond_shown":"equaldotsize","ratio_trial":250,"smaller_num":"2","larger_num":"8","correct_side":1,"subjID":"samuelmolina9","gender":"0","age":"9","school":"4"},{"start_time":1552055018296,"click_time":1552055020124,"finger_time":1552055019743,"fix_duration":250,"trial":14,"RT":1447,"MT":381,"sideResp":2,"stimulus":"img/250/equaldotanddens/R/4_Ratio_250_L_3_R_12.png","xmouse":[825,825,825,824,824,824,824,824,824,825,825,825,825,825,825,825,825,825,825,825,825,825,825,824,823,822,821,820,819,811,804,801,800,800,800,800,800,800,800,800,800,800,800,800,800,800,800,800,800,800,800,800,800,800,800,800,800,800,800,800,793,791,788,786,781,781,781,781,781,784,795,811,824,848,854,860,867,872,876,878,880,884,891,916,930,947,968,998,1045,1062,1072,1081],"ymouse":[636,640,640,640,640,640,640,639,636,634,632,631,630,628,624,624,624,624,623,623,623,623,623,623,623,624,624,625,625,627,628,628,628,628,628,628,628,628,628,628,628,628,628,628,628,628,628,628,628,628,628,628,628,628,628,628,628,628,628,628,621,619,612,608,600,600,600,600,600,595,588,575,562,528,515,499,483,467,444,431,416,398,377,325,298,271,240,199,136,116,102,83],"timestamp_mouse":[15,37,47,68,89,108,128,147,167,187,208,227,247,267,288,307,328,347,368,387,407,428,448,467,488,507,528,547,567,587,608,628,647,668,687,707,728,747,767,787,807,827,849,868,887,908,929,947,967,989,1007,1028,1047,1067,1088,1108,1128,1147,1168,1187,1208,1227,1247,1267,1288,1307,1327,1348,1367,1387,1407,1429,1447,1467,1487,1507,1529,1547,1567,1587,1608,1627,1647,1667,1688,1707,1728,1747,1768,1787,1807,1827],"xSR":741.5,"ySR":573.95,"xT1":424.9,"yT1":0,"xT2":1058.1,"yT2":0,"toosoon":0,"cond_shown":"equaldotanddens","ratio_trial":250,"smaller_num":"3","larger_num":"12","correct_side":2,"subjID":"samuelmolina9","gender":"0","age":"9","school":"4"},{"start_time":1552055024075,"click_time":1552055025283,"finger_time":1552055024783,"fix_duration":1310.9390446710495,"trial":15,"RT":708,"MT":500,"sideResp":2,"stimulus":"img/500/equaldotsize/R/14_Ratio_500_L_5_R_10.png","xmouse":[804,804,804,804,804,804,804,804,804,804,804,804,804,804,804,804,804,804,804,804,804,804,804,804,804,804,804,804,804,804,804,804,804,807,815,831,838,843,851,860,878,899,921,944,967,990,994,995,995,995,995,1015,1025,1028,1031,1037,1040,1045,1046,1050,1069],"ymouse":[640,634,630,626,623,621,621,621,621,621,621,621,621,621,621,621,621,621,621,621,621,621,621,621,621,621,621,621,621,621,621,621,620,609,590,544,520,496,478,460,416,341,280,227,175,119,108,104,104,104,103,94,87,85,85,85,85,87,88,88,88],"timestamp_mouse":[17,37,49,68,88,108,128,149,168,189,208,228,248,268,288,309,328,350,368,389,409,429,448,469,488,508,529,549,569,588,608,629,649,668,690,708,728,748,768,790,809,829,848,869,888,908,928,948,970,989,1008,1028,1048,1068,1089,1108,1128,1148,1170,1189,1208],"xSR":741.5,"ySR":573.95,"xT1":424.9,"yT1":0,"xT2":1058.1,"yT2":0,"toosoon":0,"cond_shown":"equaldotsize","ratio_trial":500,"smaller_num":"5","larger_num":"10","correct_side":2,"subjID":"samuelmolina9","gender":"0","age":"9","school":"4"},{"start_time":1552055026578,"click_time":1552055027683,"finger_time":1552055027083,"fix_duration":431.94308515466173,"trial":16,"RT":505,"MT":600,"sideResp":2,"stimulus":"img/250/equaldotanddens/R/10_Ratio_250_L_4_R_16.png","xmouse":[768,768,768,768,768,768,768,768,768,768,768,768,768,768,768,768,768,768,768,768,768,768,768,768,769,788,800,818,832,848,870,882,900,918,937,966,972,977,980,985,996,1003,1012,1019,1024,1042,1050,1059,1063,1069,1073,1076,1077,1077,1078,1078],"ymouse":[628,628,628,628,628,628,628,628,628,628,628,628,628,628,628,628,628,628,628,627,627,627,626,623,615,550,520,491,469,445,402,382,356,334,313,277,268,257,249,238,210,194,178,166,157,137,131,125,123,119,115,110,110,109,108,98],"timestamp_mouse":[13,38,46,66,85,105,126,145,166,186,205,225,245,265,287,305,325,346,365,385,406,426,446,466,487,505,525,545,565,585,606,625,646,665,685,705,726,745,766,785,805,825,845,867,886,906,927,945,965,985,1005,1025,1046,1067,1087,1105],"xSR":741.5,"ySR":573.95,"xT1":424.9,"yT1":0,"xT2":1058.1,"yT2":0,"toosoon":0,"cond_shown":"equaldotanddens","ratio_trial":250,"smaller_num":"4","larger_num":"16","correct_side":2,"subjID":"samuelmolina9","gender":"0","age":"9","school":"4"},{"start_time":1552055028940,"click_time":1552055029884,"finger_time":1552055029723,"fix_duration":293.40159435712434,"trial":17,"RT":783,"MT":161,"sideResp":2,"stimulus":"img/500/randomdotsizeEA/R/1_Ratio_500_L_9_R_18.png","xmouse":[804,804,804,804,804,804,804,804,804,804,804,804,804,804,804,804,804,804,804,804,804,804,804,804,804,804,804,804,804,804,804,804,804,804,804,804,804,804,818,830,855,891,973,998,1016,1025,1039,1085],"ymouse":[607,607,607,607,607,607,607,607,607,607,607,608,608,608,608,608,608,608,608,608,608,608,608,608,608,608,608,608,608,608,608,608,608,608,608,608,608,609,585,563,525,475,360,303,260,223,179,83],"timestamp_mouse":[18,37,44,63,85,103,123,144,163,184,203,223,244,264,284,304,325,343,363,385,403,424,444,464,483,504,524,545,564,584,605,624,643,665,683,704,723,743,763,783,804,823,844,863,883,903,924,944],"xSR":741.5,"ySR":573.95,"xT1":424.9,"yT1":0,"xT2":1058.1,"yT2":0,"toosoon":0,"cond_shown":"randomdotsizeEA","ratio_trial":500,"smaller_num":"9","larger_num":"18","correct_side":2,"subjID":"samuelmolina9","gender":"0","age":"9","school":"4"},{"start_time":1552055031276,"click_time":1552055032343,"finger_time":1552055031903,"fix_duration":250,"trial":18,"RT":627,"MT":440,"sideResp":2,"stimulus":"img/900/equaldotsize/L/1_Ratio_900_L_10_R_9.png","xmouse":[801,801,801,801,801,801,801,801,801,801,801,801,801,801,801,801,801,801,801,801,801,801,801,801,801,801,801,801,801,801,806,832,846,856,863,874,918,926,935,940,945,959,965,972,973,974,974,976,978,998,1022,1053,1062,1064],"ymouse":[603,603,603,603,603,603,603,603,603,603,603,603,603,603,603,603,603,603,603,603,603,603,603,603,603,603,603,603,603,601,583,513,466,435,408,386,325,312,285,268,247,196,174,159,154,152,151,150,150,145,137,113,102,95],"timestamp_mouse":[12,40,47,67,87,109,129,147,168,188,209,228,248,268,287,309,328,348,367,388,407,428,448,467,488,508,528,549,568,588,607,627,647,667,687,709,727,748,768,787,807,827,847,868,887,908,928,949,967,987,1008,1028,1048,1067],"xSR":741.5,"ySR":573.95,"xT1":424.9,"yT1":0,"xT2":1058.1,"yT2":0,"toosoon":0,"cond_shown":"equaldotsize","ratio_trial":900,"smaller_num":"9","larger_num":"10","correct_side":1,"subjID":"samuelmolina9","gender":"0","age":"9","school":"4"},{"start_time":1552055037596,"click_time":1552055038683,"finger_time":1552055038303,"fix_duration":250,"trial":19,"RT":707,"MT":380,"sideResp":2,"stimulus":"img/750/equaldotanddens/R/7_Ratio_750_L_3_R_4.png","xmouse":[799,799,799,799,799,799,799,799,799,799,799,799,799,799,799,799,799,799,799,799,799,799,799,799,799,799,799,799,799,799,799,803,811,821,833,861,874,888,906,937,991,1006,1017,1024,1030,1034,1037,1038,1039,1039,1039,1039,1043,1058,1075],"ymouse":[629,629,629,629,629,629,629,629,629,629,629,629,629,629,629,629,629,629,629,629,629,629,629,629,629,629,629,629,629,629,628,623,614,600,583,547,530,508,484,432,315,254,188,128,92,69,46,43,41,41,40,40,40,40,40],"timestamp_mouse":[12,39,49,68,87,108,129,148,168,188,207,229,248,268,288,307,327,349,369,388,408,428,448,468,487,508,529,547,568,587,607,628,647,668,687,707,727,747,767,787,807,827,847,868,888,908,929,947,967,988,1009,1029,1047,1067,1087],"xSR":741.5,"ySR":573.95,"xT1":424.9,"yT1":0,"xT2":1058.1,"yT2":0,"toosoon":0,"cond_shown":"equaldotanddens","ratio_trial":750,"smaller_num":"3","larger_num":"4","correct_side":2,"subjID":"samuelmolina9","gender":"0","age":"9","school":"4"},{"start_time":1552055042013,"click_time":1552055044645,"finger_time":1552055042904,"fix_duration":887.6292768280148,"trial":20,"RT":891,"MT":1741,"sideResp":1,"stimulus":"img/750/randomdotsizeEA/L/14_Ratio_750_L_8_R_6.png","xmouse":[798,802,805,806,806,806,806,806,806,806,805,805,805,805,805,805,805,805,805,805,805,805,805,805,805,805,805,805,805,805,806,807,808,808,808,808,808,808,808,808,808,809,811,815,821,834,835,833,829,820,783,763,749,742,741,738,720,703,679,656,630,624,620,619,619,619,621,623,623,623,628,632,639,653,678,769,813,829,839,841,841,831,815,811,811,813,819,824,828,834,853,861,863,863,863,863,863,863,864,865,877,891,903,909,909,910,910,896,879,864,822,799,783,770,757,729,712,686,660,630,579,562,552,546,543,535,520,509,503,498,496,495],"ymouse":[607,607,607,608,608,608,608,608,608,608,608,608,608,608,608,608,608,608,608,608,608,608,608,608,608,608,608,608,608,608,603,599,595,595,595,595,595,595,595,595,595,592,590,585,573,544,537,534,534,534,536,536,536,533,532,517,492,472,453,441,432,432,432,432,432,423,420,417,417,417,420,423,423,423,415,378,354,338,326,322,321,320,320,320,320,320,320,320,320,320,312,304,302,301,301,301,301,301,299,298,288,277,265,255,250,248,245,245,245,245,255,255,255,255,250,242,234,224,209,197,174,167,161,156,153,147,136,126,118,110,104,99],"timestamp_mouse":[13,40,50,70,91,112,131,150,171,191,211,231,251,270,291,311,330,350,371,391,410,431,451,470,492,512,531,550,571,590,610,631,650,670,690,710,730,752,772,791,811,830,851,871,891,910,930,950,971,990,1011,1030,1050,1070,1091,1110,1131,1150,1171,1191,1211,1231,1252,1271,1292,1310,1332,1351,1370,1390,1410,1431,1450,1471,1490,1510,1530,1550,1570,1590,1612,1632,1650,1671,1690,1710,1730,1750,1771,1790,1811,1830,1851,1870,1890,1911,1931,1950,1971,1991,2011,2031,2051,2070,2092,2110,2130,2150,2170,2191,2211,2230,2250,2270,2290,2310,2332,2350,2370,2391,2410,2430,2450,2470,2491,2510,2531,2550,2571,2590,2610,2631],"xSR":741.5,"ySR":573.95,"xT1":424.9,"yT1":0,"xT2":1058.1,"yT2":0,"toosoon":0,"cond_shown":"randomdotsizeEA","ratio_trial":750,"smaller_num":"6","larger_num":"8","correct_side":1,"subjID":"samuelmolina9","gender":"0","age":"9","school":"4"},{"start_time":1552055047604,"click_time":1552055048885,"finger_time":1552055048244,"fix_duration":678.9777929347418,"trial":21,"RT":640,"MT":641,"sideResp":1,"stimulus":"img/500/equaldotsize/L/8_Ratio_500_L_8_R_4.png","xmouse":[802,802,802,802,802,802,802,802,802,802,802,802,802,802,802,802,802,802,802,802,802,802,802,804,804,805,806,806,806,806,805,803,791,783,766,755,729,720,708,695,681,676,668,659,656,652,646,639,637,635,634,633,631,629,624,616,588,576,568,560,551,537,500,491,487],"ymouse":[642,642,642,642,642,642,642,642,642,641,641,641,641,641,640,640,639,638,638,638,638,637,637,632,628,624,621,615,610,602,593,583,560,547,520,505,475,463,449,437,430,426,415,390,374,358,342,312,293,274,259,244,232,227,222,218,210,202,193,177,164,151,125,114,94],"timestamp_mouse":[0,19,39,60,79,101,120,139,159,180,200,219,239,259,280,299,320,339,360,379,401,421,440,459,479,500,519,541,559,579,600,619,640,659,680,699,720,740,759,779,800,819,839,860,879,899,921,939,960,979,999,1021,1039,1060,1080,1100,1120,1140,1160,1181,1202,1220,1240,1261,1281],"xSR":741.5,"ySR":573.95,"xT1":424.9,"yT1":0,"xT2":1058.1,"yT2":0,"toosoon":0,"cond_shown":"equaldotsize","ratio_trial":500,"smaller_num":"4","larger_num":"8","correct_side":1,"subjID":"samuelmolina9","gender":"0","age":"9","school":"4"},{"start_time":1552055051962,"click_time":1552055053244,"finger_time":1552055052683,"fix_duration":596.0137108329353,"trial":22,"RT":721,"MT":561,"sideResp":2,"stimulus":"img/750/equaldotanddens/R/11_Ratio_750_L_12_R_16.png","xmouse":[799,799,799,799,799,799,799,799,799,799,799,799,799,799,799,799,799,799,799,799,799,799,799,799,799,799,799,799,799,799,799,802,803,809,826,834,845,858,871,902,918,935,950,961,973,980,986,994,1000,1018,1027,1035,1043,1050,1062,1072,1080,1091,1102,1117,1123,1126,1128,1129,1130],"ymouse":[614,614,614,614,614,614,614,614,614,614,614,614,614,614,614,614,614,614,614,614,614,614,614,614,614,614,614,614,614,614,614,610,608,600,581,574,562,550,535,500,480,452,423,404,378,365,357,345,330,300,289,277,269,260,243,225,212,193,173,140,127,114,105,100,94],"timestamp_mouse":[10,34,42,62,81,101,121,141,162,182,202,222,241,262,283,301,323,341,362,383,402,421,443,461,481,502,521,542,561,582,603,622,641,661,681,702,721,741,761,781,801,821,842,862,882,901,921,941,961,981,1001,1022,1041,1063,1081,1101,1121,1142,1163,1182,1201,1221,1242,1262,1282],"xSR":741.5,"ySR":573.95,"xT1":424.9,"yT1":0,"xT2":1058.1,"yT2":0,"toosoon":0,"cond_shown":"equaldotanddens","ratio_trial":750,"smaller_num":"12","larger_num":"16","correct_side":2,"subjID":"samuelmolina9","gender":"0","age":"9","school":"4"},{"start_time":1552055056153,"click_time":1552055057244,"finger_time":1552055056783,"fix_duration":487.8872185608305,"trial":23,"RT":630,"MT":461,"sideResp":1,"stimulus":"img/500/equaldotanddens/L/8_Ratio_500_L_8_R_4.png","xmouse":[776,776,776,776,776,776,776,776,776,776,776,776,776,776,776,776,776,776,776,776,776,776,776,776,776,776,776,776,776,776,776,776,774,768,756,751,741,730,720,707,702,697,696,695,684,677,667,650,624,542,510,490,476,464,442],"ymouse":[608,608,608,608,608,608,608,608,608,608,608,608,608,608,608,608,608,608,608,608,608,608,608,608,608,608,608,608,608,603,585,561,534,498,457,435,405,366,335,280,262,251,249,248,246,245,242,233,215,160,142,128,117,108,81],"timestamp_mouse":[10,32,51,70,91,111,131,150,171,191,210,231,251,270,292,312,331,350,371,392,410,430,450,470,491,511,531,551,571,591,611,630,652,671,690,711,730,750,771,790,811,832,850,871,890,910,930,952,972,991,1010,1030,1050,1071,1091],"xSR":741.5,"ySR":573.95,"xT1":424.9,"yT1":0,"xT2":1058.1,"yT2":0,"toosoon":0,"cond_shown":"equaldotanddens","ratio_trial":500,"smaller_num":"4","larger_num":"8","correct_side":1,"subjID":"samuelmolina9","gender":"0","age":"9","school":"4"},{"start_time":1552055059592,"click_time":1552055061543,"finger_time":1552055060904,"fix_duration":1227.5413210321253,"trial":24,"RT":1312,"MT":639,"sideResp":1,"stimulus":"img/900/equaldotsize/R/5_Ratio_900_L_9_R_10.png","xmouse":[789,789,789,789,789,789,789,789,789,789,789,789,789,789,789,789,789,789,789,789,789,789,789,789,789,789,789,789,789,789,789,789,789,789,789,789,789,789,789,789,789,789,789,789,789,789,789,789,789,789,789,789,789,789,789,789,789,789,789,789,789,789,789,790,790,789,781,776,761,752,734,714,694,661,647,636,618,600,577,575,575,575,576,576,576,575,565,549,523,516,513,513,513,513,515,515,515,515],"ymouse":[602,602,602,602,602,602,602,602,602,602,602,602,602,602,602,602,602,602,602,602,602,602,602,602,602,602,602,602,602,602,602,602,602,602,602,602,602,602,602,602,602,602,602,602,602,602,602,602,602,602,602,602,602,602,602,602,602,602,602,602,602,602,600,588,578,565,546,536,514,503,488,473,455,417,397,380,358,329,275,256,235,225,222,220,220,218,210,196,171,161,147,142,140,135,128,117,101,85],"timestamp_mouse":[20,38,51,72,93,111,132,151,172,191,211,232,251,271,292,311,331,351,371,393,411,431,453,472,491,512,532,551,572,593,613,632,652,672,692,712,732,752,771,791,812,831,852,872,892,911,932,951,972,992,1013,1033,1053,1071,1092,1111,1132,1152,1172,1193,1213,1232,1251,1271,1293,1312,1333,1351,1371,1391,1412,1432,1452,1471,1493,1512,1531,1551,1571,1592,1611,1631,1652,1671,1691,1711,1731,1751,1772,1792,1811,1832,1851,1871,1891,1913,1931,1951],"xSR":741.5,"ySR":573.95,"xT1":424.9,"yT1":0,"xT2":1058.1,"yT2":0,"toosoon":0,"cond_shown":"equaldotsize","ratio_trial":900,"smaller_num":"9","larger_num":"10","correct_side":2,"subjID":"samuelmolina9","gender":"0","age":"9","school":"4"},{"start_time":1552055067855,"click_time":1552055069144,"finger_time":1552055068483,"fix_duration":1468.6871247019044,"trial":25,"RT":628,"MT":661,"sideResp":2,"stimulus":"img/250/equaldotsize/R/11_Ratio_250_L_3_R_12.png","xmouse":[786,786,786,786,786,786,786,786,786,786,786,786,786,786,786,786,786,786,786,786,786,786,786,786,786,786,786,789,799,828,850,880,910,938,971,992,1001,1009,1018,1022,1022,1022,1022,1022,1022,1024,1027,1035,1048,1067,1070,1072,1075,1077,1078,1081,1087,1092,1095,1100,1105,1112,1114,1120],"ymouse":[613,612,612,612,612,612,612,612,612,612,612,612,612,612,612,612,612,612,612,612,612,612,612,612,612,612,610,607,598,575,557,531,502,469,427,385,363,343,323,310,310,310,310,310,310,307,304,293,277,240,225,213,207,207,207,205,193,182,174,155,145,127,120,99],"timestamp_mouse":[33,48,68,89,108,128,149,168,189,208,228,249,269,290,310,329,350,369,388,409,428,449,469,489,509,530,548,568,588,609,628,648,668,689,708,729,749,768,790,809,828,848,869,888,908,930,949,969,990,1009,1028,1049,1068,1088,1108,1129,1148,1170,1188,1209,1228,1249,1269,1289],"xSR":741.5,"ySR":573.95,"xT1":424.9,"yT1":0,"xT2":1058.1,"yT2":0,"toosoon":0,"cond_shown":"equaldotsize","ratio_trial":250,"smaller_num":"3","larger_num":"12","correct_side":2,"subjID":"samuelmolina9","gender":"0","age":"9","school":"4"},{"start_time":1552055072931,"click_time":1552055074083,"finger_time":1552055073584,"fix_duration":847.4222548218233,"trial":26,"RT":653,"MT":499,"sideResp":2,"stimulus":"img/900/equaldotsize/R/15_Ratio_900_L_9_R_10.png","xmouse":[807,807,807,807,807,807,807,807,807,807,807,807,807,807,807,807,807,807,807,807,807,807,807,807,807,807,807,807,807,807,808,813,825,833,838,843,848,862,884,904,922,933,937,938,942,953,967,1037,1058,1071,1076,1076,1076,1076,1077,1082,1089,1101],"ymouse":[601,601,601,601,601,601,601,601,601,601,601,601,601,601,601,601,601,601,601,601,601,601,601,601,601,601,601,601,601,600,590,577,548,529,514,499,486,462,438,424,413,405,402,401,396,382,361,262,227,195,172,161,161,160,153,142,125,76],"timestamp_mouse":[13,35,52,73,93,113,134,153,173,192,213,232,253,273,294,313,333,354,372,393,412,433,453,472,492,514,532,552,572,594,612,634,653,672,692,712,733,752,773,792,813,834,852,872,893,912,932,952,972,992,1013,1032,1053,1072,1092,1112,1132,1152],"xSR":741.5,"ySR":573.95,"xT1":424.9,"yT1":0,"xT2":1058.1,"yT2":0,"toosoon":0,"cond_shown":"equaldotsize","ratio_trial":900,"smaller_num":"9","larger_num":"10","correct_side":2,"subjID":"samuelmolina9","gender":"0","age":"9","school":"4"},{"start_time":1552055075892,"click_time":1552055083505,"finger_time":1552055082825,"fix_duration":805.490221190232,"trial":27,"RT":6933,"MT":680,"sideResp":2,"stimulus":"img/900/equaldotsize/R/13_Ratio_900_L_18_R_20.png","xmouse":[786,786,786,786,786,786,786,786,786,786,786,786,786,786,786,786,786,786,786,786,786,786,786,786,786,786,786,786,786,786,786,786,786,786,786,786,786,786,786,786,785,785,785,785,785,785,785,785,785,785,785,785,785,785,785,785,785,785,785,785,785,785,785,785,785,785,785,785,785,785,785,785,785,785,785,785,785,785,785,785,785,785,785,785,785,786,786,788,788,788,788,788,788,788,788,788,790,791,793,793,793,793,793,793,793,793,793,793,793,793,793,793,793,794,794,795,795,795,795,795,795,795,795,795,795,795,795,795,795,795,795,795,795,795,795,795,795,795,795,795,795,795,795,795,795,795,795,795,795,795,795,795,795,795,796,797,799,799,799,799,799,799,799,799,799,799,799,799,799,799,799,799,799,799,799,799,799,799,799,799,799,799,799,799,799,799,799,799,799,799,799,799,799,799,799,799,799,799,799,799,799,799,799,799,799,799,798,798,798,798,798,798,798,798,798,798,798,798,798,798,798,798,798,798,798,798,798,798,798,798,798,798,798,798,798,798,798,798,798,798,798,798,798,798,798,798,798,798,798,798,798,798,798,798,798,798,798,798,798,798,798,798,798,798,798,798,798,798,798,798,798,798,798,798,798,798,798,798,798,798,798,798,798,798,798,798,798,798,798,798,798,798,798,798,798,798,798,798,798,798,798,798,798,798,798,798,798,798,798,798,798,798,798,800,803,811,812,812,813,813,813,813,813,813,813,813,813,813,813,813,813,813,814,814,815,816,816,816,816,816,816,816,816,816,817,818,819,823,825,830,845,855,864,870,873,881,886,891,898,904,916,923,934,946,960,993,1009,1019,1028,1035,1039,1040,1042,1045,1048,1049,1049,1050,1050,1055,1067],"ymouse":[631,631,631,631,631,631,631,631,631,631,631,631,631,631,631,631,631,631,631,631,631,631,631,631,631,631,631,631,631,631,631,631,631,631,631,631,631,631,631,631,631,627,620,614,608,608,608,608,608,608,608,608,608,608,608,608,608,608,608,608,608,608,608,608,608,608,608,608,608,608,608,608,608,608,608,608,608,608,608,608,608,608,608,608,608,609,611,614,615,615,615,615,615,615,615,615,615,613,609,609,609,609,609,609,609,609,609,609,609,609,609,609,609,608,607,605,605,605,605,605,605,605,605,605,605,605,605,605,605,605,605,605,605,605,605,605,605,605,605,605,605,605,605,605,605,605,605,605,605,605,605,605,605,605,606,608,610,610,610,610,610,610,611,615,618,619,620,620,620,620,620,620,620,620,620,620,620,620,620,620,620,620,620,620,620,620,620,620,620,620,620,620,620,620,620,620,620,620,620,620,620,620,620,620,620,621,621,621,621,621,621,621,621,621,621,621,621,621,621,621,621,621,621,621,621,621,621,621,621,621,621,621,621,621,621,621,621,621,621,621,621,621,621,621,621,621,621,621,621,621,621,621,621,621,621,621,621,621,621,621,621,621,621,621,621,621,621,621,621,621,621,621,621,621,621,621,621,621,621,621,621,621,621,621,621,621,621,621,621,621,621,621,621,621,621,621,621,621,621,621,621,621,621,621,621,621,621,621,621,621,621,621,621,618,612,601,598,597,596,596,596,596,596,596,596,596,596,596,596,596,596,595,593,590,587,585,585,585,585,585,584,583,583,582,581,578,573,559,535,506,448,427,410,392,380,352,341,331,321,310,285,270,250,229,205,148,115,92,71,56,47,44,39,33,28,25,25,24,24,24,24],"timestamp_mouse":[13,42,53,74,94,113,134,154,174,194,214,233,253,275,293,313,333,355,374,395,414,434,454,474,494,514,534,554,574,594,613,634,655,673,693,714,733,753,774,794,813,834,854,875,893,914,933,953,974,994,1014,1034,1054,1074,1094,1114,1134,1155,1173,1194,1213,1233,1254,1273,1294,1314,1335,1353,1374,1393,1414,1433,1454,1474,1493,1513,1534,1555,1575,1594,1614,1633,1654,1673,1693,1713,1734,1754,1774,1794,1814,1834,1854,1874,1894,1913,1934,1954,1975,1994,2014,2033,2053,2074,2093,2114,2134,2153,2173,2194,2213,2233,2253,2273,2294,2314,2334,2353,2373,2395,2413,2434,2453,2473,2493,2514,2535,2554,2573,2593,2615,2635,2653,2673,2694,2713,2733,2755,2773,2793,2813,2835,2853,2873,2894,2913,2935,2954,2974,2993,3014,3033,3055,3074,3093,3113,3134,3154,3173,3193,3214,3234,3254,3274,3294,3313,3333,3354,3374,3393,3414,3433,3453,3474,3494,3515,3534,3553,3573,3593,3614,3633,3653,3674,3695,3715,3734,3753,3774,3793,3814,3833,3853,3875,3894,3913,3933,3954,3974,3994,4014,4035,4054,4074,4094,4113,4134,4154,4174,4193,4213,4235,4255,4274,4294,4313,4334,4355,4374,4395,4415,4433,4453,4474,4494,4514,4533,4554,4573,4593,4615,4633,4653,4675,4694,4714,4733,4754,4773,4795,4813,4834,4854,4874,4893,4914,4933,4955,4974,4994,5014,5033,5055,5074,5094,5114,5134,5155,5174,5194,5213,5235,5253,5274,5293,5313,5334,5354,5375,5394,5414,5434,5454,5475,5493,5514,5534,5554,5575,5595,5613,5633,5654,5674,5693,5714,5735,5755,5774,5793,5814,5834,5853,5874,5893,5913,5935,5953,5974,5995,6014,6033,6054,6073,6093,6114,6134,6155,6174,6194,6213,6234,6255,6273,6294,6316,6333,6353,6373,6395,6414,6433,6454,6474,6493,6513,6534,6554,6575,6593,6613,6633,6654,6675,6694,6713,6735,6754,6773,6793,6814,6833,6855,6873,6893,6913,6933,6953,6974,6995,7015,7033,7054,7073,7093,7113,7134,7153,7173,7193,7213,7233,7254,7275,7295,7313,7333,7353,7373,7395,7413,7433,7453,7473,7494,7514,7535,7554,7574,7593,7613],"xSR":741.5,"ySR":573.95,"xT1":424.9,"yT1":0,"xT2":1058.1,"yT2":0,"toosoon":0,"cond_shown":"equaldotsize","ratio_trial":900,"smaller_num":"18","larger_num":"20","correct_side":2,"subjID":"samuelmolina9","gender":"0","age":"9","school":"4"},{"start_time":1552055087546,"click_time":1552055092046,"finger_time":1552055090125,"fix_duration":938.083036537727,"trial":28,"RT":2579,"MT":1921,"sideResp":1,"stimulus":"img/750/equaldotanddens/L/14_Ratio_750_L_8_R_6.png","xmouse":[796,796,796,796,794,794,794,794,794,794,794,794,794,794,794,794,794,794,794,794,794,794,794,794,794,794,794,794,794,794,794,794,794,794,794,794,794,794,794,794,794,794,794,794,790,788,787,787,787,787,787,787,787,787,787,787,787,787,787,787,787,787,788,788,788,788,788,788,788,788,788,788,788,788,788,788,788,788,788,788,788,788,788,788,788,788,788,788,788,788,788,788,788,788,788,788,788,788,788,788,788,788,788,788,788,788,788,788,788,788,788,788,788,788,788,788,788,788,788,788,788,788,788,788,788,788,788,787,787,787,787,787,787,787,787,787,787,787,787,787,787,787,787,787,787,787,787,787,787,787,787,787,787,787,787,787,787,786,785,776,775,775,775,775,775,775,775,775,775,775,775,775,775,775,775,775,776,776,776,776,776,776,776,776,776,776,776,776,776,776,776,776,776,776,776,776,776,776,776,775,771,770,768,765,764,763,762,757,749,740,709,695,671,648,585,551,524,502,488,477,474,472,469,465,461,451],"ymouse":[634,634,631,631,629,627,627,627,627,627,627,627,627,627,627,627,627,627,627,627,627,627,627,627,627,627,627,627,627,627,627,627,627,627,627,627,627,627,627,627,627,627,627,627,618,614,612,612,612,612,612,612,612,612,612,612,612,612,612,609,606,605,604,604,604,604,604,604,603,603,603,603,603,603,603,603,603,603,603,603,603,603,603,603,603,603,603,603,603,603,603,603,603,603,603,603,603,603,603,603,603,603,603,603,603,603,603,603,603,603,603,603,603,603,603,603,603,603,603,603,603,603,603,603,603,599,592,585,577,572,569,569,569,569,569,569,569,569,569,569,569,569,569,569,569,569,569,569,569,564,563,563,563,563,563,563,563,564,571,637,646,647,647,647,647,647,647,647,647,647,647,647,647,647,647,647,646,646,646,646,646,646,646,646,646,646,646,646,646,646,646,646,646,646,646,646,646,646,646,644,638,638,638,639,640,638,633,623,609,598,573,558,536,512,428,369,312,264,226,194,181,164,145,122,100,72],"timestamp_mouse":[1,19,45,60,80,101,119,139,161,179,199,219,241,260,280,300,321,340,360,381,399,420,441,459,480,499,520,539,560,580,599,619,639,661,680,699,720,741,759,780,800,821,840,860,879,899,920,939,959,980,1001,1020,1040,1060,1081,1100,1120,1139,1160,1180,1200,1219,1240,1261,1281,1299,1320,1339,1361,1380,1400,1421,1440,1461,1480,1500,1519,1539,1561,1580,1600,1620,1639,1660,1679,1700,1719,1741,1760,1780,1800,1819,1841,1859,1880,1900,1920,1941,1959,1980,1999,2019,2040,2060,2080,2099,2119,2139,2159,2180,2200,2219,2240,2259,2280,2299,2319,2340,2360,2380,2399,2419,2439,2461,2480,2499,2520,2540,2560,2579,2600,2620,2641,2660,2680,2700,2719,2741,2760,2780,2800,2820,2840,2860,2881,2899,2919,2939,2960,2980,2999,3019,3039,3059,3080,3099,3119,3139,3160,3180,3200,3219,3240,3260,3281,3300,3320,3339,3359,3380,3400,3419,3439,3459,3479,3501,3520,3540,3560,3580,3599,3619,3639,3659,3680,3699,3720,3740,3761,3779,3801,3820,3839,3861,3879,3900,3921,3939,3960,3979,3999,4019,4039,4060,4080,4099,4120,4139,4161,4179,4200,4220,4239,4259,4280,4299,4320,4340,4360,4381,4399,4421,4440,4459,4480,4500],"xSR":741.5,"ySR":573.95,"xT1":424.9,"yT1":0,"xT2":1058.1,"yT2":0,"toosoon":0,"cond_shown":"equaldotanddens","ratio_trial":750,"smaller_num":"6","larger_num":"8","correct_side":1,"subjID":"samuelmolina9","gender":"0","age":"9","school":"4"},{"start_time":1552055094674,"click_time":1552055097646,"finger_time":1552055095727,"fix_duration":1387.6631787574868,"trial":29,"RT":1053,"MT":1919,"sideResp":2,"stimulus":"img/750/equaldotsize/R/4_Ratio_750_L_15_R_20.png","xmouse":[804,804,804,804,804,804,804,804,804,804,804,804,804,804,804,804,804,804,804,804,804,804,804,804,804,804,804,804,804,804,804,804,804,804,804,804,804,804,804,804,804,804,804,807,808,809,810,812,816,818,819,822,825,834,839,841,841,841,841,841,841,841,841,841,843,843,844,844,844,844,843,840,829,817,810,805,805,805,804,804,804,804,804,804,804,804,804,804,802,799,796,793,790,789,789,789,789,788,779,779,779,779,779,779,779,779,778,777,775,774,774,774,774,775,776,777,781,789,815,833,845,854,857,859,859,859,862,866,875,890,905,924,946,982,992,1002,1013,1020,1035,1038,1041,1043,1046,1046,1046,1046,1047,1048,1068],"ymouse":[625,625,625,625,625,625,625,625,625,625,625,625,625,625,625,625,625,625,625,625,625,625,625,625,625,625,625,625,625,625,625,625,625,625,625,625,625,625,625,625,624,624,624,624,624,623,623,621,615,606,596,579,558,510,498,494,493,493,493,493,493,493,493,493,491,489,487,487,487,487,487,487,487,487,487,487,487,487,487,487,487,487,487,487,487,487,487,487,487,489,493,496,497,498,498,498,498,498,500,500,500,500,500,500,500,500,500,501,508,511,514,516,520,530,532,533,533,526,480,439,421,411,407,405,405,404,400,392,381,358,338,311,279,216,192,166,140,120,83,75,70,63,60,58,58,58,58,61,68],"timestamp_mouse":[12,37,51,72,92,112,132,152,172,193,213,232,252,273,291,312,331,351,373,391,411,432,453,473,492,512,533,551,572,592,611,631,652,673,692,713,733,751,772,792,811,831,852,871,892,912,933,952,971,992,1013,1033,1053,1072,1092,1111,1131,1151,1171,1192,1211,1232,1253,1273,1293,1312,1332,1351,1371,1392,1411,1432,1451,1472,1493,1512,1531,1552,1571,1591,1613,1632,1651,1671,1692,1712,1731,1753,1771,1792,1811,1831,1853,1873,1892,1911,1931,1952,1971,1993,2012,2031,2052,2072,2092,2111,2131,2152,2172,2193,2211,2232,2252,2271,2293,2311,2331,2352,2371,2393,2411,2432,2453,2471,2492,2512,2531,2551,2571,2592,2611,2633,2653,2672,2692,2713,2731,2751,2771,2792,2811,2832,2852,2871,2893,2912,2933,2952,2972],"xSR":741.5,"ySR":573.95,"xT1":424.9,"yT1":0,"xT2":1058.1,"yT2":0,"toosoon":0,"cond_shown":"equaldotsize","ratio_trial":750,"smaller_num":"15","larger_num":"20","correct_side":2,"subjID":"samuelmolina9","gender":"0","age":"9","school":"4"},{"start_time":1552055101442,"click_time":1552055102666,"finger_time":1552055102106,"fix_duration":1393.4456908581142,"trial":30,"RT":664,"MT":560,"sideResp":2,"stimulus":"img/500/equaldotsize/R/15_Ratio_500_L_1_R_2.png","xmouse":[786,786,786,786,786,786,786,786,786,786,786,786,786,786,786,786,786,786,786,786,786,786,786,786,786,786,786,786,786,789,793,812,824,832,837,842,862,876,890,901,909,919,927,939,951,965,1001,1012,1019,1022,1024,1024,1024,1025,1028,1031,1040,1042,1045,1052,1063,1087],"ymouse":[629,629,629,629,629,629,629,629,629,629,629,629,630,630,630,630,630,630,630,630,630,630,630,630,630,630,630,630,630,629,623,590,574,563,554,547,512,493,472,451,433,404,385,365,343,319,252,222,200,188,184,184,184,182,176,166,142,136,128,117,102,75],"timestamp_mouse":[12,35,44,65,83,104,125,144,164,185,204,223,243,264,285,303,324,345,363,384,403,423,444,465,485,504,523,543,563,584,603,623,643,664,684,705,723,744,763,783,805,824,843,864,883,904,924,944,963,984,1004,1024,1045,1065,1083,1103,1123,1143,1163,1183,1205,1224],"xSR":741.5,"ySR":573.95,"xT1":424.9,"yT1":0,"xT2":1058.1,"yT2":0,"toosoon":0,"cond_shown":"equaldotsize","ratio_trial":500,"smaller_num":"1","larger_num":"2","correct_side":2,"subjID":"samuelmolina9","gender":"0","age":"9","school":"4"},{"start_time":1552055106651,"click_time":1552055108525,"finger_time":1552055107766,"fix_duration":1284.1039190609272,"trial":31,"RT":1115,"MT":759,"sideResp":2,"stimulus":"img/500/randomdotsizeEA/R/9_Ratio_500_L_2_R_4.png","xmouse":[774,774,774,774,774,774,774,774,774,774,774,774,774,774,774,774,774,774,774,774,774,774,774,774,774,774,774,774,774,774,774,774,774,774,774,774,774,774,774,774,774,774,774,774,774,774,774,774,774,774,778,782,786,792,793,801,805,807,808,809,818,849,866,877,888,894,895,896,896,896,896,906,916,942,997,1061,1065,1066,1066,1065,1062,1062,1062,1062,1062,1063,1068,1077,1086,1094,1102,1104,1110,1123],"ymouse":[631,631,631,631,631,631,631,631,631,631,631,631,631,631,631,631,631,631,631,631,631,631,631,631,631,631,631,631,631,631,631,631,631,631,631,631,631,631,631,631,631,631,631,631,631,631,631,631,630,629,620,612,604,593,590,559,547,539,530,522,505,462,445,432,415,402,399,397,397,397,397,385,369,334,259,182,173,172,172,172,175,175,175,175,175,175,167,155,143,132,120,113,102,75],"timestamp_mouse":[16,45,54,74,96,115,136,155,176,194,216,234,255,276,294,315,335,354,375,396,414,434,455,475,495,514,534,554,575,595,615,635,654,676,694,715,736,755,775,795,816,835,854,876,896,916,936,955,975,994,1014,1034,1056,1074,1095,1115,1134,1154,1176,1196,1214,1235,1256,1275,1296,1315,1334,1355,1375,1396,1415,1434,1454,1475,1495,1515,1534,1555,1575,1596,1616,1635,1655,1675,1694,1715,1735,1754,1775,1794,1815,1835,1855,1874],"xSR":741.5,"ySR":573.95,"xT1":424.9,"yT1":0,"xT2":1058.1,"yT2":0,"toosoon":0,"cond_shown":"randomdotsizeEA","ratio_trial":500,"smaller_num":"2","larger_num":"4","correct_side":2,"subjID":"samuelmolina9","gender":"0","age":"9","school":"4"},{"start_time":1552055109718,"click_time":1552055111387,"finger_time":1552055111067,"fix_duration":250,"trial":32,"RT":1349,"MT":320,"sideResp":1,"stimulus":"img/750/randomdotsizeEA/L/6_Ratio_750_L_24_R_18.png","xmouse":[792,792,792,792,792,792,792,792,792,792,792,792,792,792,792,792,792,792,792,792,792,792,792,792,792,792,792,792,792,792,792,792,792,792,792,792,792,793,797,798,798,798,798,798,798,798,798,798,798,798,798,798,798,798,798,798,798,798,798,798,798,798,799,801,801,801,801,796,776,747,643,561,443,421,412,410,409,409,408,408,409,410,411,427],"ymouse":[622,622,622,622,622,622,622,622,622,622,622,622,622,622,622,622,622,622,622,622,622,622,622,622,622,622,622,622,622,622,622,622,622,622,622,622,619,618,614,613,613,613,613,613,613,613,613,613,613,613,613,613,613,613,613,613,613,613,613,613,613,613,611,603,597,590,579,561,517,475,355,273,159,139,134,133,133,133,106,82,76,75,75,75],"timestamp_mouse":[12,35,47,68,89,107,128,148,169,189,208,228,249,269,287,307,327,347,367,387,407,429,449,467,487,507,528,549,568,589,609,627,647,667,688,707,729,748,767,788,807,828,847,869,888,908,928,947,968,988,1009,1029,1049,1068,1088,1107,1128,1148,1168,1189,1209,1228,1248,1267,1287,1307,1328,1349,1368,1387,1407,1427,1449,1467,1488,1509,1527,1547,1568,1588,1607,1627,1647,1669],"xSR":741.5,"ySR":573.95,"xT1":424.9,"yT1":0,"xT2":1058.1,"yT2":0,"toosoon":0,"cond_shown":"randomdotsizeEA","ratio_trial":750,"smaller_num":"18","larger_num":"24","correct_side":1,"subjID":"samuelmolina9","gender":"0","age":"9","school":"4"},{"start_time":1552055116028,"click_time":1552055117307,"finger_time":1552055116865,"fix_duration":1341.2122048635485,"trial":33,"RT":837,"MT":442,"sideResp":1,"stimulus":"img/750/equaldotsize/L/1_Ratio_750_L_20_R_15.png","xmouse":[794,794,794,794,794,794,794,794,794,794,794,794,794,794,794,794,794,794,794,794,794,794,794,794,794,794,794,794,794,794,794,794,794,794,794,794,794,794,794,792,788,779,754,745,736,730,725,717,714,712,711,695,637,597,559,532,516,511,511,510,510,509,508,503],"ymouse":[602,602,602,602,602,602,602,602,602,602,602,602,602,602,602,602,602,602,602,602,602,602,602,602,602,602,602,602,602,602,602,602,602,602,602,602,602,602,602,593,587,570,511,483,464,447,433,406,388,365,328,249,124,67,17,0,0,0,0,0,0,0,0,12],"timestamp_mouse":[17,40,58,79,97,117,137,158,177,197,218,237,258,277,298,317,337,357,378,397,418,438,458,478,498,518,538,557,578,597,618,639,657,678,697,717,738,757,778,798,817,837,857,877,898,917,938,958,977,997,1017,1037,1057,1079,1098,1119,1138,1159,1178,1198,1218,1238,1258,1279],"xSR":741.5,"ySR":573.95,"xT1":424.9,"yT1":0,"xT2":1058.1,"yT2":0,"toosoon":0,"cond_shown":"equaldotsize","ratio_trial":750,"smaller_num":"15","larger_num":"20","correct_side":1,"subjID":"samuelmolina9","gender":"0","age":"9","school":"4"},{"start_time":1552055119543,"click_time":1552055120546,"finger_time":1552055120147,"fix_duration":995.7736284158811,"trial":34,"RT":604,"MT":399,"sideResp":2,"stimulus":"img/250/equaldotanddens/R/6_Ratio_250_L_6_R_24.png","xmouse":[809,809,809,809,809,809,809,809,809,809,809,809,809,809,809,809,809,809,809,809,809,809,809,809,809,809,809,809,809,812,819,828,835,843,847,853,865,877,926,948,963,973,982,996,1003,1012,1026,1048,1071,1077,1079],"ymouse":[596,596,596,596,596,596,596,596,596,596,596,596,596,596,596,596,596,596,596,596,596,596,596,596,596,596,596,596,596,579,557,533,508,465,434,414,391,375,349,336,321,310,297,278,263,244,216,177,120,100,85],"timestamp_mouse":[13,22,42,63,84,102,123,143,162,184,203,223,242,263,283,302,323,344,363,383,403,422,443,462,483,502,522,542,563,584,604,624,642,662,683,702,724,743,762,782,803,822,842,862,884,902,923,944,963,984,1003],"xSR":741.5,"ySR":573.95,"xT1":424.9,"yT1":0,"xT2":1058.1,"yT2":0,"toosoon":0,"cond_shown":"equaldotanddens","ratio_trial":250,"smaller_num":"6","larger_num":"24","correct_side":2,"subjID":"samuelmolina9","gender":"0","age":"9","school":"4"},{"start_time":1552055122214,"click_time":1552055123527,"finger_time":1552055123006,"fix_duration":706.7871468870718,"trial":35,"RT":792,"MT":521,"sideResp":1,"stimulus":"img/900/randomdotsizeEA/R/13_Ratio_900_L_18_R_20.png","xmouse":[805,805,805,804,804,804,804,803,802,802,801,800,799,799,799,799,799,799,799,799,799,799,799,799,799,799,799,799,799,799,799,799,799,799,799,799,799,798,797,771,748,726,711,699,690,687,682,671,652,578,552,532,517,505,494,479,475,474,473,473,473,473,473,473,473,470],"ymouse":[585,585,585,586,586,586,586,588,589,590,591,593,593,594,594,594,594,594,594,594,594,594,594,594,594,594,594,594,594,594,594,594,594,594,594,594,594,594,592,563,545,526,511,496,472,453,422,379,326,225,200,179,162,147,134,116,110,106,105,105,105,105,104,104,102,92],"timestamp_mouse":[13,42,51,72,92,111,133,152,171,192,211,232,252,271,291,312,332,351,372,393,411,431,452,473,492,512,531,552,571,592,613,631,651,672,692,713,731,751,772,792,812,832,852,872,891,911,931,953,972,992,1011,1031,1051,1071,1092,1112,1131,1152,1172,1191,1212,1232,1253,1273,1292,1313],"xSR":741.5,"ySR":573.95,"xT1":424.9,"yT1":0,"xT2":1058.1,"yT2":0,"toosoon":0,"cond_shown":"randomdotsizeEA","ratio_trial":900,"smaller_num":"18","larger_num":"20","correct_side":2,"subjID":"samuelmolina9","gender":"0","age":"9","school":"4"},{"start_time":1552055131902,"click_time":1552055133285,"finger_time":1552055132525,"fix_duration":1314.0536779145407,"trial":36,"RT":623,"MT":760,"sideResp":1,"stimulus":"img/250/equaldotanddens/L/3_Ratio_250_L_8_R_2.png","xmouse":[768,768,768,768,768,768,768,768,768,768,768,768,768,768,768,768,768,768,768,768,768,768,768,768,768,768,768,768,768,768,768,759,754,750,749,746,739,735,730,726,720,696,683,666,653,643,634,627,621,613,608,600,598,596,594,590,566,547,536,534,534,534,534,534,534,534,534,528,515,499],"ymouse":[615,615,615,615,615,615,615,615,615,615,615,615,615,615,615,615,615,615,615,615,615,615,615,615,615,615,615,615,615,608,597,570,560,553,547,538,515,500,482,460,445,415,405,392,377,365,343,331,317,300,281,221,199,177,160,149,135,128,125,125,125,125,125,125,125,125,125,121,111,90],"timestamp_mouse":[12,36,44,63,84,103,123,144,163,185,205,224,244,264,284,303,324,343,364,383,404,425,443,464,484,503,525,544,564,584,604,623,643,663,683,704,724,743,765,783,804,824,843,863,885,905,924,943,963,985,1005,1023,1043,1063,1084,1105,1124,1143,1164,1183,1203,1224,1244,1263,1283,1303,1324,1344,1363,1383],"xSR":741.5,"ySR":573.95,"xT1":424.9,"yT1":0,"xT2":1058.1,"yT2":0,"toosoon":0,"cond_shown":"equaldotanddens","ratio_trial":250,"smaller_num":"2","larger_num":"8","correct_side":1,"subjID":"samuelmolina9","gender":"0","age":"9","school":"4"},{"start_time":1552055138267,"click_time":1552055139548,"finger_time":1552055139168,"fix_duration":1458.5789179323133,"trial":37,"RT":901,"MT":380,"sideResp":2,"stimulus":"img/900/equaldotsize/L/4_Ratio_900_L_20_R_18.png","xmouse":[799,799,799,799,799,799,799,799,799,799,799,799,800,801,801,801,801,801,801,801,801,801,801,801,801,801,801,801,801,801,801,801,801,801,801,801,801,801,797,795,795,795,795,798,805,816,830,860,874,898,924,958,990,1055,1090,1118,1144,1162,1164,1165,1165,1165,1160,1155],"ymouse":[627,627,627,627,627,627,627,627,627,627,627,627,627,625,624,623,622,622,622,622,622,622,622,622,622,622,622,622,622,622,622,622,622,622,619,618,615,611,601,595,591,590,588,575,560,541,516,459,426,387,361,343,323,269,228,187,144,78,60,53,52,51,51,51],"timestamp_mouse":[20,48,60,80,99,120,139,159,181,200,219,241,259,280,299,320,339,359,381,401,421,439,461,480,500,519,541,561,581,601,619,639,661,680,700,720,740,759,779,801,820,840,859,881,901,919,939,961,979,1000,1019,1040,1060,1081,1100,1120,1140,1161,1179,1199,1219,1240,1261,1281],"xSR":741.5,"ySR":573.95,"xT1":424.9,"yT1":0,"xT2":1058.1,"yT2":0,"toosoon":0,"cond_shown":"equaldotsize","ratio_trial":900,"smaller_num":"18","larger_num":"20","correct_side":1,"subjID":"samuelmolina9","gender":"0","age":"9","school":"4"},{"start_time":1552055140934,"click_time":1552055142366,"finger_time":1552055140987,"fix_duration":466.4313496299326,"trial":38,"RT":53,"MT":1379,"sideResp":1,"stimulus":"img/900/randomdotsizeEA/L/4_Ratio_900_L_20_R_18.png","xmouse":[821,821,831,831,831,831,831,831,831,831,831,831,831,831,831,831,831,831,831,831,831,831,831,831,831,831,831,829,826,823,820,820,818,817,816,815,812,811,810,809,807,807,807,806,806,806,804,802,802,802,802,801,801,800,800,798,777,748,715,682,628,607,593,586,585,585,585,585,581,569,528,512],"ymouse":[584,584,567,567,567,567,567,567,567,568,587,592,593,593,593,593,593,593,593,593,593,593,593,593,593,593,593,594,596,597,598,599,600,601,601,602,603,603,604,604,604,604,604,604,604,604,604,604,604,604,604,604,604,602,599,578,537,496,454,402,307,275,255,245,243,243,241,235,222,193,93,58],"timestamp_mouse":[29,33,53,74,94,112,132,154,174,194,213,232,253,272,293,313,333,354,373,392,413,434,452,473,493,513,533,554,573,593,612,632,653,673,694,712,734,754,773,793,812,833,854,873,893,912,933,953,974,992,1012,1033,1053,1072,1092,1113,1134,1152,1173,1193,1212,1232,1253,1274,1293,1313,1333,1352,1373,1393,1413,1432],"xSR":741.5,"ySR":573.95,"xT1":424.9,"yT1":0,"xT2":1058.1,"yT2":0,"toosoon":0,"cond_shown":"randomdotsizeEA","ratio_trial":900,"smaller_num":"18","larger_num":"20","correct_side":1,"subjID":"samuelmolina9","gender":"0","age":"9","school":"4"},{"start_time":1552055145459,"click_time":1552055146948,"finger_time":1552055146128,"fix_duration":829.4413406261352,"trial":39,"RT":669,"MT":820,"sideResp":2,"stimulus":"img/900/randomdotsizeEA/R/7_Ratio_900_L_9_R_10.png","xmouse":[792,792,792,792,792,792,792,792,792,792,792,792,792,792,792,792,792,792,792,792,792,792,792,792,792,792,792,792,792,792,792,792,796,803,824,828,831,832,832,832,832,839,853,873,922,937,944,944,944,952,969,991,1017,1032,1039,1039,1039,1039,1039,1051,1062,1072,1079,1082,1083,1083,1083,1083,1080,1080,1080,1081,1081,1082,1087],"ymouse":[619,619,619,619,619,619,619,619,619,619,619,619,619,619,619,619,619,619,619,619,619,619,619,619,619,619,619,619,619,619,619,615,599,572,499,480,470,469,469,469,469,459,436,406,339,321,314,313,313,307,294,279,268,258,252,252,252,252,252,227,211,195,183,171,160,157,156,154,151,147,132,122,115,109,89],"timestamp_mouse":[12,38,47,67,88,108,129,149,167,189,209,228,247,267,288,309,329,347,368,389,407,428,447,469,487,507,529,549,569,587,607,627,648,669,689,707,728,748,768,788,808,828,848,869,888,907,928,948,968,988,1008,1028,1049,1069,1088,1108,1127,1148,1169,1188,1207,1228,1247,1267,1289,1307,1328,1348,1368,1387,1408,1428,1448,1469,1489],"xSR":741.5,"ySR":573.95,"xT1":424.9,"yT1":0,"xT2":1058.1,"yT2":0,"toosoon":0,"cond_shown":"randomdotsizeEA","ratio_trial":900,"smaller_num":"9","larger_num":"10","correct_side":2,"subjID":"samuelmolina9","gender":"0","age":"9","school":"4"},{"start_time":1552055149247,"click_time":1552055150667,"finger_time":1552055150267,"fix_duration":1478.555849718531,"trial":40,"RT":1020,"MT":400,"sideResp":1,"stimulus":"img/500/equaldotanddens/L/8_Ratio_500_L_8_R_4.png","xmouse":[825,825,825,825,825,825,825,825,825,824,823,823,823,823,819,818,813,813,813,813,813,813,813,813,813,813,813,813,813,813,813,813,813,813,813,813,813,813,813,813,813,813,817,821,824,826,826,825,822,819,816,798,780,761,735,709,660,647,641,636,633,629,625,622,617,609,597,591,582,571,555,516],"ymouse":[631,631,631,631,631,631,631,631,631,631,631,631,631,631,631,633,635,635,635,635,635,635,635,635,635,635,635,635,635,635,635,635,635,635,635,635,635,635,635,635,635,635,627,619,612,604,595,592,588,585,581,557,537,514,478,439,378,365,356,345,337,319,310,301,289,276,258,251,238,223,195,91],"timestamp_mouse":[9,34,40,60,81,99,119,139,161,180,199,221,240,260,279,300,320,339,359,381,401,419,439,459,481,500,520,540,559,581,599,619,641,660,680,699,721,741,759,781,800,819,840,860,879,900,920,941,961,981,1000,1020,1040,1060,1080,1099,1119,1140,1159,1179,1201,1220,1240,1260,1279,1300,1319,1339,1359,1381,1400,1420],"xSR":741.5,"ySR":573.95,"xT1":424.9,"yT1":0,"xT2":1058.1,"yT2":0,"toosoon":0,"cond_shown":"equaldotanddens","ratio_trial":500,"smaller_num":"4","larger_num":"8","correct_side":1,"subjID":"samuelmolina9","gender":"0","age":"9","school":"4"},{"start_time":1552055152198,"click_time":1552055153628,"finger_time":1552055152887,"fix_duration":630.2601282628846,"trial":41,"RT":689,"MT":741,"sideResp":1,"stimulus":"img/500/equaldotsize/L/10_Ratio_500_L_4_R_2.png","xmouse":[765,765,765,765,765,765,765,765,765,765,765,765,765,765,765,765,765,765,765,765,765,765,765,765,765,765,765,765,765,765,765,767,768,772,793,807,853,885,910,921,921,921,921,921,912,895,872,842,795,702,672,652,640,629,619,613,607,598,591,588,586,585,585,583,578,570,564,554,538,499,481,467],"ymouse":[605,605,605,605,605,605,605,605,605,605,605,605,605,605,605,605,605,605,605,605,604,604,603,602,602,602,602,602,602,602,600,598,596,591,569,553,495,450,406,364,361,361,361,361,361,365,372,380,389,396,396,396,395,392,377,346,318,287,235,219,206,197,188,181,169,158,149,142,133,117,104,90],"timestamp_mouse":[12,39,48,68,90,110,129,149,169,190,210,229,250,270,288,308,329,349,369,390,409,429,450,468,489,510,528,549,570,589,608,629,650,669,689,709,728,748,768,789,810,830,850,868,889,909,928,948,969,989,1009,1030,1050,1070,1090,1109,1129,1149,1170,1189,1210,1229,1248,1270,1289,1309,1329,1349,1368,1388,1408,1429],"xSR":741.5,"ySR":573.95,"xT1":424.9,"yT1":0,"xT2":1058.1,"yT2":0,"toosoon":0,"cond_shown":"equaldotsize","ratio_trial":500,"smaller_num":"2","larger_num":"4","correct_side":1,"subjID":"samuelmolina9","gender":"0","age":"9","school":"4"},{"start_time":1552055155592,"click_time":1552055157186,"finger_time":1552055156386,"fix_duration":1124.7355622708421,"trial":42,"RT":794,"MT":800,"sideResp":2,"stimulus":"img/250/randomdotsizeEA/R/11_Ratio_250_L_3_R_12.png","xmouse":[800,800,800,800,800,800,800,800,800,800,801,801,801,801,802,802,802,802,802,802,802,802,802,802,802,802,803,805,805,805,805,805,807,807,808,809,811,815,819,837,847,855,861,865,879,885,894,906,915,923,923,924,924,924,924,925,927,928,929,934,946,964,983,1001,1015,1015,1015,1015,1015,1017,1019,1022,1024,1026,1027,1027,1027,1030,1034,1063],"ymouse":[631,631,631,631,631,631,630,630,629,628,628,627,627,627,626,626,626,626,626,626,626,626,626,626,626,626,625,625,625,625,625,625,624,624,620,614,608,598,582,538,508,476,444,416,319,287,257,229,206,169,162,159,159,159,159,159,159,159,159,159,159,153,144,136,129,129,129,129,129,127,125,122,119,117,115,115,114,111,107,88],"timestamp_mouse":[14,40,54,76,94,116,134,155,175,194,215,236,255,275,294,316,336,356,375,396,415,436,456,476,495,515,535,556,576,594,614,635,654,675,694,715,734,755,776,794,814,834,856,875,895,915,934,954,974,995,1014,1035,1056,1074,1095,1115,1134,1155,1175,1195,1214,1236,1255,1276,1295,1314,1335,1355,1375,1396,1416,1435,1456,1474,1495,1514,1536,1555,1575,1594],"xSR":741.5,"ySR":573.95,"xT1":424.9,"yT1":0,"xT2":1058.1,"yT2":0,"toosoon":0,"cond_shown":"randomdotsizeEA","ratio_trial":250,"smaller_num":"3","larger_num":"12","correct_side":2,"subjID":"samuelmolina9","gender":"0","age":"9","school":"4"},{"start_time":1552055158786,"click_time":1552055160006,"finger_time":1552055159468,"fix_duration":717.8518801712079,"trial":43,"RT":682,"MT":538,"sideResp":2,"stimulus":"img/750/equaldotsize/R/4_Ratio_750_L_15_R_20.png","xmouse":[796,796,796,796,796,796,796,796,796,796,796,796,796,796,796,796,796,796,796,796,796,796,796,796,796,796,796,796,796,796,796,797,798,802,812,834,851,867,880,891,899,921,954,963,987,1007,1011,1012,1014,1015,1016,1022,1026,1029,1033,1037,1045,1048,1053,1060,1068,1084],"ymouse":[611,611,611,611,611,611,611,611,611,611,611,610,609,608,608,608,608,608,608,608,608,608,608,608,608,608,608,608,608,608,608,607,603,592,570,527,500,477,458,440,426,388,351,340,310,270,263,257,254,253,250,240,228,215,202,189,167,156,144,131,117,84],"timestamp_mouse":[10,39,41,61,81,100,121,140,161,181,202,220,240,261,281,301,320,341,361,381,401,420,442,466,481,501,522,542,561,581,601,621,642,661,682,700,720,740,762,781,800,821,840,860,881,901,922,940,961,981,1000,1021,1041,1060,1081,1100,1120,1140,1160,1180,1200,1220],"xSR":741.5,"ySR":573.95,"xT1":424.9,"yT1":0,"xT2":1058.1,"yT2":0,"toosoon":0,"cond_shown":"equaldotsize","ratio_trial":750,"smaller_num":"15","larger_num":"20","correct_side":2,"subjID":"samuelmolina9","gender":"0","age":"9","school":"4"},{"start_time":1552055161119,"click_time":1552055162606,"finger_time":1552055161927,"fix_duration":250,"trial":44,"RT":808,"MT":679,"sideResp":1,"stimulus":"img/500/equaldotsize/L/5_Ratio_500_L_4_R_2.png","xmouse":[786,787,788,790,792,792,792,792,792,792,792,792,792,792,792,792,792,792,792,792,792,792,792,792,792,792,792,792,792,792,792,792,793,793,793,793,793,793,791,788,784,781,780,778,776,776,776,776,776,774,772,769,764,758,744,735,717,693,644,632,623,618,614,606,595,581,566,553,542,529,527,522,515,507,494],"ymouse":[641,639,639,639,638,638,638,638,638,638,638,638,638,638,638,638,638,638,638,638,638,638,638,638,638,638,638,638,638,638,638,638,637,636,628,625,619,613,605,582,568,557,544,536,529,528,528,527,521,517,510,503,491,478,448,428,366,292,193,174,164,163,162,160,159,157,155,153,152,149,148,144,138,126,90],"timestamp_mouse":[8,29,47,68,87,107,127,147,168,188,207,227,248,267,289,309,329,347,368,389,407,427,447,468,489,509,528,548,568,588,607,628,647,668,688,708,728,747,768,789,808,827,847,867,887,908,928,948,969,988,1007,1027,1048,1068,1089,1107,1127,1148,1169,1188,1208,1227,1248,1268,1287,1308,1328,1347,1368,1388,1407,1427,1448,1468,1487],"xSR":741.5,"ySR":573.95,"xT1":424.9,"yT1":0,"xT2":1058.1,"yT2":0,"toosoon":0,"cond_shown":"equaldotsize","ratio_trial":500,"smaller_num":"2","larger_num":"4","correct_side":1,"subjID":"samuelmolina9","gender":"0","age":"9","school":"4"},{"start_time":1552055164181,"click_time":1552055165428,"finger_time":1552055164987,"fix_duration":572.7099258745371,"trial":45,"RT":806,"MT":441,"sideResp":2,"stimulus":"img/900/randomdotsizeEA/L/8_Ratio_900_L_20_R_18.png","xmouse":[810,810,810,810,810,810,810,810,810,810,810,810,810,810,810,810,810,810,810,810,810,810,810,810,810,810,810,810,810,810,810,810,811,813,814,815,819,823,829,837,858,911,936,974,1025,1086,1188,1202,1207,1212,1214,1219,1219,1219,1219,1219,1219,1219,1219,1219,1215,1167,1145],"ymouse":[629,629,629,629,629,629,629,629,629,629,629,629,629,629,629,629,629,629,629,629,629,629,629,629,629,629,629,629,629,629,628,625,622,619,617,614,606,600,590,578,551,490,457,402,326,239,80,26,0,0,0,0,0,0,0,0,0,0,0,0,2,38,47],"timestamp_mouse":[12,41,46,66,86,107,126,147,166,185,205,226,246,267,287,306,325,347,366,386,407,427,447,465,485,505,525,547,565,585,605,626,646,666,686,707,726,745,766,787,806,825,847,865,887,907,926,946,966,986,1007,1028,1045,1065,1085,1106,1127,1145,1166,1186,1206,1226,1247],"xSR":741.5,"ySR":573.95,"xT1":424.9,"yT1":0,"xT2":1058.1,"yT2":0,"toosoon":0,"cond_shown":"randomdotsizeEA","ratio_trial":900,"smaller_num":"18","larger_num":"20","correct_side":1,"subjID":"samuelmolina9","gender":"0","age":"9","school":"4"},{"start_time":1552055167019,"click_time":1552055167847,"finger_time":1552055167688,"fix_duration":250,"trial":46,"RT":669,"MT":159,"sideResp":1,"stimulus":"img/250/equaldotsize/L/5_Ratio_250_L_24_R_6.png","xmouse":[771,771,771,771,771,771,771,771,771,771,771,771,771,771,771,771,771,771,771,771,771,771,771,771,771,771,771,771,771,771,771,769,764,756,726,702,675,641,630,591,528,511],"ymouse":[613,613,613,613,613,613,613,613,613,613,613,613,613,613,613,613,613,613,613,613,613,613,613,613,613,613,613,613,613,612,610,602,586,562,483,424,364,287,262,190,118,95],"timestamp_mouse":[14,37,48,68,89,107,129,147,167,188,208,227,249,267,289,308,329,348,368,389,407,427,448,467,489,508,529,548,569,587,609,627,647,669,688,707,727,747,767,787,808,827],"xSR":741.5,"ySR":573.95,"xT1":424.9,"yT1":0,"xT2":1058.1,"yT2":0,"toosoon":0,"cond_shown":"equaldotsize","ratio_trial":250,"smaller_num":"6","larger_num":"24","correct_side":1,"subjID":"samuelmolina9","gender":"0","age":"9","school":"4"},{"start_time":1552055171415,"click_time":1552055172268,"finger_time":1552055172086,"fix_duration":1045.4567514150554,"trial":47,"RT":671,"MT":182,"sideResp":2,"stimulus":"img/750/equaldotsize/R/15_Ratio_750_L_9_R_12.png","xmouse":[789,789,789,789,789,789,789,789,789,789,789,789,789,789,789,789,789,789,789,789,789,789,789,789,789,789,789,789,789,790,795,800,809,823,845,897,936,959,978,1000,1047,1063,1073],"ymouse":[628,628,628,628,628,628,628,628,628,628,628,628,628,628,628,628,628,628,628,628,628,628,628,628,628,628,628,628,628,626,614,601,582,556,514,422,348,302,261,221,148,119,99],"timestamp_mouse":[13,43,52,73,92,113,131,152,173,192,213,232,253,273,291,311,333,351,373,393,411,433,451,472,492,511,532,552,572,591,613,633,652,671,692,712,732,752,772,793,812,833,853],"xSR":741.5,"ySR":573.95,"xT1":424.9,"yT1":0,"xT2":1058.1,"yT2":0,"toosoon":0,"cond_shown":"equaldotsize","ratio_trial":750,"smaller_num":"9","larger_num":"12","correct_side":2,"subjID":"samuelmolina9","gender":"0","age":"9","school":"4"},{"start_time":1552055176115,"click_time":1552055177347,"finger_time":1552055177127,"fix_duration":607.9203039182414,"trial":48,"RT":1012,"MT":220,"sideResp":2,"stimulus":"img/500/equaldotanddens/R/12_Ratio_500_L_1_R_2.png","xmouse":[799,799,799,799,799,799,799,799,799,799,799,799,799,799,799,799,799,799,799,799,799,799,799,799,799,799,799,799,800,800,801,806,809,812,816,817,817,817,817,817,817,817,817,817,817,817,819,822,829,831,841,843,844,847,857,907,930,963,994,1026,1061,1062],"ymouse":[623,623,623,623,623,623,623,623,623,623,623,623,623,623,623,623,623,623,623,623,623,623,623,623,623,623,623,623,622,621,619,608,603,597,592,589,589,589,589,589,589,589,589,589,589,589,586,584,579,578,571,569,567,561,549,474,413,322,247,186,111,98],"timestamp_mouse":[13,32,52,73,91,112,132,152,172,191,212,233,253,272,292,312,331,352,372,393,412,432,453,472,491,513,533,552,571,593,611,631,653,672,691,712,731,752,772,792,811,831,853,872,891,913,931,953,971,991,1012,1032,1052,1072,1093,1112,1132,1152,1171,1193,1212,1232],"xSR":741.5,"ySR":573.95,"xT1":424.9,"yT1":0,"xT2":1058.1,"yT2":0,"toosoon":0,"cond_shown":"equaldotanddens","ratio_trial":500,"smaller_num":"1","larger_num":"2","correct_side":2,"subjID":"samuelmolina9","gender":"0","age":"9","school":"4"},{"start_time":1552055178879,"click_time":1552055180126,"finger_time":1552055179746,"fix_duration":250,"trial":49,"RT":867,"MT":380,"sideResp":1,"stimulus":"img/900/randomdotsizeEA/L/1_Ratio_900_L_10_R_9.png","xmouse":[775,775,775,775,775,775,775,775,775,775,775,775,775,775,775,775,775,775,775,774,774,774,774,773,773,773,773,773,773,773,773,773,773,773,773,773,773,773,773,773,773,773,772,760,749,728,702,678,624,608,585,582,581,581,580,580,578,572,555,541,529,510,504],"ymouse":[615,615,615,615,615,615,615,615,615,615,615,615,615,615,615,615,615,615,615,615,615,615,615,615,615,615,615,615,615,615,615,615,615,615,615,615,615,615,615,615,615,613,607,556,513,447,383,322,240,222,209,209,209,209,209,208,204,195,163,141,125,102,97],"timestamp_mouse":[12,37,47,68,89,107,128,148,168,187,207,229,247,269,287,307,329,348,367,387,408,429,448,468,489,508,528,548,569,589,608,628,648,669,688,708,729,749,768,788,809,828,847,867,888,907,927,948,967,988,1008,1028,1048,1067,1087,1108,1129,1148,1168,1188,1207,1228,1247],"xSR":741.5,"ySR":573.95,"xT1":424.9,"yT1":0,"xT2":1058.1,"yT2":0,"toosoon":0,"cond_shown":"randomdotsizeEA","ratio_trial":900,"smaller_num":"9","larger_num":"10","correct_side":1,"subjID":"samuelmolina9","gender":"0","age":"9","school":"4"},{"start_time":1552055182707,"click_time":1552055184068,"finger_time":1552055183366,"fix_duration":1379.1737434290994,"trial":50,"RT":659,"MT":702,"sideResp":2,"stimulus":"img/750/equaldotsize/R/4_Ratio_750_L_15_R_20.png","xmouse":[796,796,796,796,796,796,796,796,796,796,796,796,796,796,796,796,796,796,796,796,796,796,796,796,796,796,796,796,796,796,796,796,798,804,813,824,836,859,864,868,873,881,908,925,941,959,979,1000,1004,1006,1008,1010,1013,1014,1014,1014,1014,1014,1014,1014,1014,1016,1035,1042,1044,1044,1044,1049,1069],"ymouse":[633,633,633,633,633,633,633,633,633,633,633,633,633,633,633,633,633,633,633,633,633,633,633,633,633,633,633,633,633,633,633,619,588,563,533,504,472,418,404,395,387,380,366,355,342,324,300,233,206,184,168,154,134,129,128,128,128,128,128,128,127,126,104,94,85,82,82,81,81],"timestamp_mouse":[11,21,39,61,81,100,120,140,159,181,201,220,241,260,281,300,320,341,361,381,401,419,441,459,480,499,519,540,561,580,600,621,640,659,680,700,720,740,760,779,799,820,841,860,879,899,919,940,961,979,1001,1019,1039,1060,1080,1099,1121,1140,1160,1180,1199,1220,1240,1259,1280,1301,1321,1340,1360],"xSR":741.5,"ySR":573.95,"xT1":424.9,"yT1":0,"xT2":1058.1,"yT2":0,"toosoon":0,"cond_shown":"equaldotsize","ratio_trial":750,"smaller_num":"15","larger_num":"20","correct_side":2,"subjID":"samuelmolina9","gender":"0","age":"9","school":"4"},{"start_time":1552055185765,"click_time":1552055187527,"finger_time":1552055186446,"fix_duration":796.5226423337418,"trial":51,"RT":681,"MT":1081,"sideResp":1,"stimulus":"img/250/randomdotsizeEA/L/1_Ratio_250_L_8_R_2.png","xmouse":[766,766,766,766,766,766,766,766,766,766,766,766,766,766,766,766,766,766,766,766,766,766,766,766,766,766,766,766,766,766,766,766,766,768,786,793,803,819,844,880,889,899,905,907,907,907,907,907,904,891,871,848,810,793,732,712,692,679,666,652,609,583,576,555,537,529,526,525,525,525,525,525,525,525,525,525,525,525,525,525,525,525,525,525,525,525,525,525,524],"ymouse":[613,613,613,613,613,613,613,613,612,612,612,612,612,612,612,612,612,612,612,612,612,612,612,612,612,612,612,612,612,612,612,612,611,602,562,535,503,458,399,322,298,281,270,268,268,268,268,268,268,268,269,269,269,268,251,243,234,228,222,216,200,181,174,144,98,75,55,39,28,22,22,22,22,22,22,22,22,22,22,22,22,22,22,22,22,22,22,22,22],"timestamp_mouse":[9,36,43,63,82,101,121,141,161,182,202,223,242,261,281,302,323,341,362,383,403,422,442,462,482,503,521,542,563,582,602,623,643,661,681,701,722,743,763,782,801,822,842,862,882,903,922,941,961,982,1002,1022,1042,1063,1082,1102,1121,1143,1162,1181,1202,1223,1243,1261,1282,1301,1321,1343,1363,1382,1402,1422,1442,1462,1482,1502,1522,1541,1562,1582,1602,1621,1641,1662,1683,1702,1722,1742,1762],"xSR":741.5,"ySR":573.95,"xT1":424.9,"yT1":0,"xT2":1058.1,"yT2":0,"toosoon":0,"cond_shown":"randomdotsizeEA","ratio_trial":250,"smaller_num":"2","larger_num":"8","correct_side":1,"subjID":"samuelmolina9","gender":"0","age":"9","school":"4"},{"start_time":1552055189602,"click_time":1552055190767,"finger_time":1552055190267,"fix_duration":1214.92743011549,"trial":52,"RT":665,"MT":500,"sideResp":2,"stimulus":"img/900/equaldotsize/L/8_Ratio_900_L_20_R_18.png","xmouse":[814,814,814,814,813,813,813,812,812,812,811,811,811,811,811,811,811,811,811,811,811,811,811,811,811,811,811,811,810,810,809,809,809,820,831,842,856,874,922,940,955,970,978,989,994,999,1003,1007,1014,1017,1019,1020,1021,1024,1027,1034,1045,1057,1062],"ymouse":[617,617,617,617,617,617,617,617,617,617,617,617,617,617,616,616,616,616,616,616,616,615,615,615,615,615,615,614,613,610,607,597,583,540,516,490,466,437,376,351,330,307,290,269,257,246,233,220,184,173,166,162,161,155,150,138,122,105,95],"timestamp_mouse":[4,35,45,66,86,105,124,146,166,186,205,224,246,265,284,306,326,346,365,385,405,426,446,465,484,506,526,544,565,586,605,624,645,665,685,706,726,745,764,786,805,825,845,865,885,905,926,945,965,986,1006,1024,1045,1065,1084,1105,1124,1145,1165],"xSR":741.5,"ySR":573.95,"xT1":424.9,"yT1":0,"xT2":1058.1,"yT2":0,"toosoon":0,"cond_shown":"equaldotsize","ratio_trial":900,"smaller_num":"18","larger_num":"20","correct_side":1,"subjID":"samuelmolina9","gender":"0","age":"9","school":"4"},{"start_time":1552055194643,"click_time":1552055202088,"finger_time":1552055195988,"fix_duration":955.0864363825478,"trial":53,"RT":1345,"MT":6100,"sideResp":1,"stimulus":"img/500/randomdotsizeEA/R/15_Ratio_500_L_1_R_2.png","xmouse":[770,770,770,770,770,770,770,770,770,770,770,770,770,770,770,770,770,770,770,770,770,770,770,770,770,770,770,770,770,770,770,770,770,770,770,770,770,770,770,770,770,770,770,768,768,768,768,768,768,768,768,768,768,770,770,770,770,770,770,769,762,760,757,750,745,743,733,733,733,733,733,732,732,731,730,730,730,730,730,730,732,734,739,746,754,768,801,811,813,813,810,784,764,739,736,735,743,748,752,757,760,763,765,773,775,777,778,778,778,778,778,778,778,778,778,778,778,778,778,777,769,761,759,757,757,755,755,755,755,755,755,755,755,755,755,754,736,707,693,690,690,690,690,690,690,684,662,640,620,612,610,606,606,606,608,610,611,611,612,612,612,612,611,604,598,592,592,592,592,592,592,592,592,592,592,592,592,592,593,594,594,594,594,594,594,594,594,594,594,594,594,594,594,594,594,594,594,594,594,594,594,594,594,592,591,590,590,590,590,590,591,593,593,593,593,592,591,591,591,591,591,591,592,592,592,590,566,555,549,549,549,549,549,549,549,549,549,549,549,549,549,549,549,549,548,548,549,549,549,549,549,549,549,549,549,549,549,549,549,549,549,549,549,549,549,549,549,549,549,549,549,549,549,549,549,549,549,549,549,549,549,564,573,585,597,607,619,621,621,621,621,621,621,621,621,621,621,621,621,621,621,621,621,622,624,626,633,638,642,646,646,646,646,646,646,646,646,646,646,646,646,646,645,644,644,644,642,642,642,642,642,648,662,682,698,708,716,716,717,717,717,717,717,715,712,705,682,671,664,657,644,623,616,607,600,593,582,581,578,576,575,571,571,571,569,566,544,522,507,497,489,467],"ymouse":[618,618,618,618,618,618,618,618,618,618,618,618,618,618,618,618,618,618,618,618,618,618,618,618,618,618,618,618,618,618,618,618,618,618,618,618,618,618,618,618,617,613,611,609,609,608,608,608,608,608,608,608,607,607,606,606,606,606,605,604,595,593,592,592,592,592,592,592,592,592,592,592,592,597,599,599,598,594,589,583,577,575,575,575,575,575,593,600,603,609,615,621,622,621,618,615,589,576,566,560,556,556,557,563,563,563,563,563,563,563,563,563,563,563,563,563,563,563,562,562,563,571,573,576,577,587,589,589,589,589,589,590,590,590,590,592,617,656,676,685,687,687,687,687,688,703,736,761,779,785,788,795,795,796,796,796,796,796,796,796,796,796,798,805,811,817,817,817,817,817,817,817,817,817,817,817,816,811,806,800,791,786,785,785,785,785,785,785,785,785,785,784,784,784,784,784,784,784,784,784,784,784,784,786,788,790,790,790,790,790,783,778,777,777,777,777,777,777,777,777,777,772,748,734,732,728,720,719,719,719,719,719,719,719,719,719,719,719,719,719,719,719,719,719,718,715,711,711,711,711,711,711,711,711,711,711,711,711,711,711,711,711,711,711,711,711,711,711,711,711,711,711,711,711,711,711,711,711,711,712,714,730,737,743,747,750,751,751,751,751,751,751,751,751,751,751,751,751,751,751,752,758,767,772,775,775,775,775,773,770,770,770,770,770,770,770,770,770,770,770,770,770,770,770,770,770,769,769,769,769,769,756,736,705,669,642,588,568,556,552,550,546,542,535,526,513,484,470,458,443,415,362,335,305,279,260,233,228,224,222,220,220,220,220,219,211,183,166,153,144,134,98],"timestamp_mouse":[20,45,63,83,103,124,145,163,184,204,225,243,263,284,304,325,344,364,383,404,423,444,463,484,503,524,545,564,583,603,625,644,665,683,705,725,744,763,783,803,824,844,863,884,903,924,943,963,984,1005,1023,1043,1064,1084,1104,1125,1143,1165,1185,1205,1224,1243,1265,1285,1304,1324,1345,1364,1385,1405,1424,1444,1464,1485,1505,1523,1543,1564,1584,1605,1625,1643,1663,1683,1704,1725,1743,1763,1784,1804,1825,1843,1864,1885,1905,1924,1945,1965,1984,2006,2025,2045,2064,2084,2105,2125,2145,2165,2184,2204,2225,2244,2265,2286,2305,2325,2344,2364,2384,2405,2426,2445,2465,2484,2504,2526,2545,2566,2585,2604,2624,2645,2665,2685,2704,2724,2745,2765,2785,2804,2826,2844,2864,2885,2905,2926,2944,2965,2985,3004,3024,3045,3065,3084,3105,3124,3145,3164,3185,3206,3225,3244,3264,3284,3304,3326,3344,3365,3384,3405,3424,3444,3464,3484,3504,3524,3544,3565,3584,3604,3624,3644,3664,3685,3704,3725,3745,3765,3785,3804,3826,3844,3864,3885,3905,3925,3944,3966,3986,4006,4024,4044,4064,4084,4104,4126,4144,4165,4184,4204,4225,4244,4265,4284,4305,4324,4345,4365,4385,4405,4424,4444,4464,4484,4505,4524,4544,4565,4584,4604,4624,4645,4665,4685,4704,4724,4744,4766,4784,4805,4824,4844,4864,4884,4904,4924,4944,4965,4986,5004,5025,5044,5065,5084,5104,5125,5146,5165,5184,5204,5224,5244,5265,5284,5305,5325,5346,5364,5385,5404,5424,5445,5464,5485,5506,5524,5544,5564,5584,5604,5624,5645,5665,5684,5705,5724,5744,5764,5785,5805,5825,5844,5865,5884,5905,5926,5946,5964,5985,6004,6024,6044,6064,6084,6104,6125,6144,6165,6185,6205,6224,6244,6265,6286,6304,6326,6345,6364,6384,6404,6424,6445,6464,6485,6505,6525,6544,6564,6585,6604,6626,6644,6665,6684,6705,6725,6744,6764,6786,6804,6824,6844,6866,6884,6905,6925,6944,6964,6985,7006,7026,7044,7066,7084,7105,7124,7144,7164,7185,7206,7224,7245,7266,7284,7305,7325,7344,7365,7385,7405,7425,7444],"xSR":741.5,"ySR":573.95,"xT1":424.9,"yT1":0,"xT2":1058.1,"yT2":0,"toosoon":0,"cond_shown":"randomdotsizeEA","ratio_trial":500,"smaller_num":"1","larger_num":"2","correct_side":2,"subjID":"samuelmolina9","gender":"0","age":"9","school":"4"},{"start_time":1552055206310,"click_time":1552055207587,"finger_time":1552055206947,"fix_duration":519.4065437792925,"trial":54,"RT":637,"MT":640,"sideResp":1,"stimulus":"img/900/equaldotanddens/L/8_Ratio_900_L_20_R_18.png","xmouse":[762,762,762,762,764,766,776,776,776,777,777,777,777,777,777,777,777,777,777,777,777,778,779,780,783,783,783,783,783,784,788,789,797,850,904,948,972,978,984,1000,1001,1001,999,996,982,974,964,953,937,892,858,824,784,733,699,691,687,684,681,664,645,619,573,523],"ymouse":[634,634,634,634,634,634,637,637,637,640,640,640,640,640,640,640,640,640,640,640,640,638,637,637,638,638,638,638,638,635,602,573,551,471,395,325,261,204,160,86,60,44,38,38,51,64,79,91,106,131,144,155,167,177,179,180,180,178,175,158,143,127,106,87],"timestamp_mouse":[18,42,58,77,97,118,139,158,178,197,217,238,258,279,298,317,338,358,379,398,418,437,458,477,498,517,538,557,579,598,617,637,658,679,697,718,737,757,777,797,817,837,857,878,898,918,937,958,977,997,1017,1037,1058,1078,1098,1118,1137,1157,1178,1198,1217,1237,1258,1277],"xSR":741.5,"ySR":573.95,"xT1":424.9,"yT1":0,"xT2":1058.1,"yT2":0,"toosoon":0,"cond_shown":"equaldotanddens","ratio_trial":900,"smaller_num":"18","larger_num":"20","correct_side":1,"subjID":"samuelmolina9","gender":"0","age":"9","school":"4"},{"start_time":1552055210930,"click_time":1552055212188,"finger_time":1552055211647,"fix_duration":1261.1838294639101,"trial":55,"RT":717,"MT":541,"sideResp":2,"stimulus":"img/250/equaldotanddens/R/9_Ratio_250_L_3_R_12.png","xmouse":[781,781,781,782,782,782,782,782,782,782,782,782,782,782,782,782,782,782,782,782,782,782,782,782,782,782,782,782,782,782,782,782,782,788,792,800,808,815,828,832,838,843,849,855,857,860,863,867,874,876,877,8