[{"start_time":1552328037170,"click_time":1552328040759,"finger_time":1552328039300,"fix_duration":1367.1037046046986,"trial":0,"RT":2130,"MT":1459,"sideResp":2,"stimulus":"img/500/randomdotsizeEA/L/4_Ratio_500_L_18_R_9.png","xmouse":[783,783,783,783,783,783,783,783,783,783,783,783,783,783,783,783,783,783,783,783,783,783,783,783,783,783,783,783,783,783,783,783,783,783,783,783,783,783,783,783,783,783,783,783,783,783,783,783,783,783,783,783,783,783,783,783,783,783,783,783,783,783,783,783,783,783,783,783,783,783,783,783,783,783,783,783,783,783,783,783,783,783,783,783,783,783,783,783,783,783,783,783,783,795,810,810,809,809,811,812,812,812,812,814,827,838,846,850,852,857,865,883,909,920,938,943,948,949,949,942,933,925,908,900,884,875,867,855,841,814,795,782,769,754,730,724,721,721,721,721,721,721,721,722,755,812,912,912,1186,1311,1364,1366,1367,1367,1367,1367,1367,1368,1368,1368,1358,1347,1335,1315,1290,1249,1234,1228,1227,1226,1225,1222,1219,1214,1200,1191,1182,1170,1163,1152],"ymouse":[510,510,510,510,510,510,510,510,510,510,510,510,510,510,510,510,510,510,510,510,510,510,510,510,510,510,510,510,510,510,510,510,510,510,510,510,510,510,510,510,510,510,510,510,510,510,510,510,510,510,510,510,510,510,510,510,510,510,510,510,510,510,510,510,510,510,510,510,510,510,510,510,510,510,510,510,510,510,510,510,510,510,510,510,510,510,510,510,510,510,510,510,509,505,496,495,492,491,487,486,486,486,486,488,501,509,515,517,519,528,533,533,525,512,447,411,372,344,321,277,263,248,225,210,191,182,177,172,168,160,153,145,140,133,123,121,121,121,121,121,121,121,121,121,121,121,121,121,134,147,148,148,148,148,148,148,148,148,144,138,123,118,114,108,101,89,85,83,83,83,83,83,83,83,83,80,77,74,72,68],"timestamp_mouse":[10,32,48,68,88,110,130,149,169,190,209,228,248,268,288,308,329,348,368,388,409,429,448,468,488,509,529,548,570,589,608,629,648,670,689,708,728,750,769,789,809,828,848,870,889,909,929,949,970,989,1009,1028,1048,1068,1089,1110,1129,1149,1168,1190,1208,1229,1249,1268,1288,1309,1329,1348,1369,1388,1408,1429,1449,1468,1490,1509,1529,1550,1570,1588,1608,1629,1648,1670,1689,1710,1728,1749,1768,1790,1809,1829,1849,1870,1890,1908,1928,1948,1969,1990,2008,2028,2049,2068,2088,2108,2130,2148,2168,2189,2208,2229,2248,2269,2288,2308,2329,2350,2369,2390,2409,2428,2449,2468,2488,2508,2529,2549,2569,2588,2608,2628,2649,2668,2688,2708,2729,2748,2768,2788,2809,2828,2848,2868,2888,2908,2928,2948,2968,2988,3009,3029,3049,3068,3088,3109,3129,3149,3169,3188,3209,3229,3248,3269,3288,3308,3329,3348,3368,3388,3408,3428,3448,3469,3489,3509,3528,3548,3568,3588],"xSR":741.5,"ySR":469.95,"xT1":424.9,"yT1":0,"xT2":1058.1,"yT2":0,"toosoon":0,"cond_shown":"randomdotsizeEA","ratio_trial":500,"smaller_num":"9","larger_num":"18","correct_side":1,"subjID":"Samuelricolopez10","gender":"0","age":"8","school":"4","test":{"fix_dur":[250,1500],"timestim":300,"targets_dim":[100,100],"targets_relative_coord":[0.3,0.7],"size_stim":[880,420],"start_dim":[100,100],"size_start":[300,300],"size_fix":60,"samplingrate":20,"img_types":["equaldotsize","equaldotanddens","randomdotsizeEA"],"ratios":[250,500,750,900],"rep_conds":9,"nTrials":120,"trials_to_rest":500,"Trials_order":[77,92,33,81,65,101,78,9,73,68,27,49,79,64,116,98,75,111,39,42,76,60,41,66,50,44,118,112,23,113,48,4,10,34,59,56,83,2,80,55,62,38,107,119,117,12,36,52,115,22,61,97,93,84,72,108,47,105,86,57,40,46,100,103,14,89,16,96,54,51,25,45,106,53,3,8,19,32,28,90,95,0,102,11,37,94,43,110,87,91,13,26,18,30,70,31,58,24,1,17,7,85,21,104,67,6,5,114,109,29,35,74,88,69,82,15,99,71,63,20],"cond_shown":["randomdotsizeEA","randomdotsizeEA","equaldotsize","equaldotsize","randomdotsizeEA","randomdotsizeEA","equaldotsize","equaldotsize","equaldotanddens","randomdotsizeEA","equaldotsize","equaldotanddens","equaldotanddens","equaldotanddens","randomdotsizeEA","randomdotsizeEA","equaldotsize","equaldotsize","equaldotsize","equaldotsize","equaldotanddens","equaldotsize","randomdotsizeEA","equaldotsize","randomdotsizeEA","randomdotsizeEA","equaldotanddens","equaldotanddens","randomdotsizeEA","randomdotsizeEA","equaldotsize","equaldotanddens","equaldotanddens","equaldotanddens","randomdotsizeEA","randomdotsizeEA","randomdotsizeEA","randomdotsizeEA","randomdotsizeEA","equaldotanddens","randomdotsizeEA","randomdotsizeEA","randomdotsizeEA","randomdotsizeEA","equaldotsize","equaldotsize","equaldotsize","equaldotanddens","equaldotanddens","equaldotanddens","equaldotanddens","equaldotanddens","equaldotsize","equaldotsize","equaldotsize","equaldotsize","randomdotsizeEA","equaldotsize","randomdotsizeEA","equaldotsize","equaldotanddens","equaldotanddens","equaldotanddens","equaldotanddens","randomdotsizeEA","randomdotsizeEA","equaldotanddens","equaldotsize","equaldotsize","equaldotsize","equaldotanddens","equaldotsize","equaldotanddens","randomdotsizeEA","equaldotsize","randomdotsizeEA","equaldotanddens","randomdotsizeEA","equaldotanddens","equaldotsize","randomdotsizeEA","equaldotsize","equaldotsize","randomdotsizeEA","equaldotanddens","equaldotanddens","equaldotanddens","randomdotsizeEA","equaldotsize","equaldotanddens","equaldotanddens","randomdotsizeEA","equaldotsize","equaldotsize","equaldotanddens","equaldotanddens","equaldotanddens","equaldotsize","equaldotanddens","randomdotsizeEA","equaldotanddens","equaldotanddens","equaldotsize","randomdotsizeEA","equaldotanddens","equaldotsize","randomdotsizeEA","equaldotsize","equaldotanddens","randomdotsizeEA","randomdotsizeEA","randomdotsizeEA","equaldotanddens","equaldotsize","equaldotanddens","equaldotsize","equaldotsize","randomdotsizeEA","equaldotsize","randomdotsizeEA"],"ratio_trial":[500,750,900,900,500,500,750,900,250,750,500,250,750,500,750,250,500,500,500,750,500,250,500,750,250,750,900,500,900,500,250,500,900,900,900,750,900,250,750,750,250,250,900,900,900,250,250,500,750,900,250,250,900,250,250,250,900,900,250,900,500,900,500,750,250,500,500,250,750,500,250,900,900,500,500,750,750,750,500,750,900,250,750,900,250,900,750,250,500,750,250,250,750,750,900,750,900,250,250,500,750,250,900,750,750,750,500,750,250,500,900,250,500,900,900,500,500,900,500,750],"smaller_num":["9","3","9","18","4","9","3","18","2","18","3","3","18","9","15","3","2","6","9","6","2","3","2","12","3","9","18","1","18","1","3","2","9","18","9","3","18","2","3","6","1","6","18","9","9","5","2","1","6","18","3","1","18","6","2","2","18","18","2","9","1","18","2","15","2","9","4","3","6","4","2","9","18","9","1","15","15","9","5","6","18","6","18","18","3","9","15","6","5","9","3","3","3","6","18","9","18","4","6","9","15","2","18","12","18","15","6","3","3","6","18","2","2","18","18","2","4","18","2","3"],"larger_num":["18","4","10","20","8","18","4","20","8","24","6","12","24","18","20","12","4","12","18","8","4","12","4","16","12","12","20","2","20","2","12","4","10","20","10","4","20","8","4","8","4","24","20","10","10","20","8","2","8","20","12","4","20","24","8","8","20","20","8","10","2","20","4","20","8","18","8","12","8","8","8","10","20","18","2","20","20","12","10","8","20","24","24","20","12","10","20","24","10","12","12","12","4","8","20","12","20","16","24","18","20","8","20","16","24","20","12","4","12","12","20","8","4","20","20","4","8","20","4","4"],"correct_side":[1,1,2,1,1,1,2,1,1,1,2,1,1,2,2,1,1,1,2,1,1,2,1,2,1,2,2,2,1,2,1,1,2,1,2,1,2,1,2,1,2,1,1,2,2,2,2,2,2,1,1,2,1,2,2,1,1,2,1,1,2,1,2,2,1,1,1,2,1,1,2,2,1,2,2,2,2,2,1,2,1,2,1,1,1,2,2,2,2,2,2,2,1,2,2,2,2,1,1,2,2,1,1,2,1,2,1,1,1,1,2,1,1,1,2,2,1,1,1,1],"img_shown":["img/500/randomdotsizeEA/L/4_Ratio_500_L_18_R_9.png","img/750/randomdotsizeEA/L/10_Ratio_750_L_4_R_3.png","img/900/equaldotsize/R/6_Ratio_900_L_9_R_10.png","img/900/equaldotsize/L/10_Ratio_900_L_20_R_18.png","img/500/randomdotsizeEA/L/8_Ratio_500_L_8_R_4.png","img/500/randomdotsizeEA/L/4_Ratio_500_L_18_R_9.png","img/750/equaldotsize/R/12_Ratio_750_L_3_R_4.png","img/900/equaldotsize/L/10_Ratio_900_L_20_R_18.png","img/250/equaldotanddens/L/1_Ratio_250_L_8_R_2.png","img/750/randomdotsizeEA/L/6_Ratio_750_L_24_R_18.png","img/500/equaldotsize/R/2_Ratio_500_L_3_R_6.png","img/250/equaldotanddens/L/14_Ratio_250_L_12_R_3.png","img/750/equaldotanddens/L/6_Ratio_750_L_24_R_18.png","img/500/equaldotanddens/R/6_Ratio_500_L_9_R_18.png","img/750/randomdotsizeEA/R/4_Ratio_750_L_15_R_20.png","img/250/randomdotsizeEA/L/15_Ratio_250_L_12_R_3.png","img/500/equaldotsize/L/10_Ratio_500_L_4_R_2.png","img/500/equaldotsize/L/11_Ratio_500_L_12_R_6.png","img/500/equaldotsize/R/6_Ratio_500_L_9_R_18.png","img/750/equaldotsize/L/13_Ratio_750_L_8_R_6.png","img/500/equaldotanddens/L/10_Ratio_500_L_4_R_2.png","img/250/equaldotsize/R/11_Ratio_250_L_3_R_12.png","img/500/randomdotsizeEA/L/10_Ratio_500_L_4_R_2.png","img/750/equaldotsize/R/11_Ratio_750_L_12_R_16.png","img/250/randomdotsizeEA/L/15_Ratio_250_L_12_R_3.png","img/750/randomdotsizeEA/R/15_Ratio_750_L_9_R_12.png","img/900/equaldotanddens/R/11_Ratio_900_L_18_R_20.png","img/500/equaldotanddens/R/12_Ratio_500_L_1_R_2.png","img/900/randomdotsizeEA/L/10_Ratio_900_L_20_R_18.png","img/500/randomdotsizeEA/R/12_Ratio_500_L_1_R_2.png","img/250/equaldotsize/L/15_Ratio_250_L_12_R_3.png","img/500/equaldotanddens/L/10_Ratio_500_L_4_R_2.png","img/900/equaldotanddens/R/6_Ratio_900_L_9_R_10.png","img/900/equaldotanddens/L/2_Ratio_900_L_20_R_18.png","img/900/randomdotsizeEA/R/3_Ratio_900_L_9_R_10.png","img/750/randomdotsizeEA/L/10_Ratio_750_L_4_R_3.png","img/900/randomdotsizeEA/R/13_Ratio_900_L_18_R_20.png","img/250/randomdotsizeEA/L/7_Ratio_250_L_8_R_2.png","img/750/randomdotsizeEA/R/7_Ratio_750_L_3_R_4.png","img/750/equaldotanddens/L/13_Ratio_750_L_8_R_6.png","img/250/randomdotsizeEA/R/8_Ratio_250_L_1_R_4.png","img/250/randomdotsizeEA/L/5_Ratio_250_L_24_R_6.png","img/900/randomdotsizeEA/L/2_Ratio_900_L_20_R_18.png","img/900/randomdotsizeEA/R/15_Ratio_900_L_9_R_10.png","img/900/equaldotsize/R/15_Ratio_900_L_9_R_10.png","img/250/equaldotsize/R/12_Ratio_250_L_5_R_20.png","img/250/equaldotsize/R/13_Ratio_250_L_2_R_8.png","img/500/equaldotanddens/R/12_Ratio_500_L_1_R_2.png","img/750/equaldotanddens/R/2_Ratio_750_L_6_R_8.png","img/900/equaldotanddens/L/10_Ratio_900_L_20_R_18.png","img/250/equaldotanddens/L/14_Ratio_250_L_12_R_3.png","img/250/equaldotanddens/R/8_Ratio_250_L_1_R_4.png","img/900/equaldotsize/L/2_Ratio_900_L_20_R_18.png","img/250/equaldotsize/R/6_Ratio_250_L_6_R_24.png","img/250/equaldotsize/R/13_Ratio_250_L_2_R_8.png","img/250/equaldotsize/L/7_Ratio_250_L_8_R_2.png","img/900/randomdotsizeEA/L/4_Ratio_900_L_20_R_18.png","img/900/equaldotsize/R/12_Ratio_900_L_18_R_20.png","img/250/randomdotsizeEA/L/1_Ratio_250_L_8_R_2.png","img/900/equaldotsize/L/1_Ratio_900_L_10_R_9.png","img/500/equaldotanddens/R/15_Ratio_500_L_1_R_2.png","img/900/equaldotanddens/L/4_Ratio_900_L_20_R_18.png","img/500/equaldotanddens/R/9_Ratio_500_L_2_R_4.png","img/750/equaldotanddens/R/3_Ratio_750_L_15_R_20.png","img/250/randomdotsizeEA/L/7_Ratio_250_L_8_R_2.png","img/500/randomdotsizeEA/L/4_Ratio_500_L_18_R_9.png","img/500/equaldotanddens/L/8_Ratio_500_L_8_R_4.png","img/250/equaldotsize/R/9_Ratio_250_L_3_R_12.png","img/750/equaldotsize/L/13_Ratio_750_L_8_R_6.png","img/500/equaldotsize/L/8_Ratio_500_L_8_R_4.png","img/250/equaldotanddens/R/13_Ratio_250_L_2_R_8.png","img/900/equaldotsize/R/5_Ratio_900_L_9_R_10.png","img/900/equaldotanddens/L/4_Ratio_900_L_20_R_18.png","img/500/randomdotsizeEA/R/6_Ratio_500_L_9_R_18.png","img/500/equaldotsize/R/12_Ratio_500_L_1_R_2.png","img/750/randomdotsizeEA/R/4_Ratio_750_L_15_R_20.png","img/750/equaldotanddens/R/4_Ratio_750_L_15_R_20.png","img/750/randomdotsizeEA/R/15_Ratio_750_L_9_R_12.png","img/500/equaldotanddens/L/7_Ratio_500_L_10_R_5.png","img/750/equaldotsize/R/2_Ratio_750_L_6_R_8.png","img/900/randomdotsizeEA/L/4_Ratio_900_L_20_R_18.png","img/250/equaldotsize/R/6_Ratio_250_L_6_R_24.png","img/750/equaldotsize/L/6_Ratio_750_L_24_R_18.png","img/900/randomdotsizeEA/L/8_Ratio_900_L_20_R_18.png","img/250/equaldotanddens/L/14_Ratio_250_L_12_R_3.png","img/900/equaldotanddens/R/3_Ratio_900_L_9_R_10.png","img/750/equaldotanddens/R/3_Ratio_750_L_15_R_20.png","img/250/randomdotsizeEA/R/6_Ratio_250_L_6_R_24.png","img/500/equaldotsize/R/14_Ratio_500_L_5_R_10.png","img/750/equaldotanddens/R/15_Ratio_750_L_9_R_12.png","img/250/equaldotanddens/R/4_Ratio_250_L_3_R_12.png","img/250/randomdotsizeEA/R/11_Ratio_250_L_3_R_12.png","img/750/equaldotsize/L/8_Ratio_750_L_4_R_3.png","img/750/equaldotsize/R/2_Ratio_750_L_6_R_8.png","img/900/equaldotanddens/R/12_Ratio_900_L_18_R_20.png","img/750/equaldotanddens/R/15_Ratio_750_L_9_R_12.png","img/900/equaldotanddens/R/9_Ratio_900_L_18_R_20.png","img/250/equaldotsize/L/2_Ratio_250_L_16_R_4.png","img/250/equaldotanddens/L/5_Ratio_250_L_24_R_6.png","img/500/randomdotsizeEA/R/6_Ratio_500_L_9_R_18.png","img/750/equaldotanddens/R/3_Ratio_750_L_15_R_20.png","img/250/equaldotanddens/L/7_Ratio_250_L_8_R_2.png","img/900/equaldotsize/L/4_Ratio_900_L_20_R_18.png","img/750/randomdotsizeEA/R/11_Ratio_750_L_12_R_16.png","img/750/equaldotanddens/L/6_Ratio_750_L_24_R_18.png","img/750/equaldotsize/R/5_Ratio_750_L_15_R_20.png","img/500/randomdotsizeEA/L/13_Ratio_500_L_12_R_6.png","img/750/equaldotsize/L/9_Ratio_750_L_4_R_3.png","img/250/equaldotanddens/L/15_Ratio_250_L_12_R_3.png","img/500/randomdotsizeEA/L/13_Ratio_500_L_12_R_6.png","img/900/randomdotsizeEA/R/14_Ratio_900_L_18_R_20.png","img/250/randomdotsizeEA/L/7_Ratio_250_L_8_R_2.png","img/500/equaldotanddens/L/5_Ratio_500_L_4_R_2.png","img/900/equaldotsize/L/10_Ratio_900_L_20_R_18.png","img/900/equaldotanddens/R/11_Ratio_900_L_18_R_20.png","img/500/equaldotsize/R/9_Ratio_500_L_2_R_4.png","img/500/equaldotsize/L/8_Ratio_500_L_8_R_4.png","img/900/randomdotsizeEA/L/4_Ratio_900_L_20_R_18.png","img/500/equaldotsize/L/5_Ratio_500_L_4_R_2.png","img/750/randomdotsizeEA/L/8_Ratio_750_L_4_R_3.png"],"Rat0":[["12_Ratio_0_L_9_R_0.png","13_Ratio_0_L_6_R_0.png","5_Ratio_0_L_2_R_0.png","6_Ratio_0_L_4_R_0.png","8_Ratio_0_L_6_R_0.png"],["1_Ratio_0_L_0_R_17.png","10_Ratio_0_L_0_R_22.png","11_Ratio_0_L_0_R_1.png","14_Ratio_0_L_0_R_24.png","15_Ratio_0_L_0_R_4.png","2_Ratio_0_L_0_R_5.png","3_Ratio_0_L_0_R_17.png","4_Ratio_0_L_0_R_7.png","7_Ratio_0_L_0_R_19.png","9_Ratio_0_L_0_R_15.png"]],"Rat250":[["1_Ratio_250_L_8_R_2.png","14_Ratio_250_L_12_R_3.png","15_Ratio_250_L_12_R_3.png","2_Ratio_250_L_16_R_4.png","3_Ratio_250_L_8_R_2.png","5_Ratio_250_L_24_R_6.png","7_Ratio_250_L_8_R_2.png"],["10_Ratio_250_L_4_R_16.png","11_Ratio_250_L_3_R_12.png","12_Ratio_250_L_5_R_20.png","13_Ratio_250_L_2_R_8.png","4_Ratio_250_L_3_R_12.png","6_Ratio_250_L_6_R_24.png","8_Ratio_250_L_1_R_4.png","9_Ratio_250_L_3_R_12.png"]],"Rat500":[["10_Ratio_500_L_4_R_2.png","11_Ratio_500_L_12_R_6.png","13_Ratio_500_L_12_R_6.png","4_Ratio_500_L_18_R_9.png","5_Ratio_500_L_4_R_2.png","7_Ratio_500_L_10_R_5.png","8_Ratio_500_L_8_R_4.png"],["1_Ratio_500_L_9_R_18.png","12_Ratio_500_L_1_R_2.png","14_Ratio_500_L_5_R_10.png","15_Ratio_500_L_1_R_2.png","2_Ratio_500_L_3_R_6.png","3_Ratio_500_L_10_R_20.png","6_Ratio_500_L_9_R_18.png","9_Ratio_500_L_2_R_4.png"]],"Rat750":[["1_Ratio_750_L_20_R_15.png","10_Ratio_750_L_4_R_3.png","13_Ratio_750_L_8_R_6.png","14_Ratio_750_L_8_R_6.png","6_Ratio_750_L_24_R_18.png","8_Ratio_750_L_4_R_3.png","9_Ratio_750_L_4_R_3.png"],["11_Ratio_750_L_12_R_16.png","12_Ratio_750_L_3_R_4.png","15_Ratio_750_L_9_R_12.png","2_Ratio_750_L_6_R_8.png","3_Ratio_750_L_15_R_20.png","4_Ratio_750_L_15_R_20.png","5_Ratio_750_L_15_R_20.png","7_Ratio_750_L_3_R_4.png"]],"Rat900":[["1_Ratio_900_L_10_R_9.png","10_Ratio_900_L_20_R_18.png","2_Ratio_900_L_20_R_18.png","4_Ratio_900_L_20_R_18.png","8_Ratio_900_L_20_R_18.png"],["11_Ratio_900_L_18_R_20.png","12_Ratio_900_L_18_R_20.png","13_Ratio_900_L_18_R_20.png","14_Ratio_900_L_18_R_20.png","15_Ratio_900_L_9_R_10.png","3_Ratio_900_L_9_R_10.png","5_Ratio_900_L_9_R_10.png","6_Ratio_900_L_9_R_10.png","7_Ratio_900_L_9_R_10.png","9_Ratio_900_L_18_R_20.png"]],"Rat1000":[["10_Ratio_1000_L_16_R_16.png","11_Ratio_1000_L_6_R_6.png","12_Ratio_1000_L_14_R_14.png","13_Ratio_1000_L_20_R_20.png","15_Ratio_1000_L_15_R_15.png","2_Ratio_1000_L_17_R_17.png","4_Ratio_1000_L_9_R_9.png","5_Ratio_1000_L_6_R_6.png","6_Ratio_1000_L_19_R_19.png","8_Ratio_1000_L_14_R_14.png","9_Ratio_1000_L_25_R_25.png"],["1_Ratio_1000_L_1_R_1.png","14_Ratio_1000_L_17_R_17.png","3_Ratio_1000_L_17_R_17.png","7_Ratio_1000_L_6_R_6.png"]]}},{"start_time":1552328044616,"click_time":1552328046319,"finger_time":1552328045579,"fix_duration":1436.602551944489,"trial":1,"RT":963,"MT":740,"sideResp":1,"stimulus":"img/750/randomdotsizeEA/L/10_Ratio_750_L_4_R_3.png","xmouse":[799,799,798,796,796,795,795,793,793,793,793,793,793,793,793,792,792,792,792,792,792,792,792,792,792,792,792,792,792,792,792,792,792,792,792,792,792,792,792,792,792,792,791,791,791,791,790,789,785,785,773,747,701,701,701,701,701,701,701,701,701,701,701,701,701,701,701,701,701,701,701,701,701,701,701,701,701,701,701,701,701,564,554,533,526,522],"ymouse":[509,509,509,509,509,509,509,508,508,508,508,508,508,508,508,508,508,508,508,508,508,508,508,508,508,508,508,508,508,508,508,508,508,508,508,508,508,507,505,504,503,502,501,501,501,500,499,493,460,387,266,159,43,43,43,43,43,43,43,43,43,43,43,43,43,43,43,43,43,43,43,43,43,43,43,43,43,43,43,43,43,7,20,53,64,70],"timestamp_mouse":[2,23,44,63,84,103,123,143,162,183,202,223,243,262,282,302,323,342,363,382,402,422,443,463,483,502,522,543,563,582,603,622,643,662,683,704,722,743,763,783,802,824,843,863,884,902,923,942,963,983,1003,1023,1042,1063,1083,1102,1122,1143,1163,1182,1202,1224,1243,1264,1282,1302,1322,1342,1362,1382,1402,1423,1443,1462,1482,1502,1522,1542,1563,1582,1602,1622,1643,1662,1682,1703],"xSR":741.5,"ySR":469.95,"xT1":424.9,"yT1":0,"xT2":1058.1,"yT2":0,"toosoon":0,"cond_shown":"randomdotsizeEA","ratio_trial":750,"smaller_num":"3","larger_num":"4","correct_side":1,"subjID":"Samuelricolopez10","gender":"0","age":"8","school":"4"},{"start_time":1552328048012,"click_time":1552328049299,"finger_time":1552328048918,"fix_duration":250,"trial":2,"RT":906,"MT":381,"sideResp":2,"stimulus":"img/900/equaldotsize/R/6_Ratio_900_L_9_R_10.png","xmouse":[798,796,796,796,796,795,794,793,792,791,791,791,790,790,790,790,790,790,790,790,790,790,790,790,790,790,790,790,790,790,790,790,790,790,790,790,790,790,790,790,790,791,793,803,810,823,835,853,884,897,911,924,934,954,961,965,969,972,983,990,1000,1012,1032,1055,1063],"ymouse":[508,508,508,508,508,508,509,509,511,511,511,511,512,512,513,513,513,513,513,513,513,513,513,513,513,513,513,513,513,513,513,513,513,513,513,513,513,513,513,513,513,509,507,492,480,457,436,398,351,336,324,315,305,281,271,262,253,246,220,204,183,153,110,54,37],"timestamp_mouse":[26,38,47,67,87,106,126,146,166,186,207,226,246,267,287,307,327,347,366,386,408,428,447,466,487,507,526,547,566,587,607,628,647,666,687,707,726,747,767,787,806,826,847,866,887,906,926,946,966,987,1006,1027,1046,1066,1086,1106,1126,1146,1167,1186,1208,1227,1248,1267,1287],"xSR":741.5,"ySR":469.95,"xT1":424.9,"yT1":0,"xT2":1058.1,"yT2":0,"toosoon":0,"cond_shown":"equaldotsize","ratio_trial":900,"smaller_num":"9","larger_num":"10","correct_side":2,"subjID":"Samuelricolopez10","gender":"0","age":"8","school":"4"},{"start_time":1552328051403,"click_time":1552328052519,"finger_time":1552328052179,"fix_duration":1342.1162551856387,"trial":3,"RT":776,"MT":340,"sideResp":2,"stimulus":"img/900/equaldotsize/L/10_Ratio_900_L_20_R_18.png","xmouse":[787,787,787,787,787,787,787,787,787,787,787,787,787,787,787,787,787,787,787,787,787,787,787,787,787,787,787,787,787,787,787,787,787,787,787,787,786,785,779,777,775,774,772,772,779,784,790,799,808,823,848,892,939,979,1052,1066],"ymouse":[505,505,505,505,505,505,505,505,505,505,505,505,505,505,505,505,505,505,505,505,505,505,505,505,505,505,505,505,505,505,505,505,505,505,502,495,489,480,467,463,460,455,448,425,344,327,314,302,291,280,262,231,185,130,30,14],"timestamp_mouse":[15,36,56,76,95,116,135,155,175,196,215,235,256,277,295,316,336,356,375,395,416,436,456,475,495,515,535,555,576,595,616,636,656,675,696,715,735,755,776,795,815,835,856,876,895,915,935,956,977,995,1016,1036,1055,1075,1095,1116],"xSR":741.5,"ySR":469.95,"xT1":424.9,"yT1":0,"xT2":1058.1,"yT2":0,"toosoon":0,"cond_shown":"equaldotsize","ratio_trial":900,"smaller_num":"18","larger_num":"20","correct_side":1,"subjID":"Samuelricolopez10","gender":"0","age":"8","school":"4"},{"start_time":1552328056418,"click_time":1552328057798,"finger_time":1552328057338,"fix_duration":1137.2977811607875,"trial":4,"RT":920,"MT":460,"sideResp":2,"stimulus":"img/500/randomdotsizeEA/L/8_Ratio_500_L_8_R_4.png","xmouse":[783,783,783,781,775,775,775,775,775,775,775,775,775,775,775,775,775,775,775,775,775,775,775,775,775,775,775,775,775,775,775,775,775,775,775,775,775,775,775,775,779,785,788,791,800,807,816,829,844,878,892,903,916,925,939,948,955,966,976,991,995,999,1001,1005,1015,1022,1032,1045,1060,1093],"ymouse":[510,510,510,510,510,510,510,510,510,510,510,510,510,510,510,510,510,510,510,510,510,510,510,510,510,510,510,510,510,510,510,510,510,510,510,510,510,510,510,510,508,506,504,502,491,479,465,446,425,386,370,360,348,341,318,305,294,282,268,233,221,206,199,187,165,158,149,139,124,99],"timestamp_mouse":[10,21,40,60,80,100,120,141,160,182,200,221,241,262,280,300,320,349,361,380,400,420,440,461,480,502,521,540,560,582,601,620,640,660,680,700,720,740,760,780,800,820,840,860,880,900,920,941,960,981,1001,1020,1041,1061,1081,1100,1120,1141,1160,1181,1202,1220,1240,1261,1280,1300,1320,1341,1360,1380],"xSR":741.5,"ySR":469.95,"xT1":424.9,"yT1":0,"xT2":1058.1,"yT2":0,"toosoon":0,"cond_shown":"randomdotsizeEA","ratio_trial":500,"smaller_num":"4","larger_num":"8","correct_side":1,"subjID":"Samuelricolopez10","gender":"0","age":"8","school":"4"},{"start_time":1552328059279,"click_time":1552328064378,"finger_time":1552328063819,"fix_duration":579.5156252236993,"trial":5,"RT":4540,"MT":559,"sideResp":2,"stimulus":"img/500/randomdotsizeEA/L/4_Ratio_500_L_18_R_9.png","xmouse":[780,780,780,780,780,780,780,780,780,780,780,780,780,780,780,780,780,780,780,780,780,780,780,780,780,780,780,780,780,780,780,780,780,780,780,780,780,780,780,780,780,780,780,780,780,780,780,780,780,780,780,780,780,780,780,780,780,780,780,780,780,780,780,780,780,779,778,778,778,778,778,778,778,778,778,778,778,778,778,778,778,778,778,778,778,778,778,778,778,778,778,778,778,778,778,778,778,778,778,778,778,778,778,778,778,778,778,778,778,778,778,778,778,778,778,778,778,778,778,778,778,778,778,778,778,778,778,778,778,778,778,778,778,778,778,778,778,778,778,778,778,778,778,778,778,778,778,778,778,778,778,778,778,778,778,778,778,778,778,778,778,778,778,778,778,778,778,778,778,778,778,778,778,778,778,778,778,778,778,778,778,778,778,778,778,778,778,778,778,778,778,778,778,778,778,778,778,778,778,778,778,778,778,778,778,778,778,778,778,778,778,778,778,778,778,778,778,778,778,778,778,778,777,771,770,769,800,869,877,880,889,892,900,907,923,945,1020,1101,1130,1171,1210,1232,1247,1249,1249,1249,1245,1244,1242,1240,1237,1232,1208,1190,1169,1142],"ymouse":[508,508,508,508,508,508,508,508,508,508,508,508,508,508,508,508,508,508,508,508,508,508,508,508,508,508,508,508,508,508,508,508,508,508,508,508,508,508,508,508,508,508,508,508,508,508,508,508,508,508,508,508,508,508,508,508,508,508,508,508,508,508,508,508,508,508,508,508,508,508,508,508,508,508,508,508,508,508,508,508,508,508,508,508,508,508,508,508,508,508,508,508,508,508,508,508,508,508,508,508,508,508,508,508,508,508,508,508,508,508,508,508,508,508,508,508,508,508,508,508,508,508,508,508,508,508,508,508,508,508,508,508,508,508,508,508,508,508,508,508,508,508,508,508,508,508,508,508,508,508,508,508,508,508,508,508,508,508,508,508,508,508,508,508,508,508,508,508,508,508,508,508,508,508,508,508,508,508,508,508,508,508,508,508,508,508,508,508,508,508,508,508,508,508,508,508,508,508,508,508,508,508,508,508,508,508,508,508,508,508,508,508,508,508,508,508,508,508,508,508,508,508,508,510,511,512,499,444,430,426,417,414,399,390,372,349,306,255,231,191,146,113,84,78,77,77,73,72,70,70,70,70,80,88,94,96],"timestamp_mouse":[1,19,39,59,80,100,119,139,159,181,200,220,239,261,281,299,320,339,359,380,400,419,439,460,481,499,519,539,559,580,600,619,641,661,679,700,720,739,760,780,800,819,841,860,880,900,920,940,960,980,999,1019,1039,1060,1079,1100,1120,1140,1159,1181,1199,1219,1240,1259,1279,1299,1320,1340,1359,1380,1401,1420,1439,1459,1480,1501,1520,1540,1560,1579,1600,1620,1640,1659,1679,1700,1720,1740,1760,1779,1799,1820,1839,1859,1879,1900,1919,1939,1961,1979,2000,2019,2040,2061,2080,2100,2119,2140,2159,2179,2200,2219,2240,2260,2280,2300,2319,2339,2359,2380,2400,2420,2439,2461,2480,2499,2520,2540,2559,2580,2599,2619,2641,2659,2679,2700,2719,2740,2760,2781,2800,2820,2840,2859,2879,2900,2920,2940,2960,2980,3000,3020,3040,3061,3080,3100,3119,3139,3160,3181,3200,3220,3241,3260,3279,3300,3320,3339,3359,3380,3399,3420,3440,3459,3480,3500,3520,3541,3560,3580,3600,3620,3640,3661,3680,3699,3720,3739,3760,3780,3801,3820,3840,3860,3879,3900,3920,3941,3960,3980,4000,4020,4040,4061,4080,4100,4119,4141,4159,4179,4200,4221,4240,4260,4280,4300,4320,4341,4360,4380,4400,4421,4439,4460,4479,4499,4520,4540,4560,4579,4599,4619,4639,4660,4679,4699,4720,4739,4760,4780,4800,4820,4839,4859,4880,4900,4921,4940,4960,4980,5000,5020,5039,5059,5079,5099],"xSR":741.5,"ySR":469.95,"xT1":424.9,"yT1":0,"xT2":1058.1,"yT2":0,"toosoon":0,"cond_shown":"randomdotsizeEA","ratio_trial":500,"smaller_num":"9","larger_num":"18","correct_side":1,"subjID":"Samuelricolopez10","gender":"0","age":"8","school":"4"},{"start_time":1552328066567,"click_time":1552328070279,"finger_time":1552328069578,"fix_duration":1006.0045202102112,"trial":6,"RT":3011,"MT":701,"sideResp":1,"stimulus":"img/750/equaldotsize/R/12_Ratio_750_L_3_R_4.png","xmouse":[782,782,782,782,782,782,782,782,782,782,782,782,782,782,782,782,782,782,782,782,782,782,782,782,782,782,782,782,782,782,782,782,782,782,782,782,782,782,782,782,782,782,782,782,782,782,782,782,782,782,782,782,782,782,782,782,782,782,782,782,782,782,782,784,786,786,786,786,786,786,786,786,786,786,786,786,786,786,786,786,785,784,784,784,784,784,784,784,784,784,784,784,784,784,784,784,784,784,784,784,784,784,784,784,784,784,784,784,784,784,784,784,784,786,788,788,788,788,788,788,788,788,788,788,788,788,788,788,788,788,788,788,789,789,790,791,792,793,800,801,801,801,801,801,801,801,801,801,801,797,790,782,760,743,720,707,693,644,609,592,575,562,549,545,543,538,529,521,520,520,520,520,520,520,520,520,520,520,520,520,520,520,520,520,520,520],"ymouse":[518,518,518,518,518,518,518,518,518,518,518,518,518,518,518,518,518,518,518,518,518,518,518,518,518,518,518,518,518,518,518,518,518,518,518,518,518,518,518,518,518,518,518,518,518,518,518,518,518,518,518,518,518,518,518,518,518,518,518,518,518,518,517,509,503,500,500,500,500,500,500,500,500,500,500,500,500,500,500,500,500,500,500,500,500,500,500,500,500,500,498,494,491,491,491,491,491,491,491,491,491,491,491,491,491,491,491,491,491,491,491,490,489,486,483,482,482,482,482,482,482,481,481,481,481,481,481,481,481,481,481,481,480,480,480,480,480,480,474,472,472,472,472,472,472,472,472,472,472,470,466,462,447,432,403,390,379,329,288,262,238,219,194,187,178,166,145,136,135,135,135,135,135,135,135,135,135,135,135,135,135,135,131,113,100,91],"timestamp_mouse":[11,32,52,72,93,112,132,151,171,192,212,231,251,272,292,312,332,352,373,392,412,432,452,472,492,512,531,552,573,591,612,632,652,672,691,712,732,752,772,792,811,831,852,871,892,911,931,952,972,992,1012,1032,1052,1071,1092,1111,1133,1152,1173,1192,1212,1231,1251,1271,1292,1311,1332,1351,1373,1392,1412,1432,1451,1472,1491,1511,1533,1552,1572,1591,1612,1631,1651,1673,1691,1712,1731,1751,1772,1791,1812,1831,1851,1871,1891,1912,1932,1951,1971,1991,2012,2031,2051,2072,2092,2113,2132,2153,2171,2192,2212,2231,2252,2271,2292,2312,2332,2351,2373,2391,2411,2432,2452,2471,2493,2512,2532,2552,2571,2592,2611,2633,2651,2672,2692,2712,2732,2751,2773,2791,2811,2832,2852,2872,2891,2912,2932,2953,2972,2991,3011,3031,3053,3071,3092,3112,3131,3152,3171,3192,3212,3231,3252,3271,3292,3313,3333,3352,3371,3391,3411,3431,3452,3472,3492,3511,3533,3552,3571,3591,3611,3631,3652,3671,3691,3712],"xSR":741.5,"ySR":469.95,"xT1":424.9,"yT1":0,"xT2":1058.1,"yT2":0,"toosoon":0,"cond_shown":"equaldotsize","ratio_trial":750,"smaller_num":"3","larger_num":"4","correct_side":2,"subjID":"Samuelricolopez10","gender":"0","age":"8","school":"4"},{"start_time":1552328071980,"click_time":1552328073578,"finger_time":1552328072978,"fix_duration":819.9198712049728,"trial":7,"RT":998,"MT":600,"sideResp":2,"stimulus":"img/900/equaldotsize/L/10_Ratio_900_L_20_R_18.png","xmouse":[774,774,774,774,774,774,774,774,774,774,774,774,774,774,774,774,774,774,774,774,774,774,774,774,774,774,774,774,774,774,774,774,774,774,773,773,773,773,773,773,773,773,773,774,774,775,775,777,783,789,799,811,823,833,836,839,842,846,864,884,900,909,914,917,918,919,920,927,954,970,979,991,998,1000,1002,1007,1019,1027,1047,1055,1059],"ymouse":[522,522,522,522,522,522,522,522,522,522,522,522,522,522,522,522,522,522,522,522,522,522,522,522,522,522,522,522,522,522,522,522,522,522,522,520,518,518,518,518,518,518,516,512,511,509,506,503,491,479,462,443,424,394,373,357,340,324,264,199,144,113,96,83,80,79,79,78,73,68,67,66,65,65,65,66,71,72,72,72,72],"timestamp_mouse":[1,18,38,58,80,98,118,140,160,178,199,219,240,258,278,299,318,339,359,379,399,418,440,459,478,499,519,539,559,579,599,619,639,658,680,698,719,740,759,779,799,819,839,858,878,898,919,939,958,978,998,1019,1038,1058,1078,1098,1119,1138,1159,1178,1198,1218,1239,1258,1279,1298,1319,1338,1358,1379,1398,1418,1438,1458,1480,1499,1519,1539,1559,1578,1598],"xSR":741.5,"ySR":469.95,"xT1":424.9,"yT1":0,"xT2":1058.1,"yT2":0,"toosoon":0,"cond_shown":"equaldotsize","ratio_trial":900,"smaller_num":"18","larger_num":"20","correct_side":1,"subjID":"Samuelricolopez10","gender":"0","age":"8","school":"4"},{"start_time":1552328074550,"click_time":1552328076298,"finger_time":1552328075059,"fix_duration":250,"trial":8,"RT":509,"MT":1239,"sideResp":1,"stimulus":"img/250/equaldotanddens/L/1_Ratio_250_L_8_R_2.png","xmouse":[770,769,767,765,765,765,765,765,765,765,765,765,765,765,765,765,765,765,765,765,765,765,765,765,764,764,764,760,752,743,741,741,741,741,741,741,741,741,741,741,741,741,741,741,741,741,741,741,741,741,741,741,741,743,746,746,740,727,710,677,657,635,615,599,587,583,581,581,581,581,581,580,576,571,562,541,539,536,533,531,530,530,530,530,529,527,526,524],"ymouse":[486,482,480,480,480,480,480,480,480,480,480,480,480,480,480,480,480,480,480,480,480,480,480,480,477,469,445,421,393,351,341,336,335,335,335,335,335,335,335,335,335,335,335,335,335,335,335,335,335,335,335,335,335,326,297,261,243,228,210,192,186,180,174,169,163,160,159,159,159,159,159,157,152,145,133,108,105,100,98,96,96,96,96,96,95,94,93,92],"timestamp_mouse":[12,32,48,68,88,109,128,148,169,189,210,228,249,268,288,308,329,348,369,389,408,428,449,468,488,509,528,549,569,589,608,628,649,669,688,710,729,748,768,788,809,828,849,868,888,909,929,949,969,988,1008,1029,1048,1068,1088,1109,1128,1149,1168,1188,1208,1228,1249,1268,1288,1308,1329,1348,1368,1388,1408,1429,1449,1468,1489,1509,1528,1549,1569,1588,1608,1628,1648,1669,1688,1708,1729,1748],"xSR":741.5,"ySR":469.95,"xT1":424.9,"yT1":0,"xT2":1058.1,"yT2":0,"toosoon":0,"cond_shown":"equaldotanddens","ratio_trial":250,"smaller_num":"2","larger_num":"8","correct_side":1,"subjID":"Samuelricolopez10","gender":"0","age":"8","school":"4"},{"start_time":1552328077789,"click_time":1552328079140,"finger_time":1552328078619,"fix_duration":729.969410451077,"trial":9,"RT":830,"MT":521,"sideResp":2,"stimulus":"img/750/randomdotsizeEA/L/6_Ratio_750_L_24_R_18.png","xmouse":[793,793,793,793,793,793,793,793,793,793,793,793,793,793,793,793,793,793,793,793,793,793,793,793,793,793,793,793,793,793,793,793,793,793,793,793,794,796,796,798,801,809,826,837,849,859,871,882,913,929,945,960,968,980,988,995,1004,1020,1025,1026,1026,1026,1026,1030,1033,1038,1045,1060],"ymouse":[506,506,506,506,506,506,506,506,506,506,506,506,506,506,506,506,506,506,506,506,506,506,506,506,506,506,506,506,506,506,506,506,506,506,506,506,503,496,490,481,471,444,403,381,360,343,322,300,244,217,189,166,151,123,110,99,86,67,62,60,60,60,60,62,65,66,69,71],"timestamp_mouse":[20,30,49,69,89,109,131,149,169,190,209,229,250,270,290,310,329,349,369,390,409,430,449,470,490,509,530,549,569,591,611,630,649,671,689,710,729,750,769,790,810,830,851,869,890,909,930,950,969,989,1009,1029,1051,1070,1089,1109,1129,1151,1169,1189,1209,1231,1250,1269,1289,1309,1329,1351],"xSR":741.5,"ySR":469.95,"xT1":424.9,"yT1":0,"xT2":1058.1,"yT2":0,"toosoon":0,"cond_shown":"randomdotsizeEA","ratio_trial":750,"smaller_num":"18","larger_num":"24","correct_side":1,"subjID":"Samuelricolopez10","gender":"0","age":"8","school":"4"},{"start_time":1552328080291,"click_time":1552328081858,"finger_time":1552328081299,"fix_duration":250,"trial":10,"RT":1008,"MT":559,"sideResp":2,"stimulus":"img/500/equaldotsize/R/2_Ratio_500_L_3_R_6.png","xmouse":[791,791,791,791,791,791,791,791,791,791,791,791,791,791,791,791,791,791,791,791,791,791,791,791,791,791,791,791,791,791,791,791,791,791,791,791,791,791,791,791,791,791,791,791,791,791,791,790,790,790,796,806,816,832,839,843,850,856,879,896,917,937,957,992,1000,1005,1009,1015,1026,1029,1030,1032,1035,1041,1042,1044,1046,1051,1064],"ymouse":[498,498,498,498,498,498,498,498,498,498,498,498,498,498,498,498,498,498,498,498,498,498,498,498,498,498,498,498,498,498,498,498,498,498,498,498,498,498,498,498,498,498,498,498,498,498,498,497,489,471,438,367,302,225,208,198,190,185,175,167,154,139,118,79,74,71,69,67,66,66,65,64,61,56,55,55,54,54,54],"timestamp_mouse":[13,31,48,68,87,107,128,147,168,188,207,228,248,268,287,307,327,347,368,388,409,427,447,467,487,508,527,547,569,587,607,628,649,668,687,708,729,747,768,787,809,828,847,867,887,908,928,947,968,987,1008,1028,1048,1068,1089,1108,1127,1148,1168,1187,1207,1228,1248,1268,1288,1308,1328,1347,1367,1388,1407,1427,1447,1467,1487,1507,1527,1548,1567],"xSR":741.5,"ySR":469.95,"xT1":424.9,"yT1":0,"xT2":1058.1,"yT2":0,"toosoon":0,"cond_shown":"equaldotsize","ratio_trial":500,"smaller_num":"3","larger_num":"6","correct_side":2,"subjID":"Samuelricolopez10","gender":"0","age":"8","school":"4"},{"start_time":1552328084318,"click_time":1552328085798,"finger_time":1552328085078,"fix_duration":1158.158308931419,"trial":11,"RT":760,"MT":720,"sideResp":1,"stimulus":"img/250/equaldotanddens/L/14_Ratio_250_L_12_R_3.png","xmouse":[810,810,810,810,810,810,810,811,811,811,811,811,811,811,811,811,811,811,811,811,811,811,811,811,811,811,811,811,811,811,811,811,811,811,811,810,809,807,805,804,802,796,791,764,752,740,721,695,687,684,682,679,674,668,663,656,646,615,599,585,570,559,553,550,550,550,550,550,550,549,549,547,533,526,518],"ymouse":[496,496,496,496,496,496,496,496,496,495,495,495,494,493,492,492,491,491,491,491,491,491,491,491,491,491,491,491,491,491,491,490,488,487,484,481,478,471,467,464,458,450,437,389,370,344,298,247,235,230,226,222,212,203,196,188,177,143,125,109,95,86,84,83,83,83,83,83,83,83,83,83,86,86,88],"timestamp_mouse":[10,22,42,61,81,102,121,140,160,181,201,221,241,261,282,300,322,340,360,381,400,422,442,461,480,501,520,541,562,580,601,620,640,661,680,701,721,740,760,781,800,821,841,860,881,901,921,941,960,980,1000,1022,1041,1061,1081,1101,1120,1141,1160,1182,1201,1221,1240,1261,1281,1301,1320,1340,1360,1382,1401,1422,1441,1462,1480],"xSR":741.5,"ySR":469.95,"xT1":424.9,"yT1":0,"xT2":1058.1,"yT2":0,"toosoon":0,"cond_shown":"equaldotanddens","ratio_trial":250,"smaller_num":"3","larger_num":"12","correct_side":1,"subjID":"Samuelricolopez10","gender":"0","age":"8","school":"4"},{"start_time":1552328088066,"click_time":1552328089499,"finger_time":1552328088978,"fix_duration":1286.2687245116242,"trial":12,"RT":912,"MT":521,"sideResp":1,"stimulus":"img/750/equaldotanddens/L/6_Ratio_750_L_24_R_18.png","xmouse":[790,790,790,790,790,790,790,790,790,790,790,790,790,790,790,790,790,790,790,790,790,790,790,790,790,790,790,790,790,790,790,790,790,790,790,790,790,790,790,790,790,790,790,790,790,784,779,776,772,770,766,764,763,758,756,734,718,695,674,624,597,574,560,560,560,560,560,560,560,560,526,518],"ymouse":[513,513,513,513,513,513,513,513,513,513,513,513,513,513,513,513,513,513,513,513,513,513,513,513,513,513,513,513,513,513,513,513,513,513,513,513,513,513,513,513,513,511,508,500,485,449,419,391,369,350,324,314,303,285,278,236,212,183,153,81,43,15,0,0,0,0,0,0,0,0,1,7],"timestamp_mouse":[13,36,52,74,92,113,132,152,173,193,213,233,254,273,293,312,333,353,372,392,413,432,453,474,493,513,533,554,573,593,613,632,653,672,694,713,732,753,773,793,812,833,853,873,893,912,932,952,972,992,1012,1032,1052,1073,1093,1112,1132,1152,1172,1194,1212,1232,1252,1273,1294,1313,1332,1352,1372,1394,1412,1433],"xSR":741.5,"ySR":469.95,"xT1":424.9,"yT1":0,"xT2":1058.1,"yT2":0,"toosoon":0,"cond_shown":"equaldotanddens","ratio_trial":750,"smaller_num":"18","larger_num":"24","correct_side":1,"subjID":"Samuelricolopez10","gender":"0","age":"8","school":"4"},{"start_time":1552328091219,"click_time":1552328092479,"finger_time":1552328091998,"fix_duration":659.1077025411282,"trial":13,"RT":779,"MT":481,"sideResp":2,"stimulus":"img/500/equaldotanddens/R/6_Ratio_500_L_9_R_18.png","xmouse":[767,767,767,767,765,761,760,760,760,760,760,760,760,760,760,760,760,760,760,760,760,760,760,760,760,760,760,760,760,760,760,760,760,760,760,760,760,760,793,815,843,867,881,893,917,951,977,1002,1024,1029,1031,1032,1032,1032,1033,1033,1034,1034,1035,1036,1040,1047,1055,1076],"ymouse":[508,508,508,507,501,494,492,492,492,492,492,492,492,492,492,492,492,492,492,492,492,492,492,492,492,492,492,492,492,492,492,492,492,492,492,492,492,491,474,459,446,432,422,408,356,279,217,163,115,107,105,104,104,104,100,96,95,95,93,93,93,89,83,69],"timestamp_mouse":[1,19,39,59,80,100,119,141,160,179,199,219,241,260,280,299,321,339,360,380,399,420,440,460,479,500,519,539,560,579,599,620,639,659,680,699,720,740,759,779,799,820,840,859,880,899,919,939,959,979,999,1019,1041,1060,1080,1099,1119,1140,1159,1179,1199,1219,1240,1259],"xSR":741.5,"ySR":469.95,"xT1":424.9,"yT1":0,"xT2":1058.1,"yT2":0,"toosoon":0,"cond_shown":"equaldotanddens","ratio_trial":500,"smaller_num":"9","larger_num":"18","correct_side":2,"subjID":"Samuelricolopez10","gender":"0","age":"8","school":"4"},{"start_time":1552328093599,"click_time":1552328094898,"finger_time":1552328094339,"fix_duration":520.1505929492956,"trial":14,"RT":740,"MT":559,"sideResp":1,"stimulus":"img/750/randomdotsizeEA/R/4_Ratio_750_L_15_R_20.png","xmouse":[751,751,751,751,751,751,751,751,751,751,751,751,751,751,751,751,751,751,751,751,751,751,751,751,751,751,751,751,751,751,751,751,751,751,755,756,758,758,758,758,758,757,754,741,725,715,705,695,680,675,671,666,660,651,631,626,621,609,584,575,566,554,542,529,505],"ymouse":[509,509,509,509,508,508,508,508,508,508,508,508,508,508,508,508,508,508,508,508,508,508,508,508,508,508,508,508,508,508,508,508,506,505,488,477,466,453,432,422,414,406,389,323,284,263,243,226,202,195,190,184,177,168,155,152,149,144,132,127,122,116,112,107,98],"timestamp_mouse":[20,40,61,79,100,119,139,161,180,200,220,240,259,280,301,320,340,361,379,400,420,441,460,480,499,520,540,560,581,599,619,639,660,679,699,719,740,759,779,799,819,839,860,880,900,919,939,959,980,999,1020,1040,1060,1079,1100,1119,1139,1160,1180,1199,1219,1239,1260,1280,1299],"xSR":741.5,"ySR":469.95,"xT1":424.9,"yT1":0,"xT2":1058.1,"yT2":0,"toosoon":0,"cond_shown":"randomdotsizeEA","ratio_trial":750,"smaller_num":"15","larger_num":"20","correct_side":2,"subjID":"Samuelricolopez10","gender":"0","age":"8","school":"4"},{"start_time":1552328100151,"click_time":1552328101619,"finger_time":1552328101038,"fix_duration":250,"trial":15,"RT":887,"MT":581,"sideResp":1,"stimulus":"img/250/randomdotsizeEA/L/15_Ratio_250_L_12_R_3.png","xmouse":[787,787,787,787,787,787,787,787,787,787,787,787,787,787,787,787,787,787,787,787,787,787,787,787,787,787,787,787,787,787,787,787,787,787,787,787,787,787,787,785,781,774,751,742,722,710,699,670,657,645,635,628,616,608,594,584,575,562,558,556,554,553,546,544,538,535,532,522,518,514,511,507,498,494],"ymouse":[539,539,539,539,539,539,539,539,539,539,539,539,539,539,539,539,539,539,539,539,539,539,539,539,539,539,539,539,539,539,539,539,539,539,539,539,539,539,539,538,532,524,497,482,442,415,391,332,311,294,279,266,246,232,210,196,183,165,160,158,156,155,151,150,146,144,142,132,127,121,117,111,101,98],"timestamp_mouse":[8,27,53,68,87,107,129,149,167,189,207,227,247,269,288,307,328,348,367,387,408,427,448,468,487,507,528,547,569,589,608,627,647,667,687,707,728,747,767,788,807,828,847,868,887,908,927,947,967,987,1007,1028,1048,1068,1087,1107,1128,1147,1167,1189,1207,1227,1248,1268,1287,1308,1328,1347,1367,1387,1407,1428,1448,1468],"xSR":741.5,"ySR":469.95,"xT1":424.9,"yT1":0,"xT2":1058.1,"yT2":0,"toosoon":0,"cond_shown":"randomdotsizeEA","ratio_trial":250,"smaller_num":"3","larger_num":"12","correct_side":1,"subjID":"Samuelricolopez10","gender":"0","age":"8","school":"4"},{"start_time":1552328103980,"click_time":1552328105159,"finger_time":1552328104698,"fix_duration":1179.5192399547711,"trial":16,"RT":718,"MT":461,"sideResp":1,"stimulus":"img/500/equaldotsize/L/10_Ratio_500_L_4_R_2.png","xmouse":[785,785,785,785,785,785,785,785,785,785,785,785,785,785,785,785,785,785,785,785,785,785,785,785,785,785,785,785,785,785,785,785,785,785,785,785,781,771,765,759,758,749,737,722,706,668,646,625,605,576,542,529,521,516,511,508,507,505,503],"ymouse":[515,515,515,515,515,515,515,515,515,515,515,515,515,516,516,516,516,516,516,516,516,516,516,516,516,516,516,516,516,516,516,516,514,503,482,433,406,363,333,303,297,265,248,231,217,195,185,175,169,157,143,137,132,127,123,117,112,108,98],"timestamp_mouse":[18,43,59,78,99,118,138,159,178,200,219,239,258,279,299,319,340,358,378,399,418,439,459,479,499,519,538,559,579,599,619,639,658,679,699,718,738,759,779,798,819,838,858,878,899,920,938,958,978,999,1020,1038,1058,1079,1099,1119,1138,1158,1179],"xSR":741.5,"ySR":469.95,"xT1":424.9,"yT1":0,"xT2":1058.1,"yT2":0,"toosoon":0,"cond_shown":"equaldotsize","ratio_trial":500,"smaller_num":"2","larger_num":"4","correct_side":1,"subjID":"Samuelricolopez10","gender":"0","age":"8","school":"4"},{"start_time":1552328107309,"click_time":1552328108518,"finger_time":1552328107978,"fix_duration":1007.6632692666134,"trial":17,"RT":669,"MT":540,"sideResp":1,"stimulus":"img/500/equaldotsize/L/11_Ratio_500_L_12_R_6.png","xmouse":[806,806,806,804,802,800,800,799,799,798,798,798,798,798,798,798,798,798,798,798,798,798,798,798,798,794,792,791,790,790,790,790,789,787,783,771,761,753,746,741,736,733,729,722,718,705,697,685,673,660,633,618,598,585,574,561,552,543,535,526,506],"ymouse":[519,519,519,519,519,519,519,519,519,519,519,519,519,519,519,519,519,519,519,519,519,519,519,519,519,516,514,510,507,504,495,488,481,464,449,362,293,267,250,236,221,216,210,201,196,183,175,165,158,151,137,129,121,115,108,102,98,95,91,86,76],"timestamp_mouse":[10,29,49,71,89,109,129,149,170,190,210,229,250,269,289,310,331,350,370,390,411,430,450,470,489,511,529,550,569,589,609,629,650,669,690,710,729,749,769,789,810,830,849,870,890,910,929,949,970,989,1009,1030,1049,1070,1089,1110,1129,1149,1169,1189,1209],"xSR":741.5,"ySR":469.95,"xT1":424.9,"yT1":0,"xT2":1058.1,"yT2":0,"toosoon":0,"cond_shown":"equaldotsize","ratio_trial":500,"smaller_num":"6","larger_num":"12","correct_side":1,"subjID":"Samuelricolopez10","gender":"0","age":"8","school":"4"},{"start_time":1552328110112,"click_time":1552328111180,"finger_time":1552328110819,"fix_duration":692.2302389740001,"trial":18,"RT":707,"MT":361,"sideResp":2,"stimulus":"img/500/equaldotsize/R/6_Ratio_500_L_9_R_18.png","xmouse":[784,784,784,784,784,784,784,784,784,784,784,784,784,784,784,784,784,784,784,784,784,784,784,784,784,784,784,784,784,784,784,785,786,790,794,814,827,832,839,843,856,869,890,906,921,968,1000,1027,1041,1053,1069,1073,1082,1087],"ymouse":[536,536,536,536,536,536,536,536,536,536,536,536,536,536,536,536,536,536,536,536,536,536,536,536,536,536,536,536,536,536,536,530,524,514,502,462,430,409,392,380,357,342,317,297,276,225,186,151,134,124,113,109,103,99],"timestamp_mouse":[10,27,48,67,88,106,126,146,167,187,206,226,250,266,286,307,327,347,366,387,406,426,446,467,486,507,526,547,566,587,606,626,646,666,686,707,726,746,767,786,807,828,846,866,886,906,926,946,967,986,1007,1026,1047,1067],"xSR":741.5,"ySR":469.95,"xT1":424.9,"yT1":0,"xT2":1058.1,"yT2":0,"toosoon":0,"cond_shown":"equaldotsize","ratio_trial":500,"smaller_num":"9","larger_num":"18","correct_side":2,"subjID":"Samuelricolopez10","gender":"0","age":"8","school":"4"},{"start_time":1552328113170,"click_time":1552328114399,"finger_time":1552328113818,"fix_duration":889.1519827666982,"trial":19,"RT":648,"MT":581,"sideResp":1,"stimulus":"img/750/equaldotsize/L/13_Ratio_750_L_8_R_6.png","xmouse":[799,799,799,798,797,795,793,791,791,791,791,791,791,791,791,791,791,790,790,789,789,789,789,789,789,789,789,789,789,789,788,786,779,752,728,704,688,679,679,681,681,681,677,664,658,651,641,631,603,599,596,595,594,593,590,586,578,564,547,538,529,522],"ymouse":[518,518,518,518,518,518,518,518,518,518,518,518,518,518,518,518,518,518,518,518,518,518,518,518,518,518,518,518,518,518,515,503,463,299,235,186,149,124,108,99,94,88,85,81,81,81,83,89,100,100,101,101,101,101,101,100,97,91,82,76,71,68],"timestamp_mouse":[12,30,49,69,88,108,128,148,168,188,208,228,248,268,288,308,328,349,369,390,409,428,448,469,488,510,528,549,569,588,608,629,648,668,688,708,729,749,769,788,808,829,850,868,889,908,929,948,968,988,1008,1028,1049,1068,1088,1108,1129,1149,1170,1188,1209,1229],"xSR":741.5,"ySR":469.95,"xT1":424.9,"yT1":0,"xT2":1058.1,"yT2":0,"toosoon":0,"cond_shown":"equaldotsize","ratio_trial":750,"smaller_num":"6","larger_num":"8","correct_side":1,"subjID":"Samuelricolopez10","gender":"0","age":"8","school":"4"},{"start_time":1552328117666,"click_time":1552328123458,"finger_time":1552328121039,"fix_duration":985.877814601566,"trial":20,"RT":3373,"MT":2419,"sideResp":2,"stimulus":"img/500/equaldotanddens/L/10_Ratio_500_L_4_R_2.png","xmouse":[798,798,798,798,798,798,798,798,798,798,798,798,798,798,798,798,798,798,798,798,798,798,798,798,798,798,798,798,798,798,798,798,798,798,798,798,798,798,798,798,798,798,798,798,798,798,798,798,798,798,798,798,798,798,798,798,798,798,798,798,798,798,798,798,798,798,798,798,798,798,798,798,798,798,798,798,798,798,798,798,798,798,798,798,798,798,798,798,798,798,798,798,798,798,798,798,798,798,798,798,798,798,798,798,798,798,798,798,798,798,798,798,798,798,798,798,798,798,798,798,798,798,798,798,798,798,798,798,798,798,798,798,798,798,798,798,798,798,798,798,798,798,798,798,798,798,798,798,798,798,798,798,798,798,798,798,798,798,798,798,798,798,798,798,798,798,806,817,874,890,900,907,907,907,907,907,907,907,907,907,907,907,907,907,907,907,907,907,907,907,907,907,907,907,907,907,907,907,907,907,907,907,907,907,907,907,907,907,906,887,867,854,851,850,850,850,850,846,825,815,809,805,803,802,801,800,799,796,793,793,793,793,793,793,793,793,793,793,793,793,793,793,793,793,793,793,793,793,793,793,793,795,799,814,822,828,833,837,840,840,840,840,840,840,840,841,842,843,844,845,850,855,862,869,886,897,905,913,923,953,968,984,998,1019,1024,1026,1027,1030,1049,1085],"ymouse":[481,481,481,481,481,481,481,481,481,481,481,481,481,481,481,481,481,481,481,481,481,481,481,481,481,481,481,481,481,481,481,481,481,481,481,481,481,481,481,481,481,481,481,481,481,481,481,481,481,481,481,481,481,481,481,481,481,481,481,481,481,481,481,481,481,481,481,481,481,481,481,481,481,481,481,481,481,481,481,481,481,481,481,481,481,481,481,481,481,481,481,481,481,481,481,481,481,481,481,481,481,481,481,481,481,481,481,481,481,481,481,481,481,481,481,481,481,481,481,481,481,481,481,481,481,481,481,481,481,481,481,481,481,481,481,481,481,481,481,481,481,481,481,481,481,481,481,481,481,481,481,481,481,481,481,481,481,481,481,481,481,481,481,481,481,481,481,481,478,478,480,483,483,483,483,483,483,483,483,483,483,483,483,483,483,483,483,483,483,483,483,483,483,483,483,483,483,483,483,483,483,483,483,483,483,483,483,483,483,482,476,473,472,472,472,472,472,473,488,498,506,514,520,527,528,530,532,535,538,538,538,538,538,538,538,538,538,538,538,538,538,538,538,538,538,538,538,538,538,538,538,533,527,496,480,463,447,433,425,425,425,425,425,425,425,423,420,410,397,349,326,301,281,264,238,221,209,198,186,159,151,142,132,119,114,112,111,107,84,64],"timestamp_mouse":[15,40,53,73,93,113,134,152,172,194,213,233,253,273,292,313,334,354,372,392,412,433,453,474,492,512,533,552,572,592,612,632,652,672,693,712,733,753,773,792,812,833,852,872,892,912,933,953,972,992,1014,1032,1052,1072,1092,1113,1132,1153,1172,1193,1212,1233,1252,1272,1293,1314,1332,1352,1374,1392,1412,1432,1453,1472,1493,1512,1533,1552,1572,1592,1612,1633,1652,1672,1692,1713,1733,1752,1774,1792,1814,1832,1852,1872,1892,1912,1933,1952,1973,1992,2013,2034,2053,2072,2093,2112,2132,2154,2173,2193,2213,2232,2253,2273,2293,2312,2333,2353,2373,2392,2412,2432,2452,2472,2493,2513,2533,2553,2574,2593,2613,2634,2652,2673,2694,2712,2733,2754,2772,2793,2812,2832,2852,2874,2893,2913,2933,2952,2973,2992,3012,3033,3053,3073,3092,3113,3132,3152,3172,3192,3213,3233,3252,3272,3292,3313,3332,3352,3373,3393,3413,3433,3452,3473,3492,3512,3532,3552,3573,3592,3613,3632,3653,3673,3694,3712,3732,3752,3773,3793,3813,3833,3853,3873,3892,3912,3932,3952,3973,3993,4014,4034,4053,4073,4093,4112,4133,4152,4172,4193,4212,4233,4253,4273,4293,4313,4332,4353,4373,4394,4412,4433,4452,4473,4493,4512,4532,4554,4573,4593,4613,4633,4654,4673,4692,4713,4734,4754,4774,4793,4813,4833,4852,4872,4893,4913,4934,4953,4973,4993,5013,5033,5053,5073,5092,5112,5132,5153,5174,5192,5212,5233,5252,5274,5293,5313,5332,5352,5374,5393,5412,5432,5452,5472,5492,5513,5532,5552,5572,5594,5612,5632,5652,5673,5692,5713,5733,5753,5772,5792],"xSR":741.5,"ySR":469.95,"xT1":424.9,"yT1":0,"xT2":1058.1,"yT2":0,"toosoon":0,"cond_shown":"equaldotanddens","ratio_trial":500,"smaller_num":"2","larger_num":"4","correct_side":1,"subjID":"Samuelricolopez10","gender":"0","age":"8","school":"4"},{"start_time":1552328125229,"click_time":1552328126838,"finger_time":1552328126678,"fix_duration":888.8422505405335,"trial":21,"RT":1449,"MT":160,"sideResp":2,"stimulus":"img/250/equaldotsize/R/11_Ratio_250_L_3_R_12.png","xmouse":[793,793,793,793,793,793,793,793,793,793,793,793,793,793,793,793,793,793,793,793,793,793,793,793,793,793,793,793,793,793,793,793,793,793,793,793,793,793,793,793,793,793,793,793,793,793,793,793,793,793,793,793,793,793,793,793,794,795,795,795,795,795,795,795,795,795,796,796,800,804,808,825,840,859,880,909,1010,1067,1108,1146,1156],"ymouse":[532,532,532,532,532,532,532,532,532,532,532,532,532,532,532,532,532,532,532,532,532,532,532,532,532,532,532,532,532,532,532,532,532,532,532,532,532,532,532,532,532,532,532,532,532,532,532,532,532,532,532,532,532,532,531,529,526,525,524,524,524,524,524,524,524,524,524,524,522,516,508,471,449,420,390,353,235,181,145,105,90],"timestamp_mouse":[9,29,55,70,91,109,130,150,169,191,210,230,250,271,290,309,330,350,369,389,409,431,450,470,490,509,531,550,577,589,609,630,650,670,689,709,729,751,770,790,809,831,850,870,890,909,930,949,969,990,1010,1030,1051,1070,1089,1110,1129,1160,1169,1195,1209,1229,1250,1269,1289,1310,1330,1349,1369,1390,1409,1429,1449,1470,1490,1509,1529,1550,1570,1589,1609],"xSR":741.5,"ySR":469.95,"xT1":424.9,"yT1":0,"xT2":1058.1,"yT2":0,"toosoon":0,"cond_shown":"equaldotsize","ratio_trial":250,"smaller_num":"3","larger_num":"12","correct_side":2,"subjID":"Samuelricolopez10","gender":"0","age":"8","school":"4"},{"start_time":1552328129145,"click_time":1552328130478,"finger_time":1552328129798,"fix_duration":986.3928423751747,"trial":22,"RT":653,"MT":680,"sideResp":1,"stimulus":"img/500/randomdotsizeEA/L/10_Ratio_500_L_4_R_2.png","xmouse":[799,799,799,799,799,799,799,799,799,799,799,799,799,799,799,799,799,799,799,799,799,799,799,799,799,796,794,791,787,783,767,758,747,734,708,649,631,621,614,607,600,584,579,574,573,573,573,573,573,573,573,571,569,567,563,549,541,536,532,532,531,531,531,531,530,526,520],"ymouse":[531,531,531,531,531,531,531,531,531,531,531,531,531,531,531,531,531,531,531,531,531,530,530,530,530,529,527,523,517,512,491,481,467,450,411,330,304,284,270,257,234,174,162,152,144,139,135,132,130,125,122,116,112,109,104,96,92,90,89,88,88,88,88,88,88,88,88],"timestamp_mouse":[17,35,54,74,93,114,133,153,173,193,213,235,254,274,293,313,333,353,374,394,414,433,453,474,494,513,533,554,573,594,614,633,653,674,693,714,733,754,774,793,813,833,853,873,894,914,933,953,973,993,1013,1033,1055,1073,1093,1114,1133,1153,1173,1193,1213,1235,1254,1275,1293,1315,1333],"xSR":741.5,"ySR":469.95,"xT1":424.9,"yT1":0,"xT2":1058.1,"yT2":0,"toosoon":0,"cond_shown":"randomdotsizeEA","ratio_trial":500,"smaller_num":"2","larger_num":"4","correct_side":1,"subjID":"Samuelricolopez10","gender":"0","age":"8","school":"4"},{"start_time":1552328132447,"click_time":1552328133738,"finger_time":1552328133278,"fix_duration":387.0634123881471,"trial":23,"RT":831,"MT":460,"sideResp":2,"stimulus":"img/750/equaldotsize/R/11_Ratio_750_L_12_R_16.png","xmouse":[798,798,798,798,798,798,798,798,798,798,798,798,798,798,798,798,798,798,798,798,798,798,798,798,798,798,798,798,798,798,798,798,798,798,798,798,797,798,801,806,810,823,830,839,861,875,895,904,916,929,950,957,965,973,985,993,997,1003,1009,1015,1022,1040,1055,1058,1070],"ymouse":[540,540,540,540,540,540,540,540,540,540,540,540,540,540,540,540,540,540,540,540,540,540,540,540,540,540,540,540,540,540,540,540,540,540,540,540,540,536,524,509,491,455,434,402,352,329,301,288,276,265,243,232,216,204,191,178,165,152,138,124,108,85,72,71,66],"timestamp_mouse":[11,31,51,72,91,111,132,152,171,191,213,231,251,273,291,311,332,351,371,392,413,431,451,472,492,513,533,551,572,592,612,633,651,672,692,712,732,751,771,792,811,831,852,871,891,913,931,952,972,991,1012,1031,1051,1071,1092,1113,1131,1151,1172,1192,1212,1231,1252,1272,1291],"xSR":741.5,"ySR":469.95,"xT1":424.9,"yT1":0,"xT2":1058.1,"yT2":0,"toosoon":0,"cond_shown":"equaldotsize","ratio_trial":750,"smaller_num":"12","larger_num":"16","correct_side":2,"subjID":"Samuelricolopez10","gender":"0","age":"8","school":"4"},{"start_time":1552328136325,"click_time":1552328137478,"finger_time":1552328136938,"fix_duration":946.4591675066082,"trial":24,"RT":613,"MT":540,"sideResp":1,"stimulus":"img/250/randomdotsizeEA/L/15_Ratio_250_L_12_R_3.png","xmouse":[783,783,783,783,783,783,783,783,783,783,783,783,783,783,783,783,783,783,783,783,783,783,783,783,783,783,782,782,778,774,765,756,729,710,670,631,603,579,578,577,577,577,575,570,564,560,557,546,542,536,532,529,527,527,527,527,527,523],"ymouse":[513,513,513,513,513,513,513,513,513,513,513,513,513,513,513,513,513,513,513,513,513,513,513,513,513,513,512,509,494,482,463,445,401,378,321,266,229,196,194,193,193,193,192,190,187,184,180,159,146,130,115,105,98,98,98,98,98,95],"timestamp_mouse":[14,33,53,75,95,113,133,153,173,193,215,234,254,274,294,313,334,355,374,393,413,433,455,474,494,514,533,553,573,593,613,633,653,673,693,713,733,753,774,793,813,834,853,873,893,913,933,953,973,993,1014,1034,1053,1073,1093,1113,1134,1153],"xSR":741.5,"ySR":469.95,"xT1":424.9,"yT1":0,"xT2":1058.1,"yT2":0,"toosoon":0,"cond_shown":"randomdotsizeEA","ratio_trial":250,"smaller_num":"3","larger_num":"12","correct_side":1,"subjID":"Samuelricolopez10","gender":"0","age":"8","school":"4"},{"start_time":1552328139821,"click_time":1552328141019,"finger_time":1552328140498,"fix_duration":1260.664380633904,"trial":25,"RT":677,"MT":521,"sideResp":2,"stimulus":"img/750/randomdotsizeEA/R/15_Ratio_750_L_9_R_12.png","xmouse":[808,808,808,808,808,808,808,808,808,808,808,808,808,808,808,808,808,808,808,808,808,808,808,808,808,808,807,806,804,802,801,797,796,795,795,795,795,795,795,798,803,816,877,906,927,946,955,958,962,965,968,970,974,980,983,989,1000,1016,1048,1064],"ymouse":[505,505,505,505,505,505,505,505,505,505,505,505,505,505,505,505,505,505,505,505,505,505,505,504,502,501,500,496,491,487,482,476,470,465,461,455,448,426,414,397,372,328,203,162,131,108,93,87,79,74,69,67,66,66,66,66,66,71,80,85],"timestamp_mouse":[19,38,58,78,97,118,138,158,177,198,217,237,257,278,298,317,337,358,378,398,417,437,457,477,497,517,537,558,577,598,617,638,660,677,699,717,737,758,777,797,817,837,858,877,897,917,937,957,977,997,1017,1037,1057,1077,1097,1117,1137,1163,1177,1198],"xSR":741.5,"ySR":469.95,"xT1":424.9,"yT1":0,"xT2":1058.1,"yT2":0,"toosoon":0,"cond_shown":"randomdotsizeEA","ratio_trial":750,"smaller_num":"9","larger_num":"12","correct_side":2,"subjID":"Samuelricolopez10","gender":"0","age":"8","school":"4"},{"start_time":1552328142826,"click_time":1552328145258,"finger_time":1552328143678,"fix_duration":486.12126266081447,"trial":26,"RT":852,"MT":1580,"sideResp":1,"stimulus":"img/900/equaldotanddens/R/11_Ratio_900_L_18_R_20.png","xmouse":[813,813,813,813,813,813,813,813,813,813,813,813,813,813,813,813,813,813,813,813,813,813,813,813,813,813,813,813,813,813,813,813,813,813,813,813,813,812,811,809,808,804,802,797,796,794,794,794,796,802,805,815,822,834,837,839,842,845,849,850,850,850,851,856,856,856,856,856,856,856,856,855,854,839,827,814,805,787,761,755,745,738,736,736,736,736,736,739,753,774,794,816,835,864,871,873,873,873,873,873,871,863,853,810,775,737,698,665,619,614,612,612,612,611,603,595,585,571,545,532,525,519],"ymouse":[503,503,503,503,503,503,503,503,503,503,503,503,503,503,503,503,503,503,504,506,506,507,507,507,507,507,507,507,507,507,507,507,507,507,507,507,507,508,506,497,493,477,466,450,445,439,436,433,425,410,403,370,341,281,262,246,231,220,212,211,211,211,210,209,208,208,208,208,208,208,208,207,206,200,195,189,185,178,167,163,159,158,157,157,157,157,157,157,157,157,157,153,150,141,140,140,140,140,140,137,136,134,131,129,129,129,129,128,124,123,123,123,123,122,121,118,113,106,93,87,83,81],"timestamp_mouse":[12,32,52,73,93,112,132,152,172,192,214,232,252,272,293,312,332,353,372,392,412,433,453,473,493,512,532,552,573,592,612,641,652,673,694,712,733,754,772,793,812,832,852,872,893,912,932,954,972,992,1012,1033,1052,1073,1092,1113,1132,1153,1172,1193,1213,1233,1252,1272,1293,1312,1332,1353,1373,1393,1413,1432,1452,1472,1493,1512,1532,1552,1572,1592,1612,1633,1653,1674,1693,1713,1733,1752,1772,1793,1812,1832,1853,1872,1892,1912,1932,1953,1972,1992,2012,2033,2052,2072,2092,2113,2132,2152,2172,2192,2213,2233,2252,2272,2293,2312,2332,2352,2372,2393,2412,2432],"xSR":741.5,"ySR":469.95,"xT1":424.9,"yT1":0,"xT2":1058.1,"yT2":0,"toosoon":0,"cond_shown":"equaldotanddens","ratio_trial":900,"smaller_num":"18","larger_num":"20","correct_side":2,"subjID":"Samuelricolopez10","gender":"0","age":"8","school":"4"},{"start_time":1552328148750,"click_time":1552328150299,"finger_time":1552328149558,"fix_duration":250,"trial":27,"RT":808,"MT":741,"sideResp":2,"stimulus":"img/500/equaldotanddens/R/12_Ratio_500_L_1_R_2.png","xmouse":[801,801,801,801,801,801,801,801,801,801,801,801,801,801,801,801,801,801,798,798,798,798,798,798,798,798,798,798,798,798,798,798,798,798,798,798,797,797,791,783,767,734,707,686,680,672,668,667,667,669,673,679,695,705,719,740,769,822,945,1029,1178,1262,1304,1317,1317,1317,1317,1315,1313,1312,1309,1298,1287,1251,1225,1192,1163,1139],"ymouse":[543,543,543,543,543,543,543,543,543,543,543,543,543,543,543,543,543,543,538,538,538,538,538,538,538,538,538,538,538,538,538,538,538,538,538,538,538,536,517,494,459,396,351,302,281,261,247,237,229,223,214,202,170,153,136,115,98,81,69,69,69,69,69,66,66,65,63,61,59,58,57,54,54,54,54,54,54,54],"timestamp_mouse":[8,28,48,68,88,108,128,148,169,188,208,228,248,269,288,308,328,348,368,388,408,428,448,469,488,508,529,548,569,588,608,628,648,668,688,708,728,750,768,789,808,828,849,869,888,908,928,949,969,988,1009,1029,1050,1069,1088,1109,1128,1148,1168,1188,1208,1229,1249,1269,1290,1308,1329,1350,1369,1388,1409,1429,1450,1469,1488,1509,1529,1548],"xSR":741.5,"ySR":469.95,"xT1":424.9,"yT1":0,"xT2":1058.1,"yT2":0,"toosoon":0,"cond_shown":"equaldotanddens","ratio_trial":500,"smaller_num":"1","larger_num":"2","correct_side":2,"subjID":"Samuelricolopez10","gender":"0","age":"8","school":"4"},{"start_time":1552328152749,"click_time":1552328154119,"finger_time":1552328153558,"fix_duration":1327.948018253536,"trial":28,"RT":809,"MT":561,"sideResp":1,"stimulus":"img/900/randomdotsizeEA/L/10_Ratio_900_L_20_R_18.png","xmouse":[803,803,803,803,803,803,803,803,803,803,803,803,803,803,803,803,803,803,803,803,803,803,803,803,803,803,803,803,803,803,803,803,803,803,803,803,803,806,808,809,809,805,797,775,766,760,755,751,737,728,718,705,695,683,656,642,629,619,608,598,593,589,584,575,567,556,543,527,490],"ymouse":[520,520,520,520,520,520,520,520,520,520,520,520,520,520,520,520,520,520,520,520,520,520,520,520,520,520,520,520,520,520,520,520,520,520,520,520,520,519,506,483,463,442,414,359,338,324,312,302,272,256,242,223,210,192,159,143,129,120,110,103,101,98,94,89,86,82,76,70,58],"timestamp_mouse":[26,33,49,71,89,109,130,150,169,189,209,229,249,269,289,309,330,350,371,390,409,429,450,469,489,509,529,550,569,589,611,630,649,670,690,709,729,749,769,789,809,829,849,869,889,910,929,949,969,989,1010,1029,1049,1069,1089,1109,1129,1149,1170,1189,1209,1229,1249,1269,1289,1309,1329,1349,1370],"xSR":741.5,"ySR":469.95,"xT1":424.9,"yT1":0,"xT2":1058.1,"yT2":0,"toosoon":0,"cond_shown":"randomdotsizeEA","ratio_trial":900,"smaller_num":"18","larger_num":"20","correct_side":1,"subjID":"Samuelricolopez10","gender":"0","age":"8","school":"4"},{"start_time":1552328155954,"click_time":1552328156899,"finger_time":1552328156738,"fix_duration":894.3370642567631,"trial":29,"RT":784,"MT":161,"sideResp":2,"stimulus":"img/500/randomdotsizeEA/R/12_Ratio_500_L_1_R_2.png","xmouse":[789,789,789,789,789,789,789,790,790,790,790,790,790,790,790,790,790,790,790,790,790,790,790,790,790,790,790,790,790,790,790,790,790,790,790,790,790,794,796,820,834,853,883,949,979,1008,1044,1080],"ymouse":[501,501,501,500,499,497,496,494,494,494,494,494,494,494,494,494,494,494,494,494,494,494,494,494,494,494,494,494,494,494,494,494,494,494,494,494,494,488,484,449,429,400,347,213,161,119,76,44],"timestamp_mouse":[4,26,46,64,84,105,124,145,164,185,204,226,245,265,285,304,325,344,364,385,404,425,445,464,485,504,525,544,564,584,604,625,644,665,684,705,724,745,765,784,804,824,845,865,884,904,924,944],"xSR":741.5,"ySR":469.95,"xT1":424.9,"yT1":0,"xT2":1058.1,"yT2":0,"toosoon":0,"cond_shown":"randomdotsizeEA","ratio_trial":500,"smaller_num":"1","larger_num":"2","correct_side":2,"subjID":"Samuelricolopez10","gender":"0","age":"8","school":"4"},{"start_time":1552328159398,"click_time":1552328160738,"finger_time":1552328160298,"fix_duration":1317.7719006089194,"trial":30,"RT":900,"MT":440,"sideResp":1,"stimulus":"img/250/equaldotsize/L/15_Ratio_250_L_12_R_3.png","xmouse":[787,787,787,787,787,787,787,787,787,787,787,787,787,787,787,787,787,787,787,787,787,787,787,787,787,787,787,787,787,787,787,787,787,787,787,787,787,787,787,787,787,787,786,784,778,773,764,747,739,733,720,708,677,660,647,627,613,597,593,589,585,579,566,558,554,541,530,512],"ymouse":[548,548,548,548,548,548,548,548,548,548,548,548,548,548,548,548,548,548,548,548,548,548,548,548,548,548,548,548,548,548,548,548,548,548,548,547,545,539,534,532,530,529,520,506,471,433,380,298,270,247,222,200,165,154,145,138,134,128,127,125,123,121,115,111,109,103,98,90],"timestamp_mouse":[10,21,40,61,80,100,121,142,161,181,200,221,241,260,281,300,321,340,360,380,401,422,441,460,480,501,521,540,561,580,600,620,640,661,680,700,721,740,760,781,800,820,840,860,880,900,920,940,960,980,1000,1020,1040,1062,1080,1100,1120,1140,1160,1181,1200,1222,1240,1260,1281,1300,1320,1340],"xSR":741.5,"ySR":469.95,"xT1":424.9,"yT1":0,"xT2":1058.1,"yT2":0,"toosoon":0,"cond_shown":"equaldotsize","ratio_trial":250,"smaller_num":"3","larger_num":"12","correct_side":1,"subjID":"Samuelricolopez10","gender":"0","age":"8","school":"4"},{"start_time":1552328162518,"click_time":1552328163858,"finger_time":1552328163238,"fix_duration":778.2334661473386,"trial":31,"RT":720,"MT":620,"sideResp":1,"stimulus":"img/500/equaldotanddens/L/10_Ratio_500_L_4_R_2.png","xmouse":[774,776,776,776,776,776,776,776,776,776,776,776,776,776,776,776,776,776,776,776,776,776,776,776,776,776,776,776,776,777,777,777,778,779,779,779,777,769,764,758,749,733,725,718,707,690,640,620,612,609,607,605,604,602,598,593,577,575,573,572,570,562,558,553,548,543,531,524],"ymouse":[532,533,533,533,533,533,533,533,533,533,533,533,533,533,533,533,533,533,533,533,533,533,533,533,533,533,533,533,533,532,531,525,521,515,506,491,449,416,398,382,369,341,329,316,295,257,167,133,117,109,103,98,97,95,91,88,82,81,80,80,80,80,80,80,80,80,80,80],"timestamp_mouse":[1,20,40,60,80,100,120,140,161,182,200,220,240,261,280,301,321,341,360,381,400,421,440,460,481,500,520,540,560,581,601,621,640,660,680,700,720,740,760,780,801,821,840,861,880,901,921,940,960,981,1000,1020,1040,1060,1080,1100,1121,1142,1160,1180,1200,1221,1240,1261,1280,1301,1321,1340],"xSR":741.5,"ySR":469.95,"xT1":424.9,"yT1":0,"xT2":1058.1,"yT2":0,"toosoon":0,"cond_shown":"equaldotanddens","ratio_trial":500,"smaller_num":"2","larger_num":"4","correct_side":1,"subjID":"Samuelricolopez10","gender":"0","age":"8","school":"4"},{"start_time":1552328166147,"click_time":1552328167358,"finger_time":1552328166798,"fix_duration":1047.9932140490364,"trial":32,"RT":651,"MT":560,"sideResp":2,"stimulus":"img/900/equaldotanddens/R/6_Ratio_900_L_9_R_10.png","xmouse":[782,782,782,782,782,782,782,782,782,782,782,782,782,782,782,782,782,782,782,782,782,782,782,782,782,782,782,782,782,785,795,806,813,818,820,822,822,824,827,831,851,862,870,877,887,893,900,909,922,946,955,962,972,976,985,1003,1019,1032,1041,1052,1068],"ymouse":[533,534,534,534,534,534,534,534,534,534,534,534,534,534,534,534,534,534,534,534,534,534,534,534,534,534,534,534,534,524,501,472,446,418,411,396,394,391,387,378,351,333,313,295,263,248,235,219,201,169,154,144,129,123,109,92,79,68,61,53,46],"timestamp_mouse":[11,37,52,72,92,112,132,151,172,192,211,232,251,271,292,312,332,351,373,392,411,432,451,472,491,512,532,552,572,592,611,632,651,671,691,712,731,751,771,791,812,832,851,871,892,911,931,951,971,993,1012,1033,1051,1072,1092,1112,1131,1151,1171,1192,1211],"xSR":741.5,"ySR":469.95,"xT1":424.9,"yT1":0,"xT2":1058.1,"yT2":0,"toosoon":0,"cond_shown":"equaldotanddens","ratio_trial":900,"smaller_num":"9","larger_num":"10","correct_side":2,"subjID":"Samuelricolopez10","gender":"0","age":"8","school":"4"},{"start_time":1552328170398,"click_time":1552328171818,"finger_time":1552328171158,"fix_duration":1330.1494417493147,"trial":33,"RT":760,"MT":660,"sideResp":2,"stimulus":"img/900/equaldotanddens/L/2_Ratio_900_L_20_R_18.png","xmouse":[796,796,796,796,796,796,796,796,796,796,796,796,796,796,796,796,796,796,796,796,796,796,796,796,796,796,796,796,796,796,796,796,796,796,796,796,795,794,781,776,771,769,768,768,768,769,772,778,784,789,799,819,852,935,954,966,973,977,978,979,980,982,986,989,990,991,993,994,1011,1036,1055,1070],"ymouse":[514,514,514,514,514,514,514,514,514,514,514,514,514,514,514,514,514,514,514,514,514,514,514,514,514,514,514,514,514,514,514,514,514,514,514,514,509,502,461,447,433,422,412,397,390,379,364,347,326,308,286,254,212,109,86,70,62,58,57,57,57,57,58,58,59,59,59,59,61,64,65,66],"timestamp_mouse":[10,21,41,61,81,101,121,141,160,180,201,221,241,261,281,300,321,341,360,381,401,420,441,460,481,500,520,540,560,581,600,621,641,660,681,701,720,740,760,780,800,821,840,861,880,901,921,940,961,980,1000,1021,1040,1060,1080,1101,1120,1141,1160,1180,1201,1220,1241,1260,1281,1301,1320,1341,1360,1380,1400,1420],"xSR":741.5,"ySR":469.95,"xT1":424.9,"yT1":0,"xT2":1058.1,"yT2":0,"toosoon":0,"cond_shown":"equaldotanddens","ratio_trial":900,"smaller_num":"18","larger_num":"20","correct_side":1,"subjID":"Samuelricolopez10","gender":"0","age":"8","school":"4"},{"start_time":1552328182580,"click_time":1552328184158,"finger_time":1552328183379,"fix_duration":461.73532988145183,"trial":34,"RT":799,"MT":779,"sideResp":1,"stimulus":"img/900/randomdotsizeEA/R/3_Ratio_900_L_9_R_10.png","xmouse":[776,776,776,776,776,775,775,775,775,775,775,775,775,775,775,775,775,775,775,775,775,775,775,775,775,775,775,775,775,775,775,775,775,777,778,778,780,781,783,794,797,798,797,789,777,764,762,762,759,753,732,720,704,681,659,647,645,644,643,638,632,624,616,611,595,589,583,576,569,561,560,560,557,554,551,547,539,532,522],"ymouse":[499,499,501,503,505,506,506,506,506,506,506,506,506,506,506,506,506,506,506,506,506,506,506,506,506,506,506,506,506,506,506,506,506,506,506,505,499,489,477,446,427,404,380,355,325,305,302,302,300,290,266,253,241,224,209,197,195,194,194,186,178,167,158,149,130,126,122,118,116,112,111,111,110,108,106,102,97,92,88],"timestamp_mouse":[19,38,58,79,98,119,139,159,178,198,219,238,260,278,299,318,339,359,378,399,418,438,459,479,499,518,538,559,579,599,619,639,658,678,699,719,738,758,778,799,818,839,858,879,899,920,938,958,978,999,1018,1038,1058,1078,1099,1119,1139,1159,1178,1199,1218,1238,1258,1278,1299,1318,1338,1358,1378,1399,1418,1438,1458,1479,1498,1518,1538,1559,1578],"xSR":741.5,"ySR":469.95,"xT1":424.9,"yT1":0,"xT2":1058.1,"yT2":0,"toosoon":0,"cond_shown":"randomdotsizeEA","ratio_trial":900,"smaller_num":"9","larger_num":"10","correct_side":2,"subjID":"Samuelricolopez10","gender":"0","age":"8","school":"4"},{"start_time":1552328186204,"click_time":1552328187518,"finger_time":1552328186978,"fix_duration":744.0856978300809,"trial":35,"RT":774,"MT":540,"sideResp":2,"stimulus":"img/750/randomdotsizeEA/L/10_Ratio_750_L_4_R_3.png","xmouse":[792,792,792,792,792,792,792,792,792,792,791,791,790,790,790,790,790,790,790,790,790,790,790,790,790,790,789,788,788,787,786,786,786,785,784,784,784,782,782,786,789,796,804,815,842,856,873,887,901,934,954,979,990,996,1004,1005,1007,1010,1014,1024,1026,1032,1035,1039,1049,1060],"ymouse":[531,531,531,531,531,531,531,531,531,531,531,531,531,531,531,531,531,531,531,531,531,531,531,531,531,531,530,528,527,524,521,514,511,506,495,486,479,471,457,422,398,360,333,308,256,236,218,201,181,145,137,129,125,122,120,119,119,119,117,114,112,109,106,106,101,95],"timestamp_mouse":[20,34,55,74,94,115,135,154,174,195,214,234,254,274,294,314,334,354,376,394,415,435,455,474,494,514,535,555,576,594,614,634,655,674,694,714,734,755,774,794,814,834,856,875,895,914,934,954,974,994,1015,1034,1055,1074,1095,1114,1135,1154,1174,1194,1214,1234,1254,1275,1294,1314],"xSR":741.5,"ySR":469.95,"xT1":424.9,"yT1":0,"xT2":1058.1,"yT2":0,"toosoon":0,"cond_shown":"randomdotsizeEA","ratio_trial":750,"smaller_num":"3","larger_num":"4","correct_side":1,"subjID":"Samuelricolopez10","gender":"0","age":"8","school":"4"},{"start_time":1552328191465,"click_time":1552328192778,"finger_time":1552328192299,"fix_duration":1484.5009543858653,"trial":36,"RT":834,"MT":479,"sideResp":2,"stimulus":"img/900/randomdotsizeEA/R/13_Ratio_900_L_18_R_20.png","xmouse":[776,776,776,776,776,776,776,776,776,776,776,776,778,779,779,779,779,779,779,779,779,779,779,779,779,779,779,779,779,779,779,779,779,779,779,779,779,779,779,782,783,795,805,811,816,824,842,847,851,858,865,882,891,902,917,935,959,978,987,992,997,1010,1022,1036,1050,1065],"ymouse":[503,503,503,503,503,503,503,503,503,503,503,503,503,503,503,503,503,503,503,503,503,503,503,503,503,503,503,503,503,503,503,503,503,503,503,503,503,503,503,502,496,456,416,382,354,329,275,266,259,252,243,229,220,206,188,169,150,136,132,129,127,120,114,108,102,94],"timestamp_mouse":[13,33,53,73,94,113,133,154,174,194,214,234,253,273,293,313,334,354,373,395,414,433,454,474,494,513,533,554,575,594,613,633,653,674,693,713,734,753,773,793,813,834,853,874,894,913,934,953,974,994,1013,1034,1053,1074,1094,1114,1133,1154,1173,1194,1213,1235,1253,1273,1293,1313],"xSR":741.5,"ySR":469.95,"xT1":424.9,"yT1":0,"xT2":1058.1,"yT2":0,"toosoon":0,"cond_shown":"randomdotsizeEA","ratio_trial":900,"smaller_num":"18","larger_num":"20","correct_side":2,"subjID":"Samuelricolopez10","gender":"0","age":"8","school":"4"},{"start_time":1552328194177,"click_time":1552328195499,"finger_time":1552328194898,"fix_duration":476.3147474426069,"trial":37,"RT":721,"MT":601,"sideResp":1,"stimulus":"img/250/randomdotsizeEA/L/7_Ratio_250_L_8_R_2.png","xmouse":[771,772,772,772,772,772,772,772,772,772,772,772,773,773,774,774,774,775,775,775,775,775,775,776,776,776,776,776,776,776,776,776,777,777,777,777,775,762,753,738,707,685,651,635,623,618,616,616,616,616,616,615,606,597,588,579,575,574,574,574,572,569,552,543,534,529,524],"ymouse":[543,544,544,544,544,544,544,544,544,544,544,544,544,544,544,544,544,544,544,544,544,544,544,544,544,544,544,544,544,544,544,544,544,532,511,479,437,344,302,264,215,189,155,141,131,126,124,124,124,124,124,124,122,119,115,112,110,109,109,108,107,102,91,86,82,81,80],"timestamp_mouse":[12,29,45,61,82,101,121,141,162,182,201,221,241,261,281,301,322,341,362,381,401,421,441,461,481,502,521,542,561,582,601,621,642,661,681,701,721,741,762,781,802,821,842,861,881,901,922,941,961,981,1001,1022,1041,1061,1081,1101,1122,1142,1161,1181,1202,1221,1241,1262,1281,1301,1322],"xSR":741.5,"ySR":469.95,"xT1":424.9,"yT1":0,"xT2":1058.1,"yT2":0,"toosoon":0,"cond_shown":"randomdotsizeEA","ratio_trial":250,"smaller_num":"2","larger_num":"8","correct_side":1,"subjID":"Samuelricolopez10","gender":"0","age":"8","school":"4"},{"start_time":1552328197709,"click_time":1552328200458,"finger_time":1552328199018,"fix_duration":1269.9187616843233,"trial":38,"RT":1309,"MT":1440,"sideResp":1,"stimulus":"img/750/randomdotsizeEA/R/7_Ratio_750_L_3_R_4.png","xmouse":[800,799,799,799,798,798,798,797,797,796,796,796,795,795,795,795,795,795,795,795,795,795,795,795,795,795,795,795,795,795,795,795,793,793,793,793,793,792,792,792,792,792,792,792,792,791,790,789,788,787,786,786,786,786,786,786,786,786,786,786,786,783,782,780,780,779,778,777,777,777,774,773,772,770,768,768,768,768,767,767,766,765,763,762,761,758,757,756,756,756,756,756,756,756,755,752,751,749,744,738,716,707,700,692,685,671,667,664,663,663,663,663,666,674,682,689,692,693,693,693,693,692,687,677,659,610,589,578,574,574,570,567,564,561,558,544,528,506],"ymouse":[524,524,524,524,524,524,524,524,524,524,524,524,524,524,524,524,524,524,524,524,524,524,524,524,524,524,524,524,524,524,524,524,523,523,522,521,521,520,520,520,520,520,520,518,516,511,507,503,500,499,495,495,495,495,495,495,495,495,495,494,493,487,484,479,476,467,463,459,456,452,440,435,430,425,419,418,417,417,416,416,415,412,410,408,405,398,394,391,390,389,389,388,387,386,385,379,375,370,362,352,305,285,269,253,238,200,182,168,161,160,160,159,154,147,140,126,120,116,115,114,113,110,108,105,96,83,77,73,73,73,73,73,73,71,71,69,68,67],"timestamp_mouse":[13,36,50,70,90,110,130,150,170,190,210,230,249,270,290,309,330,350,369,390,410,430,450,469,490,509,529,549,569,589,609,629,649,669,689,709,730,749,769,790,809,830,849,869,889,909,929,949,970,989,1009,1029,1051,1069,1090,1110,1129,1149,1169,1190,1209,1230,1249,1269,1290,1309,1329,1350,1370,1389,1410,1429,1449,1470,1489,1510,1529,1551,1570,1590,1609,1629,1649,1671,1689,1709,1729,1749,1769,1789,1810,1830,1850,1869,1890,1910,1929,1950,1970,1989,2010,2029,2049,2070,2089,2110,2128,2149,2169,2189,2209,2229,2248,2269,2290,2310,2329,2348,2368,2388,2409,2429,2448,2470,2488,2509,2528,2549,2568,2588,2609,2628,2648,2668,2690,2709,2729,2749],"xSR":741.5,"ySR":469.95,"xT1":424.9,"yT1":0,"xT2":1058.1,"yT2":0,"toosoon":0,"cond_shown":"randomdotsizeEA","ratio_trial":750,"smaller_num":"3","larger_num":"4","correct_side":2,"subjID":"Samuelricolopez10","gender":"0","age":"8","school":"4"},{"start_time":1552328201648,"click_time":1552328203437,"finger_time":1552328201797,"fix_duration":410.0406999087124,"trial":39,"RT":149,"MT":1640,"sideResp":1,"stimulus":"img/750/equaldotanddens/L/13_Ratio_750_L_8_R_6.png","xmouse":[750,750,749,748,746,744,742,738,737,736,736,736,736,736,736,736,736,736,742,749,755,757,757,757,757,757,757,757,757,757,757,757,760,760,761,761,761,761,761,761,761,761,761,761,761,761,761,761,761,761,761,761,761,761,761,765,767,772,773,773,777,791,802,813,824,826,827,827,827,824,813,786,767,736,721,707,695,677,660,618,593,574,556,552,550,550,547,542,535,517],"ymouse":[527,524,521,521,521,521,524,529,530,531,531,529,528,527,527,527,527,526,523,522,522,522,522,522,522,522,522,522,522,522,522,522,522,523,523,523,523,523,523,523,523,523,523,523,523,523,523,523,523,523,523,523,523,523,523,522,522,518,517,517,515,505,496,485,463,449,433,415,371,346,316,264,237,205,196,188,184,176,166,126,102,86,73,71,70,70,68,67,66,65],"timestamp_mouse":[12,29,50,70,89,109,130,149,169,190,209,229,250,271,290,310,330,350,371,389,411,429,449,471,491,509,530,549,569,590,609,629,650,671,690,709,730,750,769,790,810,829,849,871,891,910,930,950,971,989,1011,1031,1050,1069,1090,1109,1130,1150,1169,1189,1210,1230,1249,1270,1289,1309,1330,1349,1371,1389,1411,1429,1450,1471,1489,1509,1530,1549,1569,1589,1609,1629,1650,1670,1690,1709,1729,1749,1769,1789],"xSR":741.5,"ySR":469.95,"xT1":424.9,"yT1":0,"xT2":1058.1,"yT2":0,"toosoon":0,"cond_shown":"equaldotanddens","ratio_trial":750,"smaller_num":"6","larger_num":"8","correct_side":1,"subjID":"Samuelricolopez10","gender":"0","age":"8","school":"4"},{"start_time":1552328205909,"click_time":1552328208038,"finger_time":1552328207537,"fix_duration":250,"trial":40,"RT":1628,"MT":501,"sideResp":1,"stimulus":"img/250/randomdotsizeEA/R/8_Ratio_250_L_1_R_4.png","xmouse":[797,797,797,797,797,797,797,797,797,797,797,797,797,797,797,797,797,797,797,797,797,796,796,796,795,795,795,795,795,795,795,795,795,795,795,795,795,795,795,795,795,795,795,795,795,795,795,795,795,795,795,795,795,795,795,795,795,795,795,795,795,795,795,795,795,795,795,795,795,795,795,795,795,795,795,795,795,798,801,804,808,809,809,809,809,809,809,809,809,809,809,809,809,807,800,789,756,729,709,689,668,625,599,577,558,542,514],"ymouse":[542,542,542,542,542,542,542,542,542,542,542,542,542,542,542,542,542,542,542,542,542,537,535,533,531,530,530,530,530,530,530,530,530,530,530,530,530,530,530,530,530,530,530,530,530,530,530,530,530,530,530,530,530,530,530,530,530,530,530,530,530,530,530,530,530,530,530,530,530,530,530,530,530,530,530,530,528,515,500,486,470,463,463,463,463,463,463,463,463,463,463,463,462,458,450,436,396,363,339,319,295,238,198,165,139,118,81],"timestamp_mouse":[12,38,49,68,89,110,129,149,168,188,208,228,248,268,288,309,328,349,370,389,408,428,448,470,488,508,529,548,568,589,608,628,649,668,689,709,730,750,770,789,809,829,850,868,888,908,928,948,968,988,1009,1029,1048,1069,1088,1109,1130,1150,1169,1188,1208,1228,1249,1268,1290,1310,1328,1350,1369,1388,1408,1428,1448,1468,1489,1508,1528,1548,1569,1590,1609,1628,1648,1668,1690,1709,1729,1750,1769,1788,1808,1828,1849,1869,1888,1908,1928,1949,1968,1988,2009,2029,2048,2068,2088,2108,2129],"xSR":741.5,"ySR":469.95,"xT1":424.9,"yT1":0,"xT2":1058.1,"yT2":0,"toosoon":0,"cond_shown":"randomdotsizeEA","ratio_trial":250,"smaller_num":"1","larger_num":"4","correct_side":2,"subjID":"Samuelricolopez10","gender":"0","age":"8","school":"4"},{"start_time":1552328209272,"click_time":1552328210657,"finger_time":1552328210138,"fix_duration":353.7431014221327,"trial":41,"RT":866,"MT":519,"sideResp":1,"stimulus":"img/250/randomdotsizeEA/L/5_Ratio_250_L_24_R_6.png","xmouse":[771,771,771,773,773,773,775,777,778,780,781,783,786,788,790,790,790,790,790,790,790,790,790,790,790,790,790,790,790,790,790,790,790,790,790,790,790,790,790,790,784,773,762,735,721,703,685,674,661,628,601,579,565,553,548,548,548,548,548,548,548,547,546,541,530,526,525,525,525,523],"ymouse":[491,494,494,502,503,505,508,509,511,517,519,523,527,531,535,535,535,535,535,535,535,535,535,535,535,535,535,535,535,535,535,535,535,535,535,535,535,535,535,534,532,529,526,512,493,462,421,392,363,282,223,176,155,142,135,135,135,135,135,135,135,135,133,126,106,101,99,99,99,98],"timestamp_mouse":[19,34,45,65,85,105,125,147,166,185,205,227,246,266,285,307,326,346,365,385,407,425,446,465,486,506,525,545,566,587,605,625,647,667,685,705,726,747,765,785,806,826,846,866,885,905,926,945,967,985,1005,1025,1045,1066,1085,1105,1125,1145,1165,1186,1206,1226,1245,1265,1285,1306,1327,1347,1366,1385],"xSR":741.5,"ySR":469.95,"xT1":424.9,"yT1":0,"xT2":1058.1,"yT2":0,"toosoon":0,"cond_shown":"randomdotsizeEA","ratio_trial":250,"smaller_num":"6","larger_num":"24","correct_side":1,"subjID":"Samuelricolopez10","gender":"0","age":"8","school":"4"},{"start_time":1552328212413,"click_time":1552328213857,"finger_time":1552328213459,"fix_duration":795.643810784825,"trial":42,"RT":1046,"MT":398,"sideResp":2,"stimulus":"img/900/randomdotsizeEA/L/2_Ratio_900_L_20_R_18.png","xmouse":[810,810,810,810,810,810,810,810,810,810,810,810,810,810,810,810,810,810,810,810,810,810,810,810,810,810,810,810,810,810,810,810,810,810,810,810,810,810,810,810,810,810,810,810,810,810,811,812,813,814,817,821,828,830,832,834,835,837,838,838,843,848,859,867,876,889,903,915,951,973,998,1022,1060],"ymouse":[516,516,516,516,516,516,516,516,516,516,516,516,516,516,516,516,516,516,516,516,516,516,516,516,516,516,516,516,516,516,516,516,516,516,516,516,516,516,516,516,516,516,516,516,516,516,516,513,510,502,492,472,433,418,402,389,383,373,370,365,347,331,291,268,240,212,188,172,143,131,119,107,91],"timestamp_mouse":[11,24,45,64,84,106,124,145,164,186,205,225,246,266,284,304,324,344,364,384,406,425,446,464,486,504,524,545,565,586,605,625,646,664,685,704,726,744,765,784,804,825,844,864,884,905,924,944,966,984,1004,1025,1046,1064,1084,1105,1124,1144,1165,1185,1205,1225,1245,1265,1285,1305,1325,1344,1365,1384,1404,1425,1444],"xSR":741.5,"ySR":469.95,"xT1":424.9,"yT1":0,"xT2":1058.1,"yT2":0,"toosoon":0,"cond_shown":"randomdotsizeEA","ratio_trial":900,"smaller_num":"18","larger_num":"20","correct_side":1,"subjID":"Samuelricolopez10","gender":"0","age":"8","school":"4"},{"start_time":1552328215058,"click_time":1552328216718,"finger_time":1552328216158,"fix_duration":359.373544402133,"trial":43,"RT":1100,"MT":560,"sideResp":1,"stimulus":"img/900/randomdotsizeEA/R/15_Ratio_900_L_9_R_10.png","xmouse":[799,799,799,798,798,798,798,798,798,798,798,798,798,798,798,798,798,798,798,798,798,798,798,798,798,798,798,798,798,798,798,798,798,798,798,798,798,798,798,798,798,798,798,798,798,798,798,798,798,798,798,798,797,793,786,757,741,724,700,665,633,632,631,628,624,619,616,611,607,599,592,580,574,567,560,545,537,528,521,516,508,506,504,504],"ymouse":[512,512,512,512,512,512,512,512,512,512,512,512,512,512,512,512,512,512,512,512,512,512,512,512,512,512,512,512,512,512,512,512,512,512,512,512,512,512,512,512,512,512,512,512,512,512,512,512,512,512,510,506,502,499,494,458,429,402,380,359,341,340,333,323,314,304,298,288,276,262,247,220,206,194,184,167,159,146,135,126,110,105,103,99],"timestamp_mouse":[2,19,39,61,79,99,120,140,160,180,199,220,239,260,279,301,320,340,359,381,399,419,441,460,480,501,519,539,561,580,600,619,640,661,679,699,719,741,761,780,799,821,839,860,881,900,920,939,959,979,999,1019,1039,1059,1079,1099,1121,1139,1160,1179,1200,1219,1239,1260,1281,1301,1320,1339,1360,1379,1400,1419,1441,1460,1481,1500,1519,1539,1559,1580,1600,1619,1640,1659],"xSR":741.5,"ySR":469.95,"xT1":424.9,"yT1":0,"xT2":1058.1,"yT2":0,"toosoon":0,"cond_shown":"randomdotsizeEA","ratio_trial":900,"smaller_num":"9","larger_num":"10","correct_side":2,"subjID":"Samuelricolopez10","gender":"0","age":"8","school":"4"},{"start_time":1552328220417,"click_time":1552328222177,"finger_time":1552328221317,"fix_duration":1138.0310839658448,"trial":44,"RT":900,"MT":860,"sideResp":2,"stimulus":"img/900/equaldotsize/R/15_Ratio_900_L_9_R_10.png","xmouse":[807,807,807,807,807,807,807,807,807,807,807,807,807,807,807,807,807,807,807,805,804,802,800,800,800,799,799,799,799,799,799,799,799,799,799,799,799,799,799,799,799,798,798,802,806,812,819,823,826,828,829,833,836,843,846,848,852,857,887,909,948,975,1012,1055,1075,1082,1089,1093,1099,1105,1109,1111,1112,1113,1113,1113,1113,1113,1113,1113,1113,1113,1111,1111,1110,1109,1108,1107,1094],"ymouse":[510,510,510,510,510,510,510,510,510,510,510,510,510,510,510,510,510,510,510,511,512,512,513,513,513,513,513,513,513,513,513,513,513,513,513,513,513,513,513,513,513,512,509,491,477,458,435,424,408,402,396,388,379,362,358,351,345,339,318,311,291,274,253,227,211,206,201,196,190,183,177,174,172,167,165,162,159,155,147,142,138,136,134,129,123,120,117,113,77],"timestamp_mouse":[1,28,40,62,80,102,121,141,161,180,201,221,240,261,281,301,321,340,360,381,400,420,442,460,480,501,521,540,560,580,600,620,641,661,682,701,721,740,760,781,802,821,841,860,881,900,921,940,960,980,1002,1021,1041,1060,1082,1100,1121,1141,1160,1180,1200,1220,1240,1260,1281,1300,1320,1342,1361,1380,1401,1420,1440,1460,1480,1500,1521,1541,1561,1580,1601,1621,1640,1660,1682,1700,1720,1740,1760],"xSR":741.5,"ySR":469.95,"xT1":424.9,"yT1":0,"xT2":1058.1,"yT2":0,"toosoon":0,"cond_shown":"equaldotsize","ratio_trial":900,"smaller_num":"9","larger_num":"10","correct_side":2,"subjID":"Samuelricolopez10","gender":"0","age":"8","school":"4"},{"start_time":1552328223530,"click_time":1552328224819,"finger_time":1552328224197,"fix_duration":250,"trial":45,"RT":667,"MT":622,"sideResp":2,"stimulus":"img/250/equaldotsize/R/12_Ratio_250_L_5_R_20.png","xmouse":[811,811,811,811,811,811,811,811,811,811,811,811,811,811,811,811,811,811,811,811,811,811,811,811,811,811,811,811,811,811,811,811,814,824,835,853,872,894,927,931,935,935,936,936,937,938,940,954,959,965,970,975,994,1002,1009,1012,1016,1021,1024,1026,1028,1033,1048,1058,1064],"ymouse":[483,483,483,483,483,483,483,483,483,483,483,483,483,483,483,483,483,483,483,483,483,483,483,483,483,483,483,483,483,483,483,483,475,459,441,410,378,339,268,251,232,213,190,188,186,182,176,150,141,131,124,117,104,100,96,93,92,88,87,86,84,82,77,76,76],"timestamp_mouse":[14,28,48,68,87,107,127,148,169,187,207,227,249,267,288,307,328,349,368,387,408,427,447,468,488,507,528,547,567,589,608,627,647,667,687,707,727,747,767,787,808,828,847,867,887,908,927,948,968,987,1009,1028,1047,1067,1087,1109,1128,1148,1167,1187,1208,1227,1248,1268,1289],"xSR":741.5,"ySR":469.95,"xT1":424.9,"yT1":0,"xT2":1058.1,"yT2":0,"toosoon":0,"cond_shown":"equaldotsize","ratio_trial":250,"smaller_num":"5","larger_num":"20","correct_side":2,"subjID":"Samuelricolopez10","gender":"0","age":"8","school":"4"},{"start_time":1552328227236,"click_time":1552328228298,"finger_time":1552328227979,"fix_duration":1315.083509004656,"trial":46,"RT":743,"MT":319,"sideResp":2,"stimulus":"img/250/equaldotsize/R/13_Ratio_250_L_2_R_8.png","xmouse":[810,810,810,810,810,810,810,810,810,810,810,810,810,810,810,810,810,810,810,810,810,810,810,810,810,810,810,810,810,810,810,810,810,813,820,828,839,857,865,875,889,915,942,1009,1033,1050,1062,1070,1081,1101,1110,1121,1131,1137],"ymouse":[534,534,534,534,534,534,534,534,534,534,534,534,534,534,534,534,534,534,534,534,534,534,534,534,534,534,534,534,534,534,534,534,534,527,516,503,487,463,452,437,419,388,367,324,308,294,283,272,241,196,176,145,108,63],"timestamp_mouse":[10,21,42,62,81,102,121,141,161,182,201,222,242,263,282,303,322,341,363,382,402,421,442,462,482,502,521,542,561,583,602,621,641,661,682,701,721,743,761,782,802,822,842,861,881,902,921,943,961,982,1001,1023,1043,1061],"xSR":741.5,"ySR":469.95,"xT1":424.9,"yT1":0,"xT2":1058.1,"yT2":0,"toosoon":0,"cond_shown":"equaldotsize","ratio_trial":250,"smaller_num":"2","larger_num":"8","correct_side":2,"subjID":"Samuelricolopez10","gender":"0","age":"8","school":"4"},{"start_time":1552328231090,"click_time":1552328232657,"finger_time":1552328231759,"fix_duration":1430.5989492453846,"trial":47,"RT":669,"MT":898,"sideResp":2,"stimulus":"img/500/equaldotanddens/R/12_Ratio_500_L_1_R_2.png","xmouse":[777,777,777,777,777,777,777,777,777,777,777,777,777,777,777,777,777,777,777,777,777,777,777,777,777,777,777,777,779,780,785,788,792,796,798,800,800,800,800,800,802,805,809,814,817,822,828,834,841,849,866,876,883,894,905,925,942,956,972,982,996,998,1002,1006,1008,1015,1018,1020,1022,1024,1027,1029,1030,1034,1036,1046,1053,1057,1061],"ymouse":[494,494,494,494,494,494,494,494,494,494,494,494,494,494,494,494,494,494,494,494,494,494,494,494,494,494,494,494,492,490,482,477,470,462,455,448,447,445,445,445,441,436,431,423,414,395,377,363,348,334,308,296,287,275,266,248,227,201,174,154,129,120,114,107,101,87,80,77,74,73,70,68,68,67,66,62,61,60,60],"timestamp_mouse":[12,34,48,69,89,107,128,147,168,187,207,229,248,268,288,307,327,348,367,387,407,427,449,468,488,507,528,547,568,587,607,627,648,669,688,708,728,748,767,787,807,827,848,868,887,907,927,947,967,987,1008,1027,1047,1067,1088,1108,1127,1147,1169,1188,1207,1227,1248,1268,1289,1308,1327,1347,1368,1387,1408,1427,1448,1467,1488,1507,1527,1547,1567],"xSR":741.5,"ySR":469.95,"xT1":424.9,"yT1":0,"xT2":1058.1,"yT2":0,"toosoon":0,"cond_shown":"equaldotanddens","ratio_trial":500,"smaller_num":"1","larger_num":"2","correct_side":2,"subjID":"Samuelricolopez10","gender":"0","age":"8","school":"4"},{"start_time":1552328235192,"click_time":1552328236578,"finger_time":1552328235938,"fix_duration":1471.4307072234365,"trial":48,"RT":746,"MT":640,"sideResp":2,"stimulus":"img/750/equaldotanddens/R/2_Ratio_750_L_6_R_8.png","xmouse":[801,801,801,801,801,801,801,801,801,801,801,801,801,801,801,801,801,801,801,801,801,801,801,801,801,801,801,801,801,801,801,801,800,800,800,800,800,804,808,810,816,823,829,834,840,846,854,857,861,865,886,902,918,931,942,949,961,968,972,977,983,1002,1013,1023,1030,1033,1039,1043,1055,1061],"ymouse":[520,520,520,520,520,520,520,520,520,520,520,520,520,520,520,520,520,520,520,520,520,520,520,520,520,520,520,520,520,520,520,520,519,517,514,510,489,465,439,414,378,337,318,300,286,273,254,249,244,238,200,177,156,137,121,108,87,76,72,66,60,49,45,41,40,39,39,39,41,43],"timestamp_mouse":[9,25,46,66,85,105,126,145,166,186,205,226,247,265,286,306,326,345,366,385,406,427,447,467,486,505,526,547,567,586,606,625,645,666,685,705,725,746,765,785,805,825,845,865,885,906,925,946,966,985,1007,1025,1045,1066,1085,1107,1125,1145,1165,1186,1206,1225,1245,1265,1285,1305,1325,1346,1366,1386],"xSR":741.5,"ySR":469.95,"xT1":424.9,"yT1":0,"xT2":1058.1,"yT2":0,"toosoon":0,"cond_shown":"equaldotanddens","ratio_trial":750,"smaller_num":"6","larger_num":"8","correct_side":2,"subjID":"Samuelricolopez10","gender":"0","age":"8","school":"4"},{"start_time":1552328238843,"click_time":1552328240418,"finger_time":1552328239917,"fix_duration":1344.5656147694199,"trial":49,"RT":1074,"MT":501,"sideResp":1,"stimulus":"img/900/equaldotanddens/L/10_Ratio_900_L_20_R_18.png","xmouse":[779,779,779,779,779,779,779,779,779,779,779,779,779,779,779,779,779,779,779,779,779,779,779,779,779,779,779,779,779,779,779,779,779,779,779,779,779,779,779,779,779,779,779,779,779,779,779,779,779,779,776,772,764,747,737,715,693,672,633,614,600,594,588,581,578,575,571,569,568,567,566,564,564,561,556,553,548,538,508],"ymouse":[520,520,520,520,520,520,520,520,520,520,520,520,520,520,520,520,520,520,520,520,520,520,520,520,520,520,520,520,520,520,520,520,520,520,520,520,520,520,520,520,520,520,520,520,520,520,520,520,520,520,515,508,494,464,444,406,373,338,249,206,171,147,127,96,84,77,71,68,66,66,66,65,65,65,65,65,65,65,65],"timestamp_mouse":[15,35,55,75,95,115,134,155,176,196,214,234,255,274,295,314,335,356,376,395,414,434,455,476,494,515,534,554,576,595,615,635,656,674,694,714,734,754,775,795,814,835,855,874,895,916,934,954,974,995,1016,1035,1054,1074,1094,1114,1134,1154,1175,1195,1215,1235,1255,1274,1294,1315,1334,1354,1374,1394,1415,1436,1456,1474,1494,1514,1534,1556,1575],"xSR":741.5,"ySR":469.95,"xT1":424.9,"yT1":0,"xT2":1058.1,"yT2":0,"toosoon":0,"cond_shown":"equaldotanddens","ratio_trial":900,"smaller_num":"18","larger_num":"20","correct_side":1,"subjID":"Samuelricolopez10","gender":"0","age":"8","school":"4"},{"start_time":1552328242429,"click_time":1552328243637,"finger_time":1552328243178,"fix_duration":1209.6910737973797,"trial":50,"RT":749,"MT":459,"sideResp":1,"stimulus":"img/250/equaldotanddens/L/14_Ratio_250_L_12_R_3.png","xmouse":[786,786,786,786,786,786,786,786,786,786,786,786,786,786,786,786,786,786,786,786,786,786,786,786,786,786,786,786,786,786,788,789,789,789,789,788,766,678,578,500,487,470,446,424,392,390,389,388,387,385,385,385,385,385,385,393,398,404,413,432,437],"ymouse":[525,525,525,525,525,525,525,525,525,525,525,525,525,525,525,525,525,525,525,525,525,525,525,525,525,525,525,525,525,525,527,528,529,529,529,530,524,493,464,436,426,404,370,339,293,285,280,275,268,259,255,251,244,238,231,196,173,154,136,105,96],"timestamp_mouse":[20,40,48,69,89,110,128,148,168,188,209,228,250,268,288,308,330,348,369,388,410,429,449,470,489,509,529,550,570,588,608,628,649,669,688,709,728,749,769,789,808,829,849,868,890,908,929,950,968,989,1008,1029,1048,1068,1088,1109,1128,1148,1168,1189,1208],"xSR":741.5,"ySR":469.95,"xT1":424.9,"yT1":0,"xT2":1058.1,"yT2":0,"toosoon":0,"cond_shown":"equaldotanddens","ratio_trial":250,"smaller_num":"3","larger_num":"12","correct_side":1,"subjID":"Samuelricolopez10","gender":"0","age":"8","school":"4"},{"start_time":1552328244850,"click_time":1552328246119,"finger_time":1552328245698,"fix_duration":250,"trial":51,"RT":848,"MT":421,"sideResp":2,"stimulus":"img/250/equaldotanddens/R/8_Ratio_250_L_1_R_4.png","xmouse":[820,820,820,820,820,820,820,820,820,820,820,820,820,820,820,820,820,820,820,820,820,820,820,820,820,820,820,820,820,820,820,820,820,820,820,820,820,820,823,824,825,827,833,835,850,863,877,893,907,930,939,946,956,970,976,984,993,1002,1023,1034,1044,1051,1058,1065],"ymouse":[537,537,537,537,537,537,537,537,537,537,537,537,537,537,537,537,537,537,537,537,537,537,537,537,537,537,537,537,537,537,537,537,537,536,525,518,512,506,492,486,481,474,463,456,432,415,396,375,351,296,274,259,238,210,196,179,162,147,116,104,97,91,88,86],"timestamp_mouse":[10,32,48,67,87,107,128,148,169,188,208,229,247,268,287,308,327,348,368,388,407,428,449,468,487,508,528,547,568,588,608,628,648,667,687,708,728,747,768,788,808,827,848,868,887,907,928,948,968,987,1008,1027,1047,1069,1087,1107,1128,1149,1169,1187,1209,1229,1247,1269],"xSR":741.5,"ySR":469.95,"xT1":424.9,"yT1":0,"xT2":1058.1,"yT2":0,"toosoon":0,"cond_shown":"equaldotanddens","ratio_trial":250,"smaller_num":"1","larger_num":"4","correct_side":2,"subjID":"Samuelricolopez10","gender":"0","age":"8","school":"4"},{"start_time":1552328247694,"click_time":1552328249378,"finger_time":1552328248437,"fix_duration":695.0922693228639,"trial":52,"RT":743,"MT":941,"sideResp":1,"stimulus":"img/900/equaldotsize/L/2_Ratio_900_L_20_R_18.png","xmouse":[797,797,797,797,797,797,797,797,797,797,797,797,797,797,797,796,796,795,795,795,795,795,795,795,795,795,795,795,795,795,795,795,795,794,794,794,792,789,785,784,779,777,775,775,775,775,775,775,775,775,775,775,775,775,775,775,775,775,775,775,775,775,775,775,775,775,778,789,795,796,796,796,788,784,777,767,754,720,691,676,654,631,573,538,510],"ymouse":[519,519,519,519,519,519,519,519,519,519,519,519,519,519,519,520,520,521,521,521,521,521,521,521,521,521,521,521,521,521,521,521,521,516,511,505,496,467,439,428,396,379,366,365,365,365,365,365,365,365,365,365,365,365,365,365,365,365,365,365,365,365,365,365,363,356,332,254,207,186,170,159,139,134,127,119,112,97,90,86,84,79,65,56,48],"timestamp_mouse":[13,23,43,63,85,104,123,144,165,184,204,223,243,264,284,303,324,344,364,383,403,423,444,464,485,504,524,545,565,584,605,623,643,663,685,704,724,743,763,783,803,823,843,865,884,903,923,944,964,983,1003,1023,1044,1063,1083,1103,1123,1144,1164,1184,1204,1223,1243,1263,1283,1304,1323,1343,1363,1383,1404,1425,1443,1463,1484,1504,1524,1544,1564,1583,1603,1623,1643,1665,1684],"xSR":741.5,"ySR":469.95,"xT1":424.9,"yT1":0,"xT2":1058.1,"yT2":0,"toosoon":0,"cond_shown":"equaldotsize","ratio_trial":900,"smaller_num":"18","larger_num":"20","correct_side":1,"subjID":"Samuelricolopez10","gender":"0","age":"8","school":"4"},{"start_time":1552328253055,"click_time":1552328256338,"finger_time":1552328255437,"fix_duration":1395.6773508824597,"trial":53,"RT":2382,"MT":901,"sideResp":2,"stimulus":"img/250/equaldotsize/R/6_Ratio_250_L_6_R_24.png","xmouse":[781,781,781,781,781,781,781,781,781,781,781,781,781,781,781,781,781,781,781,781,781,781,781,781,781,781,781,781,781,781,781,781,781,781,781,781,781,781,781,781,781,781,781,781,781,781,781,781,781,781,781,781,781,781,781,781,781,781,781,781,781,781,781,781,781,781,781,781,781,781,781,781,781,781,781,781,781,781,781,781,781,781,781,781,781,781,781,781,781,781,781,781,781,781,781,781,781,781,781,781,781,781,781,781,781,781,781,781,781,781,781,781,781,781,781,781,781,781,770,744,674,655,648,648,648,648,648,648,648,648,648,648,648,648,648,648,648,648,645,639,638,639,649,663,687,780,824,829,834,835,836,837,837,837,837,841,849,868,887,901,975,1005,1030,1052,1068],"ymouse":[543,543,543,543,543,543,543,543,543,543,543,543,543,543,543,543,543,543,543,543,543,543,543,543,543,543,543,543,543,543,543,543,543,543,543,543,543,543,543,543,543,543,543,543,543,543,543,543,543,543,543,543,543,543,543,543,543,543,543,543,543,543,543,543,543,543,543,543,543,543,543,543,543,543,543,543,543,543,543,543,543,543,543,543,543,543,543,543,543,543,543,543,543,543,543,543,543,543,543,543,543,543,543,543,543,543,543,543,543,543,543,543,543,543,543,543,542,538,497,420,233,166,141,139,139,139,139,139,139,139,139,139,139,139,139,139,139,133,77,40,37,37,45,59,73,100,107,107,106,106,105,105,105,105,105,105,105,102,96,92,71,62,52,43,35],"timestamp_mouse":[9,23,42,63,84,102,122,143,162,183,202,223,243,262,282,302,323,342,362,383,403,423,443,463,483,504,523,543,562,582,602,624,642,662,682,704,722,743,762,784,803,822,843,862,883,903,924,943,962,982,1003,1022,1044,1063,1082,1103,1124,1144,1163,1183,1203,1222,1242,1263,1283,1303,1323,1343,1364,1384,1403,1422,1444,1463,1484,1503,1523,1543,1563,1584,1603,1623,1642,1663,1682,1704,1723,1743,1762,1783,1802,1824,1842,1862,1882,1903,1923,1944,1963,1984,2002,2022,2043,2063,2082,2104,2123,2142,2163,2183,2204,2222,2243,2264,2282,2303,2322,2343,2363,2382,2402,2422,2442,2462,2484,2503,2522,2542,2562,2583,2603,2624,2642,2662,2682,2702,2722,2742,2763,2782,2803,2823,2843,2862,2883,2902,2924,2943,2963,2983,3002,3023,3043,3062,3083,3102,3123,3143,3164,3182,3202,3222,3242,3262,3283],"xSR":741.5,"ySR":469.95,"xT1":424.9,"yT1":0,"xT2":1058.1,"yT2":0,"toosoon":0,"cond_shown":"equaldotsize","ratio_trial":250,"smaller_num":"6","larger_num":"24","correct_side":2,"subjID":"Samuelricolopez10","gender":"0","age":"8","school":"4"},{"start_time":1552328257649,"click_time":1552328258958,"finger_time":1552328258437,"fix_duration":250,"trial":54,"RT":788,"MT":521,"sideResp":2,"stimulus":"img/250/equaldotsize/R/13_Ratio_250_L_2_R_8.png","xmouse":[790,786,781,778,776,776,776,776,776,776,776,776,776,775,775,775,775,775,775,775,775,775,775,775,775,775,775,775,775,775,775,775,775,775,775,775,775,775,775,781,791,807,823,830,837,874,893,908,919,938,946,956,965,974,989,998,1002,1008,1015,1031,1041,1047,1051,1056,1061],"ymouse":[551,554,559,563,565,565,565,565,565,565,565,565,565,565,564,562,560,556,552,548,548,548,548,548,548,547,547,547,547,547,547,547,547,546,539,528,515,499,469,414,392,368,351,344,337,288,254,219,199,159,139,121,107,99,90,88,86,86,84,79,76,75,75,74,73],"timestamp_mouse":[30,50,70,89,108,129,150,169,188,208,229,248,268,288,308,328,349,368,388,408,429,450,471,488,510,530,548,569,588,610,630,648,668,688,708,730,749,769,788,808,828,849,869,888,908,929,948,968,988,1009,1028,1048,1068,1088,1108,1129,1148,1169,1188,1208,1228,1250,1268,1288,1309],"xSR":741.5,"ySR":469.95,"xT1":424.9,"yT1":0,"xT2":1058.1,"yT2":0,"toosoon":0,"cond_shown":"equaldotsize","ratio_trial":250,"smaller_num":"2","larger_num":"8","correct_side":2,"subjID":"Samuelricolopez10","gender":"0","age":"8","school":"4"},{"start_time":1552328261299,"click_time":1552328262398,"finger_time":1552328261998,"fix_duration":1259.3638687438356,"trial":55,"RT":699,"MT":400,"sideResp":1,"stimulus":"img/250/equaldotsize/L/7_Ratio_250_L_8_R_2.png","xmouse":[779,779,779,779,779,779,779,779,779,779,779,779,779,779,779,779,779,779,779,779,779,779,779,779,779,779,779,779,779,779,779,779,780,782,788,793,795,795,788,750,730,711,685,670,653,650,646,641,620,603,586,568,546,534,525,521],"y