[{"start_time":1552327251604,"click_time":1552327252520,"finger_time":1552327252237,"fix_duration":721.2267972085623,"trial":0,"RT":633,"MT":283,"sideResp":2,"stimulus":[],"xmouse":[803,803,803,803,802,801,801,800,800,800,799,799,799,799,799,799,798,798,798,798,798,798,798,798,798,798,798,798,797,799,800,837,887,947,1021,1042,1063,1066,1066,1066,1066,1066,1066,1068,1070,1072],"ymouse":[490,490,490,490,490,491,491,491,491,491,492,492,492,492,492,492,492,492,492,492,492,492,492,492,492,492,492,492,492,487,484,430,359,282,190,167,141,136,136,136,136,136,134,128,113,98],"timestamp_mouse":[13,35,53,73,95,114,134,154,173,194,213,234,255,273,295,315,334,353,373,395,415,434,455,473,495,513,534,554,575,593,614,633,654,673,693,713,734,753,773,793,814,833,853,874,893,914],"xSR":741.5,"ySR":469.95,"xT1":424.9,"yT1":0,"xT2":1058.1,"yT2":0,"toosoon":0,"cond_shown":"Incongruent","ratio_trial":200,"L_num":7,"L_den":10,"R_num":14,"R_den":28,"correct_side":1,"subjID":"samuelricolopez10","gender":"0","age":"8","school":"4","test":{"fix_dur":[250,1500],"timestim":1000,"targets_dim":[100,100],"targets_relative_coord":[0.3,0.7],"size_stim":[880,420],"start_dim":[100,100],"size_start":[300,300],"size_fix":60,"samplingrate":20,"img_types":["Congruent","Incongruent"],"ratios":[100,200,300],"rep_conds":19,"nTrials":120,"trials_to_rest":500,"Trials_order":[27,50,101,89,71,15,119,31,87,30,111,37,2,110,51,116,95,78,63,81,86,90,7,69,25,115,85,79,82,18,109,46,97,93,106,21,105,107,34,9,17,112,55,26,29,102,98,75,94,58,11,77,28,91,4,40,47,80,54,104,92,76,88,13,52,43,67,10,56,62,61,8,45,33,113,36,39,1,48,99,108,44,41,23,114,100,22,24,20,35,64,103,73,49,5,118,83,0,66,74,16,70,59,72,53,32,60,6,14,84,12,57,38,65,117,19,68,3,42,96],"cond_shown":["Incongruent","Congruent","Incongruent","Incongruent","Incongruent","Incongruent","Incongruent","Incongruent","Incongruent","Congruent","Incongruent","Incongruent","Congruent","Congruent","Incongruent","Congruent","Incongruent","Congruent","Incongruent","Incongruent","Congruent","Congruent","Incongruent","Incongruent","Incongruent","Incongruent","Incongruent","Incongruent","Congruent","Congruent","Incongruent","Congruent","Incongruent","Incongruent","Congruent","Incongruent","Incongruent","Incongruent","Congruent","Incongruent","Incongruent","Congruent","Incongruent","Congruent","Incongruent","Congruent","Congruent","Incongruent","Congruent","Congruent","Incongruent","Incongruent","Congruent","Incongruent","Congruent","Congruent","Incongruent","Congruent","Congruent","Congruent","Congruent","Congruent","Congruent","Incongruent","Congruent","Incongruent","Incongruent","Congruent","Congruent","Congruent","Incongruent","Congruent","Incongruent","Incongruent","Incongruent","Congruent","Incongruent","Incongruent","Congruent","Incongruent","Congruent","Congruent","Incongruent","Incongruent","Congruent","Congruent","Congruent","Congruent","Congruent","Incongruent","Congruent","Incongruent","Incongruent","Incongruent","Incongruent","Congruent","Incongruent","Congruent","Congruent","Congruent","Congruent","Congruent","Incongruent","Congruent","Incongruent","Congruent","Congruent","Congruent","Congruent","Congruent","Congruent","Incongruent","Congruent","Incongruent","Incongruent","Incongruent","Congruent","Incongruent","Congruent","Congruent"],"ratio_trial":[200,200,300,300,300,200,300,100,200,100,200,100,200,200,200,200,300,100,200,200,200,100,100,200,100,100,100,100,300,100,100,300,100,200,300,200,200,300,300,200,300,300,100,200,300,100,200,200,300,300,300,300,300,100,300,300,300,200,100,200,200,300,300,100,300,100,100,300,200,200,100,200,200,200,300,100,200,100,100,200,100,200,300,300,100,300,300,100,200,300,300,100,100,100,300,300,300,100,100,200,300,300,300,100,300,200,100,100,200,100,100,200,200,300,200,100,200,200,100,100],"left_num":[7,13,4,8,4,7,13,10,14,6,7,6,13,6,7,12,8,1,14,4,16,11,3,6,4,9,11,2,2,1,12,1,9,14,20,14,3,4,2,7,4,1,3,8,13,15,8,7,4,1,1,1,5,12,8,24,4,3,15,13,3,1,3,10,1,9,6,1,6,15,10,3,7,4,2,11,4,13,15,4,12,15,1,3,15,1,4,6,3,8,20,12,13,17,4,4,3,9,4,8,20,3,2,3,8,8,4,4,3,1,6,14,1,4,7,3,1,1,11,15],"right_num":[14,14,2,14,2,12,12,8,12,15,6,11,14,11,14,6,14,3,6,14,9,4,7,3,8,13,9,8,10,18,9,3,6,6,14,6,11,2,10,14,2,19,4,3,12,13,3,6,1,19,3,2,7,9,10,8,2,14,13,14,11,7,11,9,11,6,11,6,7,4,8,7,4,1,6,6,6,12,13,6,13,4,3,4,13,8,1,5,9,14,9,2,12,10,2,1,4,8,6,3,14,4,6,2,9,3,6,6,11,18,5,12,21,2,12,4,21,3,4,13],"left_den":[10,26,20,10,20,10,26,25,30,12,15,10,26,20,10,20,10,2,30,6,30,22,9,20,8,15,22,4,20,2,24,5,18,30,25,30,4,20,20,10,20,3,6,15,26,25,15,15,10,3,2,2,25,24,15,30,20,6,25,26,10,20,12,25,5,18,10,5,12,25,25,10,15,30,4,22,5,26,25,5,30,25,2,6,25,30,10,20,12,10,25,30,26,30,20,10,6,15,8,15,25,6,4,6,10,15,8,8,10,2,20,30,2,20,10,6,2,2,22,25],"right_den":[28,20,4,28,4,24,15,16,18,25,9,22,20,22,28,15,28,5,9,30,27,10,30,6,20,26,15,20,25,30,15,6,10,9,28,9,20,4,25,28,4,30,10,9,15,26,9,9,10,30,15,10,14,15,12,16,4,20,26,20,22,20,20,18,22,10,22,12,10,10,16,14,6,3,30,15,10,20,26,10,26,10,15,20,26,24,10,25,20,28,18,4,20,15,4,10,20,16,10,9,28,5,30,5,18,9,10,10,22,30,25,18,30,4,24,10,30,10,10,26],"correct_side":[1,2,2,1,2,1,2,2,2,2,2,1,2,2,1,1,1,2,2,1,1,1,1,2,1,1,2,1,2,2,2,2,2,2,1,2,1,2,2,1,2,2,1,1,2,1,1,2,1,2,1,1,2,2,2,1,2,2,1,2,2,2,2,2,2,2,1,2,2,1,2,2,2,2,1,1,1,2,1,1,2,1,1,1,1,2,1,1,2,1,1,2,2,2,2,1,1,1,2,1,1,2,1,1,1,1,2,2,2,2,1,2,2,2,1,1,2,1,1,1],"img_shown":["img2/200/Incongruent/L/I_Dist_200_LN_7_LD_10_RN_14_RD_28_0.png","img2/200/Congruent/R/C_Dist_200_LN_13_LD_26_RN_14_RD_20_1.png","img2/300/Incongruent/R/I_Dist_300_LN_4_LD_20_RN_2_RD_4_1.png","img2/300/Incongruent/L/I_Dist_300_LN_8_LD_10_RN_14_RD_28_0.png","img2/300/Incongruent/R/I_Dist_300_LN_4_LD_20_RN_2_RD_4_1.png","img2/200/Incongruent/L/I_Dist_200_LN_7_LD_10_RN_12_RD_24_0.png","img2/300/Incongruent/R/I_Dist_300_LN_13_LD_26_RN_12_RD_15_1.png","img2/100/Incongruent/R/I_Dist_100_LN_10_LD_25_RN_8_RD_16_1.png","img2/200/Incongruent/R/I_Dist_200_LN_14_LD_30_RN_12_RD_18_1.png","img2/100/Congruent/R/C_Dist_100_LN_6_LD_12_RN_15_RD_25_1.png","img2/200/Incongruent/R/I_Dist_200_LN_7_LD_15_RN_6_RD_9_1.png","img2/100/Incongruent/L/I_Dist_100_LN_6_LD_10_RN_11_RD_22_0.png","img2/200/Congruent/R/C_Dist_200_LN_13_LD_26_RN_14_RD_20_1.png","img2/200/Congruent/R/C_Dist_200_LN_6_LD_20_RN_11_RD_22_1.png","img2/200/Incongruent/L/I_Dist_200_LN_7_LD_10_RN_14_RD_28_0.png","img2/200/Congruent/L/C_Dist_200_LN_12_LD_20_RN_6_RD_15_0.png","img2/300/Incongruent/L/I_Dist_300_LN_8_LD_10_RN_14_RD_28_0.png","img2/100/Congruent/R/C_Dist_100_LN_1_LD_2_RN_3_RD_5_1.png","img2/200/Incongruent/R/I_Dist_200_LN_14_LD_30_RN_6_RD_9_1.png","img2/200/Incongruent/L/I_Dist_200_LN_4_LD_6_RN_14_RD_30_0.png","img2/200/Congruent/L/C_Dist_200_LN_16_LD_30_RN_9_RD_27_0.png","img2/100/Congruent/L/C_Dist_100_LN_11_LD_22_RN_4_RD_10_0.png","img2/100/Incongruent/L/I_Dist_100_LN_3_LD_9_RN_7_RD_30_0.png","img2/200/Incongruent/R/I_Dist_200_LN_6_LD_20_RN_3_RD_6_1.png","img2/100/Incongruent/L/I_Dist_100_LN_4_LD_8_RN_8_RD_20_0.png","img2/100/Incongruent/L/I_Dist_100_LN_9_LD_15_RN_13_RD_26_0.png","img2/100/Incongruent/R/I_Dist_100_LN_11_LD_22_RN_9_RD_15_1.png","img2/100/Incongruent/L/I_Dist_100_LN_2_LD_4_RN_8_RD_20_0.png","img2/300/Congruent/R/C_Dist_300_LN_2_LD_20_RN_10_RD_25_1.png","img2/100/Congruent/R/C_Dist_100_LN_1_LD_2_RN_18_RD_30_1.png","img2/100/Incongruent/R/I_Dist_100_LN_12_LD_24_RN_9_RD_15_1.png","img2/300/Congruent/R/C_Dist_300_LN_1_LD_5_RN_3_RD_6_1.png","img2/100/Incongruent/R/I_Dist_100_LN_9_LD_18_RN_6_RD_10_1.png","img2/200/Incongruent/R/I_Dist_200_LN_14_LD_30_RN_6_RD_9_1.png","img2/300/Congruent/L/C_Dist_300_LN_20_LD_25_RN_14_RD_28_0.png","img2/200/Incongruent/R/I_Dist_200_LN_14_LD_30_RN_6_RD_9_1.png","img2/200/Incongruent/L/I_Dist_200_LN_3_LD_4_RN_11_RD_20_0.png","img2/300/Incongruent/R/I_Dist_300_LN_4_LD_20_RN_2_RD_4_1.png","img2/300/Congruent/R/C_Dist_300_LN_2_LD_20_RN_10_RD_25_1.png","img2/200/Incongruent/L/I_Dist_200_LN_7_LD_10_RN_14_RD_28_0.png","img2/300/Incongruent/R/I_Dist_300_LN_4_LD_20_RN_2_RD_4_1.png","img2/300/Congruent/R/C_Dist_300_LN_1_LD_3_RN_19_RD_30_1.png","img2/100/Incongruent/L/I_Dist_100_LN_3_LD_6_RN_4_RD_10_0.png","img2/200/Congruent/L/C_Dist_200_LN_8_LD_15_RN_3_RD_9_0.png","img2/300/Incongruent/R/I_Dist_300_LN_13_LD_26_RN_12_RD_15_1.png","img2/100/Congruent/L/C_Dist_100_LN_15_LD_25_RN_13_RD_26_0.png","img2/200/Congruent/L/C_Dist_200_LN_8_LD_15_RN_3_RD_9_0.png","img2/200/Incongruent/R/I_Dist_200_LN_7_LD_15_RN_6_RD_9_1.png","img2/300/Congruent/L/C_Dist_300_LN_4_LD_10_RN_1_RD_10_0.png","img2/300/Congruent/R/C_Dist_300_LN_1_LD_3_RN_19_RD_30_1.png","img2/300/Incongruent/L/I_Dist_300_LN_1_LD_2_RN_3_RD_15_0.png","img2/300/Incongruent/L/I_Dist_300_LN_1_LD_2_RN_2_RD_10_0.png","img2/300/Congruent/R/C_Dist_300_LN_5_LD_25_RN_7_RD_14_1.png","img2/100/Incongruent/R/I_Dist_100_LN_12_LD_24_RN_9_RD_15_1.png","img2/300/Congruent/R/C_Dist_300_LN_8_LD_15_RN_10_RD_12_1.png","img2/300/Congruent/L/C_Dist_300_LN_24_LD_30_RN_8_RD_16_0.png","img2/300/Incongruent/R/I_Dist_300_LN_4_LD_20_RN_2_RD_4_1.png","img2/200/Congruent/R/C_Dist_200_LN_3_LD_6_RN_14_RD_20_1.png","img2/100/Congruent/L/C_Dist_100_LN_15_LD_25_RN_13_RD_26_0.png","img2/200/Congruent/R/C_Dist_200_LN_13_LD_26_RN_14_RD_20_1.png","img2/200/Congruent/R/C_Dist_200_LN_3_LD_10_RN_11_RD_22_1.png","img2/300/Congruent/R/C_Dist_300_LN_1_LD_20_RN_7_RD_20_1.png","img2/300/Congruent/R/C_Dist_300_LN_3_LD_12_RN_11_RD_20_1.png","img2/100/Incongruent/R/I_Dist_100_LN_10_LD_25_RN_9_RD_18_1.png","img2/300/Congruent/R/C_Dist_300_LN_1_LD_5_RN_11_RD_22_1.png","img2/100/Incongruent/R/I_Dist_100_LN_9_LD_18_RN_6_RD_10_1.png","img2/100/Incongruent/L/I_Dist_100_LN_6_LD_10_RN_11_RD_22_0.png","img2/300/Congruent/R/C_Dist_300_LN_1_LD_5_RN_6_RD_12_1.png","img2/200/Congruent/R/C_Dist_200_LN_6_LD_12_RN_7_RD_10_1.png","img2/200/Congruent/L/C_Dist_200_LN_15_LD_25_RN_4_RD_10_0.png","img2/100/Incongruent/R/I_Dist_100_LN_10_LD_25_RN_8_RD_16_1.png","img2/200/Congruent/R/C_Dist_200_LN_3_LD_10_RN_7_RD_14_1.png","img2/200/Incongruent/R/I_Dist_200_LN_7_LD_15_RN_4_RD_6_1.png","img2/200/Incongruent/R/I_Dist_200_LN_4_LD_30_RN_1_RD_3_1.png","img2/300/Incongruent/L/I_Dist_300_LN_2_LD_4_RN_6_RD_30_0.png","img2/100/Congruent/L/C_Dist_100_LN_11_LD_22_RN_6_RD_15_0.png","img2/200/Incongruent/L/I_Dist_200_LN_4_LD_5_RN_6_RD_10_0.png","img2/100/Incongruent/R/I_Dist_100_LN_13_LD_26_RN_12_RD_20_1.png","img2/100/Congruent/L/C_Dist_100_LN_15_LD_25_RN_13_RD_26_0.png","img2/200/Incongruent/L/I_Dist_200_LN_4_LD_5_RN_6_RD_10_0.png","img2/100/Congruent/R/C_Dist_100_LN_12_LD_30_RN_13_RD_26_1.png","img2/200/Congruent/L/C_Dist_200_LN_15_LD_25_RN_4_RD_10_0.png","img2/300/Incongruent/L/I_Dist_300_LN_1_LD_2_RN_3_RD_15_0.png","img2/300/Incongruent/L/I_Dist_300_LN_3_LD_6_RN_4_RD_20_0.png","img2/100/Congruent/L/C_Dist_100_LN_15_LD_25_RN_13_RD_26_0.png","img2/300/Congruent/R/C_Dist_300_LN_1_LD_30_RN_8_RD_24_1.png","img2/300/Congruent/L/C_Dist_300_LN_4_LD_10_RN_1_RD_10_0.png","img2/100/Congruent/L/C_Dist_100_LN_6_LD_20_RN_5_RD_25_0.png","img2/200/Congruent/R/C_Dist_200_LN_3_LD_12_RN_9_RD_20_1.png","img2/300/Incongruent/L/I_Dist_300_LN_8_LD_10_RN_14_RD_28_0.png","img2/300/Congruent/L/C_Dist_300_LN_20_LD_25_RN_9_RD_18_0.png","img2/100/Incongruent/R/I_Dist_100_LN_12_LD_30_RN_2_RD_4_1.png","img2/100/Incongruent/R/I_Dist_100_LN_13_LD_26_RN_12_RD_20_1.png","img2/100/Incongruent/R/I_Dist_100_LN_17_LD_30_RN_10_RD_15_1.png","img2/300/Incongruent/R/I_Dist_300_LN_4_LD_20_RN_2_RD_4_1.png","img2/300/Congruent/L/C_Dist_300_LN_4_LD_10_RN_1_RD_10_0.png","img2/300/Incongruent/L/I_Dist_300_LN_3_LD_6_RN_4_RD_20_0.png","img2/100/Congruent/L/C_Dist_100_LN_9_LD_15_RN_8_RD_16_0.png","img2/100/Congruent/R/C_Dist_100_LN_4_LD_8_RN_6_RD_10_1.png","img2/200/Congruent/L/C_Dist_200_LN_8_LD_15_RN_3_RD_9_0.png","img2/300/Congruent/L/C_Dist_300_LN_20_LD_25_RN_14_RD_28_0.png","img2/300/Congruent/R/C_Dist_300_LN_3_LD_6_RN_4_RD_5_1.png","img2/300/Incongruent/L/I_Dist_300_LN_2_LD_4_RN_6_RD_30_0.png","img2/100/Congruent/L/C_Dist_100_LN_3_LD_6_RN_2_RD_5_0.png","img2/300/Incongruent/L/I_Dist_300_LN_8_LD_10_RN_9_RD_18_0.png","img2/200/Congruent/L/C_Dist_200_LN_8_LD_15_RN_3_RD_9_0.png","img2/100/Congruent/R/C_Dist_100_LN_4_LD_8_RN_6_RD_10_1.png","img2/100/Congruent/R/C_Dist_100_LN_4_LD_8_RN_6_RD_10_1.png","img2/200/Congruent/R/C_Dist_200_LN_3_LD_10_RN_11_RD_22_1.png","img2/100/Congruent/R/C_Dist_100_LN_1_LD_2_RN_18_RD_30_1.png","img2/100/Congruent/L/C_Dist_100_LN_6_LD_20_RN_5_RD_25_0.png","img2/200/Incongruent/R/I_Dist_200_LN_14_LD_30_RN_12_RD_18_1.png","img2/200/Congruent/R/C_Dist_200_LN_1_LD_2_RN_21_RD_30_1.png","img2/300/Incongruent/R/I_Dist_300_LN_4_LD_20_RN_2_RD_4_1.png","img2/200/Incongruent/L/I_Dist_200_LN_7_LD_10_RN_12_RD_24_0.png","img2/100/Incongruent/L/I_Dist_100_LN_3_LD_6_RN_4_RD_10_0.png","img2/200/Congruent/R/C_Dist_200_LN_1_LD_2_RN_21_RD_30_1.png","img2/200/Incongruent/L/I_Dist_200_LN_1_LD_2_RN_3_RD_10_0.png","img2/100/Congruent/L/C_Dist_100_LN_11_LD_22_RN_4_RD_10_0.png","img2/100/Congruent/L/C_Dist_100_LN_15_LD_25_RN_13_RD_26_0.png"],"dist100_C":[["C_Dist_100_LN_10_LD_25_RN_3_RD_10_0.png","C_Dist_100_LN_11_LD_22_RN_4_RD_10_0.png","C_Dist_100_LN_11_LD_22_RN_6_RD_15_0.png","C_Dist_100_LN_15_LD_25_RN_13_RD_26_0.png","C_Dist_100_LN_3_LD_6_RN_2_RD_5_0.png","C_Dist_100_LN_6_LD_20_RN_5_RD_25_0.png","C_Dist_100_LN_8_LD_16_RN_2_RD_5_0.png","C_Dist_100_LN_9_LD_15_RN_8_RD_16_0.png"],["C_Dist_100_LN_1_LD_2_RN_18_RD_30_1.png","C_Dist_100_LN_1_LD_2_RN_3_RD_5_1.png","C_Dist_100_LN_12_LD_30_RN_13_RD_26_1.png","C_Dist_100_LN_2_LD_5_RN_11_RD_22_1.png","C_Dist_100_LN_2_LD_5_RN_6_RD_12_1.png","C_Dist_100_LN_3_LD_20_RN_4_RD_16_1.png","C_Dist_100_LN_4_LD_10_RN_15_RD_30_1.png","C_Dist_100_LN_4_LD_8_RN_6_RD_10_1.png","C_Dist_100_LN_6_LD_12_RN_15_RD_25_1.png","C_Dist_100_LN_7_LD_14_RN_15_RD_25_1.png","C_Dist_100_LN_7_LD_14_RN_9_RD_15_1.png"]],"dist100_I":[["I_Dist_100_LN_1_LD_2_RN_8_RD_20_0.png","I_Dist_100_LN_2_LD_4_RN_6_RD_15_0.png","I_Dist_100_LN_2_LD_4_RN_8_RD_20_0.png","I_Dist_100_LN_3_LD_5_RN_11_RD_22_0.png","I_Dist_100_LN_3_LD_5_RN_8_RD_16_0.png","I_Dist_100_LN_3_LD_6_RN_4_RD_10_0.png","I_Dist_100_LN_3_LD_9_RN_7_RD_30_0.png","I_Dist_100_LN_4_LD_8_RN_8_RD_20_0.png","I_Dist_100_LN_6_LD_10_RN_11_RD_22_0.png","I_Dist_100_LN_6_LD_10_RN_13_RD_26_0.png","I_Dist_100_LN_6_LD_10_RN_7_RD_14_0.png","I_Dist_100_LN_9_LD_10_RN_20_RD_25_0.png","I_Dist_100_LN_9_LD_15_RN_13_RD_26_0.png","I_Dist_100_LN_9_LD_15_RN_14_RD_28_0.png"],["I_Dist_100_LN_10_LD_25_RN_8_RD_16_1.png","I_Dist_100_LN_10_LD_25_RN_9_RD_18_1.png","I_Dist_100_LN_11_LD_22_RN_9_RD_15_1.png","I_Dist_100_LN_12_LD_24_RN_9_RD_15_1.png","I_Dist_100_LN_12_LD_30_RN_2_RD_4_1.png","I_Dist_100_LN_13_LD_26_RN_12_RD_20_1.png","I_Dist_100_LN_13_LD_26_RN_6_RD_10_1.png","I_Dist_100_LN_17_LD_30_RN_10_RD_15_1.png","I_Dist_100_LN_6_LD_12_RN_3_RD_5_1.png","I_Dist_100_LN_8_LD_16_RN_6_RD_10_1.png","I_Dist_100_LN_8_LD_20_RN_1_RD_2_1.png","I_Dist_100_LN_9_LD_18_RN_6_RD_10_1.png"]],"dist100_S":[["E_Dist_100_LN_2_LD_12_RN_2_RD_30_0.png","E_Dist_100_LN_6_LD_10_RN_6_RD_12_0.png"],["E_Dist_100_LN_6_LD_12_RN_6_RD_10_1.png"]],"dist200_C":[["C_Dist_200_LN_11_LD_22_RN_3_RD_10_0.png","C_Dist_200_LN_12_LD_15_RN_6_RD_10_0.png","C_Dist_200_LN_12_LD_20_RN_6_RD_15_0.png","C_Dist_200_LN_14_LD_28_RN_6_RD_20_0.png","C_Dist_200_LN_15_LD_25_RN_4_RD_10_0.png","C_Dist_200_LN_16_LD_20_RN_12_RD_20_0.png","C_Dist_200_LN_16_LD_30_RN_9_RD_27_0.png","C_Dist_200_LN_20_LD_25_RN_9_RD_15_0.png","C_Dist_200_LN_21_LD_30_RN_2_RD_4_0.png","C_Dist_200_LN_4_LD_10_RN_3_RD_15_0.png","C_Dist_200_LN_4_LD_8_RN_3_RD_10_0.png","C_Dist_200_LN_6_LD_15_RN_3_RD_15_0.png","C_Dist_200_LN_7_LD_21_RN_2_RD_15_0.png","C_Dist_200_LN_8_LD_15_RN_2_RD_6_0.png","C_Dist_200_LN_8_LD_15_RN_3_RD_9_0.png","C_Dist_200_LN_8_LD_15_RN_7_RD_21_0.png","C_Dist_200_LN_9_LD_20_RN_4_RD_16_0.png"],["C_Dist_200_LN_1_LD_2_RN_21_RD_30_1.png","C_Dist_200_LN_13_LD_26_RN_14_RD_20_1.png","C_Dist_200_LN_3_LD_10_RN_11_RD_22_1.png","C_Dist_200_LN_3_LD_10_RN_14_RD_28_1.png","C_Dist_200_LN_3_LD_10_RN_7_RD_14_1.png","C_Dist_200_LN_3_LD_12_RN_9_RD_20_1.png","C_Dist_200_LN_3_LD_6_RN_14_RD_20_1.png","C_Dist_200_LN_5_LD_10_RN_14_RD_20_1.png","C_Dist_200_LN_6_LD_12_RN_7_RD_10_1.png","C_Dist_200_LN_6_LD_20_RN_11_RD_22_1.png","C_Dist_200_LN_7_LD_15_RN_18_RD_27_1.png","C_Dist_200_LN_9_LD_30_RN_13_RD_26_1.png"]],"dist200_I":[["I_Dist_200_LN_1_LD_2_RN_3_RD_10_0.png","I_Dist_200_LN_1_LD_3_RN_2_RD_15_0.png","I_Dist_200_LN_3_LD_4_RN_11_RD_20_0.png","I_Dist_200_LN_4_LD_5_RN_6_RD_10_0.png","I_Dist_200_LN_4_LD_6_RN_14_RD_30_0.png","I_Dist_200_LN_7_LD_10_RN_12_RD_24_0.png","I_Dist_200_LN_7_LD_10_RN_14_RD_28_0.png","I_Dist_200_LN_7_LD_10_RN_8_RD_16_0.png"],["I_Dist_200_LN_11_LD_20_RN_3_RD_4_1.png","I_Dist_200_LN_14_LD_30_RN_12_RD_18_1.png","I_Dist_200_LN_14_LD_30_RN_6_RD_9_1.png","I_Dist_200_LN_3_LD_10_RN_1_RD_2_1.png","I_Dist_200_LN_4_LD_30_RN_1_RD_3_1.png","I_Dist_200_LN_6_LD_20_RN_3_RD_6_1.png","I_Dist_200_LN_7_LD_15_RN_4_RD_6_1.png","I_Dist_200_LN_7_LD_15_RN_6_RD_9_1.png","I_Dist_200_LN_9_LD_15_RN_8_RD_10_1.png"]],"dist200_S":[["E_Dist_200_LN_3_LD_6_RN_3_RD_10_0.png"],["E_Dist_200_LN_3_LD_10_RN_3_RD_6_1.png"]],"dist300_C":[["C_Dist_300_LN_11_LD_22_RN_1_RD_5_0.png","C_Dist_300_LN_11_LD_22_RN_2_RD_10_0.png","C_Dist_300_LN_11_LD_22_RN_4_RD_20_0.png","C_Dist_300_LN_12_LD_24_RN_2_RD_10_0.png","C_Dist_300_LN_18_LD_20_RN_9_RD_15_0.png","C_Dist_300_LN_20_LD_25_RN_13_RD_26_0.png","C_Dist_300_LN_20_LD_25_RN_14_RD_28_0.png","C_Dist_300_LN_20_LD_25_RN_5_RD_10_0.png","C_Dist_300_LN_20_LD_25_RN_8_RD_16_0.png","C_Dist_300_LN_20_LD_25_RN_9_RD_18_0.png","C_Dist_300_LN_24_LD_30_RN_2_RD_4_0.png","C_Dist_300_LN_24_LD_30_RN_8_RD_16_0.png","C_Dist_300_LN_3_LD_6_RN_2_RD_10_0.png","C_Dist_300_LN_4_LD_10_RN_1_RD_10_0.png","C_Dist_300_LN_4_LD_5_RN_2_RD_4_0.png","C_Dist_300_LN_8_LD_16_RN_1_RD_5_0.png","C_Dist_300_LN_9_LD_10_RN_3_RD_5_0.png"],["C_Dist_300_LN_1_LD_20_RN_7_RD_20_1.png","C_Dist_300_LN_1_LD_3_RN_19_RD_30_1.png","C_Dist_300_LN_1_LD_30_RN_8_RD_24_1.png","C_Dist_300_LN_1_LD_5_RN_11_RD_22_1.png","C_Dist_300_LN_1_LD_5_RN_3_RD_6_1.png","C_Dist_300_LN_1_LD_5_RN_6_RD_12_1.png","C_Dist_300_LN_2_LD_10_RN_12_RD_24_1.png","C_Dist_300_LN_2_LD_20_RN_10_RD_25_1.png","C_Dist_300_LN_3_LD_12_RN_11_RD_20_1.png","C_Dist_300_LN_3_LD_6_RN_4_RD_5_1.png","C_Dist_300_LN_4_LD_20_RN_13_RD_26_1.png","C_Dist_300_LN_5_LD_25_RN_6_RD_12_1.png","C_Dist_300_LN_5_LD_25_RN_7_RD_14_1.png","C_Dist_300_LN_7_LD_14_RN_20_RD_25_1.png","C_Dist_300_LN_8_LD_15_RN_10_RD_12_1.png"]],"dist300_I":[["I_Dist_300_LN_1_LD_2_RN_2_RD_10_0.png","I_Dist_300_LN_1_LD_2_RN_3_RD_15_0.png","I_Dist_300_LN_2_LD_4_RN_6_RD_30_0.png","I_Dist_300_LN_3_LD_6_RN_4_RD_20_0.png","I_Dist_300_LN_4_LD_5_RN_6_RD_12_0.png","I_Dist_300_LN_4_LD_5_RN_8_RD_16_0.png","I_Dist_300_LN_7_LD_10_RN_8_RD_20_0.png","I_Dist_300_LN_8_LD_10_RN_14_RD_28_0.png","I_Dist_300_LN_8_LD_10_RN_9_RD_18_0.png"],["I_Dist_300_LN_13_LD_26_RN_12_RD_15_1.png","I_Dist_300_LN_4_LD_20_RN_2_RD_4_1.png"]],"dist300_S":[["E_Dist_300_LN_9_LD_12_RN_9_RD_20_0.png"],["E_Dist_300_LN_18_LD_30_RN_18_RD_20_1.png","E_Dist_300_LN_3_LD_10_RN_3_RD_5_1.png","E_Dist_300_LN_9_LD_20_RN_9_RD_12_1.png"]],"dist500_C":[["C_Dist_500_LN_10_LD_13_RN_7_RD_26_0.png","C_Dist_500_LN_10_LD_15_RN_4_RD_24_0.png","C_Dist_500_LN_12_LD_16_RN_3_RD_12_0.png","C_Dist_500_LN_12_LD_18_RN_4_RD_24_0.png","C_Dist_500_LN_15_LD_18_RN_5_RD_15_0.png","C_Dist_500_LN_15_LD_20_RN_1_RD_4_0.png","C_Dist_500_LN_18_LD_27_RN_1_RD_6_0.png","C_Dist_500_LN_20_LD_24_RN_1_RD_3_0.png","C_Dist_500_LN_20_LD_24_RN_3_RD_9_0.png","C_Dist_500_LN_20_LD_24_RN_7_RD_21_0.png","C_Dist_500_LN_20_LD_28_RN_3_RD_14_0.png","C_Dist_500_LN_21_LD_28_RN_6_RD_24_0.png","C_Dist_500_LN_22_LD_28_RN_2_RD_7_0.png","C_Dist_500_LN_25_LD_30_RN_9_RD_27_0.png","C_Dist_500_LN_4_LD_6_RN_1_RD_6_0.png","C_Dist_500_LN_5_LD_6_RN_2_RD_6_0.png","C_Dist_500_LN_6_LD_9_RN_1_RD_6_0.png","C_Dist_500_LN_7_LD_10_RN_1_RD_5_0.png","C_Dist_500_LN_8_LD_12_RN_1_RD_6_0.png","C_Dist_500_LN_8_LD_12_RN_4_RD_24_0.png"],["C_Dist_500_LN_1_LD_4_RN_12_RD_16_1.png","C_Dist_500_LN_1_LD_4_RN_9_RD_12_1.png","C_Dist_500_LN_1_LD_9_RN_11_RD_18_1.png","C_Dist_500_LN_10_LD_24_RN_22_RD_24_1.png","C_Dist_500_LN_2_LD_12_RN_10_RD_15_1.png","C_Dist_500_LN_2_LD_12_RN_12_RD_18_1.png","C_Dist_500_LN_2_LD_12_RN_4_RD_6_1.png","C_Dist_500_LN_2_LD_24_RN_7_RD_12_1.png","C_Dist_500_LN_2_LD_5_RN_18_RD_20_1.png","C_Dist_500_LN_2_LD_5_RN_9_RD_10_1.png","C_Dist_500_LN_2_LD_8_RN_12_RD_16_1.png","C_Dist_500_LN_2_LD_8_RN_21_RD_28_1.png","C_Dist_500_LN_3_LD_10_RN_4_RD_5_1.png","C_Dist_500_LN_3_LD_12_RN_15_RD_20_1.png","C_Dist_500_LN_3_LD_30_RN_6_RD_10_1.png","C_Dist_500_LN_3_LD_8_RN_14_RD_16_1.png","C_Dist_500_LN_4_LD_16_RN_15_RD_20_1.png","C_Dist_500_LN_4_LD_24_RN_12_RD_18_1.png","C_Dist_500_LN_5_LD_14_RN_6_RD_7_1.png","C_Dist_500_LN_7_LD_21_RN_20_RD_24_1.png","C_Dist_500_LN_7_LD_28_RN_12_RD_16_1.png","C_Dist_500_LN_7_LD_28_RN_9_RD_12_1.png","C_Dist_500_LN_9_LD_27_RN_20_RD_24_1.png"]],"dist500_I":[["I_Dist_500_LN_2_LD_3_RN_4_RD_24_0.png","I_Dist_500_LN_5_LD_6_RN_6_RD_18_0.png","I_Dist_500_LN_7_LD_8_RN_9_RD_24_0.png"],["I_Dist_500_LN_7_LD_21_RN_5_RD_6_1.png"]],"dist500_S":[["E_Dist_500_LN_6_LD_8_RN_6_RD_24_0.png"],["E_Dist_500_LN_2_LD_12_RN_2_RD_3_1.png","E_Dist_500_LN_6_LD_24_RN_6_RD_8_1.png"]]}},{"start_time":1552327254020,"click_time":1552327256139,"finger_time":1552327255738,"fix_duration":340.77919796429944,"trial":1,"RT":1718,"MT":401,"sideResp":1,"stimulus":[],"xmouse":[787,787,787,787,787,787,787,787,784,782,779,779,779,779,779,779,779,779,779,779,779,779,779,779,779,779,779,779,779,779,779,779,779,779,779,779,779,779,779,779,779,779,779,779,779,779,779,779,779,779,779,779,779,779,780,781,781,781,781,782,782,782,782,782,782,782,782,782,782,782,782,782,782,782,782,782,782,782,782,782,782,782,782,782,778,744,723,709,703,699,696,691,688,684,680,665,655,642,629,616,593,580,568,551,527,468],"ymouse":[521,521,521,521,521,521,521,521,521,519,511,508,507,507,507,507,507,507,507,507,507,507,507,507,507,507,507,507,507,507,507,507,507,507,507,507,507,507,507,507,507,507,507,507,507,507,507,507,507,507,507,507,507,507,507,507,507,507,507,508,509,509,509,509,509,509,509,509,509,509,509,509,509,509,509,509,509,509,509,509,509,509,509,503,480,351,272,228,205,190,178,163,156,151,146,137,133,127,124,120,114,108,102,89,68,13],"timestamp_mouse":[18,44,58,79,98,119,139,158,179,199,218,239,259,278,298,318,339,358,378,398,419,437,457,478,498,518,539,558,578,598,619,637,658,679,698,717,738,758,779,798,818,838,859,877,897,917,937,959,979,998,1018,1039,1057,1078,1099,1118,1138,1157,1177,1197,1218,1237,1259,1278,1297,1318,1338,1358,1377,1397,1418,1437,1459,1479,1497,1518,1537,1557,1579,1598,1617,1638,1657,1678,1698,1718,1737,1757,1778,1797,1818,1839,1857,1878,1897,1918,1937,1958,1978,1997,2018,2038,2057,2078,2097,2118],"xSR":741.5,"ySR":469.95,"xT1":424.9,"yT1":0,"xT2":1058.1,"yT2":0,"toosoon":0,"cond_shown":"Congruent","ratio_trial":200,"L_num":13,"L_den":26,"R_num":14,"R_den":20,"correct_side":2,"subjID":"samuelricolopez10","gender":"0","school":"4","age":"8"},{"start_time":1552327258830,"click_time":1552327259758,"finger_time":1552327259198,"fix_duration":1291.1935355887638,"trial":2,"RT":368,"MT":560,"sideResp":2,"stimulus":[],"xmouse":[806,806,806,806,806,806,806,806,806,806,806,806,806,806,807,810,814,823,834,851,907,926,943,956,968,991,1003,1012,1019,1023,1024,1025,1025,1025,1025,1025,1025,1025,1025,1027,1028,1032,1035,1038,1042,1051,1060],"ymouse":[545,545,545,545,545,545,545,544,544,543,542,541,539,538,535,523,511,493,468,427,299,251,211,177,152,107,88,73,60,52,49,48,48,48,48,48,52,57,62,66,67,73,75,77,79,80,80],"timestamp_mouse":[20,40,47,68,88,108,127,148,167,189,207,229,249,269,288,309,327,347,368,388,409,427,448,468,487,509,528,549,568,589,608,629,648,668,687,709,727,748,768,789,808,829,848,868,887,909,927],"xSR":741.5,"ySR":469.95,"xT1":424.9,"yT1":0,"xT2":1058.1,"yT2":0,"toosoon":0,"cond_shown":"Incongruent","ratio_trial":300,"L_num":4,"L_den":20,"R_num":2,"R_den":4,"correct_side":2,"subjID":"samuelricolopez10","gender":"0","school":"4","age":"8"},{"start_time":1552327261410,"click_time":1552327262497,"finger_time":1552327261997,"fix_duration":250,"trial":3,"RT":587,"MT":500,"sideResp":2,"stimulus":[],"xmouse":[770,770,770,770,770,770,770,770,770,770,770,770,770,770,770,770,770,770,770,770,770,770,770,770,772,776,785,809,828,847,874,889,914,926,939,948,956,965,968,969,971,971,971,971,971,971,971,972,975,980,989,994,1014,1042,1077],"ymouse":[523,523,523,523,523,523,523,523,523,523,523,523,523,523,523,523,523,523,523,523,523,523,523,523,523,522,516,497,481,463,427,401,336,293,249,216,190,157,148,142,138,137,137,137,137,137,137,136,136,136,134,133,126,109,94],"timestamp_mouse":[9,28,60,68,88,107,127,149,168,188,207,229,248,267,288,308,328,348,367,389,408,428,449,467,487,507,527,547,568,587,608,628,648,668,687,708,728,747,768,788,807,828,847,868,888,909,929,948,968,989,1008,1028,1048,1067,1087],"xSR":741.5,"ySR":469.95,"xT1":424.9,"yT1":0,"xT2":1058.1,"yT2":0,"toosoon":0,"cond_shown":"Incongruent","ratio_trial":300,"L_num":8,"L_den":10,"R_num":14,"R_den":28,"correct_side":1,"subjID":"samuelricolopez10","gender":"0","school":"4","age":"8"},{"start_time":1552327264455,"click_time":1552327265618,"finger_time":1552327264758,"fix_duration":616.5816845826919,"trial":4,"RT":303,"MT":860,"sideResp":2,"stimulus":[],"xmouse":[795,795,795,795,795,795,795,795,795,795,795,795,795,795,793,768,762,758,758,758,758,758,758,758,758,758,764,781,800,826,882,918,968,1015,1055,1113,1130,1147,1160,1172,1181,1190,1190,1190,1190,1190,1190,1190,1190,1190,1187,1185,1183,1180,1180,1178,1176,1174,1158],"ymouse":[514,514,514,514,514,514,514,514,514,514,514,514,514,514,512,429,418,412,412,412,412,412,412,412,412,412,408,403,397,389,357,329,293,248,214,159,139,116,89,62,39,18,16,15,15,15,15,15,15,15,16,17,19,21,22,23,24,25,30],"timestamp_mouse":[9,23,42,64,84,103,122,143,164,184,202,223,243,263,283,303,324,343,364,383,402,422,442,464,483,504,523,543,562,583,604,622,642,662,683,703,722,742,763,783,802,822,843,863,884,903,923,942,962,983,1005,1023,1043,1062,1084,1102,1123,1143,1163],"xSR":741.5,"ySR":469.95,"xT1":424.9,"yT1":0,"xT2":1058.1,"yT2":0,"toosoon":0,"cond_shown":"Incongruent","ratio_trial":300,"L_num":4,"L_den":20,"R_num":2,"R_den":4,"correct_side":2,"subjID":"samuelricolopez10","gender":"0","school":"4","age":"8"},{"start_time":1552327269549,"click_time":1552327270758,"finger_time":1552327269677,"fix_duration":1288.4598112330077,"trial":5,"RT":128,"MT":1081,"sideResp":2,"stimulus":[],"xmouse":[823,823,823,823,823,829,899,915,916,916,916,916,916,916,916,916,916,916,916,916,916,916,916,916,916,914,910,905,901,885,875,851,839,835,828,810,804,801,800,800,800,800,798,793,788,780,726,699,699,699,699,699,699,699,699,699,699,699,699,1026,1078],"ymouse":[477,477,477,477,477,476,457,450,449,449,449,449,449,449,449,449,449,449,449,449,449,449,449,449,449,449,449,449,449,457,462,469,473,475,477,484,486,487,487,487,487,487,482,461,424,357,136,13,13,13,13,13,13,13,13,13,13,13,13,42,58],"timestamp_mouse":[13,45,49,69,89,109,128,149,170,188,208,228,248,268,289,310,329,349,368,388,408,429,450,470,489,509,529,549,569,590,608,629,648,669,688,710,728,749,768,789,808,830,848,868,889,909,929,949,969,988,1008,1028,1048,1068,1088,1109,1128,1149,1169,1188,1208],"xSR":741.5,"ySR":469.95,"xT1":424.9,"yT1":0,"xT2":1058.1,"yT2":0,"toosoon":0,"cond_shown":"Incongruent","ratio_trial":200,"L_num":7,"L_den":10,"R_num":12,"R_den":24,"correct_side":1,"subjID":"samuelricolopez10","gender":"0","school":"4","age":"8"},{"start_time":1552327273349,"click_time":1552327278818,"finger_time":1552327274977,"fix_duration":1390.9208188947862,"trial":6,"RT":1628,"MT":3841,"sideResp":1,"stimulus":[],"xmouse":[772,771,769,769,768,766,766,765,765,765,765,765,765,765,765,765,765,765,765,765,765,765,765,765,765,765,765,765,765,765,765,765,765,765,765,765,765,765,765,765,765,765,765,765,765,765,765,765,765,765,765,765,765,765,765,765,765,767,767,768,768,770,771,772,772,772,772,772,773,774,776,779,781,781,781,781,781,782,782,782,782,782,779,777,775,773,772,772,772,770,769,761,753,741,725,697,640,595,579,571,571,571,571,571,571,571,571,571,571,571,571,571,571,571,571,571,571,571,571,571,571,571,571,576,585,596,653,693,733,755,764,767,767,767,767,767,767,767,767,767,767,769,770,772,774,775,775,775,775,775,775,775,775,775,775,775,775,775,775,775,775,775,775,775,775,775,775,775,775,775,775,775,775,775,775,775,775,775,775,775,775,775,775,775,775,775,775,775,775,775,775,775,775,775,775,775,775,775,775,775,775,775,775,775,775,775,775,775,775,775,775,775,775,775,775,775,775,775,775,775,775,775,775,775,775,775,775,775,775,775,775,775,775,775,775,775,775,775,775,775,775,775,775,775,774,772,772,772,772,772,772,771,771,771,771,771,771,770,768,763,756,752,732,717,699,683,669,664,664,662,657,639,521,490],"ymouse":[519,518,516,515,513,510,509,508,508,507,507,505,504,501,499,498,495,494,493,492,492,492,492,492,492,491,490,489,487,485,482,482,482,482,482,482,482,482,482,482,482,482,482,482,482,482,482,482,482,482,482,482,482,482,482,482,482,482,482,482,482,482,482,482,482,482,482,482,482,482,482,482,482,482,482,482,482,482,482,479,474,469,456,452,447,445,443,443,442,440,440,432,419,401,373,318,224,158,134,126,124,124,124,124,124,124,124,124,124,124,124,124,124,124,124,124,124,124,124,124,124,124,124,124,126,129,142,148,158,165,166,166,166,166,166,166,166,166,166,166,166,163,159,156,151,149,149,148,148,148,148,148,148,148,148,148,148,148,148,148,148,148,148,148,148,148,148,148,148,148,148,148,148,148,148,148,148,148,148,148,148,148,148,148,148,148,148,148,148,148,148,148,148,148,148,148,148,148,149,151,153,157,157,158,158,158,158,158,158,160,160,160,160,160,160,160,160,160,160,160,160,160,160,161,161,161,161,161,162,163,163,163,163,163,163,163,163,163,163,163,163,163,163,163,163,163,163,163,163,163,163,163,163,163,163,163,163,163,163,160,156,153,143,139,136,134,129,128,128,127,124,121,103,89],"timestamp_mouse":[10,35,49,68,89,108,128,148,168,190,208,230,250,268,288,309,328,348,368,389,408,429,449,468,489,508,528,550,568,589,608,630,650,670,688,709,729,750,769,790,809,829,850,868,888,909,929,950,969,988,1010,1028,1049,1068,1088,1108,1129,1148,1168,1189,1209,1229,1248,1269,1289,1310,1328,1349,1368,1388,1408,1429,1448,1469,1488,1510,1528,1549,1568,1589,1608,1628,1648,1668,1689,1709,1729,1748,1768,1789,1810,1830,1848,1869,1889,1909,1930,1949,1969,1990,2008,2029,2048,2068,2090,2110,2129,2149,2169,2189,2210,2229,2249,2269,2289,2310,2329,2349,2368,2389,2409,2429,2448,2469,2489,2509,2530,2548,2569,2589,2608,2629,2649,2669,2690,2709,2729,2749,2769,2789,2809,2830,2848,2868,2888,2909,2929,2949,2969,2989,3009,3030,3049,3070,3089,3110,3129,3149,3169,3189,3209,3230,3249,3269,3290,3309,3329,3349,3369,3389,3410,3429,3449,3470,3489,3509,3530,3548,3569,3589,3609,3630,3648,3669,3690,3709,3729,3748,3770,3790,3809,3830,3849,3870,3890,3909,3929,3948,3968,3989,4009,4029,4049,4069,4089,4110,4130,4149,4168,4188,4209,4230,4248,4269,4290,4309,4329,4350,4369,4389,4409,4430,4448,4469,4488,4508,4529,4548,4568,4589,4609,4630,4648,4669,4689,4710,4730,4749,4770,4790,4809,4829,4848,4869,4890,4910,4929,4949,4969,4989,5009,5029,5049,5069,5089,5109,5129,5148,5169,5189,5208,5229,5248,5268,5288,5308,5328,5349,5369,5389,5409,5429,5449,5469],"xSR":741.5,"ySR":469.95,"xT1":424.9,"yT1":0,"xT2":1058.1,"yT2":0,"toosoon":0,"cond_shown":"Incongruent","ratio_trial":300,"L_num":13,"L_den":26,"R_num":12,"R_den":15,"correct_side":2,"subjID":"samuelricolopez10","gender":"0","school":"4","age":"8"},{"start_time":1552327283389,"click_time":1552327285000,"finger_time":1552327284818,"fix_duration":1008.1158504769229,"trial":7,"RT":1429,"MT":182,"sideResp":2,"stimulus":[],"xmouse":[769,769,769,769,769,769,769,769,769,769,769,770,770,770,770,770,770,770,770,770,770,770,770,770,770,770,770,770,770,770,770,770,770,770,770,770,770,770,770,770,770,770,770,770,770,770,770,770,770,770,770,770,770,770,770,770,770,770,770,770,770,770,770,770,770,770,770,770,776,779,822,892,982,1088,1196,1280,1327,1327,1316,1288,1109],"ymouse":[500,500,500,500,500,500,500,500,500,500,500,501,502,504,504,504,504,504,504,504,504,504,504,504,504,504,504,504,504,504,504,504,504,504,505,505,505,505,505,505,505,505,505,505,505,505,505,505,505,505,505,505,505,505,505,505,505,505,505,505,505,505,505,505,505,505,505,505,503,502,476,432,384,332,285,247,209,193,170,143,85],"timestamp_mouse":[14,44,49,71,90,110,131,151,170,190,209,231,249,269,290,311,330,350,370,389,409,429,449,469,491,510,529,549,571,590,610,629,650,670,690,710,729,749,769,790,811,830,850,870,891,909,929,950,969,990,1010,1029,1050,1070,1090,1110,1130,1149,1169,1190,1210,1230,1249,1269,1291,1310,1330,1350,1369,1390,1410,1429,1449,1470,1489,1509,1529,1550,1569,1590,1611],"xSR":741.5,"ySR":469.95,"xT1":424.9,"yT1":0,"xT2":1058.1,"yT2":0,"toosoon":0,"cond_shown":"Incongruent","ratio_trial":100,"L_num":10,"L_den":25,"R_num":8,"R_den":16,"correct_side":2,"subjID":"samuelricolopez10","gender":"0","school":"4","age":"8"},{"start_time":1552327287070,"click_time":1552327288159,"finger_time":1552327287098,"fix_duration":250,"trial":8,"RT":28,"MT":1061,"sideResp":2,"stimulus":[],"xmouse":[829,828,824,822,822,822,822,822,822,821,821,821,821,821,821,823,831,904,968,1034,1100,1167,1277,1318,1345,1352,1344,1235,1182,1182,1182,1182,402,348,328,323,330,389,467,578,724,888,888,877,804,569,364,62,54,74,189,551,551,551,1076],"ymouse":[471,454,423,417,415,415,415,415,415,417,418,418,418,418,418,414,406,362,327,291,253,216,150,121,97,80,60,13,5,5,5,5,23,54,74,99,114,137,146,148,150,151,151,151,159,166,166,135,132,121,76,2,2,2,23],"timestamp_mouse":[12,28,57,69,88,109,128,148,168,188,209,228,248,269,289,309,328,349,368,388,409,429,448,469,488,508,529,549,568,588,608,628,648,668,688,709,729,749,768,788,808,830,848,869,888,908,928,948,968,990,1009,1029,1049,1069,1088],"xSR":741.5,"ySR":469.95,"xT1":424.9,"yT1":0,"xT2":1058.1,"yT2":0,"toosoon":0,"cond_shown":"Incongruent","ratio_trial":200,"L_num":14,"L_den":30,"R_num":12,"R_den":18,"correct_side":2,"subjID":"samuelricolopez10","gender":"0","school":"4","age":"8"},{"start_time":1552327295823,"click_time":1552327297239,"finger_time":1552327296138,"fix_duration":363.6615111146331,"trial":9,"RT":315,"MT":1101,"sideResp":1,"stimulus":[],"xmouse":[823,823,823,823,823,823,823,823,823,823,823,823,823,824,829,861,865,865,863,859,856,854,847,821,800,777,775,769,758,742,676,634,608,576,546,535,524,509,490,468,450,449,452,504,592,907,1108,1307,1472,1472,1472,1472,1472,1581,1522,1246,1043,944,944,944,944,944,944,944,944,944,944,944,944,944,491],"ymouse":[525,525,525,525,525,525,525,525,525,525,526,527,527,527,527,517,515,512,501,486,474,473,470,462,455,440,433,421,407,388,326,298,278,256,239,232,230,228,225,222,218,217,211,187,168,132,123,123,123,123,123,123,123,122,118,77,45,23,23,23,23,23,23,23,23,23,23,23,23,23,2],"timestamp_mouse":[15,48,55,76,96,115,136,157,176,195,215,235,256,276,295,315,335,356,376,395,415,436,455,475,496,517,535,556,575,595,615,635,655,677,697,715,735,756,775,796,815,835,855,875,895,915,935,956,976,996,1016,1037,1055,1075,1095,1115,1135,1156,1175,1195,1216,1235,1255,1276,1295,1316,1335,1356,1375,1397,1416],"xSR":741.5,"ySR":469.95,"xT1":424.9,"yT1":0,"xT2":1058.1,"yT2":0,"toosoon":0,"cond_shown":"Congruent","ratio_trial":100,"L_num":6,"L_den":12,"R_num":15,"R_den":25,"correct_side":2,"subjID":"samuelricolopez10","gender":"0","school":"4","age":"8"},{"start_time":1552327299050,"click_time":1552327300139,"finger_time":1552327299638,"fix_duration":250,"trial":10,"RT":588,"MT":501,"sideResp":1,"stimulus":[],"xmouse":[823,823,823,823,823,822,820,816,813,807,805,804,804,804,804,804,804,804,804,804,804,804,803,803,803,803,803,805,810,819,804,764,696,604,526,526,526,526,526,526,526,526,526,526,526,526,526,526,526,526,526,526,406,417,453],"ymouse":[543,543,543,543,544,544,544,543,542,540,539,538,538,538,536,536,536,536,536,536,536,536,535,534,531,528,524,518,506,450,344,237,132,53,7,7,7,7,7,7,7,7,7,7,7,7,7,7,7,7,7,7,11,21,36],"timestamp_mouse":[10,43,50,69,88,108,129,148,169,188,209,229,248,268,289,309,329,348,368,388,409,428,449,468,488,508,528,548,568,588,608,629,649,668,689,708,728,748,768,788,808,828,849,868,888,909,929,948,968,989,1008,1028,1049,1068,1089],"xSR":741.5,"ySR":469.95,"xT1":424.9,"yT1":0,"xT2":1058.1,"yT2":0,"toosoon":0,"cond_shown":"Incongruent","ratio_trial":200,"L_num":7,"L_den":15,"R_num":6,"R_den":9,"correct_side":2,"subjID":"samuelricolopez10","gender":"0","school":"4","age":"8"},{"start_time":1552327307689,"click_time":1552327308359,"finger_time":1552327308078,"fix_duration":528.3732173642666,"trial":11,"RT":389,"MT":281,"sideResp":2,"stimulus":[],"xmouse":[780,780,780,780,780,780,780,780,780,780,780,780,780,780,780,780,782,787,820,851,884,928,966,1013,1022,1034,1044,1050,1057,1058,1060,1062,1066,1075],"ymouse":[530,530,530,530,530,530,530,530,530,530,530,530,530,530,530,529,527,519,471,425,371,320,274,201,181,155,137,125,117,115,113,110,105,93],"timestamp_mouse":[13,38,49,69,90,111,130,150,170,191,210,230,250,269,290,309,330,349,370,389,411,430,450,470,490,509,530,550,569,589,609,629,650,669],"xSR":741.5,"ySR":469.95,"xT1":424.9,"yT1":0,"xT2":1058.1,"yT2":0,"toosoon":0,"cond_shown":"Incongruent","ratio_trial":100,"L_num":6,"L_den":10,"R_num":11,"R_den":22,"correct_side":1,"subjID":"samuelricolopez10","gender":"0","school":"4","age":"8"},{"start_time":1552327312604,"click_time":1552327315178,"finger_time":1552327314519,"fix_duration":605.2923599680372,"trial":12,"RT":1915,"MT":659,"sideResp":1,"stimulus":[],"xmouse":[814,814,814,814,814,815,815,815,815,815,815,815,815,815,815,815,815,815,815,815,815,815,815,815,815,815,815,815,815,815,815,815,815,815,817,819,819,819,819,819,819,819,819,819,819,819,819,819,819,819,819,819,819,819,819,819,819,819,819,819,819,819,819,819,819,819,819,819,819,819,819,819,819,819,819,819,818,815,812,812,812,812,812,809,792,769,750,750,750,750,750,750,750,750,747,740,722,703,676,662,641,603,543,444,441,449,451,455,472,485,500,518,545,597,609,617,619,619,620,620,620,620,620,615,598,585,572,556,521],"ymouse":[506,506,506,506,506,506,505,505,504,504,504,504,503,503,503,503,502,502,500,500,500,499,497,497,497,497,497,497,497,497,497,497,497,497,492,487,487,487,487,487,487,487,487,487,487,487,487,487,487,487,487,487,487,487,487,487,487,487,487,487,487,487,487,487,487,487,487,487,487,487,487,487,487,487,487,487,489,492,494,494,494,494,494,494,507,523,534,534,534,534,534,534,534,534,525,503,465,437,400,383,365,338,292,193,167,145,142,140,140,140,140,140,140,135,130,127,125,125,124,124,124,124,124,118,107,101,96,95,90],"timestamp_mouse":[14,38,56,75,95,115,135,154,175,195,216,234,254,276,295,315,335,354,375,394,414,434,454,475,496,515,535,555,574,594,614,634,655,674,694,714,734,756,775,794,814,835,855,875,894,916,935,956,975,994,1014,1035,1056,1075,1095,1115,1134,1154,1176,1195,1215,1236,1255,1275,1295,1315,1334,1355,1375,1396,1416,1434,1454,1474,1494,1514,1535,1554,1574,1596,1615,1636,1655,1674,1694,1715,1734,1754,1775,1796,1816,1834,1854,1874,1896,1915,1934,1954,1975,1994,2014,2035,2054,2074,2094,2114,2135,2155,2175,2194,2216,2234,2254,2274,2294,2314,2335,2354,2374,2395,2414,2435,2455,2475,2494,2514,2536,2554,2574],"xSR":741.5,"ySR":469.95,"xT1":424.9,"yT1":0,"xT2":1058.1,"yT2":0,"toosoon":0,"cond_shown":"Congruent","ratio_trial":200,"L_num":13,"L_den":26,"R_num":14,"R_den":20,"correct_side":2,"subjID":"samuelricolopez10","gender":"0","school":"4","age":"8"},{"start_time":1552327323771,"click_time":1552327325999,"finger_time":1552327325479,"fix_duration":309.04689857543144,"trial":13,"RT":1708,"MT":520,"sideResp":2,"stimulus":[],"xmouse":[782,782,782,782,782,782,782,782,782,782,782,782,782,782,782,782,782,782,782,782,782,782,782,782,782,785,791,794,796,796,796,796,796,796,796,796,796,796,796,796,796,796,796,796,796,796,796,796,796,796,796,796,796,796,796,796,796,796,796,796,796,796,796,796,796,796,796,796,796,796,796,796,796,796,796,796,796,796,796,796,796,796,796,796,796,801,822,835,849,865,882,914,940,955,966,974,981,984,986,991,998,1006,1015,1016,1017,1019,1026,1030,1035,1044,1062,1115],"ymouse":[527,527,527,527,527,527,527,527,527,527,527,527,527,527,527,527,527,527,527,527,527,527,527,525,521,513,497,487,480,479,479,479,479,479,479,479,479,479,479,479,479,479,479,479,479,479,479,479,479,479,479,479,479,479,479,479,479,479,479,479,479,479,479,479,479,479,479,479,479,479,479,479,479,479,479,479,479,479,479,479,479,479,479,479,478,469,442,425,408,390,374,341,314,299,290,283,268,255,237,221,206,194,181,178,175,171,160,155,148,138,122,86],"timestamp_mouse":[14,27,47,67,87,107,129,147,168,189,208,227,248,269,287,308,328,347,368,387,408,427,447,467,487,508,527,547,567,587,608,629,648,667,687,707,727,748,768,787,807,828,847,867,887,908,927,948,968,988,1007,1027,1048,1068,1089,1108,1128,1147,1168,1187,1208,1227,1248,1268,1288,1308,1328,1347,1367,1388,1407,1428,1448,1468,1488,1507,1529,1549,1568,1587,1608,1628,1647,1668,1687,1708,1728,1747,1768,1787,1808,1827,1848,1867,1888,1907,1927,1948,1969,1988,2009,2027,2048,2067,2087,2108,2127,2147,2169,2188,2208,2227],"xSR":741.5,"ySR":469.95,"xT1":424.9,"yT1":0,"xT2":1058.1,"yT2":0,"toosoon":0,"cond_shown":"Congruent","ratio_trial":200,"L_num":6,"L_den":20,"R_num":11,"R_den":22,"correct_side":2,"subjID":"samuelricolopez10","gender":"0","school":"4","age":"8"},{"start_time":1552327332330,"click_time":1552327334538,"finger_time":1552327333839,"fix_duration":250,"trial":14,"RT":1509,"MT":699,"sideResp":1,"stimulus":[],"xmouse":[793,793,793,793,793,793,793,793,793,793,793,793,793,793,793,793,793,793,793,793,793,793,792,791,790,789,787,784,783,783,783,783,783,783,783,783,783,783,783,783,783,783,783,783,783,783,783,783,783,783,783,783,783,783,783,783,783,783,783,783,783,783,783,783,783,783,783,783,783,783,783,783,783,783,780,778,776,773,770,765,762,759,753,748,734,727,719,714,708,686,664,649,635,619,607,593,586,583,578,573,570,569,568,568,560,552,543,535,529,526,517],"ymouse":[476,476,476,476,476,476,476,476,476,476,476,476,476,476,476,476,476,476,476,476,476,476,476,476,476,476,478,479,480,480,480,480,480,480,480,480,480,480,480,480,480,480,480,480,480,480,480,480,480,480,480,480,480,480,480,480,480,480,480,480,480,480,480,480,480,480,480,480,480,480,480,480,480,480,474,460,449,440,431,413,405,400,391,384,369,359,353,351,347,334,321,313,304,292,281,254,235,210,179,144,134,131,129,126,115,105,94,84,78,74,73],"timestamp_mouse":[13,35,49,68,88,109,129,148,168,193,222,230,250,268,289,308,328,348,368,388,409,429,450,468,489,508,529,548,568,590,609,628,649,669,688,709,729,749,768,788,808,829,848,869,889,908,928,948,969,988,1008,1028,1048,1068,1090,1108,1129,1148,1169,1189,1208,1228,1249,1269,1289,1308,1328,1348,1368,1388,1409,1429,1450,1468,1489,1509,1529,1549,1568,1589,1609,1628,1649,1668,1689,1708,1729,1749,1768,1789,1808,1828,1849,1868,1888,1908,1929,1948,1968,1989,2008,2028,2050,2069,2088,2108,2129,2148,2169,2188,2208],"xSR":741.5,"ySR":469.95,"xT1":424.9,"yT1":0,"xT2":1058.1,"yT2":0,"toosoon":0,"cond_shown":"Incongruent","ratio_trial":200,"L_num":7,"L_den":10,"R_num":14,"R_den":28,"correct_side":1,"subjID":"samuelricolopez10","gender":"0","school":"4","age":"8"},{"start_time":1552327336901,"click_time":1552327341398,"finger_time":1552327337339,"fix_duration":1141.0652073698027,"trial":15,"RT":438,"MT":4059,"sideResp":2,"stimulus":[],"xmouse":[801,805,813,818,821,827,829,830,831,831,831,831,831,831,833,834,835,837,839,840,841,843,844,845,845,846,848,848,849,849,851,853,855,859,863,868,870,870,871,871,871,871,871,871,871,871,871,871,871,871,871,871,871,871,871,871,871,871,871,871,871,872,872,872,872,872,872,872,872,872,872,872,872,872,872,872,872,872,872,872,872,872,872,872,872,872,872,872,872,872,872,872,872,872,872,872,872,872,872,872,872,872,872,872,872,872,872,872,872,872,872,872,872,872,872,872,872,872,872,880,898,903,911,919,929,944,1002,1041,1083,1115,1121,1121,1121,1121,1122,1122,1122,1122,1122,1122,1122,1122,1122,1122,1122,1122,1122,1122,1122,1122,1122,1122,1122,1122,1122,1122,1122,1122,1122,1122,1122,1122,1122,1122,1122,1122,1122,1122,1122,1122,1122,1122,1122,1122,1122,1123,1126,1128,1129,1130,1130,1130,1130,1130,1130,1130,1130,1130,1130,1130,1130,1130,1130,1130,1130,1130,1130,1130,1130,1130,1130,1130,1130,1130,1130,1129,1126,1126,1126,1124,1124,1123,1123,1123,1123,1123,1123,1123,1123,1122,1122,1122,1122,1122,1122],"ymouse":[518,516,510,506,502,497,495,495,494,494,494,494,494,494,492,489,487,483,482,480,477,473,473,471,470,470,466,466,465,464,461,458,456,452,448,442,441,440,439,439,439,439,439,439,439,439,439,439,439,439,439,439,439,439,439,439,439,439,439,439,440,442,444,444,444,444,444,445,446,447,449,449,449,449,449,449,449,449,449,449,449,449,449,449,449,449,449,449,449,449,449,449,449,449,449,449,449,449,449,449,449,449,449,449,449,448,445,445,445,445,445,445,445,444,442,442,442,442,441,440,430,425,415,398,380,357,281,236,194,167,162,161,161,161,161,159,155,155,155,155,155,155,155,155,155,155,155,155,155,155,155,155,155,155,155,155,155,155,155,155,155,155,155,155,155,155,155,155,155,155,155,155,155,155,153,151,148,146,144,144,143,143,143,143,143,143,143,143,143,143,143,143,143,143,143,143,143,143,143,143,143,143,143,143,143,146,150,152,153,154,155,156,156,156,156,156,156,152,145,140,135,126,119,108,97],"timestamp_mouse":[17,40,57,77,98,118,138,157,178,197,217,238,257,279,299,318,337,358,377,399,417,438,457,478,498,518,538,557,578,599,619,637,657,677,698,719,737,757,777,797,818,839,858,877,897,918,937,958,978,997,1018,1038,1057,1078,1098,1117,1137,1157,1177,1197,1218,1239,1257,1277,1297,1319,1339,1357,1377,1397,1417,1438,1458,1478,1498,1518,1538,1557,1577,1597,1619,1637,1659,1678,1697,1718,1738,1758,1777,1798,1819,1837,1858,1879,1898,1918,1937,1957,1978,1999,2019,2038,2057,2078,2097,2119,2138,2158,2178,2198,2217,2237,2257,2277,2298,2318,2338,2358,2378,2398,2420,2437,2457,2477,2497,2518,2537,2557,2578,2597,2617,2639,2659,2677,2697,2718,2737,2757,2778,2799,2817,2837,2858,2877,2898,2917,2937,2958,2978,2999,3017,3038,3058,3078,3097,3119,3137,3157,3177,3199,3217,3237,3257,3278,3297,3318,3337,3358,3377,3397,3418,3438,3458,3479,3497,3518,3538,3558,3578,3598,3617,3637,3658,3679,3698,3718,3738,3757,3778,3797,3817,3837,3857,3879,3897,3918,3938,3957,3978,3998,4018,4038,4057,4077,4097,4117,4138,4157,4178,4198,4217,4238,4258,4278,4299,4317,4338,4358,4377,4397,4418,4437,4457,4478,4497],"xSR":741.5,"ySR":469.95,"xT1":424.9,"yT1":0,"xT2":1058.1,"yT2":0,"toosoon":0,"cond_shown":"Congruent","ratio_trial":200,"L_num":12,"L_den":20,"R_num":6,"R_den":15,"correct_side":1,"subjID":"samuelricolopez10","gender":"0","school":"4","age":"8"},{"start_time":1552327343847,"click_time":1552327345759,"finger_time":1552327345240,"fix_duration":1426.705806902565,"trial":16,"RT":1393,"MT":519,"sideResp":1,"stimulus":[],"xmouse":[820,820,820,820,820,820,820,820,820,820,820,820,820,820,820,820,820,820,820,820,820,820,820,820,820,820,820,820,820,820,820,820,820,820,820,820,820,820,821,821,821,821,821,821,821,821,821,821,821,821,821,821,821,821,821,820,820,820,820,820,820,820,820,820,820,820,817,816,813,790,779,772,769,765,765,764,764,760,754,744,725,718,712,702,690,684,677,667,654,635,580,562,546,529,496,480],"ymouse":[513,513,513,513,513,513,513,513,513,513,513,513,513,513,513,513,513,513,513,513,513,513,513,513,513,513,513,513,513,513,513,513,513,513,513,513,513,513,513,513,514,514,514,514,514,514,514,514,514,514,514,514,515,515,515,515,515,515,515,515,515,515,515,515,515,515,514,513,510,469,430,388,355,332,317,303,298,286,272,255,226,217,210,204,196,195,192,189,184,176,153,144,136,126,104,91],"timestamp_mouse":[14,39,53,74,92,113,132,153,173,192,212,234,252,273,294,313,332,354,373,392,413,432,454,472,493,514,533,553,573,592,612,633,652,672,692,713,732,753,773,792,812,833,853,872,893,912,933,954,973,992,1012,1033,1052,1073,1093,1113,1132,1152,1173,1192,1213,1232,1253,1272,1293,1312,1333,1352,1373,1393,1412,1432,1452,1472,1493,1513,1532,1552,1573,1592,1612,1633,1652,1672,1693,1712,1734,1753,1773,1792,1813,1832,1853,1872,1894,1912],"xSR":741.5,"ySR":469.95,"xT1":424.9,"yT1":0,"xT2":1058.1,"yT2":0,"toosoon":0,"cond_shown":"Incongruent","ratio_trial":300,"L_num":8,"L_den":10,"R_num":14,"R_den":28,"correct_side":1,"subjID":"samuelricolopez10","gender":"0","school":"4","age":"8"},{"start_time":1552327347483,"click_time":1552327349380,"finger_time":1552327348479,"fix_duration":441.299285669418,"trial":17,"RT":996,"MT":901,"sideResp":1,"stimulus":[],"xmouse":[773,773,773,773,773,773,773,773,773,773,773,773,773,773,772,772,772,772,772,772,772,772,772,772,772,772,772,772,772,771,771,771,771,771,771,771,771,771,771,771,771,771,771,771,770,768,763,759,747,743,739,734,715,701,686,673,660,653,649,646,644,638,629,609,598,588,574,565,545,533,522,513,505,495,495,495,495,495,516,528,539,545,549,552,552,552,552,552,552,552,552,550,550,530,521],"ymouse":[500,500,500,500,500,500,500,500,500,500,500,500,500,500,500,500,500,500,500,500,500,500,500,500,500,500,500,500,500,500,500,500,499,499,499,499,499,499,499,499,499,499,498,497,494,491,485,482,472,469,463,455,429,415,398,383,365,357,351,348,345,341,336,323,317,312,305,299,287,279,270,262,256,246,244,243,233,216,144,103,69,47,31,17,15,14,14,13,13,13,13,16,16,37,46],"timestamp_mouse":[16,45,57,77,96,118,136,157,177,196,216,238,256,276,297,317,336,356,377,396,417,436,456,477,496,518,536,556,577,597,617,636,657,676,697,717,736,757,777,796,817,837,857,876,897,916,938,957,977,996,1017,1038,1058,1076,1098,1117,1136,1156,1176,1196,1216,1238,1257,1276,1297,1316,1337,1356,1377,1396,1417,1437,1456,1476,1497,1517,1537,1557,1576,1596,1617,1636,1657,1676,1697,1717,1737,1756,1776,1797,1817,1836,1856,1876,1897],"xSR":741.5,"ySR":469.95,"xT1":424.9,"yT1":0,"xT2":1058.1,"yT2":0,"toosoon":0,"cond_shown":"Congruent","ratio_trial":100,"L_num":1,"L_den":2,"R_num":3,"R_den":5,"correct_side":2,"subjID":"samuelricolopez10","gender":"0","school":"4","age":"8"},{"start_time":1552327350712,"click_time":1552327351919,"finger_time":1552327351460,"fix_duration":250,"trial":18,"RT":748,"MT":459,"sideResp":1,"stimulus":[],"xmouse":[779,779,779,779,779,779,779,779,779,779,779,779,779,779,779,779,779,779,778,777,776,776,775,775,775,774,773,773,773,773,773,772,772,769,763,757,745,697,664,638,621,611,609,609,608,606,595,576,571,567,563,556,545,521,514,510,506,500,496,493,492],"ymouse":[509,509,509,509,509,509,509,509,509,509,509,509,509,509,509,509,509,511,512,514,515,515,516,516,516,516,516,516,516,516,516,516,516,516,512,505,490,419,343,259,194,159,151,151,150,150,150,150,150,150,150,150,150,145,143,140,138,129,119,105,89],"timestamp_mouse":[12,35,47,67,89,108,128,147,168,189,207,228,249,268,287,307,328,348,367,388,408,427,447,467,489,508,528,547,567,589,608,627,647,669,687,708,728,748,767,788,808,827,848,867,887,907,928,947,969,988,1007,1028,1047,1068,1087,1108,1127,1147,1167,1187,1207],"xSR":741.5,"ySR":469.95,"xT1":424.9,"yT1":0,"xT2":1058.1,"yT2":0,"toosoon":0,"cond_shown":"Incongruent","ratio_trial":200,"L_num":14,"L_den":30,"R_num":6,"R_den":9,"correct_side":2,"subjID":"samuelricolopez10","gender":"0","school":"4","age":"8"},{"start_time":1552327352891,"click_time":1552327354160,"finger_time":1552327353699,"fix_duration":250,"trial":19,"RT":808,"MT":461,"sideResp":1,"stimulus":[],"xmouse":[790,790,790,790,790,790,790,790,790,790,790,790,790,790,790,789,786,785,782,779,778,778,778,778,778,778,778,778,778,778,778,778,776,771,767,766,765,764,757,747,733,704,666,613,568,559,556,554,552,550,549,546,544,542,542,542,542,540,532,526,520,513,507,504],"ymouse":[505,505,506,507,507,507,507,507,507,507,507,507,507,507,507,508,508,507,507,507,507,507,507,507,507,507,507,507,507,507,507,507,506,503,500,500,500,499,486,470,448,388,321,242,188,178,173,170,169,167,166,166,166,165,165,165,165,163,149,139,129,114,104,96],"timestamp_mouse":[10,32,48,68,89,108,128,150,168,188,208,228,248,268,288,308,328,349,369,388,408,429,450,468,489,509,528,550,568,588,609,628,648,668,689,708,729,749,769,788,808,828,849,868,888,908,928,948,969,988,1009,1028,1049,1069,1089,1108,1129,1148,1170,1188,1209,1229,1248,1269],"xSR":741.5,"ySR":469.95,"xT1":424.9,"yT1":0,"xT2":1058.1,"yT2":0,"toosoon":0,"cond_shown":"Incongruent","ratio_trial":200,"L_num":4,"L_den":6,"R_num":14,"R_den":30,"correct_side":1,"subjID":"samuelricolopez10","gender":"0","school":"4","age":"8"},{"start_time":1552327356994,"click_time":1552327358479,"finger_time":1552327357579,"fix_duration":1012.1753045062694,"trial":20,"RT":585,"MT":900,"sideResp":1,"stimulus":[],"xmouse":[794,794,794,794,794,794,794,794,794,794,794,794,794,794,794,794,794,794,794,794,794,794,795,797,798,800,802,806,809,826,831,835,837,838,839,839,840,840,840,840,840,837,830,789,760,725,712,707,697,671,661,656,650,647,639,632,626,615,607,592,590,590,590,590,590,590,590,589,586,572,562,551,539,529,518],"ymouse":[523,523,523,523,523,523,523,523,523,523,523,523,523,523,523,523,523,523,523,523,523,519,515,510,507,503,499,489,480,450,438,430,427,424,423,421,419,417,415,414,413,411,409,399,390,374,364,358,344,309,297,289,283,279,271,261,250,215,150,53,39,36,36,36,36,36,36,36,38,48,55,63,70,76,81],"timestamp_mouse":[11,35,46,65,85,105,127,145,165,186,205,225,247,265,285,306,326,346,367,387,405,427,446,467,485,505,525,545,566,585,605,626,646,667,685,706,725,746,766,785,805,826,847,867,885,905,925,945,966,985,1005,1026,1045,1066,1085,1106,1125,1147,1166,1185,1205,1225,1246,1265,1286,1306,1326,1346,1367,1386,1405,1425,1446,1465,1485],"xSR":741.5,"ySR":469.95,"xT1":424.9,"yT1":0,"xT2":1058.1,"yT2":0,"toosoon":0,"cond_shown":"Congruent","ratio_trial":200,"L_num":16,"L_den":30,"R_num":9,"R_den":27,"correct_side":1,"subjID":"samuelricolopez10","gender":"0","school":"4","age":"8"},{"start_time":1552327360512,"click_time":1552327361740,"finger_time":1552327361261,"fix_duration":250,"trial":21,"RT":749,"MT":479,"sideResp":2,"stimulus":[],"xmouse":[773,773,773,773,773,773,773,773,773,773,773,773,773,774,775,775,776,776,776,776,776,776,776,776,776,776,776,777,779,779,781,783,785,787,791,800,807,818,863,872,880,887,891,899,904,909,911,914,925,931,938,946,956,978,988,999,1010,1014,1033,1046,1053,1060],"ymouse":[516,516,516,516,516,516,516,516,516,516,516,516,515,512,509,507,506,506,506,506,506,506,506,506,506,505,505,505,506,510,514,518,520,522,521,506,487,464,385,368,356,344,336,317,305,295,287,278,254,241,231,218,206,165,141,123,105,99,70,57,46,36],"timestamp_mouse":[13,38,49,67,88,108,129,148,168,189,208,228,247,268,289,308,327,348,368,389,408,428,449,467,488,511,527,549,567,587,607,627,647,667,687,708,728,749,769,789,808,828,847,868,887,908,927,948,968,989,1007,1028,1047,1068,1087,1108,1128,1148,1168,1188,1207,1228],"xSR":741.5,"ySR":469.95,"xT1":424.9,"yT1":0,"xT2":1058.1,"yT2":0,"toosoon":0,"cond_shown":"Congruent","ratio_trial":100,"L_num":11,"L_den":22,"R_num":4,"R_den":10,"correct_side":1,"subjID":"samuelricolopez10","gender":"0","school":"4","age":"8"},{"start_time":1552327363652,"click_time":1552327364679,"finger_time":1552327364219,"fix_duration":250,"trial":22,"RT":567,"MT":460,"sideResp":1,"stimulus":[],"xmouse":[783,784,787,788,789,790,791,792,793,794,795,796,796,796,796,796,796,796,796,796,796,796,796,796,793,787,761,743,725,672,656,584,574,569,569,569,569,569,566,559,551,543,541,541,540,537,532,521,516,514,512,504],"ymouse":[509,508,504,502,501,500,498,497,496,495,493,492,491,491,491,491,491,491,491,491,491,491,491,491,496,500,508,507,478,353,299,134,122,118,118,118,118,118,118,113,107,102,102,102,102,102,102,102,102,102,101,98],"timestamp_mouse":[11,34,47,67,88,108,128,148,167,187,207,227,248,267,287,307,327,347,369,388,408,428,448,467,488,508,528,547,567,587,608,628,647,667,687,707,727,747,768,788,809,827,848,867,887,907,928,947,968,988,1008,1027],"xSR":741.5,"ySR":469.95,"xT1":424.9,"yT1":0,"xT2":1058.1,"yT2":0,"toosoon":0,"cond_shown":"Incongruent","ratio_trial":100,"L_num":3,"L_den":9,"R_num":7,"R_den":30,"correct_side":1,"subjID":"samuelricolopez10","gender":"0","school":"4","age":"8"},{"start_time":1552327370579,"click_time":1552327371440,"finger_time":1552327370920,"fix_duration":1119.0720313397526,"trial":23,"RT":341,"MT":520,"sideResp":1,"stimulus":[],"xmouse":[795,795,793,792,792,792,792,792,790,789,783,781,778,775,772,753,739,718,699,685,667,663,661,658,652,639,631,624,619,616,615,615,613,612,609,596,583,569,555,547,530,521,511],"ymouse":[522,522,522,521,521,521,521,521,520,520,517,516,513,512,508,483,454,407,366,336,293,271,259,244,222,167,138,116,101,93,92,92,91,91,91,91,95,99,101,102,103,100,96],"timestamp_mouse":[21,52,60,80,100,121,140,160,180,200,220,242,260,282,301,320,341,360,380,400,421,441,460,480,500,521,540,560,580,602,621,640,661,680,700,721,740,762,781,800,821,841,861],"xSR":741.5,"ySR":469.95,"xT1":424.9,"yT1":0,"xT2":1058.1,"yT2":0,"toosoon":0,"cond_shown":"Incongruent","ratio_trial":200,"L_num":6,"L_den":20,"R_num":3,"R_den":6,"correct_side":2,"subjID":"samuelricolopez10","gender":"0","school":"4","age":"8"},{"start_time":1552327375020,"click_time":1552327375860,"finger_time":1552327375420,"fix_duration":780.5865954999034,"trial":24,"RT":400,"MT":440,"sideResp":2,"stimulus":[],"xmouse":[770,770,770,770,770,770,770,770,770,770,768,767,765,765,765,765,765,765,765,818,865,900,925,947,947,947,947,947,947,947,950,954,961,968,976,985,990,997,1006,1036,1053,1063],"ymouse":[513,513,513,513,513,513,513,513,513,515,515,515,516,516,516,516,516,516,512,459,414,376,342,300,283,280,275,272,272,269,264,253,240,224,202,183,173,161,148,113,98,90],"timestamp_mouse":[19,40,59,79,100,119,140,161,179,200,219,240,260,279,300,319,340,361,380,400,421,439,460,482,500,519,539,560,579,600,619,639,659,681,699,719,740,760,779,799,819,840],"xSR":741.5,"ySR":469.95,"xT1":424.9,"yT1":0,"xT2":1058.1,"yT2":0,"toosoon":0,"cond_shown":"Incongruent","ratio_trial":100,"L_num":4,"L_den":8,"R_num":8,"R_den":20,"correct_side":1,"subjID":"samuelricolopez10","gender":"0","school":"4","age":"8"},{"start_time":1552327380179,"click_time":1552327382460,"finger_time":1552327381940,"fix_duration":316.224282346496,"trial":25,"RT":1761,"MT":520,"sideResp":1,"stimulus":[],"xmouse":[816,816,816,816,816,816,816,816,816,816,816,815,813,813,813,812,811,811,811,811,811,811,811,811,810,809,809,809,809,809,809,809,809,809,809,809,809,809,809,809,809,809,809,809,809,809,809,809,809,809,809,809,809,809,809,809,809,809,809,809,809,809,809,809,809,809,809,809,809,809,809,809,809,809,809,809,809,809,809,809,809,805,798,798,797,796,796,792,771,759,746,735,730,730,730,730,727,706,693,677,663,649,635,607,596,588,585,579,569,563,557,550,542,528,519],"ymouse":[525,525,525,525,525,525,525,525,525,525,525,525,525,526,526,527,527,527,527,527,527,527,527,527,527,527,527,527,527,527,527,527,527,527,527,527,527,527,527,527,527,527,527,527,527,527,527,527,527,527,527,527,527,527,527,527,527,527,527,527,527,527,527,527,527,527,527,527,527,527,527,527,527,527,527,527,527,527,527,527,527,527,523,523,522,521,520,516,440,403,381,357,323,305,284,254,217,170,149,127,106,91,79,58,51,47,46,46,45,44,43,42,40,38,35],"timestamp_mouse":[10,21,42,62,81,100,120,140,161,181,201,220,241,261,280,300,321,341,361,380,402,421,440,460,481,500,521,541,560,581,600,622,641,660,681,701,721,741,760,780,802,821,840,860,880,901,922,940,961,982,1000,1020,1041,1060,1081,1100,1121,1141,1161,1180,1200,1221,1241,1261,1281,1300,1321,1341,1361,1380,1401,1422,1440,1461,1480,1502,1522,1541,1560,1581,1602,1621,1641,1660,1681,1700,1720,1740,1761,1780,1800,1820,1842,1860,1881,1900,1920,1942,1960,1980,2000,2020,2041,2060,2081,2100,2120,2140,2160,2180,2201,2221,2241,2260,2280],"xSR":741.5,"ySR":469.95,"xT1":424.9,"yT1":0,"xT2":1058.1,"yT2":0,"toosoon":0,"cond_shown":"Incongruent","ratio_trial":100,"L_num":9,"L_den":15,"R_num":13,"R_den":26,"correct_side":1,"subjID":"samuelricolopez10","gender":"0","school":"4","age":"8"},{"start_time":1552327385472,"click_time":1552327387099,"finger_time":1552327386539,"fix_duration":250,"trial":26,"RT":1067,"MT":560,"sideResp":1,"stimulus":[],"xmouse":[816,816,816,816,816,816,816,816,816,816,816,816,816,816,816,816,814,812,805,800,791,785,782,782,782,782,782,780,778,776,776,776,776,776,776,776,776,776,776,776,776,776,776,776,776,776,776,776,776,784,803,821,833,847,849,849,848,843,841,833,826,822,818,809,801,794,784,771,741,722,708,698,688,682,679,671,652,630,602,543,530,523],"ymouse":[508,508,508,508,508,508,508,508,508,508,508,508,508,508,508,508,508,508,516,522,530,536,541,541,541,541,541,542,547,549,550,550,550,550,550,550,550,550,550,550,550,550,550,550,550,550,550,550,550,549,540,529,518,489,472,450,429,410,399,373,354,339,325,296,280,260,238,213,161,117,87,62,48,36,33,31,29,26,23,21,24,28],"timestamp_mouse":[10,27,48,67,88,107,128,148,169,188,207,228,249,267,288,307,328,349,367,388,408,427,447,467,487,507,529,547,567,588,608,628,647,668,688,708,728,748,768,787,808,828,848,868,887,908,928,948,967,987,1007,1028,1048,1067,1087,1108,1128,1148,1168,1188,1207,1228,1247,1267,1287,1307,1327,1349,1367,1387,1407,1428,1447,1468,1487,1508,1528,1549,1567,1588,1607,1627],"xSR":741.5,"ySR":469.95,"xT1":424.9,"yT1":0,"xT2":1058.1,"yT2":0,"toosoon":0,"cond_shown":"Incongruent","ratio_trial":100,"L_num":11,"L_den":22,"R_num":9,"R_den":15,"correct_side":2,"subjID":"samuelricolopez10","gender":"0","school":"4","age":"8"},{"start_time":1552327390219,"click_time":1552327391199,"finger_time":1552327390760,"fix_duration":698.0316648457732,"trial":27,"RT":541,"MT":439,"sideResp":2,"stimulus":[],"xmouse":[786,786,786,786,786,786,786,786,786,786,786,786,786,786,786,786,786,786,786,786,786,786,786,786,788,791,800,836,855,876,904,948,974,979,986,995,1011,1015,1017,1019,1019,1020,1021,1022,1023,1026,1030,1043,1052,1066],"ymouse":[512,512,512,512,512,512,512,512,512,512,512,512,512,512,512,512,512,512,512,512,512,512,512,512,511,507,498,455,431,390,337,258,199,186,175,163,142,138,134,132,130,129,127,127,125,122,117,105,94,76],"timestamp_mouse":[10,39,41,60,81,101,121,140,161,180,200,220,240,260,280,300,321,341,360,381,402,420,441,462,480,500,520,541,561,581,600,620,640,660,680,700,722,740,760,780,800,820,840,860,881,900,921,940,961,980],"xSR":741.5,"ySR":469.95,"xT1":424.9,"yT1":0,"xT2":1058.1,"yT2":0,"toosoon":0,"cond_shown":"Incongruent","ratio_trial":100,"L_num":2,"L_den":4,"R_num":8,"R_den":20,"correct_side":1,"subjID":"samuelricolopez10","gender":"0","school":"4","age":"8"},{"start_time":1552327395851,"click_time":1552327398180,"finger_time":1552327395875,"fix_duration":291.60897222946494,"trial":28,"RT":24,"MT":2305,"sideResp":1,"stimulus":[],"xmouse":[848,860,860,872,875,881,884,887,888,891,895,896,898,899,899,899,899,899,899,899,899,899,899,899,899,899,899,899,899,899,899,899,899,899,899,899,899,899,899,899,899,899,899,899,899,899,899,899,899,899,899,899,899,899,897,889,885,882,881,879,877,875,874,873,873,873,873,872,871,865,858,857,856,856,855,855,855,854,848,840,833,824,823,822,821,819,811,805,796,783,767,721,691,655,632,591,579,573,565,554,542,519,506,495,491,491,491,491,490,489,488,486,486,486,485,485,485],"ymouse":[548,552,552,554,554,554,552,551,550,548,546,546,546,546,546,546,546,546,546,546,546,546,546,546,546,546,545,545,545,545,545,545,545,545,545,545,545,545,545,545,545,543,541,541,541,541,541,541,541,541,541,541,541,540,540,539,537,537,537,537,537,537,537,537,537,537,537,537,537,533,530,530,530,530,530,530,530,530,528,528,528,527,526,525,525,522,511,502,493,478,461,423,374,327,305,280,274,269,264,257,250,237,226,217,212,201,192,181,169,159,152,142,140,138,136,112,98],"timestamp_mouse":[24,40,48,69,89,109,129,148,168,189,208,228,249,268,290,308,328,348,369,390,409,429,449,469,489,509,528,548,568,589,609,628,648,669,689,708,728,748,768,789,809,829,850,869,889,909,929,948,969,989,1008,1028,1049,1068,1089,1109,1130,1148,1169,1189,1209,1228,1249,1269,1290,1309,1329,1348,1368,1388,1409,1428,1449,1468,1489,1509,1529,1549,1568,1588,1608,1628,1649,1668,1689,1708,1728,1748,1770,1789,1808,1828,1849,1869,1888,1909,1928,1948,1969,1988,2008,2028,2048,2068,2088,2109,2128,2148,2169,2189,2209,2229,2250,2269,2288,2308,2328],"xSR":741.5,"ySR":469.95,"xT1":424.9,"yT1":0,"xT2":1058.1,"yT2":0,"toosoon":0,"cond_shown":"Congruent","ratio_trial":300,"L_num":2,"L_den":20,"R_num":10,"R_den":25,"correct_side":2,"subjID":"samuelricolopez10","gender":"0","school":"4","age":"8"},{"start_time":1552327402479,"click_time":1552327403379,"finger_time":1552327403100,"fix_duration":1398.166724434975,"trial":29,"RT":621,"MT":279,"sideResp":1,"stimulus":[],"xmouse":[795,795,795,795,795,794,794,793,792,792,789,789,789,789,787,785,783,783,783,783,783,783,783,783,783,783,783,782,783,783,781,770,751,733,722,698,688,677,664,652,634,610,588,559,531,504],"ymouse":[501,501,501,501,501,501,501,501,501,500,498,497,497,497,496,495,494,494,494,494,494,494,494,494,494,494,494,492,492,488,473,456,419,356,286,161,130,89,55,40,32,25,19,11,7,5],"timestamp_mouse":[11,38,40,60,80,101,122,142,161,181,200,220,242,260,280,300,321,340,361,380,401,420,440,461,480,500,522,541,561,581,600,621,640,661,680,700,720,740,761,780,801,820,840,860,880,900],"xSR":741.5,"ySR":469.95,"xT1":424.9,"yT1":0,"xT2":1058.1,"yT2":0,"toosoon":0,"cond_shown":"Congruent","ratio_trial":100,"L_num":1,"L_den":2,"R_num":18,"R_den":30,"correct_side":2,"subjID":"samuelricolopez10","gender":"0","school":"4","age":"8"},{"start_time":1552327409288,"click_time":1552327410120,"finger_time":1552327409760,"fix_duration":1466.6991492574537,"trial":30,"RT":472,"MT":360,"sideResp":2,"stimulus":[],"xmouse":[790,789,789,795,815,821,823,824,824,824,823,822,822,822,822,820,816,816,816,816,816,816,816,816,819,863,943,1016,1075,1161,1170,1172,1172,1172,1172,1172,1172,1172,1172,1172,1162,1144],"ymouse":[529,529,529,521,505,498,492,489,489,489,488,489,489,489,488,483,475,474,473,473,473,473,473,467,462,403,298,220,157,58,47,45,45,45,45,45,45,45,45,45,45,49],"timestamp_mouse":[18,48,52,73,93,112,132,153,172,193,212,232,254,273,292,312,333,353,372,393,414,433,453,472,493,512,532,552,573,594,612,632,652,673,692,712,733,753,773,794,813,832],"xSR":741.5,"ySR":469.95,"xT1":424.9,"yT1":0,"xT2":1058.1,"yT2":0,"toosoon":0,"cond_shown":"Incongruent","ratio_trial":100,"L_num":12,"L_den":24,"R_num":9,"R_den":15,"correct_side":2,"subjID":"samuelricolopez10","gender":"0","school":"4","age":"8"},{"start_time":1552327413972,"click_time":1552327415300,"finger_time":1552327414260,"fix_duration":250,"trial":31,"RT":288,"MT":1040,"sideResp":2,"stimulus":[],"xmouse":[822,826,827,827,829,830,832,835,835,835,835,835,835,834,834,833,833,833,833,833,833,833,831,830,830,828,827,827,832,833,832,824,824,824,824,824,824,824,826,827,830,841,850,864,881,903,955,975,987,993,1001,1004,1007,1007,1007,1007,1007,1005,1003,1003,1003,1012,1032,1044,1053,1058,1060],"ymouse":[534,530,528,528,523,519,515,507,502,500,497,488,482,475,469,462,452,451,449,449,449,449,448,448,448,448,455,468,483,488,491,496,496,496,496,496,496,496,496,496,496,491,484,473,458,439,387,359,339,321,260,237,220,214,211,207,196,188,180,172,162,142,112,99,88,77,70],"timestamp_mouse":[8,28,62,68,89,109,128,148,168,188,209,229,249,268,288,308,328,348,368,389,408,429,449,468,488,508,529,548,568,588,608,628,648,668,689,708,729,748,768,788,808,828,849,868,889,908,929,948,969,988,1008,1028,1048,1068,1089,1109,1129,1148,1168,1189,1209,1228,1248,1268,1289,1310,1328],"xSR":741.5,"ySR":469.95,"xT1":424.9,"yT1":0,"xT2":1058.1,"yT2":0,"toosoon":0,"cond_shown":"Congruent","ratio_trial":300,"L_num":1,"L_den":5,"R_num":3,"R_den":6,"correct_side":2,"subjID":"samuelricolopez10","gender":"0","school":"4","age":"8"},{"start_time":1552327418828,"click_time":1552327420040,"finger_time":1552327418980,"fix_duration":1246.555969389267,"trial":32,"RT":152,"MT":1060,"sideResp":1,"stimulus":[],"xmouse":[796,796,796,796,799,799,799,799,799,799,799,800,801,801,804,805,808,812,813,813,813,813,813,813,813,813,813,813,813,813,813,813,814,815,822,829,830,830,828,816,800,777,752,730,685,668,637,620,605,572,564,562,562,560,556,551,544,535,527,506,498],"ymouse":[503,503,502,501,493,483,474,467,459,450,447,444,442,440,434,429,423,410,406,399,398,398,398,398,398,398,398,398,398,398,398,398,397,397,385,374,364,354,343,323,313,303,293,283,261,245,219,209,203,189,184,182,179,169,148,138,130,124,120,107,99],"timestamp_mouse":[30,32,53,73,92,113,132,152,172,193,212,232,252,273,292,313,333,353,373,392,412,433,453,472,492,513,533,552,573,592,613,633,653,672,692,713,732,753,772,792,812,832,852,872,892,912,933,953,973,992,1013,1032,1053,1072,1092,1113,1132,1152,1173,1192,1212],"xSR":741.5,"ySR":469.95,"xT1":424.9,"yT1":0,"xT2":1058.1,"yT2":0,"toosoon":0,"cond_shown":"Incongruent","ratio_trial":100,"L_num":9,"L_den":18,"R_num":6,"R_den":10,"correct_side":2,"subjID":"samuelricolopez10","gender":"0","school":"4","age":"8"},{"start_time":1552327425776,"click_time":1552327427260,"finger_time":1552327426440,"fix_duration":1053.703572136148,"trial":33,"RT":664,"MT":820,"sideResp":2,"stimulus":[],"xmouse":[782,782,782,782,782,782,782,782,782,782,782,782,782,782,782,782,782,781,779,777,777,777,777,777,777,777,777,777,777,783,789,796,805,827,837,851,858,873,881,890,903,914,923,933,939,950,957,969,989,1000,1011,1024,1032,1037,1038,1043,1046,1052,1057,1057,1057,1057,1057,1057,1057,1057,1057,1057,1057,1057,1057,1057,1057,1058,1059],"ymouse":[530,530,530,530,530,530,530,530,530,530,530,530,530,530,530,530,530,530,530,530,530,530,530,530,530,530,530,530,531,531,529,519,498,449,430,402,384,349,333,314,291,268,249,227,220,208,199,181,146,131,115,94,72,54,51,41,33,25,11,7,7,7,7,8,10,10,10,10,10,10,10,12,14,22,25],"timestamp_mouse":[14,25,44,65,84,106,124,145,164,184,205,225,245,265,284,305,324,344,365,384,405,424,444,464,485,504,524,545,564,584,605,624,644,664,685,704,725,746,764,785,804,824,846,864,885,904,924,944,964,985,1005,1025,1044,1064,1084,1105,1124,1144,1164,1184,1204,1224,1244,1264,1284,1306,1325,1344,1365,1384,1404,1424,1444,1464,1484],"xSR":741.5,"ySR":469.95,"xT1":424.9,"yT1":0,"xT2":1058.1,"yT2":0,"toosoon":0,"cond_shown":"Incongruent","ratio_trial":200,"L_num":14,"L_den":30,"R_num":6,"R_den":9,"correct_side":2,"subjID":"samuelricolopez10","gender":"0","school":"4","age":"8"},{"start_time":1552327429771,"click_time":1552327430600,"finger_time":1552327430061,"fix_duration":1090.1060458579968,"trial":34,"RT":290,"MT":539,"sideResp":2,"stimulus":[],"xmouse":[807,805,804,804,803,803,803,803,803,803,803,803,806,817,833,847,865,889,941,956,969,976,981,984,985,988,990,991,995,998,1001,1003,1004,1015,1023,1028,1033,1037,1048,1056,1066,1075],"ymouse":[487,488,489,490,492,492,492,492,492,492,492,492,489,475,454,435,411,377,315,299,285,278,273,270,268,263,262,259,251,246,242,236,230,211,197,189,179,173,152,132,106,87],"timestamp_mouse":[11,29,50,69,89,110,129,150,170,190,209,229,250,269,290,309,329,349,369,389,409,429,450,469,489,509,529,549,569,589,609,629,650,669,689,709,729,749,770,790,809,829],"xSR":741.5,"ySR":469.95,"xT1":424.9,"yT1":0,"xT2":1058.1,"yT2":0,"toosoon":0,"cond_shown":"Congruent","ratio_trial":300,"L_num":20,"L_den":25,"R_num":14,"R_den":28,"correct_side":1,"subjID":"samuelricolopez10","gender":"0","school":"4","age":"8"},{"start_time":1552327438363,"click_time":1552327442441,"finger_time":1552327442000,"fix_duration":821.2533108620927,"trial":35,"RT":3637,"MT":441,"sideResp":1,"stimulus":[],"xmouse":[777,777,777,777,777,777,777,777,777,777,777,777,777,777,777,777,777,777,777,777,777,777,777,777,777,777,777,777,777,777,777,777,777,777,777,777,777,777,777,777,777,777,777,777,777,777,777,777,777,777,777,777,777,777,777,777,777,777,777,777,777,777,777,777,777,777,777,777,777,777,777,777,777,777,777,777,777,777,777,777,777,777,777,777,777,777,777,777,777,777,777,777,777,777,777,777,777,777,777,777,777,777,777,777,777,777,777,777,777,777,777,777,777,777,777,777,777,777,777,777,777,777,777,777,777,777,777,777,777,777,777,777,777,777,777,777,777,777,777,777,777,777,777,777,777,777,777,777,777,777,777,777,777,777,777,777,777,777,777,777,777,777,777,777,777,777,777,777,777,777,777,777,777,777,777,777,777,777,777,793,806,811,802,784,765,755,755,755,755,755,755,755,755,755,755,755,755,755,755,755,545,539,530,519],"ymouse":[554,554,554,554,554,554,554,554,554,554,554,554,554,554,554,554,554,554,554,554,554,554,554,554,554,554,554,554,554,554,554,554,554,554,554,554,554,554,554,554,554,554,554,554,554,554,554,554,554,554,554,554,554,554,554,554,554,554,554,554,554,554,554,554,554,554,554,554,554,554,554,554,554,554,554,554,554,554,554,554,554,554,554,554,554,554,554,554,554,554,554,554,554,554,554,554,554,554,554,554,554,554,554,554,554,554,554,554,554,554,554,554,554,554,554,554,554,554,554,554,554,554,554,554,554,554,554,554,554,554,554,554,554,554,554,554,554,554,554,554,554,554,554,554,554,554,554,554,554,554,554,554,554,554,554,554,554,554,554,554,554,554,554,554,554,554,554,554,554,554,554,554,554,554,554,554,554,554,554,541,512,445,343,216,91,7,7,7,7,7,7,7,7,7,7,7,7,7,7,7,0,17,34,52],"timestamp_mouse":[17,37,57,77,97,117,137,157,177,199,218,237,258,278,297,317,338,358,377,397,417,438,459,478,498,518,538,557,578,597,618,638,658,678,697,717,738,757,777,797,817,838,857,877,897,918,939,957,978,997,1018,1038,1058,1078,1097,1117,1138,1157,1178,1197,1218,1237,1257,1277,1298,1319,1338,1358,1378,1398,1418,1438,1457,1478,1497,1518,1537,1557,1578,1597,1617,1638,1657,1678,1697,1717,1738,1757,1778,1797,1817,1838,1857,1878,1898,1918,1938,1958,1979,1997,2017,2038,2057,2078,2097,2118,2137,2157,2178,2198,2217,2238,2257,2277,2297,2318,2337,2358,2378,2397,2418,2439,2457,2477,2497,2518,2537,2558,2577,2597,2618,2638,2658,2678,2697,2717,2737,2758,2777,2797,2818,2837,2857,2877,2897,2918,2939,2958,2978,2997,3017,3037,3058,3077,3097,3120,3138,3157,3177,3197,3217,3238,3257,3277,3297,3317,3338,3358,3377,3397,3417,3437,3459,3477,3497,3518,3537,3558,3578,3597,3618,3637,3658,3677,3699,3718,3739,3758,3778,3798,3818,3838,3858,3878,3897,3918,3937,3958,3977,3998,4017,4037,4058,4078],"xSR":741.5,"ySR":469.95,"xT1":424.9,"yT1":0,"xT2":1058.1,"yT2":0,"toosoon":0,"cond_shown":"Incongruent","ratio_trial":200,"L_num":14,"L_den":30,"R_num":6,"R_den":9,"correct_side":2,"subjID":"samuelricolopez10","gender":"0","school":"4","age":"8"},{"start_time":1552327447192,"click_time":1552327448360,"finger_time":1552327447901,"fix_duration":250,"trial":36,"RT":709,"MT":459,"sideResp":2,"stimulus":[],"xmouse":[794,794,794,794,794,794,794,794,794,794,794,794,794,794,794,794,794,794,794,794,794,794,794,794,794,794,794,794,794,794,794,794,794,794,808,827,847,869,898,933,985,998,1007,1009,1010,1011,1013,1020,1031,1062,1074,1086,1089,1090,1090,1090,1091,1093,1095],"ymouse":[538,538,538,538,539,539,539,539,539,539,539,539,539,539,539,539,539,539,539,539,539,539,539,539,539,539,539,539,539,539,539,539,538,535,500,456,422,391,358,311,221,195,181,177,176,175,173,167,157,135,124,113,108,106,105,105,104,101,96],"timestamp_mouse":[10,28,49,68,88,108,128,149,168,189,209,228,248,268,290,309,329,349,369,389,408,428,449,469,489,508,529,548,569,588,608,629,648,669,689,709,728,749,768,788,808,828,848,868,888,910,928,949,968,989,1008,1028,1049,1069,1089,1109,1128,1148,1168],"xSR":741.5,"ySR":469.95,"xT1":424.9,"yT1":0,"xT2":1058.1,"yT2":0,"toosoon":0,"cond_shown":"Incongruent","ratio_trial":200,"L_num":3,"L_den":4,"R_num":11,"R_den":20,"correct_side":1,"subjID":"samuelricolopez10","gender":"0","school":"4","age":"8"},{"start_time":1552327453506,"click_time":1552327456042,"finger_time":1552327455600,"fix_duration":1065.349269085081,"trial":37,"RT":2094,"MT":442,"sideResp":1,"stimulus":[],"xmouse":[822,822,822,822,822,822,822,822,822,822,822,822,822,822,822,822,822,822,822,822,822,822,822,822,822,822,822,822,822,822,822,822,822,822,822,822,822,822,822,822,822,822,822,822,822,822,822,822,822,822,822,822,822,822,822,822,822,822,822,822,822,822,822,822,822,822,822,822,822,822,822,822,822,822,822,822,822,822,822,822,822,822,822,822,822,822,822,822,821,818,812,808,805,803,797,795,793,790,787,784,784,784,782,782,773,765,753,744,730,707,699,699,699,699,699,699,699,699,699,699,699,699,699,699,699,494,490],"ymouse":[500,500,500,500,500,500,500,500,500,500,500,500,500,500,500,500,500,500,500,500,500,500,500,500,500,500,500,500,500,500,500,500,500,500,500,500,500,500,500,500,500,500,500,500,500,500,500,500,500,500,500,500,500,500,500,500,500,500,500,500,500,500,500,500,500,500,500,500,500,500,500,500,500,500,500,500,500,500,500,500,500,500,500,500,500,500,500,500,499,498,496,494,494,494,494,495,496,497,498,500,500,500,500,496,424,359,287,214,143,41,14,14,14,14,14,14,14,14,14,14,14,14,14,14,14,0,9],"timestamp_mouse":[15,43,54,74,94,114,135,155,175,196,214,235,255,274,296,315,335,354,375,394,415,434,456,475,495,514,535,555,574,595,614,634,655,674,694,714,734,754,774,794,815,834,855,875,894,914,934,956,976,994,1014,1035,1055,1075,1096,1115,1134,1154,1174,1195,1215,1234,1255,1274,1295,1314,1335,1355,1374,1394,1414,1434,1455,1474,1495,1515,1534,1556,1574,1594,1614,1635,1654,1674,1694,1714,1735,1755,1775,1794,1814,1835,1854,1874,1894,1915,1934,1954,1974,1994,2015,2034,2054,2074,2094,2115,2134,2155,2174,2194,2214,2235,2255,2275,2294,2314,2334,2355,2374,2395,2415,2434,2454,2474,2494,2514,2535],"xSR":741.5,"ySR":469.95,"xT1":424.9,"yT1":0,"xT2":1058.1,"yT2":0,"toosoon":0,"cond_shown":"Incongruent","ratio_trial":300,"L_num":4,"L_den":20,"R_num":2,"R_den":4,"correct_side":2,"subjID":"samuelricolopez10","gender":"0","school":"4","age":"8"},{"start_time":1552327461104,"click_time":1552327461760,"finger_time":1552327461580,"fix_duration":562.724556452473,"trial":38,"RT":476,"MT":180,"sideResp":2,"stimulus":[],"xmouse":[805,805,805,805,805,805,805,805,805,805,805,805,805,805,805,805,805,805,807,812,816,826,836,855,871,904,919,933,950,984,1003,1032,1064],"ymouse":[485,485,485,485,485,485,485,485,485,485,485,485,485,486,488,488,488,489,489,489,489,485,480,466,451,411,385,353,315,232,188,128,75],"timestamp_mouse":[17,36,56,77,96,116,138,156,176,198,216,237,257,278,297,317,336,357,376,397,417,436,456,476,496,516,536,556,576,598,617,638,656],"xSR":741.5,"ySR":469.95,"xT1":424.9,"yT1":0,"xT2":1058.1,"yT2":0,"toosoon":0,"cond_shown":"Congruent","ratio_trial":300,"L_num":2,"L_den":20,"R_num":10,"R_den":25,"correct_side":2,"subjID":"samuelricolopez10","gender":"0","school":"4","age":"8"},{"start_time":1552327463568,"click_time":1552327464301,"finger_time":1552327463980,"fix_duration":767.4156806635114,"trial":39,"RT":412,"MT":321,"sideResp":2,"stimulus":[],"xmouse":[768,768,768,768,768,768,769,769,769,769,769,769,769,770,773,775,779,793,804,824,842,867,934,955,968,973,980,998,1014,1046,1069,1093,1115,1122,1127,1132,1134],"ymouse":[560,560,560,560,560,563,563,563,563,563,563,563,563,563,561,560,557,544,531,503,472,424,312,275,256,249,240,220,208,185,172,154,133,121,112,100,94],"timestamp_mouse":[12,38,52,73,92,112,132,154,172,192,212,232,252,273,292,312,332,352,372,393,412,432,452,473,494,513,533,552,572,592,612,632,652,673,692,712,733],"xSR":741.5,"ySR":469.95,"xT1":424.9,"yT1":0,"xT2":1058.1,"yT2":0,"toosoon":0,"cond_shown":"Incongruent","ratio_trial":200,"L_num":7,"L_den":10,"R_num":14,"R_den":28,"correct_side":1,"subjID":"samuelricolopez10","gender":"0","school":"4","age":"8"},{"start_time":1552327469488,"click_time":1552327470181,"finger_time":1552327469722,"fix_duration":665.8356026698542,"trial":40,"RT":234,"MT":459,"sideResp":2,"stimulus":[],"xmouse":[797,797,797,797,797,798,800,810,820,833,839,847,863,872,881,889,912,925,943,962,998,1022,1046,1049,1050,1051,1051,1051,1051,1051,1052,1053,1056,1058,1059],"ymouse":[536,536,536,536,536,535,532,526,519,508,495,477,439,422,405,389,344,317,285,249,186,146,93,84,80,79,79,79,79,79,79,78,77,76,74],"timestamp_mouse":[14,42,54,73,94,114,134,153,174,193,215,234,254,274,294,313,335,354,374,394,414,434,453,475,494,513,534,553,574,593,613,633,654,675,693],"xSR":741.5,"ySR":469.95,"xT1":424.9,"yT1":0,"xT2":1058.1,"yT2":0,"toosoon":0,"cond_shown":"Incongruent","ratio_trial":300,"L_num":4,"L_den":20,"R_num":2,"R_den":4,"correct_side":2,"subjID":"samuelricolopez10","gender":"0","school":"4","age":"8"},{"start_time":1552327473687,"click_time":1552327474482,"finger_time":1552327474103,"fix_duration":440.6042732565577,"trial":41,"RT":416,"MT":379,"sideResp":2,"stimulus":[],"xmouse":[776,776,776,776,776,776,776,776,776,776,776,776,776,776,776,776,776,788,802,822,847,872,917,936,948,957,979,987,1026,1033,1038,1042,1047,1049,1051,1052,1054,1064,1068,1071],"ymouse":[490,490,490,490,490,490,490,490,490,490,490,490,490,490,490,490,489,489,489,489,489,486,469,455,439,419,365,345,259,236,215,198,174,163,153,143,132,106,100,95],"timestamp_mouse":[14,51,54,75,96,114,136,155,174,195,215,234,255,274,296,314,335,354,375,395,416,435,455,475,495,515,535,555,574,594,615,636,655,674,696,715,735,755,775,795],"xSR":741.5,"ySR":469.95,"xT1":424.9,"yT1":0,"xT2":1058.1,"yT2":0,"toosoon":0,"cond_shown":"Congruent","ratio_trial":300,"L_num":1,"L_den":3,"R_num":19,"R_den":30,"correct_side":2,"subjID":"samuelricolopez10","gender":"0","school":"4","age":"8"},{"start_time":1552327476170,"click_time":1552327477982,"finger_time":1552327476762,"fix_duration":726.3435831049363,"trial":42,"RT":592,"MT":1220,"sideResp":2,"stimulus":[],"xmouse":[803,800,800,793,791,788,787,785,783,782,782,782,782,782,783,784,786,788,790,791,791,792,792,792,792,792,791,788,782,768,761,753,743,718,707,693,680,667,660,651,647,638,631,623,602,591,582,574,564,544,537,535,535,535,535,535,537,557,596,738,869,912,1025,1098,1184,1203,1214,1224,1232,1239,1240,1242,1243,1243,1243,1240,1237,1235,1224,1214,1202,1191,1178,1172,1165,1163,1163,1163,1160,1159,1157],"ymouse":[494,501,501,515,520,523,526,529,534,535,535,535,535,535,534,532,530,528,526,524,522,521,519,518,512,508,501,495,485,459,443,425,403,333,295,256,230,214,206,204,204,203,203,203,210,211,212,213,216,219,220,220,220,220,220,220,221,224,229,252,265,265,261,241,204,191,178,163,153,144,142,140,137,137,134,130,127,125,122,120,118,114,107,105,101,98,97,95,89,87,85],"timestamp_mouse":[15,40,52,71,91,111,132,152,172,191,211,232,251,271,292,311,331,351,372,392,412,431,451,472,493,512,531,551,572,592,612,632,653,673,691,712,731,751,773,791,812,832,851,873,891,912,933,953,971,991,1012,1032,1053,1073,1093,1112,1131,1152,1172,1191,1212,1233,1251,1273,1293,1312,1333,1351,1371,1391,1411,1431,1451,1472,1492,1513,1532,1551,1573,1592,1612,1631,1651,1671,1691,1712,1732,1751,1774,1792,1812],"xSR":741.5,"ySR":469.95,"xT1":424.9,"yT1":0,"xT2":1058.1,"yT2":0,"toosoon":0,"cond_shown":"Incongruent","ratio_trial":100,"L_num":3,"L_den":6,"R_num":4,"R_den":10,"correct_side":1,"subjID":"samuelricolopez10","gender":"0","school":"4","age":"8"},{"start_time":1552327483166,"click_time":1552327483982,"finger_time":1552327483582,"fix_duration":483.7557821853935,"trial":43,"RT":416,"MT":400,"sideResp":2,"stimulus":[],"xmouse":[775,775,775,775,775,775,775,775,775,775,775,775,775,775,775,775,775,775,779,801,826,858,899,940,993,1003,1008,1012,1014,1019,1020,1022,1023,1024,1029,1033,1037,1044,1054,1071,1080],"ymouse":[525,525,525,525,525,525,525,525,525,525,525,525,525,525,525,525,525,525,522,492,462,423,370,308,228,211,201,196,194,189,186,184,182,180,171,165,157,146,131,109,98],"timestamp_mouse":[17,44,56,76,95,116,136,156,177,195,215,235,255,275,295,317,336,357,377,396,416,436,456,476,496,517,536,556,576,597,615,635,657,675,696,715,736,755,776,796,816],"xSR":741.5,"ySR":469.95,"xT1":424.9,"yT1":0,"xT2":1058.1,"yT2":0,"toosoon":0,"cond_shown":"Congruent","ratio_trial":200,"L_num":8,"L_den":15,"R_num":3,"R_den":9,"correct_side":1,"subjID":"samuelricolopez10","gender":"0","school":"4","age":"8"},{"start_time":1552327488496,"click_time":1552327491442,"finger_time":1552327488982,"fix_duration":732.8791219802908,"trial":44,"RT":486,"MT":2460,"sideResp":1,"stimulus":[],"xmouse":[782,782,782,782,782,782,782,782,782,782,782,782,782,782,782,782,782,782,782,782,782,791,805,813,816,816,816,816,816,816,816,816,816,816,816,815,811,807,804,804,804,804,804,804,804,804,804,804,804,804,804,804,804,804,804,804,804,804,804,804,804,804,803,803,803,803,803,803,803,803,803,802,802,801,798,798,798,798,798,798,798,798,798,798,798,798,798,798,798,798,798,798,798,798,798,798,798,798,798,798,798,798,798,798,798,798,801,807,810,812,812,812,812,812,812,812,814,816,817,819,819,819,820,830,862,866,868,869,873,879,869,853,842,825,767,713,664,664,664,664,664,664,664,664,601,595,572,516],"ymouse":[490,490,490,490,490,490,490,490,490,490,490,490,490,490,490,490,490,490,490,490,490,485,478,471,465,464,463,463,463,463,463,463,463,463,463,463,463,463,463,463,463,463,463,463,463,463,463,463,463,463,463,463,463,463,463,463,463,463,463,463,463,463,462,461,460,460,460,460,460,456,452,449,447,445,435,431,431,430,429,428,428,428,428,428,428,428,428,428,428,428,428,428,428,428,428,428,428,428,428,428,428,428,428,428,428,427,421,412,405,401,401,401,401,400,400,397,393,385,379,369,369,369,369,369,367,365,364,363,359,341,311,284,256,223,120,60,15,15,15,15,15,15,15,15,0,7,25,57],"timestamp_mouse":[12,36,46,65,86,105,126,146,166,185,206,226,247,266,286,306,327,346,365,385,405,426,447,465,486,506,526,547,566,586,605,625,646,667,687,706,727,747,766,786,805,825,845,866,886,906,926,947,966,986,1005,1025,1046,1065,1086,1105,1125,1145,1166,1186,1206,1226,1246,1266,1286,1305,1325,1345,1367,1387,1406,1425,1446,1465,1486,1506,1526,1545,1565,1586,1607,1627,1647,1666,1685,1705,1727,1747,1767,1786,1806,1826,1846,1865,1885,1905,1925,1945,1966,1987,2007,2027,2047,2067,2086,2107,2126,2146,2167,2185,2206,2226,2246,2267,2285,2307,2325,2345,2366,2386,2405,2427,2447,2466,2486,2507,2526,2546,2565,2586,2605,2625,2646,2665,2686,2705,2726,2746,2767,2786,2806,2827,2847,2865,2886,2905,2926,2945],"xSR":741.5,"ySR":469.95,"xT1":424.9,"yT1":0,"xT2":1058.1,"yT2":0,"toosoon":0,"cond_shown":"Incongruent","ratio_trial":300,"L_num":13,"L_den":26,"R_num":12,"R_den":15,"correct_side":2,"subjID":"samuelricolopez10","gender":"0","school":"4","age":"8"},{"start_time":1552327495961,"click_time":1552327497883,"finger_time":1552327496922,"fix_duration":936.3788380284843,"trial":45,"RT":961,"MT":961,"sideResp":2,"stimulus":[],"xmouse":[776,776,776,776,776,776,776,776,776,776,776,776,776,776,776,776,776,776,776,776,776,776,776,776,776,776,776,776,776,776,776,776,776,776,776,776,776,776,776,776,776,776,776,776,776,776,778,779,779,779,779,779,779,778,777,777,777,777,778,780,781,781,786,788,788,788,788,790,792,792,793,795,803,813,830,840,855,870,871,871,871,871,869,855,848,844,841,837,837,837,837,837,842,907,973,1052,1122],"ymouse":[536,536,536,536,536,536,536,536,536,536,536,536,536,536,536,536,536,536,536,536,536,536,536,536,536,536,536,536,536,536,536,536,536,532,527,527,527,527,527,527,527,527,527,527,525,517,504,476,467,456,449,444,443,443,443,442,439,429,425,421,417,411,392,374,363,351,342,321,304,286,270,257,236,220,195,183,168,152,151,151,151,151,151,154,157,158,159,159,159,159,159,159,150,110,86,64,46],"timestamp_mouse":[11,21,41,61,80,101,122,142,160,180,200,222,241,260,282,301,320,342,361,382,402,422,442,461,480,502,522,541,561,581,601,622,642,660,681,702,722,740,761,781,802,821,840,860,881,901,920,940,961,981,1001,1021,1040,1061,1082,1101,1120,1140,1160,1180,1200,1221,1241,1261,1282,1301,1320,1341,1360,1381,1401,1420,1440,1460,1481,1501,1520,1541,1560,1580,1600,1621,1640,1661,1680,1700,1722,1741,1761,1781,1800,1821,1840,1861,1880,1901,1922],"xSR":741.5,"ySR":469.95,"xT1":424.9,"yT1":0,"xT2":1058.1,"yT2":0,"toosoon":0,"cond_shown":"Congruent","ratio_trial":100,"L_num":15,"L_den":25,"R_num":13,"R_den":26,"correct_side":1,"subjID":"samuelricolopez10","gender":"0","school":"4","age":"8"},{"start_time":1552327506527,"click_time":1552327512223,"finger_time":1552327507003,"fix_duration":483.45115048838795,"trial":46,"RT":476,"MT":5220,"sideResp":1,"stimulus":[],"xmouse":[792,792,792,792,792,792,792,792,792,792,792,792,792,792,792,792,792,791,791,791,796,799,802,802,802,802,801,801,801,801,801,801,801,801,798,796,792,789,785,779,775,772,768,765,764,763,761,753,737,716,716,715,713,712,711,711,711,711,711,711,711,711,711,711,711,711,711,711,711,711,711,711,711,711,711,711,711,711,711,711,711,711,711,711,721,732,736,738,738,738,738,738,738,738,738,738,738,738,738,738,738,738,738,738,738,738,738,738,738,738,738,738,738,738,738,738,738,738,738,738,738,738,738,738,738,738,738,738,738,738,738,738,738,738,738,738,738,738,738,738,738,738,738,738,738,738,738,738,738,738,738,738,738,738,738,738,738,738,738,738,738,738,738,738,738,738,738,738,738,738,738,738,738,738,738,738,738,738,738,738,738,738,738,738,738,738,738,738,738,738,738,738,738,738,738,738,738,738,738,738,738,738,738,738,738,738,738,738,738,738,738,738,738,738,738,738,738,738,738,738,738,738,738,738,738,738,738,738,738,738,738,738,738,738,738,738,738,738,738,738,738,738,738,738,738,738,738,738,738,738,738,738,738,738,738,738,738,738,738,738,738,738,738,738,738,738,738,738,738,738,738,738,738,738,738,738,738,738,737,729,704,670,614,546,452],"ymouse":[528,528,528,528,528,528,528,528,528,528,528,528,528,528,528,528,528,527,525,518,502,490,475,461,439,436,434,432,432,432,432,432,431,431,431,431,431,431,431,431,430,429,427,425,425,425,425,427,440,461,461,461,456,453,447,447,447,447,447,447,447,447,447,447,447,447,447,447,447,447,447,447,447,447,447,447,447,447,447,447,447,447,447,445,426,409,401,399,399,399,399,399,399,399,399,399,399,399,399,399,399,399,399,399,399,399,399,399,399,399,399,399,399,399,399,399,399,399,399,399,399,399,399,399,399,399,399,399,399,399,399,399,399,399,399,399,399,399,399,399,399,399,399,399,399,399,399,399,399,399,399,399,399,399,399,399,399,399,399,399,399,399,399,399,399,399,399,399,399,399,399,399,399,399,399,399,399,399,399,399,399,399,399,399,399,399,399,399,399,399,399,399,399,399,399,399,399,399,399,399,399,399,399,399,399,399,399,399,399,399,399,399,399,399,399,399,399,399,399,399,399,399,399,399,399,399,399,399,399,399,399,399,399,399,399,399,399,399,399,399,399,399,399,399,399,399,399,399,399,399,399,399,399,399,399,399,399,399,399,399,399,399,399,399,399,399,399,399,399,399,399,399,399,399,399,399,397,388,385,372,329,276,197,109,9],"timestamp_mouse":[16,42,55,75,98,115,134,156,175,195,215,234,255,276,296,315,336,356,376,394,414,434,456,476,495,514,534,555,576,595,615,634,654,676,694,715,735,754,774,794,814,835,854,875,894,914,934,955,976,995,1015,1034,1055,1074,1095,1115,1136,1155,1174,1195,1214,1236,1255,1275,1294,1315,1335,1355,1376,1395,1416,1434,1454,1474,1494,1515,1535,1556,1575,1595,1615,1636,1655,1674,1695,1714,1736,1756,1776,1796,1816,1835,1856,1875,1895,1914,1934,1955,1976,1996,2016,2036,2055,2075,2095,2115,2135,2156,2175,2195,2216,2236,2255,2275,2295,2315,2334,2355,2375,2396,2415,2436,2454,2475,2495,2515,2536,2555,2575,2596,2615,2635,2656,2676,2695,2715,2735,2755,2775,2794,2814,2835,2856,2875,2894,2915,2934,2956,2975,2996,3016,3035,3054,3074,3095,3115,3136,3156,3176,3195,3215,3235,3254,3276,3295,3315,3335,3355,3374,3394,3414,3435,3454,3476,3496,3516,3536,3555,3575,3595,3616,3636,3655,3675,3696,3715,3734,3755,3774,3795,3816,3836,3855,3875,3895,3915,3935,3954,3975,3996,4015,4036,4055,4075,4094,4115,4134,4156,4176,4195,4215,4236,4255,4274,4295,4314,4335,4356,4376,4395,4416,4435,4455,4475,4495,4515,4535,4556,4576,4595,4616,4636,4655,4674,4695,4714,4735,4756,4775,4795,4814,4834,4855,4875,4896,4915,4936,4955,4974,4996,5015,5034,5055,5076,5095,5115,5135,5156,5175,5195,5215,5235,5255,5274,5295,5314,5336,5355,5374,5395,5415,5435,5454,5475,5496,5514,5534,5555,5575,5595,5616,5634,5654,5674,5696],"xSR":741.5,"ySR":469.95,"xT1":424.9,"yT1":0,"xT2":1058.1,"yT2":0,"toosoon":0,"cond_shown":"Congruent","ratio_trial":200,"L_num":8,"L_den":15,"R_num":3,"R_den":9,"correct_side":1,"subjID":"samuelricolopez10","gender":"0","school":"4","age":"8"},{"start_time":1552327517131,"click_time":1552327520382,"finger_time":1552327519182,"fix_duration":1309.5041341231768,"trial":47,"RT":2051,"MT":1200,"sideResp":2,"stimulus":[],"xmouse":[772,772,772,772,772,772,773,776,778,780,787,789,790,791,791,791,791,791,791,791,791,791,791,791,791,791,791,791,791,791,791,791,791,791,791,791,791,791,791,791,791,791,791,791,791,791,791,790,790,790,790,790,788,787,785,783,783,781,781,780,780,780,780,780,780,780,780,779,779,778,778,778,778,778,778,778,778,778,778,778,778,778,778,778,778,778,778,778,778,778,778,778,778,778,778,778,778,778,778,777,769,755,734,703,671,627,621,619,619,619,619,616,614,612,611,611,611,611,611,610,608,606,599,587,583,576,576,576,578,588,602,630,641,651,658,696,711,729,747,764,782,787,789,790,791,796,819,835,864,899,1001,1034,1058,1069,1074,1074,1076,1079,1085,1086,1083,1074,1065],"ymouse":[510,510,510,510,510,510,510,510,510,510,512,512,513,513,513,513,513,513,513,513,513,513,513,513,513,513,513,513,513,513,513,513,514,515,516,518,518,518,518,519,519,519,519,519,519,519,519,519,519,519,519,519,519,519,519,519,519,520,520,520,520,520,520,520,520,520,520,520,520,520,520,520,520,520,520,520,520,520,520,520,520,520,520,520,520,520,520,520,520,520,520,520,520,520,520,520,520,520,520,520,510,491,465,430,393,335,319,312,302,291,261,248,243,237,237,236,236,236,236,235,232,226,209,171,161,143,143,143,143,143,144,151,153,155,154,137,130,124,120,116,111,109,108,108,108,108,112,117,124,141,182,191,195,196,196,196,190,177,164,148,120,107,96],"timestamp_mouse":[14,43,50,71,91,112,131,150,170,191,211,231,252,270,291,311,331,350,370,391,411,430,450,471,490,511,532,551,572,590,610,632,650,671,691,710,731,751,770,791,810,831,851,872,890,911,932,952,971,992,1012,1031,1050,1070,1090,1110,1132,1151,1171,1191,1211,1232,1250,1270,1292,1312,1331,1350,1372,1391,1410,1431,1451,1472,1491,1510,1530,1551,1572,1591,1612,1632,1652,1671,1691,1711,1732,1752,1770,1792,1811,1832,1851,1870,1891,1910,1932,1951,1971,1991,2010,2031,2051,2072,2091,2111,2131,2151,2171,2190,2211,2230,2251,2270,2290,2311,2332,2351,2371,2391,2411,2430,2450,2470,2492,2511,2531,2552,2572,2590,2611,2632,2651,2670,2690,2712,2730,2750,2772,2790,2812,2830,2851,2870,2891,2911,2931,2952,2970,2992,3011,3031,3051,3072,3091,3111,3132,3150,3170,3192,3212,3231,3251],"xSR":741.5,"ySR":469.95,"xT1":424.9,"yT1":0,"xT2":1058.1,"yT2":0,"toosoon":0,"cond_shown":"Incongruent","ratio_trial":200,"L_num":7,"L_den":15,"R_num":6,"R_den":9,"correct_side":2,"subjID":"samuelricolopez10","gender":"0","school":"4","age":"8"},{"start_time":1552327529084,"click_time":1552327533203,"finger_time":1552327530202,"fix_duration":1220.6086025278912,"trial":48,"RT":1118,"MT":3001,"sideResp":2,"stimulus":[],"xmouse":[781,781,781,781,781,781,781,781,781,781,780,779,779,778,777,776,776,775,775,774,773,772,771,771,771,770,769,769,769,769,769,768,768,768,768,768,768,768,768,768,768,768,768,768,768,768,768,768,768,768,768,768,771,772,776,778,779,779,780,780,780,781,782,782,783,784,785,787,790,795,797,802,805,810,826,835,839,840,842,843,845,846,848,851,856,859,860,863,870,875,880,883,885,887,888,888,888,888,888,888,888,888,888,888,888,888,888,888,888,888,888,888,886,883,882,880,879,878,877,875,875,873,873,873,872,872,871,869,867,867,866,865,864,862,856,852,847,843,839,830,824,822,818,816,816,816,816,816,816,816,815,809,801,781,771,765,759,756,755,754,754,754,754,754,754,754,753,750,743,724,708,701,696,694,692,692,692,692,692,692,692,706,721,741,789,812,839,862,881,920,936,953,970,990,1035,1060,1079,1089,1094,1098,1099,1099,1100,1103,1113,1117],"ymouse":[507,507,507,507,507,507,507,507,507,507,507,507,507,507,507,507,507,507,507,507,506,504,502,498,498,496,496,495,494,492,491,488,487,487,487,487,486,486,486,486,486,486,486,486,486,486,486,486,486,485,485,485,485,483,475,467,459,454,444,440,436,428,425,420,412,407,401,393,376,363,359,352,349,338,302,291,284,279,274,262,255,252,243,234,216,206,198,190,169,159,148,139,129,124,123,122,122,122,122,122,122,121,120,120,120,120,120,120,120,119,119,119,119,117,116,115,114,114,114,114,114,114,114,114,114,113,113,113,112,112,112,111,106,100,87,81,76,73,71,68,68,68,68,68,68,68,68,68,68,68,67,61,55,46,43,42,41,40,40,40,40,40,40,40,40,40,40,40,40,40,40,43,44,46,46,46,46,46,46,46,48,52,56,63,83,93,105,112,118,129,131,132,132,132,129,125,122,118,115,113,113,113,112,109,102,97],"timestamp_mouse":[18,37,57,79,98,119,138,158,178,197,218,239,258,277,297,319,338,358,378,397,419,438,458,478,499,518,538,558,579,598,618,640,658,679,698,719,739,760,778,798,819,838,859,879,899,919,938,959,979,999,1019,1040,1059,1078,1098,1118,1138,1158,1180,1198,1218,1238,1259,1279,1298,1318,1339,1358,1380,1398,1418,1439,1458,1479,1500,1520,1539,1558,1579,1599,1619,1638,1659,1679,1698,1719,1738,1759,1781,1798,1819,1840,1859,1880,1898,1918,1938,1959,1979,1998,2018,2039,2058,2078,2099,2120,2139,2158,2178,2199,2218,2239,2259,2280,2298,2318,2339,2359,2379,2399,2418,2439,2459,2479,2498,2518,2538,2559,2578,2599,2619,2639,2659,2678,2698,2718,2739,2758,2779,2798,2818,2839,2859,2878,2898,2919,2938,2959,2980,2998,3019,3039,3059,3080,3098,3119,3139,3159,3178,3199,3219,3238,3258,3280,3298,3318,3338,3359,3378,3398,3419,3438,3458,3478,3499,3518,3538,3559,3578,3602,3618,3638,3659,3678,3699,3718,3740,3759,3779,3798,3819,3838,3859,3880,3899,3918,3938,3958,3978,3998,4018,4038,4058,4080,4099,4119],"xSR":741.5,"ySR":469.95,"xT1":424.9,"yT1":0,"xT2":1058.1,"yT2":0,"toosoon":0,"cond_shown":"Congruent","ratio_trial":300,"L_num":4,"L_den":10,"R_num":1,"R_den":10,"correct_side":1,"subjID":"samuelricolopez10","gender":"0","school":"4","age":"8"},{"start_time":1552327539127,"click_time":1552327550903,"finger_time":1552327541802,"fix_duration":1303.177370577338,"trial":49,"RT":2675,"MT":9101,"sideResp":2,"stimulus":[],"xmouse":[789,789,789,789,789,789,789,789,789,789,789,789,789,789,789,789,789,789,789,789,789,789,789,789,789,789,789,789,789,789,789,789,789,789,789,789,789,789,789,789,789,789,789,789,789,789,789,789,789,789,789,789,789,789,789,789,789,789,789,789,789,789,789,789,789,789,789,789,789,789,789,789,789,789,789,789,789,789,789,789,789,789,789,789,789,789,789,789,789,789,789,789,789,789,789,789,789,789,789,789,789,789,789,789,789,789,789,789,789,789,789,789,789,789,789,789,789,789,789,789,789,789,789,789,789,789,789,789,789,789,789,790,799,869,877,891,895,895,895,895,895,895,895,895,895,895,895,895,895,895,895,895,895,895,895,895,895,895,895,895,895,895,895,895,895,895,895,895,895,895,895,895,895,895,895,895,895,895,895,895,895,895,895,895,895,897,907,924,954,965,973,974,975,978,978,978,978,978,978,978,978,978,978,978,978,978,978,978,978,978,978,978,978,978,978,978,978,978,978,978,978,978,978,978,978,978,978,978,978,978,978,978,978,978,978,978,978,978,978,978,978,978,978,978,978,978,978,978,978,978,978,978,978,978,978,978,978,978,978,978,978,978,978,978,978,978,978,978,978,978,978,978,978,978,978,978,978,978,978,978,978,978,978,978,978,978,978,978,978,978,978,978,978,978,978,978,978,978,978,978,978,978,978,978,978,978,978,978,978,978,978,978,978,978,978,978,978,978,978,978,978,978,978,978,978,978,978,978,978,978,978,978,978,978,978,978,978,978,978,978,978,978,978,978,978,978,978,978,978,978,978,978,978,978,978,978,978,978,978,978,978,978,978,978,978,978,978,978,978,978,978,978,978,978,978,978,978,978,978,978,978,978,978,978,978,978,978,978,978,978,978,978,978,978,978,978,978,978,978,978,978,978,978,978,978,978,978,978,978,978,978,978,978,978,978,978,978,978,978,978,978,978,978,978,978,978,978,978,978,978,978,978,978,978,978,978,978,978,978,978,978,978,978,978,978,978,978,978,978,978,978,978,978,978,978,978,978,978,978,978,978,978,978,978,978,978,978,978,978,978,978,978,978,978,978,978,978,978,978,978,978,978,978,978,978,978,978,978,978,978,978,978,978,978,978,978,978,978,978,978,978,978,978,978,978,978,978,978,978,978,978,978,978,978,978,978,978,978,978,978,978,978,978,978,978,978,978,978,978,978,978,978,978,978,978,978,978,978,978,978,978,978,978,978,978,978,978,978,978,978,978,978,978,978,978,978,978,978,984,995,998,1004,1014,1019,1002,981,965,952,946,944,944,943,942,941,928,923,921,921,921,925,931,934,936,942,970,998,1028,1054,1083],"ymouse":[531,531,531,531,531,531,531,531,531,531,531,531,531,531,531,531,531,531,531,531,531,531,531,531,531,531,531,531,531,532,532,532,532,532,532,532,532,532,532,532,532,532,532,532,532,532,532,532,532,532,532,532,532,532,532,532,532,532,532,532,532,532,532,532,532,532,532,532,532,532,532,532,532,532,532,532,532,532,532,532,532,532,532,532,532,532,532,532,532,532,532,532,532,532,532,532,532,532,532,532,532,532,532,532,532,532,532,532,532,532,532,532,532,532,532,532,532,532,532,532,532,532,532,532,532,532,532,532,532,532,532,532,532,550,553,558,558,558,558,558,558,558,558,558,558,558,558,558,558,558,558,558,558,55