[{"start_time":1552327486838,"click_time":1552327497869,"finger_time":1552327486873,"fix_duration":642.5413730117624,"trial":0,"RT":35,"MT":10996,"sideResp":1,"stimulus":[],"xmouse":[717,723,740,754,779,795,815,851,866,883,898,904,905,903,899,894,887,873,866,860,854,847,836,832,832,832,835,842,846,850,855,862,879,889,892,894,894,894,894,894,894,894,894,894,894,894,894,895,896,897,897,897,896,896,898,902,907,912,915,921,927,934,936,937,938,938,938,938,938,938,935,930,919,916,916,915,911,904,900,897,894,892,889,889,889,889,889,889,889,889,889,889,889,889,889,889,889,889,889,889,889,889,888,885,883,875,865,845,837,829,820,814,807,804,803,803,803,801,801,800,800,800,798,798,797,796,795,795,795,795,795,795,795,795,795,795,794,794,794,794,794,794,794,794,794,794,794,794,794,794,794,794,794,793,793,793,793,793,793,793,793,793,793,793,793,793,793,793,793,793,793,793,793,793,793,793,793,793,793,793,793,793,793,793,793,793,793,793,793,793,793,793,793,793,793,793,793,793,793,793,793,793,793,793,793,793,793,793,793,793,793,793,793,793,793,793,793,793,793,793,793,793,793,793,793,793,793,793,793,793,793,793,793,793,793,793,793,793,793,793,793,793,793,793,793,793,793,793,793,793,793,793,793,793,793,793,793,793,793,793,793,793,793,793,793,793,793,793,793,793,793,793,793,793,793,795,796,800,800,800,800,779,692,669,657,650,645,640,640,640,640,639,629,625,620,616,611,596,453,320,188,46,39,38,43,54,69,117,145,180,219,277,312,375,398,423,444,486,503,519,545,561,575,600,606,609,610,614,616,616,617,617,617,617,617,618,618,623,627,634,635,638,639,640,640,641,642,643,645,646,646,647,648,648,641,629,612,588,549,546,547,565,578,610,625,638,644,653,657,660,662,664,666,667,668,668,661,650,626,611,583,565,551,539,537,537,544,564,631,677,746,782,804,832,840,848,857,879,891,900,912,920,930,936,940,942,942,942,941,940,940,939,939,939,939,939,939,939,939,939,939,939,933,933,933,933,933,933,933,933,933,933,935,937,940,940,940,940,940,940,940,940,940,940,940,940,940,940,943,947,949,950,951,951,951,951,951,951,951,951,951,951,951,951,949,941,930,919,892,874,860,847,832,828,827,825,823,822,821,820,818,816,816,814,813,812,812,812,811,811,811,811,810,809,809,809,809,809,809,809,809,809,809,809,809,809,809,809,809,809,809,809,809,809,805,800,788,773,682,628,576,546,530,518,518,517,516,515,512,511,511,511,513,521,524,526,527,528,529,530,530,530,530,530,529,528,528,528,526,525,524],"ymouse":[473,485,507,519,529,530,530,518,504,483,460,446,434,432,424,421,418,417,417,417,418,422,434,447,459,471,483,500,508,514,520,526,533,535,535,535,535,535,535,535,535,535,535,535,534,534,534,534,529,521,515,509,498,498,498,498,498,498,498,499,501,505,508,509,511,512,512,512,514,515,517,520,525,526,526,527,532,546,558,569,580,589,600,603,604,605,606,606,606,606,606,606,606,606,606,606,606,606,606,606,606,605,598,596,594,592,589,586,586,586,586,586,586,586,586,586,586,587,587,588,589,590,591,594,595,598,599,602,604,605,606,607,607,607,607,608,609,609,610,610,610,611,611,612,612,612,612,613,613,613,613,613,613,614,615,616,616,616,616,617,617,617,618,618,619,620,620,621,621,621,622,622,623,623,624,624,625,626,626,626,626,626,626,626,626,626,627,627,627,627,627,627,627,627,627,627,627,627,627,627,627,627,627,627,627,627,627,627,627,627,627,627,627,627,627,627,627,627,627,627,627,627,627,627,627,627,627,627,627,627,627,627,627,627,627,627,627,627,627,627,627,627,627,627,627,627,627,627,627,627,627,627,627,627,627,627,627,627,627,627,627,627,627,627,627,627,627,627,627,627,627,627,627,627,627,623,617,581,555,509,425,339,205,182,172,166,162,159,159,159,159,159,164,168,171,174,175,175,127,65,5,0,0,0,11,27,50,116,149,184,215,257,279,309,315,323,330,342,346,350,355,355,355,349,345,342,341,336,333,331,330,329,329,329,329,328,328,329,333,342,345,350,352,353,354,356,359,364,370,372,372,372,372,367,354,338,321,306,287,286,286,290,304,361,387,404,414,425,429,430,431,432,432,433,433,432,429,425,418,418,418,424,441,511,545,575,606,645,731,771,814,830,839,842,842,840,839,831,823,816,803,792,766,747,729,712,694,681,661,655,654,651,643,640,638,638,637,636,636,636,635,632,629,629,629,629,629,629,629,629,629,629,629,629,631,631,631,631,631,631,631,631,631,631,631,631,631,631,631,630,630,629,629,629,629,629,629,629,629,629,629,629,629,629,628,622,614,604,584,572,565,559,553,552,552,552,552,553,554,556,560,562,564,568,570,572,574,575,578,580,580,580,581,582,582,583,583,583,583,583,583,583,583,583,583,584,584,584,584,584,584,584,584,584,580,573,559,544,463,416,369,334,311,290,290,288,284,278,257,250,242,231,224,208,201,194,188,183,173,164,157,151,145,133,129,125,121,119,110,100,94],"timestamp_mouse":[34,53,72,91,111,132,151,171,191,211,231,251,271,291,311,332,352,372,392,413,432,452,473,491,511,531,551,572,591,612,632,652,673,692,712,733,752,772,792,812,832,852,872,893,912,932,952,971,991,1012,1032,1051,1072,1093,1112,1133,1153,1172,1192,1211,1233,1253,1272,1292,1311,1332,1353,1372,1393,1411,1431,1453,1471,1492,1511,1531,1552,1572,1592,1612,1632,1652,1671,1692,1713,1732,1751,1772,1792,1812,1831,1852,1872,1893,1912,1931,1952,1972,1992,2012,2031,2053,2072,2091,2111,2131,2152,2171,2191,2212,2233,2252,2271,2291,2311,2331,2352,2372,2393,2412,2432,2452,2471,2492,2511,2531,2553,2572,2593,2611,2633,2651,2671,2692,2712,2731,2751,2772,2791,2811,2832,2852,2872,2891,2913,2932,2951,2971,2992,3012,3033,3052,3073,3093,3111,3132,3152,3172,3193,3212,3231,3252,3271,3293,3313,3333,3352,3372,3393,3413,3431,3452,3472,3493,3511,3531,3552,3572,3591,3612,3631,3652,3673,3691,3712,3731,3752,3772,3793,3812,3831,3851,3871,3891,3912,3931,3952,3972,3992,4013,4031,4052,4073,4093,4112,4132,4153,4172,4192,4212,4232,4253,4272,4292,4311,4331,4352,4371,4392,4413,4431,4451,4473,4491,4511,4533,4551,4572,4591,4611,4631,4651,4671,4692,4711,4732,4753,4771,4791,4813,4832,4852,4873,4891,4912,4931,4951,4972,4992,5011,5032,5051,5072,5093,5111,5131,5152,5173,5192,5211,5231,5251,5272,5292,5312,5331,5352,5371,5391,5411,5432,5451,5472,5492,5512,5532,5551,5571,5591,5612,5633,5652,5672,5691,5711,5731,5751,5771,5791,5811,5831,5852,5871,5893,5911,5931,5952,5971,5991,6011,6032,6051,6072,6091,6112,6131,6152,6171,6191,6211,6232,6251,6272,6292,6311,6331,6352,6371,6392,6413,6431,6451,6471,6492,6511,6532,6553,6572,6591,6611,6631,6651,6672,6691,6711,6732,6752,6773,6791,6812,6833,6852,6871,6891,6912,6932,6953,6972,6991,7012,7031,7051,7072,7091,7112,7131,7153,7172,7192,7212,7231,7252,7272,7291,7311,7333,7351,7372,7391,7411,7432,7452,7471,7493,7512,7532,7553,7571,7593,7612,7633,7653,7673,7692,7712,7732,7752,7772,7792,7812,7832,7852,7871,7892,7911,7932,7953,7972,7991,8012,8031,8052,8072,8091,8112,8132,8152,8171,8191,8212,8231,8251,8272,8291,8311,8331,8352,8372,8391,8411,8432,8453,8472,8491,8511,8532,8551,8572,8592,8612,8632,8652,8671,8692,8711,8731,8752,8772,8792,8811,8833,8852,8873,8891,8911,8931,8952,8972,8992,9012,9032,9052,9072,9091,9111,9131,9151,9172,9192,9213,9233,9253,9272,9292,9311,9331,9352,9372,9392,9412,9432,9452,9473,9492,9513,9533,9551,9571,9591,9611,9631,9652,9671,9692,9712,9733,9752,9772,9792,9812,9832,9852,9872,9892,9911,9932,9952,9971,9992,10011,10032,10053,10072,10091,10111,10132,10153,10172,10192,10212,10232,10251,10271,10293,10311,10332,10351,10372,10392,10413,10431,10453,10471,10491,10511,10532,10551,10572,10592,10612,10632,10652,10673,10691,10711,10733,10752,10772,10791,10811,10831,10852,10871,10892,10912,10932,10953,10972,10993,11013,11031],"xSR":741.5,"ySR":469.95,"xT1":424.9,"yT1":0,"xT2":1058.1,"yT2":0,"toosoon":0,"cond_shown":"Incongruent","ratio_trial":100,"L_num":6,"L_den":12,"R_num":3,"R_den":5,"correct_side":2,"subjID":"SamuelSanchezPaz29","gender":"0","age":"9","school":"4","test":{"fix_dur":[250,1500],"timestim":1000,"targets_dim":[100,100],"targets_relative_coord":[0.3,0.7],"size_stim":[880,420],"start_dim":[100,100],"size_start":[300,300],"size_fix":60,"samplingrate":20,"img_types":["Congruent","Incongruent"],"ratios":[100,200,300],"rep_conds":19,"nTrials":120,"trials_to_rest":500,"Trials_order":[109,27,24,103,58,91,0,22,76,19,81,53,89,69,70,86,118,105,95,66,100,44,99,88,110,50,62,57,33,75,98,23,43,56,115,3,30,55,25,77,9,92,39,101,93,106,116,85,63,18,32,83,54,26,52,10,42,59,114,49,79,4,78,47,11,51,64,73,119,90,104,96,31,37,38,111,8,28,41,113,20,16,82,13,36,71,112,65,29,1,45,5,107,40,117,68,108,48,12,6,15,46,84,34,35,67,60,80,102,61,14,17,72,7,97,94,2,74,87,21],"cond_shown":["Incongruent","Incongruent","Congruent","Incongruent","Congruent","Incongruent","Congruent","Congruent","Congruent","Incongruent","Incongruent","Incongruent","Incongruent","Incongruent","Congruent","Congruent","Congruent","Incongruent","Incongruent","Congruent","Congruent","Congruent","Incongruent","Congruent","Congruent","Congruent","Congruent","Incongruent","Incongruent","Incongruent","Congruent","Incongruent","Incongruent","Congruent","Incongruent","Incongruent","Congruent","Incongruent","Incongruent","Incongruent","Incongruent","Congruent","Incongruent","Incongruent","Incongruent","Congruent","Congruent","Incongruent","Incongruent","Congruent","Congruent","Incongruent","Congruent","Congruent","Congruent","Congruent","Congruent","Incongruent","Congruent","Incongruent","Incongruent","Congruent","Congruent","Incongruent","Incongruent","Incongruent","Congruent","Incongruent","Incongruent","Congruent","Congruent","Congruent","Incongruent","Incongruent","Congruent","Incongruent","Congruent","Congruent","Incongruent","Incongruent","Congruent","Congruent","Congruent","Incongruent","Congruent","Incongruent","Congruent","Incongruent","Incongruent","Incongruent","Incongruent","Incongruent","Incongruent","Congruent","Incongruent","Congruent","Congruent","Congruent","Congruent","Congruent","Incongruent","Congruent","Congruent","Congruent","Incongruent","Incongruent","Congruent","Congruent","Congruent","Incongruent","Congruent","Incongruent","Congruent","Incongruent","Incongruent","Congruent","Congruent","Congruent","Incongruent","Incongruent"],"ratio_trial":[100,200,100,100,300,100,100,300,300,100,200,300,300,200,300,200,300,200,300,100,300,200,200,300,200,200,200,200,200,200,200,300,100,200,100,200,100,100,100,300,200,200,200,300,200,300,200,100,200,100,200,300,100,200,300,300,100,300,100,100,100,300,100,300,300,200,300,100,300,100,200,100,100,100,200,200,200,300,300,300,200,300,300,100,100,300,300,300,300,100,200,300,300,300,200,200,100,100,100,100,200,300,100,300,300,100,100,200,100,100,200,300,100,100,100,300,200,200,200,200],"left_num":[6,3,15,10,5,10,9,7,18,8,7,8,13,4,20,12,4,1,2,6,5,16,7,7,9,16,1,3,9,7,11,4,9,6,8,7,7,10,13,4,6,12,11,4,14,1,3,9,7,11,3,4,7,6,9,5,12,4,4,1,13,4,6,13,7,7,1,9,4,15,1,7,1,8,3,4,5,3,8,13,3,1,2,2,10,4,11,4,13,1,7,8,4,8,4,7,4,11,11,9,7,11,2,5,13,8,3,12,1,12,13,4,15,9,17,1,5,3,7,7],"right_num":[3,11,13,8,7,9,8,20,9,6,12,14,12,6,5,6,13,2,6,15,6,12,14,20,13,9,21,11,8,8,3,2,14,7,1,6,15,9,12,2,3,6,3,6,12,19,7,14,12,6,14,2,15,11,3,7,13,2,6,8,6,1,5,12,8,4,7,6,2,13,21,15,8,1,11,14,14,4,9,12,7,6,10,8,3,2,1,2,12,8,4,9,2,10,14,2,6,6,4,8,8,4,6,7,12,6,2,6,18,9,14,2,13,13,10,6,14,7,4,8],"left_den":[12,4,25,25,25,25,15,14,20,16,10,10,26,5,25,20,20,3,4,12,25,20,10,14,30,30,2,4,15,10,22,20,15,12,20,15,14,25,26,20,20,20,20,5,30,3,10,15,10,22,6,20,14,20,10,25,30,20,8,2,26,10,20,26,10,15,20,18,20,25,2,14,2,20,10,6,10,6,10,26,10,5,20,4,25,20,22,20,26,2,15,10,20,15,6,21,8,22,22,15,10,22,5,25,26,16,6,20,2,24,26,20,25,15,30,5,10,10,15,10],"right_den":[5,20,26,16,14,18,16,25,15,10,24,28,15,10,10,15,26,15,30,25,12,20,28,25,26,27,30,20,10,16,10,4,28,10,2,9,25,18,20,4,6,15,4,12,18,30,14,28,24,15,20,4,25,22,5,14,26,4,10,20,10,10,25,15,20,6,20,10,4,26,30,25,20,2,22,30,20,5,18,15,14,12,25,20,10,4,5,4,15,20,6,18,4,12,30,15,10,15,10,16,16,20,12,14,15,10,5,15,30,15,20,4,26,26,15,12,20,14,6,16],"correct_side":[2,1,1,2,2,2,1,2,1,2,1,1,2,1,1,1,2,1,1,2,2,1,1,2,2,1,2,1,2,1,1,2,1,2,2,2,2,2,2,2,2,1,2,1,2,2,2,1,1,1,2,2,2,2,1,2,2,2,2,1,2,1,1,2,1,2,2,2,2,1,2,2,1,2,2,1,2,2,1,2,2,2,2,1,1,2,1,2,2,1,2,1,2,2,1,1,2,1,1,1,1,1,2,2,2,2,1,1,2,2,2,2,1,1,2,2,2,2,2,1],"img_shown":["img2/100/Incongruent/R/I_Dist_100_LN_6_LD_12_RN_3_RD_5_1.png","img2/200/Incongruent/L/I_Dist_200_LN_3_LD_4_RN_11_RD_20_0.png","img2/100/Congruent/L/C_Dist_100_LN_15_LD_25_RN_13_RD_26_0.png","img2/100/Incongruent/R/I_Dist_100_LN_10_LD_25_RN_8_RD_16_1.png","img2/300/Congruent/R/C_Dist_300_LN_5_LD_25_RN_7_RD_14_1.png","img2/100/Incongruent/R/I_Dist_100_LN_10_LD_25_RN_9_RD_18_1.png","img2/100/Congruent/L/C_Dist_100_LN_9_LD_15_RN_8_RD_16_0.png","img2/300/Congruent/R/C_Dist_300_LN_7_LD_14_RN_20_RD_25_1.png","img2/300/Congruent/L/C_Dist_300_LN_18_LD_20_RN_9_RD_15_0.png","img2/100/Incongruent/R/I_Dist_100_LN_8_LD_16_RN_6_RD_10_1.png","img2/200/Incongruent/L/I_Dist_200_LN_7_LD_10_RN_12_RD_24_0.png","img2/300/Incongruent/L/I_Dist_300_LN_8_LD_10_RN_14_RD_28_0.png","img2/300/Incongruent/R/I_Dist_300_LN_13_LD_26_RN_12_RD_15_1.png","img2/200/Incongruent/L/I_Dist_200_LN_4_LD_5_RN_6_RD_10_0.png","img2/300/Congruent/L/C_Dist_300_LN_20_LD_25_RN_5_RD_10_0.png","img2/200/Congruent/L/C_Dist_200_LN_12_LD_20_RN_6_RD_15_0.png","img2/300/Congruent/R/C_Dist_300_LN_4_LD_20_RN_13_RD_26_1.png","img2/200/Incongruent/L/I_Dist_200_LN_1_LD_3_RN_2_RD_15_0.png","img2/300/Incongruent/L/I_Dist_300_LN_2_LD_4_RN_6_RD_30_0.png","img2/100/Congruent/R/C_Dist_100_LN_6_LD_12_RN_15_RD_25_1.png","img2/300/Congruent/R/C_Dist_300_LN_5_LD_25_RN_6_RD_12_1.png","img2/200/Congruent/L/C_Dist_200_LN_16_LD_20_RN_12_RD_20_0.png","img2/200/Incongruent/L/I_Dist_200_LN_7_LD_10_RN_14_RD_28_0.png","img2/300/Congruent/R/C_Dist_300_LN_7_LD_14_RN_20_RD_25_1.png","img2/200/Congruent/R/C_Dist_200_LN_9_LD_30_RN_13_RD_26_1.png","img2/200/Congruent/L/C_Dist_200_LN_16_LD_30_RN_9_RD_27_0.png","img2/200/Congruent/R/C_Dist_200_LN_1_LD_2_RN_21_RD_30_1.png","img2/200/Incongruent/L/I_Dist_200_LN_3_LD_4_RN_11_RD_20_0.png","img2/200/Incongruent/R/I_Dist_200_LN_9_LD_15_RN_8_RD_10_1.png","img2/200/Incongruent/L/I_Dist_200_LN_7_LD_10_RN_8_RD_16_0.png","img2/200/Congruent/L/C_Dist_200_LN_11_LD_22_RN_3_RD_10_0.png","img2/300/Incongruent/R/I_Dist_300_LN_4_LD_20_RN_2_RD_4_1.png","img2/100/Incongruent/L/I_Dist_100_LN_9_LD_15_RN_14_RD_28_0.png","img2/200/Congruent/R/C_Dist_200_LN_6_LD_12_RN_7_RD_10_1.png","img2/100/Incongruent/R/I_Dist_100_LN_8_LD_20_RN_1_RD_2_1.png","img2/200/Incongruent/R/I_Dist_200_LN_7_LD_15_RN_6_RD_9_1.png","img2/100/Congruent/R/C_Dist_100_LN_7_LD_14_RN_15_RD_25_1.png","img2/100/Incongruent/R/I_Dist_100_LN_10_LD_25_RN_9_RD_18_1.png","img2/100/Incongruent/R/I_Dist_100_LN_13_LD_26_RN_12_RD_20_1.png","img2/300/Incongruent/R/I_Dist_300_LN_4_LD_20_RN_2_RD_4_1.png","img2/200/Incongruent/R/I_Dist_200_LN_6_LD_20_RN_3_RD_6_1.png","img2/200/Congruent/L/C_Dist_200_LN_12_LD_20_RN_6_RD_15_0.png","img2/200/Incongruent/R/I_Dist_200_LN_11_LD_20_RN_3_RD_4_1.png","img2/300/Incongruent/L/I_Dist_300_LN_4_LD_5_RN_6_RD_12_0.png","img2/200/Incongruent/R/I_Dist_200_LN_14_LD_30_RN_12_RD_18_1.png","img2/300/Congruent/R/C_Dist_300_LN_1_LD_3_RN_19_RD_30_1.png","img2/200/Congruent/R/C_Dist_200_LN_3_LD_10_RN_7_RD_14_1.png","img2/100/Incongruent/L/I_Dist_100_LN_9_LD_15_RN_14_RD_28_0.png","img2/200/Incongruent/L/I_Dist_200_LN_7_LD_10_RN_12_RD_24_0.png","img2/100/Congruent/L/C_Dist_100_LN_11_LD_22_RN_6_RD_15_0.png","img2/200/Congruent/R/C_Dist_200_LN_3_LD_6_RN_14_RD_20_1.png","img2/300/Incongruent/R/I_Dist_300_LN_4_LD_20_RN_2_RD_4_1.png","img2/100/Congruent/R/C_Dist_100_LN_7_LD_14_RN_15_RD_25_1.png","img2/200/Congruent/R/C_Dist_200_LN_6_LD_20_RN_11_RD_22_1.png","img2/300/Congruent/L/C_Dist_300_LN_9_LD_10_RN_3_RD_5_0.png","img2/300/Congruent/R/C_Dist_300_LN_5_LD_25_RN_7_RD_14_1.png","img2/100/Congruent/R/C_Dist_100_LN_12_LD_30_RN_13_RD_26_1.png","img2/300/Incongruent/R/I_Dist_300_LN_4_LD_20_RN_2_RD_4_1.png","img2/100/Congruent/R/C_Dist_100_LN_4_LD_8_RN_6_RD_10_1.png","img2/100/Incongruent/L/I_Dist_100_LN_1_LD_2_RN_8_RD_20_0.png","img2/100/Incongruent/R/I_Dist_100_LN_13_LD_26_RN_6_RD_10_1.png","img2/300/Congruent/L/C_Dist_300_LN_4_LD_10_RN_1_RD_10_0.png","img2/100/Congruent/L/C_Dist_100_LN_6_LD_20_RN_5_RD_25_0.png","img2/300/Incongruent/R/I_Dist_300_LN_13_LD_26_RN_12_RD_15_1.png","img2/300/Incongruent/L/I_Dist_300_LN_7_LD_10_RN_8_RD_20_0.png","img2/200/Incongruent/R/I_Dist_200_LN_7_LD_15_RN_4_RD_6_1.png","img2/300/Congruent/R/C_Dist_300_LN_1_LD_20_RN_7_RD_20_1.png","img2/100/Incongruent/R/I_Dist_100_LN_9_LD_18_RN_6_RD_10_1.png","img2/300/Incongruent/R/I_Dist_300_LN_4_LD_20_RN_2_RD_4_1.png","img2/100/Congruent/L/C_Dist_100_LN_15_LD_25_RN_13_RD_26_0.png","img2/200/Congruent/R/C_Dist_200_LN_1_LD_2_RN_21_RD_30_1.png","img2/100/Congruent/R/C_Dist_100_LN_7_LD_14_RN_15_RD_25_1.png","img2/100/Incongruent/L/I_Dist_100_LN_1_LD_2_RN_8_RD_20_0.png","img2/100/Incongruent/R/I_Dist_100_LN_8_LD_20_RN_1_RD_2_1.png","img2/200/Congruent/R/C_Dist_200_LN_3_LD_10_RN_11_RD_22_1.png","img2/200/Incongruent/L/I_Dist_200_LN_4_LD_6_RN_14_RD_30_0.png","img2/200/Congruent/R/C_Dist_200_LN_5_LD_10_RN_14_RD_20_1.png","img2/300/Congruent/R/C_Dist_300_LN_3_LD_6_RN_4_RD_5_1.png","img2/300/Incongruent/L/I_Dist_300_LN_8_LD_10_RN_9_RD_18_0.png","img2/300/Incongruent/R/I_Dist_300_LN_13_LD_26_RN_12_RD_15_1.png","img2/200/Congruent/R/C_Dist_200_LN_3_LD_10_RN_7_RD_14_1.png","img2/300/Congruent/R/C_Dist_300_LN_1_LD_5_RN_6_RD_12_1.png","img2/300/Congruent/R/C_Dist_300_LN_2_LD_20_RN_10_RD_25_1.png","img2/100/Incongruent/L/I_Dist_100_LN_2_LD_4_RN_8_RD_20_0.png","img2/100/Congruent/L/C_Dist_100_LN_10_LD_25_RN_3_RD_10_0.png","img2/300/Incongruent/R/I_Dist_300_LN_4_LD_20_RN_2_RD_4_1.png","img2/300/Congruent/L/C_Dist_300_LN_11_LD_22_RN_1_RD_5_0.png","img2/300/Incongruent/R/I_Dist_300_LN_4_LD_20_RN_2_RD_4_1.png","img2/300/Incongruent/R/I_Dist_300_LN_13_LD_26_RN_12_RD_15_1.png","img2/100/Incongruent/L/I_Dist_100_LN_1_LD_2_RN_8_RD_20_0.png","img2/200/Incongruent/R/I_Dist_200_LN_7_LD_15_RN_4_RD_6_1.png","img2/300/Incongruent/L/I_Dist_300_LN_8_LD_10_RN_9_RD_18_0.png","img2/300/Incongruent/R/I_Dist_300_LN_4_LD_20_RN_2_RD_4_1.png","img2/300/Congruent/R/C_Dist_300_LN_8_LD_15_RN_10_RD_12_1.png","img2/200/Incongruent/L/I_Dist_200_LN_4_LD_6_RN_14_RD_30_0.png","img2/200/Congruent/L/C_Dist_200_LN_7_LD_21_RN_2_RD_15_0.png","img2/100/Congruent/R/C_Dist_100_LN_4_LD_8_RN_6_RD_10_1.png","img2/100/Congruent/L/C_Dist_100_LN_11_LD_22_RN_6_RD_15_0.png","img2/100/Congruent/L/C_Dist_100_LN_11_LD_22_RN_4_RD_10_0.png","img2/100/Congruent/L/C_Dist_100_LN_9_LD_15_RN_8_RD_16_0.png","img2/200/Incongruent/L/I_Dist_200_LN_7_LD_10_RN_8_RD_16_0.png","img2/300/Congruent/L/C_Dist_300_LN_11_LD_22_RN_4_RD_20_0.png","img2/100/Congruent/R/C_Dist_100_LN_2_LD_5_RN_6_RD_12_1.png","img2/300/Congruent/R/C_Dist_300_LN_5_LD_25_RN_7_RD_14_1.png","img2/300/Incongruent/R/I_Dist_300_LN_13_LD_26_RN_12_RD_15_1.png","img2/100/Incongruent/R/I_Dist_100_LN_8_LD_16_RN_6_RD_10_1.png","img2/100/Congruent/L/C_Dist_100_LN_3_LD_6_RN_2_RD_5_0.png","img2/200/Congruent/L/C_Dist_200_LN_12_LD_20_RN_6_RD_15_0.png","img2/100/Congruent/R/C_Dist_100_LN_1_LD_2_RN_18_RD_30_1.png","img2/100/Incongruent/R/I_Dist_100_LN_12_LD_24_RN_9_RD_15_1.png","img2/200/Congruent/R/C_Dist_200_LN_13_LD_26_RN_14_RD_20_1.png","img2/300/Incongruent/R/I_Dist_300_LN_4_LD_20_RN_2_RD_4_1.png","img2/100/Congruent/L/C_Dist_100_LN_15_LD_25_RN_13_RD_26_0.png","img2/100/Incongruent/L/I_Dist_100_LN_9_LD_15_RN_13_RD_26_0.png","img2/100/Incongruent/R/I_Dist_100_LN_17_LD_30_RN_10_RD_15_1.png","img2/300/Congruent/R/C_Dist_300_LN_1_LD_5_RN_6_RD_12_1.png","img2/200/Congruent/R/C_Dist_200_LN_5_LD_10_RN_14_RD_20_1.png","img2/200/Congruent/R/C_Dist_200_LN_3_LD_10_RN_7_RD_14_1.png","img2/200/Incongruent/R/I_Dist_200_LN_7_LD_15_RN_4_RD_6_1.png","img2/200/Incongruent/L/I_Dist_200_LN_7_LD_10_RN_8_RD_16_0.png"],"dist100_C":[["C_Dist_100_LN_10_LD_25_RN_3_RD_10_0.png","C_Dist_100_LN_11_LD_22_RN_4_RD_10_0.png","C_Dist_100_LN_11_LD_22_RN_6_RD_15_0.png","C_Dist_100_LN_15_LD_25_RN_13_RD_26_0.png","C_Dist_100_LN_3_LD_6_RN_2_RD_5_0.png","C_Dist_100_LN_6_LD_20_RN_5_RD_25_0.png","C_Dist_100_LN_8_LD_16_RN_2_RD_5_0.png","C_Dist_100_LN_9_LD_15_RN_8_RD_16_0.png"],["C_Dist_100_LN_1_LD_2_RN_18_RD_30_1.png","C_Dist_100_LN_1_LD_2_RN_3_RD_5_1.png","C_Dist_100_LN_12_LD_30_RN_13_RD_26_1.png","C_Dist_100_LN_2_LD_5_RN_11_RD_22_1.png","C_Dist_100_LN_2_LD_5_RN_6_RD_12_1.png","C_Dist_100_LN_3_LD_20_RN_4_RD_16_1.png","C_Dist_100_LN_4_LD_10_RN_15_RD_30_1.png","C_Dist_100_LN_4_LD_8_RN_6_RD_10_1.png","C_Dist_100_LN_6_LD_12_RN_15_RD_25_1.png","C_Dist_100_LN_7_LD_14_RN_15_RD_25_1.png","C_Dist_100_LN_7_LD_14_RN_9_RD_15_1.png"]],"dist100_I":[["I_Dist_100_LN_1_LD_2_RN_8_RD_20_0.png","I_Dist_100_LN_2_LD_4_RN_6_RD_15_0.png","I_Dist_100_LN_2_LD_4_RN_8_RD_20_0.png","I_Dist_100_LN_3_LD_5_RN_11_RD_22_0.png","I_Dist_100_LN_3_LD_5_RN_8_RD_16_0.png","I_Dist_100_LN_3_LD_6_RN_4_RD_10_0.png","I_Dist_100_LN_3_LD_9_RN_7_RD_30_0.png","I_Dist_100_LN_4_LD_8_RN_8_RD_20_0.png","I_Dist_100_LN_6_LD_10_RN_11_RD_22_0.png","I_Dist_100_LN_6_LD_10_RN_13_RD_26_0.png","I_Dist_100_LN_6_LD_10_RN_7_RD_14_0.png","I_Dist_100_LN_9_LD_10_RN_20_RD_25_0.png","I_Dist_100_LN_9_LD_15_RN_13_RD_26_0.png","I_Dist_100_LN_9_LD_15_RN_14_RD_28_0.png"],["I_Dist_100_LN_10_LD_25_RN_8_RD_16_1.png","I_Dist_100_LN_10_LD_25_RN_9_RD_18_1.png","I_Dist_100_LN_11_LD_22_RN_9_RD_15_1.png","I_Dist_100_LN_12_LD_24_RN_9_RD_15_1.png","I_Dist_100_LN_12_LD_30_RN_2_RD_4_1.png","I_Dist_100_LN_13_LD_26_RN_12_RD_20_1.png","I_Dist_100_LN_13_LD_26_RN_6_RD_10_1.png","I_Dist_100_LN_17_LD_30_RN_10_RD_15_1.png","I_Dist_100_LN_6_LD_12_RN_3_RD_5_1.png","I_Dist_100_LN_8_LD_16_RN_6_RD_10_1.png","I_Dist_100_LN_8_LD_20_RN_1_RD_2_1.png","I_Dist_100_LN_9_LD_18_RN_6_RD_10_1.png"]],"dist100_S":[["E_Dist_100_LN_2_LD_12_RN_2_RD_30_0.png","E_Dist_100_LN_6_LD_10_RN_6_RD_12_0.png"],["E_Dist_100_LN_6_LD_12_RN_6_RD_10_1.png"]],"dist200_C":[["C_Dist_200_LN_11_LD_22_RN_3_RD_10_0.png","C_Dist_200_LN_12_LD_15_RN_6_RD_10_0.png","C_Dist_200_LN_12_LD_20_RN_6_RD_15_0.png","C_Dist_200_LN_14_LD_28_RN_6_RD_20_0.png","C_Dist_200_LN_15_LD_25_RN_4_RD_10_0.png","C_Dist_200_LN_16_LD_20_RN_12_RD_20_0.png","C_Dist_200_LN_16_LD_30_RN_9_RD_27_0.png","C_Dist_200_LN_20_LD_25_RN_9_RD_15_0.png","C_Dist_200_LN_21_LD_30_RN_2_RD_4_0.png","C_Dist_200_LN_4_LD_10_RN_3_RD_15_0.png","C_Dist_200_LN_4_LD_8_RN_3_RD_10_0.png","C_Dist_200_LN_6_LD_15_RN_3_RD_15_0.png","C_Dist_200_LN_7_LD_21_RN_2_RD_15_0.png","C_Dist_200_LN_8_LD_15_RN_2_RD_6_0.png","C_Dist_200_LN_8_LD_15_RN_3_RD_9_0.png","C_Dist_200_LN_8_LD_15_RN_7_RD_21_0.png","C_Dist_200_LN_9_LD_20_RN_4_RD_16_0.png"],["C_Dist_200_LN_1_LD_2_RN_21_RD_30_1.png","C_Dist_200_LN_13_LD_26_RN_14_RD_20_1.png","C_Dist_200_LN_3_LD_10_RN_11_RD_22_1.png","C_Dist_200_LN_3_LD_10_RN_14_RD_28_1.png","C_Dist_200_LN_3_LD_10_RN_7_RD_14_1.png","C_Dist_200_LN_3_LD_12_RN_9_RD_20_1.png","C_Dist_200_LN_3_LD_6_RN_14_RD_20_1.png","C_Dist_200_LN_5_LD_10_RN_14_RD_20_1.png","C_Dist_200_LN_6_LD_12_RN_7_RD_10_1.png","C_Dist_200_LN_6_LD_20_RN_11_RD_22_1.png","C_Dist_200_LN_7_LD_15_RN_18_RD_27_1.png","C_Dist_200_LN_9_LD_30_RN_13_RD_26_1.png"]],"dist200_I":[["I_Dist_200_LN_1_LD_2_RN_3_RD_10_0.png","I_Dist_200_LN_1_LD_3_RN_2_RD_15_0.png","I_Dist_200_LN_3_LD_4_RN_11_RD_20_0.png","I_Dist_200_LN_4_LD_5_RN_6_RD_10_0.png","I_Dist_200_LN_4_LD_6_RN_14_RD_30_0.png","I_Dist_200_LN_7_LD_10_RN_12_RD_24_0.png","I_Dist_200_LN_7_LD_10_RN_14_RD_28_0.png","I_Dist_200_LN_7_LD_10_RN_8_RD_16_0.png"],["I_Dist_200_LN_11_LD_20_RN_3_RD_4_1.png","I_Dist_200_LN_14_LD_30_RN_12_RD_18_1.png","I_Dist_200_LN_14_LD_30_RN_6_RD_9_1.png","I_Dist_200_LN_3_LD_10_RN_1_RD_2_1.png","I_Dist_200_LN_4_LD_30_RN_1_RD_3_1.png","I_Dist_200_LN_6_LD_20_RN_3_RD_6_1.png","I_Dist_200_LN_7_LD_15_RN_4_RD_6_1.png","I_Dist_200_LN_7_LD_15_RN_6_RD_9_1.png","I_Dist_200_LN_9_LD_15_RN_8_RD_10_1.png"]],"dist200_S":[["E_Dist_200_LN_3_LD_6_RN_3_RD_10_0.png"],["E_Dist_200_LN_3_LD_10_RN_3_RD_6_1.png"]],"dist300_C":[["C_Dist_300_LN_11_LD_22_RN_1_RD_5_0.png","C_Dist_300_LN_11_LD_22_RN_2_RD_10_0.png","C_Dist_300_LN_11_LD_22_RN_4_RD_20_0.png","C_Dist_300_LN_12_LD_24_RN_2_RD_10_0.png","C_Dist_300_LN_18_LD_20_RN_9_RD_15_0.png","C_Dist_300_LN_20_LD_25_RN_13_RD_26_0.png","C_Dist_300_LN_20_LD_25_RN_14_RD_28_0.png","C_Dist_300_LN_20_LD_25_RN_5_RD_10_0.png","C_Dist_300_LN_20_LD_25_RN_8_RD_16_0.png","C_Dist_300_LN_20_LD_25_RN_9_RD_18_0.png","C_Dist_300_LN_24_LD_30_RN_2_RD_4_0.png","C_Dist_300_LN_24_LD_30_RN_8_RD_16_0.png","C_Dist_300_LN_3_LD_6_RN_2_RD_10_0.png","C_Dist_300_LN_4_LD_10_RN_1_RD_10_0.png","C_Dist_300_LN_4_LD_5_RN_2_RD_4_0.png","C_Dist_300_LN_8_LD_16_RN_1_RD_5_0.png","C_Dist_300_LN_9_LD_10_RN_3_RD_5_0.png"],["C_Dist_300_LN_1_LD_20_RN_7_RD_20_1.png","C_Dist_300_LN_1_LD_3_RN_19_RD_30_1.png","C_Dist_300_LN_1_LD_30_RN_8_RD_24_1.png","C_Dist_300_LN_1_LD_5_RN_11_RD_22_1.png","C_Dist_300_LN_1_LD_5_RN_3_RD_6_1.png","C_Dist_300_LN_1_LD_5_RN_6_RD_12_1.png","C_Dist_300_LN_2_LD_10_RN_12_RD_24_1.png","C_Dist_300_LN_2_LD_20_RN_10_RD_25_1.png","C_Dist_300_LN_3_LD_12_RN_11_RD_20_1.png","C_Dist_300_LN_3_LD_6_RN_4_RD_5_1.png","C_Dist_300_LN_4_LD_20_RN_13_RD_26_1.png","C_Dist_300_LN_5_LD_25_RN_6_RD_12_1.png","C_Dist_300_LN_5_LD_25_RN_7_RD_14_1.png","C_Dist_300_LN_7_LD_14_RN_20_RD_25_1.png","C_Dist_300_LN_8_LD_15_RN_10_RD_12_1.png"]],"dist300_I":[["I_Dist_300_LN_1_LD_2_RN_2_RD_10_0.png","I_Dist_300_LN_1_LD_2_RN_3_RD_15_0.png","I_Dist_300_LN_2_LD_4_RN_6_RD_30_0.png","I_Dist_300_LN_3_LD_6_RN_4_RD_20_0.png","I_Dist_300_LN_4_LD_5_RN_6_RD_12_0.png","I_Dist_300_LN_4_LD_5_RN_8_RD_16_0.png","I_Dist_300_LN_7_LD_10_RN_8_RD_20_0.png","I_Dist_300_LN_8_LD_10_RN_14_RD_28_0.png","I_Dist_300_LN_8_LD_10_RN_9_RD_18_0.png"],["I_Dist_300_LN_13_LD_26_RN_12_RD_15_1.png","I_Dist_300_LN_4_LD_20_RN_2_RD_4_1.png"]],"dist300_S":[["E_Dist_300_LN_9_LD_12_RN_9_RD_20_0.png"],["E_Dist_300_LN_18_LD_30_RN_18_RD_20_1.png","E_Dist_300_LN_3_LD_10_RN_3_RD_5_1.png","E_Dist_300_LN_9_LD_20_RN_9_RD_12_1.png"]],"dist500_C":[["C_Dist_500_LN_10_LD_13_RN_7_RD_26_0.png","C_Dist_500_LN_10_LD_15_RN_4_RD_24_0.png","C_Dist_500_LN_12_LD_16_RN_3_RD_12_0.png","C_Dist_500_LN_12_LD_18_RN_4_RD_24_0.png","C_Dist_500_LN_15_LD_18_RN_5_RD_15_0.png","C_Dist_500_LN_15_LD_20_RN_1_RD_4_0.png","C_Dist_500_LN_18_LD_27_RN_1_RD_6_0.png","C_Dist_500_LN_20_LD_24_RN_1_RD_3_0.png","C_Dist_500_LN_20_LD_24_RN_3_RD_9_0.png","C_Dist_500_LN_20_LD_24_RN_7_RD_21_0.png","C_Dist_500_LN_20_LD_28_RN_3_RD_14_0.png","C_Dist_500_LN_21_LD_28_RN_6_RD_24_0.png","C_Dist_500_LN_22_LD_28_RN_2_RD_7_0.png","C_Dist_500_LN_25_LD_30_RN_9_RD_27_0.png","C_Dist_500_LN_4_LD_6_RN_1_RD_6_0.png","C_Dist_500_LN_5_LD_6_RN_2_RD_6_0.png","C_Dist_500_LN_6_LD_9_RN_1_RD_6_0.png","C_Dist_500_LN_7_LD_10_RN_1_RD_5_0.png","C_Dist_500_LN_8_LD_12_RN_1_RD_6_0.png","C_Dist_500_LN_8_LD_12_RN_4_RD_24_0.png"],["C_Dist_500_LN_1_LD_4_RN_12_RD_16_1.png","C_Dist_500_LN_1_LD_4_RN_9_RD_12_1.png","C_Dist_500_LN_1_LD_9_RN_11_RD_18_1.png","C_Dist_500_LN_10_LD_24_RN_22_RD_24_1.png","C_Dist_500_LN_2_LD_12_RN_10_RD_15_1.png","C_Dist_500_LN_2_LD_12_RN_12_RD_18_1.png","C_Dist_500_LN_2_LD_12_RN_4_RD_6_1.png","C_Dist_500_LN_2_LD_24_RN_7_RD_12_1.png","C_Dist_500_LN_2_LD_5_RN_18_RD_20_1.png","C_Dist_500_LN_2_LD_5_RN_9_RD_10_1.png","C_Dist_500_LN_2_LD_8_RN_12_RD_16_1.png","C_Dist_500_LN_2_LD_8_RN_21_RD_28_1.png","C_Dist_500_LN_3_LD_10_RN_4_RD_5_1.png","C_Dist_500_LN_3_LD_12_RN_15_RD_20_1.png","C_Dist_500_LN_3_LD_30_RN_6_RD_10_1.png","C_Dist_500_LN_3_LD_8_RN_14_RD_16_1.png","C_Dist_500_LN_4_LD_16_RN_15_RD_20_1.png","C_Dist_500_LN_4_LD_24_RN_12_RD_18_1.png","C_Dist_500_LN_5_LD_14_RN_6_RD_7_1.png","C_Dist_500_LN_7_LD_21_RN_20_RD_24_1.png","C_Dist_500_LN_7_LD_28_RN_12_RD_16_1.png","C_Dist_500_LN_7_LD_28_RN_9_RD_12_1.png","C_Dist_500_LN_9_LD_27_RN_20_RD_24_1.png"]],"dist500_I":[["I_Dist_500_LN_2_LD_3_RN_4_RD_24_0.png","I_Dist_500_LN_5_LD_6_RN_6_RD_18_0.png","I_Dist_500_LN_7_LD_8_RN_9_RD_24_0.png"],["I_Dist_500_LN_7_LD_21_RN_5_RD_6_1.png"]],"dist500_S":[["E_Dist_500_LN_6_LD_8_RN_6_RD_24_0.png"],["E_Dist_500_LN_2_LD_12_RN_2_RD_3_1.png","E_Dist_500_LN_6_LD_24_RN_6_RD_8_1.png"]]}},{"start_time":1552327500657,"click_time":1552327505150,"finger_time":1552327504371,"fix_duration":947.892871782275,"trial":1,"RT":3714,"MT":779,"sideResp":2,"stimulus":[],"xmouse":[772,772,772,772,772,772,771,770,768,767,766,766,766,765,765,765,765,765,765,765,765,765,765,765,765,765,765,765,765,764,764,764,764,764,764,764,764,764,764,764,764,764,764,764,764,764,764,764,764,764,764,764,764,764,764,764,764,764,764,764,763,763,763,763,763,763,763,763,763,763,763,763,763,763,763,763,763,763,763,763,763,763,763,763,763,763,763,763,763,763,763,763,763,763,762,762,762,762,762,762,762,762,762,762,762,762,762,762,762,762,762,762,762,762,762,762,762,762,762,762,762,763,763,763,764,765,766,766,767,771,774,776,777,778,779,779,779,779,779,779,779,779,779,779,779,779,779,779,779,779,779,779,779,779,779,779,779,779,779,779,779,779,779,779,779,779,779,779,779,779,779,779,779,779,779,779,779,780,780,781,782,783,785,787,791,796,800,804,808,816,820,826,831,838,852,859,870,876,881,892,900,907,915,923,941,954,963,971,978,990,994,998,1002,1006,1013,1020,1024,1029,1032,1042,1046,1051,1054,1058,1063],"ymouse":[618,618,618,618,618,618,618,618,617,617,616,616,616,615,614,613,611,610,609,609,608,607,606,605,603,603,603,603,602,602,603,603,603,603,603,603,603,603,603,603,603,603,603,603,604,604,604,604,604,604,604,604,604,604,604,605,605,605,605,605,606,606,606,606,606,606,606,606,606,606,606,606,606,606,606,606,606,606,606,606,606,606,606,606,606,606,606,606,606,606,606,606,606,606,607,608,608,608,608,608,608,608,608,608,608,608,608,608,608,608,608,608,608,608,608,608,609,610,611,612,612,613,614,614,615,615,616,616,616,618,618,619,619,619,619,619,619,619,619,619,619,619,619,619,619,619,619,619,619,619,619,619,619,619,619,619,619,619,619,619,619,619,619,619,619,619,619,619,619,619,619,619,619,619,619,619,619,619,618,612,608,606,601,594,580,563,551,534,522,497,486,473,460,444,412,394,370,354,343,317,304,291,278,265,236,216,204,192,181,165,159,154,148,142,132,123,118,111,106,94,89,83,80,76,69],"timestamp_mouse":[17,40,52,73,92,113,133,152,172,193,213,234,253,272,292,312,332,353,373,393,412,433,452,473,492,513,532,552,574,592,612,632,652,674,693,713,733,753,774,794,814,833,852,873,893,913,933,952,973,994,1013,1033,1053,1073,1093,1113,1132,1153,1174,1192,1212,1233,1252,1272,1293,1313,1333,1352,1374,1393,1413,1432,1454,1472,1492,1514,1532,1553,1574,1593,1613,1633,1653,1674,1692,1713,1733,1752,1774,1793,1812,1832,1852,1872,1893,1913,1934,1953,1973,1992,2014,2033,2053,2074,2092,2113,2134,2152,2173,2194,2213,2233,2252,2272,2293,2313,2332,2353,2372,2393,2412,2433,2452,2472,2492,2512,2532,2553,2574,2593,2612,2632,2654,2673,2693,2713,2734,2752,2772,2793,2812,2832,2852,2874,2893,2913,2932,2952,2974,2993,3012,3032,3053,3072,3092,3113,3132,3152,3173,3192,3214,3233,3253,3273,3292,3313,3332,3353,3373,3393,3412,3432,3453,3474,3493,3513,3532,3553,3572,3592,3612,3632,3652,3673,3693,3714,3732,3753,3774,3793,3814,3832,3852,3872,3892,3912,3932,3952,3974,3993,4013,4032,4053,4072,4092,4113,4132,4152,4172,4194,4212,4232,4252,4272,4293,4312,4332,4352,4372,4392,4414,4433,4454,4473,4492],"xSR":741.5,"ySR":573.95,"xT1":424.9,"yT1":0,"xT2":1058.1,"yT2":0,"toosoon":0,"cond_shown":"Incongruent","ratio_trial":200,"L_num":3,"L_den":4,"R_num":11,"R_den":20,"correct_side":1,"subjID":"SamuelSanchezPaz29","gender":"0","school":"4","age":"9"},{"start_time":1552327513842,"click_time":1552327518089,"finger_time":1552327514369,"fix_duration":532.3572615428227,"trial":2,"RT":527,"MT":3720,"sideResp":1,"stimulus":[],"xmouse":[780,779,779,779,779,779,779,779,779,778,778,777,777,777,777,777,777,777,777,777,777,777,776,774,771,760,715,679,645,635,634,634,634,634,634,634,634,634,634,634,634,634,634,636,639,644,668,679,686,689,693,699,700,701,702,702,702,702,702,702,705,715,718,718,718,718,718,718,718,718,718,718,718,718,718,720,721,721,721,721,721,721,721,721,721,721,721,722,724,730,736,759,762,766,769,771,775,779,783,786,788,788,788,788,788,788,788,788,788,788,788,788,788,788,788,788,788,788,788,788,788,788,788,788,788,788,788,788,788,788,788,788,788,788,788,789,792,793,794,798,806,841,851,861,869,876,885,888,890,892,893,894,894,894,894,894,894,894,894,895,895,895,895,895,895,895,895,894,889,879,875,871,870,870,870,870,870,868,866,860,855,844,842,839,837,835,825,821,814,804,791,775,741,724,711,703,687,679,673,665,654,641,616,604,592,581,562,553,546,541,538,530,522],"ymouse":[586,585,585,585,585,585,585,585,585,587,590,597,599,601,602,603,603,603,603,603,603,603,602,601,603,620,676,700,726,742,753,762,762,762,762,762,762,762,762,762,762,761,761,757,754,749,740,740,740,739,736,733,733,731,731,730,730,729,729,728,724,689,678,677,677,677,677,677,677,677,677,677,677,677,677,675,674,674,674,674,674,674,674,674,674,674,674,674,674,672,671,653,650,648,647,646,644,642,639,636,635,634,634,634,634,634,634,634,634,634,634,634,634,634,634,634,634,634,634,634,634,634,634,634,634,634,634,634,634,634,634,634,634,634,634,634,632,631,628,616,594,487,449,409,381,357,318,308,300,294,291,286,286,286,286,286,286,286,285,285,285,285,285,285,285,285,285,284,282,280,279,278,278,278,278,278,278,277,275,272,270,268,267,267,266,265,261,259,256,253,250,245,236,230,227,224,217,214,211,208,203,195,181,173,166,159,144,137,130,125,121,110,98],"timestamp_mouse":[11,42,53,68,88,108,128,147,169,187,207,228,247,268,288,308,327,348,367,388,407,427,448,468,488,507,527,548,569,587,607,627,647,668,689,708,727,747,769,788,808,827,848,867,888,909,929,947,968,987,1008,1027,1049,1068,1089,1107,1128,1147,1168,1187,1207,1227,1249,1268,1288,1307,1328,1348,1368,1388,1408,1428,1447,1468,1489,1509,1529,1547,1567,1588,1608,1628,1649,1669,1688,1707,1728,1748,1768,1787,1808,1827,1848,1867,1888,1908,1927,1947,1967,1987,2008,2028,2047,2068,2088,2109,2129,2148,2168,2188,2208,2228,2248,2269,2289,2307,2328,2348,2367,2387,2409,2427,2448,2468,2488,2509,2528,2548,2569,2588,2607,2627,2648,2669,2689,2707,2727,2748,2767,2788,2807,2827,2847,2867,2887,2907,2928,2947,2967,2988,3008,3027,3047,3068,3088,3107,3127,3148,3168,3187,3208,3228,3248,3267,3288,3309,3328,3349,3368,3389,3408,3428,3448,3467,3488,3507,3528,3547,3568,3589,3609,3628,3648,3667,3688,3707,3728,3747,3767,3787,3808,3827,3847,3868,3887,3909,3928,3947,3969,3988,4008,4028,4047,4067,4087,4108,4127,4147,4168,4189,4207,4228,4247],"xSR":741.5,"ySR":573.95,"xT1":424.9,"yT1":0,"xT2":1058.1,"yT2":0,"toosoon":0,"cond_shown":"Congruent","ratio_trial":100,"L_num":15,"L_den":25,"R_num":13,"R_den":26,"correct_side":1,"subjID":"SamuelSanchezPaz29","gender":"0","school":"4","age":"9"},{"start_time":1552327519916,"click_time":1552327525749,"finger_time":1552327524489,"fix_duration":263.29937759928134,"trial":3,"RT":4573,"MT":1260,"sideResp":2,"stimulus":[],"xmouse":[809,811,815,817,818,819,819,819,820,820,820,820,821,823,824,826,828,829,829,830,830,830,830,830,831,831,831,831,831,831,831,831,831,831,831,831,831,831,831,831,831,831,831,831,831,831,831,831,830,830,832,833,834,835,836,837,838,838,838,838,838,838,838,838,838,838,838,839,839,838,838,838,838,838,838,838,838,838,838,838,838,838,838,838,838,838,838,837,834,832,831,830,830,830,830,830,830,830,830,830,830,830,830,830,830,830,830,830,830,830,830,831,831,831,831,831,831,831,831,829,828,827,827,827,826,826,826,826,826,826,826,825,825,825,825,825,824,822,822,822,822,821,819,818,818,818,818,818,818,818,818,818,818,818,818,818,818,818,818,818,818,818,817,815,814,814,814,814,814,814,814,814,814,814,814,814,814,814,814,814,814,814,814,813,813,812,811,811,811,811,811,811,811,811,811,811,812,812,813,814,814,814,814,814,814,814,814,814,814,816,817,817,817,817,817,817,817,817,817,817,817,817,817,817,817,817,817,817,817,817,817,816,816,815,815,815,815,815,815,815,815,815,814,814,813,812,811,809,808,807,807,807,807,807,806,806,806,806,806,806,806,806,806,806,806,806,806,806,806,806,806,806,807,821,837,864,900,938,1006,1036,1059,1071,1076,1077,1077,1077,1077,1077,1077,1077,1077,1076],"ymouse":[640,638,634,631,630,629,629,629,628,628,628,628,628,628,627,627,626,625,625,625,625,625,625,625,625,625,625,625,624,624,624,624,624,624,624,624,624,624,624,624,624,624,624,624,624,624,625,632,649,651,652,652,651,650,650,649,649,649,649,649,649,649,649,649,649,649,649,649,649,649,649,649,649,649,649,649,649,649,649,649,649,649,649,649,649,649,649,649,652,654,655,656,656,656,656,656,656,656,656,656,656,656,656,656,656,656,656,656,656,656,656,655,655,654,652,651,650,648,638,632,627,624,624,622,616,612,609,605,603,603,603,603,603,603,603,603,603,604,604,605,605,606,609,609,609,609,609,609,609,609,609,609,609,609,609,609,609,609,609,609,609,610,610,613,613,613,613,613,613,613,613,613,613,613,613,613,613,613,613,613,613,613,613,614,614,616,617,618,618,618,618,618,618,618,618,618,618,618,618,618,618,618,618,618,618,618,618,618,618,617,616,615,614,611,609,607,606,605,603,601,598,596,592,586,582,580,578,575,572,569,565,561,557,552,552,552,552,552,550,546,542,538,533,520,513,508,502,496,487,485,482,478,475,466,462,460,456,452,448,443,440,438,437,434,433,431,431,430,427,426,424,419,411,370,342,294,230,159,12,0,0,0,0,0,0,0,0,0,0,0,0,2],"timestamp_mouse":[19,36,54,73,93,113,133,153,174,194,215,235,253,273,293,314,335,353,373,393,415,434,453,475,493,513,535,554,573,593,614,634,655,675,694,715,734,754,773,794,815,834,854,873,894,914,934,953,973,993,1013,1034,1054,1073,1093,1113,1133,1154,1173,1195,1213,1234,1253,1273,1295,1314,1333,1354,1373,1393,1414,1433,1454,1474,1493,1514,1533,1555,1573,1594,1613,1634,1653,1673,1695,1713,1734,1753,1774,1794,1814,1833,1853,1874,1893,1914,1933,1953,1973,1995,2015,2035,2053,2073,2095,2114,2134,2155,2174,2194,2214,2234,2253,2273,2293,2313,2334,2353,2374,2393,2414,2434,2453,2474,2494,2513,2533,2553,2574,2594,2613,2634,2654,2674,2693,2714,2735,2755,2774,2794,2814,2833,2855,2873,2895,2913,2933,2955,2975,2993,3013,3035,3054,3075,3093,3114,3133,3155,3173,3194,3213,3233,3254,3274,3293,3313,3334,3353,3374,3395,3413,3434,3455,3474,3493,3514,3533,3554,3573,3593,3614,3633,3653,3675,3694,3714,3734,3755,3774,3793,3813,3833,3855,3873,3893,3914,3934,3953,3973,3994,4013,4035,4054,4073,4093,4113,4134,4153,4175,4194,4214,4234,4254,4273,4294,4313,4335,4353,4373,4393,4413,4435,4453,4473,4494,4513,4534,4554,4573,4595,4613,4633,4653,4674,4694,4714,4733,4753,4773,4794,4814,4833,4853,4873,4895,4913,4934,4954,4973,4995,5014,5034,5053,5074,5094,5113,5134,5153,5173,5193,5213,5233,5254,5273,5294,5313,5334,5354,5373,5393,5413,5435,5455,5473,5493,5513,5534,5555,5574,5593,5613,5633,5654,5673,5694,5715,5734,5753,5774,5793,5813,5833],"xSR":741.5,"ySR":573.95,"xT1":424.9,"yT1":0,"xT2":1058.1,"yT2":0,"toosoon":0,"cond_shown":"Incongruent","ratio_trial":100,"L_num":10,"L_den":25,"R_num":8,"R_den":16,"correct_side":2,"subjID":"SamuelSanchezPaz29","gender":"0","school":"4","age":"9"},{"start_time":1552327528954,"click_time":1552327530891,"finger_time":1552327529909,"fix_duration":763.4117522907054,"trial":4,"RT":955,"MT":982,"sideResp":1,"stimulus":[],"xmouse":[821,821,821,821,821,821,821,821,821,821,821,821,821,821,821,821,821,821,821,821,821,821,821,821,821,821,821,821,821,821,821,821,821,821,821,821,821,821,821,821,821,821,821,820,819,818,817,815,813,810,807,804,798,798,797,797,795,792,791,790,786,784,774,765,757,747,738,714,706,697,695,691,684,680,675,670,660,652,649,643,640,638,633,628,618,605,593,573,563,549,541,531,530,529,528,527,524],"ymouse":[599,599,599,599,599,599,599,599,599,599,599,599,599,599,599,599,599,599,599,599,599,599,599,599,599,599,599,599,599,599,599,599,598,598,597,597,596,595,594,593,592,591,588,587,584,582,579,572,568,560,556,548,540,538,538,537,534,530,528,526,521,516,498,483,469,452,432,381,359,337,325,311,286,270,255,236,184,143,130,104,94,91,84,81,77,72,68,63,62,60,60,60,60,60,60,60,61],"timestamp_mouse":[16,37,59,75,96,117,136,156,177,196,217,235,256,276,296,316,336,356,377,397,415,436,456,476,495,517,536,556,575,595,616,637,656,675,696,717,736,756,777,797,815,836,856,875,896,917,936,955,976,996,1016,1036,1056,1076,1096,1117,1135,1157,1175,1195,1215,1236,1256,1277,1297,1317,1336,1356,1376,1397,1415,1436,1457,1475,1496,1517,1537,1556,1576,1596,1615,1637,1656,1676,1696,1717,1737,1757,1775,1795,1817,1837,1858,1876,1897,1917,1937],"xSR":741.5,"ySR":573.95,"xT1":424.9,"yT1":0,"xT2":1058.1,"yT2":0,"toosoon":0,"cond_shown":"Congruent","ratio_trial":300,"L_num":5,"L_den":25,"R_num":7,"R_den":14,"correct_side":2,"subjID":"SamuelSanchezPaz29","gender":"0","school":"4","age":"9"},{"start_time":1552327532578,"click_time":1552327535410,"finger_time":1552327534110,"fix_duration":447.23025916159577,"trial":5,"RT":1532,"MT":1300,"sideResp":1,"stimulus":[],"xmouse":[825,825,825,825,825,825,824,824,824,824,822,822,821,820,819,819,819,819,819,819,818,817,815,815,815,814,814,814,814,814,814,814,814,814,814,814,814,814,814,814,816,818,819,819,820,821,822,823,824,825,826,826,826,826,826,826,827,829,830,831,831,831,832,832,833,833,833,833,833,833,833,833,833,833,833,833,833,835,837,840,846,858,865,869,874,878,887,889,891,893,894,899,901,903,905,908,912,914,915,916,917,917,918,918,918,918,918,918,914,909,903,888,881,878,874,867,831,815,802,792,783,762,750,739,727,718,694,685,671,654,638,603,591,577,565,555,540,536,533,529,525,515],"ymouse":[627,627,627,627,630,631,633,633,633,633,633,633,633,633,633,633,633,633,633,633,633,633,634,634,634,634,634,634,634,634,634,634,634,634,634,634,634,634,634,634,633,633,632,632,632,632,631,631,631,630,629,629,629,629,629,629,629,628,627,626,626,626,625,625,625,623,621,618,617,616,615,609,606,603,598,591,568,548,535,520,501,461,445,435,425,416,392,386,382,379,376,367,362,359,354,351,342,338,336,333,331,328,326,325,323,322,317,309,296,284,271,243,233,230,225,220,199,190,184,179,176,166,161,158,154,151,141,136,131,126,121,110,105,99,94,90,83,82,81,80,79,78],"timestamp_mouse":[12,38,53,73,92,111,131,152,172,192,212,233,252,271,293,313,333,352,372,393,412,431,451,472,493,513,532,552,573,591,612,633,651,673,691,711,733,752,772,791,811,832,852,873,892,913,932,952,971,992,1011,1032,1053,1072,1092,1112,1132,1151,1172,1193,1213,1233,1253,1271,1293,1312,1331,1351,1371,1393,1413,1432,1452,1473,1493,1513,1532,1553,1572,1593,1612,1632,1651,1672,1691,1713,1732,1752,1771,1791,1811,1832,1853,1872,1893,1911,1931,1951,1971,1992,2011,2031,2052,2072,2092,2112,2132,2152,2172,2191,2211,2232,2253,2272,2292,2312,2332,2351,2371,2392,2413,2432,2451,2472,2492,2512,2531,2552,2571,2591,2611,2631,2652,2672,2691,2712,2731,2751,2771,2791,2813,2831],"xSR":741.5,"ySR":573.95,"xT1":424.9,"yT1":0,"xT2":1058.1,"yT2":0,"toosoon":0,"cond_shown":"Incongruent","ratio_trial":100,"L_num":10,"L_den":25,"R_num":9,"R_den":18,"correct_side":2,"subjID":"SamuelSanchezPaz29","gender":"0","school":"4","age":"9"},{"start_time":1552327545381,"click_time":1552327550691,"finger_time":1552327545629,"fix_duration":250,"trial":6,"RT":248,"MT":5062,"sideResp":2,"stimulus":[],"xmouse":[773,769,760,758,754,751,750,749,749,747,747,744,740,736,736,734,734,732,730,729,727,725,725,725,725,725,725,725,725,725,725,725,725,725,725,725,725,725,725,725,725,725,725,725,725,726,726,731,735,740,750,754,769,775,781,785,793,801,802,803,803,803,803,803,803,803,802,793,782,769,761,750,730,723,719,716,715,712,711,710,710,710,718,728,744,758,775,801,810,816,824,830,838,839,839,839,839,839,839,839,839,838,830,827,823,821,820,817,815,812,808,804,796,795,794,794,792,787,783,781,781,779,778,778,780,782,786,799,804,809,811,811,811,811,811,811,811,811,811,811,811,811,811,811,812,812,811,810,807,805,804,803,802,799,798,796,795,792,790,790,790,790,789,783,779,777,775,771,770,769,769,769,769,769,769,769,769,769,766,763,758,752,740,735,730,726,720,714,691,678,659,642,621,619,617,616,615,615,615,615,615,615,615,615,615,618,625,662,694,720,737,748,754,760,766,772,779,796,805,813,819,825,833,836,839,843,851,864,913,948,978,1001,1010,1010,1010,1010,1011,1014,1015,1016,1017,1017,1019,1022,1024,1027,1028,1029,1030,1031,1033,1035,1038,1039,1041,1042,1044,1045,1045,1046,1047,1049,1053,1055,1058,1059],"ymouse":[628,631,638,641,645,648,649,650,650,652,653,657,663,667,668,670,672,677,679,682,684,686,687,687,687,687,687,687,687,687,687,687,687,687,687,687,687,687,687,687,687,687,687,687,687,686,685,676,668,659,643,637,615,608,601,594,584,573,570,569,568,568,568,568,568,567,563,554,548,544,541,538,535,535,535,535,535,537,538,541,546,552,582,600,616,627,636,642,643,643,639,635,622,620,619,618,618,617,615,610,604,600,588,586,583,582,582,580,578,574,569,563,556,555,555,555,555,555,558,560,560,564,574,580,583,587,592,603,607,610,611,611,611,611,611,611,611,611,611,611,611,611,611,611,611,611,611,610,609,609,609,609,609,609,609,610,611,614,615,616,616,616,618,621,622,623,624,625,625,625,625,625,625,625,621,616,604,579,569,559,544,521,492,480,471,464,457,450,431,420,408,396,378,376,373,371,370,368,368,368,366,363,355,348,342,333,325,301,288,281,278,275,275,274,274,274,274,273,273,273,271,271,269,268,268,266,263,256,223,196,168,145,133,133,133,133,133,131,130,128,127,127,125,123,121,120,119,118,117,116,115,114,112,111,110,109,107,104,104,103,102,100,94,89,85,84],"timestamp_mouse":[9,37,49,68,89,109,130,149,170,188,209,228,248,269,288,309,328,349,369,390,408,429,450,470,489,510,530,549,569,589,609,629,650,670,689,709,730,749,769,790,809,829,849,869,889,908,929,948,968,989,1010,1028,1049,1069,1089,1109,1128,1149,1169,1189,1209,1229,1250,1269,1290,1310,1329,1349,1369,1390,1410,1430,1449,1468,1488,1509,1529,1548,1570,1590,1610,1630,1648,1668,1689,1709,1729,1749,1770,1789,1809,1829,1849,1869,1888,1910,1930,1949,1969,1988,2010,2029,2049,2068,2089,2109,2128,2149,2168,2190,2208,2229,2248,2269,2290,2310,2328,2349,2368,2390,2408,2428,2449,2470,2489,2509,2529,2549,2569,2589,2610,2630,2650,2669,2688,2708,2730,2749,2768,2788,2809,2830,2848,2870,2890,2909,2929,2950,2969,2989,3008,3028,3048,3070,3089,3108,3128,3149,3170,3189,3209,3230,3249,3269,3288,3309,3329,3349,3369,3390,3410,3429,3449,3469,3489,3508,3528,3549,3568,3590,3609,3628,3649,3668,3689,3708,3730,3749,3769,3788,3808,3829,3849,3869,3890,3909,3929,3949,3969,3990,4010,4029,4049,4068,4089,4109,4130,4149,4169,4190,4210,4230,4249,4268,4288,4309,4328,4349,4368,4389,4410,4430,4449,4469,4488,4509,4529,4549,4568,4589,4610,4629,4649,4669,4689,4710,4729,4749,4768,4789,4809,4829,4849,4869,4889,4909,4930,4948,4968,4989,5010,5029,5049,5068,5089,5108,5129,5150,5168,5189,5209,5228,5249,5269,5289,5310],"xSR":741.5,"ySR":573.95,"xT1":424.9,"yT1":0,"xT2":1058.1,"yT2":0,"toosoon":0,"cond_shown":"Congruent","ratio_trial":100,"L_num":9,"L_den":15,"R_num":8,"R_den":16,"correct_side":1,"subjID":"SamuelSanchezPaz29","gender":"0","school":"4","age":"9"},{"start_time":1552327579062,"click_time":1552327583610,"finger_time":1552327579149,"fix_duration":250,"trial":7,"RT":87,"MT":4461,"sideResp":2,"stimulus":[],"xmouse":[785,786,786,793,798,804,812,843,851,856,860,862,870,872,874,875,875,864,843,819,791,749,723,720,719,717,715,708,705,705,728,753,779,823,840,850,858,860,860,861,866,869,869,858,849,841,829,820,803,799,802,835,854,862,862,863,864,864,856,846,843,842,841,836,831,824,820,817,818,828,859,882,893,895,895,894,892,881,875,868,849,830,813,790,785,782,782,782,782,782,782,783,784,785,787,787,788,788,789,790,793,794,794,795,795,796,796,796,796,796,796,796,796,796,796,796,796,796,796,796,796,796,797,797,798,799,800,801,802,802,804,805,808,809,809,809,810,810,810,811,811,811,811,811,811,811,811,811,811,811,811,811,811,811,811,811,811,811,811,811,811,811,810,810,810,810,810,810,813,819,834,845,856,873,879,884,886,887,890,893,896,899,902,908,912,916,921,925,932,933,934,935,937,942,945,949,954,960,965,967,968,969,969,972,973,975,978,980,996,1007,1010,1013,1014,1017,1019,1020,1022,1024,1027,1029,1031,1033,1035,1043,1048,1052,1056,1059],"ymouse":[615,609,609,583,565,545,520,449,432,423,411,406,388,379,365,351,334,287,251,216,183,153,146,146,146,148,156,197,230,266,333,373,398,488,520,539,550,553,553,553,546,523,509,493,489,489,489,489,504,538,555,594,602,603,603,603,602,575,558,546,543,542,542,542,542,544,546,549,557,572,592,606,615,617,618,618,617,610,608,608,608,608,608,611,616,626,642,652,657,657,657,657,657,657,657,657,657,657,657,657,656,655,652,650,649,648,648,648,648,648,648,648,648,648,648,648,648,648,647,647,647,647,646,646,645,644,641,637,634,634,632,629,626,623,622,621,620,619,619,618,618,618,618,618,618,618,618,618,618,618,618,618,618,614,605,591,578,563,530,515,500,495,493,490,488,484,479,472,446,414,357,307,269,205,181,160,148,138,125,118,111,104,97,84,77,69,61,55,43,41,40,39,39,38,38,38,38,38,38,39,39,39,39,39,39,40,40,41,46,51,53,54,54,55,56,56,57,57,58,58,58,59,60,60,60,61,61,61],"timestamp_mouse":[8,40,48,67,87,108,128,148,168,188,207,228,248,267,289,309,329,348,367,388,409,429,448,467,487,509,529,549,567,588,608,627,648,669,687,707,728,748,768,788,808,828,849,869,887,908,927,948,967,989,1009,1028,1047,1068,1088,1109,1129,1149,1168,1188,1208,1227,1248,1267,1287,1308,1328,1349,1368,1388,1409,1427,1448,1469,1489,1509,1529,1549,1567,1588,1608,1628,1647,1667,1687,1707,1728,1748,1768,1789,1807,1829,1849,1869,1889,1908,1927,1949,1968,1987,2007,2029,2048,2069,2087,2107,2128,2147,2167,2189,2209,2227,2249,2268,2288,2308,2328,2348,2368,2389,2407,2429,2447,2467,2487,2508,2528,2548,2568,2587,2608,2628,2649,2669,2688,2708,2729,2749,2768,2789,2808,2829,2848,2867,2887,2908,2927,2949,2968,2987,3008,3029,3047,3067,3087,3107,3128,3149,3168,3188,3208,3228,3249,3268,3287,3309,3329,3348,3368,3388,3407,3429,3448,3467,3487,3508,3529,3549,3567,3589,3607,3627,3648,3668,3689,3708,3729,3749,3768,3788,3807,3827,3847,3868,3888,3908,3929,3948,3968,3987,4008,4028,4049,4068,4088,4108,4127,4149,4167,4187,4207,4227,4248,4267,4288,4308,4329,4348,4367,4389,4408,4428,4448,4468,4487,4508,4529,4548],"xSR":741.5,"ySR":573.95,"xT1":424.9,"yT1":0,"xT2":1058.1,"yT2":0,"toosoon":0,"cond_shown":"Congruent","ratio_trial":300,"L_num":7,"L_den":14,"R_num":20,"R_den":25,"correct_side":2,"subjID":"SamuelSanchezPaz29","gender":"0","school":"4","age":"9"},{"start_time":1552327696555,"click_time":1552327699250,"finger_time":1552327697289,"fix_duration":983.1504632449097,"trial":8,"RT":734,"MT":1961,"sideResp":1,"stimulus":[],"xmouse":[807,806,803,802,802,800,799,798,798,798,798,798,798,798,798,798,798,798,798,798,798,798,798,798,798,798,798,798,798,798,798,798,798,798,798,798,826,834,835,835,835,835,835,835,835,835,835,835,835,835,835,835,835,835,835,835,838,838,838,838,838,838,838,838,838,837,835,828,820,813,809,802,799,797,796,794,791,788,786,786,782,779,779,779,779,779,779,779,779,779,779,779,777,776,773,771,761,757,754,751,747,745,740,737,737,734,731,729,725,719,716,699,692,685,679,673,665,664,662,662,662,657,652,646,638,626,611,577,562,553,545,531,528,526,524],"ymouse":[621,619,616,616,616,614,614,613,613,613,613,613,613,613,613,613,613,613,613,613,613,613,613,613,613,613,613,613,613,613,613,613,613,613,616,623,686,701,703,703,703,703,703,703,703,703,703,703,703,703,703,703,703,703,702,700,693,691,685,680,679,677,676,675,673,672,668,658,650,643,638,630,628,627,626,625,624,622,621,620,618,615,615,615,615,615,615,615,615,615,615,613,607,600,591,587,564,549,538,528,514,496,472,460,451,443,427,417,404,390,375,323,302,283,263,247,228,224,221,221,219,210,201,189,176,162,149,127,116,110,106,102,101,100,99],"timestamp_mouse":[17,35,54,74,94,114,135,154,174,194,214,234,255,275,294,315,334,354,375,394,416,435,455,474,495,514,534,554,574,594,615,634,655,675,694,714,734,754,775,795,814,835,854,875,895,915,934,956,975,995,1014,1034,1055,1074,1094,1114,1134,1154,1175,1195,1215,1235,1255,1275,1294,1314,1334,1355,1375,1394,1414,1434,1454,1474,1495,1514,1534,1554,1575,1595,1614,1634,1654,1674,1694,1715,1735,1754,1774,1794,1814,1834,1854,1875,1894,1914,1934,1954,1975,1994,2015,2034,2054,2075,2094,2115,2135,2154,2174,2195,2214,2234,2254,2274,2294,2315,2335,2354,2374,2394,2415,2434,2454,2474,2495,2514,2534,2555,2574,2594,2614,2634,2654,2674,2695],"xSR":741.5,"ySR":573.95,"xT1":424.9,"yT1":0,"xT2":1058.1,"yT2":0,"toosoon":0,"cond_shown":"Congruent","ratio_trial":300,"L_num":18,"L_den":20,"R_num":9,"R_den":15,"correct_side":1,"subjID":"SamuelSanchezPaz29","gender":"0","school":"4","age":"9"},{"start_time":1552327701262,"click_time":1552327704109,"finger_time":1552327703370,"fix_duration":549.4721883679897,"trial":9,"RT":2108,"MT":739,"sideResp":1,"stimulus":[],"xmouse":[777,777,777,776,776,776,776,776,776,776,776,776,776,776,776,775,775,775,775,775,775,775,775,775,775,777,779,780,780,780,780,780,780,780,780,780,780,780,780,780,780,780,780,780,780,780,780,780,780,780,780,780,780,780,780,780,780,780,780,780,780,780,780,780,780,780,780,780,780,780,780,780,780,780,780,780,780,780,780,780,780,780,780,780,780,780,780,780,780,780,780,780,780,780,780,780,780,780,780,781,782,783,783,783,783,781,778,771,764,760,753,748,740,738,737,734,733,728,726,720,713,701,673,652,640,630,623,609,603,599,595,592,588,587,587,584,578,562,550,540,532,526,522],"ymouse":[612,612,612,613,613,613,614,614,614,614,614,614,614,614,614,614,614,614,614,614,614,614,614,614,614,614,614,612,612,612,612,612,612,612,612,612,612,612,612,612,612,612,612,612,612,612,612,612,612,612,612,612,612,612,612,612,612,612,612,612,612,612,612,612,612,612,612,612,612,612,612,612,612,612,612,612,612,612,612,612,612,612,612,612,612,612,612,612,612,612,612,612,612,612,612,612,612,612,612,612,612,611,605,599,587,572,555,516,494,474,449,431,404,399,394,389,384,375,370,360,348,329,289,262,246,234,223,199,186,176,165,159,150,149,148,144,137,119,105,91,81,74,69],"timestamp_mouse":[15,28,47,68,87,107,128,147,167,188,208,227,247,268,287,308,328,347,368,387,408,428,447,467,487,508,527,548,567,589,608,628,647,667,688,707,728,748,767,788,807,828,848,868,888,907,928,947,968,987,1007,1027,1047,1068,1087,1107,1129,1147,1167,1187,1208,1228,1248,1268,1287,1308,1328,1347,1369,1387,1408,1427,1447,1467,1488,1507,1527,1548,1568,1587,1608,1628,1648,1667,1688,1707,1727,1748,1768,1787,1807,1827,1848,1868,1888,1908,1927,1947,1967,1988,2008,2027,2047,2069,2087,2107,2129,2147,2167,2188,2207,2227,2247,2268,2287,2307,2327,2347,2367,2387,2408,2427,2447,2467,2487,2507,2527,2547,2567,2587,2608,2627,2648,2667,2687,2708,2727,2747,2768,2787,2808,2828,2847],"xSR":741.5,"ySR":573.95,"xT1":424.9,"yT1":0,"xT2":1058.1,"yT2":0,"toosoon":0,"cond_shown":"Incongruent","ratio_trial":100,"L_num":8,"L_den":16,"R_num":6,"R_den":10,"correct_side":2,"subjID":"SamuelSanchezPaz29","gender":"0","school":"4","age":"9"},{"start_time":1552327706927,"click_time":1552327709310,"finger_time":1552327708650,"fix_duration":1096.909985798798,"trial":10,"RT":1723,"MT":660,"sideResp":2,"stimulus":[],"xmouse":[792,792,792,792,792,792,792,792,792,792,792,792,792,792,792,792,792,792,792,792,792,792,792,792,792,792,792,792,792,792,792,792,792,792,792,792,792,792,792,792,792,792,792,792,792,792,792,792,792,792,792,792,792,792,792,792,792,792,792,792,792,792,792,792,792,792,792,792,792,792,792,792,792,792,792,792,792,792,793,798,807,813,818,823,827,836,840,848,853,867,906,934,958,976,990,1006,1011,1013,1015,1016,1018,1019,1021,1022,1022,1025,1027,1030,1033,1036,1044,1049,1055,1064,1072,1089,1097,1102,1109,1120],"ymouse":[613,613,613,613,613,613,613,613,613,613,613,613,613,613,613,613,613,613,613,613,613,613,613,613,613,613,613,613,613,613,613,613,613,613,613,613,613,613,613,613,613,613,613,613,613,613,613,613,613,613,613,613,613,613,613,613,613,613,613,613,613,613,613,613,613,613,613,613,613,613,613,613,613,613,613,613,613,613,612,607,600,596,591,588,584,576,572,565,560,547,512,487,467,445,420,388,376,366,360,355,346,342,337,331,326,316,311,299,290,280,257,245,232,218,205,168,149,131,108,69],"timestamp_mouse":[11,37,43,62,83,103,123,143,163,182,202,222,243,264,282,303,323,342,363,383,402,423,442,463,483,503,523,543,562,583,603,622,643,663,682,703,723,743,763,783,803,823,842,863,883,902,922,942,963,983,1002,1023,1043,1063,1082,1103,1123,1143,1163,1182,1202,1222,1243,1263,1284,1303,1323,1342,1363,1383,1402,1422,1443,1462,1482,1502,1522,1542,1563,1584,1603,1622,1643,1662,1683,1704,1723,1742,1762,1782,1803,1822,1842,1862,1882,1902,1922,1942,1963,1982,2002,2023,2042,2062,2083,2103,2123,2142,2163,2183,2202,2222,2243,2262,2282,2302,2322,2342,2362,2383],"xSR":741.5,"ySR":573.95,"xT1":424.9,"yT1":0,"xT2":1058.1,"yT2":0,"toosoon":0,"cond_shown":"Incongruent","ratio_trial":200,"L_num":7,"L_den":10,"R_num":12,"R_den":24,"correct_side":1,"subjID":"SamuelSanchezPaz29","gender":"0","school":"4","age":"9"},{"start_time":1552327711430,"click_time":1552327714349,"finger_time":1552327713549,"fix_duration":279.1615938807097,"trial":11,"RT":2119,"MT":800,"sideResp":2,"stimulus":[],"xmouse":[799,799,799,799,798,795,793,792,792,791,791,791,791,791,791,791,791,791,791,791,791,791,791,791,791,791,791,791,791,791,791,791,791,791,791,791,791,791,791,791,792,792,792,792,792,792,792,792,792,792,792,792,792,792,792,792,792,792,792,792,792,792,792,792,792,792,792,792,792,792,792,792,792,793,793,793,793,793,793,793,793,793,793,793,793,793,793,793,793,793,793,793,793,793,793,793,793,793,793,793,793,793,793,796,798,825,841,855,865,872,878,881,883,887,891,899,903,906,908,910,913,914,918,923,930,954,972,992,1005,1012,1016,1016,1016,1016,1017,1024,1028,1033,1037,1042,1049,1050,1050,1051,1052,1055,1059],"ymouse":[622,622,622,622,622,626,627,629,630,630,630,630,630,630,630,630,630,630,630,630,630,630,630,630,630,630,630,630,630,630,630,630,630,630,630,631,631,631,631,631,631,631,631,631,631,631,631,631,631,631,631,631,631,631,631,631,631,631,631,631,631,631,631,631,631,631,631,631,631,631,630,630,629,629,629,629,629,629,629,629,629,629,629,629,629,629,629,629,629,629,629,629,629,629,629,629,629,629,629,629,629,629,629,624,620,586,567,551,539,531,522,517,514,508,501,484,475,469,462,457,447,440,433,421,403,350,307,259,224,206,191,190,190,188,186,170,160,146,137,125,109,107,105,105,103,99,95],"timestamp_mouse":[1,19,39,60,79,99,119,139,159,179,199,219,239,260,280,299,319,340,359,380,400,420,440,460,479,499,520,539,560,579,600,619,640,660,679,700,720,741,760,779,799,820,840,860,879,899,919,939,960,979,999,1020,1040,1059,1080,1100,1120,1139,1159,1180,1199,1220,1240,1260,1279,1299,1320,1339,1361,1380,1399,1419,1439,1461,1479,1499,1520,1539,1559,1580,1599,1619,1640,1660,1680,1699,1720,1739,1760,1779,1800,1819,1839,1860,1881,1900,1920,1940,1960,1980,2000,2019,2039,2060,2079,2099,2119,2139,2159,2181,2199,2219,2239,2260,2280,2300,2319,2339,2359,2380,2399,2420,2439,2459,2479,2499,2520,2539,2559,2580,2599,2619,2639,2659,2679,2700,2721,2739,2759,2780,2799,2820,2839,2859,2879,2899,2919],"xSR":741.5,"ySR":573.95,"xT1":424.9,"yT1":0,"xT2":1058.1,"yT2":0,"toosoon":0,"cond_shown":"Incongruent","ratio_trial":300,"L_num":8,"L_den":10,"R_num":14,"R_den":28,"correct_side":1,"subjID":"SamuelSanchezPaz29","gender":"0","school":"4","age":"9"},{"start_time":1552327717909,"click_time":1552327720969,"finger_time":1552327719669,"fix_duration":957.6311882039172,"trial":12,"RT":1760,"MT":1300,"sideResp":1,"stimulus":[],"xmouse":[792,792,792,792,792,792,792,792,792,792,792,792,792,792,792,792,792,792,792,792,792,792,792,792,792,792,792,792,792,792,792,792,792,792,792,792,792,792,792,792,792,792,792,792,792,792,792,792,792,793,793,793,793,793,793,793,793,793,793,793,793,793,793,793,793,793,793,793,793,793,793,793,793,793,793,793,793,793,793,793,793,793,793,793,793,793,789,784,774,765,756,742,718,712,708,705,703,700,700,700,700,700,698,698,697,696,695,691,689,688,686,685,670,664,635,618,604,591,588,584,578,571,557,530,506,487,478,476,476,476,476,476,476,476,476,477,480,483,484,484,484,484,484,484,484,484,484,484,484,484,484,484,484,485],"ymouse":[626,626,626,626,626,626,626,626,626,626,626,626,626,626,626,626,626,626,626,626,626,626,626,626,626,626,626,626,626,626,626,626,626,626,626,626,626,626,626,626,626,626,626,626,626,626,626,626,626,626,624,624,622,622,622,622,622,622,622,622,622,622,622,621,621,621,621,621,621,621,621,621,621,621,621,621,621,621,621,621,621,621,621,621,621,618,601,586,564,542,516,482,419,396,370,359,347,329,321,315,308,298,280,266,258,251,245,237,235,234,232,230,217,213,193,180,167,157,155,155,153,152,149,144,138,133,130,129,129,129,129,129,129,129,128,127,123,118,117,117,116,116,114,109,107,105,104,104,104,104,104,102,100,95],"timestamp_mouse":[10,20,40,61,80,101,120,141,160,181,202,221,240,261,281,301,320,340,360,380,401,421,440,460,481,501,521,540,560,581,600,620,640,661,681,701,721,740,760,781,800,821,841,860,881,901,921,940,960,980,1001,1020,1041,1060,1080,1100,1121,1140,1160,1181,1200,1220,1240,1261,1280,1301,1320,1341,1360,1380,1401,1420,1440,1461,1481,1501,1521,1540,1560,1580,1600,1620,1640,1660,1680,1701,1722,1740,1760,1780,1800,1821,1840,1860,1880,1900,1920,1941,1961,1980,2000,2021,2041,2061,2080,2100,2120,2140,2161,2180,2200,2220,2240,2261,2280,2301,2320,2340,2360,2380,2401,2420,2440,2460,2480,2501,2520,2540,2562,2580,2601,2620,2640,2660,2680,2700,2720,2740,2761,2781,2800,2821,2840,2861,2880,2900,2921,2940,2960,2980,3000,3020,3041,3060],"xSR":741.5,"ySR":573.95,"xT1":424.9,"yT1":0,"xT2":1058.1,"yT2":0,"toosoon":0,"cond_shown":"Incongruent","ratio_trial":300,"L_num":13,"L_den":26,"R_num":12,"R_den":15,"correct_side":2,"subjID":"SamuelSanchezPaz29","gender":"0","school":"4","age":"9"},{"start_time":1552327725224,"click_time":1552327729290,"finger_time":1552327726809,"fix_duration":1492.121828704472,"trial":13,"RT":1585,"MT":2481,"sideResp":2,"stimulus":[],"xmouse":[786,786,786,786,786,786,786,786,786,786,785,785,785,785,785,785,784,784,784,784,784,784,784,784,784,784,784,784,784,784,784,784,784,784,784,784,784,784,784,784,784,784,784,784,784,784,784,784,784,784,784,784,784,784,784,784,784,784,784,784,784,784,784,784,784,784,784,784,784,784,784,785,794,801,808,818,825,836,840,844,846,849,854,858,863,869,894,913,934,946,955,960,966,967,969,970,970,972,973,975,977,980,986,988,992,993,995,997,998,999,999,1000,1003,1005,1007,1010,1015,1020,1024,1026,1028,1029,1029,1029,1029,1029,1029,1029,1029,1029,1029,1029,1029,1029,1031,1035,1040,1047,1051,1052,1054,1054,1054,1054,1054,1054,1054,1054,1054,1054,1055,1055,1055,1055,1055,1055,1055,1055,1055,1055,1055,1055,1055,1055,1055,1055,1055,1055,1055,1055,1055,1055,1055,1055,1055,1055,1055,1055,1055,1055,1055,1055,1055,1055,1055,1055,1055,1055,1055,1063,1066,1070,1077,1078,1082,1084,1088,1089,1091,1091,1092,1092,1096,1100],"ymouse":[632,632,632,632,632,632,632,632,631,631,631,631,631,631,631,631,631,631,631,631,631,631,631,631,631,630,627,620,618,617,617,617,617,617,617,617,617,617,617,617,617,617,617,617,617,617,617,617,617,617,617,617,617,617,617,617,617,617,617,617,617,617,617,617,617,617,617,617,617,617,617,617,617,616,613,609,605,597,593,590,587,582,569,561,550,526,461,418,383,355,338,326,311,308,304,300,299,293,289,283,276,266,246,237,225,220,216,208,204,201,200,198,195,192,188,184,176,169,164,162,160,158,158,158,158,158,158,158,158,158,158,158,158,158,156,153,150,143,141,140,139,139,139,139,139,139,139,139,139,139,139,139,139,139,139,139,139,139,139,139,139,139,139,139,139,139,139,139,139,139,139,139,139,139,139,139,139,139,139,139,139,139,139,139,139,139,139,139,139,135,132,130,125,125,121,119,115,114,112,112,111,111,105,97],"timestamp_mouse":[13,39,46,65,85,107,126,145,166,185,206,226,246,267,286,306,326,345,365,386,406,426,445,466,486,506,525,546,565,586,605,625,646,666,685,706,725,745,766,786,806,826,846,865,886,906,926,945,965,985,1006,1026,1045,1065,1086,1105,1126,1145,1166,1186,1205,1226,1246,1265,1286,1306,1325,1346,1365,1386,1406,1426,1445,1466,1485,1505,1525,1545,1566,1585,1605,1626,1645,1665,1685,1706,1725,1745,1765,1785,1805,1826,1845,1865,1885,1906,1925,1946,1965,1986,2005,2025,2046,2065,2085,2105,2125,2145,2165,2185,2205,2225,2246,2266,2285,2306,2325,2346,2365,2386,2405,2426,2445,2467,2486,2505,2526,2546,2565,2585,2605,2625,2646,2665,2685,2706,2725,2745,2765,2785,2806,2826,2846,2866,2885,2906,2925,2946,2965,2987,3006,3026,3046,3067,3087,3106,3126,3146,3166,3186,3206,3226,3247,3267,3285,3305,3326,3345,3367,3386,3407,3425,3447,3466,3486,3506,3526,3545,3566,3586,3606,3626,3647,3666,3686,3706,3727,3745,3765,3786,3805,3826,3846,3866,3885,3906,3927,3945,3966,3986,4006,4025,4045,4066],"xSR":741.5,"ySR":573.95,"xT1":424.9,"yT1":0,"xT2":1058.1,"yT2":0,"toosoon":0,"cond_shown":"Incongruent","ratio_trial":200,"L_num":4,"L_den":5,"R_num":6,"R_den":10,"correct_side":1,"subjID":"SamuelSanchezPaz29","gender":"0","school":"4","age":"9"},{"start_time":1552327734150,"click_time":1552327736290,"finger_time":1552327735611,"fix_duration":1339.491377578739,"trial":14,"RT":1461,"MT":679,"sideResp":1,"stimulus":[],"xmouse":[793,793,789,785,784,783,782,782,782,782,782,782,782,782,782,782,782,782,782,782,782,782,782,782,782,782,782,782,782,782,782,782,782,782,782,782,782,782,782,782,782,782,782,782,782,782,782,782,782,782,782,782,782,782,782,782,782,782,782,782,782,782,782,782,782,782,780,771,761,757,755,749,747,744,738,733,728,728,730,730,730,729,729,729,726,720,704,681,673,671,670,660,648,635,619,602,574,569,563,553,544,537,532,530,529,528,527,518],"ymouse":[627,627,623,617,616,614,613,613,613,612,612,612,612,612,612,612,612,612,612,612,612,612,612,612,612,612,612,612,612,612,612,612,612,612,612,612,612,612,612,612,612,612,612,612,612,612,612,612,612,612,612,612,612,612,612,612,612,612,612,612,612,612,612,612,612,612,612,606,599,594,591,584,577,568,556,546,476,413,349,300,275,258,257,256,250,232,175,73,46,40,40,37,33,29,23,19,12,12,12,12,12,12,12,13,13,14,15,25],"timestamp_mouse":[2,19,39,60,80,100,120,139,159,181,201,220,239,260,279,301,320,339,360,380,401,421,440,459,480,501,519,540,560,581,601,621,641,659,680,699,720,741,760,781,801,821,841,860,879,899,919,941,960,979,999,1019,1040,1060,1081,1099,1119,1140,1160,1179,1199,1221,1239,1259,1281,1301,1320,1341,1360,1380,1400,1420,1440,1461,1479,1501,1520,1540,1559,1579,1600,1620,1639,1660,1681,1700,1720,1740,1759,1780,1800,1820,1839,1860,1879,1901,1920,1940,1959,1980,1999,2019,2039,2059,2079,2100,2120,2140],"xSR":741.5,"ySR":573.95,"xT1":424.9,"yT1":0,"xT2":1058.1,"yT2":0,"toosoon":0,"cond_shown":"Congruent","ratio_trial":300,"L_num":20,"L_den":25,"R_num":5,"R_den":10,"correct_side":1,"subjID":"SamuelSanchezPaz29","gender":"0","school":"4","age":"9"},{"start_time":1552327738082,"click_time":1552327740170,"finger_time":1552327739371,"fix_duration":749.8827691480803,"trial":15,"RT":1289,"MT":799,"sideResp":1,"stimulus":[],"xmouse":[785,785,785,784,784,784,784,784,784,784,784,784,784,784,784,784,784,784,784,784,784,784,784,784,784,784,784,784,784,784,784,784,784,784,784,784,784,784,784,784,785,785,785,785,785,786,786,786,786,786,786,786,786,786,786,786,786,786,786,786,785,783,776,764,731,707,675,654,636,621,596,588,583,582,579,575,572,570,568,563,559,553,547,543,539,530,527,524,522,521,519,519,518,517,515,513,512,510,509,508,506,505,503,501,500],"ymouse":[628,628,628,628,628,628,628,628,628,628,628,628,628,628,628,628,628,628,628,628,628,628,627,627,627,627,627,627,627,627,627,627,627,627,627,627,627,627,627,626,619,614,612,611,610,609,609,609,609,609,609,609,609,609,609,609,609,609,609,609,609,609,602,590,557,533,494,466,442,421,381,367,356,346,339,325,316,310,302,290,282,271,262,254,246,231,227,218,214,210,206,205,203,201,192,187,179,166,158,151,140,135,126,111,83],"timestamp_mouse":[10,36,48,69,87,108,129,148,168,188,208,229,248,267,289,309,327,349,369,387,409,428,448,467,488,508,528,549,569,588,608,628,649,667,687,708,727,747,768,788,808,828,847,868,889,908,927,949,969,988,1007,1028,1048,1067,1087,1109,1129,1148,1169,1187,1208,1227,1248,1269,1289,1307,1327,1347,1368,1388,1409,1428,1447,1467,1489,1508,1529,1547,1569,1589,1607,1627,1647,1668,1688,1707,1727,1747,1768,1788,1808,1828,1847,1867,1890,1908,1927,1948,1968,1987,2007,2028,2048,2068,2088],"xSR":741.5,"ySR":573.95,"xT1":424.9,"yT1":0,"xT2":1058.1,"yT2":0,"toosoon":0,"cond_shown":"Congruent","ratio_trial":200,"L_num":12,"L_den":20,"R_num":6,"R_den":15,"correct_side":1,"subjID":"SamuelSanchezPaz29","gender":"0","school":"4","age":"9"},{"start_time":1552327743203,"click_time":1552327745410,"finger_time":1552327744730,"fix_duration":250,"trial":16,"RT":1527,"MT":680,"sideResp":2,"stimulus":[],"xmouse":[805,805,805,805,805,805,805,805,805,805,805,805,805,805,805,805,805,805,805,805,805,805,805,805,805,805,805,805,805,806,806,806,806,806,806,807,807,807,807,807,807,807,807,807,807,807,807,807,807,807,807,807,807,807,807,807,807,807,807,807,807,807,807,807,807,807,807,807,807,807,807,807,807,809,826,838,852,872,882,891,904,910,914,919,929,932,936,938,943,945,948,949,952,953,969,982,998,1019,1034,1047,1047,1047,1047,1047,1047,1047,1048,1049,1051,1056,1059],"ymouse":[634,634,634,634,634,634,634,634,634,634,634,634,634,634,634,634,634,634,634,634,634,634,634,634,634,633,633,633,633,632,632,632,632,631,630,629,629,629,629,629,629,629,629,629,629,629,629,629,629,629,629,629,629,629,629,629,629,629,629,629,629,629,629,629,629,629,629,629,629,629,629,629,629,627,608,595,579,553,540,529,510,500,491,480,459,445,430,415,388,373,345,329,312,291,175,83,0,0,0,0,0,0,0,0,0,0,0,1,9,30,37],"timestamp_mouse":[10,35,47,68,86,106,128,146,168,187,207,228,247,267,286,307,328,347,367,387,408,428,447,466,488,507,528,547,568,586,607,628,646,666,687,707,727,748,767,788,806,828,848,867,887,907,927,948,966,987,1006,1027,1048,1068,1087,1107,1128,1147,1167,1188,1208,1228,1248,1268,1286,1307,1327,1348,1367,1387,1406,1426,1448,1467,1488,1507,1527,1546,1567,1587,1607,1627,1646,1667,1688,1706,1727,1747,1766,1786,1806,1827,1848,1866,1888,1906,1927,1946,1967,1988,2007,2027,2048,2066,2087,2107,2127,2147,2167,2188,2207],"xSR":741.5,"ySR":573.95,"xT1":424.9,"yT1":0,"xT2":1058.1,"yT2":0,"toosoon":0,"cond_shown":"Congruent","ratio_trial":300,"L_num":4,"L_den":20,"R_num":13,"R_den":26,"correct_side":2,"subjID":"SamuelSanchezPaz29","gender":"0","school":"4","age":"9"},{"start_time":1552327747391,"click_time":1552327755291,"finger_time":1552327748690,"fix_duration":640.7747779695944,"trial":17,"RT":1299,"MT":6601,"sideResp":2,"stimulus":[],"xmouse":[768,768,768,768,768,768,768,768,768,768,768,768,767,767,767,767,769,770,770,771,771,771,771,771,771,771,771,771,771,771,771,771,771,771,772,777,777,777,777,777,777,777,777,778,778,778,778,778,778,778,778,778,778,778,778,778,778,778,778,778,778,778,780,783,791,818,825,831,839,847,860,863,866,868,872,884,889,893,895,896,897,897,897,897,897,897,897,897,897,897,897,897,897,897,897,897,897,897,897,897,897,897,897,897,897,897,897,897,897,898,900,901,902,902,902,903,904,904,904,905,905,905,905,905,905,905,905,905,905,905,905,905,905,905,905,905,905,905,905,905,905,905,906,907,907,907,907,907,907,907,907,907,907,907,907,907,907,907,907,907,907,907,907,907,907,905,903,902,899,896,889,884,878,866,855,824,816,812,809,807,807,806,805,805,805,805,805,805,805,805,805,805,805,805,805,805,805,803,802,802,801,801,801,801,801,801,801,801,801,801,801,801,801,801,801,801,801,801,801,801,801,801,801,801,812,836,858,858,858,859,859,859,859,859,859,859,859,859,859,859,859,859,859,859,859,858,858,857,856,854,854,852,852,851,850,849,849,849,849,849,849,849,849,846,840,838,838,838,838,838,837,836,835,834,833,831,829,829,829,829,829,829,829,828,826,820,820,820,820,820,820,820,820,820,820,820,820,820,820,820,820,820,820,820,820,820,820,820,820,820,820,820,820,820,820,820,820,820,820,821,822,824,824,824,824,824,827,828,828,829,831,833,834,835,836,836,836,836,836,836,836,836,836,836,836,836,836,836,836,836,836,838,838,839,841,843,847,848,849,849,852,854,856,858,861,863,867,870,873,876,881,893,909,913,928,938,954,960,964,964,968,974,980,983,986,988,993,996,999,1003,1006,1024,1053,1067,1101],"ymouse":[600,600,600,600,600,600,600,600,600,600,600,600,600,601,603,606,610,612,613,613,613,613,613,613,613,613,613,613,613,613,613,613,613,614,615,616,616,616,616,616,616,616,617,617,617,617,617,617,617,617,617,617,617,617,617,617,617,617,617,617,617,613,605,590,569,508,483,460,436,412,375,366,360,356,348,329,322,315,311,311,309,309,309,309,309,309,309,309,309,309,309,309,309,309,309,309,309,309,309,309,309,309,309,309,309,309,309,309,309,308,307,306,305,304,304,304,303,303,303,302,302,302,302,302,302,302,302,302,302,302,302,302,302,302,302,302,302,302,302,302,302,301,300,298,298,298,297,296,296,295,294,294,294,294,294,294,294,294,294,294,294,294,293,293,293,293,293,292,292,291,291,289,288,283,277,263,260,258,257,256,256,256,256,256,255,255,255,255,255,255,255,255,255,255,255,255,255,256,256,256,257,257,257,258,258,259,259,259,259,259,259,259,259,259,259,259,259,259,259,259,259,259,259,260,273,300,321,321,321,321,321,321,321,321,321,321,321,321,321,321,321,321,322,322,322,322,322,322,324,324,324,325,325,325,325,325,325,325,325,325,325,325,325,325,327,328,328,328,328,328,328,328,328,329,330,330,331,331,331,331,331,331,331,331,332,333,333,333,333,333,333,333,333,333,333,333,333,333,333,333,333,333,333,333,333,333,333,333,333,333,333,334,334,334,334,334,334,334,334,335,336,336,336,336,337,337,337,338,338,338,338,338,338,338,338,338,338,338,338,338,338,338,338,338,338,338,338,338,338,338,338,337,337,335,334,333,330,329,328,326,320,317,315,312,309,307,303,301,298,296,293,288,282,279,274,270,265,263,262,261,258,251,244,241,236,232,224,220,216,213,210,192,139,108,29],"timestamp_mouse":[20,43,60,79,98,119,139,160,178,199,220,239,259,278,300,319,339,358,378,398,419,438,459,479,498,520,538,559,579,600,618,640,660,679,699,718,739,758,780,800,819,840,859,880,899,919,940,959,979,1000,1018,1038,1060,1080,1100,1119,1140,1160,1180,1200,1219,1240,1258,1279,1299,1319,1339,1358,1378,1398,1419,1439,1459,1479,1500,1518,1538,1558,1579,1600,1619,1640,1659,1679,1700,1719,1739,1759,1780,1800,1819,1838,1859,1879,1899,1919,1939,1960,1978,1999,2019,2039,2059,2078,2098,2118,2139,2159,2179,2198,2218,2238,2259,2279,2299,2320,2339,2358,2379,2400,2419,2439,2458,2480,2499,2519,2539,2558,2579,2600,2619,2639,2659,2679,2700,2719,2740,2759,2778,2800,2819,2839,2859,2880,2899,2918,2939,2958,2980,2999,3019,3039,3058,3079,3100,3119,3139,3159,3179,3199,3219,3240,3259,3278,3298,3319,3340,3359,3378,3398,3419,3439,3460,3478,3499,3518,3538,3559,3579,3598,3618,3639,3658,3679,3699,3719,3738,3759,3780,3800,3819,3838,3860,3879,3899,3919,3939,3958,3979,3999,4020,4039,4058,4078,4098,4118,4140,4160,4179,4198,4218,4239,4259,4279,4300,4319,4339,4358,4380,4399,4420,4440,4459,4480,4499,4518,4539,4559,4579,4599,4620,4639,4659,4678,4700,4720,4740,4760,4778,4799,4820,4839,4860,4878,4899,4919,4940,4959,4980,4999,5019,5038,5058,5079,5099,5120,5140,5159,5179,5198,5220,5238,5259,5280,5299,5319,5338,5359,5379,5400,5419,5438,5458,5478,5499,5519,5538,5559,5579,5599,5619,5638,5658,5679,5699,5719,5738,5758,5778,5799,5819,5839,5859,5879,5898,5920,5938,5959,5980,6000,6020,6038,6058,6079,6099,6120,6138,6158,6179,6199,6219,6239,6259,6280,6300,6319,6339,6359,6379,6399,6419,6440,6458,6479,6499,6519,6539,6559,6578,6598,6619,6639,6659,6679,6700,6719,6739,6759,6780,6799,6819,6839,6859,6878,6898,6919,6938,6959,6980,6999,7019,7038,7059,7079,7100,7120,7138,7160,7179,7198,7220,7238,7259,7279,7299,7319,7339,7360,7379,7400,7418,7438,7460,7478,7499,7519,7539,7559,7580,7600,7619,7639,7659,7679,7699,7718,7739,7759,7778,7799,7819,7839,7859,7879,7900],"xSR":741.5,"ySR":573.95,"xT1":424.9,"yT1":0,"xT2":1058.1,"yT2":0,"toosoon":0,"cond_shown":"Incongruent","ratio_trial":200,"L_num":1,"L_den":3,"R_num":2,"R_den":15,"correct_side":1,"subjID":"SamuelSanchezPaz29","gender":"0","school":"4","age":"9"},{"start_time":1552327759859,"click_time":1552327762549,"finger_time":1552327761590,"fix_duration":327.5806596462437,"trial":18,"RT":1731,"MT":959,"sideResp":1,"stimulus":[],"xmouse":[814,814,814,814,814,814,814,814,814,814,814,814,814,814,814,814,814,814,814,814,814,814,814,814,814,814,814,814,814,814,814,814,814,814,814,814,814,814,814,814,814,814,814,814,814,814,814,814,814,814,814,814,814,814,814,814,814,814,814,814,814,814,814,814,814,814,814,814,814,814,814,814,814,814,814,814,814,814,814,814,814,811,805,775,756,744,733,725,702,691,679,667,658,642,634,624,616,604,589,583,574,567,560,555,542,536,530,527,523,521,519,515,512,508,502,500,498,495,490,487,483,481,480,480,480,480,479,478,476,475,473,472,471,470,470],"ymouse":[622,622,622,622,622,622,622,622,622,622,622,622,622,622,622,622,622,622,622,622,622,622,622,622,622,622,622,622,622,622,622,622,622,622,622,622,622,622,622,622,622,622,622,622,622,622,622,622,622,622,622,622,622,622,622,622,622,622,622,622,622,622,622,622,622,622,622,622,622,622,622,622,622,622,622,622,622,622,622,622,622,621,617,600,592,584,579,576,566,561,556,551,547,538,532,526,519,507,485,475,460,448,435,426,403,394,383,376,367,361,356,348,339,331,315,309,304,288,258,237,215,200,191,189,189,189,188,183,175,170,161,150,135,104,92],"timestamp_mouse":[16,42,51,71,91,111,131,152,172,191,210,231,252,272,292,311,331,351,372,392,411,431,450,472,492,510,531,550,572,590,612,632,652,672,691,712,732,750,772,792,812,830,850,871,892,911,931,952,972,991,1012,1032,1051,1071,1092,1112,1131,1150,1171,1191,1210,1231,1250,1272,1292,1311,1330,1352,1371,1390,1411,1432,1451,1471,1491,1511,1532,1550,1571,1591,1612,1630,1650,1671,1691,1711,1731,1752,1771,1790,1811,1830,1851,1871,1891,1911,1931,1952,1971,1992,2011,2030,2051,2071,2092,2112,2130,2151,2171,2191,2211,2231,2252,2270,2290,2311,2331,2351,2371,2390,2411,2430,2452,2471,2492,2510,2531,2551,2571,2590,2610,2632,2651,2671,2690],"xSR":741.5,"ySR":573.95,"xT1":424.9,"yT1":0,"xT2":1058.1,"yT2":0,"toosoon":0,"cond_shown":"Incongruent","ratio_trial":300,"L_num":2,"L_den":4,"R_num":6,"R_den":30,"correct_side":1,"subjID":"SamuelSanchezPaz29","gender":"0","school":"4","age":"9"},{"start_time":1552327764873,"click_time":1552327766949,"finger_time":1552327766249,"fix_duration":1022.299659112143,"trial":19,"RT":1376,"MT":700,"sideResp":2,"stimulus":[],"xmouse":[787,787,787,787,787,787,787,787,787,787,787,787,787,787,787,787,787,787,787,787,787,787,787,787,787,787,787,787,787,787,787,786,786,786,786,786,786,786,786,786,786,786,786,786,786,786,786,786,786,786,786,786,786,786,786,786,786,786,786,786,786,786,786,787,787,788,788,789,795,799,805,808,809,818,822,829,829,829,830,830,831,831,832,833,834,846,855,865,879,893,913,927,939,954,961,965,970,976,992,1005,1020,1037,1056,1098],"ymouse":[618,618,618,618,618,618,618,618,618,618,618,618,618,618,618,618,618,618,618,618,618,618,618,618,618,618,618,618,618,617,617,617,616,616,616,616,616,616,616,616,616,616,616,616,616,616,616,616,616,616,616,616,616,616,616,616,616,616,616,613,608,604,602,599,595,591,585,575,538,505,464,411,372,307,282,233,192,137,67,52,45,41,40,40,40,40,40,40,40,40,40,40,41,41,41,41,41,41,41,43,47,53,58,71],"timestamp_mouse":[21,46,57,78,97,117,137,158,177,196,217,237,257,277,297,318,338,358,376,396,416,438,457,477,496,516,536,557,578,597,616,638,657,678,697,717,737,758,778,796,818,838,857,876,896,917,938,958,977,996,1016,1037,1056,1077,1096,1116,1138,1158,1178,1198,1217,1238,1257,1277,1298,1316,1338,1356,1376,1398,1418,1437,1457,1476,1497,1517,1537,1557,1578,1597,1618,1637,1656,1676,1698,1717,1736,1757,1778,1797,1816,1838,1857,1877,1897,1916,1938,1957,1977,1997,2018,2037,2057,2076],"xSR":741.5,"ySR":573.95,"xT1":424.9,"yT1":0,"xT2":1058.1,"yT2":0,"toosoon":0,"cond_shown":"Congruent","ratio_trial":100,"L_num":6,"L_den":12,"R_num":15,"R_den":25,"correct_side":2,"subjID":"SamuelSanchezPaz29","gender":"0","school":"4","age":"9"},{"start_time":1552327770130,"click_time":1552327772270,"finger_time":1552327771450,"fix_duration":478.63568903264206,"trial":20,"RT":1320,"MT":820,"sideResp":2,"stimulus":[],"xmouse":[794,794,794,794,794,794,794,794,794,794,794,794,794,794,794,794,794,794,794,794,794,794,794,794,794,794,794,794,794,794,794,794,794,794,794,794,794,794,794,794,794,794,794,794,794,794,794,794,794,794,794,794,794,794,794,794,794,794,794,794,794,795,795,796,797,801,813,819,823,825,826,829,832,833,836,839,847,853,858,865,871,880,885,890,898,904,914,920,924,927,931,934,934,935,936,938,941,951,957,961,966,976,981,985,988,994,1032,1071],"ymouse":[645,645,645,645,645,645,645,645,645,645,645,645,645,645,645,645,645,645,645,645,645,645,645,645,645,645,645,645,645,645,645,645,645,645,645,645,644,644,644,643,642,641,640,640,640,640,640,640,640,640,640,640,640,640,640,640,640,639,638,637,636,634,633,629,622,609,567,548,535,525,514,498,480,471,461,451,423,407,392,374,358,323,309,295,279,265,239,226,213,202,192,182,182,181,180,179,179,178,177,176,176,175,174,174,172,169,138,95],"timestamp_mouse":[10,20,39,60,81,100,120,140,161,180,200,219,239,260,281,301,319,339,361,380,401,420,439,460,480,500,520,541,561,580,599,621,640,661,681,701,720,740,761,780,801,819,840,860,880,901,920,940,961,979,1001,1019,1040,1061,1080,1101,1121,1140,1161,1180,1201,1220,1240,1259,1279,1299,1320,1339,1360,1379,1400,1420,1441,1460,1480,1499,1520,1540,1560,1581,1600,1620,1639,1660,1680,1699,1720,1739,1760,1779,1800,1820,1839,1859,1880,1899,1919,1939,1960,1979,2000,2019,2039,2060,2081,2099,2120,2140],"xSR":741.5,"ySR":573.95,"xT1":424.9,"yT1":0,"xT2":1058.1,"yT2":0,"toosoon":0,"cond_shown":"Congruent","ratio_trial":300,"L_num":5,"L_den":25,"R_num":6,"R_den":12,"correct_side":2,"subjID":"SamuelSanchezPaz29","gender":"0","school":"4","age":"9"},{"start_time":1552327774849,"click_time":1552327777011,"finger_time":1552327776371,"fix_duration":1057.257389925562,"trial":21,"RT":1522,"MT":640,"sideResp":1,"stimulus":[],"xmouse":[788,788,788,788,788,788,788,789,789,789,789,789,789,789,789,789,789,789,789,789,789,789,789,789,789,789,789,789,789,789,789,789,789,789,789,789,789,789,789,789,789,789,789,789,789,789,789,789,789,789,789,789,789,789,789,789,789,789,789,789,789,789,789,789,789,789,789,789,789,789,789,789,789,789,789,785,774,767,762,758,752,736,722,712,704,684,671,661,650,642,632,610,600,584,574,562,539,529,517,504,493,486,485,485,483,480,472,466,462],"ymouse":[606,606,606,606,606,606,606,606,606,606,606,606,606,606,606,606,606,606,606,606,606,606,606,606,606,606,606,606,606,606,606,606,606,606,606,606,606,606,606,606,606,606,606,606,606,606,606,606,606,606,606,606,606,606,606,606,606,606,606,606,606,606,606,606,606,606,606,606,606,606,606,606,606,603,595,581,540,519,501,485,469,440,422,414,407,392,384,377,369,362,354,336,327,308,297,284,254,238,222,205,189,178,177,176,174,166,137,115,97],"timestamp_mouse":[10,21,40,62,82,101,120,141,161,182,201,222,241,260,280,301,322,340,361,380,400,421,441,460,480,500,522,541,562,581,602,621,641,662,682,702,720,742,762,781,802,822,840,862,882,902,921,941,960,981,1001,1021,1042,1061,1080,1102,1121,1140,1160,1181,1202,1222,1242,1262,1282,1301,1321,1340,1360,1381,1400,1421,1441,1461,1481,1500,1522,1541,1561,1581,1601,1620,1641,1660,1681,1702,1720,1740,1762,1782,1801,1821,1841,1861,1880,1901,1921,1942,1962,1980,2001,2021,2041,2060,2081,2100,2120,2141,2162],"xSR":741.5,"ySR":573.95,"xT1":424.9,"yT1":0,"xT2":1058.1,"yT2":0,"toosoon":0,"cond_shown":"Congruent","ratio_trial":200,"L_num":16,"L_den":20,"R_num":12,"R_den":20,"correct_side":1,"subjID":"SamuelSanchezPaz29","gender":"0","school":"4","age":"9"},{"start_time":1552327778622,"click_time":1552327780651,"finger_time":1552327778749,"fix_duration":250,"trial":22,"RT":127,"MT":1902,"sideResp":2,"stimulus":[],"xmouse":[790,790,790,790,785,771,747,742,743,744,744,744,744,744,744,744,744,744,744,744,745,748,762,772,783,786,787,788,789,789,789,789,789,789,789,789,789,789,789,789,789,789,789,789,789,789,789,789,789,789,789,790,790,791,791,792,794,804,812,820,829,838,868,879,882,882,883,887,888,890,890,890,891,893,896,900,904,911,915,920,926,935,948,952,957,962,967,976,983,990,999,1009,1031,1037,1039,1042,1045,1055,1061,1066,1073,1077],"ymouse":[632,632,632,632,636,661,720,738,735,733,732,732,732,732,732,732,732,732,732,732,731,726,700,683,658,647,638,623,621,620,620,620,620,620,620,620,620,620,620,620,620,620,620,619,619,619,619,619,619,619,619,618,617,616,614,610,604,573,554,534,514,492,424,400,395,392,390,383,381,379,378,378,375,367,357,342,326,301,289,276,257,239,211,204,197,192,189,186,185,184,181,178,164,160,158,155,152,139,128,120,107,98],"timestamp_mouse":[14,29,48,69,87,108,127,148,167,187,208,228,248,268,288,308,329,348,369,388,408,427,448,468,487,507,528,548,569,588,609,629,648,669,689,709,727,748,769,788,809,828,849,868,888,907,928,949,968,987,1008,1028,1048,1068,1089,1108,1127,1148,1168,1188,1207,1227,1247,1267,1287,1308,1327,1348,1368,1388,1408,1427,1448,1467,1488,1509,1527,1548,1567,1588,1608,1627,1648,1667,1688,1709,1729,1747,1768,1787,1808,1828,1848,1868,1888,1908,1927,1948,1967,1988,2007,2029],"xSR":741.5,"ySR":573.95,"xT1":424.9,"yT1":0,"xT2":1058.1,"yT2":0,"toosoon":0,"cond_shown":"Incongruent","ratio_trial":200,"L_num":7,"L_den":10,"R_num":14,"R_den":28,"correct_side":1,"subjID":"SamuelSanchezPaz29","gender":"0","school":"4","age":"9"},{"start_time":1552327783678,"click_time":1552327785071,"finger_time":1552327784331,"fix_duration":1407.0282490226732,"trial":23,"RT":653,"MT":740,"sideResp":2,"stimulus":[],"xmouse":[802,801,801,801,801,801,801,801,801,801,801,801,801,801,801,801,801,801,801,801,801,801,801,801,801,801,801,801,801,801,801,799,799,800,802,803,804,805,806,806,808,808,808,811,815,830,839,847,851,857,870,876,880,882,883,887,890,893,900,903,905,906,906,908,913,942,963,982,1003,1095],"ymouse":[577,576,576,575,575,575,575,575,575,575,575,575,575,575,575,575,575,575,575,575,575,575,575,575,575,575,575,575,575,575,575,575,573,567,560,559,557,554,552,550,548,547,545,538,521,482,462,448,439,428,403,389,371,357,343,316,296,270,228,204,189,189,189,187,185,178,174,166,153,67],"timestamp_mouse":[13,40,52,71,92,111,133,152,173,191,212,233,252,271,292,313,332,352,373,393,413,432,453,471,492,513,531,552,572,593,612,632,653,672,692,711,732,753,771,792,812,832,852,872,891,911,932,952,972,992,1012,1032,1053,1071,1092,1112,1132,1151,1172,1192,1212,1232,1252,1273,1291,1311,1332,1352,1372,1392],"xSR":741.5,"ySR":573.95,"xT1":424.9,"yT1":0,"xT2":1058.1,"yT2":0,"toosoon":0,"cond_shown":"Congruent","ratio_trial":300,"L_num":7,"L_den":14,"R_num":20,"R_den":25,"correct_side":2,"subjID":"SamuelSanchezPaz29","gender":"0","school":"4","age":"9"},{"start_time":1552327786694,"click_time":1552327788850,"finger_time":1552327788190,"fix_duration":603.1804565773217,"trial":24,"RT":1496,"MT":660,"sideResp":2,"stimulus":[],"xmouse":[804,804,804,804,804,804,804,804,804,804,804,804,804,804,804,804,804,804,804,804,804,804,804,804,804,804,804,804,804,804,804,804,804,804,804,804,804,804,804,804,804,804,804,804,804,804,804,804,804,804,804,804,804,804,804,804,804,804,804,804,804,804,804,804,804,804,804,804,804,804,804,804,804,804,809,813,816,820,824,839,848,858,868,879,901,910,913,914,914,914,914,914,915,916,921,924,930,938,948,976,991,1003,1011,1017,1030,1045,1055,1063],"ymouse":[640,640,640,640,640,640,640,640,640,640,640,640,640,640,640,640,640,640,640,640,640,640,640,640,640,640,640,640,640,640,640,640,640,638,631,630,630,630,630,630,630,630,630,630,630,630,630,630,630,630,630,630,630,630,630,630,630,630,630,630,630,630,630,630,630,630,629,623,616,608,604,601,596,589,561,530,508,493,479,445,422,391,358,317,241,197,180,172,171,171,171,171,169,167,159,156,152,149,146,142,140,138,134,130,116,94,77,60],"timestamp_mouse":[16,44,56,75,96,117,136,156,177,196,217,237,256,276,296,315,336,357,376,396,417,435,455,476,496,516,535,556,577,597,616,637,657,675,696,716,736,756,775,795,815,835,856,876,896,916,935,956,977,996,1016,1036,1057,1077,1095,1115,1137,1156,1177,1195,1215,1237,1257,1276,1296,1315,1336,1356,1376,1396,1416,1435,1455,1477,1496,1516,1536,1556,1575,1595,1615,1636,1655,1676,1696,1717,1737,1756,1776,1796,1816,1837,1855,1875,1896,1916,1936,1956,1976,1995,2016,2036,2056,2076,2096,2116,2135,2156],"xSR":741.5,"ySR":573.95,"xT1":424.9,"yT1":0,"xT2":1058.1,"yT2":0,"toosoon":0,"cond_shown":"Congruent","ratio_trial":200,"L_num":9,"L_den":30,"R_num":13,"R_den":26,"correct_side":2,"subjID":"SamuelSanchezPaz29","gender":"0","school":"4","age":"9"},{"start_time":1552327792110,"click_time":1552327793609,"finger_time":1552327793131,"fix_duration":717.6222906767273,"trial":25,"RT":1021,"MT":478,"sideResp":1,"stimulus":[],"xmouse":[792,792,792,792,792,792,792,792,792,792,792,792,792,792,792,792,792,792,792,792,792,792,792,792,792,792,792,792,792,792,792,792,792,792,792,792,792,792,792,792,792,792,792,792,792,792,791,790,788,783,777,764,746,717,689,680,672,661,649,630,619,610,601,591,573,566,560,557,554,551,549,547,545,538,528,522],"ymouse":[619,619,619,619,619,619,619,619,619,619,619,619,619,619,619,619,619,619,619,619,619,619,619,619,619,619,619,619,619,619,619,619,619,619,619,619,619,619,619,619,619,619,619,619,619,618,616,612,609,600,590,572,550,525,502,494,484,471,455,427,410,394,379,357,295,271,249,229,212,187,174,160,145,117,88,73],"timestamp_mouse":[10,37,41,61,79,101,121,141,161,180,199,220,240,260,279,301,321,341,361,379,401,420,441,460,481,499,520,541,560,581,601,620,640,659,681,701,720,741,760,780,801,821,841,861,879,900,920,941,961,980,1000,1021,1039,1059,1080,1099,1120,1141,1159,1180,1199,1219,1239,1259,1279,1300,1319,1340,1360,1380,1399,1419,1439,1460,1480,1499],"xSR":741.5,"ySR":573.95,"xT1":424.9,"yT1":0,"xT2":1058.1,"yT2":0,"toosoon":0,"cond_shown":"Congruent","ratio_trial":200,"L_num":16,"L_den":30,"R_num":9,"R_den":27,"correct_side":1,"subjID":"SamuelSanchezPaz29","gender":"0","school":"4","age":"9"},{"start_time":1552327795067,"click_time":1552327796650,"finger_time":1552327795891,"fix_duration":494.4073935078794,"trial":26,"RT":824,"MT":759,"sideResp":2,"stimulus":[],"xmouse":[798,798,798,798,798,798,798,798,798,798,798,798,797,797,797,796,796,796,796,796,796,795,795,795,795,795,795,795,795,795,794,792,792,792,792,792,792,792,792,791,794,815,832,853,890,914,934,952,954,954,954,954,954,954,954,954,954,958,960,961,961,961,966,977,984,1006,1030,1033,1033,1034,1036,1039,1043,1043,1043,1043,1043,1044,1056,1077],"ymouse":[651,651,651,651,651,651,651,651,651,651,649,645,642,640,639,638,638,638,638,638,638,635,628,622,619,619,619,619,619,619,619,619,619,619,619,619,619,619,619,607,597,530,472,404,254,142,35,0,0,0,0,0,0,0,0,0,0,0,0,0,0,0,1,13,17,22,21,20,20,20,20,20,20,20,20,20,20,20,25,34],"timestamp_mouse":[15,30,42,64,84,104,124,144,164,182,203,224,243,263,284,303,322,343,364,384,404,422,442,464,483,503,522,544,564,582,603,622,644,664,684,702,723,744,764,783,802,824,843,863,882,903,923,943,964,983,1003,1024,1043,1063,1083,1104,1122,1142,1163,1183,1202,1223,1242,1263,1283,1304,1323,1343,1363,1384,1402,1423,1442,1463,1483,1503,1523,1543,1562,1583],"xSR":741.5,"ySR":573.95,"xT1":424.9,"yT1":0,"xT2":1058.1,"yT2":0,"toosoon":0,"cond_shown":"Congruent","ratio_trial":200,"L_num":1,"L_den":2,"R_num":21,"R_den":30,"correct_side":2,"subjID":"SamuelSanchezPaz29","gender":"0","school":"4","age":"9"},{"start_time":1552327799632,"click_time":1552327803091,"finger_time":1552327801150,"fix_duration":1441.982002930652,"trial":27,"RT":1518,"MT":1941,"sideResp":1,"stimulus":[],"xmouse":[791,791,791,791,790,789,789,789,788,787,787,787,787,787,787,787,787,787,787,787,787,787,787,787,787,787,787,787,787,786,786,785,785,785,785,785,784,783,783,783,783,783,783,783,783,783,783,783,783,783,783,784,784,784,784,784,784,784,784,784,784,784,785,785,786,786,786,786,786,786,786,786,786,786,786,786,786,786,786,786,786,786,783,782,780,780,780,780,780,778,774,770,762,753,730,712,697,680,667,652,650,650,650,650,650,650,650,650,650,655,666,678,685,687,693,697,702,706,711,711,712,712,713,723,772,788,794,794,794,794,794,794,794,794,794,794,794,794,794,792,785,777,766,757,741,733,726,720,712,702,677,665,654,643,635,614,602,588,570,557,538,534,534,533,527,521,512,510,504,498,493,490,487],"ymouse":[640,640,640,640,640,640,640,640,640,640,640,640,640,640,640,640,640,640,640,640,640,640,640,640,640,640,640,640,640,638,637,634,633,633,633,632,632,630,623,618,615,613,613,613,613,613,613,613,611,606,602,598,596,596,596,596,596,596,596,596,595,593,592,589,587,585,585,585,585,585,585,585,585,584,577,573,571,569,568,566,564,559,551,545,540,540,540,539,539,532,525,515,501,482,443,418,397,373,357,335,332,332,331,331,331,331,331,331,331,331,333,335,335,335,334,330,324,315,297,287,287,287,286,286,286,286,286,286,286,286,286,286,286,286,286,286,286,286,286,276,268,262,256,254,249,247,245,243,241,238,229,225,220,215,210,197,188,178,165,155,142,139,139,138,133,128,121,119,113,109,104,101,96],"timestamp_mouse":[18,37,59,79,99,117,139,158,177,198,218,239,259,277,297,317,339,358,379,399,418,439,458,478,498,518,538,559,578,598,617,639,659,677,698,718,738,757,778,798,817,839,858,879,897,918,937,957,979,997,1019,1038,1058,1078,1097,1119,1138,1159,1178,1197,1219,1238,1259,1277,1297,1318,1338,1359,1378,1397,1418,1438,1459,1478,1498,1518,1538,1559,1578,1598,1618,1637,1658,1677,1699,1717,1737,1757,1777,1798,1817,1837,1859,1878,1898,1918,1937,1957,1979,1998,2018,2037,2057,2077,2098,2119,2139,2158,2177,2198,2217,2239,2257,2277,2298,2318,2338,2357,2378,2397,2417,2438,2459,2478,2498,2517,2539,2558,2577,2597,2618,2638,2658,2677,2697,2719,2738,2759,2779,2798,2817,2837,2858,2878,2898,2917,2937,2957,2979,2998,3018,3039,3059,3077,3098,3119,3138,3157,3177,3198,3218,3237,3259,3278,3299,3318,3338,3359,3377,3397,3418,3438,3459],"xSR":741.5,"ySR":573.95,"xT1":424.9,"yT1":0,"xT2":1058.1,"yT2":0,"toosoon":0,"cond_shown":"Incongruent","ratio_trial":200,"L_num":3,"L_den":4,"R_num":11,"R_den":20,"correct_side":1,"subjID":"SamuelSanchezPaz29","gender":"0","school":"4","age":"9"},{"start_time":1552327804878,"click_time":1552327806930,"finger_time":1552327806190,"fix_duration":485.33051135896255,"trial":28,"RT":1312,"MT":740,"sideResp":1,"stimulus":[],"xmouse":[794,794,794,794,794,794,794,794,794,794,794,794,794,794,794,794,794,794,794,794,794,794,794,794,794,794,794,794,794,794,794,794,794,794,794,794,794,794,794,795,795,795,795,795,795,795,795,795,795,795,795,795,795,795,795,795,795,795,795,795,795,795,795,796,789,782,774,752,743,734,726,721,715,696,678,667,654,648,636,630,622,613,607,596,594,581,573,560,540,533,530,529,529,529,529,529,529,529,529,528,525,518,511],"ymouse":[603,603,603,603,603,603,603,603,603,603,603,603,603,603,603,603,603,603,603,603,603,603,603,603,603,603,603,603,603,603,603,603,603,603,603,603,603,603,603,603,603,603,603,603,603,603,603,603,603,603,603,603,603,603,603,603,603,603,603,603,603,603,603,598,582,568,554,519,504,489,476,468,457,429,406,390,375,368,355,349,340,332,325,310,305,280,252,213,154,135,129,127,127,127,127,127,127,127,127,125,122,109,97],"timestamp_mouse":[16,40,53,72,93,113,132,151,171,192,213,231,253,272,292,312,333,353,372,392,413,432,452,471,493,512,532,552,573,592,613,632,653,672,693,712,731,753,772,792,811,833,852,871,893,912,933,951,972,993,1012,1033,1052,1072,1093,1112,1132,1152,1172,1193,1213,1232,1251,1271,1292,1312,1333,1353,1372,1392,1412,1431,1452,1472,1492,1511,1531,1552,1573,1592,1613,1631,1651,1671,1691,1711,1733,1751,1771,1792,1812,1831,1852,1873,1892,1913,1931,1953,1972,1991,2012,2032,2052],"xSR":741.5,"ySR":573.95,"xT1":424.9,"yT1":0,"xT2":1058.1,"yT2":0,"toosoon":0,"cond_shown":"Incongruent","ratio_trial":200,"L_num":9,"L_den":15,"R_num":8,"R_den":10,"correct_side":2,"subjID":"SamuelSanchezPaz29","gender":"0","school":"4","age":"9"},{"start_time":1552327810789,"click_time":1552327812491,"finger_time":1552327812150,"fix_duration":1016.9080475921639,"trial":29,"RT":1361,"MT":341,"sideResp":1,"stimulus":[],"xmouse":[816,816,816,816,816,816,816,816,816,816,816,816,816,815,815,815,815,814,813,813,813,813,813,813,813,813,812,812,812,811,811,811,811,811,811,811,810,810,808,808,808,807,807,807,806,806,806,806,806,806,806,806,806,806,806,806,806,806,806,806,806,806,806,806,806,806,806,802,776,757,736,720,705,684,675,665,648,630,562,537,519,510,507,505,503,500],"ymouse":[612,612,612,612,612,612,612,612,612,612,612,612,612,612,612,611,610,610,608,608,608,608,608,608,608,607,607,607,607,607,607,607,607,607,607,607,608,608,608,608,608,609,609,609,610,610,610,610,610,610,610,610,610,610,610,610,610,610,610,610,610,610,610,610,610,609,606,593,543,514,485,461,441,411,395,378,352,320,203,158,129,115,109,108,103,99],"timestamp_mouse":[14,37,40,60,82,101,122,141,160,180,202,222,240,262,281,301,321,340,361,382,401,421,442,461,480,502,521,540,560,581,600,620,641,662,680,702,721,740,761,782,801,821,842,860,881,902,922,942,960,980,1000,1022,1042,1061,1081,1102,1122,1140,1162,1182,1202,1222,1240,1260,1281,1301,1322,1341,1361,1381,1400,1420,1440,1462,1480,1500,1521,1541,1561,1581,1600,1620,1641,1661,1680,1701],"xSR":741.5,"ySR":573.95,"xT1":424.9,"yT1":0,"xT2":1058.1,"yT2":0,"toosoon":0,"cond_shown":"Incongruent","ratio_trial":200,"L_num":7,"L_den":10,"R_num":8,"R_den":16,"correct_side":1,"subjID":"SamuelSanchezPaz29","gender":"0","school":"4","age":"9"},{"start_time":1552327815517,"click_time":1552327817831,"finger_time":1552327816890,"fix_duration":664.4179324837827,"trial":30,"RT":1373,"MT":941,"sideResp":1,"stimulus":[],"xmouse":[779,779,779,779,779,779,779,779,779,779,779,779,779,779,779,779,779,779,779,779,779,779,779,779,779,779,779,779,779,779,779,779,779,779,779,779,779,779,779,779,779,779,779,779,779,779,779,779,779,779,779,779,779,779,779,779,779,776,774,773,773,773,773,773,773,768,765,745,727,718,713,708,698,693,685,678,663,653,638,629,622,614,598,591,583,578,575,564,561,550,542,536,534,534,534,534,534,533,531,529,525,523,520,517,515,512,510,506,504,504,503,503,502,502,501,500],"ymouse":[628,628,628,628,628,628,628,628,628,628,628,628,628,628,628,628,628,628,628,628,628,628,628,628,628,628,628,628,628,628,628,628,628,628,628,628,628,628,628,628,628,628,628,628,628,628,628,628,628,628,628,628,628,628,628,628,628,623,620,618,618,618,618,618,618,611,606,578,555,544,537,531,514,505,495,484,458,441,409,388,371,353,315,297,280,269,258,233,226,201,185,173,168,168,168,168,168,166,161,155,148,144,137,133,128,123,119,112,108,107,106,104,103,103,101,96],"timestamp_mouse":[12,43,54,73,94,112,134,154,173,194,213,232,253,274,294,314,333,352,374,394,413,433,454,474,494,513,534,554,572,592,614,632,653,674,693,713,734,753,774,792,814,834,854,873,894,913,934,953,972,992,1012,1032,1054,1074,1093,1112,1133,1153,1173,1193,1214,1234,1253,1274,1294,1313,1333,1353,1373,1392,1414,1433,1454,1474,1494,1514,1535,1552,1575,1592,1613,1633,1654,1674,1693,1713,1733,1752,1774,1792,1813,1834,1853,1873,1893,1913,1934,1952,1974,1993,2013,2033,2052,2072,2093,2112,2134,2153,2172,2192,2213,2234,2254,2274,2293,2314],"xSR":741.5,"ySR":573.95,"xT1":424.9,"yT1":0,"xT2":1058.1,"yT2":0,"toosoon":0,"cond_shown":"Congruent","ratio_trial":200,"L_num":11,"L_den":22,"R_num":3,"R_den":10,"correct_side":1,"subjID":"SamuelSanchezPaz29","gender":"0","school":"4","age":"9"},{"start_time":1552327820297,"click_time":1552327822470,"finger_time":1552327822049,"fix_duration":1467.164612576953,"trial":31,"RT":1752,"MT":421,"sideResp":2,"stimulus":[],"xmouse":[775,775,775,775,775,775,775,775,775,775,775,775,775,775,775,775,775,775,775,775,775,775,775,775,775,775,775,775,775,775,775,775,775,775,775,775,775,775,775,775,775,775,775,775,775,775,775,775,775,775,775,775,775,775,775,775,775,775,775,775,775,775,775,775,775,775,775,775,775,775,776,777,779,780,780,780,780,780,780,780,780,780,780,781,786,795,806,815,825,835,836,837,839,841,841,841,841,841,841,845,850,858,866,878,884,894,911,949,1065],"ymouse":[620,620,620,620,620,620,620,620,620,620,620,620,620,620,620,620,620,620,620,620,620,620,620,620,620,620,620,620,620,620,620,620,620,621,621,621,621,621,621,621,621,621,621,621,621,621,621,621,621,621,621,621,621,621,621,621,621,621,621,621,621,621,621,621,621,621,621,621,621,621,618,617,615,613,613,613,613,613,613,613,613,613,613,612,606,595,577,560,531,506,502,499,495,491,491,491,491,491,490,482,473,458,444,415,402,384,351,282,27],"timestamp_mouse":[14,36,53,73,94,113,132,154,173,193,214,233,254,273,292,313,334,354,373,393,414,433,453,473,494,513,532,552,574,594,614,633,654,673,694,713,734,753,772,792,812,834,853,874,894,913,933,953,973,992,1012,1032,1052,1072,1092,1113,1132,1154,1172,1194,1213,1233,1253,1272,1293,1313,1333,1354,1373,1394,1412,1433,1454,1474,1493,1512,1533,1552,1573,1594,1613,1633,1652,1673,1693,1713,1732,1752,1772,1793,1812,1833,1852,1873,1892,1914,1933,1952,1972,1993,2013,2034,2053,2074,2092,2113,2133,2152,2173],"xSR":741.5,"ySR":573.95,"xT1":424.9,"yT1":0,"xT2":1058.1,"yT2":0,"toosoon":0,"cond_shown":"Incongruent","ratio_trial":300,"L_num":4,"L_den":20,"R_num":2,"R_den":4,"correct_side":2,"subjID":"SamuelSanchezPaz29","gender":"0","school":"4","age":"9"},{"start_time":1552327827763,"click_time":1552327830212,"finger_time":1552327829250,"fix_duration":1371.1226572010369,"trial":32,"RT":1487,"MT":962,"sideResp":2,"stimulus":[],"xmouse":[781,781,781,782,782,783,785,785,785,785,785,785,785,785,785,785,785,785,785,785,785,785,785,785,785,785,785,785,785,785,785,785,785,785,785,785,785,785,785,786,786,786,786,786,786,786,786,7