[{"start_time":1552328313784,"click_time":1552328316528,"finger_time":1552328315907,"fix_duration":250,"trial":0,"RT":2123,"MT":621,"sideResp":1,"stimulus":"img/250/randomdotsizeEA/R/4_Ratio_250_L_3_R_12.png","xmouse":[801,801,801,801,801,801,801,801,801,801,801,801,801,801,801,801,801,801,801,801,801,801,801,801,801,801,801,801,801,801,801,801,801,801,801,801,801,801,801,801,801,801,801,801,801,801,801,801,801,801,801,801,801,801,801,801,801,801,801,801,801,801,801,801,801,801,801,801,801,801,801,801,801,801,801,801,801,801,801,801,801,801,801,801,801,801,801,801,801,801,801,801,801,801,801,801,801,801,801,801,801,803,804,808,809,809,809,793,737,717,704,697,694,692,691,689,686,680,663,652,636,621,607,573,552,541,536,535,535,535,535,535,535,535,535,534,528,516],"ymouse":[508,508,508,508,508,508,508,508,508,508,508,508,508,508,508,508,508,508,508,508,508,508,508,508,508,508,508,508,508,508,508,508,508,508,508,508,508,508,508,508,508,508,508,508,508,508,508,508,508,508,508,508,508,508,508,508,508,508,508,508,508,508,508,508,508,508,508,508,508,508,508,508,508,508,508,508,508,508,508,508,508,508,508,508,508,508,508,508,508,508,508,508,508,508,508,508,508,508,508,508,508,508,508,507,505,496,469,414,299,264,242,225,218,212,210,208,204,199,187,181,172,164,156,136,124,117,114,113,113,113,113,113,113,113,113,113,106,93],"timestamp_mouse":[9,23,43,63,83,102,123,142,162,183,202,223,243,263,284,303,323,342,363,382,403,423,442,462,482,503,522,542,562,583,603,623,642,662,682,703,723,742,763,784,804,822,844,862,883,903,924,942,963,983,1002,1023,1042,1063,1083,1104,1124,1144,1163,1182,1203,1223,1243,1263,1282,1303,1323,1344,1363,1382,1403,1423,1442,1463,1482,1503,1524,1544,1564,1583,1603,1623,1642,1663,1682,1703,1723,1743,1762,1784,1804,1823,1842,1862,1882,1903,1924,1942,1963,1982,2003,2023,2042,2062,2083,2103,2123,2142,2162,2183,2202,2223,2242,2262,2283,2303,2323,2343,2362,2383,2402,2423,2443,2462,2483,2502,2522,2542,2563,2584,2604,2624,2644,2662,2683,2702,2723,2743],"xSR":741.5,"ySR":469.95,"xT1":424.9,"yT1":0,"xT2":1058.1,"yT2":0,"toosoon":0,"cond_shown":"randomdotsizeEA","ratio_trial":250,"smaller_num":"3","larger_num":"12","correct_side":2,"subjID":"samuelsanchez29","gender":"0","age":"9","school":"4","test":{"fix_dur":[250,1500],"timestim":300,"targets_dim":[100,100],"targets_relative_coord":[0.3,0.7],"size_stim":[880,420],"start_dim":[100,100],"size_start":[300,300],"size_fix":60,"samplingrate":20,"img_types":["equaldotsize","equaldotanddens","randomdotsizeEA"],"ratios":[250,500,750,900],"rep_conds":9,"nTrials":120,"trials_to_rest":500,"Trials_order":[86,40,6,49,80,90,113,84,110,57,11,32,96,75,51,102,109,83,92,1,4,112,18,68,101,104,66,8,72,97,99,3,21,74,23,85,59,24,81,91,89,31,13,42,53,54,61,105,35,15,52,55,22,111,119,94,118,114,71,16,29,7,98,60,62,50,65,95,37,88,45,38,14,69,77,30,41,27,46,5,100,9,10,58,26,36,76,0,25,116,115,43,108,73,106,33,19,93,17,44,67,12,63,87,78,70,48,56,34,47,107,79,82,117,103,2,28,39,20,64],"cond_shown":["randomdotsizeEA","equaldotanddens","equaldotsize","equaldotanddens","randomdotsizeEA","equaldotsize","randomdotsizeEA","equaldotsize","randomdotsizeEA","equaldotsize","randomdotsizeEA","randomdotsizeEA","equaldotsize","equaldotsize","equaldotsize","equaldotsize","equaldotanddens","randomdotsizeEA","randomdotsizeEA","equaldotanddens","equaldotanddens","equaldotanddens","equaldotsize","randomdotsizeEA","randomdotsizeEA","randomdotsizeEA","equaldotsize","randomdotsizeEA","equaldotsize","equaldotanddens","equaldotsize","equaldotsize","equaldotsize","randomdotsizeEA","randomdotsizeEA","equaldotanddens","randomdotsizeEA","equaldotsize","equaldotsize","equaldotanddens","randomdotsizeEA","equaldotanddens","equaldotanddens","equaldotsize","randomdotsizeEA","equaldotsize","equaldotanddens","equaldotsize","randomdotsizeEA","equaldotsize","equaldotanddens","equaldotanddens","equaldotanddens","equaldotsize","randomdotsizeEA","equaldotanddens","equaldotanddens","equaldotsize","randomdotsizeEA","equaldotanddens","randomdotsizeEA","equaldotanddens","randomdotsizeEA","equaldotsize","randomdotsizeEA","randomdotsizeEA","randomdotsizeEA","randomdotsizeEA","equaldotanddens","equaldotanddens","equaldotsize","randomdotsizeEA","randomdotsizeEA","equaldotsize","randomdotsizeEA","equaldotsize","randomdotsizeEA","equaldotsize","equaldotanddens","randomdotsizeEA","equaldotanddens","equaldotsize","equaldotanddens","equaldotanddens","randomdotsizeEA","equaldotsize","equaldotanddens","equaldotsize","equaldotanddens","randomdotsizeEA","equaldotanddens","equaldotanddens","equaldotsize","equaldotanddens","equaldotanddens","equaldotsize","equaldotanddens","equaldotsize","randomdotsizeEA","randomdotsizeEA","equaldotanddens","equaldotsize","equaldotsize","equaldotsize","equaldotsize","equaldotanddens","equaldotsize","randomdotsizeEA","equaldotanddens","randomdotsizeEA","randomdotsizeEA","equaldotanddens","equaldotanddens","equaldotsize","equaldotanddens","randomdotsizeEA","equaldotanddens","equaldotsize","randomdotsizeEA","equaldotanddens"],"ratio_trial":[250,500,750,250,750,750,500,250,250,900,900,750,250,500,500,750,250,900,750,250,500,500,750,750,500,750,750,750,250,250,500,500,900,250,900,250,900,250,900,750,500,750,250,750,500,750,250,900,900,500,500,750,900,500,900,900,900,750,900,500,500,750,250,250,250,250,500,900,250,500,900,250,250,900,500,750,500,500,900,500,500,900,900,900,250,250,500,250,250,750,750,750,250,250,900,900,750,900,500,750,750,250,500,500,750,900,250,750,900,900,900,750,900,900,750,250,500,500,750,500],"smaller_num":["3","5","15","2","15","3","2","6","6","9","18","3","6","9","2","3","3","9","6","3","6","9","18","18","9","3","6","15","5","6","9","10","18","6","9","3","18","3","18","6","2","15","5","15","9","6","5","18","18","2","4","15","18","2","18","18","9","3","9","2","2","6","4","3","1","4","3","18","6","2","18","2","3","9","2","15","1","5","18","2","3","18","18","18","6","2","6","6","2","15","6","3","2","4","9","18","15","18","2","18","12","6","9","6","3","9","2","3","9","9","18","3","18","18","3","2","2","1","9","1"],"larger_num":["12","10","20","8","20","4","4","24","24","10","20","4","24","18","4","4","12","10","8","12","12","18","24","24","18","4","8","20","20","24","18","20","20","24","10","12","20","12","20","8","4","20","20","20","18","8","20","20","20","4","8","20","20","4","20","20","10","4","10","4","4","8","16","12","4","16","6","20","24","4","20","8","12","10","4","20","2","10","20","4","6","20","20","20","24","8","12","24","8","20","8","4","8","16","10","20","20","20","4","24","16","24","18","12","4","10","8","4","10","10","20","4","20","20","4","8","4","2","12","2"],"correct_side":[2,2,2,1,2,1,1,1,2,1,1,2,1,2,2,2,1,2,1,1,1,1,1,1,2,1,1,1,2,2,2,2,1,1,2,1,1,2,2,2,1,1,2,2,2,2,2,2,1,2,1,2,1,1,1,1,2,2,2,1,1,1,2,2,2,2,2,1,1,1,1,1,2,2,1,2,2,1,2,1,2,2,2,1,2,1,1,1,1,2,1,1,2,1,1,1,2,2,2,1,2,1,1,1,1,2,1,1,2,2,1,1,1,2,1,1,2,2,2,2],"img_shown":["img/250/randomdotsizeEA/R/4_Ratio_250_L_3_R_12.png","img/500/equaldotanddens/R/14_Ratio_500_L_5_R_10.png","img/750/equaldotsize/R/4_Ratio_750_L_15_R_20.png","img/250/equaldotanddens/L/1_Ratio_250_L_8_R_2.png","img/750/randomdotsizeEA/R/4_Ratio_750_L_15_R_20.png","img/750/equaldotsize/L/9_Ratio_750_L_4_R_3.png","img/500/randomdotsizeEA/L/10_Ratio_500_L_4_R_2.png","img/250/equaldotsize/L/5_Ratio_250_L_24_R_6.png","img/250/randomdotsizeEA/R/6_Ratio_250_L_6_R_24.png","img/900/equaldotsize/L/1_Ratio_900_L_10_R_9.png","img/900/randomdotsizeEA/L/10_Ratio_900_L_20_R_18.png","img/750/randomdotsizeEA/R/7_Ratio_750_L_3_R_4.png","img/250/equaldotsize/L/5_Ratio_250_L_24_R_6.png","img/500/equaldotsize/R/6_Ratio_500_L_9_R_18.png","img/500/equaldotsize/R/9_Ratio_500_L_2_R_4.png","img/750/equaldotsize/R/12_Ratio_750_L_3_R_4.png","img/250/equaldotanddens/L/14_Ratio_250_L_12_R_3.png","img/900/randomdotsizeEA/R/7_Ratio_900_L_9_R_10.png","img/750/randomdotsizeEA/L/13_Ratio_750_L_8_R_6.png","img/250/equaldotanddens/L/15_Ratio_250_L_12_R_3.png","img/500/equaldotanddens/L/13_Ratio_500_L_12_R_6.png","img/500/equaldotanddens/L/4_Ratio_500_L_18_R_9.png","img/750/equaldotsize/L/6_Ratio_750_L_24_R_18.png","img/750/randomdotsizeEA/L/6_Ratio_750_L_24_R_18.png","img/500/randomdotsizeEA/R/6_Ratio_500_L_9_R_18.png","img/750/randomdotsizeEA/L/10_Ratio_750_L_4_R_3.png","img/750/equaldotsize/L/14_Ratio_750_L_8_R_6.png","img/750/randomdotsizeEA/L/1_Ratio_750_L_20_R_15.png","img/250/equaldotsize/R/12_Ratio_250_L_5_R_20.png","img/250/equaldotanddens/R/6_Ratio_250_L_6_R_24.png","img/500/equaldotsize/R/6_Ratio_500_L_9_R_18.png","img/500/equaldotsize/R/3_Ratio_500_L_10_R_20.png","img/900/equaldotsize/L/8_Ratio_900_L_20_R_18.png","img/250/randomdotsizeEA/L/5_Ratio_250_L_24_R_6.png","img/900/randomdotsizeEA/R/5_Ratio_900_L_9_R_10.png","img/250/equaldotanddens/L/14_Ratio_250_L_12_R_3.png","img/900/randomdotsizeEA/L/2_Ratio_900_L_20_R_18.png","img/250/equaldotsize/R/4_Ratio_250_L_3_R_12.png","img/900/equaldotsize/R/12_Ratio_900_L_18_R_20.png","img/750/equaldotanddens/R/2_Ratio_750_L_6_R_8.png","img/500/randomdotsizeEA/L/5_Ratio_500_L_4_R_2.png","img/750/equaldotanddens/L/1_Ratio_750_L_20_R_15.png","img/250/equaldotanddens/R/12_Ratio_250_L_5_R_20.png","img/750/equaldotsize/R/4_Ratio_750_L_15_R_20.png","img/500/randomdotsizeEA/R/1_Ratio_500_L_9_R_18.png","img/750/equaldotsize/R/2_Ratio_750_L_6_R_8.png","img/250/equaldotanddens/R/12_Ratio_250_L_5_R_20.png","img/900/equaldotsize/R/12_Ratio_900_L_18_R_20.png","img/900/randomdotsizeEA/L/10_Ratio_900_L_20_R_18.png","img/500/equaldotsize/R/9_Ratio_500_L_2_R_4.png","img/500/equaldotanddens/L/8_Ratio_500_L_8_R_4.png","img/750/equaldotanddens/R/3_Ratio_750_L_15_R_20.png","img/900/equaldotanddens/L/10_Ratio_900_L_20_R_18.png","img/500/equaldotsize/L/10_Ratio_500_L_4_R_2.png","img/900/randomdotsizeEA/L/8_Ratio_900_L_20_R_18.png","img/900/equaldotanddens/L/2_Ratio_900_L_20_R_18.png","img/900/equaldotanddens/R/7_Ratio_900_L_9_R_10.png","img/750/equaldotsize/R/7_Ratio_750_L_3_R_4.png","img/900/randomdotsizeEA/R/6_Ratio_900_L_9_R_10.png","img/500/equaldotanddens/L/5_Ratio_500_L_4_R_2.png","img/500/randomdotsizeEA/L/5_Ratio_500_L_4_R_2.png","img/750/equaldotanddens/L/13_Ratio_750_L_8_R_6.png","img/250/randomdotsizeEA/R/10_Ratio_250_L_4_R_16.png","img/250/equaldotsize/R/9_Ratio_250_L_3_R_12.png","img/250/randomdotsizeEA/R/8_Ratio_250_L_1_R_4.png","img/250/randomdotsizeEA/R/10_Ratio_250_L_4_R_16.png","img/500/randomdotsizeEA/R/2_Ratio_500_L_3_R_6.png","img/900/randomdotsizeEA/L/4_Ratio_900_L_20_R_18.png","img/250/equaldotanddens/L/5_Ratio_250_L_24_R_6.png","img/500/equaldotanddens/L/5_Ratio_500_L_4_R_2.png","img/900/equaldotsize/L/10_Ratio_900_L_20_R_18.png","img/250/randomdotsizeEA/L/7_Ratio_250_L_8_R_2.png","img/250/randomdotsizeEA/R/11_Ratio_250_L_3_R_12.png","img/900/equaldotsize/R/6_Ratio_900_L_9_R_10.png","img/500/randomdotsizeEA/L/5_Ratio_500_L_4_R_2.png","img/750/equaldotsize/R/5_Ratio_750_L_15_R_20.png","img/500/randomdotsizeEA/R/12_Ratio_500_L_1_R_2.png","img/500/equaldotsize/L/7_Ratio_500_L_10_R_5.png","img/900/equaldotanddens/R/12_Ratio_900_L_18_R_20.png","img/500/randomdotsizeEA/L/10_Ratio_500_L_4_R_2.png","img/500/equaldotanddens/R/2_Ratio_500_L_3_R_6.png","img/900/equaldotsize/R/12_Ratio_900_L_18_R_20.png","img/900/equaldotanddens/R/11_Ratio_900_L_18_R_20.png","img/900/equaldotanddens/L/10_Ratio_900_L_20_R_18.png","img/250/randomdotsizeEA/R/6_Ratio_250_L_6_R_24.png","img/250/equaldotsize/L/7_Ratio_250_L_8_R_2.png","img/500/equaldotanddens/L/13_Ratio_500_L_12_R_6.png","img/250/equaldotsize/L/5_Ratio_250_L_24_R_6.png","img/250/equaldotanddens/L/3_Ratio_250_L_8_R_2.png","img/750/randomdotsizeEA/R/3_Ratio_750_L_15_R_20.png","img/750/equaldotanddens/L/14_Ratio_750_L_8_R_6.png","img/750/equaldotanddens/L/9_Ratio_750_L_4_R_3.png","img/250/equaldotsize/R/13_Ratio_250_L_2_R_8.png","img/250/equaldotanddens/L/2_Ratio_250_L_16_R_4.png","img/900/equaldotanddens/L/1_Ratio_900_L_10_R_9.png","img/900/equaldotsize/L/10_Ratio_900_L_20_R_18.png","img/750/equaldotanddens/R/4_Ratio_750_L_15_R_20.png","img/900/equaldotsize/R/14_Ratio_900_L_18_R_20.png","img/500/randomdotsizeEA/R/9_Ratio_500_L_2_R_4.png","img/750/randomdotsizeEA/L/6_Ratio_750_L_24_R_18.png","img/750/equaldotanddens/R/11_Ratio_750_L_12_R_16.png","img/250/equaldotsize/L/5_Ratio_250_L_24_R_6.png","img/500/equaldotsize/L/4_Ratio_500_L_18_R_9.png","img/500/equaldotsize/L/13_Ratio_500_L_12_R_6.png","img/750/equaldotsize/L/8_Ratio_750_L_4_R_3.png","img/900/equaldotanddens/R/6_Ratio_900_L_9_R_10.png","img/250/equaldotsize/L/3_Ratio_250_L_8_R_2.png","img/750/randomdotsizeEA/L/9_Ratio_750_L_4_R_3.png","img/900/equaldotanddens/R/15_Ratio_900_L_9_R_10.png","img/900/randomdotsizeEA/R/3_Ratio_900_L_9_R_10.png","img/900/randomdotsizeEA/L/8_Ratio_900_L_20_R_18.png","img/750/equaldotanddens/L/9_Ratio_750_L_4_R_3.png","img/900/equaldotanddens/L/2_Ratio_900_L_20_R_18.png","img/900/equaldotsize/R/12_Ratio_900_L_18_R_20.png","img/750/equaldotanddens/L/9_Ratio_750_L_4_R_3.png","img/250/randomdotsizeEA/L/7_Ratio_250_L_8_R_2.png","img/500/equaldotanddens/R/9_Ratio_500_L_2_R_4.png","img/500/equaldotsize/R/12_Ratio_500_L_1_R_2.png","img/750/randomdotsizeEA/R/15_Ratio_750_L_9_R_12.png","img/500/equaldotanddens/R/12_Ratio_500_L_1_R_2.png"],"Rat0":[["12_Ratio_0_L_9_R_0.png","13_Ratio_0_L_6_R_0.png","5_Ratio_0_L_2_R_0.png","6_Ratio_0_L_4_R_0.png","8_Ratio_0_L_6_R_0.png"],["1_Ratio_0_L_0_R_17.png","10_Ratio_0_L_0_R_22.png","11_Ratio_0_L_0_R_1.png","14_Ratio_0_L_0_R_24.png","15_Ratio_0_L_0_R_4.png","2_Ratio_0_L_0_R_5.png","3_Ratio_0_L_0_R_17.png","4_Ratio_0_L_0_R_7.png","7_Ratio_0_L_0_R_19.png","9_Ratio_0_L_0_R_15.png"]],"Rat250":[["1_Ratio_250_L_8_R_2.png","14_Ratio_250_L_12_R_3.png","15_Ratio_250_L_12_R_3.png","2_Ratio_250_L_16_R_4.png","3_Ratio_250_L_8_R_2.png","5_Ratio_250_L_24_R_6.png","7_Ratio_250_L_8_R_2.png"],["10_Ratio_250_L_4_R_16.png","11_Ratio_250_L_3_R_12.png","12_Ratio_250_L_5_R_20.png","13_Ratio_250_L_2_R_8.png","4_Ratio_250_L_3_R_12.png","6_Ratio_250_L_6_R_24.png","8_Ratio_250_L_1_R_4.png","9_Ratio_250_L_3_R_12.png"]],"Rat500":[["10_Ratio_500_L_4_R_2.png","11_Ratio_500_L_12_R_6.png","13_Ratio_500_L_12_R_6.png","4_Ratio_500_L_18_R_9.png","5_Ratio_500_L_4_R_2.png","7_Ratio_500_L_10_R_5.png","8_Ratio_500_L_8_R_4.png"],["1_Ratio_500_L_9_R_18.png","12_Ratio_500_L_1_R_2.png","14_Ratio_500_L_5_R_10.png","15_Ratio_500_L_1_R_2.png","2_Ratio_500_L_3_R_6.png","3_Ratio_500_L_10_R_20.png","6_Ratio_500_L_9_R_18.png","9_Ratio_500_L_2_R_4.png"]],"Rat750":[["1_Ratio_750_L_20_R_15.png","10_Ratio_750_L_4_R_3.png","13_Ratio_750_L_8_R_6.png","14_Ratio_750_L_8_R_6.png","6_Ratio_750_L_24_R_18.png","8_Ratio_750_L_4_R_3.png","9_Ratio_750_L_4_R_3.png"],["11_Ratio_750_L_12_R_16.png","12_Ratio_750_L_3_R_4.png","15_Ratio_750_L_9_R_12.png","2_Ratio_750_L_6_R_8.png","3_Ratio_750_L_15_R_20.png","4_Ratio_750_L_15_R_20.png","5_Ratio_750_L_15_R_20.png","7_Ratio_750_L_3_R_4.png"]],"Rat900":[["1_Ratio_900_L_10_R_9.png","10_Ratio_900_L_20_R_18.png","2_Ratio_900_L_20_R_18.png","4_Ratio_900_L_20_R_18.png","8_Ratio_900_L_20_R_18.png"],["11_Ratio_900_L_18_R_20.png","12_Ratio_900_L_18_R_20.png","13_Ratio_900_L_18_R_20.png","14_Ratio_900_L_18_R_20.png","15_Ratio_900_L_9_R_10.png","3_Ratio_900_L_9_R_10.png","5_Ratio_900_L_9_R_10.png","6_Ratio_900_L_9_R_10.png","7_Ratio_900_L_9_R_10.png","9_Ratio_900_L_18_R_20.png"]],"Rat1000":[["10_Ratio_1000_L_16_R_16.png","11_Ratio_1000_L_6_R_6.png","12_Ratio_1000_L_14_R_14.png","13_Ratio_1000_L_20_R_20.png","15_Ratio_1000_L_15_R_15.png","2_Ratio_1000_L_17_R_17.png","4_Ratio_1000_L_9_R_9.png","5_Ratio_1000_L_6_R_6.png","6_Ratio_1000_L_19_R_19.png","8_Ratio_1000_L_14_R_14.png","9_Ratio_1000_L_25_R_25.png"],["1_Ratio_1000_L_1_R_1.png","14_Ratio_1000_L_17_R_17.png","3_Ratio_1000_L_17_R_17.png","7_Ratio_1000_L_6_R_6.png"]]}},{"start_time":1552328317714,"click_time":1552328319348,"finger_time":1552328318546,"fix_duration":265.52474575112797,"trial":1,"RT":832,"MT":802,"sideResp":2,"stimulus":"img/500/equaldotanddens/R/14_Ratio_500_L_5_R_10.png","xmouse":[764,764,764,764,764,764,764,764,764,764,764,764,764,764,764,764,764,764,764,764,764,764,764,764,764,764,764,764,764,764,764,764,764,764,764,764,764,765,768,775,784,807,817,824,835,846,868,874,882,888,894,902,905,909,917,936,973,991,1005,1013,1017,1022,1028,1034,1040,1048,1053,1054,1055,1056,1056,1059,1068,1085,1116,1131,1137,1138,1139,1140,1141,1144],"ymouse":[490,490,490,490,490,490,490,490,490,490,490,490,490,490,490,490,490,490,490,490,490,490,490,490,490,490,490,490,490,490,490,490,490,490,490,490,490,490,489,483,471,443,426,409,388,367,307,282,263,247,234,219,217,217,216,216,214,214,214,213,212,208,200,193,186,173,156,152,150,148,147,144,138,132,122,116,113,112,110,109,105,96],"timestamp_mouse":[15,35,53,72,92,112,132,154,172,193,213,233,252,273,294,313,332,353,372,392,412,433,453,472,493,513,533,554,573,592,613,632,653,674,692,712,732,752,772,794,812,832,853,872,892,913,932,952,973,994,1012,1033,1053,1073,1094,1112,1132,1152,1173,1192,1212,1233,1253,1272,1293,1312,1333,1353,1373,1393,1413,1433,1452,1473,1494,1513,1533,1552,1572,1593,1613,1633],"xSR":741.5,"ySR":469.95,"xT1":424.9,"yT1":0,"xT2":1058.1,"yT2":0,"toosoon":0,"cond_shown":"equaldotanddens","ratio_trial":500,"smaller_num":"5","larger_num":"10","correct_side":2,"subjID":"samuelsanchez29","gender":"0","age":"9","school":"4"},{"start_time":1552328323275,"click_time":1552328324388,"finger_time":1552328323967,"fix_duration":1466.438515279681,"trial":2,"RT":692,"MT":421,"sideResp":2,"stimulus":"img/750/equaldotsize/R/4_Ratio_750_L_15_R_20.png","xmouse":[779,779,779,779,779,779,779,779,779,779,779,779,779,779,779,779,779,779,779,779,779,779,779,779,779,779,779,779,779,779,779,779,781,789,824,874,905,924,936,945,951,956,962,969,983,996,1004,1014,1024,1038,1045,1055,1063,1068,1077,1081],"ymouse":[528,528,528,528,528,528,528,528,528,528,528,528,528,528,528,528,528,528,528,528,528,528,528,528,528,528,528,528,528,528,528,524,516,497,440,373,329,302,281,247,228,217,204,192,174,164,158,153,149,139,135,130,127,123,110,98],"timestamp_mouse":[11,33,52,71,91,111,132,151,171,191,212,232,253,272,291,312,332,353,372,391,413,431,452,472,491,511,531,552,571,593,612,632,651,672,692,712,731,752,773,791,813,832,852,872,892,912,931,951,972,991,1011,1031,1051,1071,1091,1112],"xSR":741.5,"ySR":469.95,"xT1":424.9,"yT1":0,"xT2":1058.1,"yT2":0,"toosoon":0,"cond_shown":"equaldotsize","ratio_trial":750,"smaller_num":"15","larger_num":"20","correct_side":2,"subjID":"samuelsanchez29","gender":"0","age":"9","school":"4"},{"start_time":1552328326781,"click_time":1552328327786,"finger_time":1552328327366,"fix_duration":1092.955116122632,"trial":3,"RT":585,"MT":420,"sideResp":1,"stimulus":"img/250/equaldotanddens/L/1_Ratio_250_L_8_R_2.png","xmouse":[781,781,781,781,781,781,781,781,781,781,781,781,781,781,781,781,781,781,781,781,781,781,781,781,781,781,781,780,778,757,742,726,708,688,626,584,550,525,502,491,490,490,490,490,490,490,490,490,490,489,489],"ymouse":[494,494,494,494,494,494,494,494,494,494,494,494,494,494,494,494,494,494,494,494,494,494,494,494,494,494,494,493,489,449,426,402,376,349,277,235,201,176,152,135,134,134,134,134,134,134,133,133,130,109,92],"timestamp_mouse":[10,32,46,66,86,106,126,146,167,185,206,227,245,266,285,305,327,346,366,386,405,425,445,466,485,506,526,545,565,585,607,625,646,666,686,706,726,745,765,785,807,826,846,865,885,907,925,946,965,986,1005],"xSR":741.5,"ySR":469.95,"xT1":424.9,"yT1":0,"xT2":1058.1,"yT2":0,"toosoon":0,"cond_shown":"equaldotanddens","ratio_trial":250,"smaller_num":"2","larger_num":"8","correct_side":1,"subjID":"samuelsanchez29","gender":"0","age":"9","school":"4"},{"start_time":1552328329120,"click_time":1552328330268,"finger_time":1552328330007,"fix_duration":250,"trial":4,"RT":887,"MT":261,"sideResp":2,"stimulus":"img/750/randomdotsizeEA/R/4_Ratio_750_L_15_R_20.png","xmouse":[783,783,783,783,783,783,783,783,783,783,783,783,783,783,783,783,783,783,783,783,783,783,783,783,783,783,783,783,783,783,783,783,783,783,783,783,783,783,783,783,783,783,784,785,794,811,839,952,1038,1060,1082,1084,1084,1086,1090,1099,1110,1140],"ymouse":[501,501,501,501,501,501,501,501,501,501,501,501,501,501,501,501,501,501,501,501,501,501,501,501,501,501,501,501,501,501,501,501,501,501,501,501,501,501,501,501,501,501,500,484,464,431,387,278,211,197,180,179,179,176,169,156,134,82],"timestamp_mouse":[9,26,46,66,87,108,127,147,167,187,207,228,247,267,287,307,327,346,367,386,406,427,447,467,487,506,527,548,566,588,607,626,646,666,687,707,728,747,767,786,806,826,846,866,887,907,926,949,966,986,1007,1027,1046,1066,1086,1106,1126,1148],"xSR":741.5,"ySR":469.95,"xT1":424.9,"yT1":0,"xT2":1058.1,"yT2":0,"toosoon":0,"cond_shown":"randomdotsizeEA","ratio_trial":750,"smaller_num":"15","larger_num":"20","correct_side":2,"subjID":"samuelsanchez29","gender":"0","age":"9","school":"4"},{"start_time":1552328331799,"click_time":1552328332907,"finger_time":1552328332566,"fix_duration":250,"trial":5,"RT":767,"MT":341,"sideResp":1,"stimulus":"img/750/equaldotsize/L/9_Ratio_750_L_4_R_3.png","xmouse":[787,788,788,788,788,788,788,788,788,788,788,788,788,788,788,788,788,788,788,788,788,788,789,789,789,789,789,789,789,789,789,789,789,789,791,794,795,795,795,779,766,751,736,721,695,674,658,642,624,593,583,575,568,560,539,520],"ymouse":[551,550,550,550,550,550,550,550,550,550,550,550,550,550,550,550,550,550,550,550,550,550,549,549,549,549,549,549,549,549,549,549,549,548,541,521,506,488,465,414,387,359,331,307,262,225,199,175,154,128,121,117,113,109,96,83],"timestamp_mouse":[11,32,47,67,88,108,128,149,167,188,209,227,247,269,288,307,327,349,368,388,408,428,447,469,489,507,528,548,567,588,608,627,647,668,688,708,727,748,767,787,808,827,849,868,887,909,928,948,967,987,1007,1028,1047,1068,1088,1108],"xSR":741.5,"ySR":469.95,"xT1":424.9,"yT1":0,"xT2":1058.1,"yT2":0,"toosoon":0,"cond_shown":"equaldotsize","ratio_trial":750,"smaller_num":"3","larger_num":"4","correct_side":1,"subjID":"samuelsanchez29","gender":"0","age":"9","school":"4"},{"start_time":1552328334893,"click_time":1552328335987,"finger_time":1552328335808,"fix_duration":1005.8270430027003,"trial":6,"RT":915,"MT":179,"sideResp":1,"stimulus":"img/500/randomdotsizeEA/L/10_Ratio_500_L_4_R_2.png","xmouse":[767,767,767,767,767,767,767,767,767,767,767,767,767,767,767,767,767,767,767,767,767,767,767,767,767,767,767,767,767,767,767,767,767,767,767,767,767,767,767,767,767,767,767,768,754,741,718,684,653,557,523,497,477,464,437],"ymouse":[510,510,510,510,510,510,510,510,510,510,510,510,510,510,510,510,510,510,510,510,510,510,510,510,510,510,510,510,510,510,510,510,510,510,510,510,510,510,510,510,510,510,510,508,483,459,423,373,332,218,178,146,124,103,48],"timestamp_mouse":[27,34,54,74,93,114,134,154,175,193,213,233,253,273,293,313,334,353,373,395,413,433,454,475,494,513,533,553,575,595,614,633,653,674,693,713,733,753,774,793,813,834,853,873,893,915,934,954,974,995,1013,1033,1053,1073,1094],"xSR":741.5,"ySR":469.95,"xT1":424.9,"yT1":0,"xT2":1058.1,"yT2":0,"toosoon":0,"cond_shown":"randomdotsizeEA","ratio_trial":500,"smaller_num":"2","larger_num":"4","correct_side":1,"subjID":"samuelsanchez29","gender":"0","age":"9","school":"4"},{"start_time":1552328337400,"click_time":1552328338388,"finger_time":1552328338007,"fix_duration":250,"trial":7,"RT":607,"MT":381,"sideResp":1,"stimulus":"img/250/equaldotsize/L/5_Ratio_250_L_24_R_6.png","xmouse":[784,784,784,784,784,784,784,784,784,784,784,784,784,784,784,784,784,784,784,784,784,784,784,784,784,784,784,784,784,781,769,751,707,669,599,586,579,577,577,577,577,577,575,573,562,556,545,536,528,523],"ymouse":[509,509,509,509,509,509,509,509,509,509,509,509,509,509,509,509,509,509,509,509,509,509,509,509,509,509,509,509,509,491,453,398,299,233,132,116,111,111,111,111,110,107,97,84,57,52,44,39,36,35],"timestamp_mouse":[10,32,48,66,86,106,128,148,166,187,207,228,246,266,287,307,327,346,366,387,406,427,447,468,487,506,527,547,567,587,607,627,646,667,687,706,726,747,766,788,807,826,846,868,887,907,926,946,968,987],"xSR":741.5,"ySR":469.95,"xT1":424.9,"yT1":0,"xT2":1058.1,"yT2":0,"toosoon":0,"cond_shown":"equaldotsize","ratio_trial":250,"smaller_num":"6","larger_num":"24","correct_side":1,"subjID":"samuelsanchez29","gender":"0","age":"9","school":"4"},{"start_time":1552328339654,"click_time":1552328340867,"finger_time":1552328340527,"fix_duration":385.71130454420586,"trial":8,"RT":873,"MT":340,"sideResp":2,"stimulus":"img/250/randomdotsizeEA/R/6_Ratio_250_L_6_R_24.png","xmouse":[790,790,790,790,790,790,790,790,790,790,790,790,790,790,790,790,790,790,790,790,790,790,790,790,790,790,790,790,790,790,790,790,790,790,790,790,790,790,790,790,793,801,830,844,854,864,888,907,954,982,1000,1010,1016,1017,1018,1021,1028,1034,1049,1057,1063],"ymouse":[557,557,557,557,557,557,557,557,557,557,557,557,561,565,565,565,565,565,565,565,565,565,565,565,565,565,565,565,565,565,565,565,565,565,565,565,565,565,565,565,561,547,496,466,443,418,366,323,234,188,158,141,127,124,121,116,109,103,90,84,78],"timestamp_mouse":[13,32,52,72,92,114,134,152,173,192,212,233,252,272,293,314,334,353,374,392,413,432,452,472,493,513,532,553,573,593,612,634,652,672,693,712,734,753,773,792,812,832,852,873,892,913,934,952,972,992,1013,1032,1053,1072,1093,1114,1134,1152,1172,1193,1213],"xSR":741.5,"ySR":469.95,"xT1":424.9,"yT1":0,"xT2":1058.1,"yT2":0,"toosoon":0,"cond_shown":"randomdotsizeEA","ratio_trial":250,"smaller_num":"6","larger_num":"24","correct_side":2,"subjID":"samuelsanchez29","gender":"0","age":"9","school":"4"},{"start_time":1552328342171,"click_time":1552328343507,"finger_time":1552328342906,"fix_duration":323.913110445751,"trial":9,"RT":735,"MT":601,"sideResp":1,"stimulus":"img/900/equaldotsize/L/1_Ratio_900_L_10_R_9.png","xmouse":[810,810,810,810,810,810,810,810,810,810,810,810,810,810,810,810,810,810,810,810,810,810,810,810,810,810,810,810,810,810,810,810,810,816,822,833,863,876,886,891,894,896,896,896,896,896,896,896,896,896,893,847,824,804,784,770,736,716,697,676,654,591,566,549,529,513,486],"ymouse":[524,524,524,524,524,524,524,524,524,524,524,524,524,524,524,524,524,524,524,524,524,524,524,524,524,524,524,524,524,524,524,524,524,518,510,494,447,422,399,382,368,358,358,358,358,358,358,358,358,357,353,327,313,301,287,275,247,230,217,202,188,153,142,131,120,108,84],"timestamp_mouse":[16,37,56,77,97,116,135,155,175,195,216,235,255,276,297,316,336,356,376,396,415,436,455,477,497,516,535,556,577,597,616,636,655,675,697,715,735,756,775,796,815,835,856,876,897,915,935,955,976,995,1015,1035,1057,1075,1095,1116,1136,1155,1176,1195,1216,1235,1256,1276,1295,1316,1336],"xSR":741.5,"ySR":469.95,"xT1":424.9,"yT1":0,"xT2":1058.1,"yT2":0,"toosoon":0,"cond_shown":"equaldotsize","ratio_trial":900,"smaller_num":"9","larger_num":"10","correct_side":1,"subjID":"samuelsanchez29","gender":"0","age":"9","school":"4"},{"start_time":1552328344786,"click_time":1552328346108,"finger_time":1552328345688,"fix_duration":556.2361761542805,"trial":10,"RT":902,"MT":420,"sideResp":1,"stimulus":"img/900/randomdotsizeEA/L/10_Ratio_900_L_20_R_18.png","xmouse":[802,802,802,802,802,802,802,802,802,802,802,802,802,802,802,802,802,802,802,802,802,802,802,802,802,802,802,802,802,802,802,802,802,802,803,803,803,804,805,806,806,806,807,807,807,806,796,788,778,766,744,728,670,637,615,600,589,589,589,589,589,576,567,558,545,532,515],"ymouse":[531,531,531,531,531,531,531,531,531,531,531,531,531,531,531,531,531,531,531,531,531,531,531,531,531,531,531,531,531,531,530,525,521,519,518,517,516,514,513,510,509,507,497,490,478,465,427,408,384,358,317,292,233,208,191,178,169,168,168,168,166,141,124,105,84,66,40],"timestamp_mouse":[11,21,42,60,80,101,120,142,161,181,200,221,241,261,281,301,321,342,361,380,402,421,441,461,481,502,521,540,562,582,600,620,642,661,681,700,722,741,760,780,802,820,840,861,881,902,922,940,960,981,1000,1021,1042,1060,1081,1102,1121,1140,1160,1180,1201,1221,1240,1261,1281,1301,1321],"xSR":741.5,"ySR":469.95,"xT1":424.9,"yT1":0,"xT2":1058.1,"yT2":0,"toosoon":0,"cond_shown":"randomdotsizeEA","ratio_trial":900,"smaller_num":"18","larger_num":"20","correct_side":1,"subjID":"samuelsanchez29","gender":"0","age":"9","school":"4"},{"start_time":1552328348256,"click_time":1552328349627,"finger_time":1552328349368,"fix_duration":868.3158142470871,"trial":11,"RT":1112,"MT":259,"sideResp":2,"stimulus":"img/750/randomdotsizeEA/R/7_Ratio_750_L_3_R_4.png","xmouse":[772,772,772,772,772,772,772,772,772,772,772,772,772,772,772,772,772,772,772,772,772,772,772,772,772,772,772,772,772,772,772,772,772,772,772,772,772,772,772,772,772,772,772,772,772,772,772,772,772,772,772,772,772,776,789,814,886,978,1101,1122,1134,1139,1142,1147,1148,1149,1149,1149,1143],"ymouse":[503,503,503,503,503,503,503,503,503,503,503,503,503,503,503,503,503,503,503,503,503,503,503,503,503,503,503,503,503,503,503,503,503,503,503,503,503,503,503,503,503,503,503,503,503,503,503,503,503,503,503,503,503,500,490,469,412,335,232,215,203,193,184,168,155,144,132,118,84],"timestamp_mouse":[20,30,50,70,91,111,131,152,171,190,210,230,252,270,290,312,330,350,370,390,411,431,451,470,490,511,530,550,571,592,611,631,651,670,692,712,731,751,771,791,811,830,851,872,892,911,931,950,970,990,1010,1031,1050,1070,1091,1112,1131,1150,1171,1191,1210,1230,1251,1270,1290,1310,1331,1351,1370],"xSR":741.5,"ySR":469.95,"xT1":424.9,"yT1":0,"xT2":1058.1,"yT2":0,"toosoon":0,"cond_shown":"randomdotsizeEA","ratio_trial":750,"smaller_num":"3","larger_num":"4","correct_side":2,"subjID":"samuelsanchez29","gender":"0","age":"9","school":"4"},{"start_time":1552328352205,"click_time":1552328353327,"finger_time":1552328352947,"fix_duration":1315.4200613233088,"trial":12,"RT":742,"MT":380,"sideResp":1,"stimulus":"img/250/equaldotsize/L/5_Ratio_250_L_24_R_6.png","xmouse":[777,777,777,777,777,777,777,777,777,777,777,777,777,777,777,777,777,777,777,777,777,777,777,777,777,777,777,777,777,777,777,777,777,777,777,778,778,778,775,770,764,746,738,729,722,712,683,672,665,659,651,629,614,595,575,530,501],"ymouse":[486,486,486,486,486,486,486,486,486,486,486,486,486,486,486,486,486,486,486,486,486,486,486,486,486,486,486,486,486,486,486,486,486,486,486,485,471,460,443,424,406,363,343,321,296,268,214,198,187,181,172,151,139,122,104,65,41],"timestamp_mouse":[10,31,41,62,82,101,121,143,161,181,202,221,243,261,281,301,321,342,361,381,402,421,441,461,482,501,523,542,563,582,601,621,643,662,681,701,721,742,762,781,801,822,841,861,881,901,921,941,961,981,1002,1021,1041,1061,1082,1101,1122],"xSR":741.5,"ySR":469.95,"xT1":424.9,"yT1":0,"xT2":1058.1,"yT2":0,"toosoon":0,"cond_shown":"equaldotsize","ratio_trial":250,"smaller_num":"6","larger_num":"24","correct_side":1,"subjID":"samuelsanchez29","gender":"0","age":"9","school":"4"},{"start_time":1552328354578,"click_time":1552328355828,"finger_time":1552328355347,"fix_duration":448.0194246078968,"trial":13,"RT":769,"MT":481,"sideResp":2,"stimulus":"img/500/equaldotsize/R/6_Ratio_500_L_9_R_18.png","xmouse":[787,787,787,787,787,787,787,787,787,787,787,787,787,787,787,787,787,787,787,787,787,787,787,787,787,787,787,787,787,787,787,787,787,787,787,787,790,824,850,870,886,896,912,923,929,941,945,950,957,958,958,958,958,958,965,969,978,995,1057,1084,1106,1120,1128],"ymouse":[543,543,543,543,543,543,543,543,543,543,543,543,543,543,543,543,543,543,543,543,543,543,543,543,543,543,543,543,543,543,543,543,543,543,543,543,543,523,505,491,476,460,417,379,362,316,289,256,207,201,201,201,201,200,189,183,171,152,117,110,104,100,96],"timestamp_mouse":[14,33,48,69,88,108,129,148,168,188,210,229,249,269,288,310,329,348,369,388,408,428,449,470,489,509,528,549,570,589,609,629,649,670,688,708,729,749,769,788,809,830,849,868,888,908,929,950,969,989,1009,1029,1049,1068,1089,1108,1128,1149,1168,1188,1208,1228,1249],"xSR":741.5,"ySR":469.95,"xT1":424.9,"yT1":0,"xT2":1058.1,"yT2":0,"toosoon":0,"cond_shown":"equaldotsize","ratio_trial":500,"smaller_num":"9","larger_num":"18","correct_side":2,"subjID":"samuelsanchez29","gender":"0","age":"9","school":"4"},{"start_time":1552328357000,"click_time":1552328358207,"finger_time":1552328357707,"fix_duration":250,"trial":14,"RT":707,"MT":500,"sideResp":2,"stimulus":"img/500/equaldotsize/R/9_Ratio_500_L_2_R_4.png","xmouse":[813,813,813,813,813,813,813,813,813,813,813,813,813,813,813,813,813,813,813,813,813,813,813,813,813,813,813,813,813,813,813,813,813,817,821,827,832,852,873,909,965,1037,1037,1037,1037,1037,1037,1037,1037,1037,1037,1037,1037,1037,1037,1037,1037,1212,1191,1172,1158],"ymouse":[499,499,499,505,508,508,509,509,509,509,509,509,509,509,509,509,509,509,509,509,509,509,509,509,509,509,509,509,509,509,509,509,499,486,474,461,451,418,384,318,222,75,75,75,75,75,75,75,75,75,75,75,75,75,75,75,75,9,26,38,48],"timestamp_mouse":[10,39,47,68,87,108,128,147,167,188,208,228,248,268,288,307,328,347,367,388,408,427,448,467,487,508,527,547,567,587,607,628,647,668,687,707,727,747,768,788,808,828,847,867,888,907,928,948,968,987,1007,1027,1047,1067,1087,1107,1127,1148,1167,1187,1207],"xSR":741.5,"ySR":469.95,"xT1":424.9,"yT1":0,"xT2":1058.1,"yT2":0,"toosoon":0,"cond_shown":"equaldotsize","ratio_trial":500,"smaller_num":"2","larger_num":"4","correct_side":2,"subjID":"samuelsanchez29","gender":"0","age":"9","school":"4"},{"start_time":1552328361929,"click_time":1552328363548,"finger_time":1552328362828,"fix_duration":1101.1221293628412,"trial":15,"RT":899,"MT":720,"sideResp":1,"stimulus":"img/750/equaldotsize/R/12_Ratio_750_L_3_R_4.png","xmouse":[796,796,796,796,796,796,796,796,796,796,796,796,796,796,796,796,796,796,796,796,796,796,796,796,796,796,796,796,796,796,796,796,796,796,796,796,797,797,798,798,798,798,799,800,804,811,813,815,815,815,815,814,814,812,810,807,805,801,797,791,776,768,760,750,729,705,625,578,578,578,578,578,578,578,578,578,578,578,578,578,434],"ymouse":[508,508,508,508,508,508,508,508,508,508,508,508,508,508,508,508,508,508,508,508,508,508,508,508,508,508,508,508,508,508,508,508,508,508,508,508,506,500,496,494,490,489,486,478,468,443,430,420,412,407,397,395,392,389,387,384,381,375,366,357,329,312,293,271,232,192,75,21,21,21,21,21,21,21,21,21,21,21,21,21,9],"timestamp_mouse":[19,38,58,78,99,118,138,159,179,199,218,238,259,279,299,318,339,359,378,398,418,438,459,479,499,518,539,559,579,599,618,638,659,678,699,718,738,759,778,798,819,838,859,878,899,919,938,959,978,999,1019,1038,1058,1079,1098,1118,1138,1159,1179,1198,1218,1238,1259,1279,1298,1319,1339,1358,1378,1399,1419,1438,1458,1479,1498,1518,1539,1559,1578,1599,1618],"xSR":741.5,"ySR":469.95,"xT1":424.9,"yT1":0,"xT2":1058.1,"yT2":0,"toosoon":0,"cond_shown":"equaldotsize","ratio_trial":750,"smaller_num":"3","larger_num":"4","correct_side":2,"subjID":"samuelsanchez29","gender":"0","age":"9","school":"4"},{"start_time":1552328364883,"click_time":1552328366228,"finger_time":1552328365808,"fix_duration":294.7022418086989,"trial":16,"RT":925,"MT":420,"sideResp":1,"stimulus":"img/250/equaldotanddens/L/14_Ratio_250_L_12_R_3.png","xmouse":[752,751,751,751,758,759,759,759,759,759,759,759,759,759,759,759,760,760,760,760,760,760,760,760,760,760,760,760,760,760,760,760,760,760,760,760,760,760,760,760,760,760,762,762,760,758,752,747,727,717,706,698,691,685,667,646,633,619,607,588,582,575,567,560,550,539,530,520],"ymouse":[529,530,530,530,521,520,520,520,520,520,520,520,520,520,520,520,519,519,519,519,519,519,519,519,519,519,519,519,519,519,519,519,519,519,519,519,519,519,519,519,519,519,517,502,479,473,454,440,390,365,347,335,326,317,288,261,248,236,228,210,199,186,170,157,131,105,84,66],"timestamp_mouse":[4,32,44,65,84,104,125,145,165,185,205,225,244,265,285,305,324,344,364,385,405,424,444,465,484,504,524,544,564,585,604,625,645,665,684,704,725,744,765,784,804,824,843,866,884,905,925,944,966,984,1004,1024,1044,1065,1084,1104,1124,1144,1164,1183,1204,1224,1245,1266,1284,1304,1325,1345],"xSR":741.5,"ySR":469.95,"xT1":424.9,"yT1":0,"xT2":1058.1,"yT2":0,"toosoon":0,"cond_shown":"equaldotanddens","ratio_trial":250,"smaller_num":"3","larger_num":"12","correct_side":1,"subjID":"samuelsanchez29","gender":"0","age":"9","school":"4"},{"start_time":1552328367552,"click_time":1552328368928,"finger_time":1552328368307,"fix_duration":501.2125718716315,"trial":17,"RT":755,"MT":621,"sideResp":2,"stimulus":"img/900/randomdotsizeEA/R/7_Ratio_900_L_9_R_10.png","xmouse":[762,762,762,762,762,762,762,762,762,762,762,762,762,762,762,762,762,762,762,762,762,762,762,762,762,762,762,762,762,762,762,762,762,762,762,780,797,815,834,847,860,867,873,883,898,932,944,952,957,962,975,983,993,1003,1009,1012,1013,1013,1013,1014,1018,1022,1028,1035,1038,1044,1049,1057,1068],"ymouse":[532,532,532,532,532,532,532,532,532,532,532,532,532,532,532,532,532,532,532,532,532,532,532,532,532,532,532,532,532,532,532,532,532,532,533,508,478,449,425,410,393,387,384,377,368,345,335,327,321,311,273,250,218,187,158,118,112,111,111,109,103,100,95,92,91,88,86,81,75],"timestamp_mouse":[16,35,56,76,96,115,136,156,175,195,216,236,256,276,295,315,335,355,376,395,415,436,456,476,495,515,536,556,576,595,615,636,656,675,696,715,736,755,775,795,815,836,855,876,895,915,936,955,975,995,1015,1035,1055,1075,1095,1115,1136,1155,1175,1195,1215,1236,1256,1276,1296,1315,1336,1355,1376],"xSR":741.5,"ySR":469.95,"xT1":424.9,"yT1":0,"xT2":1058.1,"yT2":0,"toosoon":0,"cond_shown":"randomdotsizeEA","ratio_trial":900,"smaller_num":"9","larger_num":"10","correct_side":2,"subjID":"samuelsanchez29","gender":"0","age":"9","school":"4"},{"start_time":1552328371044,"click_time":1552328372128,"finger_time":1552328371708,"fix_duration":1355.377704299665,"trial":18,"RT":664,"MT":420,"sideResp":1,"stimulus":"img/750/randomdotsizeEA/L/13_Ratio_750_L_8_R_6.png","xmouse":[810,810,810,810,810,810,810,810,810,810,810,810,810,810,810,810,810,810,810,815,819,825,826,826,827,827,827,827,827,827,827,824,809,787,758,693,587,535,489,444,405,335,335,335,335,335,335,335,335,335,335,335,335,403,426],"ymouse":[537,537,537,537,537,537,537,537,537,537,537,537,537,537,537,537,537,537,537,532,528,521,520,519,518,518,518,518,518,518,517,505,486,459,429,365,270,219,178,134,88,6,6,6,6,6,6,6,6,6,6,6,6,1,17],"timestamp_mouse":[16,35,43,63,83,103,123,144,163,184,203,224,244,263,283,304,324,344,364,384,404,424,443,464,484,503,524,544,564,584,603,623,644,664,684,704,724,743,763,784,804,824,843,863,883,903,923,943,964,984,1003,1024,1043,1063,1084],"xSR":741.5,"ySR":469.95,"xT1":424.9,"yT1":0,"xT2":1058.1,"yT2":0,"toosoon":0,"cond_shown":"randomdotsizeEA","ratio_trial":750,"smaller_num":"6","larger_num":"8","correct_side":1,"subjID":"samuelsanchez29","gender":"0","age":"9","school":"4"},{"start_time":1552328373640,"click_time":1552328374569,"finger_time":1552328374148,"fix_duration":250,"trial":19,"RT":508,"MT":421,"sideResp":1,"stimulus":"img/250/equaldotanddens/L/15_Ratio_250_L_12_R_3.png","xmouse":[759,759,759,759,759,759,759,759,759,759,759,759,759,759,759,759,759,759,759,759,760,762,766,766,766,765,758,735,719,701,686,672,643,633,621,608,580,569,560,554,552,551,551,550,544,534,520],"ymouse":[505,505,505,505,505,505,505,505,505,505,505,505,505,505,505,505,505,505,505,505,505,505,494,487,472,457,435,387,360,335,314,291,236,212,185,155,99,79,65,55,53,51,51,50,46,38,30],"timestamp_mouse":[10,27,47,68,88,108,128,148,167,188,208,227,248,268,287,307,328,348,367,388,407,427,447,467,488,508,527,547,567,588,608,627,647,667,688,707,729,747,767,788,808,828,848,867,888,908,928],"xSR":741.5,"ySR":469.95,"xT1":424.9,"yT1":0,"xT2":1058.1,"yT2":0,"toosoon":0,"cond_shown":"equaldotanddens","ratio_trial":250,"smaller_num":"3","larger_num":"12","correct_side":1,"subjID":"samuelsanchez29","gender":"0","age":"9","school":"4"},{"start_time":1552328375836,"click_time":1552328378648,"finger_time":1552328378148,"fix_duration":367.60995366450845,"trial":20,"RT":2312,"MT":500,"sideResp":1,"stimulus":"img/500/equaldotanddens/L/13_Ratio_500_L_12_R_6.png","xmouse":[768,768,768,768,769,770,770,771,771,771,771,771,771,771,771,771,771,771,771,771,771,771,771,771,771,771,771,771,771,771,771,771,771,771,771,771,771,771,771,771,771,771,771,771,771,771,771,771,771,771,771,771,771,771,771,771,771,771,771,771,771,771,771,771,771,771,771,771,771,771,771,771,771,771,771,771,771,771,771,771,771,771,771,771,771,771,771,771,771,771,771,771,771,771,771,771,771,771,771,771,771,771,771,771,771,771,771,771,771,771,771,771,765,757,747,737,730,726,726,726,726,726,726,726,726,725,723,708,694,675,650,624,572,557,546,535,525,510,502,494,487],"ymouse":[526,526,526,526,526,527,527,527,527,527,527,527,527,527,527,527,527,527,527,527,527,527,527,527,527,527,527,527,527,527,527,527,527,527,527,527,527,527,527,527,527,527,527,527,527,527,527,527,527,527,527,527,527,527,527,527,527,527,527,527,527,527,527,527,527,527,527,527,527,527,527,527,527,527,527,527,527,527,527,527,527,527,527,527,527,527,527,527,527,527,527,527,527,527,527,527,527,527,527,527,527,527,527,527,527,527,527,527,527,527,527,527,508,493,475,461,451,446,446,446,446,446,446,446,446,445,444,421,400,369,333,297,222,202,185,171,157,131,118,105,93],"timestamp_mouse":[11,31,59,71,92,111,131,151,171,191,212,232,252,272,291,311,331,351,372,391,412,432,451,471,492,512,531,552,572,592,612,631,652,672,692,712,731,752,772,791,812,831,852,872,891,911,931,951,972,992,1011,1032,1052,1071,1092,1112,1131,1151,1171,1191,1211,1231,1251,1272,1292,1311,1331,1351,1373,1391,1411,1432,1452,1472,1492,1512,1531,1551,1572,1591,1612,1631,1651,1672,1692,1711,1731,1751,1771,1792,1812,1832,1851,1871,1892,1911,1931,1951,1972,1992,2012,2032,2051,2071,2091,2112,2131,2151,2171,2192,2212,2231,2251,2271,2291,2312,2333,2352,2372,2392,2412,2431,2452,2472,2492,2511,2532,2552,2572,2592,2611,2632,2651,2672,2691,2711,2732,2752,2772,2792,2812],"xSR":741.5,"ySR":469.95,"xT1":424.9,"yT1":0,"xT2":1058.1,"yT2":0,"toosoon":0,"cond_shown":"equaldotanddens","ratio_trial":500,"smaller_num":"6","larger_num":"12","correct_side":1,"subjID":"samuelsanchez29","gender":"0","age":"9","school":"4"},{"start_time":1552328379969,"click_time":1552328381088,"finger_time":1552328380648,"fix_duration":501.903204481246,"trial":21,"RT":679,"MT":440,"sideResp":1,"stimulus":"img/500/equaldotanddens/L/4_Ratio_500_L_18_R_9.png","xmouse":[779,779,779,779,779,779,779,779,779,779,779,779,779,779,779,779,779,779,779,779,779,779,779,779,779,779,779,779,779,779,779,779,777,768,752,731,721,710,704,700,693,689,684,678,666,644,632,620,609,596,569,550,539,531,525,522],"ymouse":[488,488,488,488,488,488,488,488,488,488,488,488,488,488,488,488,488,488,488,488,488,488,488,488,488,488,488,488,488,488,488,480,471,451,415,364,340,321,309,301,289,283,274,264,244,212,196,180,166,150,120,98,87,79,75,73],"timestamp_mouse":[19,38,59,78,99,119,139,160,178,199,218,239,258,279,299,318,338,358,378,399,418,438,458,478,499,518,538,559,578,599,618,638,659,679,699,719,738,758,779,799,819,838,858,879,898,918,939,958,978,998,1018,1038,1058,1078,1098,1119],"xSR":741.5,"ySR":469.95,"xT1":424.9,"yT1":0,"xT2":1058.1,"yT2":0,"toosoon":0,"cond_shown":"equaldotanddens","ratio_trial":500,"smaller_num":"9","larger_num":"18","correct_side":1,"subjID":"samuelsanchez29","gender":"0","age":"9","school":"4"},{"start_time":1552328382241,"click_time":1552328383488,"finger_time":1552328382989,"fix_duration":250,"trial":22,"RT":748,"MT":499,"sideResp":2,"stimulus":"img/750/equaldotsize/L/6_Ratio_750_L_24_R_18.png","xmouse":[777,777,777,777,777,777,777,777,777,777,777,777,777,777,777,777,777,777,777,777,777,777,777,777,777,777,777,777,777,777,777,777,777,777,780,787,798,816,822,830,836,842,857,863,870,880,889,899,917,935,950,968,992,1002,1010,1021,1032,1057,1073,1081,1089,1096,1103],"ymouse":[483,483,483,483,483,483,483,483,483,483,483,483,483,483,483,483,483,483,483,483,483,483,483,483,483,483,483,483,483,483,483,483,483,483,484,480,473,455,446,430,417,401,366,351,334,317,302,288,262,232,210,185,158,148,143,138,133,125,119,115,111,105,96],"timestamp_mouse":[13,32,47,67,87,106,126,146,167,186,207,227,247,266,287,306,326,346,367,387,406,427,447,466,487,507,526,546,566,586,606,626,647,667,687,707,727,748,766,787,806,826,847,866,886,907,926,948,966,986,1007,1027,1047,1066,1087,1106,1127,1147,1166,1187,1207,1227,1246],"xSR":741.5,"ySR":469.95,"xT1":424.9,"yT1":0,"xT2":1058.1,"yT2":0,"toosoon":0,"cond_shown":"equaldotsize","ratio_trial":750,"smaller_num":"18","larger_num":"24","correct_side":1,"subjID":"samuelsanchez29","gender":"0","age":"9","school":"4"},{"start_time":1552328385206,"click_time":1552328386328,"finger_time":1552328385848,"fix_duration":876.7810123851766,"trial":23,"RT":642,"MT":480,"sideResp":1,"stimulus":"img/750/randomdotsizeEA/L/6_Ratio_750_L_24_R_18.png","xmouse":[774,774,774,774,774,774,774,774,774,774,774,774,774,774,774,774,774,774,774,774,774,774,774,774,774,774,774,774,774,774,774,774,774,773,764,749,732,713,697,673,673,673,673,673,673,673,673,673,673,673,673,673,673,673,673,673,522],"ymouse":[508,508,508,508,508,508,508,508,508,508,508,508,508,508,508,508,508,508,508,508,508,508,508,508,508,508,508,508,508,507,489,473,452,425,380,270,208,143,88,27,27,27,27,27,27,27,27,27,27,27,27,27,27,27,27,27,3],"timestamp_mouse":[17,28,41,62,82,103,121,141,161,181,201,221,242,262,282,301,321,341,362,381,402,422,441,462,481,502,522,542,561,581,601,621,642,662,681,701,721,741,761,781,801,822,841,861,881,901,921,941,961,982,1001,1022,1041,1061,1082,1101,1122],"xSR":741.5,"ySR":469.95,"xT1":424.9,"yT1":0,"xT2":1058.1,"yT2":0,"toosoon":0,"cond_shown":"randomdotsizeEA","ratio_trial":750,"smaller_num":"18","larger_num":"24","correct_side":1,"subjID":"samuelsanchez29","gender":"0","age":"9","school":"4"},{"start_time":1552328388603,"click_time":1552328389909,"finger_time":1552328389387,"fix_duration":1294.9546482238927,"trial":24,"RT":784,"MT":522,"sideResp":2,"stimulus":"img/500/randomdotsizeEA/R/6_Ratio_500_L_9_R_18.png","xmouse":[795,795,795,795,795,795,795,795,795,795,795,795,795,795,795,795,795,795,795,795,795,795,795,795,795,795,795,795,795,795,795,795,795,795,795,795,797,802,810,820,840,846,851,855,858,866,866,866,866,870,887,907,954,1010,1033,1033,1033,1033,1033,1033,1033,1033,1033,1033,1117,1117],"ymouse":[511,511,511,511,511,511,511,511,511,511,511,511,511,511,511,511,511,511,511,511,511,511,511,511,511,511,511,511,511,511,511,511,511,511,511,511,506,497,483,467,424,406,385,364,337,271,246,222,217,208,190,169,118,48,18,18,18,18,18,18,18,18,18,18,0,2],"timestamp_mouse":[11,32,44,64,85,105,125,145,165,184,204,224,245,264,286,305,324,344,364,384,404,424,444,464,484,504,525,544,564,584,604,624,645,664,684,704,724,744,764,784,806,824,845,864,884,905,924,944,965,984,1005,1024,1044,1064,1084,1104,1125,1145,1165,1185,1204,1224,1244,1264,1285,1305],"xSR":741.5,"ySR":469.95,"xT1":424.9,"yT1":0,"xT2":1058.1,"yT2":0,"toosoon":0,"cond_shown":"randomdotsizeEA","ratio_trial":500,"smaller_num":"9","larger_num":"18","correct_side":2,"subjID":"samuelsanchez29","gender":"0","age":"9","school":"4"},{"start_time":1552328391327,"click_time":1552328392827,"finger_time":1552328391947,"fix_duration":757.7402810136698,"trial":25,"RT":620,"MT":880,"sideResp":2,"stimulus":"img/750/randomdotsizeEA/L/10_Ratio_750_L_4_R_3.png","xmouse":[819,819,819,819,819,819,819,819,819,819,819,819,819,819,819,819,819,819,819,819,819,819,819,819,819,819,819,817,815,813,804,792,781,768,755,729,713,700,684,618,590,561,553,551,551,550,550,550,552,571,597,606,637,658,681,720,739,756,773,790,822,845,867,896,927,1000,1028,1053,1069,1083,1100,1105,1110,1114,1117,1117],"ymouse":[522,522,522,522,522,522,522,522,522,522,522,522,522,522,522,522,522,522,522,522,522,519,517,513,505,501,500,498,496,494,483,464,448,431,412,376,355,331,305,223,198,179,174,173,173,173,177,182,187,207,226,232,247,251,255,257,257,257,257,254,245,238,236,231,228,218,214,211,206,197,177,168,155,140,107,90],"timestamp_mouse":[10,29,40,60,80,101,120,140,160,180,200,220,241,260,281,300,321,340,360,380,401,421,441,460,481,500,521,540,561,580,600,620,641,660,680,700,720,740,761,782,800,820,841,861,881,901,921,940,960,982,1001,1021,1040,1060,1081,1100,1121,1141,1160,1181,1200,1220,1241,1260,1281,1300,1320,1341,1360,1380,1400,1420,1440,1461,1482,1500],"xSR":741.5,"ySR":469.95,"xT1":424.9,"yT1":0,"xT2":1058.1,"yT2":0,"toosoon":0,"cond_shown":"randomdotsizeEA","ratio_trial":750,"smaller_num":"3","larger_num":"4","correct_side":1,"subjID":"samuelsanchez29","gender":"0","age":"9","school":"4"},{"start_time":1552328395838,"click_time":1552328396887,"finger_time":1552328396448,"fix_duration":509.03476505241906,"trial":26,"RT":610,"MT":439,"sideResp":1,"stimulus":"img/750/equaldotsize/L/14_Ratio_750_L_8_R_6.png","xmouse":[784,784,784,784,784,784,784,784,784,784,784,784,784,784,784,784,785,786,787,787,787,787,787,787,787,787,787,784,782,769,762,750,738,728,700,693,683,664,650,636,617,617,617,617,617,617,617,617,617,617,617,617,520],"ymouse":[528,528,528,528,528,528,528,528,528,528,528,528,528,528,528,528,522,520,514,513,513,513,513,513,511,508,503,497,490,471,459,443,426,410,341,289,228,165,111,62,6,6,6,6,6,6,6,6,6,6,6,6,4],"timestamp_mouse":[10,33,49,70,90,110,129,149,170,189,209,230,250,270,289,309,329,350,369,390,410,430,449,470,489,509,531,550,570,589,610,630,649,669,690,709,729,750,770,789,810,829,850,869,890,910,929,949,969,990,1009,1029,1049],"xSR":741.5,"ySR":469.95,"xT1":424.9,"yT1":0,"xT2":1058.1,"yT2":0,"toosoon":0,"cond_shown":"equaldotsize","ratio_trial":750,"smaller_num":"6","larger_num":"8","correct_side":1,"subjID":"samuelsanchez29","gender":"0","age":"9","school":"4"},{"start_time":1552328398507,"click_time":1552328400188,"finger_time":1552328399267,"fix_duration":896.9991163183793,"trial":27,"RT":760,"MT":921,"sideResp":1,"stimulus":"img/750/randomdotsizeEA/L/1_Ratio_750_L_20_R_15.png","xmouse":[801,801,801,801,801,801,801,801,801,801,801,801,801,801,801,801,801,801,801,801,801,801,801,801,801,801,801,801,801,801,801,801,801,801,801,801,803,814,823,832,836,840,842,842,842,842,842,840,837,830,815,788,772,753,735,721,704,668,656,649,648,648,648,648,647,647,645,629,610,574,556,546,546,546,546,546,546,546,546,536,533,530,526,525,524],"ymouse":[510,510,510,510,510,510,510,510,510,510,510,510,510,510,510,510,510,510,510,510,510,510,510,510,510,510,510,510,510,510,510,510,510,510,510,507,500,476,460,439,427,419,411,408,406,404,398,393,388,381,371,354,347,338,331,324,314,297,292,290,290,290,290,290,289,281,265,205,145,60,23,5,5,5,5,5,5,5,5,0,4,10,23,31,35],"timestamp_mouse":[11,20,40,61,81,101,120,141,161,181,201,220,240,260,281,300,321,341,360,381,400,420,441,461,480,501,521,541,560,581,600,621,641,661,681,700,720,740,760,780,800,821,840,860,880,901,922,940,961,980,1000,1021,1040,1060,1080,1101,1122,1140,1160,1180,1200,1220,1240,1260,1280,1300,1322,1339,1361,1380,1401,1421,1440,1460,1481,1501,1521,1541,1561,1581,1601,1620,1640,1660,1681],"xSR":741.5,"ySR":469.95,"xT1":424.9,"yT1":0,"xT2":1058.1,"yT2":0,"toosoon":0,"cond_shown":"randomdotsizeEA","ratio_trial":750,"smaller_num":"15","larger_num":"20","correct_side":1,"subjID":"samuelsanchez29","gender":"0","age":"9","school":"4"},{"start_time":1552328402921,"click_time":1552328404028,"finger_time":1552328403567,"fix_duration":1231.7222564619763,"trial":28,"RT":646,"MT":461,"sideResp":2,"stimulus":"img/250/equaldotsize/R/12_Ratio_250_L_5_R_20.png","xmouse":[805,805,805,805,805,805,805,805,805,805,805,805,805,805,805,805,805,805,805,805,805,805,805,805,805,805,805,805,805,805,809,824,842,864,886,904,935,942,948,956,963,985,996,1003,1006,1006,1007,1007,1008,1009,1010,1016,1021,1030,1044,1062],"ymouse":[506,506,506,506,506,506,506,506,506,506,506,506,506,506,506,506,506,506,506,506,506,506,506,506,506,506,506,506,506,506,500,471,448,420,387,357,290,267,244,224,207,169,147,130,121,120,117,116,116,114,113,108,104,99,91,82],"timestamp_mouse":[12,36,46,66,87,106,127,147,167,186,206,226,246,267,287,306,326,346,367,386,406,426,446,466,486,506,526,547,567,586,606,626,646,666,686,706,726,746,766,786,806,826,846,866,886,906,926,947,966,987,1007,1026,1047,1067,1087,1107],"xSR":741.5,"ySR":469.95,"xT1":424.9,"yT1":0,"xT2":1058.1,"yT2":0,"toosoon":0,"cond_shown":"equaldotsize","ratio_trial":250,"smaller_num":"5","larger_num":"20","correct_side":2,"subjID":"samuelsanchez29","gender":"0","age":"9","school":"4"},{"start_time":1552328405678,"click_time":1552328406867,"finger_time":1552328406248,"fix_duration":250,"trial":29,"RT":570,"MT":619,"sideResp":2,"stimulus":"img/250/equaldotanddens/R/6_Ratio_250_L_6_R_24.png","xmouse":[810,810,811,811,811,811,811,811,811,811,811,811,811,811,811,811,811,811,811,811,811,811,811,811,811,811,819,826,849,867,888,915,946,988,999,1008,1017,1022,1030,1032,1033,1033,1033,1030,1028,1025,1025,1025,1025,1025,1025,1028,1034,1051,1054,1057,1058,1063,1068,1071],"ymouse":[525,525,525,525,525,525,525,525,525,525,525,525,525,525,525,525,525,525,525,525,525,525,525,525,525,525,523,518,501,484,458,424,382,317,297,278,260,247,219,211,202,191,178,152,139,132,126,124,124,123,120,117,115,110,110,108,108,106,100,97],"timestamp_mouse":[14,32,50,69,90,109,130,150,169,190,210,230,249,269,290,309,329,349,369,390,409,429,449,470,490,510,530,549,570,589,609,629,649,669,689,709,729,749,770,789,809,829,850,870,889,911,929,950,969,990,1009,1030,1050,1071,1089,1109,1130,1150,1170,1189],"xSR":741.5,"ySR":469.95,"xT1":424.9,"yT1":0,"xT2":1058.1,"yT2":0,"toosoon":0,"cond_shown":"equaldotanddens","ratio_trial":250,"smaller_num":"6","larger_num":"24","correct_side":2,"subjID":"samuelsanchez29","gender":"0","age":"9","school":"4"},{"start_time":1552328408480,"click_time":1552328409788,"finger_time":1552328409268,"fix_duration":250,"trial":30,"RT":788,"MT":520,"sideResp":2,"stimulus":"img/500/equaldotsize/R/6_Ratio_500_L_9_R_18.png","xmouse":[820,820,820,820,820,820,820,820,820,820,820,820,820,820,820,820,820,820,820,820,820,820,820,820,820,820,820,820,820,820,820,820,820,820,820,819,821,822,825,832,835,839,842,851,864,869,881,891,899,915,923,931,939,959,970,982,1001,1016,1029,1052,1062,1069,1073,1080,1093,1105],"ymouse":[503,503,503,503,503,503,503,503,503,503,503,503,503,503,503,503,503,503,503,503,503,503,503,503,503,503,503,503,503,503,503,503,503,503,503,500,493,484,471,447,436,426,414,391,369,363,342,329,318,297,285,272,262,236,224,209,185,168,154,134,126,120,117,112,105,98],"timestamp_mouse":[12,30,48,68,88,109,128,148,167,188,208,227,248,268,288,308,327,347,368,387,408,427,451,467,488,507,528,547,567,587,607,627,648,668,687,707,727,747,767,788,808,827,847,870,888,908,927,948,968,987,1007,1027,1047,1069,1087,1108,1127,1147,1167,1187,1207,1228,1248,1267,1286,1307],"xSR":741.5,"ySR":469.95,"xT1":424.9,"yT1":0,"xT2":1058.1,"yT2":0,"toosoon":0,"cond_shown":"equaldotsize","ratio_trial":500,"smaller_num":"9","larger_num":"18","correct_side":2,"subjID":"samuelsanchez29","gender":"0","age":"9","school":"4"},{"start_time":1552328411875,"click_time":1552328412667,"finger_time":1552328412508,"fix_duration":1426.5494878052273,"trial":31,"RT":633,"MT":159,"sideResp":2,"stimulus":"img/500/equaldotsize/R/3_Ratio_500_L_10_R_20.png","xmouse":[816,816,816,816,816,816,816,816,816,816,816,816,816,816,816,816,816,816,816,816,816,816,816,816,816,816,816,816,815,826,836,850,871,898,961,988,1009,1026,1039,1060],"ymouse":[537,537,537,537,537,537,537,537,537,537,537,537,537,537,537,537,537,537,537,537,537,537,537,537,537,537,537,537,531,500,476,441,400,354,241,195,158,130,107,75],"timestamp_mouse":[12,32,52,71,93,113,132,152,172,193,212,232,253,273,293,313,333,352,372,393,413,433,452,472,493,513,532,552,572,592,613,633,652,673,692,712,732,753,774,792],"xSR":741.5,"ySR":469.95,"xT1":424.9,"yT1":0,"xT2":1058.1,"yT2":0,"toosoon":0,"cond_shown":"equaldotsize","ratio_trial":500,"smaller_num":"10","larger_num":"20","correct_side":2,"subjID":"samuelsanchez29","gender":"0","age":"9","school":"4"},{"start_time":1552328414024,"click_time":1552328415308,"finger_time":1552328414727,"fix_duration":594.9816543807224,"trial":32,"RT":703,"MT":581,"sideResp":2,"stimulus":"img/900/equaldotsize/L/8_Ratio_900_L_20_R_18.png","xmouse":[791,790,790,790,790,790,790,790,790,790,790,790,790,790,790,790,790,790,790,790,790,790,790,790,790,790,790,790,790,790,790,790,790,787,782,774,769,766,766,766,766,766,766,773,783,803,915,1123,1192,1225,1233,1234,1226,1221,1219,1218,1214,1201,1191,1184,1183,1182,1176,1169,1158],"ymouse":[509,511,511,511,511,511,511,511,511,511,511,511,511,512,513,515,516,516,516,516,516,516,516,516,516,516,516,517,517,517,517,516,513,492,474,448,438,431,430,430,430,430,430,428,427,420,380,283,243,213,190,166,124,107,94,83,62,26,11,4,4,3,3,3,5],"timestamp_mouse":[3,24,43,63,84,104,124,143,163,184,204,223,244,263,284,304,323,343,364,383,403,423,443,463,484,503,523,544,563,584,604,624,643,664,683,703,724,743,763,784,804,823,844,863,884,905,924,945,963,984,1003,1023,1044,1063,1084,1104,1124,1143,1164,1184,1203,1224,1243,1264,1284],"xSR":741.5,"ySR":469.95,"xT1":424.9,"yT1":0,"xT2":1058.1,"yT2":0,"toosoon":0,"cond_shown":"equaldotsize","ratio_trial":900,"smaller_num":"18","larger_num":"20","correct_side":1,"subjID":"samuelsanchez29","gender":"0","age":"9","school":"4"},{"start_time":1552328417042,"click_time":1552328418527,"finger_time":1552328417767,"fix_duration":933.9392848320967,"trial":33,"RT":725,"MT":760,"sideResp":1,"stimulus":"img/250/randomdotsizeEA/L/5_Ratio_250_L_24_R_6.png","xmouse":[813,813,813,813,813,813,813,813,813,813,813,813,813,813,813,813,813,813,813,813,813,813,813,813,810,806,799,799,799,799,799,799,799,799,799,794,790,770,756,742,730,711,701,699,694,691,689,685,682,678,669,658,607,578,554,538,527,524,523,523,523,522,522,522,522,522,522,522,522,522,520,518,511,502,495],"ymouse":[495,495,495,495,495,495,495,495,495,495,495,495,495,495,495,495,495,495,495,495,495,495,495,495,500,505,514,515,515,515,515,515,515,515,510,490,466,419,396,377,359,336,325,323,318,316,315,312,309,303,288,274,212,181,161,147,139,136,135,135,135,133,133,133,133,133,133,133,132,131,127,125,113,100,88],"timestamp_mouse":[15,24,45,65,86,105,126,144,166,186,205,226,245,266,286,305,325,345,365,385,405,425,444,466,486,505,526,546,566,585,605,626,646,665,686,706,725,745,765,785,805,827,845,864,885,905,925,945,966,985,1005,1025,1044,1065,1085,1104,1125,1144,1166,1186,1205,1225,1245,1264,1285,1306,1325,1345,1366,1386,1405,1425,1444,1465,1485],"xSR":741.5,"ySR":469.95,"xT1":424.9,"yT1":0,"xT2":1058.1,"yT2":0,"toosoon":0,"cond_shown":"randomdotsizeEA","ratio_trial":250,"smaller_num":"6","larger_num":"24","correct_side":1,"subjID":"samuelsanchez29","gender":"0","age":"9","school":"4"},{"start_time":1552328420037,"click_time":1552328421747,"finger_time":1552328420887,"fix_duration":507.0597541533305,"trial":34,"RT":850,"MT":860,"sideResp":1,"stimulus":"img/900/randomdotsizeEA/R/5_Ratio_900_L_9_R_10.png","xmouse":[792,792,792,792,792,792,792,792,792,792,792,792,792,792,792,792,792,792,792,792,792,792,792,792,792,792,792,791,789,788,788,787,783,783,782,782,782,782,782,782,782,777,752,738,723,709,695,668,657,647,641,636,626,621,614,609,600,584,576,566,555,543,534,534,534,534,534,534,534,534,534,534,534,536,536,537,537,537,537,537,537,537,537,533,526,517],"ymouse":[542,542,541,541,541,541,541,541,541,541,541,541,541,541,541,541,541,541,541,541,541,541,541,541,541,541,541,540,539,538,538,538,530,528,527,527,527,527,527,524,520,508,464,446,423,400,374,332,316,303,293,286,273,266,257,247,231,193,166,131,93,54,5,5,5,5,5,5,5,5,5,5,15,26,31,32,32,32,32,32,32,32,32,36,44,51],"timestamp_mouse":[10,31,50,70,89,111,131,151,171,190,211,231,250,270,291,310,330,350,371,391,411,429,450,469,491,511,530,550,571,590,611,630,650,671,691,711,730,750,771,791,811,830,850,870,891,910,931,950,970,990,1010,1031,1050,1071,1090,1111,1129,1150,1169,1189,1210,1231,1251,1271,1290,1311,1331,1351,1370,1391,1410,1430,1450,1470,1490,1510,1530,1550,1570,1590,1609,1630,1649,1670,1690,1710],"xSR":741.5,"ySR":469.95,"xT1":424.9,"yT1":0,"xT2":1058.1,"yT2":0,"toosoon":0,"cond_shown":"randomdotsizeEA","ratio_trial":900,"smaller_num":"9","larger_num":"10","correct_side":2,"subjID":"samuelsanchez29","gender":"0","age":"9","school":"4"},{"start_time":1552328423015,"click_time":1552328424127,"finger_time":1552328423727,"fix_duration":364.89021196264116,"trial":35,"RT":712,"MT":400,"sideResp":1,"stimulus":"img/250/equaldotanddens/L/14_Ratio_250_L_12_R_3.png","xmouse":[771,771,771,771,771,771,771,772,772,771,771,771,771,771,771,771,771,771,771,771,771,771,771,771,771,771,771,771,771,771,771,771,771,771,764,749,725,698,658,650,648,647,647,639,630,619,609,601,595,584,573,559,532,504,496,492],"ymouse":[516,516,516,516,516,516,516,522,525,525,525,525,525,525,525,525,525,525,525,525,525,525,525,525,525,525,525,525,525,525,525,525,525,521,487,440,389,343,287,278,273,268,262,231,208,186,167,155,148,139,134,129,120,107,102,98],"timestamp_mouse":[20,41,52,72,92,112,133,153,172,192,212,233,253,272,292,313,332,352,371,393,412,433,453,472,492,512,532,552,572,591,613,632,653,672,692,712,733,753,772,793,813,832,853,873,892,912,932,952,973,992,1012,1032,1052,1073,1092,1112],"xSR":741.5,"ySR":469.95,"xT1":424.9,"yT1":0,"xT2":1058.1,"yT2":0,"toosoon":0,"cond_shown":"equaldotanddens","ratio_trial":250,"smaller_num":"3","larger_num":"12","correct_side":1,"subjID":"samuelsanchez29","gender":"0","age":"9","school":"4"},{"start_time":1552328426841,"click_time":1552328428047,"finger_time":1552328427546,"fix_duration":1493.246660165702,"trial":36,"RT":705,"MT":501,"sideResp":1,"stimulus":"img/900/randomdotsizeEA/L/2_Ratio_900_L_20_R_18.png","xmouse":[759,759,759,759,759,759,759,759,759,759,759,759,759,759,759,759,759,759,759,759,759,759,759,759,759,759,759,759,759,759,759,759,759,758,755,748,741,732,720,713,704,692,672,626,609,594,581,574,571,571,571,571,571,571,571,571,569,563,541,523,512],"ymouse":[504,504,504,504,504,504,504,504,504,504,504,504,504,504,504,504,504,504,504,504,504,504,504,504,504,504,504,504,504,504,504,504,500,489,472,453,432,414,384,364,345,321,291,233,213,195,179,169,164,164,164,164,164,164,164,164,163,152,125,106,93],"timestamp_mouse":[13,32,46,65,86,106,127,147,165,187,206,227,246,266,285,306,326,347,367,385,407,426,446,466,487,507,526,547,566,586,606,626,646,666,687,705,725,747,765,786,818,826,846,866,886,907,926,947,966,985,1005,1026,1046,1066,1086,1106,1126,1147,1166,1186,1206],"xSR":741.5,"ySR":469.95,"xT1":424.9,"yT1":0,"xT2":1058.1,"yT2":0,"toosoon":0,"cond_shown":"randomdotsizeEA","ratio_trial":900,"smaller_num":"18","larger_num":"20","correct_side":1,"subjID":"samuelsanchez29","gender":"0","age":"9","school":"4"},{"start_time":1552328429080,"click_time":1552328430108,"finger_time":1552328429747,"fix_duration":250,"trial":37,"RT":667,"MT":361,"sideResp":2,"stimulus":"img/250/equaldotsize/R/4_Ratio_250_L_3_R_12.png","xmouse":[798,798,798,798,798,798,798,798,798,798,798,798,798,798,798,798,798,798,798,798,798,798,798,798,798,798,798,798,798,798,798,799,820,862,906,952,968,969,971,972,976,984,990,996,1001,1006,1026,1041,1065,1091,1119,1154],"ymouse":[505,505,505,505,505,505,505,505,505,505,505,505,505,505,505,505,505,505,505,505,505,505,505,505,505,505,505,505,505,505,505,505,474,395,310,216,179,176,174,172,169,164,160,156,153,151,142,138,130,124,114,94],"timestamp_mouse":[13,27,47,67,87,108,128,148,167,187,207,226,247,267,287,307,326,347,366,388,407,427,447,467,487,506,528,547,567,588,607,627,647,667,687,707,727,747,767,787,808,827,847,867,886,908,927,947,966,988,1007,1028],"xSR":741.5,"ySR":469.95,"xT1":424.9,"yT1":0,"xT2":1058.1,"yT2":0,"toosoon":0,"cond_shown":"equaldotsize","ratio_trial":250,"smaller_num":"3","larger_num":"12","correct_side":2,"subjID":"samuelsanchez29","gender":"0","age":"9","school":"4"},{"start_time":1552328431870,"click_time":1552328433207,"finger_time":1552328432548,"fix_duration":961.6142207155558,"trial":38,"RT":678,"MT":659,"sideResp":1,"stimulus":"img/900/equaldotsize/R/12_Ratio_900_L_18_R_20.png","xmouse":[815,815,815,815,815,815,815,815,815,815,815,815,815,815,815,815,815,815,815,815,815,815,815,815,815,815,815,815,815,815,815,815,816,818,818,818,818,818,818,817,817,814,810,804,795,772,739,720,702,685,669,634,616,592,576,559,528,519,515,515,515,515,515,515,513,509,503],"ymouse":[493,493,493,493,493,493,493,493,493,493,493,493,493,493,493,493,493,493,493,493,493,493,493,493,493,493,493,493,493,493,492,488,473,456,452,443,434,432,430,429,428,424,419,414,406,390,365,350,334,321,307,275,257,229,210,189,150,136,131,131,131,131,131,129,115,101,85],"timestamp_mouse":[16,37,58,78,96,118,137,156,178,196,218,237,256,277,298,317,337,358,376,397,417,437,456,478,497,518,536,557,577,598,616,637,657,678,698,718,738,756,777,796,817,839,856,876,897,917,939,957,976,997,1017,1039,1057,1077,1097,1118,1139,1156,1178,1197,1217,1237,1256,1277,1298,1317,1336],"xSR":741.5,"ySR":469.95,"xT1":424.9,"yT1":0,"xT2":1058.1,"yT2":0,"toosoon":0,"cond_shown":"equaldotsize","ratio_trial":900,"smaller_num":"18","larger_num":"20","correct_side":2,"subjID":"samuelsanchez29","gender":"0","age":"9","school":"4"},{"start_time":1552328436860,"click_time":1552328437787,"finger_time":1552328437688,"fix_duration":570.8774620516841,"trial":39,"RT":828,"MT":99,"sideResp":1,"stimulus":"img/750/equaldotanddens/R/2_Ratio_750_L_6_R_8.png","xmouse":[773,772,772,770,770,770,770,770,770,770,770,770,770,770,770,770,770,770,770,770,770,770,770,770,770,770,770,770,770,770,770,770,770,770,770,770,770,770,770,767,761,745,718,649,580,519,463],"ymouse":[480,480,480,482,482,482,482,482,482,482,482,482,482,482,482,482,482,482,482,482,482,482,482,482,482,482,482,482,482,482,482,482,482,482,482,482,482,482,482,478,471,451,418,319,220,148,81],"timestamp_mouse":[11,34,48,68,87,107,128,148,167,187,208,227,248,267,288,307,328,348,367,388,408,428,447,468,487,508,527,548,568,587,606,627,647,666,686,707,727,747,767,786,807,828,847,867,888,908,927],"xSR":741.5,"ySR":469.95,"xT1":424.9,"yT1":0,"xT2":1058.1,"yT2":0,"toosoon":0,"cond_shown":"equaldotanddens","ratio_trial":750,"smaller_num":"6","larger_num":"8","correct_side":2,"subjID":"samuelsanchez29","gender":"0","age":"9","school":"4"},{"start_time":1552328439518,"click_time":1552328440608,"finger_time":1552328440247,"fix_duration":250,"trial":40,"RT":729,"MT":361,"sideResp":1,"stimulus":"img/500/randomdotsizeEA/L/5_Ratio_500_L_4_R_2.png","xmouse":[790,790,790,790,790,790,790,790,790,790,790,790,790,790,790,790,790,790,790,790,790,790,790,790,790,790,790,790,790,790,790,790,784,779,768,746,741,736,733,723,691,669,645,624,600,562,553,545,537,527,514,510,506,503,501],"ymouse":[539,539,539,539,539,539,539,539,539,539,539,539,539,539,539,539,539,539,539,539,539,539,539,539,539,539,539,539,539,539,539,539,529,520,502,472,466,462,460,452,421,394,365,341,316,282,273,263,251,228,179,147,120,100,86],"timestamp_mouse":[14,36,49,69,89,108,130,149,170,189,209,230,248,269,288,309,329,349,369,390,408,430,449,468,490,509,529,549,569,589,609,629,649,669,689,709,729,750,769,789,810,829,849,868,890,909,929,949,970,988,1009,1029,1049,1069,1090],"xSR":741.5,"ySR":469.95,"xT1":424.9,"yT1":0,"xT2":1058.1,"yT2":0,"toosoon":0,"cond_shown":"randomdotsizeEA","ratio_trial":500,"smaller_num":"2","larger_num":"4","correct_side":1,"subjID":"samuelsanchez29","gender":"0","age":"9","school":"4"},{"start_time":1552328444866,"click_time":1552328446535,"finger_time":1552328445627,"fix_duration":716.4260647296636,"trial":41,"RT":761,"MT":908,"sideResp":1,"stimulus":"img/750/equaldotanddens/L/1_Ratio_750_L_20_R_15.png","xmouse":[784,784,784,784,784,784,784,784,784,784,784,784,784,784,784,784,784,784,784,784,784,784,784,784,784,784,784,784,784,784,784,784,784,784,784,783,779,772,761,736,730,723,719,716,712,710,710,710,710,710,710,709,695,695,674,655,633,617,601,594,594,594,594,593,591,590,589,589,588,588,588,588,588,587,582,578,574,568,564,562,552,542,529,505],"ymouse":[523,523,523,523,523,523,523,523,523,523,523,523,523,523,523,523,523,523,523,523,523,523,523,523,523,523,523,523,523,523,523,523,523,522,515,506,490,470,445,383,360,340,324,312,288,274,264,255,246,228,219,208,162,162,128,108,89,81,76,75,75,75,75,75,77,83,86,89,90,90,90,90,90,90,90,90,89,88,87,87,87,85,83,80],"timestamp_mouse":[9,22,41,61,81,102,120,142,161,182,201,222,241,261,281,301,321,340,360,381,401,422,442,461,482,502,521,542,561,582,602,622,640,661,681,701,722,741,761,781,800,821,841,862,881,900,920,941,961,981,1001,1020,1053,1061,1081,1101,1121,1141,1161,1181,1202,1221,1241,1260,1281,1301,1321,1341,1361,1381,1402,1421,1441,1462,1481,1502,1522,1540,1561,1581,1602,1621,1641,1669],"xSR":741.5,"ySR":469.95,"xT1":424.9,"yT1":0,"xT2":1058.1,"yT2":0,"toosoon":0,"cond_shown":"equaldotanddens","ratio_trial":750,"smaller_num":"15","larger_num":"20","correct_side":1,"subjID":"samuelsanchez29","gender":"0","age":"9","school":"4"},{"start_time":1552328447757,"click_time":1552328449488,"finger_time":1552328448567,"fix_duration":546.3153240301936,"trial":42,"RT":810,"MT":921,"sideResp":2,"stimulus":"img/250/equaldotanddens/R/12_Ratio_250_L_5_R_20.png","xmouse":[813,813,813,813,813,813,813,813,813,813,813,813,813,813,813,813,813,813,813,813,813,813,813,813,813,813,813,813,813,813,813,813,813,813,813,813,813,813,815,829,839,847,859,865,888,901,916,930,942,959,966,970,971,971,971,971,971,971,972,974,980,987,998,1012,1025,1034,1042,1051,1060,1078,1095,1114,1128,1132,1133,1133,1133,1133,1132,1129,1128,1128,1127,1127,1126,1126,1126],"ymouse":[522,522,522,522,522,522,522,522,522,522,522,522,522,522,522,522,522,522,522,522,522,522,522,522,522,522,522,522,522,522,522,522,522,522,522,522,522,518,511,474,453,431,404,395,375,370,365,359,350,325,309,290,274,251,227,219,213,209,206,201,195,192,187,183,181,179,178,178,176,171,166,164,162,160,156,152,147,139,132,123,122,122,121,121,110,101,91],"timestamp_mouse":[10,34,51,71,90,111,129,151,170,189,210,231,251,271,290,310,331,351,371,390,409,431,450,471,490,510,529,549,570,590,611,631,651,671,689,711,730,750,771,790,810,830,850,871,890,910,930,951,971,991,1011,1030,1051,1070,1089,1110,1130,1150,1170,1190,1210,1230,1251,1269,1290,1311,1330,1351,1371,1390,1409,1429,1450,1470,1489,1510,1530,1549,1570,1590,1609,1630,1651,1671,1690,1710,1731],"xSR":741.5,"ySR":469.95,"xT1":424.9,"yT1":0,"xT2":1058.1,"yT2":0,"toosoon":0,"cond_shown":"equaldotanddens","ratio_trial":250,"smaller_num":"5","larger_num":"20","correct_side":2,"subjID":"samuelsanchez29","gender":"0","age":"9","school":"4"},{"start_time":1552328453047,"click_time":1552328454648,"finger_time":1552328453708,"fix_duration":658.4953814829213,"trial":43,"RT":661,"MT":940,"sideResp":2,"stimulus":"img/750/equaldotsize/R/4_Ratio_750_L_15_R_20.png","xmouse":[821,821,821,821,821,821,821,821,821,821,821,821,821,821,821,821,821,821,821,821,821,821,821,821,821,821,821,820,820,820,825,829,833,837,839,843,845,845,845,845,845,845,845,844,840,821,808,791,777,764,757,756,756,756,756,759,770,784,798,813,835,843,855,871,891,944,964,986,1009,1036,1087,1107,1124,1139,1145,1149,1153,1155,1155,1155],"ymouse":[508,508,508,508,508,508,508,508,508,508,508,508,508,508,508,508,508,508,508,508,508,508,508,508,508,508,508,506,504,500,486,477,467,458,452,441,433,429,427,425,425,425,424,421,415,394,383,369,357,347,340,339,339,339,339,332,326,320,314,304,278,263,246,227,209,180,173,166,159,148,135,130,128,126,125,123,121,117,110,99],"timestamp_mouse":[20,42,60,79,101,121,140,161,181,200,220,241,261,280,301,321,340,359,381,400,421,440,461,481,501,520,539,560,581,600,620,640,661,681,700,720,741,760,780,800,820,840,860,880,900,920,939,960,981,999,1020,1040,1059,1081,1101,1119,1141,1160,1181,1201,1220,1240,1260,1279,1300,1319,1340,1360,1380,1401,1420,1440,1461,1480,1501,1520,1539,1560,1580,1601],"xSR":741.5,"ySR":469.95,"xT1":424.9,"yT1":0,"xT2":1058.1,"yT2":0,"toosoon":0,"cond_shown":"equaldotsize","ratio_trial":750,"smaller_num":"15","larger_num":"20","correct_side":2,"subjID":"samuelsanchez29","gender":"0","age":"9","school":"4"},{"start_time":1552328456846,"click_time":1552328458107,"finger_time":1552328457608,"fix_duration":1217.3033112021783,"trial":44,"RT":762,"MT":499,"sideResp":1,"stimulus":"img/500/randomdotsizeEA/R/1_Ratio_500_L_9_R_18.png","xmouse":[812,812,812,812,812,812,812,812,812,812,812,812,812,812,812,812,812,812,812,812,812,812,812,812,811,810,806,806,805,805,805,805,801,800,793,790,785,776,770,765,759,742,734,726,718,706,688,678,669,662,653,638,631,623,619,608,598,591,585,577,569,544,530,522],"ymouse":[517,517,517,517,517,517,517,517,517,517,517,517,517,517,517,517,517,517,517,517,517,517,517,517,517,517,516,516,516,516,516,516,512,510,501,497,488,473,464,453,441,414,399,387,371,345,308,293,279,263,249,223,212,201,190,174,155,144,131,117,100,60,44,35],"timestamp_mouse":[11,29,42,61,80,101,122,141,162,180,201,220,242,260,281,301,321,341,360,382,402,421,441,461,481,502,521,541,560,582,602,621,641,660,680,701,721,742,762,782,802,822,841,861,882,901,922,940,961,982,1001,1021,1041,1061,1080,1101,1121,1140,1161,1181,1201,1222,1241,1261],"xSR":741.5,"ySR":469.95,"xT1":424.9,"yT1":0,"xT2":1058.1,"yT2":0,"toosoon":0,"cond_shown":"randomdotsizeEA","ratio_trial":500,"smaller_num":"9","larger_num":"18","correct_side":2,"subjID":"samuelsanchez29","gender":"0","age":"9","school":"4"},{"start_time":1552328460245,"click_time":1552328461527,"finger_time":1552328460846,"fix_duration":1355.3776766307142,"trial":45,"RT":601,"MT":681,"sideResp":2,"stimulus":"img/750/equaldotsize/R/2_Ratio_750_L_6_R_8.png","xmouse":[763,763,763,763,763,763,763,763,763,763,763,763,763,763,762,761,760,759,759,759,759,759,759,759,759,761,768,793,804,811,813,814,814,814,814,814,814,814,814,814,814,814,816,828,854,875,897,939,945,957,968,978,1005,1016,1022,1025,1027,1030,1032,1034,1036,1038,1044,1054,1065],"ymouse":[502,502,502,502,502,502,502,502,502,502,502,502,502,502,504,506,509,509,510,510,510,510,510,510,510,510,508,491,479,470,464,461,458,458,458,458,458,458,458,458,458,458,456,447,417,389,356,270,255,225,204,185,143,128,120,114,111,103,99,96,93,91,85,75,69],"timestamp_mouse":[9,22,42,63,83,102,123,143,161,183,203,222,243,262,281,302,323,342,362,382,402,423,443,462,483,503,523,542,562,583,601,623,642,662,683,701,722,742,762,782,802,823,842,862,882,902,921,945,962,982,1002,1022,1043,1062,1082,1101,1123,1142,1163,1182,1203,1222,1242,1262,1282],"xSR":741.5,"ySR":469.95,"xT1":424.9,"yT1":0,"xT2":1058.1,"yT2":0,"toosoon":0,"cond_shown":"equaldotsize","ratio_trial":750,"smaller_num":"6","larger_num":"8","correct_side":2,"subjID":"samuelsanchez29","gender":"0","age":"9","school":"4"},{"start_time":1552328462526,"click_time":1552328464707,"finger_time":1552328464166,"fix_duration":296.4847865735717,"trial":46,"RT":1640,"MT":541,"sideResp":1,"stimulus":"img/250/equaldotanddens/R/12_Ratio_250_L_5_R_20.png","xmouse":[816,816,816,816,816,816,816,816,815,816,818,819,819,820,820,820,820,820,820,820,820,820,820,820,820,820,820,820,820,820,820,820,820,820,820,820,820,820,820,820,820,820,820,820,820,820,820,820,820,820,820,820,820,820,820,820,820,820,820,820,820,820,820,820,820,820,820,820,820,820,820,820,820,820,820,820,820,820,820,820,822,825,827,831,805,769,711,711,711,711,711,711,711,711,711,711,711,711,711,711,711,711,711,711,711,711,711,711,525,521],"ymouse":[523,523,523,523,523,523,523,523,521,518,515,512,511,510,510,510,510,510,510,510,510,510,510,510,510,510,510,510,510,510,510,510,510,510,510,510,510,510,510,510,510,510,510,510,510,510,510,510,510,510,510,510,510,510,510,510,510,510,510,510,510,510,510,510,510,510,510,510,510,510,510,510,510,510,510,510,510,510,510,509,494,473,446,407,247,140,4,4,4,4,4,4,4,4,4,4,4,4,4,4,4,4,4,4,4,4,4,4,15,24],"timestamp_mouse":[7,26,42,62,81,100,121,142,160,182,202,222,241,260,281,302,321,341,362,382,401,421,441,460,482,502,521,542,561,581,602,622,642,661,682,700,722,741,762,781,802,821,842,860,882,901,921,941,962,981,1002,1021,1041,1061,1082,1101,1121,1141,1162,1181,1202,1222,1241,1262,1281,1302,1321,1341,1362,1381,1401,1422,1441,1462,1482,1502,1521,1541,1560,1582,1601,1621,1640,1661,1681,1701,1722,1741,1762,1781,1802,1821,1841,1861,1882,1901,1920,1941,1961,1980,2002,2021,2042,2061,2081,2101,2122,2141,2161,2181],"xSR":741.5,"ySR":469.95,"xT1":424.9,"yT1":0,"xT2":1058.1,"yT2":0,"toosoon":0,"cond_shown":"equaldotanddens","ratio_trial":250,"smaller_num":"5","larger_num":"20","correct_side":2,"subjID":"samuelsanchez29","gender":"0","age":"9","school":"4"},{"start_time":1552328466048,"click_time":1552328467047,"finger_time":1552328466687,"fix_duration":599.5682540392021,"trial":47,"RT":639,"MT":360,"sideResp":1,"stimulus":"img/900/equaldotsize/R/12_Ratio_900_L_18_R_20.png","xmouse":[783,783,783,783,783,783,783,783,783,783,783,783,783,783,783,783,786,788,791,792,792,792,792,792,792,792,792,793,793,793,789,775,765,752,737,723,690,675,659,646,626,601,591,581,571,560,541,531,522,513],"ymouse":[496,496,496,496,496,496,496,496,496,496,496,496,496,496,496,496,496,496,495,494,494,494,494,494,494,494,494,493,490,484,471,443,426,409,390,371,334,316,298,285,265,238,226,213,200,185,152,135,115,99],"timestamp_mouse":[19,38,60,79,99,118,139,158,180,199,219,240,259,280,298,320,339,360,379,400,420,440,459,479,500,519,540,559,580,599,619,639,659,679,700,720,739,759,780,799,819,840,859,879,899,919,939,959,979,999],"xSR":741.5,"ySR":469.95,"xT1":424.9,"yT1":0,"xT2":1058.1,"yT2":0,"toosoon":0,"cond_shown":"equaldotsize","ratio_trial":900,"smaller_num":"18","larger_num":"20","correct_side":2,"subjID":"samuelsanchez29","gender":"0","age":"9","school":"4"},{"start_time":1552328469037,"click_time":1552328470527,"finger_time":1552328469847,"fix_duration":1266.414204314808,"trial":48,"RT":810,"MT":680,"sideResp":2,"stimulus":"img/900/randomdotsizeEA/L/10_Ratio_900_L_20_R_18.png","xmouse":[801,801,801,801,801,801,801,801,801,801,801,801,801,801,801,801,801,801,801,801,801,801,801,801,801,801,801,801,801,801,801,801,801,801,801,801,801,801,822,831,878,915,944,973,980,984,986,987,990,990,990,990,990,992,992,992,992,994,1011,1022,1024,1026,1028,1030,1032,1033,1035,1038,1042,1044,1044,1044,1046,1057,1066],"ymouse":[514,514,514,514,514,514,514,514,514,514,514,514,514,514,514,514,514,514,514,514,514,514,514,514,514,514,514,514,514,514,514,514,514,514,514,514,514,513,487,478,433,401,375,335,318,301,284,265,230,210,199,189,181,162,156,149,141,133,113,110,109,106,104,101,99,98,97,95,87,83,82,82,82,82,82],"timestamp_mouse":[20,42,50,69,90,110,131,151,171,189,211,230,251,270,291,310,330,350,370,391,410,431,451,471,491,511,531,551,571,591,609,629,651,671,691,711,730,751,770,789,810,830,851,870,891,910,929,951,969,990,1010,1030,1051,1070,1091,1111,1130,1149,1170,1190,1209,1230,1251,1270,1291,1310,1330,1351,1369,1390,1410,1431,1450,1469,1490],"xSR":741.5,"ySR":469.95,"xT1":424.9,"yT1":0,"xT2":1058.1,"yT2":0,"toosoon":0,"cond_shown":"randomdotsizeEA","ratio_trial":900,"smaller_num":"18","larger_num":"20","correct_side":1,"subjID":"samuelsanchez29","gender":"0","age":"9","school":"4"},{"start_time":1552328471683,"click_time":1552328473329,"finger_time":1552328472768,"fix_duration":274.16316843649804,"trial":49,"RT":1085,"MT":561,"sideResp":2,"stimulus":"img/500/equaldotsize/R/9_Ratio_500_L_2_R_4.png","xmouse":[807,807,807,807,807,807,807,807,807,807,807,807,807,807,807,807,807,807,807,807,807,807,807,807,807,807,807,807,807,807,807,807,807,807,807,807,807,807,807,807,807,809,811,816,818,821,827,829,830,832,832,834,836,839,844,857,890,910,945,986,1030,1095,1107,1113,1116,1119,1140,1157,1176,1190,1200,1207,1207,1198,1198,1198,1198,1198,1198,1198,1198,1198,1092],"ymouse":[509,509,509,509,509,509,509,509,509,509,509,509,509,509,509,509,509,509,509,509,509,509,509,509,509,509,509,509,509,509,509,509,509,509,509,509,509,509,509,509,510,510,510,507,505,503,497,495,494,492,492,489,487,484,479,469,448,432,401,357,304,217,204,198,197,195,189,186,183,177,168,107,55,8,8,8,8,8,8,8,8,8,37],"timestamp_mouse":[12,24,44,63,85,105,124,145,164,184,203,225,244,265,285,305,324,343,364,384,405,425,445,464,485,504,525,545,565,584,604,625,644,663,685,705,725,744,763,785,803,824,844,864,884,905,924,944,964,984,1005,1023,1045,1065,1085,1104,1124,1144,1164,1185,1205,1224,1244,1263,1283,1304,1324,1344,1364,1384,1405,1424,1444,1463,1484,1504,1524,1544,1564,1584,1604,1624,1645],"xSR":741.5,"ySR":469.95,"xT1":424.9,"yT1":0,"xT2":1058.1,"yT2":0,"toosoon":0,"cond_shown":"equaldotsize","ratio_trial":500,"smaller_num":"2","larger_num":"4","correct_side":2,"subjID":"samuelsanchez29","gender":"0","age":"9","school":"4"},{"start_time":1552328475607,"click_time":1552328476347,"finger_time":1552328476167,"fix_duration":677.866552032849,"trial":50,"RT":560,"MT":180,"sideResp":1,"stimulus":"img/500/equaldotanddens/L/8_Ratio_500_L_8_R_4.png","xmouse":[778,776,771,767,765,763,761,758,756,755,755,755,755,755,755,755,755,755,755,755,755,754,750,748,747,746,745,744,741,734,728,721,711,691,664,591,553,509],"ymouse":[526,527,527,527,527,525,524,523,523,523,523,523,523,523,523,523,523,523,523,523,523,523,522,522,522,521,520,519,516,502,474,455,428,392,332,192,121,56],"timestamp_mouse":[10,32,40,61,81,100,119,140,160,180,200,220,241,259,280,300,321,340,360,381,401,420,441,459,481,501,519,540,560,580,601,620,640,660,680,702,720,740],"xSR":741.5,"ySR":469.95,"xT1":424.9,"yT1":0,"xT2":1058.1,"yT2":0,"toosoon":0,"cond_shown":"equaldotanddens","ratio_trial":500,"smaller_num":"4","larger_num":"8","correct_side":1,"subjID":"samuelsanchez29","gender":"0","age":"9","school":"4"},{"start_time":1552328480738,"click_time":1552328481807,"finger_time":1552328481446,"fix_duration":788.7909498226599,"trial":51,"RT":708,"MT":361,"sideResp":2,"stimulus":"img/750/equaldotanddens/R/3_Ratio_750_L_15_R_20.png","xmouse":[772,772,772,772,772,772,772,772,772,772,772,772,772,772,772,772,772,772,772,772,772,772,772,772,772,772,772,772,772,772,772,776,784,798,836,856,878,907,922,968,991,1006,1015,1023,1035,1042,1050,1056,1063,1078,1082,1084,1087,1090],"ymouse":[505,505,505,505,505,505,505,505,505,505,505,505,505,505,505,505,505,505,505,505,505,505,505,505,505,505,505,505,505,505,505,502,498,492,471,452,426,392,369,297,264,242,228,218,201,191,179,167,156,124,115,109,103,97],"timestamp_mouse":[14,33,48,69,89,109,130,149,168,190,208,229,250,268,288,309,329,348,369,389,408,430,448,469,490,509,528,549,568,588,609,630,649,668,688,708,728,748,768,789,808,829,848,868,888,909,928,948,968,988,1008,1029,1048,1068],"xSR":741.5,"ySR":469.95,"xT1":424.9,"yT1":0,"xT2":1058.1,"yT2":0,"toosoon":0,"cond_shown":"equaldotanddens","ratio_trial":750,"smaller_num":"15","larger_num":"20","correct_side":2,"subjID":"samuelsanchez29","gender":"0","age":"9","school":"4"},{"start_time":1552328484028,"click_time":1552328485567,"finger_time":1552328484887,"fix_duration":1419.7217014378693,"trial":52,"RT":859,"MT":680,"sideResp":2,"stimulus":"img/900/equaldotanddens/L/10_Ratio_900_L_20_R_18.png","xmouse":[807,807,807,807,807,807,807,807,807,807,807,807,807,807,807,807,807,807,807,807,807,807,807,807,807,807,807,807,807,807,807,809,809,810,810,810,810,810,810,810,807,804,801,796,788,788,787,787,787,787,788,793,800,810,830,851,888,935,975,1008,1017,1025,1036,1057,1090,1104,1111,1116,1117,1118,1118,1118,1119,1119,1116,1113,1111],"ymouse":[526,526,526,526,526,526,526,526,526,526,526,526,526,526,526,526,526,526,526,526,526,526,526,526,526,526,526,526,526,526,526,524,523,521,520,517,512,507,503,499,486,477,466,456,442,440,440,440,440,440,440,440,440,441,438,424,387,333,283,248,244,239,231,215,183,163,148,140,136,134,132,129,124,118,106,101,98],"timestamp_mouse":[18,38,58,79,98,119,140,159,179,199,220,239,258,279,298,318,338,358,378,398,419,438,459,479,499,519,538,559,578,598,619,639,659,678,698,719,738,758,779,799,818,838,859,878,900,918,938,959,980,999,1018,1038,1062,1079,1100,1118,1138,1159,1179,1200,1218,1239,1258,1279,1300,1318,1338,1360,1378,1400,1418,1439,1458,1478,1499,1518,1539],"xSR":741.5,"ySR":469.95,"xT1":424.9,"yT1":0,"xT2":1058.1,"yT2":0,"toosoon":0,"cond_shown":"equaldotanddens","ratio_trial":900,"smaller_num":"18","larger_num":"20","correct_side":1,"subjID":"samuelsanchez29","gender":"0","age":"9","school":"4"},{"start_time":1552328487309,"click_time":1552328488646,"finger_time":1552328488206,"fix_duration":861.3735268543784,"trial":53,"RT":897,"MT":440,"sideResp":1,"stimulus":"img/500/equaldotsize/L/10_Ratio_500_L_4_R_2.png","xmouse":[793,793,793,793,793,793,793,793,793,793,793,793,793,793,793,793,793,793,793,793,793,793,793,793,793,793,793,793,793,793,793,793,793,793,793,793,793,793,793,793,793,793,793,790,785,774,731,684,652,631,614,599,593,590,586,583,573,570,568,565,563,557,551,544,535,526,515],"ymouse":[518,518,518,518,518,518,518,518,518,518,518,518,518,518,518,518,518,518,518,518,518,518,518,518,518,518,518,518,518,518,518,518,518,518,518,518,518,518,518,518,518,512,502,488,467,432,327,257,215,190,171,153,147,144,141,137,129,127,125,123,121,111,101,86,65,42,17],"timestamp_mouse":[18,38,57,78,97,118,137,157,177,197,218,237,257,277,297,317,338,357,378,397,417,437,458,477,497,517,538,559,578,597,617,638,657,677,698,718,738,758,778,798,817,837,859,878,897,917,938,959,978,997,1018,1037,1059,1077,1097,1117,1137,1157,1177,1198,1219,1237,1257,1278,1297,1317,1337],"xSR":741.5,"ySR":469.95,"xT1":424.9,"yT1":0,"xT2":1058.1,"yT2":0,"toosoon":0,"cond_shown":"equaldotsize","ratio_trial":500,"smaller_num":"2","larger_num":"4","correct_side":1,"subjID":"samuelsanchez29","gender":"0","age":"9","school":"4"},{"start_time":1552328490618,"click_time":1552328491886,"finger_time":1552328491366,"fix_duration":968.0036486658352,"trial":54,"RT":748,"MT":520,"sideResp":2,"stimulus":"img/900/randomdotsizeEA/L/8_Ratio_900_L_20_R_18.png","xmouse":[767,768,768,768,768,770,771,772,773,773,773,773,773,773,773,773,773,773,773,773,773,773,773,773,773,773,773,774,777,778,779,779,780,780,780,782,808,828,855,887,925,1004,1030,1063,1086,1103,1124,1185,1210,1221,1225,1225,1223,1222,1219,1214,1204,1196,1187,1177,1170,1170,1170,1126],"ymouse":[488,488,488,488,488,487,483,482,481,481,481,481,481,481,481,481,481,481,481,481,481,481,481,481,481,481,481,481,479,478,477,477,476,476,476,476,470,464,456,448,438,407,388,360,337,319,295,225,194,175,164,154,135,128,117,101,68,48,29,12,2,2,2,1],"timestamp_mouse":[14,39,48,68,89,109,128,149,168,189,208,228,249,269,288,308,329,349,368,389,408,428,448,470,489,510,528,548,570,589,608,629,648,669,689,710,729,748,768,788,810,829,848,868,888,908,929,948,970,990,1009,1028,1049,1068,1088,1109,1129,1148,1168,1188,1208,1229,1248,1268],"xSR":741.5,"ySR":469.95,"xT1":424.9,"yT1":0,"xT2":1058.1,"yT2":0,"toosoon":0,"cond_shown":"randomdotsizeEA","ratio_trial":900,"smaller_num":"18","larger_num":"20","correct_side":1,"subjID":"samuelsanchez29","gender":"0","age":"9","school":"4"},{"start_time":1552328493598,"click_time":1552328495266,"finger_time":1552328494526,"fix_duration":909.0826528205173,"trial":55,"RT":928,"MT":740,"sideResp":2,"stimulus":"img/900/equaldotanddens/L/2_Ratio_900_L_20_R_18.png","xmouse":[791,791,791,791,791,791,791,791,791,791,791,791,791,791,791,791,791,791,791,791,791,791,791,791,791,791,791,791,791,791,791,791,791,791,791,791,792,793,794,794,795,795,797,801,811,832,874,927,981,997,1004,1017,1049,1049,1049,1049,1049,1049,1049,1049,1049,1049,1049,1049,1049,1049,1056,1036,1024,1022,1020,1020,1020,1020,1021,1026,1034,1041,1056,1067,1075,1083,1095,1113],"ymouse":[538,538,538,538,538,538,538,538,538,538,538,538,538,538,538,538,538,538,538,538,538,538,538,538,538,538,538,538,538,538,538,538,538,538,538,538,536,532,526,524,522,521,518,507,495,472,422,336,172,107,83,58,7,7,7,7,7,7,7,7,7,7,7,7,7,7,3,35,57,61,67,72,89,100,111,120,128,131,134,135,135,130,121,88],"timestamp_mouse":[14,34,49,69,88,109,128,150,169,188,209,228,250,268,289,309,329,349,369,390,410,429,448,468,490,510,530,549,568,589,608,629,648,670,689,709,728,750,769,789,809,828,849,869,889,910,928,948,968,988,1010,1030,1050,1068,1089,1110,1130,1149,1169,1189,1209,1228,1249,1269,1289,1308,1328,1350,1368,1390,1408,1429,1450,1468,1489,1508,1529,1548,1568,1589,1608,1628,1649,1668],"xSR":741.5,"ySR":469.95,"xT1":424.9,"yT1":0,"xT2":1058.1,"yT2":0,"toosoon":0,"cond_shown":"equaldotanddens","ratio_trial":900,"smaller_num":"18","larger_num":"20","correct_side":1,"subjID":"samuelsanchez29","gender":"0","age":"9","school":"4"},{"start_time":1552328501724,"click_time":1552328502968,"finger_time":1552328502467,"fix_duration":1175.703356993295,"trial":56,"RT":743,"MT":501,"sideResp":1,"stimulus":"img/900/equaldotanddens/R/7_Ratio_900_L_9_R_10.png","xmouse":[807,807,807,807,807,807,807,807,807,807,807,807,807,807,807,807,807,807,807,807,807,807,807,807,807,807,807,808,809,810,811,811,812,814,816,818,820,831,836,840,844,846,848,848,847,845,841,835,812,796,757,729,682,664,647,634,620,592,578,563,544,532,516],"ymouse":[511,511,511,511,511,511,511,511,511,511,511,511,511,511,511,511,511,511,511,511,511,511,511,511,511,510,508,507,506,504,504,503,500,497,493,489,483,460,449,439,425,418,408,404,399,394,383,369,332,310,264,234,183,166,153,143,135,113,101,88,68,56,42],"timestamp_mouse":[13,23,43,63,84,102,123,143,163,182,202,223,243,263,283,302,322,342,362,382,403,423,443,463,482,504,523,543,562,582,604,623,642,662,684,704,724,743,762,782,802,823,844,862,882,902,923,942,962,983,1002,1022,1043,1062,1082,1102,1122,1144,1162,1183,1203,1222,1243],"xSR":741.5,"ySR":469.95,"xT1":424.9,"yT1":0,"xT2":1058.1,"yT2":0,"toosoon":0,"cond_shown":"equaldotanddens","ratio_trial":900,"smaller_num":"9","larger_num":"10","correct_side":2,"subjID":"samuelsanchez29","gender":"0","age":"9","school":"4"},{"start_time":1552328504019,"click_time":1552328505227,"finger_time":1552328504826,"fix_duration":250,"trial":57,"RT":807,"MT":401,"sideResp":2,"stimulus":"img/750/equaldotsize/R/7_Ratio_750_L_3_R_4.png","xmouse":[785,785,785,785,785,785,785,785,785,785,785,785,785,785,785,785,785,785,785,785,785,785,785,785,785,785,785,785,785,785,785,785,785,785,785,785,786,787,794,797,799,806,825,839,860,872,882,891,905,909,912,915,918,944,959,982,1012,1046,1097,1111,1119],"ymouse":[541,541,541,541,541,541,541,541,541,541,541,541,541,541,541,541,541,541,541,541,541,541,541,541,541,541,541,541,541,541,541,541,541,541,541,541,541,534,497,476,454,432,390,371,348,334,322,309,290,286,283,281,279,270,263,251,230,203,135,101,79],"timestamp_mouse":[10,35,47,69,89,107,128,147,168,187,208,227,247,268,288,308,327,348,367,388,408,427,448,467,487,509,527,547,568,587,608,627,647,667,688,708,728,748,768,788,807,828,849,867,887,908,928,949,968,987,1007,1027,1048,1067,1087,1108,1128,1148,1168,1188,1208],"xSR":741.5,"ySR":469.95,"xT1":424.9,"yT1":0,"xT2":1058.1,"yT2":0,"toosoon":0,"cond_shown":"equaldotsize","ratio_trial":750,"smaller_num":"3","larger_num":"4","correct_side":2,"subjID":"samuelsanchez29","gender":"0","age":"9","school":"4"},{"start_time":1552328507323,"click_time":1552328509487,"finger_time":1552328508666,"fix_duration":1076.3227959833098,"trial":58,"RT":1343,"MT":821,"sideResp":1,"stimulus":"img/900/randomdotsizeEA/R/6_Ratio_900_L_9_R_10.png","xmouse":[790,790,790,790,790,790,790,790,790,790,791,792,792,793,793,793,793,794,794,794,794,794,794,794,794,794,794,794,794,794,794,794,794,794,794,794,794,794,794,794,794,794,794,794,794,794,794,794,794,794,794,794,794,794,794,794,794,794,794,794,794,794,794,793,792,792,790,789,788,785,784,783,783,783,782,779,776,772,759,750,739,730,724,714,708,701,691,679,660,630,604,572,539,494,479,474,474,474,474,474,474,474,473,473,476,476,479,481,482],"ymouse":[519,519,519,519,519,519,519,519,519,519,519,520,521,522,522,522,523,524,524,525,526,527,528,528,528,528,528,528,528,528,528,528,528,528,528,528,528,528,528,528,528,528,528,528,528,528,528,528,528,528,528,528,528,528,528,528,528,528,528,528,528,528,525,510,497,487,475,463,456,445,442,440,438,438,434,429,424,418,395,383,371,360,351,335,325,313,299,286,268,240,225,205,183,150,142,138,138,138,138,138,138,138,138,134,129,125,116,101,54],"timestamp_mouse":[14,28,43,63,83,104,123,145,164,183,203,224,244,264,283,303,323,345,364,383,403,424,444,465,484,504,523,545,563,583,604,624,644,665,685,704,723,743,764,785,805,824,844,863,884,904,924,944,963,984,1003,1023,1045,1065,1083,1103,1123,1144,1163,1183,1204,1223,1244,1264,1285,1304,1324,1343,1363,1383,1403,1425,1444,1464,1483,1503,1524,1543,1564,1584,1604,1624,1644,1664,1683,1703,1723,1743,1764,1784,1803,1823,1844,1864,1883,1904,1923,1943,1964,1984,2005,2024,2043,2064,2083,2103,2123,2143,2164],"xSR":741.5,"ySR":469.95,"xT1":424.9,"yT1":0,"xT2":1058.1,"yT2":0,"toosoon":0,"cond_shown":"randomdotsizeEA","ratio_trial":900,"smaller_num":"9","larger_num":"10","correct_side":2,"subjID":"samuelsanchez29","gender":"0","age":"9","school":"4"},{"start_time":1552328511029,"click_time":1552328512566,"finger_time":1552328511948,"fix_duration":540.5687928617855,"trial":59,"RT":919,"MT":618,"sideResp":1,"stimulus":"img/500/equaldotanddens/L/5_Ratio_500_L_4_R_2.png","xmouse":[793,793,793,793,792,792,792,792,792,792,792,792,792,792,792,792,792,792,792,792,792,792,792,792,792,792,792,792,792,792,792,792,792,792,792,792,792,788,786,786,785,785,785,788,797,809,824,839,858,863,863,863,863,863,861,855,846,835,810,800,779,767,736,721,705,686,667,647,606,589,584,579,574,556,543,526,505],"ymouse":[557,557,557,557,557,557,557,557,557,557,557,557,557,557,557,557,557,557,557,557,557,557,557,557,557,557,557,557,557,557,557,557,557,557,552,540,527,504,499,496,495,495,491,485,474,459,444,433,424,423,423,423,423,422,418,412,402,389,364,355,336,324,301,288,274,260,243,226,192,180,174,166,153,114,85,47,5],"timestamp_mouse":[17,37,58,79,97,117,138,159,178,197,218,238,259,278,298,318,338,358,377,397,417,438,458,478,499,517,537,557,578,599,618,637,657,678,697,717,737,758,777,799,817,838,858,878,898,919,939,957,977,997,1017,1038,1057,1078,1097,1117,1138,1157,1177,1197,1217,1237,1259,1277,1298,1317,1338,1357,1377,1398,1418,1437,1457,1477,1498,1519,1537],"xSR":741.5,"ySR":469.95,"xT1":424.9,"yT1":0,"xT2":1058.1,"yT2":0,"toosoon":0,"cond_shown":"equaldotanddens","ratio_trial":500,"smaller_num":"2","larger_num":"4","correct_side":1,"subjID":"samuelsanchez29","gender":"0","age":"9","school":"4"},{"start_time":1552328516110,"click_time":1552328517846,"finger_time":1552328517168,"fix_duration":581.9796715687768,"trial":60,"RT":1058,"MT":678,"sideResp":1,"stimulus":"img/500/randomdotsizeEA/L/5_Ratio_500_L_4_R_2.png","xmouse":[784,784,782,782,782,782,782,782,782,782,782,782,782,782,782,782,782,782,782,782,782,782,782,782,782,782,782,782,782,782,782,782,782,782,782,782,782,782,782,782,782,782,782,782,782,782,782,782,781,774,770,765,760,753,740,732,720,697,661,612,552,552,552,552,552,552,552,552,552,552,552,552,552,552,552,374,382,390,398,401,401,402,402,402,405,417,431],"ymouse":[531,531,534,534,534,534,534,534,534,534,534,534,534,534,534,534,534,534,534,534,534,534,534,534,534,534,534,534,534,534,534,534,534,534,534,534,534,534,534,534,534,534,534,534,534,534,534,533,530,507,493,476,458,439,378,339,288,219,141,68,9,9,9,9,9,9,9,9,9,9,9,9,9,9,9,20,38,53,61,64,64,65,65,65,65,63,63],"timestamp_mouse":[31,38,58,76,97,117,136,158,177,196,217,236,257,278,298,318,336,357,377,396,417,437,457,477,496,517,536,556,578,597,617,637,656,677,696,717,736,757,777,797,817,838,856,877,898,916,938,956,976,996,1017,1037,1058,1076,1096,1117,1136,1156,1177,1197,1216,1237,1257,1276,1297,1316,1336,1357,1377,1397,1417,1436,1457,1477,1496,1516,1536,1557,1576,1596,1616,1636,1657,1677,1697,1717,1736],"xSR":741.5,"ySR":469.95,"xT1":424.9,"yT1":0,"xT2":1058.1,"yT2":0,"toosoon":0,"cond_shown":"randomdotsizeEA","ratio_trial":500,"smaller_num":"2","larger_num":"4","correct_side":1,"subjID":"samuelsanchez29","gender":"0","age":"9","school":"4"},{"start_time":1552328519408,"click_time":1552328520946,"finger_time":1552328520307,"fix_duration":259.7507145659431,"trial":61,"RT":899,"MT":639,"sideResp":1,"stimulus":"img/750/equaldotanddens/L/13_Ratio_750_L_8_R_6.png","xmouse":[775,775,775,775,775,775,775,775,775,775,775,775,775,775,775,775,775,775,775,775,775,775,775,775,775,775,775,775,775,775,775,775,775,775,775,775,775,775,775,775,775,775,775,774,758,711,684,664,643,637,631,626,624,621,618,617,614,611,607,600,592,570,563,559,557,554,553,551,548,544,536,533,530,526,520,514,499,494],"ymouse":[520,520,520,520,520,520,520,520,520,520,520,520,520,520,520,520,520,520,520,520,520,520,520,520,520,520,520,520,520,520,520,520,520,520,520,520,520,520,520,520,520,520,519,512,494,445,422,405,387,381,372,366,363,361,359,357,351,338,323,301,273,206,186,170,162,154,152,149,146,145,142,140,138,134,128,121,102,95],"timestamp_mouse":[2,19,39,59,79,99,119,138,158,179,198,218,239,259,279,299,318,339,360,379,399,418,439,459,478,499,519,539,558,579,599,619,638,660,679,699,719,738,758,778,799,819,838,859,878,899,918,938,959,979,1000,1020,1039,1058,1078,1098,1118,1138,1158,1179,1200,1218,1238,1260,1279,1300,1318,1338,1358,1378,1400,1418,1439,1459,1478,1499,1518,1538],"xSR":741.5,"ySR":469.95,"xT1":424.9,"yT1":0,"xT2":1058.1,"yT2":0,"toosoon":0,"cond_shown":"equaldotanddens","ratio_trial":750,"smaller_num":"6","larger_num":"8","correct_side":1,"subjID":"samuelsanchez29","gender":"0","age":"9","school":"4"},{"start_time":1552328522268,"click_time":1552328523527,"finger_time":1552328522888,"fix_duration":379.2611470499463,"trial":62,"RT":620,"MT":639,"sideResp":2,"stimulus":"img/250/randomdotsizeEA/R/10_Ratio_250_L_4_R_16.png","xmouse":[804,804,804,804,804,804,804,804,804,804,804,804,804,804,804,804,804,804,804,804,804,804,804,804,804,804,804,804,804,804,810,815,841,849,853,856,861,868,872,876,882,892,914,936,959,984,1007,1048,1063,1077,1090,1101,1126,1134,1139,1143,1144,1147,1149,1149,1149,1149,1146],"ymouse":[495,495,495,495,495,495,495,495,495,495,495,495,495,495,495,495,495,495,495,495,495,495,495,495,495,495,495,495,495,495,468,449,366,345,332,323,314,302,296,291,284,277,263,254,244,234,225,213,207,201,195,188,169,161,157,153,152,140,132,123,111,102,75],"timestamp_mouse":[26,39,58,78,98,118,139,160,179,199,219,239,259,278,299,319,339,358,378,398,418,439,458,479,499,519,539,559,578,600,620,639,659,678,699,720,740,758,778,799,818,839,859,878,898,919,939,958,979,999,1018,1039,1058,1079,1100,1119,1139,1158,1178,1198,1218,1238,1259],"xSR":741.5,"ySR":469.95,"xT1":424.9,"yT1":0,"xT2":1058.1,"yT2":0,"toosoon":0,"cond_shown":"randomdotsizeEA","ratio_trial":250,"smaller_num":"4","larger_num":"16","correct_side":2,"subjID":"samuelsanchez29","gender":"0","age":"9","school":"4"},{"start_time":1552328525997,"click_time":1552328527006,"finger_time":1552328526707,"fix_duration":1350.853539813279,"trial":63,"RT":710,"MT":299,"sideResp":2,"stimulus":"img/250/equaldotsize/R/9_Ratio_250_L_3_R_12.png","xmouse":[804,804,804,804,804,804,804,804,804,804,804,804,804,804,804,804,804,804,804,804,804,804,804,804,804,804,804,804,804,804,804,804,807,814,837,914,990,1135,1189,1219,1227,1229,1230,1230,1231,1231,1221,1210,1194,1172,1148],"ymouse":[513,513,513,513,513,513,513,513,513,513,513,513,513,513,513,513,513,513,513,513,513,513,513,513,513,513,513,513,513,513,513,513,511,506,493,461,424,306,237,195,178,166,164,161,159,154,139,128,114,94,74],"timestamp_mouse":[15,30,49,69,90,111,130,150,169,189,211,230,250,270,290,309,329,349,369,389,410,429,449,470,489,509,529,550,570,590,610,629,649,669,690,710,729,749,770,789,809,830,849,870,889,909,931,949,969,991,1009],"xSR":741.5,"ySR":469.95,"xT1":424.9,"yT1":0,"xT2":1058.1,"yT2":0,"toosoon":0,"cond_shown":"equaldotsize","ratio_trial":250,"smaller_num":"3","larger_num":"12","correct_side":2,"subjID":"samuelsanchez29","gender":"0","age":"9","school":"4"},{"start_time":1552328528794,"click_time":1552328530046,"finger_time":1552328529488,"fix_duration":1085.3582241482804,"trial":64,"RT":694,"MT":558,"sideResp":2,"stimulus":"img/250/randomdotsizeEA/R/8_Ratio_250_L_1_R_4.png","xmouse":[825,825,825,825,825,825,825,825,825,825,825,825,825,825,826,826,826,826,826,826,826,826,826,826,826,826,826,826,826,826,823,810,797,775,758,743,727,701,696,694,693,693,693,693,706,729,759,871,936,1001,1047,1076,1104,1114,1126,1133,1141,1157,1164,1168,1171,1171,1126],"ymouse":[537,537,537,537,537,537,537,537,537,537,537,537,536,536,534,534,534,534,534,534,534,534,534,534,534,534,534,534,528,525,515,501,493,480,469,459,447,429,425,423,422,422,422,422,422,422,422,422,421,405,386,364,318,294,266,249,232,195,175,158,136,113,47],"timestamp_mouse":[14,32,52,73,92,113,134,152,172,192,214,232,252,272,292,312,333,352,374,392,412,434,453,472,493,512,533,553,572,593,613,634,654,673,694,713,732,752,772,793,813,834,853,873,892,912,932,952,972,992,1012,1032,1052,1073,1092,1112,1132,1152,1172,1193,1214,1233,1252],"xSR":741.5,"ySR":469.95,"xT1":424.9,"yT1":0,"xT2":1058.1,"yT2":0,"toosoon":0,"cond_shown":"