[{"start_time":1552055122195,"click_time":1552055124205,"finger_time":1552055123685,"fix_duration":923.1035874691406,"trial":0,"RT":1490,"MT":520,"sideResp":2,"stimulus":"img/500/equaldotanddens/L/13_Ratio_500_L_12_R_6.png","xmouse":[785,785,785,785,785,785,785,785,785,785,785,785,785,785,785,785,785,785,785,785,785,785,785,785,785,785,785,785,785,785,785,785,785,785,785,785,785,785,785,785,785,785,785,785,785,785,785,785,785,785,785,785,785,785,785,785,785,785,785,785,785,785,785,785,785,785,785,785,785,785,785,786,791,797,807,823,862,909,930,955,978,999,1013,1032,1036,1036,1036,1036,1036,1036,1036,1036,1036,1036,1036,1036,1036,1036,1036,1036,1110],"ymouse":[531,531,531,531,531,531,531,531,531,531,531,531,531,531,531,531,531,531,531,531,531,531,531,531,531,531,531,531,531,531,531,531,531,531,531,531,531,531,531,531,531,531,531,531,531,531,531,531,529,523,519,515,511,510,510,510,510,510,510,510,510,510,510,510,510,510,510,510,510,510,506,503,489,473,450,415,322,219,175,131,86,52,32,6,0,0,0,0,0,0,0,0,0,0,0,0,0,0,0,0,3],"timestamp_mouse":[12,45,50,71,91,111,130,151,170,190,211,231,251,271,292,312,330,350,372,392,410,431,450,470,491,511,531,550,570,592,612,631,650,671,692,711,732,751,771,792,811,831,850,872,892,910,932,951,971,990,1010,1031,1050,1072,1090,1110,1132,1151,1170,1191,1211,1232,1252,1271,1291,1312,1331,1350,1371,1392,1411,1430,1451,1470,1490,1511,1530,1551,1570,1590,1610,1630,1651,1671,1691,1712,1732,1751,1771,1791,1811,1831,1852,1871,1892,1912,1931,1951,1971,1990,2010],"xSR":741.5,"ySR":501.8,"xT1":424.9,"yT1":0,"xT2":1058.1,"yT2":0,"toosoon":0,"cond_shown":"equaldotanddens","ratio_trial":500,"smaller_num":"6","larger_num":"12","correct_side":1,"subjID":"SamuelVilla31","gender":"0","age":"9","school":"4","test":{"fix_dur":[250,1500],"timestim":300,"targets_dim":[100,100],"targets_relative_coord":[0.3,0.7],"size_stim":[880,420],"start_dim":[100,100],"size_start":[300,300],"size_fix":60,"samplingrate":20,"img_types":["equaldotsize","equaldotanddens","randomdotsizeEA"],"ratios":[250,500,750,900],"rep_conds":9,"nTrials":120,"trials_to_rest":500,"Trials_order":[28,46,51,85,61,34,2,27,105,45,20,111,11,21,30,83,47,12,25,3,32,86,94,91,5,15,112,55,8,49,36,13,77,38,70,75,106,103,110,60,93,69,113,53,10,63,116,56,88,115,74,42,0,57,29,81,22,79,64,39,118,117,73,41,98,65,100,67,89,62,4,26,43,97,80,24,59,9,23,40,54,31,72,90,14,96,71,68,76,84,102,107,78,82,37,119,104,66,35,101,48,92,7,109,95,114,16,87,1,99,33,52,18,58,108,17,19,50,44,6],"cond_shown":["equaldotanddens","equaldotanddens","equaldotsize","equaldotanddens","equaldotanddens","equaldotanddens","randomdotsizeEA","equaldotsize","equaldotsize","equaldotsize","randomdotsizeEA","equaldotsize","randomdotsizeEA","equaldotsize","equaldotsize","randomdotsizeEA","randomdotsizeEA","equaldotsize","equaldotanddens","equaldotsize","randomdotsizeEA","randomdotsizeEA","equaldotanddens","equaldotanddens","randomdotsizeEA","equaldotsize","equaldotanddens","equaldotanddens","randomdotsizeEA","equaldotanddens","equaldotsize","equaldotanddens","randomdotsizeEA","randomdotsizeEA","equaldotanddens","equaldotsize","equaldotanddens","equaldotanddens","randomdotsizeEA","equaldotsize","equaldotsize","equaldotsize","randomdotsizeEA","randomdotsizeEA","equaldotanddens","equaldotsize","randomdotsizeEA","randomdotsizeEA","equaldotanddens","equaldotanddens","randomdotsizeEA","equaldotsize","equaldotsize","equaldotsize","randomdotsizeEA","equaldotsize","equaldotanddens","equaldotanddens","equaldotanddens","equaldotsize","equaldotanddens","equaldotsize","equaldotanddens","randomdotsizeEA","randomdotsizeEA","randomdotsizeEA","equaldotanddens","equaldotanddens","randomdotsizeEA","randomdotsizeEA","equaldotanddens","randomdotsizeEA","equaldotanddens","equaldotanddens","randomdotsizeEA","equaldotsize","randomdotsizeEA","equaldotsize","randomdotsizeEA","equaldotanddens","equaldotsize","equaldotanddens","equaldotsize","equaldotsize","randomdotsizeEA","equaldotsize","randomdotsizeEA","randomdotsizeEA","equaldotanddens","equaldotsize","equaldotsize","randomdotsizeEA","equaldotsize","equaldotanddens","equaldotanddens","randomdotsizeEA","randomdotsizeEA","equaldotsize","randomdotsizeEA","randomdotsizeEA","equaldotsize","randomdotsizeEA","equaldotanddens","equaldotanddens","randomdotsizeEA","equaldotsize","equaldotanddens","equaldotsize","equaldotanddens","equaldotsize","equaldotsize","equaldotanddens","equaldotsize","equaldotanddens","equaldotsize","randomdotsizeEA","equaldotanddens","randomdotsizeEA","randomdotsizeEA","equaldotsize"],"ratio_trial":[500,900,500,250,250,900,250,500,900,900,750,500,900,900,750,900,900,250,250,500,750,250,900,750,500,500,500,750,750,250,250,250,500,250,900,500,900,750,250,250,900,900,500,500,900,500,750,750,500,750,250,750,250,900,500,900,900,750,500,500,900,900,250,500,250,500,500,750,500,250,500,250,750,250,750,250,900,900,900,500,750,750,250,750,250,250,900,750,500,250,750,900,750,900,250,900,750,750,900,500,250,750,750,250,900,750,500,500,250,500,900,500,750,900,250,500,750,250,750,750],"smaller_num":["6","18","9","2","2","18","2","2","9","9","6","1","9","9","15","18","9","4","4","5","3","3","18","3","2","9","2","6","15","3","3","4","9","4","18","2","18","6","3","3","18","9","4","6","18","4","18","15","9","12","6","15","2","18","6","18","9","3","2","5","18","18","5","6","4","9","2","3","6","2","6","2","9","3","3","3","9","9","9","9","6","15","5","3","4","3","18","15","4","2","6","18","3","18","3","18","9","15","18","6","3","15","3","1","18","3","3","10","3","10","9","4","15","18","4","2","15","4","6","3"],"larger_num":["12","20","18","8","8","20","8","4","10","10","8","2","10","10","20","20","10","16","16","10","4","12","20","4","4","18","4","8","20","12","12","16","18","16","20","4","20","8","12","12","20","10","8","12","20","8","24","20","18","16","24","20","8","20","12","20","10","4","4","10","20","20","20","12","16","18","4","4","12","8","12","8","12","12","4","12","10","10","10","18","8","20","20","4","16","12","20","20","8","8","8","20","4","20","12","20","12","20","20","12","12","20","4","4","20","4","6","20","12","20","10","8","20","20","16","4","20","16","8","4"],"correct_side":[1,1,2,1,2,2,2,1,2,2,2,2,2,1,2,2,1,2,1,2,1,2,2,2,1,2,1,1,1,2,1,2,2,1,2,2,1,1,2,2,1,1,1,1,2,1,1,2,1,2,1,2,1,1,1,1,2,1,1,1,2,2,2,1,1,2,1,2,1,1,1,2,2,2,1,1,1,1,2,2,1,1,2,2,1,1,1,1,1,1,1,2,2,1,1,1,2,2,2,1,2,2,1,2,1,2,2,2,2,2,2,1,2,1,1,1,2,1,1,1],"img_shown":["img/500/equaldotanddens/L/13_Ratio_500_L_12_R_6.png","img/900/equaldotanddens/L/10_Ratio_900_L_20_R_18.png","img/500/equaldotsize/R/1_Ratio_500_L_9_R_18.png","img/250/equaldotanddens/L/1_Ratio_250_L_8_R_2.png","img/250/equaldotanddens/R/13_Ratio_250_L_2_R_8.png","img/900/equaldotanddens/R/11_Ratio_900_L_18_R_20.png","img/250/randomdotsizeEA/R/13_Ratio_250_L_2_R_8.png","img/500/equaldotsize/L/10_Ratio_500_L_4_R_2.png","img/900/equaldotsize/R/7_Ratio_900_L_9_R_10.png","img/900/equaldotsize/R/7_Ratio_900_L_9_R_10.png","img/750/randomdotsizeEA/R/2_Ratio_750_L_6_R_8.png","img/500/equaldotsize/R/15_Ratio_500_L_1_R_2.png","img/900/randomdotsizeEA/R/5_Ratio_900_L_9_R_10.png","img/900/equaldotsize/L/1_Ratio_900_L_10_R_9.png","img/750/equaldotsize/R/5_Ratio_750_L_15_R_20.png","img/900/randomdotsizeEA/R/9_Ratio_900_L_18_R_20.png","img/900/randomdotsizeEA/L/1_Ratio_900_L_10_R_9.png","img/250/equaldotsize/R/10_Ratio_250_L_4_R_16.png","img/250/equaldotanddens/L/2_Ratio_250_L_16_R_4.png","img/500/equaldotsize/R/14_Ratio_500_L_5_R_10.png","img/750/randomdotsizeEA/L/9_Ratio_750_L_4_R_3.png","img/250/randomdotsizeEA/R/11_Ratio_250_L_3_R_12.png","img/900/equaldotanddens/R/14_Ratio_900_L_18_R_20.png","img/750/equaldotanddens/R/12_Ratio_750_L_3_R_4.png","img/500/randomdotsizeEA/L/10_Ratio_500_L_4_R_2.png","img/500/equaldotsize/R/1_Ratio_500_L_9_R_18.png","img/500/equaldotanddens/L/10_Ratio_500_L_4_R_2.png","img/750/equaldotanddens/L/14_Ratio_750_L_8_R_6.png","img/750/randomdotsizeEA/L/1_Ratio_750_L_20_R_15.png","img/250/equaldotanddens/R/9_Ratio_250_L_3_R_12.png","img/250/equaldotsize/L/14_Ratio_250_L_12_R_3.png","img/250/equaldotanddens/R/10_Ratio_250_L_4_R_16.png","img/500/randomdotsizeEA/R/1_Ratio_500_L_9_R_18.png","img/250/randomdotsizeEA/L/2_Ratio_250_L_16_R_4.png","img/900/equaldotanddens/R/12_Ratio_900_L_18_R_20.png","img/500/equaldotsize/R/9_Ratio_500_L_2_R_4.png","img/900/equaldotanddens/L/8_Ratio_900_L_20_R_18.png","img/750/equaldotanddens/L/14_Ratio_750_L_8_R_6.png","img/250/randomdotsizeEA/R/4_Ratio_250_L_3_R_12.png","img/250/equaldotsize/R/11_Ratio_250_L_3_R_12.png","img/900/equaldotsize/L/8_Ratio_900_L_20_R_18.png","img/900/equaldotsize/L/1_Ratio_900_L_10_R_9.png","img/500/randomdotsizeEA/L/8_Ratio_500_L_8_R_4.png","img/500/randomdotsizeEA/L/13_Ratio_500_L_12_R_6.png","img/900/equaldotanddens/R/13_Ratio_900_L_18_R_20.png","img/500/equaldotsize/L/8_Ratio_500_L_8_R_4.png","img/750/randomdotsizeEA/L/6_Ratio_750_L_24_R_18.png","img/750/randomdotsizeEA/R/5_Ratio_750_L_15_R_20.png","img/500/equaldotanddens/L/4_Ratio_500_L_18_R_9.png","img/750/equaldotanddens/R/11_Ratio_750_L_12_R_16.png","img/250/randomdotsizeEA/L/5_Ratio_250_L_24_R_6.png","img/750/equaldotsize/R/3_Ratio_750_L_15_R_20.png","img/250/equaldotsize/L/1_Ratio_250_L_8_R_2.png","img/900/equaldotsize/L/4_Ratio_900_L_20_R_18.png","img/500/randomdotsizeEA/L/13_Ratio_500_L_12_R_6.png","img/900/equaldotsize/L/10_Ratio_900_L_20_R_18.png","img/900/equaldotanddens/R/7_Ratio_900_L_9_R_10.png","img/750/equaldotanddens/L/8_Ratio_750_L_4_R_3.png","img/500/equaldotanddens/L/5_Ratio_500_L_4_R_2.png","img/500/equaldotsize/L/7_Ratio_500_L_10_R_5.png","img/900/equaldotanddens/R/9_Ratio_900_L_18_R_20.png","img/900/equaldotsize/R/11_Ratio_900_L_18_R_20.png","img/250/equaldotanddens/R/12_Ratio_250_L_5_R_20.png","img/500/randomdotsizeEA/L/13_Ratio_500_L_12_R_6.png","img/250/randomdotsizeEA/L/2_Ratio_250_L_16_R_4.png","img/500/randomdotsizeEA/R/1_Ratio_500_L_9_R_18.png","img/500/equaldotanddens/L/10_Ratio_500_L_4_R_2.png","img/750/equaldotanddens/R/7_Ratio_750_L_3_R_4.png","img/500/randomdotsizeEA/L/13_Ratio_500_L_12_R_6.png","img/250/randomdotsizeEA/L/1_Ratio_250_L_8_R_2.png","img/500/equaldotanddens/L/13_Ratio_500_L_12_R_6.png","img/250/randomdotsizeEA/R/13_Ratio_250_L_2_R_8.png","img/750/equaldotanddens/R/15_Ratio_750_L_9_R_12.png","img/250/equaldotanddens/R/4_Ratio_250_L_3_R_12.png","img/750/randomdotsizeEA/L/10_Ratio_750_L_4_R_3.png","img/250/equaldotsize/L/14_Ratio_250_L_12_R_3.png","img/900/randomdotsizeEA/L/1_Ratio_900_L_10_R_9.png","img/900/equaldotsize/L/1_Ratio_900_L_10_R_9.png","img/900/randomdotsizeEA/R/6_Ratio_900_L_9_R_10.png","img/500/equaldotanddens/R/1_Ratio_500_L_9_R_18.png","img/750/equaldotsize/L/14_Ratio_750_L_8_R_6.png","img/750/equaldotanddens/L/1_Ratio_750_L_20_R_15.png","img/250/equaldotsize/R/12_Ratio_250_L_5_R_20.png","img/750/equaldotsize/R/12_Ratio_750_L_3_R_4.png","img/250/randomdotsizeEA/L/2_Ratio_250_L_16_R_4.png","img/250/equaldotsize/L/14_Ratio_250_L_12_R_3.png","img/900/randomdotsizeEA/L/8_Ratio_900_L_20_R_18.png","img/750/randomdotsizeEA/L/1_Ratio_750_L_20_R_15.png","img/500/equaldotanddens/L/8_Ratio_500_L_8_R_4.png","img/250/equaldotsize/L/1_Ratio_250_L_8_R_2.png","img/750/equaldotsize/L/13_Ratio_750_L_8_R_6.png","img/900/randomdotsizeEA/R/12_Ratio_900_L_18_R_20.png","img/750/equaldotsize/R/12_Ratio_750_L_3_R_4.png","img/900/equaldotanddens/L/8_Ratio_900_L_20_R_18.png","img/250/equaldotanddens/L/14_Ratio_250_L_12_R_3.png","img/900/randomdotsizeEA/L/4_Ratio_900_L_20_R_18.png","img/750/randomdotsizeEA/R/15_Ratio_750_L_9_R_12.png","img/750/equaldotsize/R/3_Ratio_750_L_15_R_20.png","img/900/randomdotsizeEA/R/12_Ratio_900_L_18_R_20.png","img/500/randomdotsizeEA/L/13_Ratio_500_L_12_R_6.png","img/250/equaldotsize/R/11_Ratio_250_L_3_R_12.png","img/750/randomdotsizeEA/R/4_Ratio_750_L_15_R_20.png","img/750/equaldotanddens/L/9_Ratio_750_L_4_R_3.png","img/250/equaldotanddens/R/8_Ratio_250_L_1_R_4.png","img/900/randomdotsizeEA/L/2_Ratio_900_L_20_R_18.png","img/750/equaldotsize/R/7_Ratio_750_L_3_R_4.png","img/500/equaldotanddens/R/2_Ratio_500_L_3_R_6.png","img/500/equaldotsize/R/3_Ratio_500_L_10_R_20.png","img/250/equaldotanddens/R/11_Ratio_250_L_3_R_12.png","img/500/equaldotsize/R/3_Ratio_500_L_10_R_20.png","img/900/equaldotsize/R/6_Ratio_900_L_9_R_10.png","img/500/equaldotanddens/L/8_Ratio_500_L_8_R_4.png","img/750/equaldotsize/R/3_Ratio_750_L_15_R_20.png","img/900/equaldotanddens/L/2_Ratio_900_L_20_R_18.png","img/250/equaldotsize/L/2_Ratio_250_L_16_R_4.png","img/500/randomdotsizeEA/L/10_Ratio_500_L_4_R_2.png","img/750/equaldotanddens/R/5_Ratio_750_L_15_R_20.png","img/250/randomdotsizeEA/L/2_Ratio_250_L_16_R_4.png","img/750/randomdotsizeEA/L/14_Ratio_750_L_8_R_6.png","img/750/equaldotsize/L/8_Ratio_750_L_4_R_3.png"],"Rat0":[["12_Ratio_0_L_9_R_0.png","13_Ratio_0_L_6_R_0.png","5_Ratio_0_L_2_R_0.png","6_Ratio_0_L_4_R_0.png","8_Ratio_0_L_6_R_0.png"],["1_Ratio_0_L_0_R_17.png","10_Ratio_0_L_0_R_22.png","11_Ratio_0_L_0_R_1.png","14_Ratio_0_L_0_R_24.png","15_Ratio_0_L_0_R_4.png","2_Ratio_0_L_0_R_5.png","3_Ratio_0_L_0_R_17.png","4_Ratio_0_L_0_R_7.png","7_Ratio_0_L_0_R_19.png","9_Ratio_0_L_0_R_15.png"]],"Rat250":[["1_Ratio_250_L_8_R_2.png","14_Ratio_250_L_12_R_3.png","15_Ratio_250_L_12_R_3.png","2_Ratio_250_L_16_R_4.png","3_Ratio_250_L_8_R_2.png","5_Ratio_250_L_24_R_6.png","7_Ratio_250_L_8_R_2.png"],["10_Ratio_250_L_4_R_16.png","11_Ratio_250_L_3_R_12.png","12_Ratio_250_L_5_R_20.png","13_Ratio_250_L_2_R_8.png","4_Ratio_250_L_3_R_12.png","6_Ratio_250_L_6_R_24.png","8_Ratio_250_L_1_R_4.png","9_Ratio_250_L_3_R_12.png"]],"Rat500":[["10_Ratio_500_L_4_R_2.png","11_Ratio_500_L_12_R_6.png","13_Ratio_500_L_12_R_6.png","4_Ratio_500_L_18_R_9.png","5_Ratio_500_L_4_R_2.png","7_Ratio_500_L_10_R_5.png","8_Ratio_500_L_8_R_4.png"],["1_Ratio_500_L_9_R_18.png","12_Ratio_500_L_1_R_2.png","14_Ratio_500_L_5_R_10.png","15_Ratio_500_L_1_R_2.png","2_Ratio_500_L_3_R_6.png","3_Ratio_500_L_10_R_20.png","6_Ratio_500_L_9_R_18.png","9_Ratio_500_L_2_R_4.png"]],"Rat750":[["1_Ratio_750_L_20_R_15.png","10_Ratio_750_L_4_R_3.png","13_Ratio_750_L_8_R_6.png","14_Ratio_750_L_8_R_6.png","6_Ratio_750_L_24_R_18.png","8_Ratio_750_L_4_R_3.png","9_Ratio_750_L_4_R_3.png"],["11_Ratio_750_L_12_R_16.png","12_Ratio_750_L_3_R_4.png","15_Ratio_750_L_9_R_12.png","2_Ratio_750_L_6_R_8.png","3_Ratio_750_L_15_R_20.png","4_Ratio_750_L_15_R_20.png","5_Ratio_750_L_15_R_20.png","7_Ratio_750_L_3_R_4.png"]],"Rat900":[["1_Ratio_900_L_10_R_9.png","10_Ratio_900_L_20_R_18.png","2_Ratio_900_L_20_R_18.png","4_Ratio_900_L_20_R_18.png","8_Ratio_900_L_20_R_18.png"],["11_Ratio_900_L_18_R_20.png","12_Ratio_900_L_18_R_20.png","13_Ratio_900_L_18_R_20.png","14_Ratio_900_L_18_R_20.png","15_Ratio_900_L_9_R_10.png","3_Ratio_900_L_9_R_10.png","5_Ratio_900_L_9_R_10.png","6_Ratio_900_L_9_R_10.png","7_Ratio_900_L_9_R_10.png","9_Ratio_900_L_18_R_20.png"]],"Rat1000":[["10_Ratio_1000_L_16_R_16.png","11_Ratio_1000_L_6_R_6.png","12_Ratio_1000_L_14_R_14.png","13_Ratio_1000_L_20_R_20.png","15_Ratio_1000_L_15_R_15.png","2_Ratio_1000_L_17_R_17.png","4_Ratio_1000_L_9_R_9.png","5_Ratio_1000_L_6_R_6.png","6_Ratio_1000_L_19_R_19.png","8_Ratio_1000_L_14_R_14.png","9_Ratio_1000_L_25_R_25.png"],["1_Ratio_1000_L_1_R_1.png","14_Ratio_1000_L_17_R_17.png","3_Ratio_1000_L_17_R_17.png","7_Ratio_1000_L_6_R_6.png"]]}},{"start_time":1552055126957,"click_time":1552055128466,"finger_time":1552055127326,"fix_duration":250,"trial":1,"RT":369,"MT":1140,"sideResp":1,"stimulus":"img/900/equaldotanddens/L/10_Ratio_900_L_20_R_18.png","xmouse":[780,780,780,780,780,780,780,780,780,780,780,780,780,780,780,780,776,749,728,680,654,626,601,575,560,559,559,562,574,604,626,649,671,691,712,713,713,713,713,713,715,717,722,730,758,769,775,777,777,777,777,777,777,774,768,747,727,684,639,589,489,451,428,416,413,413,413,413,419,434,455,458,459,460,466,495],"ymouse":[512,512,512,512,512,512,512,512,512,512,512,512,512,512,512,513,515,517,517,517,517,517,517,517,519,519,519,519,512,498,493,491,491,491,496,497,497,497,497,497,497,498,500,503,510,510,510,510,510,510,510,510,510,507,503,485,467,424,373,321,235,201,178,163,156,155,155,154,149,138,121,119,119,117,112,77],"timestamp_mouse":[16,38,50,68,90,108,128,150,168,189,208,228,250,268,290,308,330,348,369,390,408,428,448,468,489,508,528,549,569,591,608,628,649,668,690,708,728,749,768,789,808,830,849,870,891,909,929,950,969,989,1010,1029,1050,1069,1089,1109,1128,1148,1168,1188,1208,1228,1249,1268,1290,1309,1329,1349,1368,1388,1409,1429,1449,1468,1489,1508],"xSR":741.5,"ySR":469.95,"xT1":424.9,"yT1":0,"xT2":1058.1,"yT2":0,"toosoon":0,"cond_shown":"equaldotanddens","ratio_trial":900,"smaller_num":"18","larger_num":"20","correct_side":1,"subjID":"SamuelVilla31","gender":"0","age":"9","school":"4"},{"start_time":1552055131591,"click_time":1552055132926,"finger_time":1552055132345,"fix_duration":1342.0940044701258,"trial":2,"RT":754,"MT":581,"sideResp":1,"stimulus":"img/500/equaldotsize/R/1_Ratio_500_L_9_R_18.png","xmouse":[794,794,794,794,794,794,794,794,794,794,794,794,794,794,794,794,794,794,794,794,794,794,794,794,794,794,794,794,794,794,794,794,794,794,796,803,812,830,908,933,942,946,947,951,951,951,951,951,951,951,947,938,925,871,838,800,759,729,691,683,677,673,657,614,578,545,522],"ymouse":[508,508,508,508,508,508,508,508,508,508,508,508,508,508,508,508,508,508,508,508,508,508,508,508,508,508,508,508,508,508,508,508,508,508,504,498,488,458,312,250,215,195,180,148,141,136,129,122,112,96,88,78,69,58,58,61,68,73,77,77,77,77,77,77,73,65,58],"timestamp_mouse":[14,34,55,76,95,114,135,155,175,194,216,235,254,275,296,316,336,355,374,395,415,436,454,474,495,515,534,555,575,595,615,635,655,674,695,715,735,754,775,795,815,835,855,876,894,914,936,954,975,994,1015,1034,1054,1075,1095,1114,1135,1154,1175,1194,1215,1236,1255,1275,1295,1314,1335],"xSR":741.5,"ySR":469.95,"xT1":424.9,"yT1":0,"xT2":1058.1,"yT2":0,"toosoon":0,"cond_shown":"equaldotsize","ratio_trial":500,"smaller_num":"9","larger_num":"18","correct_side":2,"subjID":"SamuelVilla31","gender":"0","age":"9","school":"4"},{"start_time":1552055135471,"click_time":1552055136746,"finger_time":1552055136186,"fix_duration":1483.25353889025,"trial":3,"RT":715,"MT":560,"sideResp":2,"stimulus":"img/250/equaldotanddens/L/1_Ratio_250_L_8_R_2.png","xmouse":[785,785,785,785,785,785,785,785,785,785,785,785,785,785,785,785,785,785,785,785,785,785,785,785,785,785,785,785,785,785,785,785,788,792,836,875,905,927,940,942,944,946,947,948,951,956,956,961,987,998,998,998,998,998,998,998,998,998,998,998,998,998,998,1094],"ymouse":[506,506,506,506,506,506,506,506,506,506,506,506,506,506,506,506,506,506,506,506,506,506,506,506,506,506,506,506,506,506,506,506,506,506,479,441,409,378,347,335,320,311,301,285,264,210,182,149,47,9,9,9,9,9,9,9,9,9,9,9,9,9,9,1],"timestamp_mouse":[15,42,56,75,94,115,136,156,175,196,215,236,254,274,296,315,334,355,375,395,416,436,455,475,494,514,535,556,575,596,615,634,656,674,695,715,735,754,774,795,814,834,854,874,895,915,934,954,976,995,1015,1035,1054,1075,1094,1114,1134,1154,1174,1196,1215,1236,1255,1275],"xSR":741.5,"ySR":469.95,"xT1":424.9,"yT1":0,"xT2":1058.1,"yT2":0,"toosoon":0,"cond_shown":"equaldotanddens","ratio_trial":250,"smaller_num":"2","larger_num":"8","correct_side":1,"subjID":"SamuelVilla31","gender":"0","age":"9","school":"4"},{"start_time":1552055139119,"click_time":1552055140427,"finger_time":1552055140086,"fix_duration":1092.9273311142276,"trial":4,"RT":967,"MT":341,"sideResp":2,"stimulus":"img/250/equaldotanddens/R/13_Ratio_250_L_2_R_8.png","xmouse":[790,790,790,790,790,790,790,790,790,790,790,790,790,790,790,790,790,790,790,787,786,785,785,785,785,785,785,785,785,785,785,785,785,785,785,785,785,785,785,785,785,785,785,785,785,785,785,791,859,908,939,955,964,974,974,975,976,977,979,982,984,987,994,1025,1049,1063],"ymouse":[525,524,524,522,521,520,518,518,518,518,518,518,518,518,518,518,518,518,517,514,514,514,513,513,513,513,513,513,513,513,513,513,513,513,513,513,513,513,513,513,513,513,513,513,513,513,510,504,446,402,367,342,320,279,273,268,262,255,231,213,194,177,156,83,40,16],"timestamp_mouse":[12,35,46,67,86,107,128,147,166,188,207,226,247,266,286,306,327,347,368,387,407,427,448,467,487,508,527,547,567,587,608,626,646,667,687,708,727,746,768,786,806,827,847,867,887,906,926,946,967,986,1006,1026,1046,1067,1086,1106,1127,1146,1167,1186,1206,1226,1247,1268,1288,1308],"xSR":741.5,"ySR":469.95,"xT1":424.9,"yT1":0,"xT2":1058.1,"yT2":0,"toosoon":0,"cond_shown":"equaldotanddens","ratio_trial":250,"smaller_num":"2","larger_num":"8","correct_side":2,"subjID":"SamuelVilla31","gender":"0","age":"9","school":"4"},{"start_time":1552055143173,"click_time":1552055144788,"finger_time":1552055144225,"fix_duration":1386.7166640931136,"trial":5,"RT":1052,"MT":563,"sideResp":2,"stimulus":"img/900/equaldotanddens/R/11_Ratio_900_L_18_R_20.png","xmouse":[786,786,786,786,786,786,786,786,786,786,786,786,786,786,786,786,786,786,786,786,786,786,786,786,786,786,786,786,786,786,786,786,786,786,786,786,786,786,786,786,786,786,786,786,786,786,786,786,786,787,797,829,837,840,840,840,840,840,841,843,846,870,892,912,929,948,991,1009,1036,1048,1068,1075,1080,1084,1085,1087,1089,1092,1092,1096,1099],"ymouse":[509,509,509,509,509,509,509,509,509,509,509,509,509,509,509,509,509,509,509,509,509,509,509,509,509,509,509,509,509,509,509,509,509,509,509,509,509,509,509,509,509,509,509,509,509,509,509,509,509,508,501,475,461,451,445,441,436,433,430,423,418,385,360,336,318,299,258,241,218,204,178,165,156,148,142,138,126,118,114,104,84],"timestamp_mouse":[13,35,53,74,94,113,134,153,172,193,213,234,254,273,292,313,333,352,372,392,414,434,453,473,492,513,533,553,574,594,614,633,653,672,692,713,734,753,773,793,813,834,852,873,893,914,932,952,974,993,1013,1032,1052,1074,1093,1113,1132,1153,1173,1194,1212,1232,1252,1272,1292,1312,1332,1352,1372,1392,1414,1432,1454,1473,1492,1513,1532,1553,1573,1592,1614],"xSR":741.5,"ySR":469.95,"xT1":424.9,"yT1":0,"xT2":1058.1,"yT2":0,"toosoon":0,"cond_shown":"equaldotanddens","ratio_trial":900,"smaller_num":"18","larger_num":"20","correct_side":2,"subjID":"SamuelVilla31","gender":"0","age":"9","school":"4"},{"start_time":1552055147130,"click_time":1552055150367,"finger_time":1552055149645,"fix_duration":1282.146969571437,"trial":6,"RT":2515,"MT":722,"sideResp":2,"stimulus":"img/250/randomdotsizeEA/R/13_Ratio_250_L_2_R_8.png","xmouse":[784,784,785,788,789,790,792,792,792,792,792,792,792,792,792,792,792,792,792,792,792,792,792,792,792,792,792,792,792,792,792,792,792,792,792,792,792,792,792,792,792,792,792,792,792,792,792,792,792,792,792,792,792,792,792,792,792,792,792,792,792,792,792,792,792,792,792,792,792,792,792,792,792,792,792,792,792,792,792,792,792,792,792,792,792,791,790,790,790,790,790,790,790,790,790,790,790,790,790,790,790,790,790,790,790,790,790,790,790,790,790,790,790,790,790,790,790,790,790,790,790,790,790,792,803,814,824,836,844,861,867,872,875,882,885,886,888,890,907,922,942,958,971,989,994,996,997,997,999,1001,1001,1002,1006,1018,1024,1028,1030,1030,1034,1040,1049,1060],"ymouse":[512,512,512,512,512,512,512,512,512,512,512,512,512,512,512,512,512,512,512,512,512,512,512,512,512,512,512,512,512,512,512,512,512,512,512,512,512,512,512,512,512,512,512,512,512,512,512,512,512,512,512,512,512,512,512,512,512,512,512,512,512,512,512,512,512,512,512,512,512,512,512,512,512,512,510,508,506,504,502,502,502,502,502,502,501,501,501,500,500,500,500,500,500,500,500,500,500,500,500,500,500,500,500,500,500,500,500,500,500,500,500,500,500,500,500,500,500,500,500,500,500,500,500,490,476,459,440,419,402,359,342,324,306,276,262,253,247,242,220,206,192,182,173,157,153,151,151,148,136,131,130,129,123,107,100,95,93,93,92,89,87,83],"timestamp_mouse":[20,38,56,76,95,116,137,157,177,195,215,236,256,275,295,316,335,356,375,395,415,436,456,477,496,515,537,557,575,595,617,635,656,676,696,716,737,755,777,796,815,836,857,875,895,915,936,955,977,995,1016,1035,1057,1077,1096,1115,1136,1155,1175,1196,1217,1236,1255,1275,1296,1315,1336,1356,1376,1396,1416,1436,1455,1475,1495,1515,1535,1555,1576,1597,1616,1635,1656,1676,1696,1716,1735,1755,1775,1796,1817,1836,1857,1876,1896,1915,1935,1957,1975,1996,2015,2035,2057,2075,2096,2115,2136,2157,2176,2196,2217,2237,2255,2275,2296,2315,2336,2356,2375,2396,2415,2437,2455,2475,2495,2515,2536,2556,2576,2596,2615,2636,2655,2676,2695,2716,2735,2755,2776,2795,2815,2835,2855,2876,2895,2916,2936,2956,2977,2995,3016,3036,3057,3077,3095,3115,3136,3155,3176,3195,3215,3237],"xSR":741.5,"ySR":469.95,"xT1":424.9,"yT1":0,"xT2":1058.1,"yT2":0,"toosoon":0,"cond_shown":"randomdotsizeEA","ratio_trial":250,"smaller_num":"2","larger_num":"8","correct_side":2,"subjID":"SamuelVilla31","gender":"0","age":"9","school":"4"},{"start_time":1552055151982,"click_time":1552055153406,"finger_time":1552055153005,"fix_duration":554.6376245270561,"trial":7,"RT":1023,"MT":401,"sideResp":1,"stimulus":"img/500/equaldotsize/L/10_Ratio_500_L_4_R_2.png","xmouse":[780,780,780,780,780,780,781,785,788,790,792,793,793,793,793,793,793,793,793,793,793,793,793,793,793,793,793,793,793,793,793,793,793,793,793,793,793,793,793,793,793,793,793,793,793,793,793,785,775,764,750,738,714,702,686,654,634,596,583,575,570,567,560,553,544,530,522,514,509,505,500,494],"ymouse":[513,513,513,513,513,512,512,511,511,511,511,511,511,511,511,511,511,511,511,511,511,511,511,511,511,511,511,511,511,511,511,511,511,511,511,511,511,511,511,511,511,511,511,511,511,511,511,511,505,497,483,466,421,396,368,325,299,251,232,220,213,207,196,185,173,152,144,132,123,113,101,93],"timestamp_mouse":[12,41,44,64,83,104,123,143,164,183,203,224,244,263,284,304,325,344,363,385,403,423,444,464,484,504,523,545,565,583,604,625,644,663,684,703,724,744,764,783,804,824,844,864,884,904,924,943,963,983,1005,1023,1043,1064,1083,1103,1123,1143,1163,1183,1203,1223,1243,1263,1283,1304,1324,1343,1363,1383,1403,1424],"xSR":741.5,"ySR":469.95,"xT1":424.9,"yT1":0,"xT2":1058.1,"yT2":0,"toosoon":0,"cond_shown":"equaldotsize","ratio_trial":500,"smaller_num":"2","larger_num":"4","correct_side":1,"subjID":"SamuelVilla31","gender":"0","age":"9","school":"4"},{"start_time":1552055154678,"click_time":1552055155966,"finger_time":1552055155465,"fix_duration":250,"trial":8,"RT":787,"MT":501,"sideResp":2,"stimulus":"img/900/equaldotsize/R/7_Ratio_900_L_9_R_10.png","xmouse":[793,793,793,793,793,793,793,793,793,793,793,793,793,793,793,793,793,793,793,793,793,793,793,793,793,793,793,793,793,793,793,793,793,793,795,797,805,827,839,857,871,887,931,954,972,985,997,1015,1023,1032,1038,1041,1045,1046,1048,1049,1051,1052,1052,1052,1052,1052,1053,1057,1061],"ymouse":[521,521,521,521,521,521,521,521,521,521,521,521,521,521,521,521,521,521,521,521,521,521,521,521,521,521,521,521,521,521,521,521,521,521,520,517,510,486,470,444,428,410,354,324,300,284,267,238,223,202,186,174,149,134,119,105,93,71,67,66,66,66,65,64,62],"timestamp_mouse":[12,37,48,69,87,108,128,149,168,187,208,227,248,268,289,308,327,348,369,388,408,428,447,469,487,508,529,548,567,590,608,628,648,667,688,707,728,747,768,787,809,827,847,868,888,907,928,948,968,987,1007,1027,1047,1067,1089,1107,1128,1148,1168,1188,1207,1227,1247,1267,1288],"xSR":741.5,"ySR":469.95,"xT1":424.9,"yT1":0,"xT2":1058.1,"yT2":0,"toosoon":0,"cond_shown":"equaldotsize","ratio_trial":900,"smaller_num":"9","larger_num":"10","correct_side":2,"subjID":"SamuelVilla31","gender":"0","age":"9","school":"4"},{"start_time":1552055159096,"click_time":1552055160205,"finger_time":1552055160025,"fix_duration":368.63015167448356,"trial":9,"RT":929,"MT":180,"sideResp":2,"stimulus":"img/900/equaldotsize/R/7_Ratio_900_L_9_R_10.png","xmouse":[796,792,789,789,789,789,789,789,789,789,789,789,789,789,789,789,789,789,789,789,789,789,789,789,789,789,789,789,789,789,789,790,791,791,791,791,792,792,791,788,786,784,784,784,784,784,798,812,845,888,925,972,989,1011,1032,1060],"ymouse":[530,526,523,523,523,523,523,523,523,523,523,523,523,523,523,523,523,523,523,523,523,523,523,523,523,523,523,523,523,523,523,523,522,522,522,522,521,507,496,487,482,479,479,479,479,478,464,451,424,384,347,283,245,184,108,31],"timestamp_mouse":[9,30,49,71,89,110,130,151,171,190,211,230,249,270,289,310,330,349,369,391,410,430,450,470,491,509,529,550,570,590,611,630,649,671,691,709,730,749,769,790,810,829,849,870,891,911,929,949,969,990,1010,1030,1049,1070,1089,1109],"xSR":741.5,"ySR":469.95,"xT1":424.9,"yT1":0,"xT2":1058.1,"yT2":0,"toosoon":0,"cond_shown":"equaldotsize","ratio_trial":900,"smaller_num":"9","larger_num":"10","correct_side":2,"subjID":"SamuelVilla31","gender":"0","age":"9","school":"4"},{"start_time":1552055161578,"click_time":1552055162666,"finger_time":1552055162326,"fix_duration":250,"trial":10,"RT":748,"MT":340,"sideResp":2,"stimulus":"img/750/randomdotsizeEA/R/2_Ratio_750_L_6_R_8.png","xmouse":[782,782,782,782,782,782,782,782,782,782,782,782,782,782,782,782,782,782,782,782,782,782,782,782,782,782,782,782,782,782,782,782,782,790,802,814,829,845,885,906,926,936,948,969,981,994,1009,1025,1051,1065,1074,1084,1095,1115,1122],"ymouse":[508,508,508,508,508,508,508,508,508,508,508,508,508,508,508,508,508,508,508,508,508,508,508,508,508,508,508,508,508,508,508,508,509,510,510,510,506,498,470,454,434,421,405,372,353,336,313,289,245,221,204,181,155,107,93],"timestamp_mouse":[19,28,48,68,89,109,128,147,167,187,207,229,249,269,289,308,328,347,367,387,409,427,449,467,489,509,528,548,567,589,608,628,648,668,687,708,728,748,768,788,807,828,847,867,888,908,927,947,967,987,1007,1027,1047,1067,1088],"xSR":741.5,"ySR":469.95,"xT1":424.9,"yT1":0,"xT2":1058.1,"yT2":0,"toosoon":0,"cond_shown":"randomdotsizeEA","ratio_trial":750,"smaller_num":"6","larger_num":"8","correct_side":2,"subjID":"SamuelVilla31","gender":"0","age":"9","school":"4"},{"start_time":1552055165190,"click_time":1552055166446,"finger_time":1552055166085,"fix_duration":1363.3428403009864,"trial":11,"RT":895,"MT":361,"sideResp":2,"stimulus":"img/500/equaldotsize/R/15_Ratio_500_L_1_R_2.png","xmouse":[782,782,782,782,782,782,782,782,782,782,782,782,782,782,782,782,782,782,782,782,782,782,782,783,783,783,783,783,783,783,783,783,783,783,783,783,783,783,783,783,785,788,801,815,833,861,904,990,1006,1016,1021,1025,1034,1037,1041,1045,1049,1065,1070,1073,1077,1082,1091],"ymouse":[505,506,506,506,506,506,506,506,506,506,506,506,506,506,506,506,506,506,506,506,506,506,507,507,507,507,507,507,507,507,507,507,507,507,507,507,507,507,507,507,507,505,489,474,458,433,396,322,303,287,274,263,245,239,230,220,207,156,140,127,117,105,86],"timestamp_mouse":[16,35,56,77,97,117,136,155,176,196,217,236,256,276,297,316,335,356,377,396,416,436,456,476,496,517,535,555,576,597,617,637,656,676,695,716,737,756,776,796,815,835,856,875,895,915,936,956,976,995,1016,1037,1055,1075,1096,1115,1136,1157,1175,1195,1215,1235,1256],"xSR":741.5,"ySR":469.95,"xT1":424.9,"yT1":0,"xT2":1058.1,"yT2":0,"toosoon":0,"cond_shown":"equaldotsize","ratio_trial":500,"smaller_num":"1","larger_num":"2","correct_side":2,"subjID":"SamuelVilla31","gender":"0","age":"9","school":"4"},{"start_time":1552055168789,"click_time":1552055170926,"finger_time":1552055170225,"fix_duration":1341.7173247253452,"trial":12,"RT":1436,"MT":701,"sideResp":2,"stimulus":"img/900/randomdotsizeEA/R/5_Ratio_900_L_9_R_10.png","xmouse":[797,797,796,795,795,795,795,795,795,795,795,795,795,795,795,795,795,795,795,795,795,795,795,795,795,795,795,795,795,795,795,795,795,795,795,795,795,795,795,795,795,795,795,795,795,795,795,795,795,795,795,795,795,795,795,795,795,795,795,795,795,795,795,795,795,795,796,804,813,820,830,842,853,871,880,896,920,920,939,945,952,957,961,965,967,971,977,987,992,998,1003,1010,1016,1028,1033,1036,1039,1042,1044,1046,1046,1046,1046,1047,1050,1057,1064],"ymouse":[514,514,514,514,514,514,514,514,514,514,514,514,514,514,514,514,514,514,514,514,514,514,514,514,514,514,514,514,514,514,514,514,514,514,514,514,514,514,514,514,514,514,514,514,514,514,514,514,514,514,514,514,514,514,514,514,514,514,514,514,514,514,513,513,513,513,512,506,498,490,478,464,452,427,415,389,337,337,291,275,260,243,224,195,181,170,151,130,122,114,107,98,88,76,71,69,67,66,65,64,64,64,64,64,64,63,62],"timestamp_mouse":[16,38,57,76,97,118,138,157,176,197,218,238,257,276,297,317,338,357,377,398,418,437,458,478,497,518,538,557,576,596,617,637,658,678,697,718,737,756,777,796,817,838,857,878,898,917,936,956,976,997,1018,1037,1058,1076,1098,1118,1136,1158,1177,1197,1218,1238,1258,1277,1297,1318,1337,1358,1376,1396,1417,1436,1458,1476,1497,1517,1545,1556,1576,1596,1616,1636,1656,1677,1696,1716,1738,1758,1776,1796,1818,1837,1859,1876,1896,1916,1938,1958,1976,1996,2016,2038,2058,2077,2097,2116,2137],"xSR":741.5,"ySR":469.95,"xT1":424.9,"yT1":0,"xT2":1058.1,"yT2":0,"toosoon":0,"cond_shown":"randomdotsizeEA","ratio_trial":900,"smaller_num":"9","larger_num":"10","correct_side":2,"subjID":"SamuelVilla31","gender":"0","age":"9","school":"4"},{"start_time":1552055173226,"click_time":1552055174806,"finger_time":1552055174205,"fix_duration":999.5038482151866,"trial":13,"RT":979,"MT":601,"sideResp":1,"stimulus":"img/900/equaldotsize/L/1_Ratio_900_L_10_R_9.png","xmouse":[788,788,788,788,788,788,788,788,788,788,788,788,788,788,788,788,788,788,788,788,788,788,788,788,788,788,788,788,788,788,788,788,788,788,788,788,788,788,788,788,791,793,796,796,797,797,797,797,795,789,780,767,739,718,706,696,687,676,671,664,657,648,633,621,614,603,593,570,558,552,550,549,549,549,549,548,548,543,535,520],"ymouse":[514,514,514,514,514,514,514,514,514,514,514,514,514,514,514,514,514,514,514,514,514,514,514,514,514,514,514,514,514,514,514,514,514,514,514,514,514,514,513,510,507,503,499,496,495,493,491,482,471,449,420,390,336,306,288,275,265,254,250,244,237,225,205,188,179,167,152,122,108,101,99,98,98,98,98,98,98,97,94,89],"timestamp_mouse":[1,20,40,60,80,100,119,139,161,181,199,219,240,261,279,301,320,341,360,379,401,421,441,460,479,500,519,540,561,581,600,620,640,660,680,700,721,739,760,781,799,820,840,859,880,899,919,940,959,979,999,1020,1039,1061,1080,1099,1119,1140,1161,1179,1199,1220,1239,1259,1279,1301,1321,1341,1359,1379,1400,1420,1440,1460,1480,1501,1521,1540,1560,1579],"xSR":741.5,"ySR":469.95,"xT1":424.9,"yT1":0,"xT2":1058.1,"yT2":0,"toosoon":0,"cond_shown":"equaldotsize","ratio_trial":900,"smaller_num":"9","larger_num":"10","correct_side":1,"subjID":"SamuelVilla31","gender":"0","age":"9","school":"4"},{"start_time":1552055176398,"click_time":1552055177707,"finger_time":1552055177126,"fix_duration":630.5691268943306,"trial":14,"RT":728,"MT":581,"sideResp":2,"stimulus":"img/750/equaldotsize/R/5_Ratio_750_L_15_R_20.png","xmouse":[792,792,792,792,792,792,792,792,792,792,792,792,792,792,792,792,792,792,792,791,791,791,791,791,791,791,791,791,791,791,791,791,791,794,806,820,848,884,919,972,979,982,985,990,992,997,1001,1006,1012,1014,1015,1017,1018,1020,1028,1034,1039,1046,1055,1058,1058,1058,1058,1058,1058,1059],"ymouse":[514,514,514,514,514,514,514,514,514,514,514,514,514,514,514,514,514,514,514,514,514,514,514,514,514,514,514,514,514,514,514,514,514,512,495,475,435,367,293,160,128,106,91,78,73,66,59,53,47,45,45,45,45,45,45,45,45,49,58,61,62,62,62,62,62,63],"timestamp_mouse":[12,37,49,67,89,108,127,148,168,188,208,228,249,268,288,307,329,349,368,388,407,427,449,468,487,507,528,549,568,589,607,629,649,668,688,708,728,748,768,788,807,827,849,868,888,907,928,947,969,988,1009,1029,1048,1067,1088,1107,1127,1147,1168,1187,1207,1228,1248,1268,1288,1309],"xSR":741.5,"ySR":469.95,"xT1":424.9,"yT1":0,"xT2":1058.1,"yT2":0,"toosoon":0,"cond_shown":"equaldotsize","ratio_trial":750,"smaller_num":"15","larger_num":"20","correct_side":2,"subjID":"SamuelVilla31","gender":"0","age":"9","school":"4"},{"start_time":1552055180033,"click_time":1552055181206,"finger_time":1552055180885,"fix_duration":986.2860581036936,"trial":15,"RT":852,"MT":321,"sideResp":1,"stimulus":"img/900/randomdotsizeEA/R/9_Ratio_900_L_18_R_20.png","xmouse":[798,798,798,798,798,799,799,799,799,799,799,799,799,799,799,799,799,799,799,799,799,799,799,799,799,799,799,799,799,799,799,799,799,799,799,799,799,799,800,806,815,819,824,824,823,821,817,796,776,753,716,690,632,605,573,543,509,460,428],"ymouse":[510,510,510,510,510,510,511,511,511,511,511,511,511,511,511,511,511,511,511,511,511,511,511,511,511,511,511,511,511,511,511,511,511,511,511,511,511,511,511,508,498,486,458,448,438,429,420,389,367,345,313,293,249,224,196,169,143,105,78],"timestamp_mouse":[13,38,53,72,93,114,132,154,174,192,212,234,254,273,294,314,333,354,374,393,413,432,454,474,493,512,533,553,573,594,614,633,653,673,694,714,734,753,774,793,813,834,852,872,893,912,933,953,973,993,1012,1033,1052,1072,1093,1112,1132,1152,1172],"xSR":741.5,"ySR":469.95,"xT1":424.9,"yT1":0,"xT2":1058.1,"yT2":0,"toosoon":0,"cond_shown":"randomdotsizeEA","ratio_trial":900,"smaller_num":"18","larger_num":"20","correct_side":2,"subjID":"SamuelVilla31","gender":"0","age":"9","school":"4"},{"start_time":1552055184939,"click_time":1552055186106,"finger_time":1552055185607,"fix_duration":1031.4226768024096,"trial":16,"RT":668,"MT":499,"sideResp":2,"stimulus":"img/900/randomdotsizeEA/L/1_Ratio_900_L_10_R_9.png","xmouse":[804,804,804,799,798,797,797,797,797,797,797,797,797,797,797,797,796,794,790,789,789,789,788,788,789,789,789,789,789,789,790,791,823,861,914,981,1056,1214,1214,1214,1214,1214,1214,1214,1214,1214,1214,1214,1214,1214,1214,1214,1214,1214,1214,1214,1214,1214,1147],"ymouse":[520,520,520,518,518,517,517,517,517,517,517,517,517,517,517,517,517,517,516,516,516,516,515,515,514,514,514,514,514,514,512,512,500,476,435,366,270,22,22,22,22,22,22,22,22,22,22,22,22,22,22,22,22,22,22,22,22,22,3],"timestamp_mouse":[9,36,47,67,88,107,128,147,167,187,208,227,247,266,288,307,326,347,367,388,406,426,447,467,486,508,526,547,566,588,608,626,647,668,687,707,726,748,768,787,806,826,848,867,888,908,926,947,967,986,1007,1026,1048,1067,1086,1107,1127,1148,1167],"xSR":741.5,"ySR":469.95,"xT1":424.9,"yT1":0,"xT2":1058.1,"yT2":0,"toosoon":0,"cond_shown":"randomdotsizeEA","ratio_trial":900,"smaller_num":"9","larger_num":"10","correct_side":1,"subjID":"SamuelVilla31","gender":"0","age":"9","school":"4"},{"start_time":1552055188240,"click_time":1552055189287,"finger_time":1552055188906,"fix_duration":872.8377640462343,"trial":17,"RT":666,"MT":381,"sideResp":2,"stimulus":"img/250/equaldotsize/R/10_Ratio_250_L_4_R_16.png","xmouse":[794,794,794,794,794,794,794,794,794,794,794,794,794,794,794,794,794,794,794,794,794,794,794,794,794,794,794,794,794,794,794,794,797,847,927,952,1007,1031,1089,1118,1140,1152,1159,1162,1163,1167,1170,1171,1171,1171,1171,1169,1155],"ymouse":[517,517,517,517,517,516,514,514,514,514,514,514,514,514,514,514,514,514,514,514,514,514,514,514,514,514,514,514,514,514,514,511,501,439,337,306,246,222,168,138,113,102,97,95,94,89,84,82,80,80,80,78,76],"timestamp_mouse":[12,37,47,66,86,105,127,146,166,187,206,226,246,266,285,306,327,346,367,387,405,426,446,467,485,505,526,546,567,587,606,626,645,666,687,705,725,746,766,785,805,825,846,865,886,905,925,946,966,987,1006,1026,1046],"xSR":741.5,"ySR":469.95,"xT1":424.9,"yT1":0,"xT2":1058.1,"yT2":0,"toosoon":0,"cond_shown":"equaldotsize","ratio_trial":250,"smaller_num":"4","larger_num":"16","correct_side":2,"subjID":"SamuelVilla31","gender":"0","age":"9","school":"4"},{"start_time":1552055193561,"click_time":1552055194687,"finger_time":1552055194306,"fix_duration":1414.3145017606573,"trial":18,"RT":745,"MT":381,"sideResp":1,"stimulus":"img/250/equaldotanddens/L/2_Ratio_250_L_16_R_4.png","xmouse":[784,783,783,783,783,783,783,783,783,783,783,783,783,783,783,783,783,783,783,783,783,784,784,784,784,784,784,784,784,784,784,784,784,793,800,821,828,834,834,832,827,819,794,771,746,705,691,642,618,595,585,571,565,542,532,522,513],"ymouse":[514,514,514,514,514,514,514,514,514,514,514,514,514,514,514,514,514,514,514,514,514,514,514,514,514,514,514,514,514,514,514,514,514,512,505,484,475,446,438,431,423,414,396,380,362,329,319,276,258,241,230,216,205,162,138,117,90],"timestamp_mouse":[5,33,45,64,84,106,126,144,164,185,206,226,245,265,284,304,324,345,365,385,405,425,445,464,485,504,525,544,565,585,604,624,645,665,685,704,726,745,764,785,805,824,846,865,884,904,926,945,964,984,1004,1024,1045,1065,1085,1106,1126],"xSR":741.5,"ySR":469.95,"xT1":424.9,"yT1":0,"xT2":1058.1,"yT2":0,"toosoon":0,"cond_shown":"equaldotanddens","ratio_trial":250,"smaller_num":"4","larger_num":"16","correct_side":1,"subjID":"SamuelVilla31","gender":"0","age":"9","school":"4"},{"start_time":1552055197988,"click_time":1552055198986,"finger_time":1552055198665,"fix_duration":1060.7437156148949,"trial":19,"RT":677,"MT":321,"sideResp":2,"stimulus":"img/500/equaldotsize/R/14_Ratio_500_L_5_R_10.png","xmouse":[787,787,787,787,787,787,787,787,787,787,787,787,787,787,787,787,787,787,787,787,787,787,787,787,787,787,787,787,789,792,799,821,838,847,851,859,877,887,901,915,926,944,951,958,966,977,1015,1038,1053,1061],"ymouse":[519,519,519,519,519,519,519,519,519,519,519,519,519,519,519,519,519,519,519,519,519,519,519,519,519,519,519,519,519,519,519,505,471,435,419,392,321,297,277,257,239,198,185,170,158,145,113,98,87,81],"timestamp_mouse":[18,40,58,78,99,117,138,158,179,198,218,239,258,277,298,317,339,358,378,397,419,439,458,478,497,519,538,558,577,598,618,637,657,677,697,717,737,758,777,797,818,838,858,877,898,918,937,959,979,998],"xSR":741.5,"ySR":469.95,"xT1":424.9,"yT1":0,"xT2":1058.1,"yT2":0,"toosoon":0,"cond_shown":"equaldotsize","ratio_trial":500,"smaller_num":"5","larger_num":"10","correct_side":2,"subjID":"SamuelVilla31","gender":"0","age":"9","school":"4"},{"start_time":1552055200755,"click_time":1552055201745,"finger_time":1552055201505,"fix_duration":845.1441381747646,"trial":20,"RT":750,"MT":240,"sideResp":1,"stimulus":"img/750/randomdotsizeEA/L/9_Ratio_750_L_4_R_3.png","xmouse":[797,797,797,797,797,797,797,797,797,797,797,797,797,797,797,797,797,797,797,797,797,797,797,797,797,797,797,797,797,797,797,797,797,796,787,780,771,758,715,691,670,647,620,514,482,463,454,451,450,454],"ymouse":[513,513,513,513,513,513,513,513,513,513,513,513,513,513,513,513,513,513,513,513,513,513,513,513,513,513,513,513,513,513,513,513,513,514,501,489,473,456,412,392,375,358,335,247,200,159,136,122,105,92],"timestamp_mouse":[13,35,51,71,91,110,131,152,171,190,212,231,252,270,291,311,331,350,370,392,412,431,450,470,492,512,532,550,570,592,612,632,651,671,691,710,731,750,771,790,811,832,852,870,891,911,930,950,971,990],"xSR":741.5,"ySR":469.95,"xT1":424.9,"yT1":0,"xT2":1058.1,"yT2":0,"toosoon":0,"cond_shown":"randomdotsizeEA","ratio_trial":750,"smaller_num":"3","larger_num":"4","correct_side":1,"subjID":"SamuelVilla31","gender":"0","age":"9","school":"4"},{"start_time":1552055203078,"click_time":1552055204126,"finger_time":1552055203747,"fix_duration":250,"trial":21,"RT":669,"MT":379,"sideResp":2,"stimulus":"img/250/randomdotsizeEA/R/11_Ratio_250_L_3_R_12.png","xmouse":[798,793,793,792,792,792,792,792,792,792,792,792,792,792,792,792,792,792,792,791,792,792,792,792,792,792,792,792,792,792,794,796,824,851,878,926,950,983,994,1001,1008,1018,1028,1046,1054,1059,1066,1075,1080,1087,1094,1100,1121],"ymouse":[526,526,526,526,526,526,526,526,526,526,526,526,526,526,526,526,526,526,526,526,524,523,523,523,523,523,523,523,523,523,522,521,510,500,489,461,440,405,387,371,356,334,309,257,237,223,201,173,156,139,125,114,79],"timestamp_mouse":[10,37,48,68,87,108,128,147,168,187,207,227,247,267,287,308,327,350,369,388,407,429,448,469,489,507,529,548,567,589,608,627,649,669,687,707,728,748,767,788,807,827,849,867,887,908,927,949,967,989,1009,1029,1048],"xSR":741.5,"ySR":469.95,"xT1":424.9,"yT1":0,"xT2":1058.1,"yT2":0,"toosoon":0,"cond_shown":"randomdotsizeEA","ratio_trial":250,"smaller_num":"3","larger_num":"12","correct_side":2,"subjID":"SamuelVilla31","gender":"0","age":"9","school":"4"},{"start_time":1552055205586,"click_time":1552055207346,"finger_time":1552055206447,"fix_duration":618.3087030757786,"trial":22,"RT":861,"MT":899,"sideResp":2,"stimulus":"img/900/equaldotanddens/R/14_Ratio_900_L_18_R_20.png","xmouse":[785,785,785,785,785,785,785,785,785,785,785,784,783,783,783,783,783,783,783,783,783,783,783,783,783,783,783,783,783,783,784,787,788,790,790,790,790,790,790,790,785,774,759,722,698,677,660,635,630,625,621,619,619,618,617,617,617,617,617,635,730,813,968,1012,1028,1035,1042,1048,1065,1078,1104,1124,1144,1167,1170,1172,1173,1175,1175,1175,1175,1175,1175,1173,1172,1170,1170,1167,1158],"ymouse":[526,526,526,526,526,526,526,526,526,526,525,525,523,523,522,522,522,522,522,522,522,522,522,522,522,522,522,522,522,521,517,512,509,505,505,505,505,505,505,503,499,491,477,422,393,369,349,322,316,310,305,303,301,295,294,293,293,293,293,308,371,421,510,523,524,518,504,491,460,441,405,370,327,257,234,219,207,195,173,157,146,135,125,108,103,98,96,93,85],"timestamp_mouse":[1,19,41,59,80,100,121,141,160,179,199,219,241,261,280,300,320,340,361,380,400,420,439,461,480,500,520,541,560,579,599,620,640,660,680,700,719,741,760,781,799,819,839,861,880,900,921,942,960,979,1001,1020,1040,1060,1080,1101,1120,1140,1159,1180,1199,1219,1242,1260,1279,1300,1320,1340,1359,1379,1400,1421,1440,1459,1480,1500,1520,1540,1559,1579,1599,1621,1641,1660,1680,1700,1721,1740,1760],"xSR":741.5,"ySR":469.95,"xT1":424.9,"yT1":0,"xT2":1058.1,"yT2":0,"toosoon":0,"cond_shown":"equaldotanddens","ratio_trial":900,"smaller_num":"18","larger_num":"20","correct_side":2,"subjID":"SamuelVilla31","gender":"0","age":"9","school":"4"},{"start_time":1552055208737,"click_time":1552055209946,"finger_time":1552055209446,"fix_duration":250,"trial":23,"RT":709,"MT":500,"sideResp":2,"stimulus":"img/750/equaldotanddens/R/12_Ratio_750_L_3_R_4.png","xmouse":[777,777,777,777,777,777,777,777,777,777,777,777,777,777,777,777,777,779,781,782,786,791,792,792,792,792,792,792,792,792,792,792,799,805,828,890,913,925,934,945,962,971,975,977,979,981,981,982,986,994,1014,1025,1030,1034,1038,1048,1052,1054,1055,1056,1059],"ymouse":[508,508,508,508,508,508,508,508,508,508,508,508,508,508,508,508,508,509,509,510,510,510,511,511,511,511,511,511,511,511,511,511,506,500,471,360,306,269,232,194,137,102,87,78,74,69,69,68,66,65,62,61,61,61,61,62,62,62,62,62,62],"timestamp_mouse":[12,41,49,69,90,110,128,150,170,189,208,228,248,269,290,309,328,350,369,389,408,428,450,470,488,508,530,548,568,590,609,629,649,670,690,709,728,748,770,790,808,829,849,870,890,909,929,949,970,989,1009,1029,1048,1070,1088,1109,1128,1150,1168,1188,1209],"xSR":741.5,"ySR":469.95,"xT1":424.9,"yT1":0,"xT2":1058.1,"yT2":0,"toosoon":0,"cond_shown":"equaldotanddens","ratio_trial":750,"smaller_num":"3","larger_num":"4","correct_side":2,"subjID":"SamuelVilla31","gender":"0","age":"9","school":"4"},{"start_time":1552055211157,"click_time":1552055212505,"finger_time":1552055211887,"fix_duration":250,"trial":24,"RT":730,"MT":618,"sideResp":1,"stimulus":"img/500/randomdotsizeEA/L/10_Ratio_500_L_4_R_2.png","xmouse":[796,795,795,789,785,785,785,785,785,785,785,785,785,785,785,785,785,785,785,785,785,785,785,785,785,785,785,785,785,785,785,785,785,783,776,764,744,721,689,657,648,639,633,626,621,600,591,579,565,559,553,549,541,528,499,495,495,495,495,495,495,495,495,495,495,495,495,495],"ymouse":[519,519,519,520,520,520,520,520,520,520,520,520,520,520,520,520,520,520,520,520,520,520,520,520,520,520,520,520,520,520,520,520,520,520,508,486,450,405,345,291,273,259,247,235,222,185,168,151,134,130,129,129,126,120,103,100,100,100,100,100,100,100,100,100,100,100,100,95],"timestamp_mouse":[15,40,49,69,89,109,129,148,170,189,210,229,249,268,288,309,330,349,369,389,410,429,448,470,489,509,530,549,568,589,608,630,650,669,689,708,730,750,770,790,809,828,849,869,890,909,929,949,968,988,1010,1029,1049,1070,1090,1109,1129,1149,1169,1190,1210,1228,1248,1268,1289,1310,1328,1348],"xSR":741.5,"ySR":469.95,"xT1":424.9,"yT1":0,"xT2":1058.1,"yT2":0,"toosoon":0,"cond_shown":"randomdotsizeEA","ratio_trial":500,"smaller_num":"2","larger_num":"4","correct_side":1,"subjID":"SamuelVilla31","gender":"0","age":"9","school":"4"},{"start_time":1552055213556,"click_time":1552055214646,"finger_time":1552055214247,"fix_duration":250,"trial":25,"RT":691,"MT":399,"sideResp":2,"stimulus":"img/500/equaldotsize/R/1_Ratio_500_L_9_R_18.png","xmouse":[796,796,796,796,796,796,796,796,796,796,795,794,793,790,790,789,788,787,787,786,784,783,782,782,782,782,782,782,782,782,781,782,804,855,959,981,988,997,1012,1019,1024,1027,1031,1036,1043,1046,1053,1064,1081,1086,1090,1093,1097,1111],"ymouse":[516,516,516,516,516,516,516,516,516,516,516,516,516,516,516,516,516,516,516,516,516,516,516,516,516,516,516,516,516,516,516,512,492,442,312,272,253,228,199,188,181,178,174,170,164,163,160,154,138,131,124,119,110,89],"timestamp_mouse":[30,50,69,89,111,131,150,169,191,210,230,250,269,291,310,330,350,370,391,409,431,451,469,490,510,530,550,571,590,609,629,649,669,691,710,731,750,770,791,809,830,850,871,890,910,930,949,969,991,1010,1029,1051,1070,1090],"xSR":741.5,"ySR":469.95,"xT1":424.9,"yT1":0,"xT2":1058.1,"yT2":0,"toosoon":0,"cond_shown":"equaldotsize","ratio_trial":500,"smaller_num":"9","larger_num":"18","correct_side":2,"subjID":"SamuelVilla31","gender":"0","age":"9","school":"4"},{"start_time":1552055215899,"click_time":1552055216985,"finger_time":1552055216665,"fix_duration":250,"trial":26,"RT":766,"MT":320,"sideResp":1,"stimulus":"img/500/equaldotanddens/L/10_Ratio_500_L_4_R_2.png","xmouse":[792,792,792,792,792,792,792,792,792,792,792,791,790,788,787,787,786,786,786,786,786,786,786,786,786,786,786,786,786,786,786,786,786,786,786,786,776,771,724,695,670,645,619,581,567,555,542,532,515,506,499,493,488,481,474],"ymouse":[518,518,518,518,518,518,518,518,518,518,518,519,520,520,520,520,520,520,520,520,520,520,520,520,520,520,520,520,520,520,520,520,520,520,520,520,514,509,452,417,379,343,300,243,225,212,203,195,184,175,168,160,149,126,94],"timestamp_mouse":[20,30,47,68,87,107,127,148,167,187,207,227,247,266,287,306,327,347,368,386,406,428,447,468,487,507,528,546,567,588,608,628,648,666,687,706,726,748,766,786,806,828,847,867,886,907,927,947,967,987,1007,1027,1047,1067,1086],"xSR":741.5,"ySR":469.95,"xT1":424.9,"yT1":0,"xT2":1058.1,"yT2":0,"toosoon":0,"cond_shown":"equaldotanddens","ratio_trial":500,"smaller_num":"2","larger_num":"4","correct_side":1,"subjID":"SamuelVilla31","gender":"0","age":"9","school":"4"},{"start_time":1552055218178,"click_time":1552055219306,"finger_time":1552055219105,"fix_duration":411.56664284050237,"trial":27,"RT":927,"MT":201,"sideResp":1,"stimulus":"img/750/equaldotanddens/L/14_Ratio_750_L_8_R_6.png","xmouse":[792,792,792,792,792,792,792,792,792,792,792,792,792,792,792,792,792,792,792,792,792,792,792,792,792,792,792,792,792,792,792,792,791,791,791,791,791,791,791,791,791,791,791,791,790,775,754,711,663,577,561,542,527,517,494,481,465],"ymouse":[508,508,508,508,508,508,508,508,508,508,508,508,508,508,508,508,508,508,508,508,508,508,508,508,508,508,508,508,508,508,508,508,509,509,509,509,509,509,509,509,509,509,509,509,509,493,461,401,333,233,214,198,187,177,131,104,78],"timestamp_mouse":[13,39,48,68,89,108,127,148,167,187,207,229,249,269,288,307,329,348,368,388,408,428,447,469,488,508,529,548,567,588,608,628,647,668,688,708,727,748,769,787,809,828,848,867,888,909,927,947,969,987,1007,1027,1048,1068,1087,1107,1128],"xSR":741.5,"ySR":469.95,"xT1":424.9,"yT1":0,"xT2":1058.1,"yT2":0,"toosoon":0,"cond_shown":"equaldotanddens","ratio_trial":750,"smaller_num":"6","larger_num":"8","correct_side":1,"subjID":"SamuelVilla31","gender":"0","age":"9","school":"4"},{"start_time":1552055220801,"click_time":1552055221667,"finger_time":1552055221566,"fix_duration":571.0915137432484,"trial":28,"RT":765,"MT":101,"sideResp":1,"stimulus":"img/750/randomdotsizeEA/L/1_Ratio_750_L_20_R_15.png","xmouse":[793,793,793,793,793,793,793,793,793,793,793,793,793,793,793,793,793,794,795,797,797,797,797,797,797,797,797,797,797,797,797,797,797,797,797,792,775,767,701,657,616,578,546,495],"ymouse":[510,510,510,510,510,510,510,510,510,510,510,510,510,510,510,510,510,510,510,510,510,510,510,510,510,510,510,510,510,510,510,510,510,510,510,503,486,476,374,307,240,176,122,8],"timestamp_mouse":[12,36,44,65,86,104,125,145,164,186,206,224,246,265,285,305,324,345,365,384,404,425,446,465,486,505,524,545,565,586,604,626,646,664,685,706,725,745,765,784,804,825,845,865],"xSR":741.5,"ySR":469.95,"xT1":424.9,"yT1":0,"xT2":1058.1,"yT2":0,"toosoon":0,"cond_shown":"randomdotsizeEA","ratio_trial":750,"smaller_num":"15","larger_num":"20","correct_side":1,"subjID":"SamuelVilla31","gender":"0","age":"9","school":"4"},{"start_time":1552055223417,"click_time":1552055224347,"finger_time":1552055224025,"fix_duration":250,"trial":29,"RT":608,"MT":322,"sideResp":2,"stimulus":"img/250/equaldotanddens/R/9_Ratio_250_L_3_R_12.png","xmouse":[794,794,794,795,795,795,795,795,795,795,795,795,795,795,795,795,795,795,795,795,795,795,795,795,795,795,795,795,807,834,864,894,932,958,963,967,970,978,1004,1012,1018,1021,1025,1041,1055,1066,1079],"ymouse":[495,498,502,503,503,503,503,503,503,503,503,503,503,503,503,503,503,503,503,503,503,503,503,503,503,503,503,504,502,482,455,414,357,301,290,279,269,256,204,185,171,162,153,130,116,102,89],"timestamp_mouse":[14,41,49,69,89,110,130,149,168,189,210,229,249,269,290,310,329,348,369,388,409,428,448,469,490,508,529,548,569,589,608,628,648,668,689,709,729,748,768,788,809,828,848,868,888,908,930],"xSR":741.5,"ySR":469.95,"xT1":424.9,"yT1":0,"xT2":1058.1,"yT2":0,"toosoon":0,"cond_shown":"equaldotanddens","ratio_trial":250,"smaller_num":"3","larger_num":"12","correct_side":2,"subjID":"SamuelVilla31","gender":"0","age":"9","school":"4"},{"start_time":1552055225538,"click_time":1552055226505,"finger_time":1552055226185,"fix_duration":250,"trial":30,"RT":647,"MT":320,"sideResp":1,"stimulus":"img/250/equaldotsize/L/14_Ratio_250_L_12_R_3.png","xmouse":[797,797,797,797,797,797,797,797,797,797,797,797,797,797,797,797,797,797,797,797,797,797,796,795,795,795,795,795,795,795,791,787,739,708,675,646,630,614,613,613,613,611,603,590,578,565,552,525,514],"ymouse":[520,520,520,520,520,520,520,520,520,520,519,519,519,519,519,519,520,520,521,522,522,522,524,524,524,524,524,524,524,524,520,511,413,350,301,264,242,229,228,228,228,226,213,189,171,154,137,97,80],"timestamp_mouse":[12,34,48,67,88,108,128,147,167,188,208,227,247,267,289,309,327,347,367,388,407,428,448,468,487,507,527,548,567,588,607,627,647,668,687,708,728,747,768,788,807,829,848,868,887,907,929,948,967],"xSR":741.5,"ySR":469.95,"xT1":424.9,"yT1":0,"xT2":1058.1,"yT2":0,"toosoon":0,"cond_shown":"equaldotsize","ratio_trial":250,"smaller_num":"3","larger_num":"12","correct_side":1,"subjID":"SamuelVilla31","gender":"0","age":"9","school":"4"},{"start_time":1552055227719,"click_time":1552055228705,"finger_time":1552055228225,"fix_duration":531.2909412942543,"trial":31,"RT":506,"MT":480,"sideResp":2,"stimulus":"img/250/equaldotanddens/R/10_Ratio_250_L_4_R_16.png","xmouse":[784,784,784,784,784,784,784,784,784,784,784,784,784,784,784,784,784,784,784,784,784,784,786,809,826,860,889,911,942,956,966,974,980,991,995,997,997,997,998,999,1000,1002,1003,1009,1015,1021,1029,1040,1048,1080],"ymouse":[511,511,511,511,511,511,511,511,511,511,511,511,511,511,511,511,511,511,511,511,511,511,511,502,489,459,415,376,307,268,235,208,189,146,134,126,122,121,120,118,118,116,115,112,110,107,102,95,90,71],"timestamp_mouse":[19,45,46,67,86,107,127,146,167,186,208,227,247,266,287,306,327,348,366,387,406,426,447,466,487,506,528,546,566,586,606,626,647,666,686,708,728,747,767,786,806,826,846,866,886,906,926,946,967,986],"xSR":741.5,"ySR":469.95,"xT1":424.9,"yT1":0,"xT2":1058.1,"yT2":0,"toosoon":0,"cond_shown":"equaldotanddens","ratio_trial":250,"smaller_num":"4","larger_num":"16","correct_side":2,"subjID":"SamuelVilla31","gender":"0","age":"9","school":"4"},{"start_time":1552055230598,"click_time":1552055231787,"finger_time":1552055231505,"fix_duration":1269.935953351324,"trial":32,"RT":907,"MT":282,"sideResp":1,"stimulus":"img/500/randomdotsizeEA/R/1_Ratio_500_L_9_R_18.png","xmouse":[803,803,803,803,801,800,800,799,799,799,799,799,799,799,799,799,799,799,799,799,799,799,799,799,799,799,799,799,799,799,799,799,799,799,799,799,799,799,799,799,799,798,797,791,781,753,737,705,688,661,653,648,643,637,631,615,601,592,563,516],"ymouse":[515,515,515,515,514,514,514,514,514,514,514,514,514,514,514,514,514,514,514,514,514,514,514,514,514,514,514,514,514,514,514,514,514,514,514,514,514,514,514,514,514,514,512,500,481,411,354,277,237,191,180,173,168,162,155,139,125,119,93,51],"timestamp_mouse":[13,37,47,67,88,107,127,148,168,188,207,227,248,267,289,308,328,347,369,389,408,428,449,467,488,507,529,547,567,587,608,628,649,667,688,708,727,748,769,788,808,827,849,867,888,907,927,947,968,989,1007,1028,1047,1067,1088,1107,1127,1148,1167,1189],"xSR":741.5,"ySR":469.95,"xT1":424.9,"yT1":0,"xT2":1058.1,"yT2":0,"toosoon":0,"cond_shown":"randomdotsizeEA","ratio_trial":500,"smaller_num":"9","larger_num":"18","correct_side":2,"subjID":"SamuelVilla31","gender":"0","age":"9","school":"4"},{"start_time":1552055233870,"click_time":1552055234725,"finger_time":1552055234366,"fix_duration":983.7781456012722,"trial":33,"RT":496,"MT":359,"sideResp":1,"stimulus":"img/250/randomdotsizeEA/L/2_Ratio_250_L_16_R_4.png","xmouse":[801,801,799,797,795,791,786,786,786,786,786,786,786,786,786,786,786,786,786,786,785,786,789,789,789,790,790,790,790,790,790,790,790,790,783,764,703,666,626,593,564,529,516],"ymouse":[500,500,500,500,501,501,501,501,501,501,501,501,501,501,501,501,501,501,501,501,501,493,474,470,467,466,466,466,466,466,466,466,466,462,443,407,298,234,165,107,63,18,5],"timestamp_mouse":[17,39,56,76,96,115,136,156,176,195,216,237,256,276,295,316,336,357,375,397,416,436,456,475,496,515,535,556,575,595,615,635,656,675,696,716,736,756,776,795,816,835,855],"xSR":741.5,"ySR":469.95,"xT1":424.9,"yT1":0,"xT2":1058.1,"yT2":0,"toosoon":0,"cond_shown":"randomdotsizeEA","ratio_trial":250,"smaller_num":"4","larger_num":"16","correct_side":1,"subjID":"SamuelVilla31","gender":"0","age":"9","school":"4"},{"start_time":1552055240636,"click_time":1552055241825,"finger_time":1552055241345,"fix_duration":1389.669284593325,"trial":34,"RT":709,"MT":480,"sideResp":1,"stimulus":"img/900/equaldotanddens/R/12_Ratio_900_L_18_R_20.png","xmouse":[787,787,787,787,787,787,787,787,787,787,787,787,787,787,787,787,787,787,787,787,787,787,787,787,787,787,787,787,787,787,787,787,787,785,781,776,772,770,769,769,769,769,769,763,758,752,741,726,710,687,671,662,651,639,607,590,577,561,533,492],"ymouse":[494,494,494,494,494,494,494,494,494,494,494,494,494,494,494,494,494,494,494,494,494,494,494,494,494,494,494,494,494,494,494,494,494,485,476,467,462,458,457,457,457,457,456,441,423,400,371,329,287,235,211,200,192,182,158,144,131,118,103,81],"timestamp_mouse":[13,35,49,69,89,109,129,149,169,190,210,231,249,269,290,310,329,349,369,390,410,429,450,471,490,511,531,550,570,589,611,630,650,671,689,709,730,750,771,789,810,830,850,872,889,909,929,949,970,989,1010,1030,1049,1069,1090,1109,1130,1149,1171,1189],"xSR":741.5,"ySR":469.95,"xT1":424.9,"yT1":0,"xT2":1058.1,"yT2":0,"toosoon":0,"cond_shown":"equaldotanddens","ratio_trial":900,"smaller_num":"18","larger_num":"20","correct_side":2,"subjID":"SamuelVilla31","gender":"0","age":"9","school":"4"},{"start_time":1552055243204,"click_time":1552055244526,"finger_time":1552055243586,"fix_duration":476.94777741970097,"trial":35,"RT":382,"MT":940,"sideResp":2,"stimulus":"img/500/equaldotsize/R/9_Ratio_500_L_2_R_4.png","xmouse":[786,787,788,788,788,788,788,788,788,788,788,788,789,790,791,792,798,804,814,821,831,846,862,871,881,890,910,919,924,928,930,930,930,930,930,929,920,906,891,872,849,794,787,785,785,785,785,786,791,802,830,842,903,919,937,955,987,1004,1018,1025,1031,1041,1045,1049,1054,1057,1062],"ymouse":[518,518,517,517,517,517,517,517,517,517,517,516,516,515,514,512,498,485,470,457,442,421,399,384,366,349,317,304,294,289,285,285,285,285,285,285,286,287,287,284,277,262,260,260,260,260,260,259,259,258,257,256,245,239,221,202,161,142,130,122,114,98,91,85,78,73,68],"timestamp_mouse":[1,21,41,61,82,103,121,142,162,181,202,221,241,265,283,303,321,342,361,382,402,421,442,461,482,501,522,541,562,583,603,621,642,662,681,701,721,741,762,782,802,822,842,862,882,903,922,941,962,982,1002,1021,1041,1062,1081,1101,1122,1142,1162,1183,1203,1221,1243,1262,1282,1303,1321],"xSR":741.5,"ySR":469.95,"xT1":424.9,"yT1":0,"xT2":1058.1,"yT2":0,"toosoon":0,"cond_shown":"equaldotsize","ratio_trial":500,"smaller_num":"2","larger_num":"4","correct_side":2,"subjID":"SamuelVilla31","gender":"0","age":"9","school":"4"},{"start_time":1552055247509,"click_time":1552055249205,"finger_time":1552055248506,"fix_duration":260.32761865649314,"trial":36,"RT":997,"MT":699,"sideResp":1,"stimulus":"img/900/equaldotanddens/L/8_Ratio_900_L_20_R_18.png","xmouse":[792,792,792,792,792,792,792,792,792,792,792,792,792,792,792,792,792,792,792,792,792,792,792,792,792,792,792,792,792,792,792,792,792,792,792,792,792,792,792,792,792,792,792,792,792,792,792,787,783,767,743,666,623,589,557,554,554,554,554,553,551,545,543,543,542,541,538,535,533,532,530,530,530,530,530,530,530,529,528,527,526,526,525,525,523],"ymouse":[508,509,509,509,509,509,509,509,509,509,509,509,509,509,509,509,509,509,509,509,509,509,509,509,509,509,509,509,509,509,509,509,509,509,509,509,509,509,509,509,509,509,509,509,509,509,509,504,493,465,425,303,243,201,169,166,166,166,166,164,157,147,145,145,144,141,132,126,119,117,115,114,114,114,113,113,113,111,109,107,105,104,103,101,98],"timestamp_mouse":[17,37,57,76,96,117,137,156,177,198,218,237,257,277,297,317,336,356,376,397,418,436,456,477,497,517,538,557,576,597,616,638,658,677,697,717,736,758,777,797,816,837,856,876,897,917,938,957,977,997,1016,1036,1056,1077,1098,1116,1136,1156,1178,1198,1216,1236,1257,1276,1297,1316,1336,1356,1377,1398,1418,1438,1458,1477,1497,1517,1537,1556,1577,1597,1618,1636,1656,1677,1696],"xSR":741.5,"ySR":469.95,"xT1":424.9,"yT1":0,"xT2":1058.1,"yT2":0,"toosoon":0,"cond_shown":"equaldotanddens","ratio_trial":900,"smaller_num":"18","larger_num":"20","correct_side":1,"subjID":"SamuelVilla31","gender":"0","age":"9","school":"4"},{"start_time":1552055253174,"click_time":1552055254346,"finger_time":1552055253945,"fix_duration":827.5208102954257,"trial":37,"RT":771,"MT":401,"sideResp":1,"stimulus":"img/750/equaldotanddens/L/14_Ratio_750_L_8_R_6.png","xmouse":[781,781,781,781,781,781,781,781,781,781,781,781,781,781,781,781,781,781,781,781,781,781,781,781,781,781,781,781,781,781,781,781,781,781,781,781,781,780,749,712,666,622,594,554,544,538,534,532,529,528,526,526,526,526,526,526,526,526,524],"ymouse":[511,511,511,511,511,511,511,511,511,511,511,511,511,511,511,511,511,511,511,511,511,511,511,511,511,511,511,511,511,511,511,511,511,511,511,511,511,511,457,400,344,296,261,215,198,183,170,163,142,133,124,121,121,118,114,110,104,99,93],"timestamp_mouse":[18,40,53,71,92,111,132,152,171,191,212,233,252,271,292,313,331,352,371,391,411,432,452,472,491,512,531,551,571,592,612,631,652,671,692,712,732,752,771,793,811,831,851,872,891,912,932,952,971,993,1012,1032,1051,1072,1092,1112,1131,1151,1172],"xSR":741.5,"ySR":469.95,"xT1":424.9,"yT1":0,"xT2":1058.1,"yT2":0,"toosoon":0,"cond_shown":"equaldotanddens","ratio_trial":750,"smaller_num":"6","larger_num":"8","correct_side":1,"subjID":"SamuelVilla31","gender":"0","age":"9","school":"4"},{"start_time":1552055260179,"click_time":1552055261185,"finger_time":1552055260965,"fix_duration":250,"trial":38,"RT":786,"MT":220,"sideResp":2,"stimulus":"img/250/randomdotsizeEA/R/4_Ratio_250_L_3_R_12.png","xmouse":[792,792,792,792,792,792,792,792,792,792,792,792,792,792,792,792,792,792,792,792,792,792,792,792,792,792,792,792,792,792,792,792,792,792,792,792,793,793,793,798,803,807,813,823,855,876,911,959,1012,1112,1151],"ymouse":[514,514,514,514,514,514,514,514,514,514,514,514,514,514,514,514,514,514,514,514,514,514,514,514,514,514,514,514,514,514,514,514,514,514,514,514,515,513,503,460,427,404,387,372,339,320,290,250,209,109,70],"timestamp_mouse":[14,41,48,67,87,107,128,146,166,186,206,226,246,268,286,306,328,348,366,386,408,428,446,466,486,507,526,546,567,586,607,627,647,667,686,707,726,747,767,786,807,827,846,866,887,907,926,948,968,986,1006],"xSR":741.5,"ySR":469.95,"xT1":424.9,"yT1":0,"xT2":1058.1,"yT2":0,"toosoon":0,"cond_shown":"randomdotsizeEA","ratio_trial":250,"smaller_num":"3","larger_num":"12","correct_side":2,"subjID":"SamuelVilla31","gender":"0","age":"9","school":"4"},{"start_time":1552055263599,"click_time":1552055264967,"finger_time":1552055264267,"fix_duration":1232.3717470431413,"trial":39,"RT":668,"MT":700,"sideResp":2,"stimulus":"img/250/equaldotsize/R/11_Ratio_250_L_3_R_12.png","xmouse":[794,794,794,794,794,794,794,794,794,794,794,794,794,794,794,794,794,794,794,794,794,794,794,794,794,794,794,794,794,797,799,814,823,854,903,920,937,950,962,965,969,972,978,982,984,986,991,995,1001,1010,1017,1026,1037,1037,1037,1037,1037,1037,1037,1037,1037,1037,1037,1037,1037,1037,1037,1072,1075],"ymouse":[514,514,514,514,514,514,514,514,514,514,514,514,514,514,514,514,514,514,514,514,514,514,514,514,514,514,514,514,514,514,514,506,499,470,392,358,320,288,245,228,218,208,189,168,152,133,114,98,84,64,53,33,10,10,10,10,10,10,10,10,10,10,10,10,10,10,10,0,7],"timestamp_mouse":[12,36,47,66,88,107,127,149,167,187,207,226,246,267,287,308,326,347,367,386,407,426,448,467,487,506,526,547,567,586,607,626,647,668,686,706,726,747,766,787,807,828,848,867,886,906,928,947,966,986,1007,1027,1048,1068,1087,1107,1127,1146,1168,1187,1208,1228,1247,1267,1288,1307,1327,1348,1367],"xSR":741.5,"ySR":469.95,"xT1":424.9,"yT1":0,"xT2":1058.1,"yT2":0,"toosoon":0,"cond_shown":"equaldotsize","ratio_trial":250,"smaller_num":"3","larger_num":"12","correct_side":2,"subjID":"SamuelVilla31","gender":"0","age":"9","school":"4"},{"start_time":1552055266481,"click_time":1552055267466,"finger_time":1552055267105,"fix_duration":551.3353102656409,"trial":40,"RT":624,"MT":361,"sideResp":1,"stimulus":"img/900/equaldotsize/L/8_Ratio_900_L_20_R_18.png","xmouse":[782,776,776,774,774,774,774,774,774,774,774,774,774,774,774,774,774,774,775,777,779,779,779,779,779,780,780,780,780,780,780,777,772,759,747,734,731,730,730,729,728,722,713,700,683,637,607,569,538,509],"ymouse":[511,508,508,508,508,508,508,508,508,508,508,508,508,508,508,508,508,508,508,508,509,509,509,509,509,509,509,509,509,503,480,455,423,381,347,315,311,310,310,310,310,307,303,295,283,241,209,174,132,98],"timestamp_mouse":[13,38,44,65,85,105,126,145,164,184,205,226,245,264,286,305,325,344,365,386,404,425,444,464,484,504,525,545,564,585,606,624,644,666,685,704,724,745,765,786,804,824,845,865,885,905,924,944,966,985],"xSR":741.5,"ySR":469.95,"xT1":424.9,"yT1":0,"xT2":1058.1,"yT2":0,"toosoon":0,"cond_shown":"equaldotsize","ratio_trial":900,"smaller_num":"18","larger_num":"20","correct_side":1,"subjID":"SamuelVilla31","gender":"0","age":"9","school":"4"},{"start_time":1552055268818,"click_time":1552055269946,"finger_time":1552055269545,"fix_duration":250,"trial":41,"RT":727,"MT":401,"sideResp":2,"stimulus":"img/900/equaldotsize/L/1_Ratio_900_L_10_R_9.png","xmouse":[774,775,775,775,775,775,775,775,775,775,775,775,775,775,775,775,775,776,777,777,777,777,778,778,779,779,780,781,784,787,789,791,794,803,813,827,841,859,894,922,935,945,955,967,975,984,994,1012,1074,1116,1129,1133,1136,1136,1136,1136,1136],"ymouse":[493,495,495,508,510,511,511,511,511,511,511,511,511,511,511,511,512,512,512,512,512,512,511,511,511,511,510,509,505,503,501,500,499,492,484,471,454,432,381,330,302,282,264,251,245,235,224,209,171,143,131,122,114,109,108,103,96],"timestamp_mouse":[19,37,48,67,89,107,127,147,168,187,208,228,248,267,287,307,329,348,367,387,408,427,447,468,487,508,528,547,567,589,609,628,647,667,688,708,727,747,767,788,809,828,847,867,887,908,929,949,967,987,1008,1028,1048,1067,1088,1109,1128],"xSR":741.5,"ySR":469.95,"xT1":424.9,"yT1":0,"xT2":1058.1,"yT2":0,"toosoon":0,"cond_shown":"equaldotsize","ratio_trial":900,"smaller_num":"9","larger_num":"10","correct_side":1,"subjID":"SamuelVilla31","gender":"0","age":"9","school":"4"},{"start_time":1552055273554,"click_time":1552055274945,"finger_time":1552055274286,"fix_duration":1146.6815549043517,"trial":42,"RT":732,"MT":659,"sideResp":1,"stimulus":"img/500/randomdotsizeEA/L/8_Ratio_500_L_8_R_4.png","xmouse":[792,792,792,792,792,792,792,792,792,792,792,792,792,792,792,792,792,792,792,792,792,792,792,792,792,792,792,792,792,792,792,792,795,796,798,800,796,783,764,744,716,698,665,656,649,643,633,627,619,607,598,587,562,553,546,543,541,539,536,535,535,535,535,535,535,535,535,533,527,513],"ymouse":[512,512,512,512,512,512,512,512,512,512,512,512,512,512,512,512,512,512,512,512,512,512,512,512,512,512,512,512,512,512,512,512,512,510,505,493,436,392,339,303,255,230,192,180,172,168,162,160,156,152,149,145,133,125,117,111,108,97,90,85,85,85,85,85,85,85,85,84,80,71],"timestamp_mouse":[13,31,52,72,91,112,132,151,172,192,212,231,253,271,292,312,332,352,373,392,411,432,453,471,491,511,533,551,571,593,612,631,652,672,691,712,732,751,771,791,812,833,852,872,892,913,934,952,972,991,1012,1031,1052,1072,1091,1111,1132,1151,1172,1193,1211,1231,1252,1271,1291,1312,1333,1351,1371,1391],"xSR":741.5,"ySR":469.95,"xT1":424.9,"yT1":0,"xT2":1058.1,"yT2":0,"toosoon":0,"cond_shown":"randomdotsizeEA","ratio_trial":500,"smaller_num":"4","larger_num":"8","correct_side":1,"subjID":"SamuelVilla31","gender":"0","age":"9","school":"4"},{"start_time":1552055276056,"click_time":1552055277147,"finger_time":1552055276725,"fix_duration":250,"trial":43,"RT":669,"MT":422,"sideResp":1,"stimulus":"img/500/randomdotsizeEA/L/13_Ratio_500_L_12_R_6.png","xmouse":[778,778,778,778,778,778,778,778,778,778,778,778,778,778,780,781,781,782,783,783,783,783,783,783,783,783,784,784,784,784,784,784,779,774,764,747,729,675,657,646,637,631,620,617,614,612,608,597,591,585,580,575,561,541,522],"ymouse":[515,514,513,513,513,513,513,513,513,513,513,513,513,512,507,503,501,501,500,499,499,499,499,499,499,499,498,498,497,497,494,492,471,446,406,346,283,190,170,160,154,149,135,132,129,128,127,122,119,117,115,112,100,84,69],"timestamp_mouse":[11,39,50,71,90,111,129,149,169,190,209,230,250,270,289,309,330,349,369,389,409,429,449,469,489,509,529,550,570,589,609,629,649,669,690,709,729,750,770,789,809,829,849,870,890,910,930,950,971,990,1009,1030,1049,1071,1090],"xSR":741.5,"ySR":469.95,"xT1":424.9,"yT1":0,"xT2":1058.1,"yT2":0,"toosoon":0,"cond_shown":"randomdotsizeEA","ratio_trial":500,"smaller_num":"6","larger_num":"12","correct_side":1,"subjID":"SamuelVilla31","gender":"0","age":"9","school":"4"},{"start_time":1552055278222,"click_time":1552055279325,"finger_time":1552055278885,"fix_duration":356.8351651238515,"trial":44,"RT":663,"MT":440,"sideResp":2,"stimulus":"img/900/equaldotanddens/R/13_Ratio_900_L_18_R_20.png","xmouse":[799,799,799,799,799,799,799,798,797,796,796,796,796,796,796,796,796,796,796,796,796,796,796,796,796,796,796,796,796,796,796,797,800,808,836,858,883,907,921,935,936,938,938,941,946,950,953,956,958,962,966,970,978,1002,1041,1060],"ymouse":[509,509,509,509,509,509,509,508,506,505,504,504,504,504,504,504,504,504,504,504,504,504,504,504,504,504,504,504,504,503,499,496,488,468,381,323,263,200,163,129,124,120,116,112,103,100,97,94,92,90,88,85,82,72,58,53],"timestamp_mouse":[12,35,43,64,83,103,123,145,165,184,203,223,243,263,283,303,324,343,365,383,403,423,444,463,484,504,524,543,563,583,604,624,643,663,683,705,725,745,764,784,804,824,844,864,883,904,924,943,965,983,1004,1024,1044,1065,1083,1103],"xSR":741.5,"ySR":469.95,"xT1":424.9,"yT1":0,"xT2":1058.1,"yT2":0,"toosoon":0,"cond_shown":"equaldotanddens","ratio_trial":900,"smaller_num":"18","larger_num":"20","correct_side":2,"subjID":"SamuelVilla31","gender":"0","age":"9","school":"4"},{"start_time":1552055280752,"click_time":1552055281525,"finger_time":1552055281366,"fix_duration":604.930807290822,"trial":45,"RT":614,"MT":159,"sideResp":1,"stimulus":"img/500/equaldotsize/L/8_Ratio_500_L_8_R_4.png","xmouse":[797,797,797,797,797,797,797,797,797,797,797,797,797,797,797,797,797,797,797,797,797,797,797,797,797,797,797,796,788,773,753,721,646,610,575,545,519,510,499],"ymouse":[510,510,510,510,510,510,510,510,510,510,510,510,510,510,510,510,510,510,510,510,510,510,510,510,510,510,510,507,495,475,446,401,292,243,193,150,112,100,86],"timestamp_mouse":[15,34,54,74,93,115,134,155,174,195,214,234,253,273,293,314,334,354,375,394,414,435,454,473,494,515,535,553,574,594,614,633,655,673,694,714,735,754,773],"xSR":741.5,"ySR":469.95,"xT1":424.9,"yT1":0,"xT2":1058.1,"yT2":0,"toosoon":0,"cond_shown":"equaldotsize","ratio_trial":500,"smaller_num":"4","larger_num":"8","correct_side":1,"subjID":"SamuelVilla31","gender":"0","age":"9","school":"4"},{"start_time":1552055283376,"click_time":1552055284865,"finger_time":1552055284145,"fix_duration":668.2736569827224,"trial":46,"RT":769,"MT":720,"sideResp":2,"stimulus":"img/750/randomdotsizeEA/L/6_Ratio_750_L_24_R_18.png","xmouse":[785,786,786,786,786,786,787,788,789,790,790,791,791,791,792,792,794,794,795,795,796,796,797,797,797,797,797,797,797,797,797,797,797,797,797,797,801,814,825,833,843,854,870,881,887,891,900,906,909,912,913,916,920,922,930,938,1013,1070,1118,1144,1159,1171,1182,1186,1188,1191,1197,1197,1197,1197,1197,1196,1178,1163,1157],"ymouse":[493,494,496,497,497,497,497,501,503,504,506,508,509,510,510,511,514,514,516,518,520,520,521,521,521,521,521,521,521,521,521,521,521,521,521,521,504,478,460,439,417,392,351,332,320,311,285,272,263,258,253,248,235,231,221,212,173,150,129,116,106,95,88,85,83,79,64,58,53,53,53,52,51,49,49],"timestamp_mouse":[10,39,50,70,89,110,130,150,170,189,209,230,251,269,289,310,331,350,369,389,410,429,449,469,489,509,529,551,570,589,609,629,649,669,689,709,730,749,769,790,809,829,849,870,890,909,931,949,970,989,1009,1029,1049,1069,1090,1110,1131,1150,1170,1190,1209,1230,1249,1269,1289,1309,1331,1350,1370,1391,1410,1430,1449,1469,1489],"xSR":741.5,"ySR":469.95,"xT1":424.9,"yT1":0,"xT2":1058.1,"yT2":0,"toosoon":0,"cond_shown":"randomdotsizeEA","ratio_trial":750,"smaller_num":"18","larger_num":"24","correct_side":1,"subjID":"SamuelVilla31","gender":"0","age":"9","school":"4"},{"start_time":1552055287264,"click_time":1552055288645,"finger_time":1552055287846,"fix_duration":1376.9128917302455,"trial":47,"RT":582,"MT":799,"sideResp":2,"stimulus":"img/750/randomdotsizeEA/R/5_Ratio_750_L_15_R_20.png","xmouse":[763,763,763,763,763,763,763,763,763,763,763,763,762,762,762,762,762,762,762,762,762,762,762,762,762,762,760,759,755,755,755,755,755,755,758,760,762,763,768,772,776,782,788,807,819,834,850,871,945,965,976,983,988,993,1004,1010,1013,1019,1029,1032,1032,1033,1033,1033,1033,1033,1036,1042,1054,1060],"ymouse":[519,519,519,519,519,519,519,519,519,519,519,520,521,523,523,523,523,523,523,523,523,525,527,530,531,531,535,542,569,573,573,573,573,573,569,566,563,561,557,554,551,546,539,518,504,488,468,435,314,284,262,240,219,201,168,156,147,133,100,96,95,95,95,95,94,94,94,92,68,56],"timestamp_mouse":[11,22,45,61,83,101,122,141,161,181,202,222,241,261,282,301,322,341,363,381,401,422,441,461,481,502,522,541,562,582,602,621,641,661,682,703,721,743,762,781,801,821,841,861,881,902,921,941,961,982,1001,1021,1042,1061,1082,1102,1122,1142,1161,1182,1202,1222,1243,1262,1281,1302,1322,1341,1361,1381],"xSR":741.5,"ySR":469.95,"xT1":424.9,"yT1":0,"xT2":1058.1,"yT2":0,"toosoon":0,"cond_shown":"randomdotsizeEA","ratio_trial":750,"smaller_num":"15","larger_num":"20","correct_side":2,"subjID":"SamuelVilla31","gender":"0","age":"9","school":"4"},{"start_time":1552055290907,"click_time":1552055291846,"finger_time":1552055291545,"fix_duration":1438.9708806303984,"trial":48,"RT":638,"MT":301,"sideResp":1,"stimulus":"img/500/equaldotanddens/L/4_Ratio_500_L_18_R_9.png","xmouse":[790,790,790,790,790,790,790,790,790,790,790,790,790,790,790,790,790,790,790,790,790,790,790,790,790,790,790,790,790,790,790,789,766,744,714,691,637,623,615,612,611,607,587,570,551,539,531,515],"ymouse":[518,518,518,518,518,518,518,518,518,518,518,518,518,518,518,518,518,518,518,518,518,518,518,518,518,518,518,518,518,518,518,514,438,362,289,228,144,125,116,113,112,111,96,87,75,70,65,61],"timestamp_mouse":[1,19,43,58,78,98,118,138,158,178,198,219,239,259,278,300,319,339,358,379,398,418,440,458,478,499,519,539,558,579,598,619,638,659,678,699,720,738,758,778,798,818,838,859,878,899,918,939],"xSR":741.5,"ySR":469.95,"xT1":424.9,"yT1":0,"xT2":1058.1,"yT2":0,"toosoon":0,"cond_shown":"equaldotanddens","ratio_trial":500,"smaller_num":"9","larger_num":"18","correct_side":1,"subjID":"SamuelVilla31","gender":"0","age":"9","school":"4"},{"start_time":1552055292927,"click_time":1552055294306,"finger_time":1552055293706,"fix_duration":300.3495048010081,"trial":49,"RT":779,"MT":600,"sideResp":2,"stimulus":"img/750/equaldotanddens/R/11_Ratio_750_L_12_R_16.png","xmouse":[781,782,784,785,785,785,786,787,788,788,789,789,790,790,790,790,790,790,790,790,790,790,790,790,790,790,790,790,790,790,791,791,793,796,799,802,803,804,805,818,836,849,861,869,877,896,905,914,922,937,942,949,954,957,962,971,976,983,991,1000,1031,1037,1051,1060,1063,1064,1066,1066,1068],"ymouse":[515,515,515,515,516,516,516,516,516,516,516,516,517,517,517,517,517,517,517,517,517,517,517,517,517,517,517,517,517,517,517,517,515,507,498,483,478,475,469,441,397,362,337,316,296,252,233,214,199,176,169,161,158,155,153,147,144,141,136,130,118,116,112,109,107,105,102,101,99],"timestamp_mouse":[21,39,60,78,98,119,138,159,180,199,218,238,258,279,298,318,340,359,378,399,418,438,458,478,498,518,538,558,578,599,619,638,659,680,699,718,738,760,779,801,819,839,859,879,898,918,938,960,979,1000,1018,1038,1059,1079,1098,1118,1138,1160,1179,1199,1219,1239,1258,1279,1299,1319,1340,1358,1379],"xSR":741.5,"ySR":469.95,"xT1":424.9,"yT1":0,"xT2":1058.1,"yT2":0,"toosoon":0,"cond_shown":"equaldotanddens","ratio_trial":750,"smaller_num":"12","larger_num":"16","correct_side":2,"subjID":"SamuelVilla31","gender":"0","age":"9","school":"4"},{"start_time":1552055296782,"click_time":1552055297766,"finger_time":1552055297485,"fix_duration":1314.3908054474841,"trial":50,"RT":703,"MT":281,"sideResp":1,"stimulus":"img/250/randomdotsizeEA/L/5_Ratio_250_L_24_R_6.png","xmouse":[790,790,790,790,790,789,789,789,789,789,789,789,789,789,789,789,789,789,789,789,789,789,789,789,789,789,789,789,789,789,789,789,785,779,769,756,724,708,644,624,606,586,571,553,549,544,538,537,520,508],"ymouse":[494,494,494,494,494,495,495,495,495,495,495,495,495,495,495,495,495,495,495,495,495,495,495,495,495,495,495,495,495,495,495,495,495,490,476,458,416,394,313,289,269,248,232,210,202,192,175,166,118,95],"timestamp_mouse":[21,31,47,64,83,104,123,144,163,184,204,223,244,264,284,303,324,343,363,384,404,425,444,463,484,505,525,544,563,584,605,625,644,663,683,703,723,744,764,785,804,823,844,863,883,904,924,943,964,984],"xSR":741.5,"ySR":469.95,"xT1":424.9,"yT1":0,"xT2":1058.1,"yT2":0,"toosoon":0,"cond_shown":"randomdotsizeEA","ratio_trial":250,"smaller_num":"6","larger_num":"24","correct_side":1,"subjID":"SamuelVilla31","gender":"0","age":"9","school":"4"},{"start_time":1552055299697,"click_time":1552055300965,"finger_time":1552055300366,"fix_duration":1187.32972748253,"trial":51,"RT":669,"MT":599,"sideResp":2,"stimulus":"img/750/equaldotsize/R/3_Ratio_750_L_15_R_20.png","xmouse":[782,782,782,782,782,782,782,781,781,781,781,781,781,781,781,781,781,781,781,781,781,781,781,781,781,781,781,781,781,781,783,785,792,827,851,868,876,882,885,887,889,890,893,902,908,912,916,919,928,937,950,965,980,986,994,1005,1017,1029,1046,1050,1058,1065,1072,1081],"ymouse":[510,510,510,510,510,510,510,510,510,510,509,509,509,509,509,509,509,509,509,509,509,509,509,509,509,509,509,509,509,509,508,505,493,408,327,242,185,153,136,132,127,125,123,120,116,113,112,111,111,111,111,111,111,111,111,110,109,109,108,107,107,106,104,97],"timestamp_mouse":[12,37,50,68,88,108,128,149,168,189,210,228,248,268,289,310,329,349,370,389,409,429,449,468,490,508,528,549,570,590,608,628,650,669,689,708,728,748,768,788,809,830,848,868,888,908,929,951,968,989,1008,1029,1050,1068,1090,1108,1129,1149,1168,1189,1208,1228,1248,1268],"xSR":741.5,"ySR":469.95,"xT1":424.9,"yT1":0,"xT2":1058.1,"yT2":0,"toosoon":0,"cond_shown":"equaldotsize","ratio_trial":750,"smaller_num":"15","larger_num":"20","correct_side":2,"subjID":"SamuelVilla31","gender":"0","age":"9","school":"4"},{"start_time":1552055302647,"click_time":1552055303486,"finger_time":1552055303286,"fix_duration":839.3083776798256,"trial":52,"RT":639,"MT":200,"sideResp":1,"stimulus":"img/250/equaldotsize/L/1_Ratio_250_L_8_R_2.png","xmouse":[786,786,786,786,786,786,786,786,786,786,786,786,786,786,786,786,786,786,786,786,786,786,786,786,786,786,786,786,786,783,771,739,709,677,651,613,598,584,572,560,537,519],"ymouse":[500,500,500,500,500,500,500,500,500,500,500,500,500,500,500,500,500,500,500,500,500,500,500,500,500,500,500,500,500,497,486,444,400,353,310,244,218,195,173,151,110,83],"timestamp_mouse":[19,38,59,78,99,118,140,158,178,199,218,238,258,278,298,319,339,360,379,399,419,440,460,479,499,520,538,560,579,600,618,639,658,680,699,719,739,758,778,799,819,839],"xSR":741.5,"ySR":469.95,"xT1":424.9,"yT1":0,"xT2":1058.1,"yT2":0,"toosoon":0,"cond_shown":"equaldotsize","ratio_trial":250,"smaller_num":"2","larger_num":"8","correct_side":1,"subjID":"SamuelVilla31","gender":"0","age":"9","school":"4"},{"start_time":1552055306898,"click_time":1552055307945,"finger_time":1552055307646,"fix_duration":1130.5893049808012,"trial":53,"RT":748,"MT":299,"sideResp":2,"stimulus":"img/900/equaldotsize/L/4_Ratio_900_L_20_R_18.png","xmouse":[791,791,791,791,791,791,791,791,791,791,791,791,791,791,791,791,791,791,791,791,791,791,791,791,791,791,791,791,791,791,791,791,793,797,802,811,820,842,878,895,912,927,941,977,990,1016,1024,1044,1054,1074,1076,1077,1078],"ymouse":[506,506,506,506,506,506,506,506,506,506,506,506,506,506,506,506,506,506,506,506,506,506,506,506,506,506,506,506,506,506,506,506,506,500,492,481,470,445,406,389,375,360,341,292,274,240,230,202,183,122,107,100,96],"timestamp_mouse":[12,38,47,67,89,107,127,148,168,188,209,229,248,268,288,307,329,348,368,388,407,429,447,467,488,508,528,547,568,589,608,629,647,668,687,707,728,748,768,787,808,827,848,868,887,909,929,948,968,987,1008,1027,1047],"xSR":741.5,"ySR":469.95,"xT1":424.9,"yT1":0,"xT2":1058.1,"yT2":0,"toosoon":0,"cond_shown":"equaldotsize","ratio_trial":900,"smaller_num":"18","larger_num":"20","correct_side":1,"subjID":"SamuelVilla31","gender":"0","age":"9","school":"4"},{"start_time":1552055309287,"click_time":1552055309906,"finger_time":1552055309767,"fix_duration":498.0932678214565,"trial":54,"RT":480,"MT":139,"sideResp":1,"stimulus":"img/500/randomdotsizeEA/L/13_Ratio_500_L_12_R_6.png","xmouse":[792,792,792,792,792,792,792,792,792,792,792,792,792,792,792,792,792,792,792,792,792,788,782,731,692,655,628,600,560,535,510],"ymouse":[510,510,510,510,510,510,510,510,510,510,510,510,510,510,510,510,510,510,510,510,510,496,482,381,314,262,223,188,139,108,74],"timestamp_mouse":[19,40,59,79,99,118,140,159,179,198,219,239,259,279,298,319,339,360,378,399,419,439,459,480,498,518,538,558,580,600,619],"xSR":741.5,"ySR":469.95,"xT1":424.9,"yT1":0,"xT2":1058.1,"yT2":0,"toosoon":0,"cond_shown":"randomdotsizeEA","ratio_trial":500,"smaller_num":"6","larger_num":"12","correct_side":1,"subjID":"SamuelVilla31","gender":"0","age":"9","school":"4"},{"start_time":1552055310793,"click_time":1552055311885,"finger_time":1552055311606,"fix_duration":325.1546564504874,"trial":55,"RT":813,"MT":279,"sideResp":2,"stimulus":"img/900/equaldotsize/L/10_Ratio_900_L_20_R_18.png","xmouse":[786,786,786,786,786,786,786,786,786,786,786,786,786,786,786,786,786,786,786,786,786,786,787,787,787,787,787,787,787,784,782,780,779,779,779,781,784,787,792,834,881,908,943,979,1029,1048,1056,1056,1056,1056,1058,1058,1058,1058,1063],"ymouse":[526,526,526,526,526,526,526,526,526,526,526,526,526,526,526,526,526,526,526,526,526,526,525,524,524,524,523,520,519,510,506,503,501,499,493,488,484,480,478,485,499,499,488,462,355,279,193,109,55,36,35,34,34,34,35],"timestamp_mouse":[13,34,52,72,93,113,133,152,172,192,212,232,252,272,293,312,333,354,372,393,412,432,453,473,492,512,532,553,572,593,613,632,653,672,692,713,733,752,772,792,813,832,853,873,893,913,933,952,973,993,1013,1032,1052,1073,1092],"xSR":741.5,"ySR":469.95,"xT1":424.9,"yT1":0,"xT2":1058.1,"yT2":0,"toosoon":0,"cond_shown":"equaldotsize","ratio_trial":900,"smaller_num":"18","larger_num":"20","correct_side":1,"subjID":"SamuelVilla31","gender":"0","age":"9","school":"4"},{"start_time":1552055313214,"click_time":1552055314386,"finger_time":1552055314106,"fix_duration":427.7410214897879,"trial":56,"RT":892,"MT":280,"sideResp":2,"stimulus":"img/900/equaldotanddens/R/7_Ratio_900_L_9_R_10.png","xmouse":[798,798,798,798,798,798,798,798,798,797,795,792,788,786,785,785,785,785,785,785,785,785,785,785,785,785,785,785,785,785,785,785,785,785,785,785,785,785,785,785,785,785,790,814,850,898,937,969,1009,1016,1022,1028,1038,1068,1083,1099,1110,1114,1125],"ymouse":[514,514,514,514,514,514,514,514,514,514,514,515,516,516,517,517,517,517,517,517,517,517,517,517,517,517,517,517,517,517,517,517,517,517,517,517,517,517,517,517,517,517,515,500,479,450,413,367,280,265,252,240,223,188,169,148,128,113,67],"timestamp_mouse":[13,34,52,73,91,111,131,151,172,193,213,232,251,271,292,311,332,352,371,391,411,431,453,472,492,511,531,551,571,592,612,632,652,671,692,711,731,751,771,791,813,833,851,871,892,911,932,952,972,993,1013,1032,1051,1072,1092,1112,1132,1151,1171],"xSR":741.5,"ySR":469.95,"xT1":424.9,"yT1":0,"xT2":1058.1,"yT2":0,"toosoon":0,"cond_shown":"equaldotanddens","ratio_trial":900,"smaller_num":"9","larger_num":"10","correct_side":2,"subjID":"SamuelVilla31","gender":"0","age":"9","school":"4"},{"start_time":1552055316013,"click_time":1552055316727,"finger_time":1552055316585,"fix_duration":706.3128996806419,"trial":57,"RT":572,"MT":142,"sideResp":1,"stimulus":"img/750/equaldotanddens/L/8_Ratio_750_L_4_R_3.png","xmouse":[782,782,782,782,784,787,791,795,800,803,803,803,803,803,803,803,803,803,803,803,803,803,803,803,803,803,803,796,786,752,725,687,646,573,535,506],"ymouse":[502,502,502,502,502,502,502,502,504,504,504,504,504,504,504,504,504,504,504,504,504,504,504,504,504,504,500,482,462,408,371,314,245,109,45,2],"timestamp_mouse":[19,45,53,73,92,113,132,152,173,193,213,233,253,272,292,312,334,353,373,394,412,432,453,473,493,513,532,554,572,592,613,632,652,673,692,713],"xSR":741.5,"ySR":469.95,"xT1":424.9,"yT1":0,"xT2":1058.1,"yT2":0,"toosoon":0,"cond_shown":"equaldotanddens","ratio_trial":750,"smaller_num":"3","larger_num":"4","correct_side":1,"subjID":"SamuelVilla31","gender":"0","age":"9","school":"4"},{"start_time":1552055320794,"click_time":1552055322226,"finger_time":1552055321506,"fix_duration":1145.6138760558017,"trial":58,"RT":712,"MT":720,"sideResp":1,"stimulus":"img/500/equaldotanddens/L/5_Ratio_500_L_4_R_2.png","xmouse":[787,787,787,787,787,787,787,787,787,787,787,787,787,787,787,787,787,787,787,787,787,787,787,787,787,787,787,787,787,787,787,787,787,791,797,846,853,859,861,863,871,878,887,894,899,907,907,908,908,908,903,884,860,834,805,716,694,675,656,638,604,592,583,573,564,554,550,546,540,533,527,512],"ymouse":[516,516,516,516,516,516,516,516,516,516,516,516,516,516,516,516,516,516,516,516,516,516,516,516,516,516,516,516,516,516,516,516,516,504,493,387,360,340,333,328,311,299,286,277,271,261,259,258,258,258,258,260,262,264,264,240,231,223,215,208,191,184,177,170,162,150,144,136,124,111,97,74],"timestamp_mouse":[12,39,51,73,92,111,132,152,171,193,213,232,251,272,291,311,331,352,371,391,411,433,451,472,492,511,533,552,572,592,611,633,651,672,693,712,732,751,772,792,812,831,852,873,892,911,931,952,971,991,1012,1031,1053,1072,1092,1111,1132,1153,1172,1192,1212,1232,1253,1272,1292,1311,1332,1351,1371,1392,1411,1432],"xSR":741.5,"ySR":469.95,"xT1":424.9,"yT1":0,"xT2":1058.1,"yT2":0,"toosoon":0,"cond_shown":"equaldotanddens","ratio_trial":500,"smaller_num":"2","larger_num":"4","correct_side":1,"subjID":"SamuelVilla31","gender":"0","age":"9","school":"4"},{"start_time":1552055323581,"click_time":1552055324687,"finger_time":1552055324386,"fix_duration":473.1216533374246,"trial":59,"RT":805,"MT":301,"sideResp":1,"stimulus":"img/500/equaldotsize/L/7_Ratio_500_L_10_R_5.png","xmouse":[781,782,782,782,782,782,782,782,782,782,782,782,782,782,782,782,782,782,782,782,782,782,782,782,782,782,782,782,782,782,782,782,782,782,782,782,787,789,790,790,790,781,772,762,749,727,712,680,660,640,621,571,553,541,530,517],"ymouse":[513,512,512,512,512,512,512,512,512,512,512,512,512,512,512,512,512,512,512,512,512,512,512,512,512,512,512,512,512,512,512,512,512,512,512,512,503,496,488,478,465,435,420,406,392,373,359,321,293,263,233,164,139,120,100,67],"timestamp_mouse":[19,43,44,64,84,104,124,145,164,185,204,225,245,265,285,304,325,345,366,386,405,425,444,465,484,504,525,545,566,584,604,625,644,664,685,706,724,744,766,784,805,825,844,865,884,905,925,945,965,985,1004,1025,1044,1064,1085,1105],"xSR":741.5,"ySR":469.95,"xT1":424.9,"yT1":0,"xT2":1058.1,"yT2":0,"toosoon":0,"cond_shown":"equaldotsize","ratio_trial":500,"smaller_num":"5","larger_num":"10","correct_side":1,"subjID":"SamuelVilla31","gender":"0","age":"9","school":"4"},{"start_time":1552055326345,"click_time":1552055327746,"finger_time":1552055327105,"fix_duration":797.4565218678852,"trial":60,"RT":760,"MT":641,"sideResp":2,"stimulus":"img/900/equaldotanddens/R/9_Ratio_900_L_18_R_20.png","xmouse":[773,773,773,773,773,774,774,774,774,775,775,775,775,775,775,775,775,775,775,775,775,776,776,776,777,777,777,777,777,777,777,777,777,778,783,785,799,813,838,897,920,938,948,968,978,987,1000,1008,1015,1027,1032,1037,1038,1039,1039,1039,1040,1040,1040,1040,1041,1041,1041,1041,1043,1045,1048,1049,1051,1057,1060],"ymouse":[511,511,511,511,511,511,511,511,511,510,510,510,510,510,510,510,510,510,510,510,510,510,510,510,510,510,510,510,510,510,510,510,510,510,506,505,490,474,443,346,295,247,225,191,172,155,123,105,93,72,63,56,53,51,51,51,53,63,85,92,94,94,94,94,95,95,93,93,92,89,87],"timestamp_mouse":[10,20,40,62,81,100,120,141,162,180,200,220,241,261,281,300,321,340,361,381,402,420,441,461,480,501,520,540,560,580,600,621,641,660,680,701,720,742,760,780,800,821,841,863,880,900,921,941,960,981,1000,1021,1041,1062,1081,1100,1120,1140,1162,1180,1201,1221,1242,1261,1280,1301,1321,1341,1362,1380,1400],"xSR":741.5,"ySR":469.95,"xT1":424.9,"yT1":0,"xT2":1058.1,"yT2":0,"toosoon":0,"cond_shown":"equaldotanddens","ratio_trial":900,"smaller_num":"18","larger_num":"20","correct_side":2,"subjID":"SamuelVilla31","gender":"0","age":"9","school":"4"},{"start_time":1552055330089,"click_time":1552055331325,"finger_time":1552055330945,"fix_duration":1280.3508654325917,"trial":61,"RT":856,"MT":380,"sideResp":2,"stimulus":"img/900/equaldotsize/R/11_Ratio_900_L_18_R_20.png","xmouse":[790,790,790,790,790,790,790,790,790,790,790,790,790,790,790,790,790,790,790,790,790,790,790,790,790,790,790,790,790,790,790,790,790,790,790,790,793,794,795,795,795,799,809,824,843,855,887,907,933,952,961,972,976,985,994,1002,1026,1031,1039,1043,1048,1061],"ymouse":[508,508,508,508,508,508,508,508,508,508,508,508,508,508,508,508,508,508,508,508,508,508,508,508,508,508,508,508,508,508,508,508,508,508,505,501,489,485,484,484,484,480,469,450,425,402,328,280,216,168,140,116,110,101,93,88,77,75,73,70,69,66],"timestamp_mouse":[17,38,56,78,98,117,136,157,176,196,216,236,257,277,297,316,336,356,377,397,416,436,456,476,498,517,538,556,577,596,618,638,656,677,696,717,737,756,776,796,817,837,856,876,896,917,936,958,976,996,1016,1036,1056,1077,1097,1117,1136,1157,1176,1197,1216,1236],"xSR":741.5,"ySR":469.95,"xT1":424.9,"yT1":0,"xT2":1058.1,"yT2":0,"toosoon":0,"cond_shown":"equaldotsize","ratio_trial":900,"smaller_num":"18","larger_num":"20","correct_side":2,"subjID":"SamuelVilla31","gender":"0","age":"9","school":"4"},{"start_time":1552055332742,"click_time":1552055333706,"finger_time":1552055333425,"fix_duration":334.65321422165596,"trial":62,"RT":683,"MT":281,"sideResp":2,"stimulus":"img/250/equaldotanddens/R/12_Ratio_250_L_5_R_20.png","xmouse":[788,788,788,789,791,792,792,792,792,792,792,792,792,792,792,792,792,792,792,792,792,792,792,792,792,792,792,792,792,792,794,801,815,839,898,917,942,976,1019,1067,1076,1084,1089,1091,1102,1113,1123,1136,1148],"ymouse":[522,522,523,523,523,521,521,521,521,521,521,521,521,521,521,521,521,521,521,521,521,521,521,521,521,521,521,521,521,521,519,516,502,487,442,424,397,355,295,207,185,170,161,158,146,134,122,106,94],"timestamp_mouse":[12,31,44,64,84,103,124,143,163,184,204,223,243,264,284,304,323,344,363,383,403,423,444,464,484,504,523,544,565,584,603,625,644,664,683,703,724,744,763,784,804,823,843,864,884,903,924,944,964],"xSR":741.5,"ySR":469.95,"xT1":424.9,"yT1":0,"xT2":1058.1,"yT2":0,"toosoon":0,"cond_shown":"equaldotanddens","ratio_trial":250,"smaller_num":"5","larger_num":"20","correct_side":2,"subjID":"SamuelVilla31","gender":"0","age":"9","school":"4"},{"start_time":1552055336097,"click_time":1552055337106,"finger_time":1552055336785,"fix_duration":250,"trial":63,"RT":688,"MT":321,"sideResp":1,"stimulus":"img/500/randomdotsizeEA/L/13_Ratio_500_L_12_R_6.png","xmouse":[798,798,798,798,798,798,798,798,798,798,798,798,798,798,798,798,798,798,798,798,798,798,798,798,798,798,798,798,798,798,798,798,796,787,774,757,737,702,688,673,650,626,587,568,556,545,533,515,511,507,504],"ymouse":[517,517,517,517,517,517,517,517,517,517,517,517,517,517,517,517,517,517,517,517,517,517,517,517,517,517,517,517,517,517,517,517,507,489,469,438,409,356,336,318,292,264,222,202,188,175,160,137,128,113,94],"timestamp_mouse":[11,35,50,69,88,109,128,148,169,188,208,228,249,268,289,308,328,350,369,389,408,428,449,468,490,509,530,549,568,589,609,629,649,669,688,709,728,748,769,789,808,829,848,870,890,908,928,948,968,989,1009],"xSR":741.5,"ySR":469.95,"xT1":424.9,"yT1":0,"xT2":1058.1,"yT2":0,"toosoon":0,"cond_shown":"randomdotsizeEA","ratio_trial":500,"smaller_num":"6","larger_num":"12","correct_side":1,"subjID":"SamuelVilla31","gender":"0","age":"9","school":"4"},{"start_time":1552055338099,"click_time":1552055338887,"finger_time":1552055338746,"fix_duration":250,"trial":64,"RT":647,"MT":141,"sideResp":1,"stimulus":"img/250/randomdotsizeEA/L/2_Ratio_250_L_16_R_4.png","xmouse":[810,810,810,810,810,809,804,801,798,794,790,788,788,788,788,788,788,788,788,788,788,788,788,788,788,788,788,787,787,787,784,779,725,694,661,629,601,554,536,519],"ymouse":[532,532,532,532,532,531,529,527,526,525,522,521,521,521,521,521,521,521,521,521,521,521,521,521,521,521,521,521,515,507,492,473,379,328,279,230,189,120,98,81],"timestamp_mouse":[10,32,47,66,86,107,126,146,167,187,208,226,246,266,286,307,326,346,366,387,406,426,447,467,487,507,527,547,568,586,606,626,647,666,686,706,727,746,767,788],"xSR":741.5,"ySR":469.95,"xT1":424.9,"yT1":0,"xT2":1058.1,"yT2":0,"toosoon":0,"cond_shown":"randomdotsizeEA","ratio_trial":250,"smaller_num":"4","larger_num":"16","correct_side":1,"subjID":"SamuelVilla31","gender":"0","age":"9","school":"4"},{"start_time":1552055340921,"click_time":1552055341865,"finger_time":1552055341506,"fix_duration":1054.3101502792117,"trial":65,"RT":585,"MT":359,"sideResp":1,"stimulus":"img/500/randomdotsizeEA/R/1_Ratio_500_L_9_R_18.png","xmouse":[789,789,789,789,789,789,789,789,789,789,789,789,789,789,789,789,789,789,789,789,789,789,789,789,789,789,788,784,778,767,762,743,716,700,681,662,644,614,600,591,582,577,568,560,552,545,527,518],"ymouse":[520,520,520,520,520,520,520,520,520,520,520,520,520,520,520,520,520,520,520,520,520,520,520,520,520,520,518,504,483,453,443,408,360,331,293,252,216,164,145,132,123,118,111,106,101,96,83,77],"timestamp_mouse":[15,40,44,64,84,104,124,146,164,185,205,224,245,266,285,304,325,345,364,385,404,424,445,465,485,505,524,545,566,585,605,625,645,664,685,704,725,745,765,785,805,825,845,865,885,905,925,944],"xSR":741.5,"ySR":469.95,"xT1":424.9,"yT1":0,"xT2":1058.1,"yT2":0,"toosoon":0,"cond_shown":"randomdotsizeEA","ratio_trial":500,"smaller_num":"9","larger_num":"18","correct_side":2,"subjID":"SamuelVilla31","gender":"0","age":"9","school":"4"},{"start_time":1552055343863,"click_time":1552055345085,"finger_time":1552055344564,"fix_duration":1277.2055949160538,"trial":66,"RT":701,"MT":521,"sideResp":1,"stimulus":"img/500/equaldotanddens/L/10_Ratio_500_L_4_R_2.png","xmouse":[771,771,771,771,771,771,771,771,770,770,771,772,772,772,772,773,773,773,773,773,773,773,773,773,773,773,773,773,773,773,773,773,773,773,771,763,755,740,725,683,657,649,626,614,607,596,589,586,585,584,584,584,583,580,576,569,563,557,547,528,525,523],"ymouse":[492,492,492,492,492,492,492,492,493,493,494,496,496,496,497,498,498,498,498,498,498,498,498,498,498,498,498,498,498,498,498,498,498,498,488,467,444,410,379,296,249,233,193,174,155,128,119,113,112,112,112,112,111,111,110,107,103,98,92,79,76,76],"timestamp_mouse":[15,39,42,62,83,102,123,142,163,182,202,223,242,262,282,302,323,343,363,383,402,423,443,463,483,503,522,543,562,583,603,623,643,663,683,701,723,743,763,783,802,822,843,862,883,902,921,942,961,983,1002,1023,1042,1063,1082,1102,1122,1143,1162,1184,1202,1222],"xSR":741.5,"ySR":469.95,"xT1":424.9,"yT1":0,"xT2":1058.1,"yT2":0,"toosoon":0,"cond_shown":"equaldotanddens","ratio_trial":500,"smaller_num":"2","larger_num":"4","correct_side":1,"subjID":"SamuelVilla31","gender":"0","age":"9","school":"4"},{"start_time":1552055347338,"click_time":1552055348526,"finger_time":1552055348084,"fix_duration":250,"trial":67,"RT":746,"MT":442,"sideResp":2,"stimulus":"img/750/equaldotanddens/R/7_Ratio_750_L_3_R_4.png","xmouse":[781,781,781,781,781,781,781,781,781,781,781,781,781,781,781,781,781,781,781,781,781,781,781,781,781,781,781,781,781,781,781,781,781,784,787,798,832,854,874,891,901,925,937,951,964,978,1002,1014,1023,1036,1047,1065,1070,1077,1084,1097,1113,1119,1121,1124],"ymouse":[525,525,525,525,525,525,525,525,525,525,525,525,525,525,525,525,525,525,525,525,525,525,525,525,525,525,525,525,525,525,525,525,525,525,524,518,491,467,437,409,395,359,340,321,305,291,265,248,235,221,209,190,185,175,162,144,118,109,102,98],"timestamp_mouse":[14,42,47,67,87,107,128,148,167,186,208,228,248,267,287,308,327,347,368,387,407,428,448,468,488,508,527,546,568,587,608,628,648,667,687,707,727,746,767,788,808,826,847,867,887,907,926,947,968,987,1008,1027,1047,1067,1088,1108,1127,1147,1167,1188],"xSR":741.5,"ySR":469.95,"xT1":424.9,"yT1":0,"xT2":1058.1,"yT2":0,"toosoon":0,"cond_shown":"equaldotanddens","ratio_trial":750,"smaller_num":"3","larger_num":"4","correct_side":2,"subjID":"SamuelVilla31","gender":"0","age":"9","school":"4"},{"start_time":1552055351280,"click_time":1552055352166,"finger_time":1552055351865,"fix_duration":1193.8923007281953,"trial":68,"RT":585,"MT":301,"sideResp":1,"stimulus":"img/500/randomdotsizeEA/L/13_Ratio_500_L_12_R_6.png","xmouse":[784,784,784,784,784,784,784,784,784,784,784,784,784,784,784,784,784,784,784,784,784,784,784,784,784,784,782,774,762,723,696,669,641,613,583,526,506,503,500,500,500,500,500,500,500],"ymouse":[515,515,514,513,513,513,512,512,512,512,512,512,512,512,512,512,512,512,512,512,512,512,512,512,512,512,510,502,491,455,424,392,354,310,257,161,132,128,120,116,113,109,106,102,96],"timestamp_mouse":[20,28,46,65,85,106,125,146,166,185,206,226,245,265,285,305,325,345,366,385,405,426,446,466,484,506,526,546,566,585,605,625,645,665,685,705,724,745,766,787,805,825,846,865,886],"xSR":741.5,"ySR":469.95,"xT1":424.9,"yT1":0,"xT2":1058.1,"yT2":0,"toosoon":0,"cond_shown":"randomdotsizeEA","ratio_trial":500,"smaller_num":"6","larger_num":"12","correct_side":1,"subjID":"SamuelVilla31","gender":"0","age":"9","school":"4"},{"start_time":1552055353638,"click_time":1552055354526,"finger_time":1552055354146,"fix_duration":751.6823365194986,"trial":69,"RT":508,"MT":380,"sideResp":1,"stimulus":"img/250/randomdotsizeEA/L/1_Ratio_250_L_8_R_2.png","xmouse":[796,796,798,799,799,799,799,799,799,799,799,799,799,799,799,799,799,799,799,799,797,790,784,775,765,752,736,700,670,643,620,594,553,533,513,495,469,459,453,452,452,454,461,465,474],"ymouse":[515,515,515,515,515,515,515,515,515,515,515,515,515,515,515,515,515,515,515,514,514,510,504,493,474,449,421,374,344,327,314,296,265,251,236,219,178,157,135,128,126,122,111,102,88],"timestamp_mouse":[9,36,47,67,87,108,127,146,168,187,208,226