[{"start_time":1552054214241,"click_time":1552054224052,"finger_time":1552054219932,"fix_duration":1186.3370881565438,"trial":0,"RT":5691,"MT":4120,"sideResp":2,"stimulus":[],"xmouse":[820,820,820,820,820,820,820,820,820,820,820,820,820,820,820,820,820,820,820,820,820,820,820,820,820,820,820,820,820,820,820,820,820,820,820,820,820,820,820,820,820,820,820,820,820,820,820,820,820,820,820,820,820,820,820,820,820,820,820,820,820,820,820,820,820,820,820,820,820,820,820,820,820,820,820,820,820,820,820,820,820,820,820,820,820,820,820,820,820,820,820,820,820,820,820,820,820,820,820,820,820,820,820,820,820,820,820,820,820,820,820,820,820,820,820,820,820,820,820,820,820,820,820,820,820,820,820,820,820,820,820,820,820,820,820,820,820,820,820,820,820,820,820,820,820,820,820,820,820,820,820,820,820,820,820,820,820,820,820,820,820,820,820,820,820,820,820,820,820,820,820,820,820,820,820,820,820,820,820,820,820,820,820,820,820,820,820,820,820,820,820,820,820,820,820,820,820,820,820,820,820,820,820,820,820,820,820,820,820,820,820,820,820,820,820,820,820,820,820,820,820,820,820,820,820,820,820,820,820,820,820,820,820,820,820,820,820,820,820,820,820,820,820,820,820,820,820,820,820,820,820,820,820,820,820,820,820,820,820,820,820,820,820,820,820,820,820,820,820,820,820,820,820,820,820,820,820,820,820,820,820,820,822,841,844,844,837,833,829,812,793,773,759,756,753,749,748,748,755,766,768,770,776,780,780,780,780,780,780,780,780,780,780,780,780,782,786,790,794,797,797,797,798,800,801,801,799,798,798,798,798,798,798,798,798,798,798,798,798,798,798,798,798,798,798,798,798,798,798,798,798,798,798,799,799,800,802,804,804,807,809,810,810,810,812,812,812,812,811,792,783,778,759,723,686,677,671,669,668,668,668,668,678,696,751,790,817,831,835,835,835,835,835,835,835,835,835,837,840,843,844,844,844,844,844,844,844,843,840,832,823,812,809,805,799,797,795,795,795,795,795,797,804,808,815,817,817,817,816,814,806,802,801,801,801,801,801,801,800,799,798,797,796,796,796,796,796,796,795,795,795,790,775,753,725,725,730,740,749,763,769,790,812,840,910,964,1036,1107,1146,1191,1207,1213,1215,1216,1218,1221,1226,1229,1229,1227,1221,1218,1215,1212,1201,1196,1189,1170,1151,1123],"ymouse":[557,557,557,557,557,557,557,557,557,557,557,557,557,557,557,557,557,557,557,557,557,557,557,557,557,557,557,557,557,557,557,557,557,557,557,557,557,557,557,557,557,557,557,557,557,557,557,557,557,557,557,557,557,557,557,557,557,557,557,557,557,557,557,557,557,557,557,557,557,557,557,557,557,557,557,557,557,557,557,557,557,557,557,557,557,557,557,557,557,557,557,557,557,557,557,557,557,557,557,557,557,557,557,557,557,557,557,557,557,557,557,557,557,557,557,557,557,557,557,557,557,557,557,557,557,557,557,557,557,557,557,557,557,557,557,557,557,557,557,557,557,557,557,557,557,557,557,557,557,557,557,557,557,557,557,557,557,557,557,557,557,557,557,557,557,557,557,557,557,557,557,557,557,557,557,557,557,557,557,557,557,557,557,557,557,557,557,557,557,557,557,557,557,557,557,557,557,557,557,557,557,557,557,557,557,557,557,557,557,557,557,557,557,557,557,557,557,557,557,557,557,557,557,557,557,557,557,557,557,557,557,557,557,557,557,557,557,557,557,557,557,557,557,557,557,557,557,557,557,557,557,557,557,557,557,557,557,557,557,557,557,557,557,557,557,557,557,557,557,557,557,557,557,557,557,557,557,557,557,557,557,557,554,450,405,376,360,356,355,355,353,350,350,350,359,373,391,408,427,451,456,465,481,491,491,491,491,491,491,491,491,491,492,507,522,540,560,578,590,602,602,602,602,600,571,557,545,539,538,538,538,538,538,538,538,538,538,538,538,538,539,539,539,539,539,539,539,539,539,539,539,539,538,538,536,535,530,523,514,491,477,462,454,442,423,420,418,418,417,417,417,417,418,440,480,490,499,504,505,508,509,510,510,510,510,507,502,500,500,500,500,500,500,500,500,500,500,500,500,502,503,503,503,503,503,503,503,503,503,503,506,512,515,519,525,528,532,532,532,533,535,539,544,548,560,562,562,562,561,561,558,555,555,555,555,555,555,555,553,550,547,544,543,543,543,543,543,543,542,542,542,544,559,585,655,679,697,710,717,722,722,715,703,687,652,629,602,579,566,550,539,533,527,521,512,508,492,478,462,436,415,406,386,364,321,289,245,182,114,16],"timestamp_mouse":[10,52,70,90,109,130,151,170,189,210,230,250,271,291,310,330,349,370,389,410,431,451,471,489,509,531,550,570,591,611,630,649,669,689,711,730,750,771,790,810,830,849,869,890,911,931,950,970,990,1010,1030,1051,1069,1089,1111,1130,1151,1170,1189,1210,1231,1249,1269,1290,1310,1330,1350,1371,1390,1410,1429,1450,1471,1490,1511,1530,1549,1571,1590,1609,1629,1650,1670,1690,1709,1730,1750,1770,1789,1809,1830,1851,1870,1890,1910,1930,1949,1970,1990,2011,2030,2051,2069,2089,2110,2131,2150,2170,2190,2210,2230,2250,2270,2290,2311,2330,2349,2370,2390,2411,2429,2451,2470,2490,2511,2530,2551,2570,2590,2610,2629,2651,2671,2690,2711,2731,2749,2770,2790,2809,2829,2851,2870,2890,2911,2929,2950,2971,2990,3011,3029,3051,3071,3090,3110,3131,3151,3170,3190,3211,3231,3250,3269,3290,3309,3331,3351,3370,3390,3411,3429,3451,3471,3490,3510,3530,3549,3571,3591,3610,3631,3650,3669,3690,3709,3731,3750,3769,3791,3810,3830,3851,3869,3891,3910,3929,3951,3971,3990,4009,4030,4051,4070,4090,4110,4130,4150,4170,4190,4211,4230,4251,4270,4291,4310,4331,4349,4371,4391,4411,4430,4450,4470,4490,4510,4530,4550,4571,4590,4610,4630,4650,4670,4689,4710,4731,4750,4770,4790,4811,4829,4850,4870,4891,4911,4930,4950,4969,4990,5011,5029,5050,5069,5089,5111,5130,5150,5171,5190,5210,5231,5251,5270,5290,5310,5330,5351,5370,5391,5410,5430,5450,5470,5490,5511,5529,5550,5569,5591,5610,5631,5651,5670,5691,5710,5729,5751,5770,5790,5810,5830,5850,5871,5890,5910,5930,5950,5970,5991,6010,6031,6050,6071,6091,6109,6130,6150,6171,6191,6210,6229,6250,6271,6291,6311,6329,6350,6370,6390,6410,6430,6449,6470,6489,6509,6530,6551,6570,6589,6611,6630,6650,6670,6689,6710,6730,6750,6770,6791,6811,6830,6849,6871,6891,6910,6931,6949,6971,6990,7010,7029,7050,7071,7090,7110,7129,7150,7171,7190,7209,7230,7251,7271,7290,7310,7330,7351,7370,7390,7410,7429,7450,7470,7489,7510,7531,7551,7570,7591,7609,7629,7650,7670,7689,7709,7729,7750,7770,7789,7809,7829,7849,7870,7890,7910,7929,7949,7969,7990,8010,8030,8051,8071,8089,8109,8130,8150,8170,8190,8210,8230,8249,8269,8291,8310,8330,8350,8370,8390,8410,8430,8450,8471,8490,8510,8529,8550,8571,8590,8610,8631,8649,8671,8690,8709,8729,8751,8770,8790,8809,8830,8850,8871,8889,8909,8931,8951,8970,8991,9010,9031,9050,9069,9091,9110,9129,9149,9169,9190,9210,9230,9250,9269,9291,9310,9330,9351,9370,9390,9410,9431,9450,9470,9490,9510,9530,9550,9570,9591,9611,9629,9650,9671,9690,9710,9730,9751,9770,9791,9810],"xSR":741.5,"ySR":501.8,"xT1":424.9,"yT1":0,"xT2":1058.1,"yT2":0,"toosoon":0,"cond_shown":"Congruent","ratio_trial":100,"L_num":4,"L_den":10,"R_num":15,"R_den":30,"correct_side":2,"subjID":"samuelvilla31","gender":"0","age":"9","school":"4","test":{"fix_dur":[250,1500],"timestim":1000,"targets_dim":[100,100],"targets_relative_coord":[0.3,0.7],"size_stim":[880,420],"start_dim":[100,100],"size_start":[300,300],"size_fix":60,"samplingrate":20,"img_types":["Congruent","Incongruent"],"ratios":[100,200,300],"rep_conds":19,"nTrials":120,"trials_to_rest":500,"Trials_order":[90,88,66,54,98,19,34,65,68,81,28,59,113,5,38,105,20,96,53,33,71,39,111,100,36,9,45,37,101,1,14,85,67,109,103,93,26,91,69,62,44,29,99,51,3,86,13,56,4,15,32,48,23,114,84,76,74,117,104,95,75,49,0,18,43,115,2,24,77,21,41,97,46,110,6,8,17,50,112,92,61,60,52,102,35,72,78,106,70,7,27,58,12,83,57,30,79,63,47,119,55,22,82,11,108,116,80,64,94,107,118,31,25,73,40,42,89,16,87,10],"cond_shown":["Congruent","Congruent","Congruent","Congruent","Congruent","Incongruent","Congruent","Incongruent","Congruent","Incongruent","Congruent","Incongruent","Incongruent","Incongruent","Congruent","Incongruent","Congruent","Congruent","Incongruent","Incongruent","Incongruent","Incongruent","Incongruent","Congruent","Congruent","Incongruent","Incongruent","Incongruent","Incongruent","Incongruent","Congruent","Incongruent","Incongruent","Incongruent","Incongruent","Incongruent","Congruent","Incongruent","Incongruent","Congruent","Congruent","Incongruent","Incongruent","Incongruent","Incongruent","Congruent","Incongruent","Congruent","Congruent","Incongruent","Congruent","Congruent","Incongruent","Congruent","Congruent","Congruent","Congruent","Incongruent","Congruent","Incongruent","Incongruent","Incongruent","Congruent","Congruent","Incongruent","Incongruent","Congruent","Congruent","Incongruent","Incongruent","Incongruent","Incongruent","Congruent","Congruent","Congruent","Congruent","Incongruent","Congruent","Congruent","Congruent","Incongruent","Congruent","Congruent","Congruent","Incongruent","Congruent","Congruent","Congruent","Congruent","Incongruent","Incongruent","Congruent","Congruent","Incongruent","Incongruent","Congruent","Incongruent","Incongruent","Incongruent","Incongruent","Incongruent","Congruent","Congruent","Incongruent","Congruent","Congruent","Congruent","Congruent","Congruent","Incongruent","Congruent","Incongruent","Incongruent","Incongruent","Congruent","Congruent","Incongruent","Congruent","Incongruent","Congruent"],"ratio_trial":[100,300,100,100,200,100,300,300,200,200,300,300,300,300,200,200,200,100,300,200,300,200,200,300,100,200,200,100,300,100,200,100,100,100,100,200,200,100,200,200,200,300,200,200,200,200,100,200,300,200,200,100,300,100,100,300,200,200,200,300,200,100,100,100,100,100,200,100,300,200,300,100,300,200,100,200,300,200,300,200,100,100,300,100,300,100,100,300,300,100,200,300,100,300,200,100,100,200,300,300,100,300,300,300,100,200,200,300,300,300,300,100,100,100,300,100,300,300,200,300],"left_num":[4,20,1,1,16,2,24,13,6,7,1,4,4,13,16,7,6,3,8,7,13,7,1,24,11,3,3,3,13,8,1,6,6,13,17,7,1,6,4,12,3,4,3,1,3,3,3,16,1,11,12,7,4,3,6,11,20,7,7,13,6,6,11,11,3,6,6,4,13,7,1,8,20,7,6,6,13,6,1,12,8,3,1,3,4,12,7,24,2,6,3,2,11,13,14,7,17,1,1,8,1,3,2,4,3,3,8,8,1,7,1,13,17,2,24,8,8,4,7,11],"right_num":[15,14,3,18,9,8,2,12,3,6,19,2,2,12,12,6,7,2,9,6,12,8,3,2,6,1,11,7,12,1,21,7,3,6,10,14,21,7,1,6,14,2,11,3,1,7,8,9,8,3,6,9,8,2,5,2,9,4,18,12,3,13,6,4,8,3,7,15,12,12,2,1,14,18,15,7,12,7,11,6,1,2,3,2,2,13,15,2,12,7,11,10,4,12,12,9,10,3,2,14,8,2,10,2,2,9,7,10,19,8,6,12,10,6,8,2,14,2,4,1],"left_den":[10,25,2,2,30,4,30,26,15,15,3,20,20,26,20,15,12,6,10,15,26,10,2,30,22,10,4,9,26,20,2,10,12,26,30,10,2,10,30,20,6,20,4,2,10,10,5,30,30,20,15,14,5,6,20,22,25,15,15,26,20,10,22,22,5,12,12,10,26,10,2,20,25,15,12,12,26,12,5,15,20,6,5,6,20,30,14,30,10,10,4,20,22,26,30,14,30,2,2,10,2,6,20,20,6,12,15,15,3,10,5,26,30,4,30,16,10,5,15,22],"right_den":[30,28,5,30,27,20,4,15,15,9,30,4,4,15,20,9,10,5,18,9,15,16,10,4,15,2,20,30,15,2,30,14,5,10,15,28,30,14,3,15,20,4,20,10,2,14,16,27,24,4,10,15,16,5,25,10,15,6,27,15,6,26,15,10,16,5,10,30,15,24,10,2,28,27,25,10,15,10,22,10,2,5,6,5,4,26,25,4,24,14,20,25,10,15,18,15,15,10,10,28,20,10,25,4,5,20,21,12,30,20,12,20,15,15,16,5,28,4,6,5],"correct_side":[2,1,2,2,1,1,1,2,1,2,2,2,2,2,1,2,2,1,1,2,2,1,1,1,1,2,1,1,2,2,2,1,2,2,2,1,2,1,2,1,2,2,1,1,2,2,1,1,2,2,1,2,1,1,1,1,1,2,2,2,2,1,1,1,1,2,2,2,2,1,1,2,1,2,2,2,2,2,2,1,2,1,2,1,2,2,2,1,2,1,1,2,1,2,2,2,2,1,1,1,1,1,2,2,1,2,1,2,2,1,2,2,2,1,1,1,1,1,2,1],"img_shown":["img2/100/Congruent/R/C_Dist_100_LN_4_LD_10_RN_15_RD_30_1.png","img2/300/Congruent/L/C_Dist_300_LN_20_LD_25_RN_14_RD_28_0.png","img2/100/Congruent/R/C_Dist_100_LN_1_LD_2_RN_3_RD_5_1.png","img2/100/Congruent/R/C_Dist_100_LN_1_LD_2_RN_18_RD_30_1.png","img2/200/Congruent/L/C_Dist_200_LN_16_LD_30_RN_9_RD_27_0.png","img2/100/Incongruent/L/I_Dist_100_LN_2_LD_4_RN_8_RD_20_0.png","img2/300/Congruent/L/C_Dist_300_LN_24_LD_30_RN_2_RD_4_0.png","img2/300/Incongruent/R/I_Dist_300_LN_13_LD_26_RN_12_RD_15_1.png","img2/200/Congruent/L/C_Dist_200_LN_6_LD_15_RN_3_RD_15_0.png","img2/200/Incongruent/R/I_Dist_200_LN_7_LD_15_RN_6_RD_9_1.png","img2/300/Congruent/R/C_Dist_300_LN_1_LD_3_RN_19_RD_30_1.png","img2/300/Incongruent/R/I_Dist_300_LN_4_LD_20_RN_2_RD_4_1.png","img2/300/Incongruent/R/I_Dist_300_LN_4_LD_20_RN_2_RD_4_1.png","img2/300/Incongruent/R/I_Dist_300_LN_13_LD_26_RN_12_RD_15_1.png","img2/200/Congruent/L/C_Dist_200_LN_16_LD_20_RN_12_RD_20_0.png","img2/200/Incongruent/R/I_Dist_200_LN_7_LD_15_RN_6_RD_9_1.png","img2/200/Congruent/R/C_Dist_200_LN_6_LD_12_RN_7_RD_10_1.png","img2/100/Congruent/L/C_Dist_100_LN_3_LD_6_RN_2_RD_5_0.png","img2/300/Incongruent/L/I_Dist_300_LN_8_LD_10_RN_9_RD_18_0.png","img2/200/Incongruent/R/I_Dist_200_LN_7_LD_15_RN_6_RD_9_1.png","img2/300/Incongruent/R/I_Dist_300_LN_13_LD_26_RN_12_RD_15_1.png","img2/200/Incongruent/L/I_Dist_200_LN_7_LD_10_RN_8_RD_16_0.png","img2/200/Incongruent/L/I_Dist_200_LN_1_LD_2_RN_3_RD_10_0.png","img2/300/Congruent/L/C_Dist_300_LN_24_LD_30_RN_2_RD_4_0.png","img2/100/Congruent/L/C_Dist_100_LN_11_LD_22_RN_6_RD_15_0.png","img2/200/Incongruent/R/I_Dist_200_LN_3_LD_10_RN_1_RD_2_1.png","img2/200/Incongruent/L/I_Dist_200_LN_3_LD_4_RN_11_RD_20_0.png","img2/100/Incongruent/L/I_Dist_100_LN_3_LD_9_RN_7_RD_30_0.png","img2/300/Incongruent/R/I_Dist_300_LN_13_LD_26_RN_12_RD_15_1.png","img2/100/Incongruent/R/I_Dist_100_LN_8_LD_20_RN_1_RD_2_1.png","img2/200/Congruent/R/C_Dist_200_LN_1_LD_2_RN_21_RD_30_1.png","img2/100/Incongruent/L/I_Dist_100_LN_6_LD_10_RN_7_RD_14_0.png","img2/100/Incongruent/R/I_Dist_100_LN_6_LD_12_RN_3_RD_5_1.png","img2/100/Incongruent/R/I_Dist_100_LN_13_LD_26_RN_6_RD_10_1.png","img2/100/Incongruent/R/I_Dist_100_LN_17_LD_30_RN_10_RD_15_1.png","img2/200/Incongruent/L/I_Dist_200_LN_7_LD_10_RN_14_RD_28_0.png","img2/200/Congruent/R/C_Dist_200_LN_1_LD_2_RN_21_RD_30_1.png","img2/100/Incongruent/L/I_Dist_100_LN_6_LD_10_RN_7_RD_14_0.png","img2/200/Incongruent/R/I_Dist_200_LN_4_LD_30_RN_1_RD_3_1.png","img2/200/Congruent/L/C_Dist_200_LN_12_LD_20_RN_6_RD_15_0.png","img2/200/Congruent/R/C_Dist_200_LN_3_LD_6_RN_14_RD_20_1.png","img2/300/Incongruent/R/I_Dist_300_LN_4_LD_20_RN_2_RD_4_1.png","img2/200/Incongruent/L/I_Dist_200_LN_3_LD_4_RN_11_RD_20_0.png","img2/200/Incongruent/L/I_Dist_200_LN_1_LD_2_RN_3_RD_10_0.png","img2/200/Incongruent/R/I_Dist_200_LN_3_LD_10_RN_1_RD_2_1.png","img2/200/Congruent/R/C_Dist_200_LN_3_LD_10_RN_7_RD_14_1.png","img2/100/Incongruent/L/I_Dist_100_LN_3_LD_5_RN_8_RD_16_0.png","img2/200/Congruent/L/C_Dist_200_LN_16_LD_30_RN_9_RD_27_0.png","img2/300/Congruent/R/C_Dist_300_LN_1_LD_30_RN_8_RD_24_1.png","img2/200/Incongruent/R/I_Dist_200_LN_11_LD_20_RN_3_RD_4_1.png","img2/200/Congruent/L/C_Dist_200_LN_12_LD_15_RN_6_RD_10_0.png","img2/100/Congruent/R/C_Dist_100_LN_7_LD_14_RN_9_RD_15_1.png","img2/300/Incongruent/L/I_Dist_300_LN_4_LD_5_RN_8_RD_16_0.png","img2/100/Congruent/L/C_Dist_100_LN_3_LD_6_RN_2_RD_5_0.png","img2/100/Congruent/L/C_Dist_100_LN_6_LD_20_RN_5_RD_25_0.png","img2/300/Congruent/L/C_Dist_300_LN_11_LD_22_RN_2_RD_10_0.png","img2/200/Congruent/L/C_Dist_200_LN_20_LD_25_RN_9_RD_15_0.png","img2/200/Incongruent/R/I_Dist_200_LN_7_LD_15_RN_4_RD_6_1.png","img2/200/Congruent/R/C_Dist_200_LN_7_LD_15_RN_18_RD_27_1.png","img2/300/Incongruent/R/I_Dist_300_LN_13_LD_26_RN_12_RD_15_1.png","img2/200/Incongruent/R/I_Dist_200_LN_6_LD_20_RN_3_RD_6_1.png","img2/100/Incongruent/L/I_Dist_100_LN_6_LD_10_RN_13_RD_26_0.png","img2/100/Congruent/L/C_Dist_100_LN_11_LD_22_RN_6_RD_15_0.png","img2/100/Congruent/L/C_Dist_100_LN_11_LD_22_RN_4_RD_10_0.png","img2/100/Incongruent/L/I_Dist_100_LN_3_LD_5_RN_8_RD_16_0.png","img2/100/Incongruent/R/I_Dist_100_LN_6_LD_12_RN_3_RD_5_1.png","img2/200/Congruent/R/C_Dist_200_LN_6_LD_12_RN_7_RD_10_1.png","img2/100/Congruent/R/C_Dist_100_LN_4_LD_10_RN_15_RD_30_1.png","img2/300/Incongruent/R/I_Dist_300_LN_13_LD_26_RN_12_RD_15_1.png","img2/200/Incongruent/L/I_Dist_200_LN_7_LD_10_RN_12_RD_24_0.png","img2/300/Incongruent/L/I_Dist_300_LN_1_LD_2_RN_2_RD_10_0.png","img2/100/Incongruent/R/I_Dist_100_LN_8_LD_20_RN_1_RD_2_1.png","img2/300/Congruent/L/C_Dist_300_LN_20_LD_25_RN_14_RD_28_0.png","img2/200/Congruent/R/C_Dist_200_LN_7_LD_15_RN_18_RD_27_1.png","img2/100/Congruent/R/C_Dist_100_LN_6_LD_12_RN_15_RD_25_1.png","img2/200/Congruent/R/C_Dist_200_LN_6_LD_12_RN_7_RD_10_1.png","img2/300/Incongruent/R/I_Dist_300_LN_13_LD_26_RN_12_RD_15_1.png","img2/200/Congruent/R/C_Dist_200_LN_6_LD_12_RN_7_RD_10_1.png","img2/300/Congruent/R/C_Dist_300_LN_1_LD_5_RN_11_RD_22_1.png","img2/200/Congruent/L/C_Dist_200_LN_12_LD_15_RN_6_RD_10_0.png","img2/100/Incongruent/R/I_Dist_100_LN_8_LD_20_RN_1_RD_2_1.png","img2/100/Congruent/L/C_Dist_100_LN_3_LD_6_RN_2_RD_5_0.png","img2/300/Congruent/R/C_Dist_300_LN_1_LD_5_RN_3_RD_6_1.png","img2/100/Congruent/L/C_Dist_100_LN_3_LD_6_RN_2_RD_5_0.png","img2/300/Incongruent/R/I_Dist_300_LN_4_LD_20_RN_2_RD_4_1.png","img2/100/Congruent/R/C_Dist_100_LN_12_LD_30_RN_13_RD_26_1.png","img2/100/Congruent/R/C_Dist_100_LN_7_LD_14_RN_15_RD_25_1.png","img2/300/Congruent/L/C_Dist_300_LN_24_LD_30_RN_2_RD_4_0.png","img2/300/Congruent/R/C_Dist_300_LN_2_LD_10_RN_12_RD_24_1.png","img2/100/Incongruent/L/I_Dist_100_LN_6_LD_10_RN_7_RD_14_0.png","img2/200/Incongruent/L/I_Dist_200_LN_3_LD_4_RN_11_RD_20_0.png","img2/300/Congruent/R/C_Dist_300_LN_2_LD_20_RN_10_RD_25_1.png","img2/100/Congruent/L/C_Dist_100_LN_11_LD_22_RN_4_RD_10_0.png","img2/300/Incongruent/R/I_Dist_300_LN_13_LD_26_RN_12_RD_15_1.png","img2/200/Incongruent/R/I_Dist_200_LN_14_LD_30_RN_12_RD_18_1.png","img2/100/Congruent/R/C_Dist_100_LN_7_LD_14_RN_9_RD_15_1.png","img2/100/Incongruent/R/I_Dist_100_LN_17_LD_30_RN_10_RD_15_1.png","img2/200/Incongruent/L/I_Dist_200_LN_1_LD_2_RN_3_RD_10_0.png","img2/300/Incongruent/L/I_Dist_300_LN_1_LD_2_RN_2_RD_10_0.png","img2/300/Incongruent/L/I_Dist_300_LN_8_LD_10_RN_14_RD_28_0.png","img2/100/Incongruent/L/I_Dist_100_LN_1_LD_2_RN_8_RD_20_0.png","img2/300/Congruent/L/C_Dist_300_LN_3_LD_6_RN_2_RD_10_0.png","img2/300/Congruent/R/C_Dist_300_LN_2_LD_20_RN_10_RD_25_1.png","img2/300/Incongruent/R/I_Dist_300_LN_4_LD_20_RN_2_RD_4_1.png","img2/100/Congruent/L/C_Dist_100_LN_3_LD_6_RN_2_RD_5_0.png","img2/200/Congruent/R/C_Dist_200_LN_3_LD_12_RN_9_RD_20_1.png","img2/200/Congruent/L/C_Dist_200_LN_8_LD_15_RN_7_RD_21_0.png","img2/300/Congruent/R/C_Dist_300_LN_8_LD_15_RN_10_RD_12_1.png","img2/300/Congruent/R/C_Dist_300_LN_1_LD_3_RN_19_RD_30_1.png","img2/300/Incongruent/L/I_Dist_300_LN_7_LD_10_RN_8_RD_20_0.png","img2/300/Congruent/R/C_Dist_300_LN_1_LD_5_RN_6_RD_12_1.png","img2/100/Incongruent/R/I_Dist_100_LN_13_LD_26_RN_12_RD_20_1.png","img2/100/Incongruent/R/I_Dist_100_LN_17_LD_30_RN_10_RD_15_1.png","img2/100/Incongruent/L/I_Dist_100_LN_2_LD_4_RN_6_RD_15_0.png","img2/300/Congruent/L/C_Dist_300_LN_24_LD_30_RN_8_RD_16_0.png","img2/100/Congruent/L/C_Dist_100_LN_8_LD_16_RN_2_RD_5_0.png","img2/300/Incongruent/L/I_Dist_300_LN_8_LD_10_RN_14_RD_28_0.png","img2/300/Congruent/L/C_Dist_300_LN_4_LD_5_RN_2_RD_4_0.png","img2/200/Incongruent/R/I_Dist_200_LN_7_LD_15_RN_4_RD_6_1.png","img2/300/Congruent/L/C_Dist_300_LN_11_LD_22_RN_1_RD_5_0.png"],"dist100_C":[["C_Dist_100_LN_10_LD_25_RN_3_RD_10_0.png","C_Dist_100_LN_11_LD_22_RN_4_RD_10_0.png","C_Dist_100_LN_11_LD_22_RN_6_RD_15_0.png","C_Dist_100_LN_15_LD_25_RN_13_RD_26_0.png","C_Dist_100_LN_3_LD_6_RN_2_RD_5_0.png","C_Dist_100_LN_6_LD_20_RN_5_RD_25_0.png","C_Dist_100_LN_8_LD_16_RN_2_RD_5_0.png","C_Dist_100_LN_9_LD_15_RN_8_RD_16_0.png"],["C_Dist_100_LN_1_LD_2_RN_18_RD_30_1.png","C_Dist_100_LN_1_LD_2_RN_3_RD_5_1.png","C_Dist_100_LN_12_LD_30_RN_13_RD_26_1.png","C_Dist_100_LN_2_LD_5_RN_11_RD_22_1.png","C_Dist_100_LN_2_LD_5_RN_6_RD_12_1.png","C_Dist_100_LN_3_LD_20_RN_4_RD_16_1.png","C_Dist_100_LN_4_LD_10_RN_15_RD_30_1.png","C_Dist_100_LN_4_LD_8_RN_6_RD_10_1.png","C_Dist_100_LN_6_LD_12_RN_15_RD_25_1.png","C_Dist_100_LN_7_LD_14_RN_15_RD_25_1.png","C_Dist_100_LN_7_LD_14_RN_9_RD_15_1.png"]],"dist100_I":[["I_Dist_100_LN_1_LD_2_RN_8_RD_20_0.png","I_Dist_100_LN_2_LD_4_RN_6_RD_15_0.png","I_Dist_100_LN_2_LD_4_RN_8_RD_20_0.png","I_Dist_100_LN_3_LD_5_RN_11_RD_22_0.png","I_Dist_100_LN_3_LD_5_RN_8_RD_16_0.png","I_Dist_100_LN_3_LD_6_RN_4_RD_10_0.png","I_Dist_100_LN_3_LD_9_RN_7_RD_30_0.png","I_Dist_100_LN_4_LD_8_RN_8_RD_20_0.png","I_Dist_100_LN_6_LD_10_RN_11_RD_22_0.png","I_Dist_100_LN_6_LD_10_RN_13_RD_26_0.png","I_Dist_100_LN_6_LD_10_RN_7_RD_14_0.png","I_Dist_100_LN_9_LD_10_RN_20_RD_25_0.png","I_Dist_100_LN_9_LD_15_RN_13_RD_26_0.png","I_Dist_100_LN_9_LD_15_RN_14_RD_28_0.png"],["I_Dist_100_LN_10_LD_25_RN_8_RD_16_1.png","I_Dist_100_LN_10_LD_25_RN_9_RD_18_1.png","I_Dist_100_LN_11_LD_22_RN_9_RD_15_1.png","I_Dist_100_LN_12_LD_24_RN_9_RD_15_1.png","I_Dist_100_LN_12_LD_30_RN_2_RD_4_1.png","I_Dist_100_LN_13_LD_26_RN_12_RD_20_1.png","I_Dist_100_LN_13_LD_26_RN_6_RD_10_1.png","I_Dist_100_LN_17_LD_30_RN_10_RD_15_1.png","I_Dist_100_LN_6_LD_12_RN_3_RD_5_1.png","I_Dist_100_LN_8_LD_16_RN_6_RD_10_1.png","I_Dist_100_LN_8_LD_20_RN_1_RD_2_1.png","I_Dist_100_LN_9_LD_18_RN_6_RD_10_1.png"]],"dist100_S":[["E_Dist_100_LN_2_LD_12_RN_2_RD_30_0.png","E_Dist_100_LN_6_LD_10_RN_6_RD_12_0.png"],["E_Dist_100_LN_6_LD_12_RN_6_RD_10_1.png"]],"dist200_C":[["C_Dist_200_LN_11_LD_22_RN_3_RD_10_0.png","C_Dist_200_LN_12_LD_15_RN_6_RD_10_0.png","C_Dist_200_LN_12_LD_20_RN_6_RD_15_0.png","C_Dist_200_LN_14_LD_28_RN_6_RD_20_0.png","C_Dist_200_LN_15_LD_25_RN_4_RD_10_0.png","C_Dist_200_LN_16_LD_20_RN_12_RD_20_0.png","C_Dist_200_LN_16_LD_30_RN_9_RD_27_0.png","C_Dist_200_LN_20_LD_25_RN_9_RD_15_0.png","C_Dist_200_LN_21_LD_30_RN_2_RD_4_0.png","C_Dist_200_LN_4_LD_10_RN_3_RD_15_0.png","C_Dist_200_LN_4_LD_8_RN_3_RD_10_0.png","C_Dist_200_LN_6_LD_15_RN_3_RD_15_0.png","C_Dist_200_LN_7_LD_21_RN_2_RD_15_0.png","C_Dist_200_LN_8_LD_15_RN_2_RD_6_0.png","C_Dist_200_LN_8_LD_15_RN_3_RD_9_0.png","C_Dist_200_LN_8_LD_15_RN_7_RD_21_0.png","C_Dist_200_LN_9_LD_20_RN_4_RD_16_0.png"],["C_Dist_200_LN_1_LD_2_RN_21_RD_30_1.png","C_Dist_200_LN_13_LD_26_RN_14_RD_20_1.png","C_Dist_200_LN_3_LD_10_RN_11_RD_22_1.png","C_Dist_200_LN_3_LD_10_RN_14_RD_28_1.png","C_Dist_200_LN_3_LD_10_RN_7_RD_14_1.png","C_Dist_200_LN_3_LD_12_RN_9_RD_20_1.png","C_Dist_200_LN_3_LD_6_RN_14_RD_20_1.png","C_Dist_200_LN_5_LD_10_RN_14_RD_20_1.png","C_Dist_200_LN_6_LD_12_RN_7_RD_10_1.png","C_Dist_200_LN_6_LD_20_RN_11_RD_22_1.png","C_Dist_200_LN_7_LD_15_RN_18_RD_27_1.png","C_Dist_200_LN_9_LD_30_RN_13_RD_26_1.png"]],"dist200_I":[["I_Dist_200_LN_1_LD_2_RN_3_RD_10_0.png","I_Dist_200_LN_1_LD_3_RN_2_RD_15_0.png","I_Dist_200_LN_3_LD_4_RN_11_RD_20_0.png","I_Dist_200_LN_4_LD_5_RN_6_RD_10_0.png","I_Dist_200_LN_4_LD_6_RN_14_RD_30_0.png","I_Dist_200_LN_7_LD_10_RN_12_RD_24_0.png","I_Dist_200_LN_7_LD_10_RN_14_RD_28_0.png","I_Dist_200_LN_7_LD_10_RN_8_RD_16_0.png"],["I_Dist_200_LN_11_LD_20_RN_3_RD_4_1.png","I_Dist_200_LN_14_LD_30_RN_12_RD_18_1.png","I_Dist_200_LN_14_LD_30_RN_6_RD_9_1.png","I_Dist_200_LN_3_LD_10_RN_1_RD_2_1.png","I_Dist_200_LN_4_LD_30_RN_1_RD_3_1.png","I_Dist_200_LN_6_LD_20_RN_3_RD_6_1.png","I_Dist_200_LN_7_LD_15_RN_4_RD_6_1.png","I_Dist_200_LN_7_LD_15_RN_6_RD_9_1.png","I_Dist_200_LN_9_LD_15_RN_8_RD_10_1.png"]],"dist200_S":[["E_Dist_200_LN_3_LD_6_RN_3_RD_10_0.png"],["E_Dist_200_LN_3_LD_10_RN_3_RD_6_1.png"]],"dist300_C":[["C_Dist_300_LN_11_LD_22_RN_1_RD_5_0.png","C_Dist_300_LN_11_LD_22_RN_2_RD_10_0.png","C_Dist_300_LN_11_LD_22_RN_4_RD_20_0.png","C_Dist_300_LN_12_LD_24_RN_2_RD_10_0.png","C_Dist_300_LN_18_LD_20_RN_9_RD_15_0.png","C_Dist_300_LN_20_LD_25_RN_13_RD_26_0.png","C_Dist_300_LN_20_LD_25_RN_14_RD_28_0.png","C_Dist_300_LN_20_LD_25_RN_5_RD_10_0.png","C_Dist_300_LN_20_LD_25_RN_8_RD_16_0.png","C_Dist_300_LN_20_LD_25_RN_9_RD_18_0.png","C_Dist_300_LN_24_LD_30_RN_2_RD_4_0.png","C_Dist_300_LN_24_LD_30_RN_8_RD_16_0.png","C_Dist_300_LN_3_LD_6_RN_2_RD_10_0.png","C_Dist_300_LN_4_LD_10_RN_1_RD_10_0.png","C_Dist_300_LN_4_LD_5_RN_2_RD_4_0.png","C_Dist_300_LN_8_LD_16_RN_1_RD_5_0.png","C_Dist_300_LN_9_LD_10_RN_3_RD_5_0.png"],["C_Dist_300_LN_1_LD_20_RN_7_RD_20_1.png","C_Dist_300_LN_1_LD_3_RN_19_RD_30_1.png","C_Dist_300_LN_1_LD_30_RN_8_RD_24_1.png","C_Dist_300_LN_1_LD_5_RN_11_RD_22_1.png","C_Dist_300_LN_1_LD_5_RN_3_RD_6_1.png","C_Dist_300_LN_1_LD_5_RN_6_RD_12_1.png","C_Dist_300_LN_2_LD_10_RN_12_RD_24_1.png","C_Dist_300_LN_2_LD_20_RN_10_RD_25_1.png","C_Dist_300_LN_3_LD_12_RN_11_RD_20_1.png","C_Dist_300_LN_3_LD_6_RN_4_RD_5_1.png","C_Dist_300_LN_4_LD_20_RN_13_RD_26_1.png","C_Dist_300_LN_5_LD_25_RN_6_RD_12_1.png","C_Dist_300_LN_5_LD_25_RN_7_RD_14_1.png","C_Dist_300_LN_7_LD_14_RN_20_RD_25_1.png","C_Dist_300_LN_8_LD_15_RN_10_RD_12_1.png"]],"dist300_I":[["I_Dist_300_LN_1_LD_2_RN_2_RD_10_0.png","I_Dist_300_LN_1_LD_2_RN_3_RD_15_0.png","I_Dist_300_LN_2_LD_4_RN_6_RD_30_0.png","I_Dist_300_LN_3_LD_6_RN_4_RD_20_0.png","I_Dist_300_LN_4_LD_5_RN_6_RD_12_0.png","I_Dist_300_LN_4_LD_5_RN_8_RD_16_0.png","I_Dist_300_LN_7_LD_10_RN_8_RD_20_0.png","I_Dist_300_LN_8_LD_10_RN_14_RD_28_0.png","I_Dist_300_LN_8_LD_10_RN_9_RD_18_0.png"],["I_Dist_300_LN_13_LD_26_RN_12_RD_15_1.png","I_Dist_300_LN_4_LD_20_RN_2_RD_4_1.png"]],"dist300_S":[["E_Dist_300_LN_9_LD_12_RN_9_RD_20_0.png"],["E_Dist_300_LN_18_LD_30_RN_18_RD_20_1.png","E_Dist_300_LN_3_LD_10_RN_3_RD_5_1.png","E_Dist_300_LN_9_LD_20_RN_9_RD_12_1.png"]],"dist500_C":[["C_Dist_500_LN_10_LD_13_RN_7_RD_26_0.png","C_Dist_500_LN_10_LD_15_RN_4_RD_24_0.png","C_Dist_500_LN_12_LD_16_RN_3_RD_12_0.png","C_Dist_500_LN_12_LD_18_RN_4_RD_24_0.png","C_Dist_500_LN_15_LD_18_RN_5_RD_15_0.png","C_Dist_500_LN_15_LD_20_RN_1_RD_4_0.png","C_Dist_500_LN_18_LD_27_RN_1_RD_6_0.png","C_Dist_500_LN_20_LD_24_RN_1_RD_3_0.png","C_Dist_500_LN_20_LD_24_RN_3_RD_9_0.png","C_Dist_500_LN_20_LD_24_RN_7_RD_21_0.png","C_Dist_500_LN_20_LD_28_RN_3_RD_14_0.png","C_Dist_500_LN_21_LD_28_RN_6_RD_24_0.png","C_Dist_500_LN_22_LD_28_RN_2_RD_7_0.png","C_Dist_500_LN_25_LD_30_RN_9_RD_27_0.png","C_Dist_500_LN_4_LD_6_RN_1_RD_6_0.png","C_Dist_500_LN_5_LD_6_RN_2_RD_6_0.png","C_Dist_500_LN_6_LD_9_RN_1_RD_6_0.png","C_Dist_500_LN_7_LD_10_RN_1_RD_5_0.png","C_Dist_500_LN_8_LD_12_RN_1_RD_6_0.png","C_Dist_500_LN_8_LD_12_RN_4_RD_24_0.png"],["C_Dist_500_LN_1_LD_4_RN_12_RD_16_1.png","C_Dist_500_LN_1_LD_4_RN_9_RD_12_1.png","C_Dist_500_LN_1_LD_9_RN_11_RD_18_1.png","C_Dist_500_LN_10_LD_24_RN_22_RD_24_1.png","C_Dist_500_LN_2_LD_12_RN_10_RD_15_1.png","C_Dist_500_LN_2_LD_12_RN_12_RD_18_1.png","C_Dist_500_LN_2_LD_12_RN_4_RD_6_1.png","C_Dist_500_LN_2_LD_24_RN_7_RD_12_1.png","C_Dist_500_LN_2_LD_5_RN_18_RD_20_1.png","C_Dist_500_LN_2_LD_5_RN_9_RD_10_1.png","C_Dist_500_LN_2_LD_8_RN_12_RD_16_1.png","C_Dist_500_LN_2_LD_8_RN_21_RD_28_1.png","C_Dist_500_LN_3_LD_10_RN_4_RD_5_1.png","C_Dist_500_LN_3_LD_12_RN_15_RD_20_1.png","C_Dist_500_LN_3_LD_30_RN_6_RD_10_1.png","C_Dist_500_LN_3_LD_8_RN_14_RD_16_1.png","C_Dist_500_LN_4_LD_16_RN_15_RD_20_1.png","C_Dist_500_LN_4_LD_24_RN_12_RD_18_1.png","C_Dist_500_LN_5_LD_14_RN_6_RD_7_1.png","C_Dist_500_LN_7_LD_21_RN_20_RD_24_1.png","C_Dist_500_LN_7_LD_28_RN_12_RD_16_1.png","C_Dist_500_LN_7_LD_28_RN_9_RD_12_1.png","C_Dist_500_LN_9_LD_27_RN_20_RD_24_1.png"]],"dist500_I":[["I_Dist_500_LN_2_LD_3_RN_4_RD_24_0.png","I_Dist_500_LN_5_LD_6_RN_6_RD_18_0.png","I_Dist_500_LN_7_LD_8_RN_9_RD_24_0.png"],["I_Dist_500_LN_7_LD_21_RN_5_RD_6_1.png"]],"dist500_S":[["E_Dist_500_LN_6_LD_8_RN_6_RD_24_0.png"],["E_Dist_500_LN_2_LD_12_RN_2_RD_3_1.png","E_Dist_500_LN_6_LD_24_RN_6_RD_8_1.png"]]}},{"start_time":1552054225782,"click_time":1552054228371,"finger_time":1552054227371,"fix_duration":367.077851479382,"trial":1,"RT":1589,"MT":1000,"sideResp":1,"stimulus":[],"xmouse":[794,794,794,794,794,794,794,794,794,794,794,794,794,794,794,794,794,794,794,794,794,794,794,794,794,794,794,794,794,794,794,794,794,794,794,794,794,794,794,794,794,794,794,794,794,794,794,794,794,794,794,794,794,794,794,794,794,794,794,794,794,794,794,794,794,794,794,794,794,794,794,794,794,794,794,794,793,791,784,766,755,746,742,739,738,738,737,737,734,734,732,732,730,730,730,729,729,729,726,726,723,718,710,696,686,670,652,631,596,587,582,578,578,578,578,578,578,578,578,578,578,576,576,575,566,557,545,535,528,518],"ymouse":[535,535,535,535,535,535,535,535,535,535,535,535,535,535,535,535,535,535,535,535,535,535,535,535,535,535,535,535,535,535,535,535,535,535,535,535,535,535,535,535,535,535,535,535,535,535,535,535,535,535,535,535,535,535,535,535,535,535,535,535,535,535,535,535,535,535,535,535,535,535,535,535,535,535,535,535,535,529,508,456,427,406,395,389,382,380,378,376,369,366,361,360,357,357,357,355,353,351,343,339,334,327,314,299,290,276,257,235,202,193,187,181,180,180,180,180,177,171,165,149,144,140,138,138,127,119,107,95,87,78],"timestamp_mouse":[13,34,50,69,88,110,129,150,169,190,208,229,250,269,290,310,329,348,369,390,408,429,448,469,490,509,529,548,568,589,608,629,650,669,689,709,730,749,770,789,809,828,849,868,890,910,929,949,970,988,1010,1030,1048,1070,1090,1109,1129,1148,1170,1190,1210,1228,1249,1269,1289,1309,1329,1348,1370,1388,1410,1429,1450,1469,1489,1509,1529,1548,1570,1589,1609,1629,1649,1669,1689,1709,1728,1748,1770,1788,1809,1828,1848,1870,1889,1909,1929,1950,1971,1989,2009,2029,2049,2070,2089,2109,2129,2148,2171,2189,2210,2229,2249,2270,2289,2308,2329,2350,2368,2389,2410,2430,2449,2468,2488,2509,2529,2549,2569,2588],"xSR":741.5,"ySR":501.8,"xT1":424.9,"yT1":0,"xT2":1058.1,"yT2":0,"toosoon":0,"cond_shown":"Congruent","ratio_trial":300,"L_num":20,"L_den":25,"R_num":14,"R_den":28,"correct_side":1,"subjID":"samuelvilla31","gender":"0","school":"4","age":"9"},{"start_time":1552054230816,"click_time":1552054234790,"finger_time":1552054233452,"fix_duration":282.87591360262456,"trial":2,"RT":2636,"MT":1338,"sideResp":2,"stimulus":[],"xmouse":[771,771,771,771,771,771,771,771,771,771,771,771,771,771,772,772,773,775,777,778,779,780,780,780,781,781,781,781,781,781,781,781,781,781,781,781,781,781,781,781,781,781,781,781,781,781,781,781,781,781,781,781,781,781,781,781,781,781,781,781,781,781,781,781,781,781,781,781,781,781,781,781,781,781,781,781,781,781,781,781,781,781,781,781,781,781,781,781,781,781,781,781,781,781,781,781,781,781,781,781,781,781,781,781,781,781,781,781,781,781,781,781,781,781,781,781,781,781,781,781,781,781,781,781,781,781,781,781,786,798,822,846,889,909,924,934,939,940,940,940,940,940,940,940,940,940,930,906,864,834,815,803,799,797,794,790,785,780,776,776,776,776,776,776,776,776,776,776,776,776,776,776,776,776,776,776,776,779,816,862,906,937,973,986,1007,1023,1037,1059,1075,1086,1094,1102,1112,1115,1119,1124,1131,1141,1148],"ymouse":[548,548,548,548,548,548,548,548,548,548,548,548,548,548,548,548,548,546,545,544,543,542,542,542,541,541,541,541,541,541,541,541,541,541,541,541,541,541,541,541,541,541,541,541,541,541,541,541,541,541,541,541,541,541,541,541,541,541,541,541,541,541,541,541,541,541,541,541,541,541,541,541,541,541,541,541,541,541,541,541,541,541,541,541,541,541,541,541,541,541,541,541,541,541,541,541,541,541,541,541,541,541,541,541,541,541,541,541,541,541,541,541,541,541,541,541,541,541,541,541,541,541,541,541,540,540,540,540,540,540,540,543,547,547,547,547,547,547,547,547,547,547,547,547,547,547,547,549,554,558,558,558,558,558,558,555,552,549,547,547,547,547,547,547,547,547,547,547,547,547,547,547,547,547,547,547,547,547,531,511,491,475,451,438,420,406,392,363,337,321,304,286,255,244,230,212,189,129,90],"timestamp_mouse":[15,38,55,75,94,114,135,154,174,196,216,234,254,276,295,316,335,355,374,395,416,436,456,475,496,516,535,555,576,594,614,636,654,676,696,715,736,754,775,795,816,834,854,876,896,915,935,954,975,996,1015,1035,1056,1076,1095,1116,1136,1156,1174,1195,1215,1234,1255,1275,1295,1315,1336,1355,1375,1394,1415,1436,1456,1475,1496,1514,1535,1555,1574,1595,1614,1635,1655,1675,1696,1714,1735,1756,1775,1796,1816,1835,1855,1876,1896,1915,1935,1954,1975,1996,2015,2035,2055,2076,2095,2115,2134,2155,2175,2196,2215,2235,2255,2276,2296,2314,2335,2355,2376,2394,2415,2436,2455,2475,2495,2515,2534,2554,2575,2595,2615,2636,2656,2674,2696,2715,2736,2755,2775,2796,2814,2836,2856,2875,2895,2915,2934,2955,2974,2995,3015,3035,3054,3075,3094,3114,3134,3155,3175,3195,3215,3234,3255,3275,3296,3316,3336,3355,3375,3394,3416,3435,3455,3474,3495,3515,3536,3554,3576,3594,3615,3636,3656,3674,3694,3714,3736,3755,3775,3795,3816,3834,3855,3874,3894,3914,3934,3955,3974],"xSR":741.5,"ySR":501.8,"xT1":424.9,"yT1":0,"xT2":1058.1,"yT2":0,"toosoon":0,"cond_shown":"Congruent","ratio_trial":100,"L_num":1,"L_den":2,"R_num":3,"R_den":5,"correct_side":2,"subjID":"samuelvilla31","gender":"0","school":"4","age":"9"},{"start_time":1552054239203,"click_time":1552054241791,"finger_time":1552054241010,"fix_duration":250,"trial":3,"RT":1807,"MT":781,"sideResp":2,"stimulus":[],"xmouse":[798,798,798,798,798,798,798,798,798,798,798,798,798,798,798,798,798,798,798,798,798,798,798,798,798,798,798,798,798,798,798,798,798,798,798,798,798,798,798,798,798,798,798,798,798,798,798,798,798,798,798,798,798,798,798,798,798,798,798,798,798,798,798,798,798,798,798,798,798,798,798,798,798,798,798,798,798,798,798,798,798,798,798,798,799,804,807,810,816,834,845,856,870,885,915,930,960,978,1001,1053,1071,1084,1091,1092,1090,1089,1087,1086,1085,1085,1087,1092,1096,1102,1107,1110,1112,1112,1114,1115,1116,1116,1116,1117,1117,1117,1117,1115,1113,1107],"ymouse":[540,540,540,540,540,540,540,540,540,540,540,540,540,540,540,540,540,540,540,540,540,540,540,540,540,540,540,540,540,540,540,540,540,540,540,541,541,541,541,541,541,541,541,541,541,541,541,541,541,541,541,541,541,541,541,541,541,541,541,541,541,541,541,541,541,541,541,541,541,541,541,541,541,541,541,541,541,541,541,541,541,541,541,541,541,538,537,534,530,515,506,498,488,477,460,449,430,416,399,357,339,320,305,294,275,268,259,253,243,225,215,206,197,187,176,171,167,165,162,155,152,150,149,148,145,140,133,124,112,88],"timestamp_mouse":[14,35,47,67,88,108,128,148,167,187,207,228,247,268,287,307,327,347,368,387,408,427,447,468,489,509,528,548,568,588,607,627,649,668,687,708,727,747,767,789,809,827,849,868,887,907,927,947,967,987,1007,1027,1047,1067,1087,1107,1128,1147,1168,1187,1208,1229,1248,1268,1289,1308,1327,1348,1368,1388,1408,1428,1448,1467,1487,1508,1527,1547,1568,1587,1608,1628,1648,1667,1687,1707,1727,1747,1767,1787,1807,1828,1848,1868,1888,1907,1927,1947,1968,1988,2007,2027,2048,2067,2087,2107,2127,2147,2167,2188,2207,2228,2247,2268,2288,2307,2328,2347,2369,2388,2407,2428,2447,2468,2488,2507,2527,2547,2567,2587],"xSR":741.5,"ySR":501.8,"xT1":424.9,"yT1":0,"xT2":1058.1,"yT2":0,"toosoon":0,"cond_shown":"Congruent","ratio_trial":100,"L_num":1,"L_den":2,"R_num":18,"R_den":30,"correct_side":2,"subjID":"samuelvilla31","gender":"0","school":"4","age":"9"},{"start_time":1552054245456,"click_time":1552054247991,"finger_time":1552054247291,"fix_duration":1383.077283780093,"trial":4,"RT":1835,"MT":700,"sideResp":1,"stimulus":[],"xmouse":[788,788,788,788,788,788,788,788,788,788,788,788,788,788,788,788,788,788,788,788,788,788,788,788,788,788,788,788,788,788,788,788,788,788,788,788,788,788,788,788,788,788,788,788,788,788,788,788,788,788,788,788,788,788,788,788,788,788,788,788,788,788,788,788,788,788,788,788,788,788,788,788,788,788,788,788,788,788,788,788,788,788,788,788,787,786,786,786,786,785,784,779,777,775,771,768,766,756,753,751,751,749,746,743,737,731,724,697,683,662,643,626,590,574,563,558,556,556,553,552,547,543,537,535,532,528,522],"ymouse":[555,555,555,555,555,555,555,555,555,555,555,555,555,555,555,555,555,555,555,555,555,555,555,555,555,555,555,555,555,555,555,555,555,555,555,555,555,555,555,555,555,555,555,555,555,555,555,555,555,555,555,555,555,555,555,555,555,555,555,555,555,555,555,555,555,555,555,555,555,555,555,555,555,555,555,555,555,555,555,555,555,555,555,555,554,554,554,554,551,540,532,491,407,377,351,331,313,281,270,263,263,260,256,254,252,250,247,233,222,207,193,178,152,138,126,120,118,117,114,112,105,100,93,91,89,88,84],"timestamp_mouse":[14,38,54,75,95,115,134,155,175,194,214,236,255,274,294,314,334,354,376,396,414,435,455,474,495,515,534,555,575,595,616,636,655,674,695,714,734,754,775,794,814,835,854,874,895,915,934,955,974,995,1014,1034,1055,1076,1096,1115,1135,1154,1174,1195,1214,1234,1255,1274,1294,1314,1334,1356,1374,1394,1415,1434,1456,1475,1495,1515,1535,1555,1575,1594,1615,1635,1655,1674,1694,1714,1735,1754,1775,1794,1814,1835,1854,1874,1894,1914,1934,1954,1975,1994,2015,2034,2054,2074,2094,2114,2135,2154,2175,2194,2214,2234,2254,2275,2295,2314,2335,2354,2374,2394,2414,2434,2454,2474,2494,2514,2535],"xSR":741.5,"ySR":501.8,"xT1":424.9,"yT1":0,"xT2":1058.1,"yT2":0,"toosoon":0,"cond_shown":"Congruent","ratio_trial":200,"L_num":16,"L_den":30,"R_num":9,"R_den":27,"correct_side":1,"subjID":"samuelvilla31","gender":"0","school":"4","age":"9"},{"start_time":1552054253359,"click_time":1552054255610,"finger_time":1552054255090,"fix_duration":447.07072935698,"trial":5,"RT":1731,"MT":520,"sideResp":2,"stimulus":[],"xmouse":[800,800,800,800,800,800,800,800,800,800,800,800,800,800,800,800,800,800,800,800,800,800,800,800,800,800,800,800,800,800,800,798,798,798,798,798,798,798,798,798,798,798,798,798,798,798,798,798,798,798,798,798,798,798,798,798,798,798,798,798,798,798,798,798,798,798,798,798,798,798,798,798,798,798,798,798,798,798,798,798,798,798,798,798,802,810,820,831,861,881,905,937,949,973,982,989,995,1006,1007,1010,1013,1016,1019,1020,1021,1022,1023,1026,1032,1038,1046,1063,1073],"ymouse":[535,535,534,534,534,534,534,534,534,534,534,534,534,534,534,534,534,534,534,534,534,534,534,534,534,534,534,534,534,534,534,534,534,535,535,535,535,535,535,535,535,535,535,535,535,535,535,535,535,535,535,535,535,535,535,535,535,535,535,535,535,535,535,535,535,535,535,535,535,535,535,535,535,535,535,535,535,535,535,535,535,535,535,532,523,510,494,472,417,380,338,280,254,213,197,185,174,159,155,152,147,143,140,139,138,137,135,133,128,123,117,106,98],"timestamp_mouse":[25,32,51,71,91,111,131,152,173,191,212,231,253,272,291,312,332,352,372,392,412,433,452,472,492,511,532,552,571,592,611,631,651,671,692,712,733,752,771,792,811,833,851,871,892,912,931,951,972,992,1012,1033,1051,1071,1091,1112,1132,1151,1172,1192,1212,1231,1252,1272,1292,1313,1332,1352,1371,1392,1411,1433,1452,1472,1492,1512,1533,1551,1571,1591,1611,1632,1652,1672,1691,1712,1731,1753,1771,1791,1811,1832,1852,1872,1891,1911,1932,1953,1971,1991,2011,2031,2051,2071,2091,2111,2131,2151,2171,2192,2212,2231,2251],"xSR":741.5,"ySR":501.8,"xT1":424.9,"yT1":0,"xT2":1058.1,"yT2":0,"toosoon":0,"cond_shown":"Incongruent","ratio_trial":100,"L_num":2,"L_den":4,"R_num":8,"R_den":20,"correct_side":1,"subjID":"samuelvilla31","gender":"0","school":"4","age":"9"},{"start_time":1552054261514,"click_time":1552054265191,"finger_time":1552054264531,"fix_duration":942.5377892479893,"trial":6,"RT":3017,"MT":660,"sideResp":1,"stimulus":[],"xmouse":[798,798,798,798,798,798,798,798,798,798,798,798,798,798,798,798,798,798,798,798,798,798,798,798,798,798,798,798,798,798,798,798,798,798,798,798,798,798,798,798,798,798,798,798,798,798,798,798,798,798,798,798,798,798,798,798,798,798,798,798,798,798,798,798,798,798,798,798,798,798,798,798,798,798,798,798,798,798,798,798,798,798,798,798,798,798,798,798,798,798,798,798,798,798,798,798,798,798,798,798,798,798,798,798,798,798,798,798,798,798,798,798,798,798,798,798,798,798,798,798,798,798,798,798,798,798,798,798,798,798,798,798,798,798,798,798,798,798,798,798,798,798,798,796,796,794,794,793,791,785,779,765,761,759,756,745,738,734,731,727,719,698,690,677,661,645,620,608,587,573,563,549,548,547,547,547,546,543,542,541,539,531,526,520],"ymouse":[547,547,547,547,547,547,547,547,547,547,547,547,547,547,547,547,547,547,547,547,547,547,547,547,547,547,547,547,547,547,547,547,547,547,547,547,547,547,547,547,547,547,547,547,547,547,547,547,547,547,547,547,547,547,547,547,547,547,547,547,547,547,547,547,547,547,547,547,547,547,547,547,547,547,547,547,547,547,547,547,547,547,547,547,547,547,547,547,547,547,547,547,547,547,547,547,547,547,547,547,547,547,547,547,547,547,547,547,547,547,547,547,547,547,547,547,547,547,547,547,547,547,547,547,547,547,547,547,547,547,547,547,547,547,547,547,547,547,547,547,547,547,547,547,547,547,546,545,531,509,485,440,426,416,402,358,345,339,335,330,320,290,280,262,238,216,168,143,100,76,60,43,41,40,40,40,39,36,36,35,35,34,34,34],"timestamp_mouse":[17,37,56,77,97,116,136,157,177,196,216,236,257,277,297,316,338,357,377,398,417,437,458,476,496,517,536,556,576,596,616,637,656,676,696,716,736,758,776,797,816,838,856,877,896,916,937,956,977,997,1018,1038,1057,1077,1097,1116,1136,1157,1176,1196,1216,1237,1257,1276,1296,1317,1336,1357,1376,1398,1417,1437,1457,1477,1497,1518,1536,1556,1577,1596,1618,1637,1656,1677,1696,1717,1737,1758,1777,1797,1816,1837,1856,1877,1897,1916,1937,1957,1976,1997,2016,2036,2056,2077,2096,2118,2137,2156,2177,2196,2216,2237,2257,2277,2296,2316,2337,2356,2377,2397,2416,2436,2456,2477,2497,2516,2536,2557,2576,2596,2617,2637,2656,2677,2697,2718,2737,2756,2776,2797,2817,2837,2856,2876,2896,2916,2936,2956,2976,2998,3017,3036,3056,3077,3096,3118,3136,3156,3176,3196,3217,3236,3256,3277,3297,3317,3336,3356,3376,3396,3416,3436,3456,3477,3496,3518,3536,3556,3576,3597,3616,3636,3656,3677],"xSR":741.5,"ySR":501.8,"xT1":424.9,"yT1":0,"xT2":1058.1,"yT2":0,"toosoon":0,"cond_shown":"Congruent","ratio_trial":300,"L_num":24,"L_den":30,"R_num":2,"R_den":4,"correct_side":1,"subjID":"samuelvilla31","gender":"0","school":"4","age":"9"},{"start_time":1552054280966,"click_time":1552054287992,"finger_time":1552054286790,"fix_duration":1392.114882657389,"trial":7,"RT":5824,"MT":1202,"sideResp":1,"stimulus":[],"xmouse":[786,786,786,786,786,786,786,786,786,786,786,786,786,786,786,786,786,786,786,786,786,786,786,786,786,786,786,786,786,786,786,786,786,786,786,786,786,786,786,786,786,786,786,786,786,786,786,786,786,786,786,786,786,786,786,786,786,786,786,786,786,786,786,786,786,786,786,786,786,787,788,790,790,790,790,790,790,790,790,790,790,790,790,790,790,790,790,790,790,790,790,790,790,790,790,790,790,790,790,790,790,790,790,790,790,790,790,790,790,790,790,790,790,790,790,790,790,790,790,790,790,790,790,790,790,790,790,790,790,790,790,790,790,790,790,790,790,790,790,790,790,790,790,790,790,790,790,790,790,790,790,790,790,790,790,790,790,790,790,790,790,790,790,790,790,790,790,790,790,790,790,790,790,790,790,790,790,790,790,790,790,790,790,790,790,790,790,790,790,790,790,790,790,790,790,790,790,790,790,790,790,790,790,790,790,790,790,790,790,790,790,790,790,790,790,790,790,790,790,790,790,790,790,790,790,790,790,790,790,790,790,790,790,790,790,790,790,790,790,790,790,790,790,790,790,790,790,790,790,790,790,790,790,790,790,790,790,790,790,790,790,790,790,790,790,790,790,790,790,790,790,790,790,790,790,790,790,790,790,790,790,790,790,790,790,790,790,790,790,790,790,787,784,781,777,771,756,753,750,749,745,741,730,723,716,706,700,694,689,685,680,673,670,666,659,649,643,637,634,629,624,621,612,607,603,599,595,589,584,573,593,579,575,571,568,565,556,553,552,552,551,551,549,548,547,545,540,535,532,528,526,521],"ymouse":[531,531,531,531,531,531,531,531,531,531,531,531,531,531,531,531,531,531,531,531,531,531,531,531,531,531,531,531,531,531,531,531,531,531,531,531,531,531,531,531,531,531,531,531,531,531,531,531,531,531,531,531,531,531,531,531,531,531,531,531,531,531,531,531,531,531,531,531,531,531,531,530,529,529,529,529,529,529,529,529,529,529,529,529,529,529,530,532,533,534,534,534,534,534,534,534,534,534,534,534,534,534,534,534,534,534,534,534,534,534,534,534,534,534,534,534,534,534,534,534,534,534,534,534,534,534,534,534,534,534,534,534,534,534,534,534,534,534,534,534,534,534,534,534,534,534,534,534,534,534,534,534,534,534,534,534,534,534,534,534,534,534,534,534,534,534,534,534,534,534,534,534,534,534,534,534,534,534,534,534,534,534,534,534,534,534,534,534,534,534,534,534,534,534,534,534,534,534,534,534,534,534,534,534,534,534,534,534,534,534,534,534,534,534,534,534,534,534,534,534,534,534,534,534,534,534,534,534,534,534,534,534,534,534,534,534,534,534,534,534,534,534,534,534,534,534,534,534,534,534,534,534,534,534,534,534,534,534,534,534,534,534,534,534,534,534,534,534,534,534,534,534,534,534,534,534,534,534,534,534,534,534,534,534,534,534,534,534,534,534,529,498,479,460,442,430,410,404,397,389,380,372,354,343,330,311,295,282,270,258,248,231,227,216,204,188,179,172,170,167,163,160,153,150,147,145,142,139,135,130,96,89,86,83,80,77,68,63,62,61,61,60,58,57,57,56,54,54,54,53,53,53],"timestamp_mouse":[13,36,44,64,84,104,125,146,165,184,204,225,245,265,285,305,324,344,364,385,404,424,445,466,485,505,524,545,564,584,605,625,645,665,685,705,724,744,764,784,805,825,844,866,884,906,925,946,964,984,1004,1024,1045,1065,1084,1104,1125,1144,1164,1184,1204,1225,1244,1265,1284,1304,1325,1344,1365,1384,1404,1425,1444,1465,1484,1505,1525,1544,1565,1585,1605,1625,1644,1664,1684,1705,1725,1745,1764,1784,1805,1825,1845,1864,1885,1905,1925,1945,1964,1984,2004,2025,2045,2064,2084,2104,2125,2146,2166,2185,2204,2224,2245,2264,2285,2304,2326,2344,2364,2384,2404,2424,2444,2465,2484,2505,2524,2544,2565,2586,2605,2624,2645,2665,2685,2705,2724,2745,2764,2785,2805,2825,2845,2865,2886,2905,2924,2944,2965,2984,3005,3024,3045,3066,3085,3104,3124,3145,3164,3186,3205,3226,3245,3264,3285,3304,3324,3345,3364,3385,3405,3424,3445,3464,3485,3504,3524,3544,3565,3584,3604,3624,3645,3665,3684,3704,3724,3744,3765,3784,3805,3826,3845,3864,3885,3905,3924,3944,3964,3985,4006,4024,4045,4064,4084,4104,4124,4144,4164,4184,4205,4224,4245,4265,4284,4304,4324,4344,4364,4384,4406,4424,4444,4465,4484,4504,4524,4545,4565,4584,4604,4624,4644,4665,4685,4704,4725,4745,4764,4784,4804,4824,4845,4864,4884,4905,4925,4946,4965,4985,5005,5024,5044,5065,5084,5104,5124,5144,5165,5185,5204,5224,5245,5266,5285,5305,5324,5345,5365,5384,5404,5424,5445,5464,5485,5505,5524,5545,5566,5585,5605,5624,5644,5664,5685,5704,5724,5745,5765,5784,5804,5824,5844,5864,5884,5904,5925,5944,5964,5984,6004,6025,6044,6064,6084,6104,6125,6144,6164,6184,6205,6225,6244,6265,6285,6304,6324,6344,6364,6384,6404,6424,6444,6464,6484,6504,6524,6545,6564,6584,6604,6626,6644,6664,6684,6705,6725,6744,6764,6784,6804,6825,6844,6864,6884,6904,6926,6944,6964,6984,7004,7026],"xSR":741.5,"ySR":501.8,"xT1":424.9,"yT1":0,"xT2":1058.1,"yT2":0,"toosoon":0,"cond_shown":"Incongruent","ratio_trial":300,"L_num":13,"L_den":26,"R_num":12,"R_den":15,"correct_side":2,"subjID":"samuelvilla31","gender":"0","school":"4","age":"9"},{"start_time":1552054294840,"click_time":1552054296911,"finger_time":1552054296290,"fix_duration":1067.0686934705661,"trial":8,"RT":1450,"MT":621,"sideResp":2,"stimulus":[],"xmouse":[786,786,786,786,786,786,786,786,786,786,786,786,786,786,786,786,786,786,786,786,786,786,786,786,786,786,786,786,786,786,786,786,786,786,786,786,786,786,786,786,786,786,786,786,786,786,786,786,786,786,786,786,786,786,786,786,786,786,786,786,786,786,786,786,786,786,786,786,786,796,813,837,863,901,915,928,941,961,984,993,1002,1017,1034,1060,1072,1084,1099,1111,1130,1160,1168,1175,1181,1186,1187,1187,1187,1187,1187,1182,1173,1165,1160,1155],"ymouse":[546,546,546,546,546,546,546,546,546,546,546,546,546,546,546,546,546,546,546,546,546,546,546,546,546,546,546,546,546,546,546,546,546,546,546,546,546,546,546,546,546,546,546,546,546,546,546,546,546,546,546,546,546,546,546,546,546,546,546,546,546,546,546,546,546,546,546,546,546,546,538,528,516,492,480,466,450,423,386,371,358,337,315,278,258,240,220,203,176,124,109,95,85,76,72,72,72,72,72,73,75,75,75,76],"timestamp_mouse":[20,41,50,70,90,110,131,151,171,191,211,231,252,270,290,311,330,350,370,390,410,430,451,471,492,512,530,550,571,590,610,630,650,670,690,710,730,750,771,792,811,830,851,870,890,912,931,950,971,991,1011,1031,1051,1071,1091,1110,1131,1151,1171,1191,1210,1231,1251,1271,1291,1311,1331,1351,1370,1391,1410,1431,1450,1471,1490,1511,1530,1550,1572,1590,1610,1630,1650,1672,1690,1711,1730,1750,1770,1790,1810,1831,1851,1870,1891,1911,1931,1950,1970,1991,2010,2031,2050,2071],"xSR":741.5,"ySR":501.8,"xT1":424.9,"yT1":0,"xT2":1058.1,"yT2":0,"toosoon":0,"cond_shown":"Congruent","ratio_trial":200,"L_num":6,"L_den":15,"R_num":3,"R_den":15,"correct_side":1,"subjID":"samuelvilla31","gender":"0","school":"4","age":"9"},{"start_time":1552054301563,"click_time":1552054305434,"finger_time":1552054304731,"fix_duration":250,"trial":9,"RT":3168,"MT":703,"sideResp":2,"stimulus":[],"xmouse":[781,781,781,781,781,781,781,781,781,782,782,782,782,782,782,782,782,782,782,782,782,782,782,782,782,782,782,782,782,782,782,782,782,782,782,782,782,782,782,782,782,782,782,782,782,782,782,782,782,782,782,782,782,782,782,782,782,782,782,782,782,782,782,782,782,782,782,782,782,782,782,782,782,782,782,782,782,782,782,782,782,782,782,782,782,782,782,782,782,782,782,782,782,782,782,782,782,782,782,782,782,782,782,782,782,782,782,782,782,782,782,782,782,782,782,782,782,782,782,782,782,782,782,782,782,782,782,782,782,782,782,782,782,782,782,782,782,782,782,782,782,782,782,782,782,782,782,782,782,782,782,782,782,782,782,787,789,795,845,871,901,923,942,974,988,1001,1011,1022,1031,1036,1038,1039,1041,1048,1050,1054,1056,1058,1061,1065,1066,1067,1068,1070,1071,1076,1080,1081,1083,1085,1086,1087,1088,1091],"ymouse":[533,533,533,534,534,534,534,534,534,535,535,535,535,535,535,535,535,535,535,535,535,535,535,535,535,535,535,535,535,535,535,535,535,535,535,535,535,535,535,535,535,535,535,535,535,535,535,535,535,535,535,535,535,535,535,535,535,535,535,535,535,535,535,535,535,535,535,535,535,535,535,535,535,535,535,535,535,535,535,535,535,535,535,535,535,535,535,535,535,535,535,535,535,535,535,535,535,535,535,535,535,535,535,535,535,535,535,535,535,535,535,535,535,535,535,535,535,535,535,535,535,535,535,535,535,535,535,535,535,535,535,535,535,535,535,535,535,535,535,535,535,535,535,535,535,535,535,535,535,535,535,535,535,535,535,535,535,533,514,497,475,457,436,390,366,342,325,299,271,260,247,237,226,207,197,188,181,177,169,159,154,151,149,143,139,128,119,117,112,110,107,105,101,96],"timestamp_mouse":[13,33,48,68,88,108,128,147,167,187,209,229,248,267,288,307,327,348,369,388,408,429,447,467,488,508,528,549,567,587,607,627,648,668,688,708,727,748,767,788,807,829,848,867,888,908,927,949,969,988,1009,1027,1047,1067,1087,1109,1127,1148,1168,1189,1207,1227,1248,1267,1289,1308,1327,1348,1367,1388,1407,1427,1447,1468,1487,1507,1527,1548,1567,1588,1609,1628,1648,1667,1688,1708,1727,1747,1767,1789,1808,1827,1847,1867,1887,1908,1929,1948,1967,1988,2007,2027,2049,2068,2087,2108,2128,2148,2167,2187,2208,2228,2248,2268,2287,2307,2328,2347,2367,2388,2409,2428,2448,2468,2488,2507,2528,2547,2567,2587,2609,2628,2648,2667,2688,2709,2727,2749,2768,2788,2808,2828,2847,2867,2887,2908,2928,2948,2967,2989,3008,3028,3047,3068,3089,3108,3127,3147,3168,3187,3207,3228,3247,3269,3287,3307,3327,3348,3369,3387,3407,3427,3447,3469,3487,3509,3528,3548,3567,3588,3607,3627,3648,3669,3687,3707,3727,3749,3768,3787,3807,3827,3847,3871],"xSR":741.5,"ySR":501.8,"xT1":424.9,"yT1":0,"xT2":1058.1,"yT2":0,"toosoon":0,"cond_shown":"Incongruent","ratio_trial":200,"L_num":7,"L_den":15,"R_num":6,"R_den":9,"correct_side":2,"subjID":"samuelvilla31","gender":"0","school":"4","age":"9"},{"start_time":1552054314063,"click_time":1552054317053,"finger_time":1552054316550,"fix_duration":1371.7852472528516,"trial":10,"RT":2487,"MT":503,"sideResp":2,"stimulus":[],"xmouse":[791,791,791,791,791,791,791,791,791,791,791,791,791,791,791,791,791,791,791,791,791,791,791,791,791,791,791,791,791,791,791,791,791,791,791,791,791,791,791,791,791,791,791,791,791,791,791,791,791,791,791,791,791,791,791,791,791,791,791,791,791,791,791,791,791,791,791,791,791,791,791,791,791,791,791,791,791,791,791,791,791,791,791,791,791,791,791,791,791,791,791,791,791,791,791,791,791,791,791,791,791,791,791,791,791,791,791,791,791,791,791,791,791,791,791,791,791,791,791,791,791,791,802,839,883,930,942,960,977,994,1032,1054,1081,1111,1148,1193,1193,1193,1193,1193,1193,1193,1193,1193,1193,1193,1193,1193,1193,1122],"ymouse":[536,536,536,536,536,536,536,536,536,536,536,536,536,536,536,536,536,536,536,536,536,536,536,536,536,536,536,536,536,536,536,536,536,536,536,536,536,536,536,536,536,536,536,536,536,536,536,536,536,536,536,536,536,536,536,536,536,536,536,536,536,536,536,536,536,536,536,536,536,536,536,536,536,536,536,536,536,536,536,536,536,536,536,536,536,536,536,536,536,536,536,536,536,536,536,536,536,536,536,536,536,536,536,536,536,536,536,536,536,536,536,536,536,536,536,536,536,536,536,536,536,536,530,503,472,436,425,409,392,376,323,290,242,189,113,36,36,36,36,36,36,36,36,36,36,36,36,36,36,16],"timestamp_mouse":[13,40,48,67,87,108,129,147,167,187,207,227,248,267,288,307,328,347,369,387,407,428,449,468,488,509,528,547,567,587,608,629,648,667,687,708,728,748,767,787,807,829,847,868,889,909,928,948,968,989,1008,1028,1047,1067,1088,1109,1128,1148,1168,1189,1208,1227,1247,1268,1288,1307,1327,1348,1368,1389,1408,1428,1448,1467,1488,1508,1528,1548,1569,1587,1607,1627,1649,1669,1687,1708,1727,1747,1768,1787,1808,1828,1847,1867,1889,1908,1929,1948,1968,1988,2008,2027,2048,2069,2088,2107,2128,2148,2168,2187,2207,2228,2247,2268,2289,2308,2327,2349,2367,2388,2408,2427,2448,2467,2487,2507,2528,2547,2567,2588,2608,2627,2647,2667,2688,2708,2728,2748,2767,2788,2807,2828,2848,2867,2887,2907,2927,2947,2968,2990],"xSR":741.5,"ySR":501.8,"xT1":424.9,"yT1":0,"xT2":1058.1,"yT2":0,"toosoon":0,"cond_shown":"Congruent","ratio_trial":300,"L_num":1,"L_den":3,"R_num":19,"R_den":30,"correct_side":2,"subjID":"samuelvilla31","gender":"0","school":"4","age":"9"},{"start_time":1552054325401,"click_time":1552054327711,"finger_time":1552054327151,"fix_duration":1108.6672332147075,"trial":11,"RT":1750,"MT":560,"sideResp":1,"stimulus":[],"xmouse":[798,798,798,798,798,798,798,798,798,798,798,798,798,798,798,798,798,798,798,798,798,798,798,798,798,798,798,798,798,798,798,798,798,798,798,798,798,798,798,798,798,798,798,798,798,798,798,798,798,798,798,798,798,798,798,798,798,798,798,798,798,798,798,798,798,798,798,798,798,798,798,798,798,798,798,798,798,798,798,798,798,798,798,798,798,798,796,793,781,745,730,721,710,704,691,682,674,666,650,612,596,587,585,582,574,568,557,545,536,529,528,528,528,527,525,523],"ymouse":[533,533,533,533,533,533,533,533,533,533,533,533,533,533,533,533,533,533,533,533,533,533,533,533,533,533,533,533,533,533,533,533,533,533,533,533,533,533,533,533,533,533,533,533,533,533,533,533,533,533,533,533,533,533,533,533,533,533,533,533,533,533,533,533,533,533,533,533,533,533,533,533,533,533,533,533,532,532,532,532,532,532,532,532,532,532,521,496,448,318,266,233,202,181,159,151,146,139,130,107,99,94,93,91,86,81,70,60,51,47,46,46,46,46,46,47],"timestamp_mouse":[14,40,51,71,90,109,130,151,170,190,209,230,249,269,290,310,330,349,369,391,410,429,449,469,490,510,529,551,569,589,609,629,650,669,690,710,729,750,769,789,809,829,851,871,891,910,930,950,969,991,1034,1034,1051,1071,1090,1110,1129,1151,1170,1190,1210,1230,1249,1270,1290,1311,1330,1350,1369,1389,1409,1430,1451,1470,1489,1509,1531,1550,1570,1589,1609,1630,1649,1670,1689,1709,1729,1750,1770,1789,1809,1829,1850,1870,1889,1911,1929,1950,1969,1989,2011,2030,2049,2070,2090,2109,2129,2151,2171,2190,2209,2230,2249,2269,2290,2310],"xSR":741.5,"ySR":501.8,"xT1":424.9,"yT1":0,"xT2":1058.1,"yT2":0,"toosoon":0,"cond_shown":"Incongruent","ratio_trial":300,"L_num":4,"L_den":20,"R_num":2,"R_den":4,"correct_side":2,"subjID":"samuelvilla31","gender":"0","school":"4","age":"9"},{"start_time":1552054333927,"click_time":1552054335591,"finger_time":1552054335191,"fix_duration":774.4219894977423,"trial":12,"RT":1264,"MT":400,"sideResp":1,"stimulus":[],"xmouse":[784,784,784,786,786,786,786,786,786,786,786,786,786,786,786,786,786,786,786,786,786,786,786,786,786,786,786,786,786,786,786,786,786,786,786,786,786,786,786,786,786,786,786,786,786,786,786,786,786,786,786,786,786,786,786,786,786,786,786,786,786,785,781,775,760,721,686,667,650,620,607,599,595,592,591,591,591,591,591,588,577,557,535,511],"ymouse":[546,546,546,546,546,546,546,546,546,546,546,546,546,546,546,546,546,546,546,546,546,546,546,546,546,546,546,546,546,546,546,546,546,546,546,546,546,546,546,546,546,546,546,546,546,546,546,546,546,546,546,546,546,546,546,546,546,546,546,546,546,531,523,498,463,374,299,258,222,174,157,146,141,137,136,135,135,135,135,134,127,117,104,89],"timestamp_mouse":[8,23,43,65,83,103,123,143,164,184,205,224,244,263,284,303,323,344,364,384,404,423,443,464,483,505,524,543,564,584,603,624,644,663,684,705,724,744,763,783,804,825,845,864,885,903,923,943,963,985,1004,1023,1044,1063,1084,1103,1124,1143,1163,1184,1203,1224,1244,1264,1283,1304,1323,1344,1364,1384,1404,1423,1443,1463,1484,1503,1523,1544,1564,1583,1604,1623,1643,1664],"xSR":741.5,"ySR":501.8,"xT1":424.9,"yT1":0,"xT2":1058.1,"yT2":0,"toosoon":0,"cond_shown":"Incongruent","ratio_trial":300,"L_num":4,"L_den":20,"R_num":2,"R_den":4,"correct_side":2,"subjID":"samuelvilla31","gender":"0","school":"4","age":"9"},{"start_time":1552054338168,"click_time":1552054339830,"finger_time":1552054338831,"fix_duration":917.9131767421871,"trial":13,"RT":663,"MT":999,"sideResp":2,"stimulus":[],"xmouse":[787,787,787,787,787,788,790,792,792,792,792,792,792,792,792,792,792,792,792,792,792,792,792,792,792,793,793,793,793,793,795,802,813,907,925,935,941,954,960,966,970,974,985,988,991,994,997,1007,1014,1017,1019,1021,1027,1041,1052,1060,1063,1064,1064,1064,1064,1064,1064,1064,1066,1068,1070,1073,1074,1076,1077,1079,1080,1080,1080,1080,1080,1080,1080,1080,1080,1081,1084,1088],"ymouse":[526,526,526,526,527,529,533,537,538,538,538,538,538,538,538,538,538,538,538,538,538,538,538,538,538,538,538,538,538,538,538,537,530,468,454,448,442,430,421,415,410,405,391,386,380,375,368,341,321,300,281,268,247,209,184,162,148,147,147,147,147,147,147,146,143,140,137,133,131,129,127,123,120,120,120,120,120,120,120,119,116,111,103,86],"timestamp_mouse":[19,37,43,62,82,104,122,143,162,183,204,222,243,262,283,302,324,343,363,382,404,422,443,463,483,504,522,542,562,582,603,622,643,663,682,702,722,743,762,782,802,823,843,862,882,903,923,943,962,983,1002,1022,1042,1063,1082,1103,1123,1142,1163,1182,1202,1222,1242,1262,1282,1303,1322,1344,1362,1382,1402,1424,1443,1463,1484,1502,1523,1542,1564,1584,1603,1622,1642,1662],"xSR":741.5,"ySR":501.8,"xT1":424.9,"yT1":0,"xT2":1058.1,"yT2":0,"toosoon":0,"cond_shown":"Incongruent","ratio_trial":300,"L_num":13,"L_den":26,"R_num":12,"R_den":15,"correct_side":2,"subjID":"samuelvilla31","gender":"0","school":"4","age":"9"},{"start_time":1552054341723,"click_time":1552054343450,"finger_time":1552054342551,"fix_duration":250,"trial":14,"RT":828,"MT":899,"sideResp":2,"stimulus":[],"xmouse":[794,795,795,795,795,795,795,795,795,795,795,795,795,795,795,795,795,795,795,795,795,795,795,795,795,795,795,795,795,795,795,795,795,795,795,795,795,795,795,794,813,849,864,899,917,947,960,966,969,972,978,982,990,994,998,1005,1012,1019,1025,1031,1038,1040,1040,1041,1041,1041,1041,1041,1041,1041,1041,1041,1041,1041,1041,1041,1041,1041,1041,1041,1041,1041,1041,1042,1044,1053,1064],"ymouse":[546,548,548,549,549,549,549,550,550,550,551,551,551,551,551,551,551,551,551,551,551,551,551,551,551,551,551,551,551,551,551,551,551,551,551,551,551,551,551,550,532,500,486,453,433,402,389,381,376,372,360,349,329,315,301,266,240,214,179,145,92,78,66,63,62,62,62,62,62,62,62,62,62,62,61,61,61,61,61,61,61,61,61,61,61,61,65],"timestamp_mouse":[16,41,48,67,87,108,128,148,168,188,208,227,248,267,289,308,327,347,368,388,408,429,449,467,487,508,527,548,567,589,607,628,647,667,688,709,727,747,767,787,807,828,847,868,888,908,927,947,967,987,1007,1027,1047,1067,1087,1107,1128,1148,1168,1187,1208,1227,1247,1267,1287,1307,1328,1348,1368,1388,1407,1428,1447,1468,1487,1508,1528,1549,1568,1587,1607,1627,1647,1667,1687,1707,1727],"xSR":741.5,"ySR":501.8,"xT1":424.9,"yT1":0,"xT2":1058.1,"yT2":0,"toosoon":0,"cond_shown":"Congruent","ratio_trial":200,"L_num":16,"L_den":20,"R_num":12,"R_den":20,"correct_side":1,"subjID":"samuelvilla31","gender":"0","school":"4","age":"9"},{"start_time":1552054348002,"click_time":1552054349151,"finger_time":1552054348951,"fix_duration":250,"trial":15,"RT":949,"MT":200,"sideResp":1,"stimulus":[],"xmouse":[770,770,770,770,770,770,770,770,770,770,770,770,770,770,770,770,771,772,773,775,777,778,778,778,778,778,778,778,778,778,778,778,778,778,778,778,778,778,778,778,778,778,779,779,778,772,760,707,677,652,634,600,589,577,565,553,536,523],"ymouse":[558,558,558,558,558,558,558,558,558,558,558,558,558,558,558,558,558,558,558,558,558,556,556,556,556,556,556,556,556,556,556,556,556,556,556,556,556,556,556,556,556,556,555,555,551,542,522,447,396,349,313,228,199,176,157,138,114,90],"timestamp_mouse":[13,45,49,68,88,108,129,150,168,188,208,228,248,269,290,309,328,349,368,389,409,429,449,469,489,508,528,548,569,589,610,629,649,668,688,708,728,749,769,789,809,829,849,868,889,909,928,949,968,988,1008,1029,1049,1070,1089,1109,1128,1149],"xSR":741.5,"ySR":501.8,"xT1":424.9,"yT1":0,"xT2":1058.1,"yT2":0,"toosoon":0,"cond_shown":"Incongruent","ratio_trial":200,"L_num":7,"L_den":15,"R_num":6,"R_den":9,"correct_side":2,"subjID":"samuelvilla31","gender":"0","school":"4","age":"9"},{"start_time":1552054355282,"click_time":1552054356671,"finger_time":1552054356170,"fix_duration":888.4357652044441,"trial":16,"RT":888,"MT":501,"sideResp":2,"stimulus":[],"xmouse":[780,780,780,780,780,780,780,780,780,780,780,780,780,780,781,781,781,781,781,781,781,781,781,781,781,781,781,781,781,781,781,781,781,781,781,781,781,781,781,781,781,781,784,807,821,838,850,858,873,880,889,903,919,934,960,971,978,985,994,1003,1006,1010,1016,1029,1036,1046,1059,1064,1084,1114],"ymouse":[554,554,554,553,553,553,553,553,552,552,552,552,552,551,550,550,550,550,550,550,550,550,550,550,550,550,550,550,550,550,550,550,550,550,550,550,550,550,550,550,550,546,541,502,478,452,431,415,394,384,372,353,331,306,261,238,225,210,195,180,175,169,163,148,141,133,124,121,106,83],"timestamp_mouse":[13,36,49,68,88,109,129,148,168,187,208,227,247,268,289,309,328,348,367,389,408,429,448,467,489,507,527,549,568,588,609,627,648,668,688,708,729,749,768,788,808,828,848,867,888,907,927,948,969,988,1007,1027,1048,1068,1088,1108,1127,1147,1167,1188,1208,1228,1247,1269,1287,1308,1327,1348,1367,1388],"xSR":741.5,"ySR":501.8,"xT1":424.9,"yT1":0,"xT2":1058.1,"yT2":0,"toosoon":0,"cond_shown":"Congruent","ratio_trial":200,"L_num":6,"L_den":12,"R_num":7,"R_den":10,"correct_side":2,"subjID":"samuelvilla31","gender":"0","school":"4","age":"9"},{"start_time":1552054363803,"click_time":1552054365610,"finger_time":1552054365071,"fix_duration":611.2322322849853,"trial":17,"RT":1268,"MT":539,"sideResp":1,"stimulus":[],"xmouse":[785,785,785,785,785,785,785,785,785,785,785,785,785,785,785,785,785,785,785,785,785,785,785,785,785,785,785,785,785,785,785,785,785,785,785,785,785,785,785,785,785,785,785,785,785,785,785,785,785,785,785,785,785,785,785,785,785,785,785,785,785,784,780,760,751,746,742,735,717,701,691,681,674,653,635,619,607,601,594,591,587,584,581,581,581,580,576,564,536,527,520],"ymouse":[539,539,539,539,539,539,539,539,539,539,539,539,539,539,539,539,539,539,539,539,539,539,539,539,539,539,539,539,539,539,539,539,539,539,539,539,539,539,539,539,539,539,539,539,539,539,539,539,539,539,539,539,539,539,539,539,539,539,539,539,539,539,537,491,470,451,437,417,375,346,323,305,286,251,224,201,180,170,160,156,151,146,143,142,142,142,139,130,110,103,99],"timestamp_mouse":[13,39,46,68,87,106,126,146,166,186,207,227,247,266,286,307,328,347,367,387,407,427,446,466,486,508,528,546,567,586,606,628,646,666,687,708,728,747,767,787,808,827,848,867,888,907,928,946,966,987,1007,1027,1048,1067,1086,1107,1128,1147,1167,1187,1207,1227,1246,1268,1286,1306,1326,1347,1367,1386,1406,1427,1448,1467,1486,1506,1526,1546,1568,1586,1606,1626,1647,1667,1687,1707,1728,1747,1768,1787,1807],"xSR":741.5,"ySR":501.8,"xT1":424.9,"yT1":0,"xT2":1058.1,"yT2":0,"toosoon":0,"cond_shown":"Congruent","ratio_trial":100,"L_num":3,"L_den":6,"R_num":2,"R_den":5,"correct_side":1,"subjID":"samuelvilla31","gender":"0","school":"4","age":"9"},{"start_time":1552054371810,"click_time":1552054374091,"finger_time":1552054373450,"fix_duration":1279.334154205451,"trial":18,"RT":1640,"MT":641,"sideResp":2,"stimulus":[],"xmouse":[786,786,786,786,786,786,786,786,786,786,786,786,786,786,786,786,786,786,786,786,786,786,786,786,786,786,786,786,786,786,786,786,786,786,786,786,786,786,786,786,786,786,786,786,786,786,786,786,786,786,786,786,786,786,786,786,786,786,786,786,786,786,786,786,786,786,786,786,786,786,786,786,786,786,786,786,786,787,788,792,797,801,810,825,878,902,927,964,994,1037,1056,1071,1085,1095,1117,1125,1132,1140,1147,1156,1158,1160,1162,1163,1163,1164,1164,1164,1164,1164,1164,1164,1164,1164,1158],"ymouse":[512,512,512,512,512,512,512,512,512,512,512,512,512,512,512,512,512,512,512,512,512,512,512,512,512,512,512,512,512,512,512,512,512,512,512,512,512,512,512,512,512,512,512,512,512,512,512,512,512,512,512,512,512,512,512,512,512,512,512,512,512,512,512,512,512,512,512,512,512,512,512,512,512,512,512,512,512,511,511,508,505,502,497,489,458,442,424,393,367,326,310,296,282,269,237,224,211,195,178,140,125,115,106,100,94,88,88,88,88,88,88,88,88,88,78],"timestamp_mouse":[1,35,39,61,81,100,120,139,159,180,199,219,239,261,281,300,320,340,361,380,400,419,439,460,480,499,520,540,559,580,600,620,639,661,680,701,719,740,759,779,801,820,841,860,879,901,920,940,959,980,1000,1020,1040,1059,1080,1100,1121,1139,1160,1179,1201,1221,1241,1261,1280,1300,1319,1341,1361,1380,1400,1420,1441,1460,1479,1500,1521,1540,1560,1580,1600,1619,1640,1660,1681,1699,1720,1740,1760,1780,1800,1820,1839,1860,1881,1899,1920,1941,1960,1981,1999,2020,2041,2059,2079,2100,2120,2140,2161,2181,2201,2220,2240,2261,2281],"xSR":741.5,"ySR":501.8,"xT1":424.9,"yT1":0,"xT2":1058.1,"yT2":0,"toosoon":0,"cond_shown":"Incongruent","ratio_trial":300,"L_num":8,"L_den":10,"R_num":9,"R_den":18,"correct_side":1,"subjID":"samuelvilla31","gender":"0","school":"4","age":"9"},{"start_time":1552054398343,"click_time":1552054401431,"finger_time":1552054400910,"fix_duration":992.3225832373195,"trial":19,"RT":2567,"MT":521,"sideResp":2,"stimulus":[],"xmouse":[746,746,746,746,746,746,746,746,746,746,746,746,746,746,746,746,746,746,746,746,746,746,746,746,746,746,746,746,746,746,746,746,746,746,746,746,746,746,746,746,746,746,746,746,746,746,746,746,749,752,761,762,763,763,763,763,763,763,763,763,763,763,763,763,763,763,763,763,763,763,763,763,763,763,763,763,763,763,763,763,763,763,763,763,763,763,764,764,764,764,764,764,764,764,764,764,764,764,764,764,764,764,764,764,764,764,767,768,771,772,776,777,777,777,777,777,777,777,777,777,777,777,777,777,777,777,789,808,829,846,864,895,909,923,945,958,982,999,1010,1019,1034,1039,1043,1046,1047,1048,1048,1048,1048,1048,1048,1051,1054,1057,1059],"ymouse":[553,553,553,553,553,553,553,553,553,553,553,553,553,553,553,553,553,553,553,553,553,553,553,553,553,553,553,553,553,553,553,553,553,553,553,553,553,553,553,553,553,553,553,553,553,553,553,553,552,552,552,552,552,552,552,552,552,552,552,552,552,552,552,552,552,552,552,552,552,552,552,552,552,552,552,552,552,552,552,552,552,552,552,552,552,552,536,524,518,516,515,515,515,515,515,515,515,515,515,515,515,515,515,515,515,515,516,516,517,518,520,521,521,521,521,521,521,521,521,521,521,521,521,521,521,521,519,511,500,489,476,445,426,406,369,341,282,245,214,181,129,111,99,90,86,85,85,85,85,85,84,84,83,83,82],"timestamp_mouse":[13,39,46,68,87,107,126,147,168,188,206,226,247,268,286,306,328,348,366,388,407,426,448,467,486,507,526,546,568,586,606,626,648,668,687,706,726,748,767,788,807,827,848,866,887,906,927,947,968,987,1008,1028,1048,1068,1087,1106,1127,1146,1168,1186,1206,1228,1246,1267,1288,1307,1327,1347,1368,1387,1407,1427,1447,1467,1486,1507,1526,1547,1567,1588,1607,1628,1647,1667,1688,1706,1727,1746,1766,1786,1807,1827,1848,1866,1886,1907,1927,1946,1967,1987,2007,2028,2047,2066,2087,2106,2128,2146,2166,2187,2209,2228,2247,2266,2287,2306,2326,2347,2367,2387,2406,2427,2448,2466,2486,2508,2528,2547,2567,2586,2606,2626,2647,2667,2688,2708,2727,2747,2766,2787,2808,2826,2846,2866,2887,2908,2927,2947,2966,2986,3008,3027,3048,3067,3088],"xSR":741.5,"ySR":501.8,"xT1":424.9,"yT1":0,"xT2":1058.1,"yT2":0,"toosoon":0,"cond_shown":"Incongruent","ratio_trial":200,"L_num":7,"L_den":15,"R_num":6,"R_den":9,"correct_side":2,"subjID":"samuelvilla31","gender":"0","school":"4","age":"9"},{"start_time":1552054409143,"click_time":1552054411310,"finger_time":1552054410690,"fix_duration":1371.886539169234,"trial":20,"RT":1547,"MT":620,"sideResp":1,"stimulus":[],"xmouse":[785,785,785,785,785,785,785,785,785,785,785,785,785,785,785,785,785,785,785,785,785,785,785,785,785,785,785,785,785,785,785,785,785,785,785,785,785,785,785,785,785,785,785,785,785,785,785,785,785,785,785,785,785,785,785,785,785,785,785,785,785,785,785,785,785,785,785,785,785,785,785,785,785,785,785,784,780,759,740,716,700,683,651,639,633,630,628,618,607,597,586,574,568,566,563,559,553,550,548,545,544,541,534,532,530,529,525,524,522],"ymouse":[545,545,545,545,545,545,545,545,545,545,545,545,545,545,545,545,545,545,545,545,545,545,545,545,545,545,545,545,545,545,545,545,545,545,545,545,545,545,545,545,545,545,545,545,545,545,545,545,545,545,545,545,545,545,545,545,545,545,545,545,545,545,545,545,545,545,545,545,545,545,545,545,545,545,545,543,536,496,464,426,402,375,326,309,300,295,291,274,255,237,219,197,183,177,168,160,145,138,136,130,129,124,114,111,108,107,102,100,98],"timestamp_mouse":[14,36,47,66,87,108,127,148,167,188,207,227,246,267,288,308,327,347,367,388,408,427,448,467,488,506,527,547,567,588,608,627,648,666,687,708,726,747,767,788,807,828,847,868,888,908,927,947,967,988,1007,1027,1047,1066,1087,1108,1128,1148,1166,1186,1208,1228,1247,1268,1288,1306,1326,1346,1368,1387,1406,1427,1448,1467,1487,1507,1528,1547,1567,1586,1606,1627,1647,1666,1687,1707,1728,1746,1767,1787,1808,1828,1846,1866,1886,1908,1928,1946,1966,1986,2006,2026,2046,2066,2087,2107,2129,2146,2166],"xSR":741.5,"ySR":501.8,"xT1":424.9,"yT1":0,"xT2":1058.1,"yT2":0,"toosoon":0,"cond_shown":"Incongruent","ratio_trial":300,"L_num":13,"L_den":26,"R_num":12,"R_den":15,"correct_side":2,"subjID":"samuelvilla31","gender":"0","school":"4","age":"9"},{"start_time":1552054415914,"click_time":1552054417929,"finger_time":1552054417149,"fix_duration":1263.3974400134596,"trial":21,"RT":1235,"MT":780,"sideResp":2,"stimulus":[],"xmouse":[791,791,790,790,790,790,790,790,790,790,790,790,790,790,790,790,790,790,790,790,790,790,790,790,790,790,790,790,790,790,790,790,790,790,790,790,790,790,790,790,790,790,790,790,790,790,790,790,790,790,790,790,790,790,790,789,789,789,801,811,823,833,843,853,878,896,923,956,1012,1094,1131,1165,1194,1209,1209,1209,1209,1209,1209,1209,1209,1209,1209,1209,1209,1209,1209,1209,1209,1209,1209,1209,1209,1209,1209,1209,1209,1209,1209,1159,1158],"ymouse":[549,549,549,549,549,549,549,549,549,549,549,549,549,549,549,549,549,549,549,549,549,549,549,549,549,549,549,549,549,549,549,549,549,549,549,549,549,549,549,549,549,549,549,549,549,549,549,549,549,549,549,549,549,549,549,549,549,546,532,521,509,498,485,474,446,424,390,348,275,170,117,71,29,5,5,5,5,5,5,5,5,5,5,5,5,5,5,5,5,5,5,5,5,5,5,5,5,5,5,2,3],"timestamp_mouse":[34,35,55,75,96,116,136,156,175,195,216,235,255,275,296,315,336,356,375,397,415,436,457,476,495,516,535,555,575,597,615,636,656,676,696,715,736,755,776,796,815,836,856,876,896,916,935,955,976,995,1015,1035,1055,1076,1097,1116,1135,1156,1176,1195,1215,1235,1255,1276,1296,1316,1335,1356,1375,1395,1415,1436,1455,1477,1496,1516,1536,1556,1576,1595,1616,1635,1656,1675,1696,1715,1735,1756,1776,1795,1815,1836,1855,1876,1896,1916,1935,1956,1975,1995,2015],"xSR":741.5,"ySR":501.8,"xT1":424.9,"yT1":0,"xT2":1058.1,"yT2":0,"toosoon":0,"cond_shown":"Incongruent","ratio_trial":200,"L_num":7,"L_den":10,"R_num":8,"R_den":16,"correct_side":1,"subjID":"samuelvilla31","gender":"0","school":"4","age":"9"},{"start_time":1552054421166,"click_time":1552054422309,"finger_time":1552054421670,"fix_duration":356.173933571202,"trial":22,"RT":504,"MT":639,"sideResp":1,"stimulus":[],"xmouse":[793,793,793,793,793,793,793,793,793,793,793,793,793,793,793,793,793,793,793,793,793,793,793,793,791,788,775,768,763,759,757,757,756,756,756,756,756,755,749,738,724,708,653,645,629,621,612,599,597,597,597,597,592,584,572,550,517,440],"ymouse":[546,546,546,546,546,546,546,546,546,546,546,546,546,546,546,546,546,546,546,546,546,546,546,538,519,495,419,378,342,318,298,284,276,276,276,276,276,275,267,254,238,219,163,156,140,133,129,126,126,126,126,126,124,121,117,112,107,96],"timestamp_mouse":[13,23,45,64,83,104,124,144,164,185,203,223,244,263,284,304,323,344,364,383,404,423,443,464,483,504,525,543,563,584,603,624,645,664,684,703,724,743,764,785,803,823,844,863,883,904,923,943,963,983,1003,1023,1043,1064,1083,1104,1123,1143],"xSR":741.5,"ySR":501.8,"xT1":424.9,"yT1":0,"xT2":1058.1,"yT2":0,"toosoon":0,"cond_shown":"Incongruent","ratio_trial":200,"L_num":1,"L_den":2,"R_num":3,"R_den":10,"correct_side":1,"subjID":"samuelvilla31","gender":"0","school":"4","age":"9"},{"start_time":1552054428849,"click_time":1552054430949,"finger_time":1552054430149,"fix_duration":518.9744893740515,"trial":23,"RT":1300,"MT":800,"sideResp":2,"stimulus":[],"xmouse":[778,778,778,778,779,779,780,780,780,781,781,781,781,781,782,782,783,783,784,785,786,787,788,788,788,788,788,788,788,788,788,788,788,788,788,788,788,788,788,788,788,788,788,788,788,788,788,788,788,788,788,788,788,788,788,788,788,788,788,788,790,794,799,807,823,844,853,880,897,929,940,948,952,954,955,957,963,967,970,978,986,994,1002,1010,1020,1028,1038,1049,1054,1061,1062,1065,1068,1071,1077,1080,1084,1089,1095,1101,1101,1102,1102,1102,1102,1102],"ymouse":[555,555,555,555,555,555,555,555,555,555,555,555,555,555,555,555,555,554,554,553,553,552,551,550,550,550,550,550,550,550,550,550,550,550,550,550,550,550,550,550,550,550,550,550,550,550,550,550,550,550,550,550,550,550,550,550,550,550,550,550,548,544,539,529,510,485,475,442,420,383,370,359,351,348,344,340,325,313,302,279,262,245,230,218,204,195,188,183,178,173,172,170,168,165,159,155,151,140,130,115,111,109,107,106,102,95],"timestamp_mouse":[9,20,45,61,81,101,121,141,161,180,200,220,241,261,280,301,320,340,361,380,400,421,440,461,481,500,522,541,560,581,600,621,641,660,680,701,721,740,762,781,801,820,840,861,881,901,921,941,961,980,1001,1020,1040,1060,1081,1100,1121,1140,1160,1181,1200,1222,1240,1260,1280,1300,1320,1341,1360,1380,1400,1421,1440,1461,1480,1500,1520,1540,1560,1583,1600,1621,1640,1661,1680,1700,1720,1741,1762,1780,1801,1821,1841,1860,1880,1901,1921,1940,1960,1980,2000,2021,2042,2061,2081,2100],"xSR":741.5,"ySR":501.8,"xT1":424.9,"yT1":0,"xT2":1058.1,"yT2":0,"toosoon":0,"cond_shown":"Congruent","ratio_trial":300,"L_num":24,"L_den":30,"R_num":2,"R_den":4,"correct_side":1,"subjID":"samuelvilla31","gender":"0","school":"4","age":"9"},{"start_time":1552054437118,"click_time":1552054439811,"finger_time":1552054439209,"fix_duration":1367.6802906168416,"trial":24,"RT":2091,"MT":602,"sideResp":1,"stimulus":[],"xmouse":[792,792,792,791,791,791,791,791,791,791,791,791,791,791,791,791,791,791,791,791,791,791,791,791,791,791,791,791,791,791,791,791,791,791,791,791,791,791,791,791,791,791,791,791,791,791,791,791,791,791,791,791,791,791,791,791,791,791,791,791,791,791,791,791,791,791,791,791,791,791,791,791,791,791,791,791,791,791,791,791,791,791,791,791,791,791,791,791,791,791,791,791,791,791,791,791,791,791,791,791,791,791,789,783,775,762,730,723,707,702,697,683,676,668,660,649,618,595,595,595,595,595,595,595,595,595,595,595,595,595,595,595,595,595,467],"ymouse":[539,539,538,538,538,538,538,538,538,538,538,538,538,538,538,538,538,538,538,538,538,538,538,538,538,538,538,538,538,538,538,538,538,538,538,538,538,538,538,538,538,538,538,538,538,538,538,538,538,538,538,538,538,538,538,538,538,538,538,538,538,538,538,538,538,538,538,538,538,538,538,538,538,538,538,538,538,538,538,538,538,538,538,538,538,538,538,538,538,538,538,538,538,538,538,538,538,538,538,538,538,538,528,508,480,445,366,349,308,288,270,237,224,212,199,180,120,66,66,66,66,66,66,66,66,66,66,66,66,66,66,66,66,66,4],"timestamp_mouse":[15,43,52,71,92,112,131,152,172,191,212,232,251,271,292,313,332,352,371,391,411,432,452,472,492,511,532,553,571,591,612,631,652,671,693,711,732,751,771,792,813,832,852,871,892,911,932,951,971,992,1014,1032,1051,1073,1091,1111,1132,1151,1173,1192,1211,1232,1252,1272,1292,1311,1331,1351,1372,1391,1411,1431,1451,1473,1493,1512,1532,1551,1573,1592,1611,1631,1651,1673,1692,1712,1731,1751,1771,1792,1812,1833,1851,1872,1892,1912,1932,1951,1971,1991,2012,2032,2052,2071,2091,2111,2132,2152,2171,2192,2211,2232,2252,2272,2291,2311,2331,2352,2371,2392,2411,2431,2452,2472,2492,2512,2531,2551,2571,2591,2611,2631,2652,2672,2692],"xSR":741.5,"ySR":501.8,"xT1":424.9,"yT1":0,"xT2":1058.1,"yT2":0,"toosoon":0,"cond_shown":"Congruent","ratio_trial":100,"L_num":11,"L_den":22,"R_num":6,"R_den":15,"correct_side":1,"subjID":"samuelvilla31","gender":"0","school":"4","age":"9"},{"start_time":1552054443999,"click_time":1552054445869,"finger_time":1552054445409,"fix_duration":847.8083843042757,"trial":25,"RT":1410,"MT":460,"sideResp":2,"stimulus":[],"xmouse":[788,788,788,788,788,788,788,788,788,788,788,788,788,788,788,788,788,788,788,788,788,788,788,788,788,788,788,788,788,788,788,788,788,788,788,788,788,788,788,788,788,788,788,788,788,788,788,788,788,788,788,788,788,788,788,788,788,788,788,788,788,788,788,788,788,788,788,788,802,822,842,862,896,921,930,934,937,939,949,956,962,973,988,995,1002,1007,1011,1014,1019,1027,1031,1052,1074,1077],"ymouse":[545,545,545,545,545,545,545,545,545,545,545,545,545,545,545,545,545,545,545,545,545,545,545,545,545,545,545,545,545,545,545,545,545,545,545,545,545,545,545,545,545,545,545,545,545,545,545,545,545,545,545,545,545,545,545,545,545,545,545,545,545,545,545,545,545,545,545,545,534,520,503,485,436,391,376,369,365,361,340,326,312,284,240,223,209,196,188,184,175,163,158,129,103,99],"timestamp_mouse":[12,36,50,70,90,110,130,151,170,190,210,230,251,270,290,311,330,350,371,391,410,432,451,471,490,510,532,550,570,591,610,631,650,670,691,711,731,751,770,791,812,831,851,871,890,911,931,951,970,990,1011,1032,1051,1071,1090,1110,1130,1150,1171,1192,1210,1231,1251,1271,1291,1311,1330,1350,1370,1391,1410,1431,1450,1471,1491,1510,1531,1552,1570,1590,1610,1631,1652,1670,1692,1711,1732,1751,1770,1790,1810,1830,1852,1870],"xSR":741.5,"ySR":501.8,"xT1":424.9,"yT1":0,"xT2":1058.1,"yT2":0,"toosoon":0,"cond_shown":"Incongruent","ratio_trial":200,"L_num":3,"L_den":10,"R_num":1,"R_den":2,"correct_side":2,"subjID":"samuelvilla31","gender":"0","school":"4","age":"9"},{"start_time":1552054449395,"click_time":1552054451271,"finger_time":1552054450849,"fix_duration":545.0314926293709,"trial":26,"RT":1454,"MT":422,"sideResp":1,"stimulus":[],"xmouse":[815,815,815,815,813,811,808,806,806,806,806,806,806,806,806,806,806,806,806,806,806,806,806,806,806,806,806,806,806,806,806,806,806,806,806,806,806,806,806,806,806,806,806,806,806,806,806,806,806,806,806,806,806,806,806,806,806,806,806,806,806,806,806,806,806,806,806,806,806,806,806,800,779,714,687,673,664,657,646,639,632,626,617,606,606,606,606,606,606,606,606,606,606,520],"ymouse":[546,546,546,546,546,545,543,542,542,542,542,542,542,542,542,542,542,542,542,542,542,542,542,542,542,542,542,542,542,542,542,542,542,542,542,542,542,542,542,542,542,542,542,542,542,542,542,542,542,542,542,542,542,542,542,542,542,542,542,542,542,542,542,542,542,542,542,542,542,542,540,526,480,324,258,213,191,170,131,101,71,49,28,11,11,11,11,11,11,11,11,11,11,4],"timestamp_mouse":[14,37,54,75,94,114,135,154,174,195,214,234,254,276,294,315,334,354,374,395,415,435,455,474,494,516,534,554,574,595,614,634,654,674,695,715,735,755,774,794,814,836,855,874,894,915,936,955,974,996,1016,1034,1055,1074,1095,1115,1135,1155,1174,1194,1215,1234,1255,1274,1295,1314,1335,1354,1374,1394,1415,1435,1454,1475,1494,1515,1534,1554,1575,1595,1614,1635,1654,1676,1694,1715,1735,1754,1775,1794,1814,1834,1854,1876],"xSR":741.5,"ySR":501.8,"xT1":424.9,"yT1":0,"xT2":1058.1,"yT2":0,"toosoon":0,"cond_shown":"Incongruent","ratio_trial":200,"L_num":3,"L_den":4,"R_num":11,"R_den":20,"correct_side":1,"subjID":"samuelvilla31","gender":"0","school":"4","age":"9"},{"start_time":1552054455487,"click_time":1552054456989,"finger_time":1552054456389,"fix_duration":856.8819194765684,"trial":27,"RT":902,"MT":600,"sideResp":1,"stimulus":[],"xmouse":[789,789,789,789,789,789,789,789,789,789,789,789,789,789,789,789,789,789,789,789,789,789,789,789,789,789,789,789,789,789,789,789,789,789,789,789,789,789,789,789,789,789,789,789,787,770,755,734,707,680,680,680,680,680,680,680,680,680,680,680,680,680,680,680,680,680,680,680,680,680,680,680,680,527,525,522],"ymouse":[556,556,556,556,556,556,556,556,556,556,556,556,556,556,556,556,556,556,556,556,556,556,556,556,556,556,556,556,556,556,556,556,556,556,556,556,556,556,556,556,556,556,556,556,533,439,351,247,124,29,29,29,29,29,29,29,29,29,29,29,29,29,29,29,29,29,29,29,29,29,29,29,29,0,2,8],"timestamp_mouse":[13,37,43,64,82,103,123,142,162,184,203,222,243,262,283,303,322,344,363,385,402,422,442,462,483,502,524,543,562,582,602,623,642,662,682,703,723,742,763,782,803,824,842,862,882,902,923,943,964,987,1003,1022,1043,1062,1082,1102,1123,1143,1163,1183,1202,1222,1242,1263,1283,1303,1322,1342,1363,1383,1402,1422,1443,1463,1482,1502],"xSR":741.5,"ySR":501.8,"xT1":424.9,"yT1":0,"xT2":1058.1,"yT2":0,"toosoon":0,"cond_shown":"Incongruent","ratio_trial":100,"L_num":3,"L_den":9,"R_num":7,"R_den":30,"correct_side":1,"subjID":"samuelvilla31","gender":"0","school":"4","age":"9"},{"start_time":1552054461221,"click_time":1552054462989,"finger_time":1552054462290,"fix_duration":250,"trial":28,"RT":1069,"MT":699,"sideResp":2,"stimulus":[],"xmouse":[798,797,797,797,797,797,797,797,797,797,797,797,797,797,797,797,797,797,797,797,797,797,797,797,797,797,797,797,797,797,797,797,797,797,797,797,797,797,797,797,797,797,797,797,797,797,797,797,797,797,802,814,835,862,876,887,899,911,931,943,956,961,973,980,994,1000,1008,1015,1026,1029,1031,1034,1036,1036,1038,1038,1038,1038,1039,1043,1046,1050,1055,1064,1070,1077,1084,1092,1099],"ymouse":[532,534,535,535,535,535,535,535,535,535,535,535,535,535,535,535,535,535,535,535,535,535,535,535,535,535,535,535,535,535,535,535,535,535,535,535,535,535,535,535,535,535,535,535,535,535,535,535,535,535,531,523,509,488,477,467,456,445,424,409,392,386,367,358,334,324,313,304,286,279,274,269,259,253,244,242,239,235,230,211,196,185,175,157,146,134,122,109,94],"timestamp_mouse":[13,34,49,69,88,109,130,150,169,189,209,229,249,269,289,309,329,349,369,389,409,428,448,469,489,508,529,548,568,588,608,629,648,668,688,710,729,749,768,788,809,828,849,868,888,909,929,949,968,988,1008,1029,1049,1069,1088,1109,1128,1148,1170,1188,1209,1228,1248,1270,1289,1308,1328,1348,1370,1388,1410,1429,1448,1468,1488,1508,1528,1548,1568,1589,1608,1628,1649,1670,1688,1709,1729,1748,1768],"xSR":741.5,"ySR":501.8,"xT1":424.9,"yT1":0,"xT2":1058.1,"yT2":0,"toosoon":0,"cond_shown":"Incongruent","ratio_trial":300,"L_num":13,"L_den":26,"R_num":12,"R_den":15,"correct_side":2,"subjID":"samuelvilla31","gender":"0","school":"4","age":"9"},{"start_time":1552054466356,"click_time":1552054468410,"finger_time":1552054467729,"fix_duration":1385.975161815921,"trial":29,"RT":1373,"MT":681,"sideResp":2,"stimulus":[],"xmouse":[784,784,784,784,784,784,784,784,784,784,784,784,784,784,784,784,784,784,784,784,784,784,784,784,784,784,784,784,784,784,784,784,784,784,784,784,784,784,784,784,784,784,784,784,784,784,784,784,784,784,784,784,784,784,784,784,784,784,784,784,784,784,784,784,784,792,810,840,856,873,891,905,936,946,956,966,976,996,1007,1018,1026,1033,1041,1059,1067,1073,1077,1081,1082,1082,1083,1084,1088,1088,1089,1089,1090,1092,1094,1094,1095,1096,1097],"ymouse":[549,549,549,549,549,549,549,549,549,549,549,549,549,549,549,549,549,549,549,549,549,549,549,549,549,549,549,549,549,549,549,549,549,549,549,549,549,549,549,549,549,549,549,549,549,549,549,549,549,549,549,549,549,549,549,549,549,549,549,549,549,549,549,549,549,548,543,533,526,517,509,500,480,471,464,455,444,418,402,386,370,352,335,283,257,231,208,183,177,175,171,163,149,145,144,142,140,129,121,116,111,106,96],"timestamp_mouse":[21,39,53,73,94,114,133,154,174,194,214,233,254,275,294,313,334,353,374,393,413,434,454,475,495,514,534,554,574,595,614,633,653,674,694,713,734,753,774,793,814,834,853,874,893,914,933,954,973,993,1014,1034,1053,1074,1095,1113,1134,1153,1174,1194,1213,1233,1255,1273,1293,1313,1334,1353,1373,1393,1413,1433,1454,1474,1493,1513,1534,1553,1573,1594,1615,1633,1653,1673,1693,1713,1734,1754,1773,1793,1813,1834,1854,1873,1893,1914,1934,1954,1974,1994,2014,2033,2053],"xSR":741.5,"ySR":501.8,"xT1":424.9,"yT1":0,"xT2":1058.1,"yT2":0,"toosoon":0,"cond_shown":"Incongruent","ratio_trial":100,"L_num":8,"L_den":20,"R_num":1,"R_den":2,"correct_side":2,"subjID":"samuelvilla31","gender":"0","school":"4","age":"9"},{"start_time":1552054470280,"click_time":1552054471850,"finger_time":1552054471129,"fix_duration":250,"trial":30,"RT":849,"MT":721,"sideResp":1,"stimulus":[],"xmouse":[792,792,792,792,792,792,792,792,792,792,792,792,792,792,792,792,792,792,792,792,792,792,792,792,792,792,792,792,792,792,792,792,792,792,792,792,792,792,792,792,793,793,789,782,766,761,750,746,739,730,723,712,707,701,698,688,679,661,651,642,633,615,606,598,594,592,589,576,568,561,557,554,548,544,538,534,530,525,523],"ymouse":[539,539,539,539,539,539,539,539,539,539,539,539,539,539,539,539,539,539,539,539,539,539,539,539,539,539,539,539,539,539,539,539,539,539,539,539,539,539,539,539,539,507,474,438,383,369,329,315,300,281,264,237,226,217,209,192,180,150,135,124,113,94,86,81,78,77,76,72,68,66,64,63,62,61,59,58,56,55,55],"timestamp_mouse":[12,33,49,69,89,109,130,149,170,189,210,230,249,271,289,310,329,349,370,390,411,430,450,469,491,511,530,549,569,589,609,629,650,670,690,709,730,750,769,790,809,830,849,869,889,909,930,949,969,990,1010,1031,1049,1069,1090,1110,1130,1150,1170,1189,1210,1230,1249,1269,1289,1311,1329,1349,1369,1390,1410,1429,1450,1470,1490,1509,1529,1549,1569],"xSR":741.5,"ySR":501.8,"xT1":424.9,"yT1":0,"xT2":1058.1,"yT2":0,"toosoon":0,"cond_shown":"Congruent","ratio_trial":200,"L_num":1,"L_den":2,"R_num":21,"R_den":30,"correct_side":2,"subjID":"samuelvilla31","gender":"0","school":"4","age":"9"},{"start_time":1552054485782,"click_time":1552054487410,"finger_time":1552054487030,"fix_duration":989.4855800112189,"trial":31,"RT":1248,"MT":380,"sideResp":2,"stimulus":[],"xmouse":[796,796,796,796,796,796,796,796,796,796,796,796,796,796,796,796,796,796,796,794,794,793,793,793,793,793,793,793,793,793,793,793,793,790,788,787,786,785,785,785,785,785,785,785,785,785,785,785,785,785,785,785,785,785,785,785,785,785,785,785,792,805,834,884,904,921,936,949,987,1006,1026,1042,1065,1083,1088,1091,1094,1095,1102,1107,1110,1111],"ymouse":[547,547,547,547,547,547,547,547,547,547,547,547,547,547,547,547,547,547,547,545,544,544,544,544,544,544,544,544,544,544,544,544,544,540,536,531,528,527,527,527,527,527,527,527,527,527,527,527,527,527,527,527,527,527,527,527,527,527,527,525,523,517,499,465,450,434,420,410,376,358,334,312,274,238,226,214,201,186,150,126,107,87],"timestamp_mouse":[12,39,48,68,89,109,129,149,168,189,209,228,249,268,288,309,328,349,368,388,408,428,448,468,489,508,529,548,568,589,609,628,648,668,688,708,729,749,769,789,808,828,848,868,888,909,929,948,968,988,1008,1028,1048,1068,1088,1109,1128,1149,1168,1188,1208,1228,1248,1268,1288,1309,1328,1348,1369,1388,1408,1429,1448,1468,1488,1508,1528,1548,1569,1588,1608,1628],"xSR":741.5,"ySR":501.8,"xT1":424.9,"yT1":0,"xT2":1058.1,"yT2":0,"toosoon":0,"cond_shown":"Incongruent","ratio_trial":100,"L_num":6,"L_den":10,"R_num":7,"R_den":14,"correct_side":1,"subjID":"samuelvilla31","gender":"0","school":"4","age":"9"},{"start_time":1552054490261,"click_time":1552054491692,"finger_time":1552054491370,"fix_duration":1308.2275383761778,"trial":32,"RT":1109,"MT":322,"sideResp":2,"stimulus":[],"xmouse":[794,793,793,793,793,793,793,793,793,793,793,793,784,783,780,780,780,780,780,780,780,780,780,780,780,780,780,782,789,792,792,792,792,792,792,792,792,792,792,792,792,792,792,792,792,792,792,792,792,792,792,792,799,808,879,925,940,951,962,981,994,1007,1017,1029,1062,1067,1077,1080,1080,1075,1071],"ymouse":[547,547,547,547,547,547,547,547,547,547,547,547,547,547,545,545,545,545,545,545,545,545,545,545,545,545,545,546,548,549,549,549,549,549,549,549,549,549,549,549,549,549,549,549,549,549,549,549,549,549,549,549,548,543,491,459,447,437,427,405,387,367,348,322,245,232,197,175,154,107,94],"timestamp_mouse":[31,49,69,89,110,129,150,170,189,210,229,249,269,289,310,329,349,369,389,410,429,450,470,490,510,530,550,569,589,609,629,649,669,689,709,730,749,770,790,810,829,850,869,890,910,929,951,970,989,1009,1029,1050,1069,1090,1109,1130,1149,1169,1190,1210,1230,1249,1269,1289,1310,1330,1349,1369,1390,1409,1431],"xSR":741.5,"ySR":501.8,"xT1":424.9,"yT1":0,"xT2":1058.1,"yT2":0,"toosoon":0,"cond_shown":"Incongruent","ratio_trial":100,"L_num":6,"L_den":12,"R_num":3,"R_den":5,"correct_side":2,"subjID":"samuelvilla31","gender":"0","school":"4","age":"9"},{"start_time":1552054496564,"click_time":1552054498730,"finger_time":1552054498210,"fix_duration":1431.9205012448117,"trial":33,"RT":1646,"MT":520,"sideResp":2,"stimulus":[],"xmouse":[786,786,786,786,786,786,786,786,786,786,786,786,786,786,786,786,786,786,786,786,786,786,786,786,786,786,786,786,786,786,786,786,786,786,786,786,786,786,786,786,786,786,786,786,786,786,786,786,786,786,786,786,786,786,786,786,786,786,786,786,786,786,786,786,786,786,786,786,786,786,786,786,786,786,786,786,786,786,785,787,814,830,850,868,884,922,939,962,1002,1031,1051,1078,1088,1094,1100,1107,1112,1114,1115,1115,1116,1116,1116,1116,1116,1114,1106,1098,1096],"ymouse":[544,544,544,544,544,544,544,544,544,544,544,544,544,544,544,544,544,544,544,544,544,544,544,544,544,544,544,544,544,544,544,544,544,544,544,544,544,544,544,544,544,544,544,544,544,544,544,544,544,544,544,544,544,544,544,544,544,544,544,544,544,544,544,544,544,544,544,544,544,544,544,544,544,544,544,544,544,544,544,541,519,506,494,486,477,450,434,410,363,324,296,252,230,212,197,182,162,158,156,155,152,151,150,148,145,139,119,102,96],"timestamp_mouse":[13,35,47,66,86,106,126,147,166,187,206,226,247,266,287,306,327,347,367,387,407,427,447,467,486,507,527,547,567,587,606,626,647,667,687,707,726,747,766,787,807,826,847,867,886,906,926,946,966,986,1007,1027,1047,1066,1087,1106,1126,1146,1167,1186,1206,1227,1247,1267,1287,1306,1326,1347,1366,1387,1407,1426,1446,1467,1486,1506,1526,1547,1566,1587,1607,1626,1646,1667,1686,1708,1726,1747,1766,1787,1806,1826,1846,1866,1886,1908,1926,1947,1967,1987,2007,2026,2046,2067,2086,2106,2126,2147,2166],"xSR":741.5,"ySR":501.8,"xT1":424.9,"yT1":0,"xT2":1058.1,"yT2":0,"toosoon":0,"cond_shown":"Incongruent","ratio_trial":100,"L_num":13,"L_den":26,"R_num":6,"R_den":10,"correct_side":2,"subjID":"samuelvilla31","gender":"0","school":"4","age":"9"},{"start_time":1552054503221,"click_time":1552054506710,"finger_time":1552054504870,"fix_duration":428.37190204688926,"trial":34,"RT":1649,"MT":1840,"sideResp":1,"stimulus":[],"xmouse":[790,790,788,786,786,786,786,786,786,786,786,786,786,786,786,786,786,786,786,786,786,786,786,786,786,786,786,786,786,786,786,786,786,786,786,786,786,786,786,786,786,786,786,786,786,786,786,786,786,786,786,786,786,786,786,786,786,786,786,786,786,786,786,786,786,786,786,786,786,786,786,786,786,786,786,786,786,787,798,812,828,841,853,900,930,955,973,987,1006,1016,1023,1032,1046,1063,1072,1081,1087,1091,1095,1099,1104,1109,1111,1115,1115,1115,1115,1115,1115,1115,1115,1115,1115,1115,1115,1115,1115,1115,1115,1115,1115,1115,1115,1115,1115,1115,1115,1115,1111,1101,1083,1057,1022,995,980,965,949,931,885,855,824,775,745,714,669,653,638,623,595,581,572,567,567,567,567,567,567,564,562,543,530,525,525,525,525,525,525,525,525,525,525,525,525,525,513],"ymouse":[536,536,536,537,537,537,537,537,537,537,537,537,537,537,537,537,537,537,537,537,537,537,537,537,537,537,537,537,537,537,537,537,537,537,537,537,537,537,537,537,537,537,537,537,537,537,537,537,537,537,537,537,537,537,537,537,537,537,537,537,537,537,537,537,537,537,537,537,537,537,537,537,537,537,537,537,537,537,531,522,514,507,498,463,442,424,410,399,382,372,363,352,335,308,294,278,264,253,238,231,219,207,196,176,174,173,173,172,172,172,172,172,172,172,172,172,172,172,172,172,172,172,172,172,172,172,172,172,171,171,171,171,171,169,167,164,162,160,154,149,144,140,137,136,135,135,135,135,133,131,130,128,128,128,128,128,128,126,119,79,55,46,46,46,46,46,46,46,46,46,46,46,46,46,45],"timestamp_mouse":[13,34,50,69,90,109,129,150,169,189,210,229,250,269,289,309,329,349,369,389,410,430,449,469,489,509,529,549,569,589,609,630,650,669,689,710,729,750,769,790,810,829,849,869,890,910,930,950,970,990,1010,1030,1050,1070,1089,1110,1129,1149,1169,1189,1210,1230,1250,1269,1289,1310,1330,1350,1369,1389,1409,1430,1450,1470,1489,1509,1530,1549,1570,1589,1610,1629,1649,1670,1689,1710,1729,1749,1770,1789,1810,1830,1850,1870,1889,1910,1930,1949,1971,1989,2010,2029,2049,2070,2089,2109,2129,2149,2170,2190,2209,2229,2249,2270,2289,2309,2331,2351,2369,2389,2409,2429,2449,2470,2489,2510,2530,2549,2570,2589,2609,2629,2650,2670,2689,2709,2729,2749,2771,2788,2809,2829,2849,2869,2889,2909,2929,2949,2970,2989,3009,3029,3049,3069,3090,3110,3129,3150,3169,3189,3209,3229,3250,3269,3289,3309,3330,3349,3370,3389,3409,3430,3450,3469,3489],"xSR":741.5,"ySR":501.8,"xT1":424.9,"yT1":0,"xT2":1058.1,"yT2":0,"toosoon":0,"cond_shown":"Incongruent","ratio_trial":100,"L_num":17,"L_den":30,"R_num":10,"R_den":15,"correct_side":2,"subjID":"samuelvilla31","gender":"0","school":"4","age":"9"},{"start_time":1552054516006,"click_time":1552054518291,"finger_time":1552054517450,"fix_duration":1153.16463104635,"trial":35,"RT":1444,"MT":841,"sideResp":1,"stimulus":[],"xmouse":[790,790,790,790,790,790,790,790,790,790,790,790,790,790,790,790,790,790,790,790,790,790,790,790,790,790,790,790,790,790,790,790,790,790,790,790,790,790,790,790,790,790,790,790,790,790,790,790,790,790,790,790,790,790,790,790,790,790,790,790,790,790,790,790,790,790,790,790,790,790,791,778,763,742,725,715,701,692,688,682,672,626,602,569,543,526,502,495,479,471,459,440,433,430,426,424,423,423,423,423,423,426,429,433,438,443,461,470,474,476,477,482,488,493,498],"ymouse":[545,545,545,545,545,545,545,545,545,545,545,545,545,545,545,545,545,545,545,545,545,545,545,545,545,545,545,545,545,545,545,545,545,545,545,545,545,545,545,545,545,545,545,545,545,545,545,545,545,545,545,545,545,545,545,545,545,545,545,545,545,545,545,545,545,545,545,545,545,545,545,522,498,471,453,440,427,422,420,415,406,367,345,316,297,280,259,252,236,227,216,202,197,193,189,186,180,178,178,177,176,168,164,160,155,151,139,132,131,129,129,122,116,109,99],"timestamp_mouse":[12,42,44,65,85,104,124,145,165,184,205,225,244,265,284,305,325,345,365,385,404,425,445,464,484,504,525,544,564,584,605,625,644,665,684,704,725,744,765,785,804,825,844,865,885,905,925,944,964,984,1004,1024,1044,1064,1084,1105,1125,1144,1165,1185,1204,1225,1244,1266,1284,1304,1325,1344,1364,1384,1404,1424,1444,1464,1484,1504,1525,1544,1565,1584,1604,1624,1645,1665,1684,1704,1724,1745,1764,1784,1804,1824,1845,1864,1884,1904,1924,1944,1964,1985,2004,2024,2045,2065,2085,2104,2124,2144,2164,2185,2205,2224,2243,2265,2285],"xSR":741.5,"ySR":501.8,"xT1":424.9,"yT1":0,"xT2":1058.1,"yT2":0,"toosoon":0,"cond_shown":"Incongruent","ratio_trial":200,"L_num":7,"L_den":10,"R_num":14,"R_den":28,"correct_side":1,"subjID":"samuelvilla31","gender":"0","school":"4","age":"9"},{"start_time":1552054522324,"click_time":1552054524250,"finger_time":1552054523731,"fix_duration":250,"trial":36,"RT":1407,"MT":519,"sideResp":1,"stimulus":[],"xmouse":[801,800,800,800,800,800,800,800,800,800,800,800,800,800,800,800,800,800,800,800,800,800,800,800,800,800,800,800,800,800,800,800,800,800,800,800,800,800,800,800,800,800,800,800,800,800,800,800,800,800,800,800,800,800,800,800,800,800,800,800,800,800,800,800,800,800,800,799,796,794,780,772,752,719,679,632,632,632,632,632,632,632,632,632,632,632,632,632,632,632,525,526,526,526,526,526,523],"ymouse":[540,539,539,538,538,538,538,538,538,538,538,538,538,538,538,538,538,538,538,538,538,538,538,538,538,538,538,538,538,538,538,538,538,538,538,538,538,538,538,538,538,538,538,538,538,538,538,538,538,538,538,538,538,538,538,538,538,538,538,538,538,538,538,538,538,538,538,536,525,518,473,443,382,284,164,26,26,26,26,26,26,26,26,26,26,26,26,26,26,26,14,25,25,25,25,25,27],"timestamp_mouse":[14,39,46,66,86,106,126,147,166,186,206,226,247,267,287,307,326,346,367,387,406,427,447,466,487,506,527,547,567,586,606,628,647,666,687,706,728,747,767,786,807,826,846,867,887,907,927,946,967,987,1007,1026,1046,1067,1086,1107,1126,1146,1166,1186,1207,1227,1247,1266,1286,1306,1327,1346,1366,1387,1407,1426,1447,1466,1486,1510,1526,1546,1566,1587,1606,1626,1647,1667,1687,1708,1726,1747,1766,1786,1806,1826,1846,1867,1886,1907,1926],"xSR":741.5,"ySR":501.8,"xT1":424.9,"yT1":0,"xT2":1058.1,"yT2":0,"toosoon":0,"cond_shown":"Congruent","ratio_trial":200,"L_num":1,"L_den":2,"R_num":21,"R_den":30,"correct_side":2,"subjID":"samuelvilla31","gender":"0","school":"4","age":"9"},{"start_time":1552054531970,"click_time":1552054533990,"finger_time":1552054533370,"fix_duration":558.6011872931106,"trial":37,"RT":1400,"MT":620,"sideResp":2,"stimulus":[],"xmouse":[793,793,793,793,793,793,793,793,793,793,793,793,793,793,793,793,793,793,793,793,793,793,793,793,793,793,793,793,793,792,792,792,792,792,792,792,792,792,792,792,792,792,792,792,792,792,792,792,792,792,792,792,792,792,792,792,792,792,792,792,792,792,792,792,792,792,793,798,812,829,858,869,881,886,893,905,911,915,918,921,929,933,944,956,976,987,996,1004,1015,1039,1063,1068,1082,1086,1092,1094,1094,1094,1094,1094,1096,1096],"ymouse":[535,535,535,535,535,535,535,535,535,535,535,535,535,535,535,535,535,535,535,535,535,535,535,535,535,535,535,535,535,535,535,535,535,535,535,535,535,535,535,535,535,535,535,535,535,535,535,535,535,535,535,535,535,535,535,535,535,535,535,535,535,535,535,535,535,535,533,529,519,506,470,452,431,421,411,382,367,354,341,331,307,293,270,255,229,216,206,195,184,163,141,136,123,117,110,106,106,106,106,105,102,99],"timestamp_mouse":[10,37,40,60,81,101,120,141,161,181,201,221,240,260,281,300,321,340,360,381,401,421,440,460,480,501,520,540,560,581,600,621,640,661,680,701,720,741,760,780,801,820,840,860,881,901,920,941,960,981,999,1020,1040,1060,1080,1101,1120,1141,1160,1180,1200,1220,1241,1260,1280,1301,1320,1340,1360,1380,1400,1420,1441,1461,1480,1500,1520,1541,1560,1580,1600,1621,1640,1660,1682,1700,1721,1741,1760,1782,1800,1822,1840,1861,1881,1900,1920,1941,1961,1980,2000,2020],"xSR":741.5,"ySR":501.8,"xT1":424.9,"yT1":0,"xT2":1058.1,"yT2":0,"toosoon":0,"cond_shown":"Incongruent","ratio_trial":100,"L_num":6,"L_den":10,"R_num":7,"R_den":14,"correct_side":1,"subjID":"samuelvilla31","gender":"0","school":"4","age":"9"},{"start_time":1552054541338,"click_time":1552054543312,"finger_time":1552054542870,"fix_duration":1166.5201108358658,"trial":38,"RT":1532,"MT":442,"sideResp":1,"stimulus":[],"xmouse":[799,799,799,799,798,797,797,797,797,797,797,797,797,797,797,797,797,797,797,797,797,797,797,796,796,796,795,794,794,794,794,793,793,793,793,793,793,793,793,793,793,793,793,793,793,793,793,793,793,793,793,793,793,793,793,793,793,796,796,796,796,796,796,796,796,796,796,796,796,796,796,796,796,797,796,784,756,643,580,560,548,548,548,548,548,548,548,548,548,548,548,548,548,548,548,548,548,548,493],"ymouse":[547,547,547,547,547,547,547,547,547,547,547,547,547,547,547,547,547,547,547,547,547,547,547,547,547,547,547,547,547,547,547,547,547,547,547,547,547,547,547,547,547,547,547,547,547,547,547,547,547,547,547,547,547,547,547,547,547,547,546,546,546,546,546,546,546,546,546,546,546,546,546,546,546,546,542,526,474,264,115,45,2,2,2,2,2,2,2,2,2,2,2,2,2,2,2,2,2,2,8],"timestamp_mouse":[13,39,53,73,92,112,132,152,172,193,212,232,253,272,292,312,333,352,373,393,413,433,453,472,492,513,532,553,572,593,612,633,652,673,693,712,733,753,773,792,813,833,852,872,893,912,932,953,972,992,1012,1032,1052,1072,1093,1112,1132,1151,1172,1193,1212,1233,1253,1273,1293,1312,1333,1353,1373,1392,1412,1432,1452,1472,1492,1512,1532,1551,1573,1592,1612,1633,1651,1671,1692,1712,1732,1751,1773,1792,1813,1832,1851,1871,1893,1912,1933,1952,1973],"xSR":741.5,"ySR":501.8,"xT1":424.9,"yT1":0,"xT2":1058.1,"yT2":0,"toosoon":0,"cond_shown":"Incongruent","ratio_trial":200,"L_num":4,"L_den":30,"R_num":1,"R_den":3,"correct_side":2,"subjID":"samuelvilla31","gender":"0","school":"4","age":"9"},{"start_time":1552054549467,"click_time":1552054551530,"finger_time":1552054550951,"fix_duration":675.8563820264015,"trial":39,"RT":1484,"MT":579,"sideResp":2,"stimulus":[],"xmouse":[794,795,795,795,795,7