[{"start_time":1552073456138,"click_time":1552073456772,"finger_time":1552073456153,"fix_duration":822.3698716363551,"trial":0,"RT":15,"MT":619,"sideResp":1,"stimulus":[],"xmouse":[809,809,809,809,809,809,809,809,809,809,809,809,809,809,809,809,809,809,807,799,782,754,731,705,679,660,628,608,575,554,529,515],"ymouse":[564,564,564,564,564,564,564,564,564,564,564,564,564,564,564,564,564,564,564,562,544,478,402,342,285,247,198,172,126,93,61,46],"timestamp_mouse":[15,34,53,74,93,114,134,154,174,194,214,233,254,274,294,314,334,353,373,393,414,434,454,474,493,514,534,553,574,595,615,633],"xSR":741.5,"ySR":501.8,"xT1":424.9,"yT1":0,"xT2":1058.1,"yT2":0,"toosoon":0,"cond_shown":"Congruent","ratio_trial":200,"L_num":14,"L_den":28,"R_num":6,"R_den":20,"correct_side":1,"subjID":"santiagodiazarias13","gender":"0","age":"9","school":"4","test":{"fix_dur":[250,1500],"timestim":1000,"targets_dim":[100,100],"targets_relative_coord":[0.3,0.7],"size_stim":[880,420],"start_dim":[100,100],"size_start":[300,300],"size_fix":60,"samplingrate":20,"img_types":["Congruent","Incongruent"],"ratios":[100,200,300],"rep_conds":19,"nTrials":120,"trials_to_rest":500,"Trials_order":[26,88,79,74,75,38,70,53,95,94,100,11,45,10,55,117,15,77,6,105,92,4,90,34,48,69,12,52,78,103,107,35,110,16,106,2,65,62,101,60,1,30,46,0,118,112,59,57,8,109,32,73,42,28,17,27,83,66,25,104,71,21,58,76,80,19,98,89,51,23,113,13,97,44,96,43,29,24,99,37,31,67,111,93,39,49,5,47,102,64,81,18,68,114,20,61,50,108,115,41,3,87,14,119,7,82,63,40,22,91,33,72,9,56,36,116,86,54,85,84],"cond_shown":["Congruent","Congruent","Incongruent","Congruent","Incongruent","Congruent","Congruent","Incongruent","Incongruent","Congruent","Congruent","Incongruent","Incongruent","Congruent","Incongruent","Incongruent","Incongruent","Incongruent","Congruent","Incongruent","Congruent","Congruent","Congruent","Congruent","Congruent","Incongruent","Congruent","Congruent","Congruent","Incongruent","Incongruent","Incongruent","Congruent","Congruent","Congruent","Congruent","Incongruent","Congruent","Incongruent","Congruent","Incongruent","Congruent","Congruent","Congruent","Congruent","Congruent","Incongruent","Incongruent","Congruent","Incongruent","Congruent","Incongruent","Congruent","Congruent","Incongruent","Incongruent","Incongruent","Congruent","Incongruent","Congruent","Incongruent","Incongruent","Congruent","Congruent","Congruent","Incongruent","Congruent","Incongruent","Incongruent","Incongruent","Incongruent","Incongruent","Incongruent","Congruent","Congruent","Incongruent","Incongruent","Congruent","Incongruent","Incongruent","Incongruent","Incongruent","Incongruent","Incongruent","Incongruent","Incongruent","Incongruent","Incongruent","Congruent","Congruent","Incongruent","Congruent","Congruent","Congruent","Congruent","Incongruent","Congruent","Congruent","Incongruent","Incongruent","Incongruent","Incongruent","Congruent","Incongruent","Incongruent","Congruent","Incongruent","Congruent","Congruent","Incongruent","Incongruent","Congruent","Incongruent","Congruent","Congruent","Congruent","Congruent","Congruent","Incongruent","Congruent"],"ratio_trial":[200,300,100,200,200,200,300,300,300,300,300,300,200,300,100,200,200,300,100,200,200,300,100,300,100,200,100,300,100,100,300,300,200,300,300,200,300,200,300,100,100,100,300,100,300,300,300,200,200,100,200,100,100,300,300,200,300,100,100,200,300,200,300,300,200,100,200,300,200,300,300,100,100,200,100,100,300,100,200,100,100,100,200,200,200,100,300,300,100,300,200,100,200,100,200,100,200,100,100,300,200,200,200,300,100,300,200,300,300,100,200,100,200,200,100,200,200,100,100,100],"left_num":[14,1,3,3,14,1,20,1,4,11,11,8,1,11,6,14,7,1,11,11,12,4,4,9,6,4,7,4,2,10,13,13,16,20,11,7,4,11,4,2,9,2,1,3,24,7,13,11,9,9,7,6,10,4,7,4,8,9,8,1,8,3,4,20,3,12,11,3,14,13,4,1,9,3,11,8,13,3,4,17,3,11,4,11,14,9,4,1,1,8,7,4,3,7,3,9,7,3,10,4,11,4,14,1,6,7,7,18,12,4,14,9,1,12,10,12,12,2,6,6],"right_num":[6,7,4,11,12,21,5,3,8,1,1,14,2,2,7,6,6,3,6,3,6,13,6,3,5,6,9,2,6,9,12,12,12,8,1,18,2,3,2,11,6,6,19,2,8,20,12,3,4,14,18,13,3,1,8,1,9,8,6,21,9,1,13,5,14,9,3,4,12,12,8,8,20,14,4,1,12,4,6,10,4,9,6,3,6,6,8,3,3,1,8,15,14,9,11,20,2,2,9,2,3,1,6,3,7,20,12,9,2,8,12,8,3,6,3,6,6,6,11,5],"left_den":[28,20,6,10,30,2,25,2,5,22,22,10,3,22,10,30,15,2,22,20,20,20,8,10,20,5,14,5,5,25,26,26,20,25,22,15,20,22,20,5,18,5,3,6,30,14,26,20,20,15,15,10,25,10,10,30,10,15,16,2,10,10,20,25,10,24,22,6,30,26,5,2,10,10,22,20,26,20,5,30,6,22,5,20,30,18,5,2,2,16,10,10,6,14,10,10,21,6,25,20,20,30,28,2,10,14,10,20,24,8,30,15,2,20,25,20,15,5,10,20],"right_den":[20,20,10,22,18,30,10,15,16,5,5,28,15,10,14,9,9,15,15,4,15,26,10,5,25,10,15,4,12,18,15,15,20,16,5,27,4,10,4,22,10,12,30,5,16,25,15,4,16,28,27,26,10,10,20,3,18,16,10,30,18,2,26,10,28,15,10,20,18,15,16,20,25,28,10,2,15,16,10,15,10,15,10,4,9,10,16,15,5,5,16,30,20,15,22,25,15,5,18,4,4,3,20,15,14,25,24,15,10,20,18,16,10,15,10,15,10,12,22,25],"correct_side":[1,2,1,2,2,2,1,1,1,1,1,1,1,1,1,2,2,1,1,2,1,2,2,1,1,1,2,1,2,2,2,2,1,1,1,2,2,1,2,2,2,2,2,1,1,2,2,2,1,1,2,1,1,1,1,2,1,1,2,2,1,2,2,1,2,2,1,1,2,2,1,1,1,2,1,2,2,2,1,2,1,2,1,2,2,2,1,1,2,1,1,2,2,2,2,1,1,1,2,2,2,2,1,1,1,2,1,1,1,1,2,1,1,1,1,1,1,2,1,1],"img_shown":["img2/200/Congruent/L/C_Dist_200_LN_14_LD_28_RN_6_RD_20_0.png","img2/300/Congruent/R/C_Dist_300_LN_1_LD_20_RN_7_RD_20_1.png","img2/100/Incongruent/L/I_Dist_100_LN_3_LD_6_RN_4_RD_10_0.png","img2/200/Congruent/R/C_Dist_200_LN_3_LD_10_RN_11_RD_22_1.png","img2/200/Incongruent/R/I_Dist_200_LN_14_LD_30_RN_12_RD_18_1.png","img2/200/Congruent/R/C_Dist_200_LN_1_LD_2_RN_21_RD_30_1.png","img2/300/Congruent/L/C_Dist_300_LN_20_LD_25_RN_5_RD_10_0.png","img2/300/Incongruent/L/I_Dist_300_LN_1_LD_2_RN_3_RD_15_0.png","img2/300/Incongruent/L/I_Dist_300_LN_4_LD_5_RN_8_RD_16_0.png","img2/300/Congruent/L/C_Dist_300_LN_11_LD_22_RN_1_RD_5_0.png","img2/300/Congruent/L/C_Dist_300_LN_11_LD_22_RN_1_RD_5_0.png","img2/300/Incongruent/L/I_Dist_300_LN_8_LD_10_RN_14_RD_28_0.png","img2/200/Incongruent/L/I_Dist_200_LN_1_LD_3_RN_2_RD_15_0.png","img2/300/Congruent/L/C_Dist_300_LN_11_LD_22_RN_2_RD_10_0.png","img2/100/Incongruent/L/I_Dist_100_LN_6_LD_10_RN_7_RD_14_0.png","img2/200/Incongruent/R/I_Dist_200_LN_14_LD_30_RN_6_RD_9_1.png","img2/200/Incongruent/R/I_Dist_200_LN_7_LD_15_RN_6_RD_9_1.png","img2/300/Incongruent/L/I_Dist_300_LN_1_LD_2_RN_3_RD_15_0.png","img2/100/Congruent/L/C_Dist_100_LN_11_LD_22_RN_6_RD_15_0.png","img2/200/Incongruent/R/I_Dist_200_LN_11_LD_20_RN_3_RD_4_1.png","img2/200/Congruent/L/C_Dist_200_LN_12_LD_20_RN_6_RD_15_0.png","img2/300/Congruent/R/C_Dist_300_LN_4_LD_20_RN_13_RD_26_1.png","img2/100/Congruent/R/C_Dist_100_LN_4_LD_8_RN_6_RD_10_1.png","img2/300/Congruent/L/C_Dist_300_LN_9_LD_10_RN_3_RD_5_0.png","img2/100/Congruent/L/C_Dist_100_LN_6_LD_20_RN_5_RD_25_0.png","img2/200/Incongruent/L/I_Dist_200_LN_4_LD_5_RN_6_RD_10_0.png","img2/100/Congruent/R/C_Dist_100_LN_7_LD_14_RN_9_RD_15_1.png","img2/300/Congruent/L/C_Dist_300_LN_4_LD_5_RN_2_RD_4_0.png","img2/100/Congruent/R/C_Dist_100_LN_2_LD_5_RN_6_RD_12_1.png","img2/100/Incongruent/R/I_Dist_100_LN_10_LD_25_RN_9_RD_18_1.png","img2/300/Incongruent/R/I_Dist_300_LN_13_LD_26_RN_12_RD_15_1.png","img2/300/Incongruent/R/I_Dist_300_LN_13_LD_26_RN_12_RD_15_1.png","img2/200/Congruent/L/C_Dist_200_LN_16_LD_20_RN_12_RD_20_0.png","img2/300/Congruent/L/C_Dist_300_LN_20_LD_25_RN_8_RD_16_0.png","img2/300/Congruent/L/C_Dist_300_LN_11_LD_22_RN_1_RD_5_0.png","img2/200/Congruent/R/C_Dist_200_LN_7_LD_15_RN_18_RD_27_1.png","img2/300/Incongruent/R/I_Dist_300_LN_4_LD_20_RN_2_RD_4_1.png","img2/200/Congruent/L/C_Dist_200_LN_11_LD_22_RN_3_RD_10_0.png","img2/300/Incongruent/R/I_Dist_300_LN_4_LD_20_RN_2_RD_4_1.png","img2/100/Congruent/R/C_Dist_100_LN_2_LD_5_RN_11_RD_22_1.png","img2/100/Incongruent/R/I_Dist_100_LN_9_LD_18_RN_6_RD_10_1.png","img2/100/Congruent/R/C_Dist_100_LN_2_LD_5_RN_6_RD_12_1.png","img2/300/Congruent/R/C_Dist_300_LN_1_LD_3_RN_19_RD_30_1.png","img2/100/Congruent/L/C_Dist_100_LN_3_LD_6_RN_2_RD_5_0.png","img2/300/Congruent/L/C_Dist_300_LN_24_LD_30_RN_8_RD_16_0.png","img2/300/Congruent/R/C_Dist_300_LN_7_LD_14_RN_20_RD_25_1.png","img2/300/Incongruent/R/I_Dist_300_LN_13_LD_26_RN_12_RD_15_1.png","img2/200/Incongruent/R/I_Dist_200_LN_11_LD_20_RN_3_RD_4_1.png","img2/200/Congruent/L/C_Dist_200_LN_9_LD_20_RN_4_RD_16_0.png","img2/100/Incongruent/L/I_Dist_100_LN_9_LD_15_RN_14_RD_28_0.png","img2/200/Congruent/R/C_Dist_200_LN_7_LD_15_RN_18_RD_27_1.png","img2/100/Incongruent/L/I_Dist_100_LN_6_LD_10_RN_13_RD_26_0.png","img2/100/Congruent/L/C_Dist_100_LN_10_LD_25_RN_3_RD_10_0.png","img2/300/Congruent/L/C_Dist_300_LN_4_LD_10_RN_1_RD_10_0.png","img2/300/Incongruent/L/I_Dist_300_LN_7_LD_10_RN_8_RD_20_0.png","img2/200/Incongruent/R/I_Dist_200_LN_4_LD_30_RN_1_RD_3_1.png","img2/300/Incongruent/L/I_Dist_300_LN_8_LD_10_RN_9_RD_18_0.png","img2/100/Congruent/L/C_Dist_100_LN_9_LD_15_RN_8_RD_16_0.png","img2/100/Incongruent/R/I_Dist_100_LN_8_LD_16_RN_6_RD_10_1.png","img2/200/Congruent/R/C_Dist_200_LN_1_LD_2_RN_21_RD_30_1.png","img2/300/Incongruent/L/I_Dist_300_LN_8_LD_10_RN_9_RD_18_0.png","img2/200/Incongruent/R/I_Dist_200_LN_3_LD_10_RN_1_RD_2_1.png","img2/300/Congruent/R/C_Dist_300_LN_4_LD_20_RN_13_RD_26_1.png","img2/300/Congruent/L/C_Dist_300_LN_20_LD_25_RN_5_RD_10_0.png","img2/200/Congruent/R/C_Dist_200_LN_3_LD_10_RN_14_RD_28_1.png","img2/100/Incongruent/R/I_Dist_100_LN_12_LD_24_RN_9_RD_15_1.png","img2/200/Congruent/L/C_Dist_200_LN_11_LD_22_RN_3_RD_10_0.png","img2/300/Incongruent/L/I_Dist_300_LN_3_LD_6_RN_4_RD_20_0.png","img2/200/Incongruent/R/I_Dist_200_LN_14_LD_30_RN_12_RD_18_1.png","img2/300/Incongruent/R/I_Dist_300_LN_13_LD_26_RN_12_RD_15_1.png","img2/300/Incongruent/L/I_Dist_300_LN_4_LD_5_RN_8_RD_16_0.png","img2/100/Incongruent/L/I_Dist_100_LN_1_LD_2_RN_8_RD_20_0.png","img2/100/Incongruent/L/I_Dist_100_LN_9_LD_10_RN_20_RD_25_0.png","img2/200/Congruent/R/C_Dist_200_LN_3_LD_10_RN_14_RD_28_1.png","img2/100/Congruent/L/C_Dist_100_LN_11_LD_22_RN_4_RD_10_0.png","img2/100/Incongruent/R/I_Dist_100_LN_8_LD_20_RN_1_RD_2_1.png","img2/300/Incongruent/R/I_Dist_300_LN_13_LD_26_RN_12_RD_15_1.png","img2/100/Congruent/R/C_Dist_100_LN_3_LD_20_RN_4_RD_16_1.png","img2/200/Incongruent/L/I_Dist_200_LN_4_LD_5_RN_6_RD_10_0.png","img2/100/Incongruent/R/I_Dist_100_LN_17_LD_30_RN_10_RD_15_1.png","img2/100/Incongruent/L/I_Dist_100_LN_3_LD_6_RN_4_RD_10_0.png","img2/100/Incongruent/R/I_Dist_100_LN_11_LD_22_RN_9_RD_15_1.png","img2/200/Incongruent/L/I_Dist_200_LN_4_LD_5_RN_6_RD_10_0.png","img2/200/Incongruent/R/I_Dist_200_LN_11_LD_20_RN_3_RD_4_1.png","img2/200/Incongruent/R/I_Dist_200_LN_14_LD_30_RN_6_RD_9_1.png","img2/100/Incongruent/R/I_Dist_100_LN_9_LD_18_RN_6_RD_10_1.png","img2/300/Incongruent/L/I_Dist_300_LN_4_LD_5_RN_8_RD_16_0.png","img2/300/Incongruent/L/I_Dist_300_LN_1_LD_2_RN_3_RD_15_0.png","img2/100/Congruent/R/C_Dist_100_LN_1_LD_2_RN_3_RD_5_1.png","img2/300/Congruent/L/C_Dist_300_LN_8_LD_16_RN_1_RD_5_0.png","img2/200/Incongruent/L/I_Dist_200_LN_7_LD_10_RN_8_RD_16_0.png","img2/100/Congruent/R/C_Dist_100_LN_4_LD_10_RN_15_RD_30_1.png","img2/200/Congruent/R/C_Dist_200_LN_3_LD_6_RN_14_RD_20_1.png","img2/100/Congruent/R/C_Dist_100_LN_7_LD_14_RN_9_RD_15_1.png","img2/200/Congruent/R/C_Dist_200_LN_3_LD_10_RN_11_RD_22_1.png","img2/100/Incongruent/L/I_Dist_100_LN_9_LD_10_RN_20_RD_25_0.png","img2/200/Congruent/L/C_Dist_200_LN_7_LD_21_RN_2_RD_15_0.png","img2/100/Congruent/L/C_Dist_100_LN_3_LD_6_RN_2_RD_5_0.png","img2/100/Incongruent/R/I_Dist_100_LN_10_LD_25_RN_9_RD_18_1.png","img2/300/Incongruent/R/I_Dist_300_LN_4_LD_20_RN_2_RD_4_1.png","img2/200/Incongruent/R/I_Dist_200_LN_11_LD_20_RN_3_RD_4_1.png","img2/200/Incongruent/R/I_Dist_200_LN_4_LD_30_RN_1_RD_3_1.png","img2/200/Congruent/L/C_Dist_200_LN_14_LD_28_RN_6_RD_20_0.png","img2/300/Incongruent/L/I_Dist_300_LN_1_LD_2_RN_3_RD_15_0.png","img2/100/Incongruent/L/I_Dist_100_LN_6_LD_10_RN_7_RD_14_0.png","img2/300/Congruent/R/C_Dist_300_LN_7_LD_14_RN_20_RD_25_1.png","img2/200/Incongruent/L/I_Dist_200_LN_7_LD_10_RN_12_RD_24_0.png","img2/300/Congruent/L/C_Dist_300_LN_18_LD_20_RN_9_RD_15_0.png","img2/300/Congruent/L/C_Dist_300_LN_12_LD_24_RN_2_RD_10_0.png","img2/100/Incongruent/L/I_Dist_100_LN_4_LD_8_RN_8_RD_20_0.png","img2/200/Incongruent/R/I_Dist_200_LN_14_LD_30_RN_12_RD_18_1.png","img2/100/Congruent/L/C_Dist_100_LN_9_LD_15_RN_8_RD_16_0.png","img2/200/Incongruent/L/I_Dist_200_LN_1_LD_2_RN_3_RD_10_0.png","img2/200/Congruent/L/C_Dist_200_LN_12_LD_20_RN_6_RD_15_0.png","img2/100/Congruent/L/C_Dist_100_LN_10_LD_25_RN_3_RD_10_0.png","img2/200/Congruent/L/C_Dist_200_LN_12_LD_20_RN_6_RD_15_0.png","img2/200/Congruent/L/C_Dist_200_LN_12_LD_15_RN_6_RD_10_0.png","img2/100/Congruent/R/C_Dist_100_LN_2_LD_5_RN_6_RD_12_1.png","img2/100/Incongruent/L/I_Dist_100_LN_6_LD_10_RN_11_RD_22_0.png","img2/100/Congruent/L/C_Dist_100_LN_6_LD_20_RN_5_RD_25_0.png"],"dist100_C":[["C_Dist_100_LN_10_LD_25_RN_3_RD_10_0.png","C_Dist_100_LN_11_LD_22_RN_4_RD_10_0.png","C_Dist_100_LN_11_LD_22_RN_6_RD_15_0.png","C_Dist_100_LN_15_LD_25_RN_13_RD_26_0.png","C_Dist_100_LN_3_LD_6_RN_2_RD_5_0.png","C_Dist_100_LN_6_LD_20_RN_5_RD_25_0.png","C_Dist_100_LN_8_LD_16_RN_2_RD_5_0.png","C_Dist_100_LN_9_LD_15_RN_8_RD_16_0.png"],["C_Dist_100_LN_1_LD_2_RN_18_RD_30_1.png","C_Dist_100_LN_1_LD_2_RN_3_RD_5_1.png","C_Dist_100_LN_12_LD_30_RN_13_RD_26_1.png","C_Dist_100_LN_2_LD_5_RN_11_RD_22_1.png","C_Dist_100_LN_2_LD_5_RN_6_RD_12_1.png","C_Dist_100_LN_3_LD_20_RN_4_RD_16_1.png","C_Dist_100_LN_4_LD_10_RN_15_RD_30_1.png","C_Dist_100_LN_4_LD_8_RN_6_RD_10_1.png","C_Dist_100_LN_6_LD_12_RN_15_RD_25_1.png","C_Dist_100_LN_7_LD_14_RN_15_RD_25_1.png","C_Dist_100_LN_7_LD_14_RN_9_RD_15_1.png"]],"dist100_I":[["I_Dist_100_LN_1_LD_2_RN_8_RD_20_0.png","I_Dist_100_LN_2_LD_4_RN_6_RD_15_0.png","I_Dist_100_LN_2_LD_4_RN_8_RD_20_0.png","I_Dist_100_LN_3_LD_5_RN_11_RD_22_0.png","I_Dist_100_LN_3_LD_5_RN_8_RD_16_0.png","I_Dist_100_LN_3_LD_6_RN_4_RD_10_0.png","I_Dist_100_LN_3_LD_9_RN_7_RD_30_0.png","I_Dist_100_LN_4_LD_8_RN_8_RD_20_0.png","I_Dist_100_LN_6_LD_10_RN_11_RD_22_0.png","I_Dist_100_LN_6_LD_10_RN_13_RD_26_0.png","I_Dist_100_LN_6_LD_10_RN_7_RD_14_0.png","I_Dist_100_LN_9_LD_10_RN_20_RD_25_0.png","I_Dist_100_LN_9_LD_15_RN_13_RD_26_0.png","I_Dist_100_LN_9_LD_15_RN_14_RD_28_0.png"],["I_Dist_100_LN_10_LD_25_RN_8_RD_16_1.png","I_Dist_100_LN_10_LD_25_RN_9_RD_18_1.png","I_Dist_100_LN_11_LD_22_RN_9_RD_15_1.png","I_Dist_100_LN_12_LD_24_RN_9_RD_15_1.png","I_Dist_100_LN_12_LD_30_RN_2_RD_4_1.png","I_Dist_100_LN_13_LD_26_RN_12_RD_20_1.png","I_Dist_100_LN_13_LD_26_RN_6_RD_10_1.png","I_Dist_100_LN_17_LD_30_RN_10_RD_15_1.png","I_Dist_100_LN_6_LD_12_RN_3_RD_5_1.png","I_Dist_100_LN_8_LD_16_RN_6_RD_10_1.png","I_Dist_100_LN_8_LD_20_RN_1_RD_2_1.png","I_Dist_100_LN_9_LD_18_RN_6_RD_10_1.png"]],"dist100_S":[["E_Dist_100_LN_2_LD_12_RN_2_RD_30_0.png","E_Dist_100_LN_6_LD_10_RN_6_RD_12_0.png"],["E_Dist_100_LN_6_LD_12_RN_6_RD_10_1.png"]],"dist200_C":[["C_Dist_200_LN_11_LD_22_RN_3_RD_10_0.png","C_Dist_200_LN_12_LD_15_RN_6_RD_10_0.png","C_Dist_200_LN_12_LD_20_RN_6_RD_15_0.png","C_Dist_200_LN_14_LD_28_RN_6_RD_20_0.png","C_Dist_200_LN_15_LD_25_RN_4_RD_10_0.png","C_Dist_200_LN_16_LD_20_RN_12_RD_20_0.png","C_Dist_200_LN_16_LD_30_RN_9_RD_27_0.png","C_Dist_200_LN_20_LD_25_RN_9_RD_15_0.png","C_Dist_200_LN_21_LD_30_RN_2_RD_4_0.png","C_Dist_200_LN_4_LD_10_RN_3_RD_15_0.png","C_Dist_200_LN_4_LD_8_RN_3_RD_10_0.png","C_Dist_200_LN_6_LD_15_RN_3_RD_15_0.png","C_Dist_200_LN_7_LD_21_RN_2_RD_15_0.png","C_Dist_200_LN_8_LD_15_RN_2_RD_6_0.png","C_Dist_200_LN_8_LD_15_RN_3_RD_9_0.png","C_Dist_200_LN_8_LD_15_RN_7_RD_21_0.png","C_Dist_200_LN_9_LD_20_RN_4_RD_16_0.png"],["C_Dist_200_LN_1_LD_2_RN_21_RD_30_1.png","C_Dist_200_LN_13_LD_26_RN_14_RD_20_1.png","C_Dist_200_LN_3_LD_10_RN_11_RD_22_1.png","C_Dist_200_LN_3_LD_10_RN_14_RD_28_1.png","C_Dist_200_LN_3_LD_10_RN_7_RD_14_1.png","C_Dist_200_LN_3_LD_12_RN_9_RD_20_1.png","C_Dist_200_LN_3_LD_6_RN_14_RD_20_1.png","C_Dist_200_LN_5_LD_10_RN_14_RD_20_1.png","C_Dist_200_LN_6_LD_12_RN_7_RD_10_1.png","C_Dist_200_LN_6_LD_20_RN_11_RD_22_1.png","C_Dist_200_LN_7_LD_15_RN_18_RD_27_1.png","C_Dist_200_LN_9_LD_30_RN_13_RD_26_1.png"]],"dist200_I":[["I_Dist_200_LN_1_LD_2_RN_3_RD_10_0.png","I_Dist_200_LN_1_LD_3_RN_2_RD_15_0.png","I_Dist_200_LN_3_LD_4_RN_11_RD_20_0.png","I_Dist_200_LN_4_LD_5_RN_6_RD_10_0.png","I_Dist_200_LN_4_LD_6_RN_14_RD_30_0.png","I_Dist_200_LN_7_LD_10_RN_12_RD_24_0.png","I_Dist_200_LN_7_LD_10_RN_14_RD_28_0.png","I_Dist_200_LN_7_LD_10_RN_8_RD_16_0.png"],["I_Dist_200_LN_11_LD_20_RN_3_RD_4_1.png","I_Dist_200_LN_14_LD_30_RN_12_RD_18_1.png","I_Dist_200_LN_14_LD_30_RN_6_RD_9_1.png","I_Dist_200_LN_3_LD_10_RN_1_RD_2_1.png","I_Dist_200_LN_4_LD_30_RN_1_RD_3_1.png","I_Dist_200_LN_6_LD_20_RN_3_RD_6_1.png","I_Dist_200_LN_7_LD_15_RN_4_RD_6_1.png","I_Dist_200_LN_7_LD_15_RN_6_RD_9_1.png","I_Dist_200_LN_9_LD_15_RN_8_RD_10_1.png"]],"dist200_S":[["E_Dist_200_LN_3_LD_6_RN_3_RD_10_0.png"],["E_Dist_200_LN_3_LD_10_RN_3_RD_6_1.png"]],"dist300_C":[["C_Dist_300_LN_11_LD_22_RN_1_RD_5_0.png","C_Dist_300_LN_11_LD_22_RN_2_RD_10_0.png","C_Dist_300_LN_11_LD_22_RN_4_RD_20_0.png","C_Dist_300_LN_12_LD_24_RN_2_RD_10_0.png","C_Dist_300_LN_18_LD_20_RN_9_RD_15_0.png","C_Dist_300_LN_20_LD_25_RN_13_RD_26_0.png","C_Dist_300_LN_20_LD_25_RN_14_RD_28_0.png","C_Dist_300_LN_20_LD_25_RN_5_RD_10_0.png","C_Dist_300_LN_20_LD_25_RN_8_RD_16_0.png","C_Dist_300_LN_20_LD_25_RN_9_RD_18_0.png","C_Dist_300_LN_24_LD_30_RN_2_RD_4_0.png","C_Dist_300_LN_24_LD_30_RN_8_RD_16_0.png","C_Dist_300_LN_3_LD_6_RN_2_RD_10_0.png","C_Dist_300_LN_4_LD_10_RN_1_RD_10_0.png","C_Dist_300_LN_4_LD_5_RN_2_RD_4_0.png","C_Dist_300_LN_8_LD_16_RN_1_RD_5_0.png","C_Dist_300_LN_9_LD_10_RN_3_RD_5_0.png"],["C_Dist_300_LN_1_LD_20_RN_7_RD_20_1.png","C_Dist_300_LN_1_LD_3_RN_19_RD_30_1.png","C_Dist_300_LN_1_LD_30_RN_8_RD_24_1.png","C_Dist_300_LN_1_LD_5_RN_11_RD_22_1.png","C_Dist_300_LN_1_LD_5_RN_3_RD_6_1.png","C_Dist_300_LN_1_LD_5_RN_6_RD_12_1.png","C_Dist_300_LN_2_LD_10_RN_12_RD_24_1.png","C_Dist_300_LN_2_LD_20_RN_10_RD_25_1.png","C_Dist_300_LN_3_LD_12_RN_11_RD_20_1.png","C_Dist_300_LN_3_LD_6_RN_4_RD_5_1.png","C_Dist_300_LN_4_LD_20_RN_13_RD_26_1.png","C_Dist_300_LN_5_LD_25_RN_6_RD_12_1.png","C_Dist_300_LN_5_LD_25_RN_7_RD_14_1.png","C_Dist_300_LN_7_LD_14_RN_20_RD_25_1.png","C_Dist_300_LN_8_LD_15_RN_10_RD_12_1.png"]],"dist300_I":[["I_Dist_300_LN_1_LD_2_RN_2_RD_10_0.png","I_Dist_300_LN_1_LD_2_RN_3_RD_15_0.png","I_Dist_300_LN_2_LD_4_RN_6_RD_30_0.png","I_Dist_300_LN_3_LD_6_RN_4_RD_20_0.png","I_Dist_300_LN_4_LD_5_RN_6_RD_12_0.png","I_Dist_300_LN_4_LD_5_RN_8_RD_16_0.png","I_Dist_300_LN_7_LD_10_RN_8_RD_20_0.png","I_Dist_300_LN_8_LD_10_RN_14_RD_28_0.png","I_Dist_300_LN_8_LD_10_RN_9_RD_18_0.png"],["I_Dist_300_LN_13_LD_26_RN_12_RD_15_1.png","I_Dist_300_LN_4_LD_20_RN_2_RD_4_1.png"]],"dist300_S":[["E_Dist_300_LN_9_LD_12_RN_9_RD_20_0.png"],["E_Dist_300_LN_18_LD_30_RN_18_RD_20_1.png","E_Dist_300_LN_3_LD_10_RN_3_RD_5_1.png","E_Dist_300_LN_9_LD_20_RN_9_RD_12_1.png"]],"dist500_C":[["C_Dist_500_LN_10_LD_13_RN_7_RD_26_0.png","C_Dist_500_LN_10_LD_15_RN_4_RD_24_0.png","C_Dist_500_LN_12_LD_16_RN_3_RD_12_0.png","C_Dist_500_LN_12_LD_18_RN_4_RD_24_0.png","C_Dist_500_LN_15_LD_18_RN_5_RD_15_0.png","C_Dist_500_LN_15_LD_20_RN_1_RD_4_0.png","C_Dist_500_LN_18_LD_27_RN_1_RD_6_0.png","C_Dist_500_LN_20_LD_24_RN_1_RD_3_0.png","C_Dist_500_LN_20_LD_24_RN_3_RD_9_0.png","C_Dist_500_LN_20_LD_24_RN_7_RD_21_0.png","C_Dist_500_LN_20_LD_28_RN_3_RD_14_0.png","C_Dist_500_LN_21_LD_28_RN_6_RD_24_0.png","C_Dist_500_LN_22_LD_28_RN_2_RD_7_0.png","C_Dist_500_LN_25_LD_30_RN_9_RD_27_0.png","C_Dist_500_LN_4_LD_6_RN_1_RD_6_0.png","C_Dist_500_LN_5_LD_6_RN_2_RD_6_0.png","C_Dist_500_LN_6_LD_9_RN_1_RD_6_0.png","C_Dist_500_LN_7_LD_10_RN_1_RD_5_0.png","C_Dist_500_LN_8_LD_12_RN_1_RD_6_0.png","C_Dist_500_LN_8_LD_12_RN_4_RD_24_0.png"],["C_Dist_500_LN_1_LD_4_RN_12_RD_16_1.png","C_Dist_500_LN_1_LD_4_RN_9_RD_12_1.png","C_Dist_500_LN_1_LD_9_RN_11_RD_18_1.png","C_Dist_500_LN_10_LD_24_RN_22_RD_24_1.png","C_Dist_500_LN_2_LD_12_RN_10_RD_15_1.png","C_Dist_500_LN_2_LD_12_RN_12_RD_18_1.png","C_Dist_500_LN_2_LD_12_RN_4_RD_6_1.png","C_Dist_500_LN_2_LD_24_RN_7_RD_12_1.png","C_Dist_500_LN_2_LD_5_RN_18_RD_20_1.png","C_Dist_500_LN_2_LD_5_RN_9_RD_10_1.png","C_Dist_500_LN_2_LD_8_RN_12_RD_16_1.png","C_Dist_500_LN_2_LD_8_RN_21_RD_28_1.png","C_Dist_500_LN_3_LD_10_RN_4_RD_5_1.png","C_Dist_500_LN_3_LD_12_RN_15_RD_20_1.png","C_Dist_500_LN_3_LD_30_RN_6_RD_10_1.png","C_Dist_500_LN_3_LD_8_RN_14_RD_16_1.png","C_Dist_500_LN_4_LD_16_RN_15_RD_20_1.png","C_Dist_500_LN_4_LD_24_RN_12_RD_18_1.png","C_Dist_500_LN_5_LD_14_RN_6_RD_7_1.png","C_Dist_500_LN_7_LD_21_RN_20_RD_24_1.png","C_Dist_500_LN_7_LD_28_RN_12_RD_16_1.png","C_Dist_500_LN_7_LD_28_RN_9_RD_12_1.png","C_Dist_500_LN_9_LD_27_RN_20_RD_24_1.png"]],"dist500_I":[["I_Dist_500_LN_2_LD_3_RN_4_RD_24_0.png","I_Dist_500_LN_5_LD_6_RN_6_RD_18_0.png","I_Dist_500_LN_7_LD_8_RN_9_RD_24_0.png"],["I_Dist_500_LN_7_LD_21_RN_5_RD_6_1.png"]],"dist500_S":[["E_Dist_500_LN_6_LD_8_RN_6_RD_24_0.png"],["E_Dist_500_LN_2_LD_12_RN_2_RD_3_1.png","E_Dist_500_LN_6_LD_24_RN_6_RD_8_1.png"]]}},{"start_time":1552073457927,"click_time":1552073459093,"finger_time":1552073458511,"fix_duration":373.3221956103845,"trial":1,"RT":584,"MT":582,"sideResp":2,"stimulus":[],"xmouse":[776,776,776,776,776,776,776,776,776,776,776,776,776,776,776,776,776,776,776,776,776,776,776,776,776,776,776,775,775,775,787,865,867,867,867,867,870,872,884,910,987,1086,1179,1187,1196,1213,1355,1418,1426,1421,1404,1367,1272,1199,1145,1108,1090,1076],"ymouse":[619,619,619,619,619,619,619,619,619,619,619,619,619,619,619,619,619,619,619,619,619,619,619,619,619,619,619,597,427,310,242,113,109,108,108,108,108,108,110,113,118,126,142,143,145,147,108,76,54,36,22,9,0,0,0,0,0,38],"timestamp_mouse":[10,44,65,84,105,124,144,164,185,204,225,245,265,286,304,324,344,364,384,406,424,444,465,484,505,525,545,564,584,604,624,646,665,685,705,724,745,764,785,805,824,844,864,884,904,926,945,965,985,1004,1026,1046,1065,1084,1105,1125,1145,1166],"xSR":741.5,"ySR":573.95,"xT1":424.9,"yT1":0,"xT2":1058.1,"yT2":0,"toosoon":0,"cond_shown":"Congruent","ratio_trial":300,"L_num":1,"L_den":20,"R_num":7,"R_den":20,"correct_side":2,"subjID":"santiagodiazarias13","gender":"0","school":"4","age":"9"},{"start_time":1552073461123,"click_time":1552073462111,"finger_time":1552073461552,"fix_duration":410.99023106126907,"trial":2,"RT":429,"MT":559,"sideResp":1,"stimulus":[],"xmouse":[777,777,777,777,777,777,777,777,777,777,777,777,777,777,777,777,778,778,778,778,774,763,717,694,689,683,666,512,368,220,117,105,264,419,580,592,590,537,527,525,525,524,519,519,520,531,534,535,530,522],"ymouse":[607,607,607,607,607,607,607,607,607,607,607,607,607,607,607,601,599,597,597,596,587,567,463,354,309,154,27,0,0,0,0,0,37,69,91,93,94,129,141,144,144,145,145,145,139,129,118,103,92,80],"timestamp_mouse":[13,35,49,68,88,109,130,149,169,190,210,228,249,269,288,309,329,348,369,388,408,428,448,468,488,508,528,549,568,588,608,628,649,668,688,708,729,749,768,789,809,829,848,868,888,909,928,948,969,988],"xSR":741.5,"ySR":573.95,"xT1":424.9,"yT1":0,"xT2":1058.1,"yT2":0,"toosoon":0,"cond_shown":"Incongruent","ratio_trial":100,"L_num":3,"L_den":6,"R_num":4,"R_den":10,"correct_side":1,"subjID":"santiagodiazarias13","gender":"0","school":"4","age":"9"},{"start_time":1552073464503,"click_time":1552073465431,"finger_time":1552073464833,"fix_duration":250,"trial":3,"RT":330,"MT":598,"sideResp":1,"stimulus":[],"xmouse":[797,797,797,797,797,797,797,797,797,797,797,797,797,797,799,799,791,779,763,755,748,743,734,722,719,718,716,714,701,687,667,640,621,594,579,567,556,556,556,556,554,547,534,475,450,445,438],"ymouse":[638,638,638,638,638,638,638,638,638,638,638,638,637,620,601,582,559,543,523,513,505,499,490,473,455,448,432,425,412,403,391,371,352,307,281,255,207,178,123,98,72,49,20,0,0,0,21],"timestamp_mouse":[13,38,48,69,89,109,130,149,169,190,209,228,248,268,288,309,330,349,368,389,409,428,448,468,490,508,529,548,568,588,609,629,649,668,689,709,729,749,768,788,808,829,850,868,889,908,928],"xSR":741.5,"ySR":573.95,"xT1":424.9,"yT1":0,"xT2":1058.1,"yT2":0,"toosoon":0,"cond_shown":"Congruent","ratio_trial":200,"L_num":3,"L_den":10,"R_num":11,"R_den":22,"correct_side":2,"subjID":"santiagodiazarias13","gender":"0","school":"4","age":"9"},{"start_time":1552073468549,"click_time":1552073469592,"finger_time":1552073469072,"fix_duration":1436.5451364448083,"trial":4,"RT":523,"MT":520,"sideResp":1,"stimulus":[],"xmouse":[813,813,813,813,813,813,813,813,813,813,813,813,813,813,813,813,813,813,813,813,813,813,813,817,828,834,846,849,853,855,856,845,836,829,835,857,915,939,960,979,993,1029,1041,1049,1050,1046,1011,982,925,849,752,559,448],"ymouse":[629,629,629,629,629,629,629,629,629,629,629,629,629,629,629,629,629,629,629,629,629,629,623,617,601,589,568,559,550,540,531,513,505,497,479,448,342,278,227,184,163,119,98,67,48,34,13,9,9,9,9,9,9],"timestamp_mouse":[2,37,43,63,83,103,124,143,162,182,203,223,242,263,284,303,322,342,363,383,403,422,444,462,483,502,523,542,563,582,602,622,642,662,682,703,722,742,762,783,803,822,843,862,882,903,923,943,963,982,1003,1022,1042],"xSR":741.5,"ySR":573.95,"xT1":424.9,"yT1":0,"xT2":1058.1,"yT2":0,"toosoon":0,"cond_shown":"Incongruent","ratio_trial":200,"L_num":14,"L_den":30,"R_num":12,"R_den":18,"correct_side":2,"subjID":"santiagodiazarias13","gender":"0","school":"4","age":"9"},{"start_time":1552073471856,"click_time":1552073472831,"finger_time":1552073472292,"fix_duration":963.3515415861842,"trial":5,"RT":436,"MT":539,"sideResp":2,"stimulus":[],"xmouse":[783,783,783,783,783,783,783,783,783,783,783,783,783,783,783,783,783,783,783,787,828,889,964,1047,1131,1265,1304,1317,1310,1298,1288,1287,1287,1287,1278,1243,1235,1230,1227,1223,1217,1216,1214,1212,1204,1179,1173,1165,1152],"ymouse":[613,613,613,613,613,613,613,613,613,613,613,613,613,613,613,613,613,613,613,613,584,526,444,357,253,53,0,0,0,0,0,0,0,0,0,4,21,36,47,55,62,62,62,62,62,58,58,57,55],"timestamp_mouse":[15,36,56,76,96,115,135,156,176,196,215,235,255,276,296,315,335,355,376,395,417,436,455,475,497,515,535,555,576,595,616,635,655,675,695,716,736,757,776,796,815,837,856,875,896,915,936,955,975],"xSR":741.5,"ySR":573.95,"xT1":424.9,"yT1":0,"xT2":1058.1,"yT2":0,"toosoon":0,"cond_shown":"Congruent","ratio_trial":200,"L_num":1,"L_den":2,"R_num":21,"R_den":30,"correct_side":2,"subjID":"santiagodiazarias13","gender":"0","school":"4","age":"9"},{"start_time":1552073474957,"click_time":1552073475793,"finger_time":1552073475491,"fix_duration":784.3379671365676,"trial":6,"RT":534,"MT":302,"sideResp":1,"stimulus":[],"xmouse":[788,788,788,788,788,788,788,788,788,788,788,788,788,788,788,788,788,788,788,788,788,788,788,788,786,757,724,684,646,617,549,522,492,484,483,489,490,489,485,485,500,508],"ymouse":[642,642,642,642,642,642,642,642,642,642,642,642,642,642,642,642,642,642,642,642,642,642,642,642,641,617,586,544,501,464,351,296,245,232,228,212,194,171,149,133,102,84],"timestamp_mouse":[14,44,54,74,94,115,135,156,175,195,215,235,255,275,296,316,335,355,375,395,414,435,455,475,494,514,534,554,574,595,614,635,654,676,695,714,734,755,775,794,814,835],"xSR":741.5,"ySR":573.95,"xT1":424.9,"yT1":0,"xT2":1058.1,"yT2":0,"toosoon":0,"cond_shown":"Congruent","ratio_trial":300,"L_num":20,"L_den":25,"R_num":5,"R_den":10,"correct_side":1,"subjID":"santiagodiazarias13","gender":"0","school":"4","age":"9"},{"start_time":1552073478913,"click_time":1552073479611,"finger_time":1552073479332,"fix_duration":559.0212253965551,"trial":7,"RT":419,"MT":279,"sideResp":2,"stimulus":[],"xmouse":[788,788,788,788,788,788,788,788,788,788,788,788,788,788,788,788,788,802,814,831,857,905,1028,1088,1162,1196,1206,1206,1206,1206,1206,1206,1204,1175,1149],"ymouse":[620,620,620,620,620,620,620,620,620,620,620,620,620,620,620,620,620,607,597,574,531,475,325,228,97,19,0,0,0,0,0,0,0,0,2],"timestamp_mouse":[27,38,59,78,98,119,139,160,179,199,218,239,259,279,298,318,338,359,378,400,419,439,458,479,498,518,539,560,578,598,619,639,658,679,698],"xSR":741.5,"ySR":573.95,"xT1":424.9,"yT1":0,"xT2":1058.1,"yT2":0,"toosoon":0,"cond_shown":"Incongruent","ratio_trial":300,"L_num":1,"L_den":2,"R_num":3,"R_den":15,"correct_side":1,"subjID":"santiagodiazarias13","gender":"0","school":"4","age":"9"},{"start_time":1552073481947,"click_time":1552073483032,"finger_time":1552073482831,"fix_duration":995.9997640251132,"trial":8,"RT":884,"MT":201,"sideResp":2,"stimulus":[],"xmouse":[765,765,765,765,765,765,765,765,765,765,765,765,765,765,765,765,765,765,765,765,765,765,765,765,765,765,765,765,765,765,765,765,765,765,765,765,765,765,765,765,766,778,789,816,831,850,909,934,958,975,995,1028,1040,1058,1064],"ymouse":[639,639,639,639,639,639,639,639,639,639,639,639,639,639,639,639,639,639,639,639,639,639,639,639,639,639,639,639,639,639,639,639,639,639,639,639,639,639,639,639,637,624,611,579,555,521,426,382,339,299,253,170,138,103,90],"timestamp_mouse":[12,37,44,65,86,104,124,144,166,185,205,225,244,265,285,305,324,345,365,384,405,425,444,465,485,505,525,544,565,585,604,624,644,665,684,705,724,745,764,785,805,824,844,864,884,904,925,944,966,985,1005,1024,1044,1064,1084],"xSR":741.5,"ySR":573.95,"xT1":424.9,"yT1":0,"xT2":1058.1,"yT2":0,"toosoon":0,"cond_shown":"Incongruent","ratio_trial":300,"L_num":4,"L_den":5,"R_num":8,"R_den":16,"correct_side":1,"subjID":"santiagodiazarias13","gender":"0","school":"4","age":"9"},{"start_time":1552073485074,"click_time":1552073485771,"finger_time":1552073485491,"fix_duration":541.0617590662711,"trial":9,"RT":417,"MT":280,"sideResp":1,"stimulus":[],"xmouse":[784,784,784,784,784,784,784,784,784,784,784,784,784,784,784,783,783,782,781,769,751,729,693,654,590,553,545,543,547,558,557,545,536,529,512],"ymouse":[587,587,587,587,587,587,587,587,587,587,587,587,587,587,587,589,589,589,589,587,572,548,507,461,368,318,302,290,277,244,224,200,174,148,97],"timestamp_mouse":[18,43,57,77,98,117,138,158,177,198,217,237,257,278,297,317,337,358,379,397,417,438,457,477,497,519,537,557,577,597,617,638,658,678,697],"xSR":741.5,"ySR":573.95,"xT1":424.9,"yT1":0,"xT2":1058.1,"yT2":0,"toosoon":0,"cond_shown":"Congruent","ratio_trial":300,"L_num":11,"L_den":22,"R_num":1,"R_den":5,"correct_side":1,"subjID":"santiagodiazarias13","gender":"0","school":"4","age":"9"},{"start_time":1552073488096,"click_time":1552073488812,"finger_time":1552073488672,"fix_duration":822.4086421305223,"trial":10,"RT":576,"MT":140,"sideResp":1,"stimulus":[],"xmouse":[783,783,783,783,783,783,783,783,783,783,783,783,783,783,783,783,783,784,786,787,787,787,787,787,787,785,781,766,674,624,589,562,547,544,535,505],"ymouse":[614,614,615,615,615,615,615,615,615,615,615,615,615,615,615,615,614,614,611,610,610,610,610,610,610,609,608,601,557,523,484,439,380,200,108,23],"timestamp_mouse":[16,36,55,76,96,117,137,155,175,197,215,235,257,276,295,315,335,355,376,396,415,435,457,475,495,516,535,556,576,595,616,636,655,675,697,715],"xSR":741.5,"ySR":573.95,"xT1":424.9,"yT1":0,"xT2":1058.1,"yT2":0,"toosoon":0,"cond_shown":"Congruent","ratio_trial":300,"L_num":11,"L_den":22,"R_num":1,"R_den":5,"correct_side":1,"subjID":"santiagodiazarias13","gender":"0","school":"4","age":"9"},{"start_time":1552073491351,"click_time":1552073492492,"finger_time":1552073491771,"fix_duration":1278.04470765665,"trial":11,"RT":420,"MT":721,"sideResp":1,"stimulus":[],"xmouse":[800,800,800,800,800,800,800,800,800,800,800,800,800,800,800,800,800,800,808,822,834,850,863,875,882,887,890,892,892,892,899,918,928,934,939,942,953,965,979,988,989,990,996,1014,1025,1026,972,888,808,766,744,720,716,701,635,586,527,515],"ymouse":[631,631,631,631,631,631,631,631,631,631,631,631,631,631,631,631,631,631,630,622,611,587,551,511,459,400,282,235,201,177,159,133,119,110,101,99,98,98,98,98,98,98,98,98,98,98,91,91,105,119,127,128,128,126,95,72,40,36],"timestamp_mouse":[13,26,40,61,81,100,121,141,161,182,201,221,241,260,280,300,321,340,360,381,402,420,440,460,480,501,521,540,562,581,600,620,641,660,681,701,721,740,761,782,801,820,840,860,881,900,921,940,962,980,1001,1020,1042,1061,1081,1100,1120,1141],"xSR":741.5,"ySR":573.95,"xT1":424.9,"yT1":0,"xT2":1058.1,"yT2":0,"toosoon":0,"cond_shown":"Incongruent","ratio_trial":300,"L_num":8,"L_den":10,"R_num":14,"R_den":28,"correct_side":1,"subjID":"santiagodiazarias13","gender":"0","school":"4","age":"9"},{"start_time":1552073495200,"click_time":1552073495891,"finger_time":1552073495671,"fix_duration":1188.6607310238885,"trial":12,"RT":471,"MT":220,"sideResp":2,"stimulus":[],"xmouse":[786,786,786,786,786,786,786,786,786,786,786,786,786,786,786,786,786,786,786,786,786,788,802,838,861,890,931,1010,1033,1037,1041,1044,1048,1057,1063],"ymouse":[590,590,590,590,590,590,590,590,590,590,590,590,590,590,590,590,590,590,590,590,590,590,579,529,493,443,381,259,205,162,121,106,98,90,87],"timestamp_mouse":[13,33,52,73,92,111,132,152,173,191,211,232,252,271,291,311,332,353,372,393,411,432,452,471,492,512,532,553,572,592,611,632,652,671,691],"xSR":741.5,"ySR":573.95,"xT1":424.9,"yT1":0,"xT2":1058.1,"yT2":0,"toosoon":0,"cond_shown":"Incongruent","ratio_trial":200,"L_num":1,"L_den":3,"R_num":2,"R_den":15,"correct_side":1,"subjID":"santiagodiazarias13","gender":"0","school":"4","age":"9"},{"start_time":1552073498593,"click_time":1552073499271,"finger_time":1552073499132,"fix_duration":1279.8100933360768,"trial":13,"RT":539,"MT":139,"sideResp":1,"stimulus":[],"xmouse":[769,768,768,768,768,768,768,768,768,768,768,768,768,768,768,768,768,768,768,768,768,768,767,762,758,749,737,718,664,634,591,564,543,519],"ymouse":[612,612,612,612,612,612,612,612,612,612,612,612,612,612,612,612,612,612,612,612,612,612,612,607,596,579,548,498,336,256,195,150,106,58],"timestamp_mouse":[25,40,59,78,98,118,138,159,179,200,220,239,260,278,299,320,338,359,378,398,420,438,458,480,498,519,539,558,578,599,618,639,658,678],"xSR":741.5,"ySR":573.95,"xT1":424.9,"yT1":0,"xT2":1058.1,"yT2":0,"toosoon":0,"cond_shown":"Congruent","ratio_trial":300,"L_num":11,"L_den":22,"R_num":2,"R_den":10,"correct_side":1,"subjID":"santiagodiazarias13","gender":"0","school":"4","age":"9"},{"start_time":1552073502431,"click_time":1552073503771,"finger_time":1552073503432,"fix_duration":698.8817237848626,"trial":14,"RT":1001,"MT":339,"sideResp":1,"stimulus":[],"xmouse":[798,798,798,798,798,798,798,798,798,798,798,798,798,798,798,798,798,798,798,798,798,798,798,798,798,798,798,798,798,798,798,798,798,798,798,798,798,798,798,798,798,798,798,798,798,798,797,793,781,765,699,647,590,578,559,547,542,539,539,539,538,538,538,537,537,538,526,437],"ymouse":[626,626,626,626,626,626,626,626,626,626,626,626,626,626,626,626,626,626,626,626,626,626,626,626,626,626,626,626,626,626,626,626,626,626,626,626,626,626,626,626,626,626,626,627,627,627,624,616,602,587,548,511,402,341,276,235,212,197,197,197,195,195,195,195,194,185,162,50],"timestamp_mouse":[10,21,40,61,82,100,122,142,161,180,200,222,241,262,280,302,321,342,360,381,400,421,441,460,480,502,520,540,561,580,600,620,642,660,681,701,721,740,761,780,801,820,842,861,881,901,921,940,961,980,1001,1020,1040,1060,1082,1100,1120,1142,1161,1181,1202,1221,1240,1261,1280,1300,1320,1340],"xSR":741.5,"ySR":573.95,"xT1":424.9,"yT1":0,"xT2":1058.1,"yT2":0,"toosoon":0,"cond_shown":"Incongruent","ratio_trial":100,"L_num":6,"L_den":10,"R_num":7,"R_den":14,"correct_side":1,"subjID":"santiagodiazarias13","gender":"0","school":"4","age":"9"},{"start_time":1552073505704,"click_time":1552073506333,"finger_time":1552073506252,"fix_duration":250,"trial":15,"RT":548,"MT":81,"sideResp":1,"stimulus":[],"xmouse":[796,796,796,796,796,796,796,796,796,796,796,796,795,795,795,795,795,795,795,795,795,795,795,795,789,780,762,731,643,584,531,474],"ymouse":[630,630,630,630,630,630,630,630,630,630,630,630,630,630,630,630,630,630,630,630,630,630,630,630,621,604,574,526,376,274,166,62],"timestamp_mouse":[10,31,48,68,88,108,127,148,167,189,208,227,248,267,288,307,328,348,367,388,408,428,447,469,489,508,529,548,569,587,607,629],"xSR":741.5,"ySR":573.95,"xT1":424.9,"yT1":0,"xT2":1058.1,"yT2":0,"toosoon":0,"cond_shown":"Incongruent","ratio_trial":200,"L_num":14,"L_den":30,"R_num":6,"R_den":9,"correct_side":2,"subjID":"santiagodiazarias13","gender":"0","school":"4","age":"9"},{"start_time":1552073508597,"click_time":1552073509292,"finger_time":1552073508872,"fix_duration":703.4626224475686,"trial":16,"RT":275,"MT":420,"sideResp":2,"stimulus":[],"xmouse":[767,767,767,767,767,767,767,767,767,769,771,781,791,820,840,865,895,922,960,971,981,984,996,1009,1018,1020,1020,1020,1021,1031,1037,1053,1060,1067,1070],"ymouse":[623,623,623,623,623,623,623,623,623,623,623,613,600,556,524,486,442,394,303,265,235,229,223,219,212,202,195,190,187,180,176,153,133,103,96],"timestamp_mouse":[16,40,54,76,94,114,135,156,175,194,214,236,255,275,294,315,335,355,374,395,414,434,455,475,494,514,534,555,574,596,615,634,655,674,694],"xSR":741.5,"ySR":573.95,"xT1":424.9,"yT1":0,"xT2":1058.1,"yT2":0,"toosoon":0,"cond_shown":"Incongruent","ratio_trial":200,"L_num":7,"L_den":15,"R_num":6,"R_den":9,"correct_side":2,"subjID":"santiagodiazarias13","gender":"0","school":"4","age":"9"},{"start_time":1552073511380,"click_time":1552073513292,"finger_time":1552073512332,"fix_duration":447.5162282291272,"trial":17,"RT":952,"MT":960,"sideResp":1,"stimulus":[],"xmouse":[770,770,770,770,770,770,770,770,770,770,770,770,770,770,770,770,770,770,770,770,770,770,770,770,770,770,770,770,770,770,770,770,770,770,770,770,770,770,770,770,771,772,772,772,773,773,770,760,738,664,630,579,551,530,497,491,489,487,486,486,487,487,487,487,487,487,487,487,487,487,487,487,487,487,487,487,487,487,487,487,487,487,487,487,487,487,487,487,487,487,487,487,487,487,487,487],"ymouse":[608,608,608,608,608,608,608,608,608,608,608,608,608,608,608,608,608,608,608,608,608,608,608,608,608,608,608,608,608,608,608,608,608,608,608,608,608,608,607,605,603,602,601,600,597,592,585,569,545,464,401,291,206,107,0,0,0,0,0,0,0,0,0,0,0,0,0,0,0,0,0,0,0,0,0,0,0,0,0,0,0,0,0,0,0,0,0,0,0,0,0,0,0,0,0,18],"timestamp_mouse":[12,37,52,72,92,112,132,152,172,192,211,232,252,272,293,312,332,352,372,393,412,431,452,472,492,512,532,552,572,592,611,632,652,671,693,713,732,753,772,791,812,832,851,871,891,913,933,952,972,991,1013,1031,1051,1071,1091,1111,1132,1152,1173,1192,1211,1232,1251,1272,1292,1312,1331,1352,1372,1391,1411,1431,1451,1473,1493,1513,1532,1551,1572,1591,1612,1633,1652,1672,1692,1712,1732,1751,1772,1792,1811,1832,1852,1872,1893,1912],"xSR":741.5,"ySR":573.95,"xT1":424.9,"yT1":0,"xT2":1058.1,"yT2":0,"toosoon":0,"cond_shown":"Incongruent","ratio_trial":300,"L_num":1,"L_den":2,"R_num":3,"R_den":15,"correct_side":1,"subjID":"santiagodiazarias13","gender":"0","school":"4","age":"9"},{"start_time":1552073515741,"click_time":1552073516872,"finger_time":1552073516212,"fix_duration":1127.6632464290415,"trial":18,"RT":471,"MT":660,"sideResp":1,"stimulus":[],"xmouse":[803,803,803,803,803,803,803,803,803,803,803,803,803,803,803,803,803,803,805,805,808,824,828,840,853,873,910,924,934,939,940,942,951,969,973,967,833,687,511,338,214,143,164,207,240,322,357,358,358,358,358,358,363,384,401,420,443],"ymouse":[634,634,634,635,635,635,635,635,635,635,635,635,635,635,635,635,635,635,632,628,619,588,574,548,529,507,460,435,416,399,382,355,334,302,279,261,215,209,209,207,205,197,185,173,164,148,139,139,139,139,139,139,139,130,119,105,85],"timestamp_mouse":[13,47,52,71,90,112,131,150,170,192,212,231,252,271,291,312,332,352,371,390,410,431,451,471,490,510,531,550,570,591,611,631,651,670,691,710,730,750,770,790,811,830,852,870,891,910,930,952,971,992,1012,1030,1051,1070,1092,1111,1130],"xSR":741.5,"ySR":573.95,"xT1":424.9,"yT1":0,"xT2":1058.1,"yT2":0,"toosoon":0,"cond_shown":"Congruent","ratio_trial":100,"L_num":11,"L_den":22,"R_num":6,"R_den":15,"correct_side":1,"subjID":"santiagodiazarias13","gender":"0","school":"4","age":"9"},{"start_time":1552073518626,"click_time":1552073519472,"finger_time":1552073518993,"fix_duration":552.4691628305009,"trial":19,"RT":367,"MT":479,"sideResp":1,"stimulus":[],"xmouse":[763,763,763,763,763,763,763,763,763,763,763,763,763,763,764,765,768,793,813,841,894,928,968,968,952,929,888,865,836,813,788,756,687,662,628,595,567,566,566,564,555,539,517],"ymouse":[620,620,620,620,620,620,620,620,620,620,620,620,620,620,620,620,620,591,565,522,452,395,309,278,261,251,245,245,245,242,234,220,189,175,158,142,130,129,129,128,119,109,92],"timestamp_mouse":[12,26,46,67,86,105,127,146,165,185,205,226,246,266,285,306,325,345,367,386,407,425,445,465,485,506,527,545,567,585,605,626,645,665,685,706,727,745,767,785,807,826,846],"xSR":741.5,"ySR":573.95,"xT1":424.9,"yT1":0,"xT2":1058.1,"yT2":0,"toosoon":0,"cond_shown":"Incongruent","ratio_trial":200,"L_num":11,"L_den":20,"R_num":3,"R_den":4,"correct_side":2,"subjID":"santiagodiazarias13","gender":"0","school":"4","age":"9"},{"start_time":1552073522603,"click_time":1552073523572,"finger_time":1552073522931,"fix_duration":250,"trial":20,"RT":328,"MT":641,"sideResp":1,"stimulus":[],"xmouse":[841,841,841,841,841,841,841,841,841,841,841,841,841,841,841,841,844,845,851,852,853,853,854,858,860,861,862,862,862,861,860,853,847,833,823,804,777,742,694,664,651,604,588,564,560,556,554,534,516],"ymouse":[593,593,593,593,593,593,593,593,593,593,593,593,593,593,593,593,592,591,583,580,579,578,578,571,568,563,558,555,552,551,551,544,531,470,425,375,329,291,248,219,206,166,153,135,129,121,111,88,75],"timestamp_mouse":[21,29,48,68,88,109,130,149,170,188,209,229,249,269,289,308,328,348,368,388,408,428,448,469,488,508,529,549,568,590,608,629,648,668,688,708,729,749,769,789,808,828,848,868,888,908,929,950,969],"xSR":741.5,"ySR":573.95,"xT1":424.9,"yT1":0,"xT2":1058.1,"yT2":0,"toosoon":0,"cond_shown":"Congruent","ratio_trial":200,"L_num":12,"L_den":20,"R_num":6,"R_den":15,"correct_side":1,"subjID":"santiagodiazarias13","gender":"0","school":"4","age":"9"},{"start_time":1552073525931,"click_time":1552073526972,"finger_time":1552073526371,"fix_duration":1157.5491426650674,"trial":21,"RT":440,"MT":601,"sideResp":2,"stimulus":[],"xmouse":[774,774,774,774,774,774,774,774,774,774,774,774,774,774,777,780,782,788,789,789,789,787,785,785,790,803,813,839,851,861,869,876,895,904,911,925,935,963,975,981,987,992,1003,1007,1012,1019,1025,1041,1048,1052,1060,1068,1082],"ymouse":[636,636,636,636,636,636,636,636,636,636,636,636,636,636,634,629,627,615,609,602,594,586,569,561,551,538,527,487,465,443,422,405,381,364,342,299,281,256,250,245,238,230,212,202,194,185,179,164,151,135,118,101,73],"timestamp_mouse":[10,20,41,61,81,102,120,142,160,181,202,221,241,260,281,301,320,341,360,381,401,421,440,461,481,501,520,540,560,582,601,621,640,662,681,702,721,740,760,781,800,822,841,862,881,900,920,941,961,981,1001,1021,1040],"xSR":741.5,"ySR":573.95,"xT1":424.9,"yT1":0,"xT2":1058.1,"yT2":0,"toosoon":0,"cond_shown":"Congruent","ratio_trial":300,"L_num":4,"L_den":20,"R_num":13,"R_den":26,"correct_side":2,"subjID":"santiagodiazarias13","gender":"0","school":"4","age":"9"},{"start_time":1552073528695,"click_time":1552073530132,"finger_time":1552073529472,"fix_duration":321.87631848930545,"trial":22,"RT":777,"MT":660,"sideResp":1,"stimulus":[],"xmouse":[801,801,801,801,801,801,801,801,801,801,801,801,801,801,801,801,801,801,801,801,801,801,801,801,801,801,801,801,801,801,801,801,801,801,801,802,803,809,819,836,864,900,930,974,985,988,977,953,899,880,861,843,818,702,648,615,588,561,552,547,547,547,547,547,547,547,547,547,547,546,541,523],"ymouse":[607,607,607,607,607,607,607,607,607,607,607,607,607,607,607,607,607,607,607,607,607,607,607,607,607,607,607,607,607,607,607,607,607,607,607,607,602,584,563,531,490,440,394,299,261,224,205,189,171,167,161,155,144,95,73,61,50,46,45,44,44,44,44,44,44,44,44,44,44,44,44,43],"timestamp_mouse":[21,45,57,78,98,116,138,156,176,196,218,236,258,276,296,316,338,357,376,396,418,437,456,477,498,518,537,557,577,597,618,637,656,676,697,718,738,758,777,797,818,837,857,877,897,916,937,956,976,996,1016,1037,1057,1077,1096,1117,1138,1158,1176,1196,1216,1237,1258,1277,1298,1317,1338,1356,1377,1396,1416,1437],"xSR":741.5,"ySR":573.95,"xT1":424.9,"yT1":0,"xT2":1058.1,"yT2":0,"toosoon":0,"cond_shown":"Congruent","ratio_trial":100,"L_num":4,"L_den":8,"R_num":6,"R_den":10,"correct_side":2,"subjID":"santiagodiazarias13","gender":"0","school":"4","age":"9"},{"start_time":1552073532753,"click_time":1552073533671,"finger_time":1552073533292,"fix_duration":1319.0535436118273,"trial":23,"RT":539,"MT":379,"sideResp":1,"stimulus":[],"xmouse":[794,793,793,791,791,791,790,790,790,790,790,790,790,790,790,790,790,790,790,790,790,790,790,790,790,790,780,767,745,706,619,593,581,571,550,534,518,517,517,520,523,523,523,523,523,523,523],"ymouse":[636,634,634,631,630,629,628,628,628,628,628,628,628,628,628,628,626,621,620,618,617,617,617,617,616,611,589,571,553,524,459,433,414,393,343,305,249,228,205,187,152,141,133,126,114,108,98],"timestamp_mouse":[1,38,50,60,79,98,118,139,158,178,199,220,240,258,280,298,319,338,359,379,399,418,439,460,479,498,519,539,558,578,600,618,639,659,678,698,718,738,758,778,799,818,839,859,878,898,918],"xSR":741.5,"ySR":573.95,"xT1":424.9,"yT1":0,"xT2":1058.1,"yT2":0,"toosoon":0,"cond_shown":"Congruent","ratio_trial":300,"L_num":9,"L_den":10,"R_num":3,"R_den":5,"correct_side":1,"subjID":"santiagodiazarias13","gender":"0","school":"4","age":"9"},{"start_time":1552073536776,"click_time":1552073538232,"finger_time":1552073538113,"fix_duration":503.4843530976947,"trial":24,"RT":1337,"MT":119,"sideResp":2,"stimulus":[],"xmouse":[796,796,794,794,794,794,794,794,794,794,794,794,794,794,794,794,794,794,794,794,794,794,794,794,794,794,794,794,794,794,794,794,794,794,794,794,794,794,794,794,794,794,794,794,794,794,794,794,794,794,794,794,794,794,794,794,794,794,794,794,794,794,794,800,815,847,884,969,1000,1031,1053,1071],"ymouse":[642,635,628,627,627,627,627,627,627,627,627,627,627,627,627,627,627,627,627,627,627,627,627,627,627,627,627,627,627,627,627,627,627,627,627,627,627,627,627,627,627,627,627,627,627,627,627,627,627,627,627,627,627,627,627,627,627,627,627,627,627,627,625,604,581,534,470,319,243,168,110,57],"timestamp_mouse":[37,57,76,96,115,136,157,177,196,217,235,256,277,295,315,335,356,376,395,415,436,455,477,497,517,536,555,577,597,615,635,656,676,696,716,735,755,776,795,815,835,855,876,896,915,935,957,975,996,1016,1036,1055,1076,1096,1115,1136,1155,1176,1195,1215,1236,1255,1276,1296,1316,1337,1356,1377,1395,1416,1435,1456],"xSR":741.5,"ySR":573.95,"xT1":424.9,"yT1":0,"xT2":1058.1,"yT2":0,"toosoon":0,"cond_shown":"Congruent","ratio_trial":100,"L_num":6,"L_den":20,"R_num":5,"R_den":25,"correct_side":1,"subjID":"santiagodiazarias13","gender":"0","school":"4","age":"9"},{"start_time":1552073541047,"click_time":1552073541953,"finger_time":1552073541792,"fix_duration":1473.8737742589317,"trial":25,"RT":745,"MT":161,"sideResp":1,"stimulus":[],"xmouse":[801,799,799,799,799,799,799,799,801,801,801,801,801,801,801,801,801,801,801,801,801,801,801,801,801,801,801,801,801,801,801,801,801,801,801,801,800,786,765,727,687,595,556,526,503,480],"ymouse":[639,639,639,639,639,639,639,639,639,639,639,639,639,639,639,639,639,639,639,639,639,639,639,639,639,639,639,639,639,639,639,639,639,639,639,639,620,572,521,452,385,257,195,142,100,40],"timestamp_mouse":[5,28,44,65,84,104,126,145,164,185,205,224,245,264,285,304,326,345,364,386,406,426,445,464,484,504,526,544,565,585,606,624,645,665,685,704,724,745,764,785,806,826,845,864,886,905],"xSR":741.5,"ySR":573.95,"xT1":424.9,"yT1":0,"xT2":1058.1,"yT2":0,"toosoon":0,"cond_shown":"Incongruent","ratio_trial":200,"L_num":4,"L_den":5,"R_num":6,"R_den":10,"correct_side":1,"subjID":"santiagodiazarias13","gender":"0","school":"4","age":"9"},{"start_time":1552073544729,"click_time":1552073546171,"finger_time":1552073545753,"fix_duration":1315.9295275907214,"trial":26,"RT":1024,"MT":418,"sideResp":2,"stimulus":[],"xmouse":[804,804,804,804,804,804,804,804,803,802,800,799,799,799,799,799,799,799,799,799,799,799,799,799,799,799,799,799,799,799,799,799,799,799,799,799,799,799,799,799,799,799,799,799,799,799,799,801,805,809,817,838,847,859,873,878,886,905,917,932,946,965,995,1014,1021,1026,1029,1035,1040,1051,1064,1075,1086],"ymouse":[667,667,662,662,662,662,662,656,650,645,639,636,636,636,636,636,636,636,636,636,636,636,636,636,636,636,636,636,636,636,636,636,636,636,636,636,636,636,636,636,636,636,636,636,636,636,635,626,614,600,579,529,499,475,440,417,391,345,323,301,281,258,219,196,185,180,177,171,166,155,141,123,91],"timestamp_mouse":[11,24,44,64,83,103,124,143,163,182,202,224,244,263,283,303,323,342,363,384,404,422,443,463,484,503,523,542,562,582,602,622,644,664,684,702,723,743,764,784,802,823,844,864,883,902,922,942,962,983,1003,1024,1043,1063,1082,1104,1123,1143,1162,1182,1202,1224,1243,1264,1282,1303,1322,1342,1362,1383,1403,1422,1442],"xSR":741.5,"ySR":573.95,"xT1":424.9,"yT1":0,"xT2":1058.1,"yT2":0,"toosoon":0,"cond_shown":"Congruent","ratio_trial":100,"L_num":7,"L_den":14,"R_num":9,"R_den":15,"correct_side":2,"subjID":"santiagodiazarias13","gender":"0","school":"4","age":"9"},{"start_time":1552073550102,"click_time":1552073550793,"finger_time":1552073550673,"fix_duration":1429.0957886081999,"trial":27,"RT":571,"MT":120,"sideResp":1,"stimulus":[],"xmouse":[808,808,808,808,808,808,808,808,808,808,808,808,808,808,808,808,808,808,808,808,808,808,808,808,808,807,791,759,659,616,584,555,521,463,440],"ymouse":[644,644,644,644,644,644,644,644,644,644,644,644,644,644,644,644,644,644,644,644,644,644,644,644,644,632,612,576,471,415,352,290,226,118,71],"timestamp_mouse":[10,37,51,71,89,109,129,149,170,190,209,229,249,269,291,309,330,350,370,390,409,430,451,470,489,510,530,550,571,590,611,629,649,669,691],"xSR":741.5,"ySR":573.95,"xT1":424.9,"yT1":0,"xT2":1058.1,"yT2":0,"toosoon":0,"cond_shown":"Congruent","ratio_trial":300,"L_num":4,"L_den":5,"R_num":2,"R_den":4,"correct_side":1,"subjID":"santiagodiazarias13","gender":"0","school":"4","age":"9"},{"start_time":1552073552103,"click_time":1552073553552,"finger_time":1552073552691,"fix_duration":250,"trial":28,"RT":588,"MT":861,"sideResp":1,"stimulus":[],"xmouse":[787,787,787,787,787,787,787,787,787,787,787,787,787,787,787,787,787,787,787,787,787,787,787,787,787,787,787,787,797,806,818,827,834,845,849,855,861,866,884,896,906,916,924,925,873,830,659,529,280,199,164,161,170,185,185,194,205,216,233,243,255,264,273,309,334,342,348,350,350,362,392,419,436],"ymouse":[603,603,603,603,603,603,603,603,603,603,603,603,603,603,603,603,603,603,603,603,603,603,603,603,603,603,603,602,587,570,550,532,514,484,469,451,426,408,372,351,328,306,287,267,257,257,257,257,216,180,154,136,116,103,103,102,102,102,100,100,100,100,100,100,95,91,86,84,84,84,84,82,76],"timestamp_mouse":[10,37,49,69,89,109,130,150,168,189,210,228,248,269,290,309,328,349,369,390,409,428,450,469,488,509,530,549,568,588,610,628,650,669,689,709,730,748,768,788,809,829,849,868,889,909,928,948,969,988,1010,1029,1049,1068,1090,1108,1129,1149,1170,1190,1210,1230,1249,1269,1290,1308,1329,1349,1369,1390,1409,1430,1449],"xSR":741.5,"ySR":573.95,"xT1":424.9,"yT1":0,"xT2":1058.1,"yT2":0,"toosoon":0,"cond_shown":"Congruent","ratio_trial":100,"L_num":2,"L_den":5,"R_num":6,"R_den":12,"correct_side":2,"subjID":"santiagodiazarias13","gender":"0","school":"4","age":"9"},{"start_time":1552073556503,"click_time":1552073558372,"finger_time":1552073556672,"fix_duration":250,"trial":29,"RT":169,"MT":1700,"sideResp":2,"stimulus":[],"xmouse":[802,802,802,802,802,802,802,802,806,806,806,806,807,817,832,832,832,832,852,859,859,849,844,839,837,836,835,831,823,822,821,821,821,821,821,821,821,821,821,821,820,820,820,816,813,812,811,811,811,809,809,808,807,804,803,801,795,791,790,790,790,790,790,790,792,793,802,806,806,821,850,885,933,1025,1055,1077,1087,1105,1120,1131,1137,1138,1138,1134,1132,1132,1131,1127,1116,1113,1112,1112,1112,1108],"ymouse":[647,647,647,647,647,647,647,654,692,711,727,738,746,794,868,868,868,868,836,789,747,716,693,655,642,637,633,628,623,622,622,622,622,622,622,622,622,622,622,622,621,621,621,621,621,621,621,621,621,621,621,621,621,621,621,621,621,621,621,621,621,621,621,621,615,608,578,546,448,386,314,238,158,22,0,0,0,0,0,0,0,0,0,0,0,0,0,0,0,0,0,0,0,13],"timestamp_mouse":[15,39,49,69,90,110,130,149,169,189,209,229,249,268,289,309,329,348,370,389,408,428,448,469,489,509,529,548,569,589,609,629,648,669,689,710,730,750,768,789,809,830,850,868,889,909,929,948,970,988,1009,1029,1048,1069,1089,1109,1128,1149,1169,1189,1210,1229,1249,1270,1289,1308,1329,1349,1369,1388,1409,1429,1450,1469,1488,1509,1530,1550,1569,1588,1609,1629,1649,1670,1688,1709,1728,1749,1769,1790,1809,1829,1850,1869],"xSR":741.5,"ySR":573.95,"xT1":424.9,"yT1":0,"xT2":1058.1,"yT2":0,"toosoon":0,"cond_shown":"Incongruent","ratio_trial":100,"L_num":10,"L_den":25,"R_num":9,"R_den":18,"correct_side":2,"subjID":"santiagodiazarias13","gender":"0","school":"4","age":"9"},{"start_time":1552073560823,"click_time":1552073561851,"finger_time":1552073561371,"fix_duration":550.2531935730914,"trial":30,"RT":548,"MT":480,"sideResp":1,"stimulus":[],"xmouse":[788,788,788,788,788,788,788,788,788,788,788,788,788,788,788,788,788,788,788,788,788,788,788,788,788,780,770,689,649,624,617,607,595,594,594,592,592,599,603,603,601,592,562,554,554,554,554,556,556,556,541,502],"ymouse":[595,595,595,595,595,595,595,595,595,595,595,595,595,595,595,595,595,595,595,595,595,595,595,595,595,586,582,512,447,358,311,268,218,201,185,169,140,122,91,72,55,39,13,12,12,12,12,12,12,12,12,12],"timestamp_mouse":[13,39,50,69,89,108,129,149,170,189,208,229,249,268,290,310,328,350,370,388,409,430,449,468,489,508,530,548,569,588,609,629,649,668,690,710,730,748,768,788,808,829,848,869,889,909,929,949,969,988,1008,1028],"xSR":741.5,"ySR":573.95,"xT1":424.9,"yT1":0,"xT2":1058.1,"yT2":0,"toosoon":0,"cond_shown":"Incongruent","ratio_trial":300,"L_num":13,"L_den":26,"R_num":12,"R_den":15,"correct_side":2,"subjID":"santiagodiazarias13","gender":"0","school":"4","age":"9"},{"start_time":1552073564016,"click_time":1552073565272,"finger_time":1552073564712,"fix_duration":543.4273512108866,"trial":31,"RT":696,"MT":560,"sideResp":2,"stimulus":[],"xmouse":[788,788,788,788,788,788,788,788,788,788,788,788,788,788,788,788,788,788,788,788,788,788,788,788,788,788,788,788,788,789,798,799,808,814,821,824,838,848,862,878,921,957,1015,1026,1028,1028,1028,1038,1054,1078,1085,1089,1093,1093,1093,1093,1093,1093,1093,1093,1093,1093,1096],"ymouse":[610,610,610,610,610,610,610,610,610,610,610,610,610,610,610,610,610,610,610,610,610,610,610,610,610,610,610,610,610,610,610,609,594,575,550,526,480,459,436,407,347,304,249,235,234,234,234,233,229,209,192,177,161,160,160,160,160,160,160,142,129,115,92],"timestamp_mouse":[16,36,56,77,97,117,136,155,176,195,217,236,256,275,296,317,335,356,377,395,415,436,457,476,495,516,537,556,575,596,617,636,656,676,696,716,737,755,775,795,815,835,857,876,897,916,936,955,976,995,1017,1036,1056,1076,1097,1117,1136,1156,1176,1195,1216,1236,1256],"xSR":741.5,"ySR":573.95,"xT1":424.9,"yT1":0,"xT2":1058.1,"yT2":0,"toosoon":0,"cond_shown":"Incongruent","ratio_trial":300,"L_num":13,"L_den":26,"R_num":12,"R_den":15,"correct_side":2,"subjID":"santiagodiazarias13","gender":"0","school":"4","age":"9"},{"start_time":1552073567111,"click_time":1552073568471,"finger_time":1552073568073,"fix_duration":397.21624735737004,"trial":32,"RT":962,"MT":398,"sideResp":1,"stimulus":[],"xmouse":[791,791,791,791,791,791,791,791,791,791,791,791,791,791,791,791,791,791,791,791,791,791,791,791,791,791,791,791,791,791,791,791,791,791,791,791,791,791,791,791,791,791,791,791,791,790,785,767,722,706,697,691,681,667,660,649,647,633,624,621,619,616,615,602,596,581,562,540,499],"ymouse":[628,628,628,628,628,628,628,628,628,628,628,628,628,628,628,628,628,628,628,628,628,628,628,628,628,628,628,628,628,628,628,628,628,628,628,628,628,628,628,628,628,628,628,628,628,627,623,601,535,490,450,401,353,277,253,224,214,183,146,134,125,120,119,114,108,88,70,55,25],"timestamp_mouse":[10,21,40,62,81,100,121,140,161,182,200,221,242,262,280,301,322,340,362,381,400,422,442,462,482,500,521,541,562,582,600,621,641,660,680,702,721,741,760,781,801,821,840,862,882,900,921,941,962,980,1001,1021,1041,1061,1081,1100,1121,1140,1161,1182,1200,1220,1241,1260,1280,1300,1322,1341,1360],"xSR":741.5,"ySR":573.95,"xT1":424.9,"yT1":0,"xT2":1058.1,"yT2":0,"toosoon":0,"cond_shown":"Congruent","ratio_trial":200,"L_num":16,"L_den":20,"R_num":12,"R_den":20,"correct_side":1,"subjID":"santiagodiazarias13","gender":"0","school":"4","age":"9"},{"start_time":1552073572547,"click_time":1552073574211,"finger_time":1552073573273,"fix_duration":1452.401720195334,"trial":33,"RT":726,"MT":938,"sideResp":1,"stimulus":[],"xmouse":[787,787,787,787,787,787,787,787,787,787,787,787,787,787,787,787,787,787,787,787,787,787,787,787,787,787,787,787,787,787,787,787,786,776,770,751,728,720,704,675,632,568,551,545,539,533,521,519,518,518,518,518,518,517,517,511,508,505,503,503,503,503,503,503,503,503,503,501,499,497,496,496,496,496,496,496,496,496,496,496,496,496,496,492],"ymouse":[614,614,614,614,614,614,614,614,614,614,614,614,614,614,614,614,614,614,614,614,614,614,614,614,614,614,614,614,614,614,614,614,614,611,606,583,509,449,385,315,241,95,18,0,0,0,0,0,0,0,0,0,0,0,0,0,0,0,0,0,0,0,0,0,0,0,0,0,0,0,0,0,0,0,0,0,0,0,0,0,0,0,0,5],"timestamp_mouse":[5,36,45,65,84,104,126,144,166,185,206,225,244,264,285,304,324,345,366,386,405,424,445,466,485,506,526,544,566,586,606,625,646,665,684,705,726,744,765,784,806,825,844,864,884,904,926,944,965,985,1004,1025,1045,1064,1085,1109,1127,1144,1164,1186,1205,1225,1245,1265,1285,1306,1326,1345,1365,1385,1406,1425,1445,1465,1485,1506,1525,1545,1566,1585,1605,1625,1645,1664],"xSR":741.5,"ySR":573.95,"xT1":424.9,"yT1":0,"xT2":1058.1,"yT2":0,"toosoon":0,"cond_shown":"Congruent","ratio_trial":300,"L_num":20,"L_den":25,"R_num":8,"R_den":16,"correct_side":1,"subjID":"santiagodiazarias13","gender":"0","school":"4","age":"9"},{"start_time":1552073576012,"click_time":1552073577593,"finger_time":1552073576451,"fix_duration":559.3665071841742,"trial":34,"RT":439,"MT":1142,"sideResp":2,"stimulus":[],"xmouse":[786,786,786,786,786,786,786,786,786,786,786,786,786,786,786,786,786,786,786,784,771,752,736,701,695,684,676,667,653,644,638,632,632,605,590,576,571,570,568,567,565,562,556,532,528,527,527,525,525,525,527,531,546,633,711,782,858,967,1296,1404,1447,1447,1447,1447,1450,1455,1459,1460,1344,1273,1234,1227,1226,1226,1225,1217,1201,1197,1192,1157],"ymouse":[633,633,633,633,633,633,633,633,633,633,633,633,633,633,633,633,633,633,633,633,631,617,602,522,463,392,322,259,171,133,112,96,96,63,55,52,52,52,52,51,51,50,50,46,45,45,45,44,44,44,44,44,46,57,68,79,89,105,148,150,149,149,149,149,149,149,142,133,93,71,62,59,58,58,58,56,55,55,54,50],"timestamp_mouse":[7,21,40,60,80,100,119,139,160,180,199,220,241,261,279,301,319,339,361,380,400,419,439,459,479,500,519,541,560,581,599,620,639,660,679,700,720,740,760,781,799,820,839,861,880,901,919,940,961,981,1000,1020,1041,1061,1080,1101,1120,1140,1159,1180,1201,1220,1241,1260,1281,1300,1319,1340,1360,1380,1399,1420,1439,1460,1479,1501,1519,1541,1559,1580],"xSR":741.5,"ySR":573.95,"xT1":424.9,"yT1":0,"xT2":1058.1,"yT2":0,"toosoon":0,"cond_shown":"Congruent","ratio_trial":300,"L_num":11,"L_den":22,"R_num":1,"R_den":5,"correct_side":1,"subjID":"santiagodiazarias13","gender":"0","school":"4","age":"9"},{"start_time":1552073582527,"click_time":1552073583432,"finger_time":1552073582972,"fix_duration":1333.7462243672726,"trial":35,"RT":445,"MT":460,"sideResp":2,"stimulus":[],"xmouse":[773,773,773,773,773,773,773,773,773,773,773,773,773,773,773,773,773,773,773,768,764,755,734,722,714,712,712,755,795,851,897,935,958,963,964,969,981,1028,1048,1059,1064,1066,1066,1071,1090,1102],"ymouse":[604,604,604,604,604,604,604,604,604,604,604,604,604,604,604,604,604,604,604,597,592,577,544,524,511,505,501,482,464,430,393,358,323,310,304,275,250,179,151,131,118,112,112,112,104,93],"timestamp_mouse":[13,26,45,66,86,105,124,146,164,184,205,226,245,265,286,305,325,346,365,386,406,424,445,465,484,505,525,546,564,584,604,625,645,665,684,705,725,745,764,785,805,826,845,864,884,905],"xSR":741.5,"ySR":573.95,"xT1":424.9,"yT1":0,"xT2":1058.1,"yT2":0,"toosoon":0,"cond_shown":"Congruent","ratio_trial":200,"L_num":7,"L_den":15,"R_num":18,"R_den":27,"correct_side":2,"subjID":"santiagodiazarias13","gender":"0","school":"4","age":"9"},{"start_time":1552073586241,"click_time":1552073587192,"finger_time":1552073587011,"fix_duration":868.5389232173758,"trial":36,"RT":770,"MT":181,"sideResp":2,"stimulus":[],"xmouse":[797,797,797,797,797,797,797,797,797,797,797,797,797,797,797,797,797,797,797,797,797,797,797,797,797,797,797,797,797,797,797,797,797,799,803,814,819,824,842,870,915,999,1032,1055,1070,1075,1088,1094],"ymouse":[619,619,619,619,619,619,619,619,619,619,619,619,619,619,619,619,619,619,619,619,619,619,619,619,619,619,619,619,619,619,619,619,619,618,613,596,586,574,543,487,398,283,237,199,171,154,114,91],"timestamp_mouse":[14,42,50,70,92,110,130,152,170,191,212,232,250,270,291,311,332,352,371,391,411,432,450,471,491,511,531,551,572,590,612,631,652,671,691,712,730,750,770,791,810,830,850,871,891,911,931,951],"xSR":741.5,"ySR":573.95,"xT1":424.9,"yT1":0,"xT2":1058.1,"yT2":0,"toosoon":0,"cond_shown":"Incongruent","ratio_trial":300,"L_num":4,"L_den":20,"R_num":2,"R_den":4,"correct_side":2,"subjID":"santiagodiazarias13","gender":"0","school":"4","age":"9"},{"start_time":1552073589454,"click_time":1552073590112,"finger_time":1552073590012,"fix_duration":761.7303656478309,"trial":37,"RT":558,"MT":100,"sideResp":1,"stimulus":[],"xmouse":[786,786,786,786,786,786,786,786,786,786,786,786,786,786,786,786,786,786,786,786,786,786,786,786,780,769,736,704,630,596,552,513],"ymouse":[662,660,660,660,660,660,660,660,660,660,660,660,660,660,660,660,660,660,660,660,660,660,660,657,632,589,480,392,222,144,74,13],"timestamp_mouse":[38,58,79,99,117,138,159,178,197,218,239,258,278,297,317,337,359,378,399,419,438,459,477,498,517,538,558,578,599,618,637,657],"xSR":741.5,"ySR":573.95,"xT1":424.9,"yT1":0,"xT2":1058.1,"yT2":0,"toosoon":0,"cond_shown":"Congruent","ratio_trial":200,"L_num":11,"L_den":22,"R_num":3,"R_den":10,"correct_side":1,"subjID":"santiagodiazarias13","gender":"0","school":"4","age":"9"},{"start_time":1552073592222,"click_time":1552073593491,"finger_time":1552073592753,"fix_duration":569.3409678534989,"trial":38,"RT":531,"MT":738,"sideResp":2,"stimulus":[],"xmouse":[798,798,798,798,798,798,798,798,798,798,798,798,798,798,798,798,798,798,798,798,798,798,798,797,794,783,772,749,740,738,733,734,739,735,725,714,683,670,661,658,658,664,704,759,851,998,1175,1341,1344,1332,1318,1309,1305,1299,1298,1295,1292,1288,1287,1285,1278,1255,1161,1126],"ymouse":[613,613,613,613,613,613,613,613,613,613,613,613,613,613,613,613,613,613,613,613,613,613,613,614,608,591,571,533,509,501,476,460,426,410,395,381,359,352,348,346,338,319,221,156,92,38,1,0,0,0,0,0,0,0,0,0,0,0,0,0,0,9,50,64],"timestamp_mouse":[13,32,50,70,91,110,130,151,169,189,211,230,251,269,290,309,330,349,369,391,411,430,450,469,489,509,531,550,570,590,611,630,649,670,690,710,731,750,770,790,810,829,849,869,889,911,930,950,969,989,1010,1029,1050,1070,1089,1110,1129,1150,1169,1190,1211,1229,1250,1269],"xSR":741.5,"ySR":573.95,"xT1":424.9,"yT1":0,"xT2":1058.1,"yT2":0,"toosoon":0,"cond_shown":"Incongruent","ratio_trial":300,"L_num":4,"L_den":20,"R_num":2,"R_den":4,"correct_side":2,"subjID":"santiagodiazarias13","gender":"0","school":"4","age":"9"},{"start_time":1552073597109,"click_time":1552073598431,"finger_time":1552073597611,"fix_duration":1055.0598272482703,"trial":39,"RT":502,"MT":820,"sideResp":1,"stimulus":[],"xmouse":[772,772,772,772,772,772,772,772,772,772,772,772,772,772,772,772,772,772,772,772,772,772,772,796,823,871,913,953,1017,1027,1028,1027,1025,1025,1025,1025,1032,1041,1060,1067,1070,1071,1067,983,881,852,787,763,745,740,735,726,708,698,678,635,594,535,452,449,449,450,453,458,461,468,476],"ymouse":[634,634,634,634,634,634,634,634,634,634,634,634,634,634,634,634,634,634,634,634,634,634,633,610,586,537,476,417,312,283,263,248,243,235,226,222,205,192,158,140,125,116,113,101,106,110,120,122,124,124,124,124,124,126,126,126,126,126,126,126,126,125,122,116,112,106,98],"timestamp_mouse":[20,37,43,64,83,102,124,143,163,184,204,223,242,263,284,302,323,342,364,382,404,423,443,462,484,502,522,543,562,584,602,622,643,662,683,703,723,742,762,783,802,823,842,862,883,903,923,942,962,982,1002,1022,1044,1062,1083,1102,1122,1143,1163,1183,1204,1223,1243,1264,1283,1302,1322],"xSR":741.5,"ySR":573.95,"xT1":424.9,"yT1":0,"xT2":1058.1,"yT2":0,"toosoon":0,"cond_shown":"Congruent","ratio_trial":100,"L_num":2,"L_den":5,"R_num":11,"R_den":22,"correct_side":2,"subjID":"santiagodiazarias13","gender":"0","school":"4","age":"9"},{"start_time":1552073600929,"click_time":1552073601893,"finger_time":1552073601352,"fix_duration":1236.5073904187213,"trial":40,"RT":423,"MT":541,"sideResp":1,"stimulus":[],"xmouse":[790,790,790,790,790,790,790,790,790,790,790,790,790,790,793,795,799,802,805,805,805,805,802,791,764,734,699,642,630,621,619,627,664,678,678,669,654,617,612,611,611,611,611,603,600,589,571,548,516],"ymouse":[613,613,613,613,613,613,613,613,613,613,613,613,613,613,613,611,606,596,590,585,578,571,554,540,520,498,473,425,404,382,368,353,324,297,286,254,236,213,211,210,210,210,204,189,182,162,126,102,77],"timestamp_mouse":[11,24,42,62,83,103,124,142,162,184,204,223,243,264,282,303,323,342,362,384,403,423,443,464,482,502,522,543,563,582,602,624,643,664,683,702,723,744,762,783,803,823,842,864,883,904,924,942,963],"xSR":741.5,"ySR":573.95,"xT1":424.9,"yT1":0,"xT2":1058.1,"yT2":0,"toosoon":0,"cond_shown":"Incongruent","ratio_trial":100,"L_num":9,"L_den":18,"R_num":6,"R_den":10,"correct_side":2,"subjID":"santiagodiazarias13","gender":"0","school":"4","age":"9"},{"start_time":1552073603582,"click_time":1552073604631,"finger_time":1552073604071,"fix_duration":787.5984694030197,"trial":41,"RT":489,"MT":560,"sideResp":2,"stimulus":[],"xmouse":[779,779,779,779,779,779,779,779,779,779,779,779,779,779,779,781,784,787,788,788,788,788,790,801,851,886,910,923,942,951,959,967,968,968,970,976,984,990,995,996,996,998,1005,1018,1031,1035,1035,1036,1039,1041,1046,1058,1064],"ymouse":[610,610,610,610,610,610,610,610,610,610,610,610,610,610,610,606,604,602,601,601,601,601,599,583,539,508,484,460,414,393,375,355,344,333,302,283,261,244,231,221,220,220,220,217,202,190,179,166,149,143,131,104,83],"timestamp_mouse":[22,41,50,70,90,110,129,151,169,191,211,230,249,271,291,309,329,350,369,390,410,430,449,469,489,509,529,549,571,590,610,629,650,669,689,709,729,750,770,790,810,829,850,869,889,909,930,950,971,990,1010,1029,1049],"xSR":741.5,"ySR":573.95,"xT1":424.9,"yT1":0,"xT2":1058.1,"yT2":0,"toosoon":0,"cond_shown":"Congruent","ratio_trial":100,"L_num":2,"L_den":5,"R_num":6,"R_den":12,"correct_side":2,"subjID":"santiagodiazarias13","gender":"0","school":"4","age":"9"},{"start_time":1552073606103,"click_time":1552073607311,"finger_time":1552073606872,"fix_duration":250,"trial":42,"RT":769,"MT":439,"sideResp":2,"stimulus":[],"xmouse":[800,800,800,800,800,800,800,800,800,800,800,800,800,800,800,800,800,800,800,800,800,800,800,800,800,800,800,800,800,800,800,800,800,806,808,809,813,820,851,876,901,924,945,979,992,1004,1020,1026,1038,1042,1044,1045,1045,1045,1045,1047,1053,1063,1069,1074,1079],"ymouse":[604,604,604,604,604,604,604,604,604,604,604,604,604,604,604,604,604,604,604,604,604,604,604,604,604,604,604,604,604,604,604,604,604,602,600,598,590,575,530,492,445,403,359,290,267,247,221,206,169,152,143,139,139,139,139,137,131,120,112,104,97],"timestamp_mouse":[11,38,50,68,90,109,128,148,170,189,210,228,249,269,290,309,330,350,369,388,408,428,449,470,490,510,529,548,568,588,610,630,650,668,688,709,729,749,769,789,808,828,850,870,889,908,930,949,969,988,1009,1029,1050,1068,1089,1109,1129,1150,1168,1188,1208],"xSR":741.5,"ySR":573.95,"xT1":424.9,"yT1":0,"xT2":1058.1,"yT2":0,"toosoon":0,"cond_shown":"Congruent","ratio_trial":300,"L_num":1,"L_den":3,"R_num":19,"R_den":30,"correct_side":2,"subjID":"santiagodiazarias13","gender":"0","school":"4","age":"9"},{"start_time":1552073610810,"click_time":1552073612772,"finger_time":1552073611072,"fix_duration":916.7019412455476,"trial":43,"RT":262,"MT":1700,"sideResp":1,"stimulus":[],"xmouse":[753,753,753,753,753,753,753,753,753,750,748,743,742,725,716,704,697,693,693,693,693,693,693,693,693,693,693,693,692,690,688,682,679,678,678,678,678,678,678,680,695,729,749,766,767,768,768,767,766,766,766,766,766,765,770,779,792,812,813,813,813,813,813,813,810,808,806,803,800,799,797,797,797,797,797,797,797,797,797,797,797,796,790,726,663,586,523,489,426,407,394,393,401,414,421,425,428,438,443],"ymouse":[618,618,618,618,618,618,618,618,618,618,618,618,618,610,604,600,599,599,599,599,599,599,599,599,599,599,599,599,581,563,553,531,521,507,505,503,503,503,503,503,510,546,567,587,589,589,589,589,589,589,589,589,589,593,605,618,635,661,663,663,663,663,661,660,657,654,652,647,644,643,640,640,640,640,640,640,640,640,640,640,640,637,623,530,460,383,313,247,119,75,39,14,0,0,0,0,0,0,3],"timestamp_mouse":[12,22,41,63,83,102,123,143,163,182,201,222,242,262,281,302,321,343,362,383,402,422,443,462,481,502,522,542,562,581,602,623,642,663,683,701,722,742,761,782,802,823,842,863,882,903,922,942,962,981,1002,1021,1043,1062,1082,1102,1122,1143,1161,1183,1203,1221,1242,1262,1281,1302,1322,1343,1362,1383,1402,1421,1443,1463,1483,1502,1521,1542,1562,1583,1603,1621,1641,1661,1681,1701,1722,1743,1762,1782,1802,1822,1843,1863,1883,1902,1923,1943,1962],"xSR":741.5,"ySR":573.95,"xT1":424.9,"yT1":0,"xT2":1058.1,"yT2":0,"toosoon":0,"cond_shown":"Congruent","ratio_trial":100,"L_num":3,"L_den":6,"R_num":2,"R_den":5,"correct_side":1,"subjID":"santiagodiazarias13","gender":"0","school":"4","age":"9"},{"start_time":1552073618565,"click_time":1552073619753,"finger_time":1552073619372,"fix_duration":951.5991389744182,"trial":44,"RT":807,"MT":381,"sideResp":1,"stimulus":[],"xmouse":[770,770,770,771,774,775,775,775,775,775,775,775,775,775,775,775,775,775,775,775,775,775,775,775,775,775,775,775,775,775,775,775,775,775,775,775,775,773,765,747,720,708,682,656,631,587,571,560,550,546,545,545,547,548,545,521,511,503,494,474],"ymouse":[624,624,624,624,624,624,624,624,624,624,624,624,624,624,624,624,624,624,624,624,624,624,624,624,624,624,624,624,624,624,624,624,624,624,624,624,624,619,610,595,559,539,492,447,402,314,285,267,253,245,239,227,214,202,188,154,137,120,101,73],"timestamp_mouse":[12,39,48,68,86,106,128,147,167,186,208,228,247,266,288,308,327,346,368,388,406,427,447,468,488,508,526,548,567,586,608,626,648,668,686,708,727,748,767,788,807,827,846,866,886,907,927,947,967,987,1006,1027,1047,1067,1086,1106,1128,1147,1167,1188],"xSR":741.5,"ySR":573.95,"xT1":424.9,"yT1":0,"xT2":1058.1,"yT2":0,"toosoon":0,"cond_shown":"Congruent","ratio_trial":300,"L_num":24,"L_den":30,"R_num":8,"R_den":16,"correct_side":1,"subjID":"santiagodiazarias13","gender":"0","school":"4","age":"9"},{"start_time":1552073625294,"click_time":1552073626073,"finger_time":1552073625711,"fix_duration":920.6427690669722,"trial":45,"RT":417,"MT":362,"sideResp":2,"stimulus":[],"xmouse":[779,779,779,779,779,779,779,779,779,779,779,779,779,779,779,779,779,779,779,785,813,837,850,880,908,952,981,1015,1094,1123,1133,1138,1138,1127,1118,1112,1104,1101,1096],"ymouse":[612,612,612,612,612,612,612,612,612,612,612,612,612,612,612,612,612,612,612,596,559,508,436,241,144,27,0,0,0,0,0,0,0,0,0,0,0,0,17],"timestamp_mouse":[19,42,58,79,99,118,137,157,178,199,219,237,259,278,298,319,337,359,378,397,417,437,458,478,498,518,538,561,578,597,618,639,658,678,698,719,738,760,778],"xSR":741.5,"ySR":573.95,"xT1":424.9,"yT1":0,"xT2":1058.1,"yT2":0,"toosoon":0,"cond_shown":"Congruent","ratio_trial":300,"L_num":7,"L_den":14,"R_num":20,"R_den":25,"correct_side":2,"subjID":"santiagodiazarias13","gender":"0","school":"4","age":"9"},{"start_time":1552073628325,"click_time":1552073629352,"finger_time":1552073629152,"fix_duration":1050.8357759809496,"trial":46,"RT":827,"MT":200,"sideResp":2,"stimulus":[],"xmouse":[793,793,793,793,793,793,793,793,793,793,793,793,793,793,793,793,793,793,793,793,793,793,793,793,793,793,793,793,793,793,793,793,793,793,793,793,793,793,793,799,814,834,880,924,953,979,1003,1038,1058,1079,1104,1122],"ymouse":[645,645,645,645,645,645,645,645,645,645,645,645,645,645,645,645,645,645,645,645,645,645,645,645,645,645,645,645,645,645,645,645,645,645,645,645,645,645,635,613,577,524,448,374,326,280,240,190,171,148,113,81],"timestamp_mouse":[13,28,47,68,88,107,128,148,166,188,207,228,248,267,286,307,327,348,368,386,407,426,447,466,487,507,526,548,568,587,608,627,648,668,688,707,728,748,767,787,807,827,847,867,886,908,926,946,967,986,1007,1027],"xSR":741.5,"ySR":573.95,"xT1":424.9,"yT1":0,"xT2":1058.1,"yT2":0,"toosoon":0,"cond_shown":"Incongruent","ratio_trial":300,"L_num":13,"L_den":26,"R_num":12,"R_den":15,"correct_side":2,"subjID":"santiagodiazarias13","gender":"0","school":"4","age":"9"},{"start_time":1552073632850,"click_time":1552073633713,"finger_time":1552073633412,"fix_duration":1176.2419764147533,"trial":47,"RT":562,"MT":301,"sideResp":2,"stimulus":[],"xmouse":[794,794,794,794,794,794,794,794,794,794,794,794,794,794,794,794,794,794,794,794,794,794,794,794,794,794,795,803,809,833,843,862,872,890,908,929,971,977,998,1010,1020,1039,1051,1064],"ymouse":[615,615,615,615,615,615,615,615,615,615,615,615,615,615,615,615,615,615,615,615,615,615,615,615,615,615,602,583,569,513,480,414,391,359,328,293,221,210,178,157,142,117,104,89],"timestamp_mouse":[13,38,43,62,82,103,122,143,161,182,203,222,243,262,282,303,323,343,363,383,401,421,441,461,482,503,522,543,562,582,601,621,643,662,681,701,722,743,762,783,801,821,843,863],"xSR":741.5,"ySR":573.95,"xT1":424.9,"yT1":0,"xT2":1058.1,"yT2":0,"toosoon":0,"cond_shown":"Incongruent","ratio_trial":200,"L_num":11,"L_den":20,"R_num":3,"R_den":4,"correct_side":2,"subjID":"santiagodiazarias13","gender":"0","school":"4","age":"9"},{"start_time":1552073636484,"click_time":1552073637472,"finger_time":1552073637153,"fix_duration":250,"trial":48,"RT":669,"MT":319,"sideResp":1,"stimulus":[],"xmouse":[786,786,786,786,786,786,786,786,786,786,786,786,786,786,786,786,786,786,786,786,786,786,786,786,786,786,786,786,786,786,786,778,750,706,577,520,471,419,396,389,393,400,405,406,407,408,416,425,435,448],"ymouse":[642,642,642,642,642,642,642,642,642,642,642,642,642,642,642,642,642,642,642,642,642,642,642,642,642,642,642,642,642,642,641,633,613,584,487,422,359,271,226,183,173,168,167,166,164,155,134,120,107,93],"timestamp_mouse":[19,43,48,69,87,108,128,149,168,189,208,228,247,269,288,309,328,349,369,389,407,428,449,468,488,508,529,548,567,589,608,629,649,669,688,708,728,749,769,787,807,827,847,867,887,907,927,948,967,987],"xSR":741.5,"ySR":573.95,"xT1":424.9,"yT1":0,"xT2":1058.1,"yT2":0,"toosoon":0,"cond_shown":"Congruent","ratio_trial":200,"L_num":9,"L_den":20,"R_num":4,"R_den":16,"correct_side":1,"subjID":"santiagodiazarias13","gender":"0","school":"4","age":"9"},{"start_time":1552073639428,"click_time":1552073640353,"finger_time":1552073639891,"fix_duration":854.2981335885514,"trial":49,"RT":463,"MT":462,"sideResp":2,"stimulus":[],"xmouse":[802,802,802,802,802,802,802,802,802,802,802,802,802,802,802,802,802,802,802,802,802,803,821,844,871,900,925,965,986,999,1017,1024,1041,1051,1060,1068,1069,1069,1069,1070,1070,1070,1070,1070,1070,1071,1082],"ymouse":[645,645,645,645,645,645,645,645,645,645,645,645,645,645,645,645,645,645,645,645,645,645,618,577,529,469,403,267,201,155,97,71,26,6,0,0,0,0,0,0,0,0,0,0,0,0,11],"timestamp_mouse":[10,23,44,64,85,104,125,143,165,185,204,224,245,264,284,304,323,345,364,385,404,423,443,463,483,503,524,544,564,584,605,625,643,663,683,703,723,744,764,784,805,824,844,865,884,905,924],"xSR":741.5,"ySR":573.95,"xT1":424.9,"yT1":0,"xT2":1058.1,"yT2":0,"toosoon":0,"cond_shown":"Incongruent","ratio_trial":100,"L_num":9,"L_den":15,"R_num":14,"R_den":28,"correct_side":1,"subjID":"santiagodiazarias13","gender":"0","school":"4","age":"9"},{"start_time":1552073642363,"click_time":1552073642993,"finger_time":1552073642852,"fix_duration":627.5265624534077,"trial":50,"RT":489,"MT":141,"sideResp":2,"stimulus":[],"xmouse":[770,770,770,770,770,770,770,770,770,770,770,770,770,770,770,770,770,770,770,770,770,770,774,785,804,875,916,953,987,1014,1048,1069],"ymouse":[629,629,629,629,629,629,629,629,629,629,629,629,629,629,629,629,629,629,629,629,629,629,619,600,560,420,343,272,204,154,68,28],"timestamp_mouse":[23,41,49,70,90,108,128,150,169,189,208,228,250,268,290,308,329,350,369,390,409,430,450,470,489,509,530,549,569,590,609,630],"xSR":741.5,"ySR":573.95,"xT1":424.9,"yT1":0,"xT2":1058.1,"yT2":0,"toosoon":0,"cond_shown":"Congruent","ratio_trial":200,"L_num":7,"L_den":15,"R_num":18,"R_den":27,"correct_side":2,"subjID":"santiagodiazarias13","gender":"0","school":"4","age":"9"},{"start_time":1552073645557,"click_time":1552073646453,"finger_time":1552073645991,"fix_duration":1203.3262640785501,"trial":51,"RT":434,"MT":462,"sideResp":2,"stimulus":[],"xmouse":[780,780,780,780,780,780,780,780,780,780,780,780,780,779,779,779,779,781,786,791,795,797,800,808,824,888,910,941,962,977,993,997,999,1003,1009,1033,1044,1053,1061,1067,1077,1083,1088,1096,1108],"ymouse":[634,634,634,634,634,634,634,634,634,634,634,634,634,634,633,626,620,612,600,590,575,566,560,549,535,478,457,415,371,339,304,298,295,292,287,250,227,208,190,174,156,148,139,115,81],"timestamp_mouse":[14,36,55,74,95,116,134,156,175,196,215,236,255,275,294,316,335,356,375,394,414,434,454,474,495,515,536,555,575,595,615,636,654,675,695,715,735,754,774,794,814,836,855,875,896],"xSR":741.5,"ySR":573.95,"xT1":424.9,"yT1":0,"xT2":1058.1,"yT2":0,"toosoon":0,"cond_shown":"Incongruent","ratio_trial":100,"L_num":6,"L_den":10,"R_num":13,"R_den":26,"correct_side":1,"subjID":"santiagodiazarias13","gender":"0","school":"4","age":"9"},{"start_time":1552073648374,"click_time":1552073649752,"finger_time":1552073649291,"fix_duration":699.8544604604689,"trial":52,"RT":917,"MT":461,"sideResp":2,"stimulus":[],"xmouse":[812,812,812,812,812,812,812,812,812,812,812,812,812,812,812,812,812,812,812,812,812,812,812,812,812,812,812,812,812,812,812,812,812,812,812,812,812,812,812,812,812,812,812,812,818,837,865,891,934,942,943,943,943,952,962,972,978,980,980,980,980,980,981,994,1002,1012,1025,1040,1067],"ymouse":[639,639,639,639,639,639,639,639,639,639,639,639,639,639,639,639,639,639,639,639,639,639,639,639,639,639,639,639,639,639,639,639,639,639,639,639,639,639,639,639,639,639,639,638,591,546,479,417,305,268,242,211,199,173,156,136,118,107,105,105,105,105,103,103,102,98,92,89,89],"timestamp_mouse":[19,40,59,78,97,117,139,159,179,199,218,238,259,279,298,319,338,357,377,399,417,439,459,478,499,517,539,559,577,598,618,639,659,679,699,717,739,759,778,797,818,839,859,878,897,917,938,958,979,997,1018,1038,1058,1079,1097,1118,1137,1158,1178,1199,1218,1239,1258,1279,1298,1317,1338,1359,1378],"xSR":741.5,"ySR":573.95,"xT1":424.9,"yT1":0,"xT2":1058.1,"yT2":0,"toosoon":0,"cond_shown":"Congruent","ratio_trial":100,"L_num":10,"L_den":25,"R_num":3,"R_den":10,"correct_side":1,"subjID":"santiagodiazarias13","gender":"0","school":"4","age":"9"},{"start_time":1552073650924,"click_time":1552073652292,"finger_time":1552073652152,"fix_duration":250,"trial":53,"RT":1228,"MT":140,"sideResp":1,"stimulus":[],"xmouse":[786,786,786,786,786,786,786,786,786,786,786,786,786,786,786,786,786,786,786,786,786,786,786,786,786,786,786,786,786,786,786,786,786,786,786,786,786,786,786,786,786,786,786,786,786,786,785,783,782,781,781,781,781,781,781,781,780,777,772,759,744,710,623,588,546,520,494,457,451],"ymouse":[634,634,634,634,634,634,634,634,634,634,634,634,634,634,634,634,634,634,634,634,634,634,634,634,634,634,634,634,634,634,634,634,634,634,634,634,634,634,634,634,634,634,634,634,634,634,631,628,627,626,625,625,625,625,625,625,624,617,609,594,576,539,425,354,254,194,149,103,96],"timestamp_mouse":[10,33,49,69,87,108,127,149,169,188,209,227,248,267,288,309,328,347,368,388,407,429,449,469,489,508,529,549,569,588,608,629,649,667,688,709,728,749,767,789,808,828,849,867,888,908,929,947,967,988,1008,1028,1048,1068,1089,1109,1128,1148,1167,1187,1208,1228,1248,1268,1287,1309,1328,1348,1368],"xSR":741.5,"ySR":573.95,"xT1":424.9,"yT1":0,"xT2":1058.1,"yT2":0,"toosoon":0,"cond_shown":"Congruent","ratio_trial":300,"L_num":4,"L_den":10,"R_num":1,"R_den":10,"correct_side":1,"subjID":"santiagodiazarias13","gender":"0","school":"4","age":"9"},{"start_time":1552073654036,"click_time":1552073655632,"finger_time":1552073655253,"fix_duration":262.31866397141147,"trial":54,"RT":1217,"MT":379,"sideResp":2,"stimulus":[],"xmouse":[800,800,800,800,800,800,800,800,800,800,800,800,800,800,800,800,800,800,800,800,800,800,800,800,800,800,800,800,800,800,800,800,800,800,800,800,800,800,800,800,800,800,800,800,800,800,800,800,800,800,800,800,800,800,800,800,800,800,801,814,846,868,885,903,922,954,969,983,1001,1009,1017,1033,1042,1052,1058,1063,1072,1081,1099,1112],"ymouse":[602,602,602,602,602,602,602,602,602,602,602,602,602,602,602,602,602,602,602,602,602,602,602,602,602,602,602,602,602,602,602,602,602,602,602,602,602,602,602,602,602,602,602,602,602,602,602,602,602,602,602,602,602,602,602,602,602,602,599,583,543,512,480,440,399,328,299,278,254,247,240,224,213,199,187,174,153,141,114,92],"timestamp_mouse":[20,43,57,76,97,116,137,156,175,197,217,235,257,277,296,316,336,356,376,397,417,436,456,476,495,517,535,557,576,597,616,636,656,676,697,715,736,756,776,796,816,837,857,876,897,917,937,957,977,996,1016,1037,1055,1076,1097,1116,1137,1155,1176,1196,1217,1236,1255,1275,1296,1317,1335,1356,1375,1395,1416,1437,1456,1476,1495,1517,1536,1556,1576,1595],"xSR":741.5,"ySR":573.95,"xT1":424.9,"yT1":0,"xT2":1058.1,"yT2":0,"toosoon":0,"cond_shown":"Incongruent","ratio_trial":300,"L_num":7,"L_den":10,"R_num":8,"R_den":20,"correct_side":1,"subjID":"santiagodiazarias13","gender":"0","school":"4","age":"9"},{"start_time":1552073658309,"click_time":1552073659452,"finger_time":1552073659012,"fix_duration":1154.9091295744877,"trial":55,"RT":703,"MT":440,"sideResp":2,"stimulus":[],"xmouse":[762,762,762,762,762,765,766,768,770,771,771,771,771,772,772,772,772,772,772,772,772,772,772,772,772,772,772,772,772,773,773,774,775,780,785,811,838,865,903,912,917,921,929,939,942,942,942,943,947,958,974,986,1002,1008,1013,1035,1053,1089],"ymouse":[624,624,624,624,624,624,624,624,624,624,624,624,624,624,624,624,624,624,624,624,624,624,624,624,624,624,624,624,624,624,624,624,624,620,613,572,524,467,351,309,273,243,215,162,138,118,103,100,99,99,99,100,102,102,102,102,102,88],"timestamp_mouse":[12,22,44,63,84,103,123,143,163,184,203,224,243,263,282,303,324,344,363,382,403,424,443,464,482,504,524,543,563,584,604,623,643,662,683,703,723,743,763,783,802,822,843,864,883,902,923,943,963,983,1003,1022,1044,1063,1083,1103,1123,1143],"xSR":741.5,"ySR":573.95,"xT1":424.9,"yT1":0,"xT2":1058.1,"yT2":0,"toosoon":0,"cond_shown":"Incongruent","ratio_trial":200,"L_num":4,"L_den":30,"R_num":1,"R_den":3,"correct_side":2,"subjID":"santiagodiazarias13","gender":"0","school":"4","age":"9"},{"start_time":1552073661376,"click_time":1552073662353,"finger_time":1552073661993,"fix_duration":522.8143377867785,"trial":56,"RT":617,"MT":360,"sideResp":1,"stimulus":[],"xmouse":[806,806,806,806,806,806,806,806,806,806,806,806,806,806,806,806,806,806,806,806,806,806,806,806,806,806,806,813,825,835,845,858,877,892,919,929,936,937,931,922,917,896,872,832,724,675,615,554,437],"ymouse":[632,632,632,632,632,632,632,632,632,632,632,632,632,632,632,632,632,632,632,632,632,632,632,632,632,632,632,623,603,585,571,555,523,499,453,427,403,383,359,353,352,346,336,313,240,207,164,122,51],"timestamp_mouse":[19,36,57,76,96,115,136,156,176,196,215,236,255,277,296,317,337,356,376,397,416,437,457,476,497,516,535,555,577,596,617,636,655,676,697,715,735,755,777,796,816,836,855,875,896,915,936,956,976],"xSR":741.5,"ySR":573.95,"xT1":424.9,"yT1":0,"xT2":1058.1,"yT2":0,"toosoon":0,"cond_shown":"Incongruent","ratio_trial":300,"L_num":8,"L_den":10,"R_num":9,"R_den":18,"correct_side":1,"subjID":"santiagodiazarias13","gender":"0","school":"4","age":"9"},{"start_time":1552073664822,"click_time":1552073665571,"finger_time":1552073665151,"fix_duration":988.6756906791124,"trial":57,"RT":329,"MT":420,"sideResp":1,"stimulus":[],"xmouse":[801,801,801,801,801,801,801,801,801,801,801,801,801,801,792,785,775,765,764,763,758,744,696,673,657,647,639,625,604,589,532,495,492,489,485,483,478,468],"ymouse":[617,617,617,617,617,617,617,617,617,617,617,617,617,617,603,592,570,534,510,495,482,466,437,423,412,404,391,356,317,290,220,164,153,140,128,119,107,79],"timestamp_mouse":[13,35,50,70,89,110,131,151,171,191,210,229,251,270,290,309,329,350,370,390,410,429,449,469,489,509,530,550,569,590,610,631,651,671,690,709,730,749],"xSR":741.5,"ySR":573.95,"xT1":424.9,"yT1":0,"xT2":1058.1,"yT2":0,"toosoon":0,"cond_shown":"Congruent","ratio_trial":100,"L_num":9,"L_den":15,"R_num":8,"R_den":16,"correct_side":1,"subjID":"santiagodiazarias13","gender":"0","school":"4","age":"9"},{"start_time":1552073668445,"click_time":1552073669553,"finger_time":1552073669153,"fix_duration":250,"trial":58,"RT":708,"MT":400,"sideResp":2,"stimulus":[],"xmouse":[799,799,799,799,799,799,799,799,799,799,799,799,799,799,799,799,799,799,799,799,799,799,799,799,799,799,799,799,799,799,799,799,804,811,828,842,871,881,897,904,911,929,943,959,973,983,1000,1008,1019,1026,1030,1040,1045,1052,1060,1067],"ymouse":[644,644,644,644,644,644,644,644,644,644,644,644,644,644,644,644,644,644,644,644,644,644,644,644,644,644,644,644,644,644,644,644,630,621,598,572,518,491,452,428,402,356,335,314,294,275,235,216,187,172,163,147,139,128,113,99],"timestamp_mouse":[13,37,48,67,88,108,127,147,168,188,207,227,248,268,287,308,326,346,368,387,408,427,446,467,488,506,526,547,567,587,607,627,646,668,686,708,727,747,766,786,807,827,848,867,887,908,926,946,966,987,1007,1028,1047,1068,1088,1108],"xSR":741.5,"ySR":573.95,"xT1":424.9,"yT1":0,"xT2":1058.1,"yT2":0,"toosoon":0,"cond_shown":"Incongruent","ratio_trial":100,"L_num":8,"L_den":16,"R_num":6,"R_den":10,"correct_side":2,"subjID":"santiagodiazarias13","gender":"0","school":"4","age":"9"},{"start_time":1552073671078,"click_time":1552073672193,"finger_time":1552073671673,"fix_duration":724.1230126986522,"trial":59,"RT":595,"MT":520,"sideResp":2,"stimulus":[],"xmouse":[761,761,761,761,761,761,761,761,761,761,761,761,761,761,761,761,761,761,761,761,761,761,761,761,761,761,761,762,773,829,860,894,926,946,961,966,972,977,981,988,992,994,996,999,1006,1011,1013,1021,1028,1041,1048,1055,1057,1060,1069,1075],"ymouse":[597,597,597,597,597,597,597,597,597,597,597,597,597,597,597,597,597,597,597,597,597,597,597,597,597,597,597,597,577,512,470,421,377,349,317,303,278,262,249,223,208,194,183,173,157,151,149,142,138,127,121,115,111,107,102,99],"timestamp_mouse":[14,41,55,73,95,115,135,154,175,194,214,235,255,274,294,314,334,353,374,394,415,434,454,475,495,515,534,555,573,595,614,635,654,675,695,714,734,754,773,793,815,833,854,875,894,914,934,955,974,995,1014,1034,1054,1073,1093,1115],"xSR":741.5,"ySR":573.95,"xT1":424.9,"yT1":0,"xT2":1058.1,"yT2":0,"toosoon":0,"cond_shown":"Congruent","ratio_trial":200,"L_num":1,"L_den":2,"R_num":21,"R_den":30,"correct_side":2,"subjID":"santiagodiazarias13","gender":"0","school":"4","age":"9"},{"start_time":1552073676244,"click_time":1552073677455,"finger_time":1552073677333,"fix_duration":1171.4223584374367,"trial":60,"RT":1089,"MT":122,"sideResp":2,"stimulus":[],"xmouse":[788,788,788,788,788,788,788,788,788,788,788,788,788,788,788,788,788,788,788,788,788,788,788,788,788,788,788,788,788,788,788,788,788,788,788,788,788,788,788,788,788,788,788,788,788,788,788,788,788,788,788,792,815,853,898,983,1016,1041,1058,1070],"ymouse":[629,629,629,629,629,629,629,629,629,629,629,629,629,629,629,629,629,629,629,629,629,629,629,629,629,629,629,629,629,629,629,629,629,629,629,629,629,629,629,629,629,629,629,629,629,629,629,629,629,629,629,618,577,508,413,225,144,75,25,7],"timestamp_mouse":[32,48,68,89,108,129,149,169,188,208,229,249,269,287,307,329,349,369,389,408,428,449,468,488,508,527,549,569,589,609,628,649,669,687,707,729,749,769,787,808,829,849,868,888,909,928,948,969,989,1008,1029,1048,1068,1089,1107,1127,1148,1168,1188,1211],"xSR":741.5,"ySR":573.95,"xT1":424.9,"yT1":0,"xT2":1058.1,"yT2":0,"toosoon":0,"cond_shown":"Incongruent","ratio_trial":300,"L_num":8,"L_den":10,"R_num":9,"R_den":18,"correct_side":1,"subjID":"santiagodiazarias13","gender":"0","school":"4","age":"9"},{"start_time":1552073679196,"click_time":1552073680313,"finger_time":1552073679892,"fix_duration":381.0771029794491,"trial":61,"RT":696,"MT":421,"sideResp":2,"stimulus":[],"xmouse":[764,764,764,764,764,764,764,764,764,764,764,764,764,764,764,764,764,764,764,764,764,764,764,764,764,764,764,764,764,766,770,776,783,792,798,807,821,833,860,876,883,901,922,934,946,959,975,991,1026,1047,1057,1065,1071,1075,1076,1078],"ymouse":[620,620,620,620,620,620,620,620,620,620,620,620,620,620,620,620,620,620,620,620,620,620,620,620,620,620,620,620,620,617,609,600,589,577,570,565,556,545,509,474,459,416,371,350,328,310,292,269,207,157,135,118,109,102,100,96],"timestamp_mouse":[21,39,56,77,95,116,137,155,175,197,215,237,257,277,297,317,336,357,376,396,416,436,456,476,497,517,535,557,575,596,616,636,656,676,696,715,736,756,776,796,816,836,857,875,895,916,936,956,976,996,1016,1037,1056,1076,1096,1117],"xSR":741.5,"ySR":573.95,"xT1":424.9,"yT1":0,"xT2":1058.1,"yT2":0,"toosoon":0,"cond_shown":"Incongruent","ratio_trial":200,"L_num":3,"L_den":10,"R_num":1,"R_den":2,"correct_side":2,"subjID":"santiagodiazarias13","gender":"0","school":"4","age":"9"},{"start_time":1552073681605,"click_time":1552073682532,"finger_time":1552073682273,"fix_duration":291.51494182636173,"trial":62,"RT":668,"MT":259,"sideResp":2,"stimulus":[],"xmouse":[792,792,792,792,792,792,792,792,792,792,792,792,792,792,792,792,793,796,798,799,800,801,803,803,804,805,806,807,810,813,816,820,824,838,849,859,872,903,920,940,964,984,1019,1034,1045,1056,1067],"ymouse":[636,636,636,636,636,636,636,636,636,636,636,636,636,636,636,636,636,636,633,632,630,630,627,626,625,624,623,621,617,613,608,602,593,569,552,532,508,447,413,367,310,266,183,148,121,96,73],"timestamp_mouse":[12,36,48,68,86,107,128,147,168,187,208,226,248,268,287,307,327,347,367,387,408,428,448,466,487,506,527,546,567,586,606,627,647,668,687,707,726,749,767,788,807,827,848,867,887,908,927],"xSR":741.5,"ySR":573.95,"xT1":424.9,"yT1":0,"xT2":1058.1,"yT2":0,"toosoon":0,"cond_shown":"Congruent","ratio_trial":300,"L_num":4,"L_den":20,"R_num":13,"R_den":26,"correct_side":2,"subjID":"santiagodiazarias13","gender":"0","school":"4","age":"9"},{"start_time":1552073683824,"click_time":1552073685072,"finger_time":1552073684492,"fix_duration":250,"trial":63,"RT":668,"MT":580,"sideResp":1,"stimulus":[],"xmouse":[811,811,811,811,811,811,811,811,811,811,811,811,811,811,812,812,813,815,816,816,819,822,826,829,831,833,834,836,836,837,838,839,841,842,842,831,810,729,677,657,586,530,413,363,323,310,310,314,327,351,357,357,357,368,380,393,400,402,402,402,403,405,430],"ymouse":[639,639,639,639,639,639,639,639,639,639,639,639,639,639,639,639,639,640,640,640,639,636,629,626,621,618,616,612,611,609,607,604,592,584,573,554,532,483,452,435,359,289,136,65,7,0,0,0,0,0,0,0,0,0,2,4,4,4,4,4,4,4,17],"timestamp_mouse":[20,29,48,68,88,109,127,147,168,189,208,229,248,269,287,308,328,348,367,388,409,428,449,467,488,507,528,548,569,588,608,628,648,668,688,708,727,748,769,788,807,828,848,868,888,909,928,948,969,988,1008,1028,1049,1068,1087,1107,1129,1148,1168,1189,1208,1228,1248],"xSR":741.5,"ySR":573.95,"xT1":424.9,"yT1":0,"xT2":1058.1,"yT2":0,"toosoon":0,"cond_shown":"Congruent","ratio_trial":300,"L_num":20,"L_den":25,"R_num":5,"R_den":10,"correct_side":1,"subjID":"santiagodiazarias13","gender":"0","school":"4","age":"9"},{"start_time":1552073687597,"click_time":1552073688353,"finger_time":1552073688113,"fix_duration":1443.4212714445453,"trial":64,"RT":516,"MT":240,"sideResp":2,"stimulus":[],"xmouse":[791,791,791,791,791,791,791,791,791,791,791,791,791,791,791,791,791,791,791,791,791,791,791,791,799,812,847,889,949,979,985,1004,1028,1038,1053,1073,1093,1118],"ymouse":[617,617,617,617,617,617,617,617,617,617,617,617,617,617,617,617,617,617,617,617,617,617,617,617,596,570,509,441,333,284,272,242,210,197,178,151,123,72],"timestamp_mouse":[16,35,54,76,96,115,135,154,175,196,215,236,255,276,295,314,336,355,375,395,415,435,455,476,494,516,535,556,575,596,615,636,656,674,695,716,735,756],"xSR":741.5,"ySR":573.95,"xT1":424.9,"yT1":0,"xT2":1058.1,"yT2":0,"toosoon":0,"cond_shown":"Congruent","ratio_trial":200,"L_num":3,"L_den":10,"R_num":14,"R_den":28,"correct_side":2,"subjID":"santiagodiazarias13","gender":"0","school":"4","age":"9"},{"start_time":1552073689995,"click_time":1552073691192,"finger_time":1552073690812,"fix_duration":361.6799470640171,"trial":65,"RT":817,"MT":380,"sideResp":2,"stimulus":[],"xmouse":[790,790,790,790,790,790,790,790,790,790,790,790,790,790,790,790,790,790,790,790,790,790,790,790,790,790,790,790,790,790,790,790,790,790,792,793,797,804,809,819,842,861,888,964,998,1029,1063,1100,1113,1123,1127,1132,1139,1151,1153,1153,1153,1145,1130,1126],"ymouse":[633,633,633,633,633,633,633,633,633,633,633,633,633,633,633,633,633,633,633,633,633,633,633,633,633,633,633,633,633,633,633,633,633,633,629,626,621,612,605,592,565,537,496,391,345,303,263,232,227,227,227,224,216,192,182,175,167,139,105,97],"timestamp_mouse":[26,38,56,76,98,118,138,157,177,196,217,237,258,277,297,318,336,357,377,397,417,438,458,478,496,518,538,556,578,597,618,638,658,677,696,718,737,758,776,796,817,836,856,878,896,917,937,958,977,997,1016,1036,1058,1077,1097,1118,1138,1158,1177,1197],"xSR":741.5,"ySR":573.95,"xT1":424.9,"yT1":0,"xT2":1058.1,"yT2":0,"toosoon":0,"cond_shown":"Incongruent","ratio_trial":100,"L_num":12,"L_den":24,"R_num":9,"R_den":15,"correct_side":2,"subjID":"santiagodiazarias13","gender":"0","school":"4","age":"9"},{"start_time":1552073693984,"click_time":1552073694772,"finger_time":1552073694553,"fix_duration":1349.1622528335838,"trial":66,"RT":569,"MT":219,"sideResp":1,"stimulus":[],"xmouse":[784,784,784,783,779,774,772,770,769,769,768,768,768,768,768,768,768,768,768,768,768,768,768,768,768,768,768,768,765,738,705,696,692,689,672,651,601,536,474,443],"ymouse":[640,640,640,640,637,632,628,625,621,620,619,619,619,619,619,619,619,619,619,619,619,619,619,619,619,605,599,583,563,525,503,497,493,488,457,404,336,251,164,67],"timestamp_mouse":[13,36,48,68,88,109,128,148,169,187,208,229,249,268,288,309,327,349,369,388,408,428,449,468,489,508,528,548,569,589,609,628,648,668,688,708,729,749,768,788],"xSR":741.5,"ySR":573.95,"xT1":424.9,"yT1":0,"xT2":1058.1,"yT2":0,"toosoon":0,"cond_shown":"Congruent","ratio_trial":200,"L_num":11,"L_den":22,"R_num":3,"R_den":10,"correct_side":1,"subjID":"santiagodiazarias13","gender":"0","school":"4","age":"9"},{"start_time":1552073696424,"click_time":1552073697673,"finger_time":1552073697332,"fix_duration":250,"trial":67,"RT":908,"MT":341,"sideResp":1,"stimulus":[],"xmouse":[784,784,784,784,784,784,784,784,784,784,784,784,784,784,784,784,784,784,784,784,784,784,784,784,784,784,784,784,784,784,784,784,784,782,780,778,777,776,776,776,775,773,769,764,750,727,688,614,609,590,576,537,517,514,514,519,523,532,534,534,534,526,487],"ymouse":[595,595,595,595,595,595,595,595,595,595,595,595,595,595,595,595,595,595,595,595,595,595,595,595,595,595,595,595,595,595,595,595,595,595,595,595,595,595,595,595,595,594,594,594,588,565,531,436,422,377,348,275,238,219,207,198,192,179,169,152,140,123,82],"timestamp_mouse":[25,28,49,68,88,108,128,148,168,188,208,229,248,268,287,309,328,348,367,389,408,427,448,468,488,509,528,548,568,588,609,628,648,668,689,709,728,749,768,789,808,829,848,869,888,908,929,948,967,988,1009,1029,1048,1069,1088,1108,1128,1148,1168,1188,1207,1229,1249],"xSR":741.5,"ySR":573.95,"xT1":424.9,"yT1":0,"xT2":1058.1,"yT2":0,"toosoon":0,"cond_shown":"Incongruent","ratio_trial":300,"L_num":3,"L_den":6,"R_num":4,"R_den":20,"correct_side":1,"subjID":"santiagodiazarias13","gender":"0","school":"4","age":"9"},{"start_time":1552073699973,"click_time":1552073700952,"finger_time":1552073700452,"fix_duration":1499.1857161656214,"trial":68,"RT":479,"MT":500,"sideResp":2,"stimulus":[],"xmouse":[787,787,787,787,787,787,787,787,787,787,787,787,787,787,787,787,787,788,791,798,801,814,824,837,863,876,887,900,912,939,946,959,967,974,986,992,998,1003,1013,1020,1022,1027,1034,1039,1051,1064,1081,1096,1110],"ymouse":[650,650,650,650,650,650,650,650,650,650,650,650,650,650,650,650,650,646,642,628,616,596,583,568,527,504,484,458,433,372,362,329,307,285,245,231,218,210,192,179,176,166,154,147,137,130,122,110,94],"timestamp_mouse":[19,39,60,79,99,119,140,159,180,200,220,239,259,279,299,320,340,358,380,399,418,439,460,479,499,519,539,560,580,598,619,639,659,679,700,720,740,759,780,799,819,840,859,880,900,920,939,959,979],"xSR":741.5,"ySR":573.95,"xT1":424.9,"yT1":0,"xT2":1058.1,"yT2":0,"toosoon":0,"cond_shown":"Incongruent","ratio_trial":200,"L_num":14,"L_den":30,"R_num":12,"R_den":18,"correct_side":2,"subjID":"santiagodiazarias13","gender":"0","school":"4","age":"9"},{"start_time":1552073704223,"click_time":1552073705312,"finger_time":1552073704713,"fix_duration":288.56147814077605,"trial":69,"RT":490,"MT":599,"sideResp":1,"stimulus":[],"xmouse":[761,761,761,761,761,761,761,761,761,761,761,761,761,761,761,761,761,761,761,761,761,758,753,749,745,740,733,732,731,731,731,731,721,703,673,638,567,530,521,500,491,488,488,490,492,494,495,495,495,495,495,495,495,486,472],"ymouse":[612,612,612,612,611,611,611,611,611,611,611,611,611,611,611,611,611,611,611,611,611,607,596,583,568,555,534,530,528,528,528,528,515,496,459,411,305,228,207,158,137,124,118,116,116,116,116,116,116,116,116,116,112,102,88],"timestamp_mouse":[12,37,49,70,89,110,130,149,170,188,209,230,249,269,290,309,328,349,369,389,408,429,450,469,490,509,530,549,569,590,610,629,649,670,689,709,730,749,769,790,810,829,849,869,889,909,930,949,970,989,1010,1030,1049,1069,1089],"xSR":741.5,"ySR":573.95,"xT1":424.9,"yT1":0,"xT2":1058.1,"yT2":0,"toosoon":0,"cond_shown":"Incongruent","ratio_trial":300,"L_num":13,"L_den":26,"R_num":12,"R_den":15,"correct_side":2,"subjID":"santiagodiazarias13","gender":"0","school":"4","age":"9"},{"start_time":1552073707948,"click_time":1552073709373,"finger_time":1552073708392,"fix_duration":354.6113549442808,"trial":70,"RT":444,"MT":981,"sideResp":1,"stimulus":[],"xmouse":[782,782,782,782,782,782,782,782,782,782,782,782,782,782,782,786,788,789,792,795,819,864,877,914,925,937,946,954,967,975,991,995,999,1001,1001,1005,1008,1008,1008,981,950,912,871,852,840,833,825,813,789,738,712,691,672,640,581,557,541,535,534,534,534,534,534,534,534,534,521,494,484,483,482],"ymouse":[621,621,621,621,621,621,621,621,621,621,621,621,621,621,621,621,621,621,621,621,603,560,545,495,472,428,401,371,332,304,258,246,233,227,223,212,206,201,196,183,179,174,167,165,163,162,160,159,156,148,145,141,138,134,126,123,120,119,119,119,119,119,119,119,119,119,116,109,105,100,86],"timestamp_mouse":[22,43,64,83,104,124,143,164,185,204,225,244,264,285,303,324,343,364,384,404,424,444,464,484,505,525,544,564,584,604,624,644,664,684,705,724,744,764,784,805,824,844,864,885,904,923,944,964,984,1006,1024,1044,1065,1085,1105,1124,1144,1164,1185,1205,1224,1245,1264,1285,1305,1324,1344,1363,1384,1404,1425],"xSR":741.5,"ySR":573.95,"xT1":424.9,"yT1":0,"xT2":1058.1,"yT2":0,"toosoon":0,"cond_shown":"Incongruent","ratio_trial":300,"L_num":4,"L_den":5,"R_num":8,"R_den":16,"correct_side":1,"subjID":"santiagodiazarias13","gender":"0","school":"4","age":"9"},{"start_time":1552073710684,"click_time":1552073711932,"finger_time":1552073711553,"fix_duration":250,"trial":71,"RT":869,"MT":379,"sideResp":1,"stimulus":[],"xmouse":[830,830,830,830,830,830,828,826,824,824,824,822,822,822,822,822,822,822,822,822,822,822,822,822,822,822,822,822,822,822,822,822,822,822,822,822,822,822,821,819,815,811,804,773,752,731,709,679,663,647,640,630,610,575,572,572,572,572,572,559,544,530,521],"ymouse":[607,607,607,607,607,607,607,607,607,607,607,606,606,606,606,606,606,606,606,606,606,606,606,606,606,606,606,606,606,606,606,606,606,606,606,606,606,606,605,604,599,594,585,551,530,506,476,418,371,264,220,180,141,92,83,80