[{"start_time":1552073966852,"click_time":1552073967707,"finger_time":1552073967446,"fix_duration":942.3089428847219,"trial":0,"RT":594,"MT":261,"sideResp":2,"stimulus":"img/750/randomdotsizeEA/R/5_Ratio_750_L_15_R_20.png","xmouse":[798,798,798,798,798,798,798,798,798,798,798,798,798,798,798,798,798,798,798,798,798,798,798,798,798,798,798,798,810,842,890,953,1088,1140,1166,1183,1196,1204,1207,1207,1203,1191,1155],"ymouse":[547,547,547,547,547,547,547,547,547,547,547,547,547,547,547,547,547,547,547,547,547,547,547,547,547,547,547,547,526,488,430,357,193,134,115,108,99,89,77,67,50,33,16],"timestamp_mouse":[13,44,53,73,93,114,134,154,174,194,215,233,254,274,293,314,333,354,374,394,414,433,455,474,494,515,534,553,575,594,614,633,655,673,694,714,735,754,774,794,814,833,854],"xSR":741.5,"ySR":501.8,"xT1":424.9,"yT1":0,"xT2":1058.1,"yT2":0,"toosoon":0,"cond_shown":"randomdotsizeEA","ratio_trial":750,"smaller_num":"15","larger_num":"20","correct_side":2,"subjID":"santiagoandresdiazarias13","gender":"0","age":"9","school":"4","test":{"fix_dur":[250,1500],"timestim":300,"targets_dim":[100,100],"targets_relative_coord":[0.3,0.7],"size_stim":[880,420],"start_dim":[100,100],"size_start":[300,300],"size_fix":60,"samplingrate":20,"img_types":["equaldotsize","equaldotanddens","randomdotsizeEA"],"ratios":[250,500,750,900],"rep_conds":9,"nTrials":120,"trials_to_rest":500,"Trials_order":[68,33,81,104,107,114,10,31,56,75,62,28,93,85,40,5,76,87,67,45,23,80,51,109,108,53,52,78,20,115,99,0,89,66,50,92,27,39,24,38,91,96,44,118,86,48,82,54,65,43,18,110,13,59,7,103,49,94,30,14,70,90,100,83,119,72,111,42,64,11,32,97,102,113,1,95,29,35,57,98,21,4,22,84,60,77,15,34,3,36,71,112,69,117,46,61,2,25,88,16,19,55,41,105,12,63,47,106,26,37,74,79,9,17,58,6,101,8,73,116],"cond_shown":["randomdotsizeEA","equaldotsize","equaldotsize","randomdotsizeEA","randomdotsizeEA","equaldotsize","equaldotanddens","equaldotanddens","randomdotsizeEA","equaldotsize","randomdotsizeEA","equaldotanddens","equaldotsize","equaldotanddens","equaldotanddens","randomdotsizeEA","equaldotanddens","equaldotsize","equaldotanddens","equaldotsize","randomdotsizeEA","randomdotsizeEA","equaldotsize","equaldotanddens","equaldotsize","randomdotsizeEA","equaldotanddens","equaldotsize","randomdotsizeEA","equaldotanddens","equaldotsize","equaldotsize","randomdotsizeEA","equaldotsize","randomdotsizeEA","randomdotsizeEA","equaldotsize","equaldotsize","equaldotsize","randomdotsizeEA","equaldotanddens","equaldotsize","randomdotsizeEA","equaldotanddens","randomdotsizeEA","equaldotsize","equaldotanddens","equaldotsize","randomdotsizeEA","equaldotanddens","equaldotsize","randomdotsizeEA","equaldotanddens","randomdotsizeEA","equaldotanddens","equaldotanddens","equaldotanddens","equaldotanddens","equaldotsize","randomdotsizeEA","equaldotanddens","equaldotsize","equaldotanddens","randomdotsizeEA","randomdotsizeEA","equaldotsize","equaldotsize","equaldotsize","equaldotanddens","randomdotsizeEA","randomdotsizeEA","equaldotanddens","equaldotsize","randomdotsizeEA","equaldotanddens","randomdotsizeEA","randomdotsizeEA","randomdotsizeEA","equaldotsize","randomdotsizeEA","equaldotsize","equaldotanddens","equaldotanddens","equaldotsize","equaldotsize","randomdotsizeEA","equaldotsize","equaldotanddens","equaldotsize","equaldotsize","randomdotsizeEA","equaldotanddens","equaldotsize","equaldotsize","equaldotanddens","equaldotanddens","randomdotsizeEA","equaldotanddens","equaldotanddens","equaldotanddens","equaldotanddens","equaldotanddens","randomdotsizeEA","equaldotsize","equaldotsize","equaldotsize","randomdotsizeEA","equaldotanddens","randomdotsizeEA","equaldotanddens","randomdotsizeEA","equaldotanddens","equaldotsize","randomdotsizeEA","equaldotanddens","equaldotsize","randomdotsizeEA","randomdotsizeEA","equaldotanddens","randomdotsizeEA"],"ratio_trial":[750,900,900,750,900,750,900,750,750,500,250,500,900,250,500,500,500,500,750,900,900,750,500,250,250,500,500,750,750,750,500,250,500,750,250,750,500,500,250,250,750,250,750,900,250,250,900,750,500,750,750,250,250,900,750,750,250,900,750,250,900,750,500,900,900,250,500,750,500,900,750,250,750,500,250,900,500,900,900,250,900,500,900,250,250,500,500,900,500,250,900,500,900,900,900,250,250,250,500,500,750,750,500,900,250,500,900,900,250,250,250,750,900,500,900,750,500,750,250,750],"smaller_num":["15","9","9","12","18","15","18","6","6","2","2","6","18","3","2","1","9","4","3","18","18","6","1","3","6","10","2","18","3","3","5","4","2","6","3","3","9","6","3","2","3","4","18","18","3","1","18","3","1","3","3","2","2","9","3","6","6","18","12","2","18","9","5","18","9","4","4","9","5","18","15","2","15","2","2","18","2","9","18","2","18","3","9","4","4","10","6","9","4","2","9","2","18","18","9","3","4","2","5","6","15","3","2","18","2","9","18","18","1","2","6","9","18","2","18","3","1","3","4","3"],"larger_num":["20","10","10","16","20","20","20","8","8","4","8","12","20","12","4","2","18","8","4","20","20","8","2","12","24","20","4","24","4","4","10","16","4","8","12","4","18","12","12","8","4","16","24","20","12","4","20","4","2","4","4","8","8","10","4","8","24","20","16","8","20","12","10","20","10","16","8","12","10","20","20","8","20","4","8","20","4","10","20","8","20","6","10","16","16","20","12","10","8","8","10","4","20","20","10","12","16","8","10","12","20","4","4","20","8","18","20","20","4","8","24","12","20","4","20","4","2","4","16","4"],"correct_side":[2,2,2,2,2,1,1,2,1,1,1,1,2,2,2,2,2,1,1,1,1,1,2,2,1,2,2,1,2,2,1,1,1,1,1,1,1,1,2,1,1,2,1,1,1,2,1,2,2,1,1,1,1,2,1,1,1,2,2,2,1,2,1,1,1,2,1,2,1,1,2,1,2,1,1,1,2,2,2,1,1,2,2,1,1,2,1,1,1,1,2,2,2,1,2,2,1,1,2,1,2,2,1,2,1,2,2,1,2,2,2,2,1,2,2,2,2,2,1,1],"img_shown":["img/750/randomdotsizeEA/R/5_Ratio_750_L_15_R_20.png","img/900/equaldotsize/R/5_Ratio_900_L_9_R_10.png","img/900/equaldotsize/R/7_Ratio_900_L_9_R_10.png","img/750/randomdotsizeEA/R/11_Ratio_750_L_12_R_16.png","img/900/randomdotsizeEA/R/9_Ratio_900_L_18_R_20.png","img/750/equaldotsize/L/1_Ratio_750_L_20_R_15.png","img/900/equaldotanddens/L/2_Ratio_900_L_20_R_18.png","img/750/equaldotanddens/R/2_Ratio_750_L_6_R_8.png","img/750/randomdotsizeEA/L/14_Ratio_750_L_8_R_6.png","img/500/equaldotsize/L/10_Ratio_500_L_4_R_2.png","img/250/randomdotsizeEA/L/1_Ratio_250_L_8_R_2.png","img/500/equaldotanddens/L/11_Ratio_500_L_12_R_6.png","img/900/equaldotsize/R/13_Ratio_900_L_18_R_20.png","img/250/equaldotanddens/R/9_Ratio_250_L_3_R_12.png","img/500/equaldotanddens/R/9_Ratio_500_L_2_R_4.png","img/500/randomdotsizeEA/R/12_Ratio_500_L_1_R_2.png","img/500/equaldotanddens/R/6_Ratio_500_L_9_R_18.png","img/500/equaldotsize/L/8_Ratio_500_L_8_R_4.png","img/750/equaldotanddens/L/9_Ratio_750_L_4_R_3.png","img/900/equaldotsize/L/2_Ratio_900_L_20_R_18.png","img/900/randomdotsizeEA/L/8_Ratio_900_L_20_R_18.png","img/750/randomdotsizeEA/L/13_Ratio_750_L_8_R_6.png","img/500/equaldotsize/R/15_Ratio_500_L_1_R_2.png","img/250/equaldotanddens/R/11_Ratio_250_L_3_R_12.png","img/250/equaldotsize/L/5_Ratio_250_L_24_R_6.png","img/500/randomdotsizeEA/R/3_Ratio_500_L_10_R_20.png","img/500/equaldotanddens/R/9_Ratio_500_L_2_R_4.png","img/750/equaldotsize/L/6_Ratio_750_L_24_R_18.png","img/750/randomdotsizeEA/R/12_Ratio_750_L_3_R_4.png","img/750/equaldotanddens/R/7_Ratio_750_L_3_R_4.png","img/500/equaldotsize/L/7_Ratio_500_L_10_R_5.png","img/250/equaldotsize/L/2_Ratio_250_L_16_R_4.png","img/500/randomdotsizeEA/L/5_Ratio_500_L_4_R_2.png","img/750/equaldotsize/L/13_Ratio_750_L_8_R_6.png","img/250/randomdotsizeEA/L/14_Ratio_250_L_12_R_3.png","img/750/randomdotsizeEA/L/8_Ratio_750_L_4_R_3.png","img/500/equaldotsize/L/4_Ratio_500_L_18_R_9.png","img/500/equaldotsize/L/13_Ratio_500_L_12_R_6.png","img/250/equaldotsize/R/9_Ratio_250_L_3_R_12.png","img/250/randomdotsizeEA/L/1_Ratio_250_L_8_R_2.png","img/750/equaldotanddens/L/8_Ratio_750_L_4_R_3.png","img/250/equaldotsize/R/10_Ratio_250_L_4_R_16.png","img/750/randomdotsizeEA/L/6_Ratio_750_L_24_R_18.png","img/900/equaldotanddens/L/10_Ratio_900_L_20_R_18.png","img/250/randomdotsizeEA/L/14_Ratio_250_L_12_R_3.png","img/250/equaldotsize/R/8_Ratio_250_L_1_R_4.png","img/900/equaldotanddens/L/10_Ratio_900_L_20_R_18.png","img/750/equaldotsize/R/12_Ratio_750_L_3_R_4.png","img/500/randomdotsizeEA/R/12_Ratio_500_L_1_R_2.png","img/750/equaldotanddens/L/10_Ratio_750_L_4_R_3.png","img/750/equaldotsize/L/8_Ratio_750_L_4_R_3.png","img/250/randomdotsizeEA/L/1_Ratio_250_L_8_R_2.png","img/250/equaldotanddens/L/3_Ratio_250_L_8_R_2.png","img/900/randomdotsizeEA/R/5_Ratio_900_L_9_R_10.png","img/750/equaldotanddens/L/8_Ratio_750_L_4_R_3.png","img/750/equaldotanddens/L/13_Ratio_750_L_8_R_6.png","img/250/equaldotanddens/L/5_Ratio_250_L_24_R_6.png","img/900/equaldotanddens/R/9_Ratio_900_L_18_R_20.png","img/750/equaldotsize/R/11_Ratio_750_L_12_R_16.png","img/250/randomdotsizeEA/R/13_Ratio_250_L_2_R_8.png","img/900/equaldotanddens/L/4_Ratio_900_L_20_R_18.png","img/750/equaldotsize/R/15_Ratio_750_L_9_R_12.png","img/500/equaldotanddens/L/7_Ratio_500_L_10_R_5.png","img/900/randomdotsizeEA/L/8_Ratio_900_L_20_R_18.png","img/900/randomdotsizeEA/L/1_Ratio_900_L_10_R_9.png","img/250/equaldotsize/R/10_Ratio_250_L_4_R_16.png","img/500/equaldotsize/L/8_Ratio_500_L_8_R_4.png","img/750/equaldotsize/R/15_Ratio_750_L_9_R_12.png","img/500/equaldotanddens/L/7_Ratio_500_L_10_R_5.png","img/900/randomdotsizeEA/L/4_Ratio_900_L_20_R_18.png","img/750/randomdotsizeEA/R/4_Ratio_750_L_15_R_20.png","img/250/equaldotanddens/L/7_Ratio_250_L_8_R_2.png","img/750/equaldotsize/R/3_Ratio_750_L_15_R_20.png","img/500/randomdotsizeEA/L/10_Ratio_500_L_4_R_2.png","img/250/equaldotanddens/L/1_Ratio_250_L_8_R_2.png","img/900/randomdotsizeEA/L/2_Ratio_900_L_20_R_18.png","img/500/randomdotsizeEA/R/9_Ratio_500_L_2_R_4.png","img/900/randomdotsizeEA/R/7_Ratio_900_L_9_R_10.png","img/900/equaldotsize/R/9_Ratio_900_L_18_R_20.png","img/250/randomdotsizeEA/L/7_Ratio_250_L_8_R_2.png","img/900/equaldotsize/L/2_Ratio_900_L_20_R_18.png","img/500/equaldotanddens/R/2_Ratio_500_L_3_R_6.png","img/900/equaldotanddens/R/6_Ratio_900_L_9_R_10.png","img/250/equaldotsize/L/2_Ratio_250_L_16_R_4.png","img/250/equaldotsize/L/2_Ratio_250_L_16_R_4.png","img/500/randomdotsizeEA/R/3_Ratio_500_L_10_R_20.png","img/500/equaldotsize/L/11_Ratio_500_L_12_R_6.png","img/900/equaldotanddens/L/1_Ratio_900_L_10_R_9.png","img/500/equaldotsize/L/8_Ratio_500_L_8_R_4.png","img/250/equaldotsize/L/7_Ratio_250_L_8_R_2.png","img/900/randomdotsizeEA/R/6_Ratio_900_L_9_R_10.png","img/500/equaldotanddens/R/9_Ratio_500_L_2_R_4.png","img/900/equaldotsize/R/13_Ratio_900_L_18_R_20.png","img/900/equaldotsize/L/8_Ratio_900_L_20_R_18.png","img/900/equaldotanddens/R/7_Ratio_900_L_9_R_10.png","img/250/equaldotanddens/R/11_Ratio_250_L_3_R_12.png","img/250/randomdotsizeEA/L/2_Ratio_250_L_16_R_4.png","img/250/equaldotanddens/L/7_Ratio_250_L_8_R_2.png","img/500/equaldotanddens/R/14_Ratio_500_L_5_R_10.png","img/500/equaldotanddens/L/13_Ratio_500_L_12_R_6.png","img/750/equaldotanddens/R/3_Ratio_750_L_15_R_20.png","img/750/equaldotanddens/R/12_Ratio_750_L_3_R_4.png","img/500/randomdotsizeEA/L/5_Ratio_500_L_4_R_2.png","img/900/equaldotsize/R/12_Ratio_900_L_18_R_20.png","img/250/equaldotsize/L/1_Ratio_250_L_8_R_2.png","img/500/equaldotsize/R/1_Ratio_500_L_9_R_18.png","img/900/randomdotsizeEA/R/12_Ratio_900_L_18_R_20.png","img/900/equaldotanddens/L/4_Ratio_900_L_20_R_18.png","img/250/randomdotsizeEA/R/8_Ratio_250_L_1_R_4.png","img/250/equaldotanddens/R/13_Ratio_250_L_2_R_8.png","img/250/randomdotsizeEA/R/6_Ratio_250_L_6_R_24.png","img/750/equaldotanddens/R/15_Ratio_750_L_9_R_12.png","img/900/equaldotsize/L/8_Ratio_900_L_20_R_18.png","img/500/randomdotsizeEA/R/9_Ratio_500_L_2_R_4.png","img/900/equaldotanddens/R/14_Ratio_900_L_18_R_20.png","img/750/equaldotsize/R/7_Ratio_750_L_3_R_4.png","img/500/randomdotsizeEA/R/12_Ratio_500_L_1_R_2.png","img/750/randomdotsizeEA/R/7_Ratio_750_L_3_R_4.png","img/250/equaldotanddens/L/2_Ratio_250_L_16_R_4.png","img/750/randomdotsizeEA/L/10_Ratio_750_L_4_R_3.png"],"Rat0":[["12_Ratio_0_L_9_R_0.png","13_Ratio_0_L_6_R_0.png","5_Ratio_0_L_2_R_0.png","6_Ratio_0_L_4_R_0.png","8_Ratio_0_L_6_R_0.png"],["1_Ratio_0_L_0_R_17.png","10_Ratio_0_L_0_R_22.png","11_Ratio_0_L_0_R_1.png","14_Ratio_0_L_0_R_24.png","15_Ratio_0_L_0_R_4.png","2_Ratio_0_L_0_R_5.png","3_Ratio_0_L_0_R_17.png","4_Ratio_0_L_0_R_7.png","7_Ratio_0_L_0_R_19.png","9_Ratio_0_L_0_R_15.png"]],"Rat250":[["1_Ratio_250_L_8_R_2.png","14_Ratio_250_L_12_R_3.png","15_Ratio_250_L_12_R_3.png","2_Ratio_250_L_16_R_4.png","3_Ratio_250_L_8_R_2.png","5_Ratio_250_L_24_R_6.png","7_Ratio_250_L_8_R_2.png"],["10_Ratio_250_L_4_R_16.png","11_Ratio_250_L_3_R_12.png","12_Ratio_250_L_5_R_20.png","13_Ratio_250_L_2_R_8.png","4_Ratio_250_L_3_R_12.png","6_Ratio_250_L_6_R_24.png","8_Ratio_250_L_1_R_4.png","9_Ratio_250_L_3_R_12.png"]],"Rat500":[["10_Ratio_500_L_4_R_2.png","11_Ratio_500_L_12_R_6.png","13_Ratio_500_L_12_R_6.png","4_Ratio_500_L_18_R_9.png","5_Ratio_500_L_4_R_2.png","7_Ratio_500_L_10_R_5.png","8_Ratio_500_L_8_R_4.png"],["1_Ratio_500_L_9_R_18.png","12_Ratio_500_L_1_R_2.png","14_Ratio_500_L_5_R_10.png","15_Ratio_500_L_1_R_2.png","2_Ratio_500_L_3_R_6.png","3_Ratio_500_L_10_R_20.png","6_Ratio_500_L_9_R_18.png","9_Ratio_500_L_2_R_4.png"]],"Rat750":[["1_Ratio_750_L_20_R_15.png","10_Ratio_750_L_4_R_3.png","13_Ratio_750_L_8_R_6.png","14_Ratio_750_L_8_R_6.png","6_Ratio_750_L_24_R_18.png","8_Ratio_750_L_4_R_3.png","9_Ratio_750_L_4_R_3.png"],["11_Ratio_750_L_12_R_16.png","12_Ratio_750_L_3_R_4.png","15_Ratio_750_L_9_R_12.png","2_Ratio_750_L_6_R_8.png","3_Ratio_750_L_15_R_20.png","4_Ratio_750_L_15_R_20.png","5_Ratio_750_L_15_R_20.png","7_Ratio_750_L_3_R_4.png"]],"Rat900":[["1_Ratio_900_L_10_R_9.png","10_Ratio_900_L_20_R_18.png","2_Ratio_900_L_20_R_18.png","4_Ratio_900_L_20_R_18.png","8_Ratio_900_L_20_R_18.png"],["11_Ratio_900_L_18_R_20.png","12_Ratio_900_L_18_R_20.png","13_Ratio_900_L_18_R_20.png","14_Ratio_900_L_18_R_20.png","15_Ratio_900_L_9_R_10.png","3_Ratio_900_L_9_R_10.png","5_Ratio_900_L_9_R_10.png","6_Ratio_900_L_9_R_10.png","7_Ratio_900_L_9_R_10.png","9_Ratio_900_L_18_R_20.png"]],"Rat1000":[["10_Ratio_1000_L_16_R_16.png","11_Ratio_1000_L_6_R_6.png","12_Ratio_1000_L_14_R_14.png","13_Ratio_1000_L_20_R_20.png","15_Ratio_1000_L_15_R_15.png","2_Ratio_1000_L_17_R_17.png","4_Ratio_1000_L_9_R_9.png","5_Ratio_1000_L_6_R_6.png","6_Ratio_1000_L_19_R_19.png","8_Ratio_1000_L_14_R_14.png","9_Ratio_1000_L_25_R_25.png"],["1_Ratio_1000_L_1_R_1.png","14_Ratio_1000_L_17_R_17.png","3_Ratio_1000_L_17_R_17.png","7_Ratio_1000_L_6_R_6.png"]]}},{"start_time":1552073969524,"click_time":1552073970206,"finger_time":1552073970026,"fix_duration":975.7714023286927,"trial":1,"RT":502,"MT":180,"sideResp":1,"stimulus":"img/900/equaldotsize/R/5_Ratio_900_L_9_R_10.png","xmouse":[793,793,793,793,793,793,793,793,793,793,793,793,793,793,793,793,793,793,793,793,793,793,791,785,771,682,642,604,586,571,569,566,559,547,520],"ymouse":[529,529,529,529,529,529,529,529,529,529,529,529,529,529,529,529,529,529,529,529,529,528,523,507,483,350,299,266,246,211,196,177,157,134,91],"timestamp_mouse":[12,34,42,62,82,102,122,143,162,182,203,222,243,261,282,301,322,341,361,381,402,423,442,463,481,502,521,542,562,583,601,621,641,662,682],"xSR":741.5,"ySR":469.95,"xT1":424.9,"yT1":0,"xT2":1058.1,"yT2":0,"toosoon":0,"cond_shown":"equaldotsize","ratio_trial":900,"smaller_num":"9","larger_num":"10","correct_side":2,"subjID":"santiagoandresdiazarias13","gender":"0","age":"9","school":"4"},{"start_time":1552073973257,"click_time":1552073974086,"finger_time":1552073973667,"fix_duration":469.1724054829033,"trial":2,"RT":410,"MT":419,"sideResp":2,"stimulus":"img/900/equaldotsize/R/7_Ratio_900_L_9_R_10.png","xmouse":[802,802,802,802,802,802,802,802,802,802,802,802,802,802,802,802,802,802,802,805,816,828,849,863,879,897,922,1062,1159,1244,1298,1313,1315,1315,1308,1292,1279,1258,1242,1217,1176,1125],"ymouse":[491,491,491,491,491,491,491,491,491,491,491,491,491,491,491,491,491,491,491,478,463,446,414,397,374,352,325,242,196,150,117,101,94,94,94,94,97,98,98,98,98,92],"timestamp_mouse":[12,36,50,70,89,114,128,148,169,190,208,228,249,269,288,310,330,348,369,389,410,429,449,469,488,509,529,549,568,588,610,629,649,668,688,708,728,749,769,789,809,829],"xSR":741.5,"ySR":469.95,"xT1":424.9,"yT1":0,"xT2":1058.1,"yT2":0,"toosoon":0,"cond_shown":"equaldotsize","ratio_trial":900,"smaller_num":"9","larger_num":"10","correct_side":2,"subjID":"santiagoandresdiazarias13","gender":"0","age":"9","school":"4"},{"start_time":1552073975833,"click_time":1552073976506,"finger_time":1552073976405,"fix_duration":686.9132932407641,"trial":3,"RT":572,"MT":101,"sideResp":2,"stimulus":"img/750/randomdotsizeEA/R/11_Ratio_750_L_12_R_16.png","xmouse":[756,756,756,756,757,758,761,768,784,786,787,787,787,787,784,782,781,780,780,780,780,780,780,780,780,780,780,785,819,870,929,999,1060,1113],"ymouse":[528,528,528,528,528,529,532,538,547,548,548,548,548,548,548,548,548,548,548,548,548,548,548,548,548,543,536,511,435,374,309,233,163,99],"timestamp_mouse":[13,33,53,73,93,113,133,154,173,193,212,233,254,274,292,314,332,353,372,393,413,433,454,473,492,513,533,552,572,592,612,634,652,673],"xSR":741.5,"ySR":469.95,"xT1":424.9,"yT1":0,"xT2":1058.1,"yT2":0,"toosoon":0,"cond_shown":"randomdotsizeEA","ratio_trial":750,"smaller_num":"12","larger_num":"16","correct_side":2,"subjID":"santiagoandresdiazarias13","gender":"0","age":"9","school":"4"},{"start_time":1552073978143,"click_time":1552073978666,"finger_time":1552073978506,"fix_duration":394.55176598840904,"trial":4,"RT":363,"MT":160,"sideResp":2,"stimulus":"img/900/randomdotsizeEA/R/9_Ratio_900_L_18_R_20.png","xmouse":[811,811,811,811,811,811,811,811,811,811,811,811,811,811,811,815,824,836,851,894,926,960,994,1063,1085,1109,1125],"ymouse":[521,521,521,521,521,521,521,521,521,521,521,521,521,521,521,509,493,472,448,389,342,298,255,176,147,111,85],"timestamp_mouse":[20,29,44,63,82,102,122,144,163,182,203,224,242,262,284,302,323,343,363,383,404,422,442,463,482,503,523],"xSR":741.5,"ySR":469.95,"xT1":424.9,"yT1":0,"xT2":1058.1,"yT2":0,"toosoon":0,"cond_shown":"randomdotsizeEA","ratio_trial":900,"smaller_num":"18","larger_num":"20","correct_side":2,"subjID":"santiagoandresdiazarias13","gender":"0","age":"9","school":"4"},{"start_time":1552073980483,"click_time":1552073981087,"finger_time":1552073980807,"fix_duration":694.4654441255652,"trial":5,"RT":324,"MT":280,"sideResp":2,"stimulus":"img/750/equaldotsize/L/1_Ratio_750_L_20_R_15.png","xmouse":[818,818,818,818,818,818,818,818,818,818,818,818,818,818,818,818,844,875,907,934,966,1011,1027,1034,1035,1035,1035,1035,1037,1045,1059],"ymouse":[483,483,483,483,483,483,483,483,483,483,483,483,483,483,483,483,455,419,375,332,279,176,134,111,103,100,100,99,98,92,86],"timestamp_mouse":[10,36,44,65,84,104,125,144,165,183,205,225,245,264,284,305,324,344,364,384,404,425,444,464,484,504,525,544,565,585,604],"xSR":741.5,"ySR":469.95,"xT1":424.9,"yT1":0,"xT2":1058.1,"yT2":0,"toosoon":0,"cond_shown":"equaldotsize","ratio_trial":750,"smaller_num":"15","larger_num":"20","correct_side":1,"subjID":"santiagoandresdiazarias13","gender":"0","age":"9","school":"4"},{"start_time":1552073982400,"click_time":1552073983768,"finger_time":1552073982907,"fix_duration":250,"trial":6,"RT":507,"MT":861,"sideResp":1,"stimulus":"img/900/equaldotanddens/L/2_Ratio_900_L_20_R_18.png","xmouse":[805,805,805,804,802,802,802,802,802,802,802,802,802,802,802,802,802,802,802,802,802,800,794,785,767,730,721,719,718,718,715,711,705,698,692,677,666,654,639,622,590,582,577,569,561,542,531,518,507,498,490,490,490,490,490,490,490,490,490,489,489,489,489,489,489,489,489,489,481],"ymouse":[524,524,524,523,523,523,523,523,523,523,523,523,523,523,523,523,523,523,523,523,523,523,516,502,487,460,450,444,430,410,338,315,293,275,258,230,217,204,195,188,178,174,172,168,164,153,145,135,125,116,107,106,106,106,106,106,106,106,106,106,105,105,105,105,105,105,105,100,84],"timestamp_mouse":[9,40,47,67,88,108,128,147,168,187,206,228,248,268,288,308,327,347,368,387,408,427,447,468,487,507,526,547,567,588,607,627,647,668,687,708,727,747,767,787,808,827,847,868,887,907,927,948,967,987,1008,1027,1047,1067,1088,1108,1126,1148,1168,1187,1207,1227,1247,1267,1287,1308,1326,1347,1367],"xSR":741.5,"ySR":469.95,"xT1":424.9,"yT1":0,"xT2":1058.1,"yT2":0,"toosoon":0,"cond_shown":"equaldotanddens","ratio_trial":900,"smaller_num":"18","larger_num":"20","correct_side":1,"subjID":"santiagoandresdiazarias13","gender":"0","age":"9","school":"4"},{"start_time":1552073985368,"click_time":1552073985987,"finger_time":1552073985727,"fix_duration":439.17527068546514,"trial":7,"RT":359,"MT":260,"sideResp":2,"stimulus":"img/750/equaldotanddens/R/2_Ratio_750_L_6_R_8.png","xmouse":[793,793,793,793,793,793,793,793,793,793,793,793,793,793,793,793,791,791,806,829,852,884,989,1019,1032,1036,1037,1037,1037,1037,1042,1062],"ymouse":[538,538,538,538,538,538,538,538,538,538,538,538,538,538,538,538,537,517,455,401,327,264,137,112,94,83,78,78,78,78,77,74],"timestamp_mouse":[2,20,38,59,80,99,119,139,160,180,199,219,240,260,279,300,318,340,359,379,399,419,440,459,479,499,519,539,559,578,600,619],"xSR":741.5,"ySR":469.95,"xT1":424.9,"yT1":0,"xT2":1058.1,"yT2":0,"toosoon":0,"cond_shown":"equaldotanddens","ratio_trial":750,"smaller_num":"6","larger_num":"8","correct_side":2,"subjID":"santiagoandresdiazarias13","gender":"0","age":"9","school":"4"},{"start_time":1552073988111,"click_time":1552073988927,"finger_time":1552073988607,"fix_duration":901.5565769138934,"trial":8,"RT":496,"MT":320,"sideResp":2,"stimulus":"img/750/randomdotsizeEA/L/14_Ratio_750_L_8_R_6.png","xmouse":[793,793,793,793,793,793,793,793,793,793,793,793,793,793,793,793,793,793,797,800,802,804,807,815,841,899,929,957,975,1006,1014,1019,1021,1022,1022,1022,1022,1022,1022,1041,1063],"ymouse":[534,534,534,534,534,534,534,534,534,534,534,534,534,534,534,534,534,534,531,526,520,514,505,491,453,373,327,274,229,152,127,109,96,88,78,78,78,78,78,78,78],"timestamp_mouse":[16,36,57,76,97,116,136,156,176,197,217,236,256,277,297,317,336,356,376,396,416,436,456,476,496,517,536,556,576,596,616,636,656,677,697,715,736,757,776,796,816],"xSR":741.5,"ySR":469.95,"xT1":424.9,"yT1":0,"xT2":1058.1,"yT2":0,"toosoon":0,"cond_shown":"randomdotsizeEA","ratio_trial":750,"smaller_num":"6","larger_num":"8","correct_side":1,"subjID":"santiagoandresdiazarias13","gender":"0","age":"9","school":"4"},{"start_time":1552073993041,"click_time":1552073993808,"finger_time":1552073993407,"fix_duration":1371.225589158619,"trial":9,"RT":366,"MT":401,"sideResp":1,"stimulus":"img/500/equaldotsize/L/10_Ratio_500_L_4_R_2.png","xmouse":[800,800,800,800,800,800,800,800,800,800,800,800,800,800,800,800,799,799,789,782,773,762,746,705,679,658,644,632,613,602,586,574,566,552,549,545,537,530,497],"ymouse":[517,517,517,517,517,517,517,517,517,517,517,517,517,517,517,517,514,509,469,452,439,424,411,381,365,351,338,326,281,259,236,219,207,185,177,168,153,135,56],"timestamp_mouse":[12,34,46,66,86,106,126,146,167,186,206,226,246,266,286,305,326,346,366,386,405,427,446,466,486,507,526,546,567,586,606,627,646,667,686,706,726,747,767],"xSR":741.5,"ySR":469.95,"xT1":424.9,"yT1":0,"xT2":1058.1,"yT2":0,"toosoon":0,"cond_shown":"equaldotsize","ratio_trial":500,"smaller_num":"2","larger_num":"4","correct_side":1,"subjID":"santiagoandresdiazarias13","gender":"0","age":"9","school":"4"},{"start_time":1552073998326,"click_time":1552073999327,"finger_time":1552073998767,"fix_duration":1216.5908641897272,"trial":10,"RT":441,"MT":560,"sideResp":2,"stimulus":"img/250/randomdotsizeEA/L/1_Ratio_250_L_8_R_2.png","xmouse":[791,793,793,797,800,801,801,801,801,801,801,801,801,801,801,801,801,801,802,803,807,814,818,821,868,945,1055,1170,1270,1391,1409,1409,1409,1409,1409,1409,1409,1409,1409,1409,1409,1409,1409,1409,1409,1409,1409,1409,1409,1409,1100],"ymouse":[497,500,500,507,510,512,513,514,516,516,516,516,516,516,516,516,516,516,516,509,496,480,464,447,373,313,243,178,115,29,7,7,7,7,7,7,7,7,7,7,7,7,7,7,7,7,7,7,7,7,25],"timestamp_mouse":[11,38,42,61,81,101,121,142,162,182,201,222,242,262,282,301,322,341,361,381,401,421,441,462,482,500,521,541,561,581,601,621,641,662,682,702,722,741,761,782,802,822,841,862,881,902,922,941,961,982,1001],"xSR":741.5,"ySR":469.95,"xT1":424.9,"yT1":0,"xT2":1058.1,"yT2":0,"toosoon":0,"cond_shown":"randomdotsizeEA","ratio_trial":250,"smaller_num":"2","larger_num":"8","correct_side":1,"subjID":"santiagoandresdiazarias13","gender":"0","age":"9","school":"4"},{"start_time":1552074002945,"click_time":1552074003887,"finger_time":1552074003447,"fix_duration":1035.3318357233404,"trial":11,"RT":502,"MT":440,"sideResp":1,"stimulus":"img/500/equaldotanddens/L/11_Ratio_500_L_12_R_6.png","xmouse":[800,800,800,800,800,800,800,800,800,800,800,800,800,800,800,800,800,800,800,800,800,800,800,800,784,742,686,617,472,418,418,418,418,418,418,418,418,418,418,418,418,418,418,418,418,418,422,430],"ymouse":[501,501,501,501,501,501,501,501,501,501,501,501,501,501,501,501,501,501,501,501,501,501,501,501,480,432,365,282,100,24,24,24,24,24,24,24,24,24,24,24,24,24,24,24,24,24,7,23],"timestamp_mouse":[10,22,41,63,83,102,123,142,162,183,202,223,243,262,283,302,322,343,361,384,403,422,443,462,483,502,523,542,563,582,602,622,643,663,683,702,723,742,763,782,802,822,843,862,882,903,923,942],"xSR":741.5,"ySR":469.95,"xT1":424.9,"yT1":0,"xT2":1058.1,"yT2":0,"toosoon":0,"cond_shown":"equaldotanddens","ratio_trial":500,"smaller_num":"6","larger_num":"12","correct_side":1,"subjID":"santiagoandresdiazarias13","gender":"0","age":"9","school":"4"},{"start_time":1552074005259,"click_time":1552074006148,"finger_time":1552074005767,"fix_duration":250,"trial":12,"RT":508,"MT":381,"sideResp":2,"stimulus":"img/900/equaldotsize/R/13_Ratio_900_L_18_R_20.png","xmouse":[819,819,819,819,819,819,819,819,819,819,819,819,819,819,819,819,819,819,819,819,819,820,826,829,835,843,858,942,977,1000,1016,1024,1037,1045,1055,1065,1074,1081,1086,1087,1088,1090,1094,1096,1098],"ymouse":[523,523,523,523,523,523,523,523,523,523,523,523,523,523,523,523,523,523,523,523,523,520,502,494,479,462,440,334,284,251,226,211,192,186,179,171,162,155,147,144,141,136,118,108,99],"timestamp_mouse":[26,28,48,68,89,109,129,149,168,189,208,229,248,269,289,307,329,348,369,389,408,428,448,468,488,508,529,549,568,588,609,628,648,668,688,708,728,748,769,787,809,828,848,868,889],"xSR":741.5,"ySR":469.95,"xT1":424.9,"yT1":0,"xT2":1058.1,"yT2":0,"toosoon":0,"cond_shown":"equaldotsize","ratio_trial":900,"smaller_num":"18","larger_num":"20","correct_side":2,"subjID":"santiagoandresdiazarias13","gender":"0","age":"9","school":"4"},{"start_time":1552074052523,"click_time":1552074053229,"finger_time":1552074053008,"fix_duration":833.3890452199857,"trial":13,"RT":485,"MT":221,"sideResp":2,"stimulus":"img/250/equaldotanddens/R/9_Ratio_250_L_3_R_12.png","xmouse":[761,761,761,761,761,761,761,761,761,761,761,761,761,761,761,761,761,761,763,767,768,771,773,778,774,761,739,710,684,648,642,646,688,785,978,1093],"ymouse":[510,510,510,510,510,510,510,510,510,510,510,510,510,510,510,510,510,510,511,506,503,500,494,487,451,430,407,383,354,308,282,251,203,147,58,10],"timestamp_mouse":[15,37,45,66,86,105,126,146,166,185,205,226,245,265,286,305,326,346,365,385,405,426,446,466,485,505,525,546,565,585,606,625,645,665,685,706],"xSR":741.5,"ySR":469.95,"xT1":424.9,"yT1":0,"xT2":1058.1,"yT2":0,"toosoon":0,"cond_shown":"equaldotanddens","ratio_trial":250,"smaller_num":"3","larger_num":"12","correct_side":2,"subjID":"santiagoandresdiazarias13","gender":"0","age":"9","school":"4"},{"start_time":1552074055670,"click_time":1552074056109,"finger_time":1552074055988,"fix_duration":1101.2552327246965,"trial":14,"RT":318,"MT":121,"sideResp":2,"stimulus":"img/500/equaldotanddens/R/9_Ratio_500_L_2_R_4.png","xmouse":[779,779,779,779,780,786,792,800,801,802,802,802,805,813,825,845,932,970,1018,1058,1092,1138],"ymouse":[550,550,550,550,549,540,530,518,516,515,515,515,509,498,482,453,354,317,277,238,195,92],"timestamp_mouse":[18,40,59,78,98,119,138,158,178,199,219,238,258,278,298,318,339,358,377,398,418,438],"xSR":741.5,"ySR":469.95,"xT1":424.9,"yT1":0,"xT2":1058.1,"yT2":0,"toosoon":0,"cond_shown":"equaldotanddens","ratio_trial":500,"smaller_num":"2","larger_num":"4","correct_side":2,"subjID":"santiagoandresdiazarias13","gender":"0","age":"9","school":"4"},{"start_time":1552074058657,"click_time":1552074088848,"finger_time":1552074085508,"fix_duration":1488.6760347387099,"trial":15,"RT":26851,"MT":3340,"sideResp":2,"stimulus":"img/500/randomdotsizeEA/R/12_Ratio_500_L_1_R_2.png","xmouse":[807,814,819,820,821,821,821,821,821,821,818,818,818,818,818,818,818,818,818,818,818,818,818,818,818,818,818,818,818,818,818,818,818,818,818,818,818,818,818,818,818,818,818,818,818,818,818,818,818,818,818,818,818,818,818,818,818,818,818,818,818,818,818,818,818,818,818,818,818,818,818,818,818,818,818,818,818,818,818,818,818,818,818,818,818,818,818,818,818,818,818,818,818,818,818,818,818,818,818,818,818,818,818,818,818,818,818,818,818,818,818,818,818,818,818,818,818,818,818,818,818,818,818,818,818,818,818,818,818,818,818,818,818,818,818,818,818,818,818,818,818,818,818,818,818,818,818,818,818,818,818,818,818,818,818,818,818,818,818,818,818,818,818,818,818,818,818,818,818,818,818,818,818,818,818,818,818,818,818,818,818,818,818,818,818,818,818,818,818,818,818,818,818,818,818,818,818,818,818,818,818,818,818,818,818,818,818,818,818,818,818,818,818,818,818,818,818,818,818,818,818,818,818,818,818,818,818,818,818,818,818,818,818,818,818,818,818,818,818,818,818,818,818,818,818,818,818,818,818,818,818,818,818,818,818,818,818,818,818,818,818,818,818,818,818,818,818,818,818,818,818,818,818,818,818,818,818,818,818,818,818,818,818,818,818,818,818,818,818,818,818,818,818,818,818,818,818,818,818,818,818,818,818,818,818,818,818,818,818,818,818,818,818,818,818,818,818,818,818,818,818,818,818,818,818,818,818,818,818,818,818,818,818,818,818,818,818,818,818,818,818,818,818,818,818,818,818,818,818,818,818,818,818,818,818,818,818,818,818,818,818,818,818,818,818,818,818,818,818,818,818,818,818,818,818,818,818,818,818,818,818,818,818,818,818,818,818,818,818,818,818,818,818,818,818,818,818,818,818,818,818,818,818,818,818,818,818,818,818,818,818,818,818,818,818,818,818,818,818,818,818,818,818,818,818,818,818,818,818,818,818,818,818,818,818,818,818,818,818,818,818,818,818,818,818,818,818,818,818,818,818,818,818,818,818,818,818,818,818,818,818,818,818,818,818,818,818,818,818,818,818,818,818,818,818,818,818,818,818,818,818,818,818,818,818,818,818,818,818,818,818,818,818,818,818,818,818,818,818,818,818,818,818,818,818,818,818,818,818,818,818,818,818,818,818,818,818,818,818,818,818,818,818,818,818,818,818,818,818,818,818,818,818,818,818,818,818,818,818,818,818,818,818,818,818,818,818,818,818,818,818,818,818,818,818,818,818,818,818,818,818,818,818,818,818,818,818,818,818,818,818,818,818,818,818,818,818,818,818,818,818,818,818,818,818,818,818,818,818,818,818,818,818,818,818,818,818,818,818,818,818,818,818,818,818,818,818,818,818,818,818,818,818,818,818,818,818,818,818,818,818,818,818,818,818,818,818,818,818,818,818,818,818,818,818,818,818,818,818,818,818,818,818,818,818,818,818,818,818,818,818,818,818,818,818,818,818,818,818,818,818,818,818,818,818,818,818,818,818,818,818,818,818,818,818,818,818,818,818,818,818,818,818,818,818,818,818,818,818,818,818,818,818,818,818,818,818,818,818,818,818,818,818,818,818,818,818,818,818,818,818,818,818,818,818,818,818,818,818,818,818,818,818,818,818,818,818,818,818,818,818,818,818,818,818,818,818,818,818,818,818,818,818,818,818,818,818,818,818,818,818,818,818,818,818,818,818,818,818,818,818,818,818,818,818,818,818,818,818,818,818,818,818,818,818,818,818,818,818,818,818,818,818,818,818,818,818,818,818,818,818,818,818,818,818,818,818,818,818,818,818,818,818,818,818,818,818,818,818,818,818,818,818,818,818,818,818,818,818,818,818,818,818,818,818,818,818,818,818,818,818,818,818,818,818,818,818,818,818,818,818,818,818,818,818,818,818,818,818,818,818,818,818,818,818,818,818,818,818,818,818,818,818,818,818,818,818,818,818,818,818,818,818,818,818,818,818,818,818,818,818,818,818,818,818,818,818,818,818,818,818,818,818,818,818,818,818,818,818,818,818,818,818,818,818,818,818,818,818,818,818,818,818,818,818,818,818,818,818,818,818,818,818,818,818,818,818,818,818,818,818,818,818,818,818,818,818,818,818,818,818,818,818,818,818,818,818,818,818,818,818,818,818,818,818,818,818,818,818,818,818,818,818,818,818,818,818,818,818,818,818,818,818,818,818,818,818,818,818,818,818,818,818,818,818,818,818,818,818,818,818,818,818,818,818,818,818,818,818,818,818,818,818,818,818,818,818,818,818,818,818,818,818,818,818,818,818,818,818,818,818,818,818,818,818,818,818,818,818,818,818,818,818,818,818,818,818,818,818,818,818,818,818,818,818,818,818,818,818,818,818,818,818,818,818,818,818,818,818,818,818,818,818,818,818,818,818,818,818,818,818,818,818,818,818,818,818,818,818,818,818,818,818,818,818,818,818,818,818,818,818,818,818,818,818,818,818,818,818,818,818,818,818,818,818,818,818,818,818,818,818,818,818,818,818,818,818,818,818,818,818,818,818,818,818,818,818,818,818,818,818,818,818,818,818,818,818,818,818,818,818,818,818,818,818,818,818,818,818,818,818,818,818,818,818,818,818,818,818,818,818,818,818,818,818,818,818,818,818,818,818,818,818,818,818,818,818,818,818,818,818,818,818,818,818,818,818,818,818,818,818,818,818,818,818,818,818,818,818,818,818,818,818,818,818,818,818,818,818,818,818,818,818,818,818,818,818,818,818,818,818,818,818,818,818,818,818,818,818,818,818,818,818,818,818,818,818,818,818,818,818,818,818,818,818,818,818,818,818,818,818,818,818,818,818,818,818,818,818,818,818,818,818,818,818,818,818,818,818,818,818,818,818,818,818,818,818,818,818,818,818,818,818,818,818,818,818,818,818,818,818,818,818,818,818,818,818,818,818,818,818,818,818,818,818,818,818,818,818,818,818,818,818,818,818,818,818,818,818,818,818,818,818,818,818,818,818,818,818,818,818,818,818,818,818,818,818,818,818,818,816,811,781,779,779,779,779,779,779,779,779,779,779,779,779,778,756,729,729,729,729,729,706,675,639,613,575,541,537,537,537,537,537,537,539,565,647,777,823,853,864,865,865,864,862,862,858,849,849,848,840,823,780,772,770,770,770,767,757,756,756,756,756,756,756,756,756,756,756,756,756,756,756,759,761,763,764,765,765,765,765,765,765,765,765,765,765,765,765,765,765,765,765,765,765,768,777,809,812,812,812,812,812,812,812,812,812,809,803,802,800,800,800,800,800,799,799,799,799,799,799,799,799,799,799,798,796,778,772,768,768,767,767,767,767,767,767,771,781,793,800,801,796,794,791,781,765,738,737,737,737,747,788,815,839,851,855,855,855,872,921,986,1068,1078,1079,1079,1068,1064,1082,1130],"ymouse":[511,509,507,504,501,501,501,501,501,501,501,501,501,501,501,501,501,501,501,501,501,501,501,501,501,501,501,501,501,501,501,501,501,501,501,501,501,501,501,501,501,501,501,501,501,501,501,501,501,501,501,501,501,501,501,501,501,501,501,501,501,501,501,501,501,501,501,501,501,501,501,501,501,501,501,501,501,501,501,501,501,501,501,501,501,501,501,501,501,501,501,501,501,501,501,501,501,501,501,501,501,501,501,501,501,501,501,501,501,501,501,501,501,501,501,501,501,501,501,501,501,501,501,501,501,501,501,501,501,501,501,501,501,501,501,501,501,501,501,501,501,501,501,501,501,501,501,501,501,501,501,501,501,501,501,501,501,501,501,501,501,501,501,501,501,501,501,501,501,501,501,501,501,501,501,501,501,501,501,501,501,501,501,501,501,501,501,501,501,501,501,501,501,501,501,501,501,501,501,501,501,501,501,501,501,501,501,501,501,501,501,501,501,501,501,501,501,501,501,501,501,501,501,501,501,501,501,501,501,501,501,501,501,501,501,501,501,501,501,501,501,501,501,501,501,501,501,501,501,501,501,501,501,501,501,501,501,501,501,501,501,501,501,501,501,501,501,501,501,501,501,501,501,501,501,501,501,501,501,501,501,501,501,501,501,501,501,501,501,501,501,501,501,501,501,501,501,501,501,501,501,501,501,501,501,501,501,501,501,501,501,501,501,501,501,501,501,501,501,501,501,501,501,501,501,501,501,501,501,501,501,501,501,501,501,501,501,501,501,501,501,501,501,501,501,501,501,501,501,501,501,501,501,501,501,501,501,501,501,501,501,501,501,501,501,501,501,501,501,501,501,501,501,501,501,501,501,501,501,501,501,501,501,501,501,501,501,501,501,501,501,501,501,501,501,501,501,501,501,501,501,501,501,501,501,501,501,501,501,501,501,501,501,501,501,501,501,501,501,501,501,501,501,501,501,501,501,501,501,501,501,501,501,501,501,501,501,501,501,501,501,501,501,501,501,501,501,501,501,501,501,501,501,501,501,501,501,501,501,501,501,501,501,501,501,501,501,501,501,501,501,501,501,501,501,501,501,501,501,501,501,501,501,501,501,501,501,501,501,501,501,501,501,501,501,501,501,501,501,501,501,501,501,501,501,501,501,501,501,501,501,501,501,501,501,501,501,501,501,501,501,501,501,501,501,501,501,501,501,501,501,501,501,501,501,501,501,501,501,501,501,501,501,501,501,501,501,501,501,501,501,501,501,501,501,501,501,501,501,501,501,501,501,501,501,501,501,501,501,501,501,501,501,501,501,501,501,501,501,501,501,501,501,501,501,501,501,501,501,501,501,501,501,501,501,501,501,501,501,501,501,501,501,501,501,501,501,501,501,501,501,501,501,501,501,501,501,501,501,501,501,501,501,501,501,501,501,501,501,501,501,501,501,501,501,501,501,501,501,501,501,501,501,501,501,501,501,501,501,501,501,501,501,501,501,501,501,501,501,501,501,501,501,501,501,501,501,501,501,501,501,501,501,501,501,501,501,501,501,501,501,501,501,501,501,501,501,501,501,501,501,501,501,501,501,501,501,501,501,501,501,501,501,501,501,501,501,501,501,501,501,501,501,501,501,501,501,501,501,501,501,501,501,501,501,501,501,501,501,501,501,501,501,501,501,501,501,501,501,501,501,501,501,501,501,501,501,501,501,501,501,501,501,501,501,501,501,501,501,501,501,501,501,501,501,501,501,501,501,501,501,501,501,501,501,501,501,501,501,501,501,501,501,501,501,501,501,501,501,501,501,501,501,501,501,501,501,501,501,501,501,501,501,501,501,501,501,501,501,501,501,501,501,501,501,501,501,501,501,501,501,501,501,501,501,501,501,501,501,501,501,501,501,501,501,501,501,501,501,501,501,501,501,501,501,501,501,501,501,501,501,501,501,501,501,501,501,501,501,501,501,501,501,501,501,501,501,501,501,501,501,501,501,501,501,501,501,501,501,501,501,501,501,501,501,501,501,501,501,501,501,501,501,501,501,501,501,501,501,501,501,501,501,501,501,501,501,501,501,501,501,501,501,501,501,501,501,501,501,501,501,501,501,501,501,501,501,501,501,501,501,501,501,501,501,501,501,501,501,501,501,501,501,501,501,501,501,501,501,501,501,501,501,501,501,501,501,501,501,501,501,501,501,501,501,501,501,501,501,501,501,501,501,501,501,501,501,501,501,501,501,501,501,501,501,501,501,501,501,501,501,501,501,501,501,501,501,501,501,501,501,501,501,501,501,501,501,501,501,501,501,501,501,501,501,501,501,501,501,501,501,501,501,501,501,501,501,501,501,501,501,501,501,501,501,501,501,501,501,501,501,501,501,501,501,501,501,501,501,501,501,501,501,501,501,501,501,501,501,501,501,501,501,501,501,501,501,501,501,501,501,501,501,501,501,501,501,501,501,501,501,501,501,501,501,501,501,501,501,501,501,501,501,501,501,501,501,501,501,501,501,501,501,501,501,501,501,501,501,501,501,501,501,501,501,501,501,501,501,501,501,501,501,501,501,501,501,501,501,501,501,501,501,501,501,501,501,501,501,501,501,501,501,501,501,501,501,501,501,501,501,501,501,501,501,501,501,501,501,501,501,501,501,501,501,501,501,501,501,501,501,501,501,501,501,501,501,501,501,501,501,501,501,501,501,501,501,501,501,501,501,501,501,501,501,501,501,501,501,501,501,501,501,501,501,501,501,501,501,501,501,501,501,501,501,501,501,501,501,501,501,501,501,501,501,501,501,501,501,501,501,501,501,501,501,501,501,501,501,501,501,501,501,501,501,501,501,501,501,501,501,501,501,501,501,501,501,501,501,501,501,501,501,501,501,501,501,501,501,501,501,501,501,501,501,501,501,501,501,501,501,501,501,501,501,501,501,501,501,501,501,501,501,501,501,501,501,501,501,501,501,501,501,501,501,501,501,501,501,501,501,501,501,501,501,501,501,501,501,501,501,501,501,501,501,501,501,501,501,501,501,501,501,501,501,501,501,501,501,501,501,500,454,444,442,442,442,442,442,442,442,442,442,442,442,440,309,50,19,4,0,0,25,60,93,108,119,113,110,110,110,108,107,106,115,183,347,544,590,605,608,608,606,602,601,601,601,613,613,613,603,583,556,555,555,555,555,530,490,487,487,487,487,487,487,487,487,487,487,487,487,487,489,502,515,527,534,536,536,536,536,536,536,536,536,536,536,536,536,536,536,536,536,536,536,536,534,522,521,521,521,521,521,521,521,521,521,520,520,520,519,519,519,518,515,510,502,495,490,487,484,484,484,484,484,484,484,497,502,505,506,507,507,507,507,505,498,448,414,370,331,305,284,283,283,289,307,341,342,342,342,320,276,248,219,196,177,162,162,162,162,154,138,130,128,124,123,123,113,84],"timestamp_mouse":[14,42,50,72,91,112,132,151,172,192,211,232,251,271,291,311,331,351,372,392,411,430,451,471,491,512,531,553,571,591,611,631,651,671,691,711,731,752,770,792,812,831,852,871,891,912,932,951,972,992,1011,1032,1052,1071,1092,1112,1132,1151,1171,1190,1212,1231,1252,1272,1291,1312,1332,1351,1371,1392,1411,1431,1450,1471,1492,1511,1530,1551,1571,1592,1611,1631,1651,1672,1692,1712,1730,1751,1772,1791,1812,1831,1851,1871,1892,1911,1932,1951,1971,1991,2011,2031,2051,2072,2092,2112,2132,2151,2171,2192,2212,2231,2252,2272,2292,2311,2332,2351,2372,2392,2411,2431,2452,2471,2491,2512,2532,2551,2572,2591,2612,2632,2651,2671,2691,2712,2731,2751,2772,2791,2811,2831,2852,2872,2891,2911,2931,2952,2972,2992,3011,3031,3051,3071,3092,3111,3132,3151,3172,3192,3211,3232,3252,3272,3290,3312,3331,3352,3372,3391,3412,3431,3452,3472,3491,3511,3532,3551,3570,3592,3611,3631,3651,3672,3692,3711,3730,3752,3772,3791,3812,3831,3852,3872,3891,3912,3932,3952,3972,3992,4011,4032,4051,4071,4092,4112,4131,4152,4172,4190,4212,4231,4252,4272,4292,4311,4332,4351,4372,4391,4412,4432,4451,4471,4492,4512,4532,4551,4572,4592,4612,4632,4652,4671,4691,4712,4731,4750,4771,4791,4812,4832,4851,4872,4891,4911,4932,4952,4972,4992,5011,5032,5052,5071,5092,5111,5131,5152,5171,5192,5212,5232,5252,5271,5292,5312,5332,5352,5371,5391,5412,5432,5451,5472,5490,5510,5532,5551,5571,5592,5612,5631,5652,5671,5692,5711,5731,5752,5772,5792,5811,5832,5851,5872,5892,5911,5931,5951,5971,5992,6011,6032,6051,6071,6092,6110,6132,6151,6171,6191,6211,6231,6251,6272,6291,6310,6332,6352,6371,6391,6412,6430,6451,6472,6491,6512,6532,6551,6572,6591,6611,6631,6651,6672,6692,6711,6731,6752,6770,6792,6812,6832,6852,6872,6891,6912,6932,6952,6971,6992,7012,7031,7052,7071,7092,7111,7132,7150,7171,7192,7211,7231,7252,7272,7292,7311,7331,7352,7372,7391,7412,7431,7451,7470,7491,7512,7532,7551,7571,7592,7611,7632,7652,7670,7692,7711,7731,7752,7772,7791,7812,7831,7852,7872,7892,7912,7932,7952,7972,7992,8012,8032,8051,8071,8092,8112,8137,8151,8171,8192,8211,8231,8251,8271,8292,8312,8331,8351,8372,8391,8411,8432,8451,8472,8490,8511,8531,8551,8572,8592,8611,8631,8651,8672,8692,8712,8732,8751,8771,8790,8812,8832,8852,8870,8891,8912,8931,8952,8971,8991,9011,9032,9051,9071,9091,9112,9132,9152,9171,9191,9211,9232,9251,9271,9292,9312,9332,9352,9371,9392,9411,9432,9452,9471,9490,9511,9531,9552,9571,9590,9612,9631,9652,9671,9691,9711,9732,9752,9771,9792,9810,9832,9851,9872,9891,9911,9932,9950,9971,9992,10011,10032,10051,10071,10091,10111,10132,10152,10171,10192,10211,10230,10252,10272,10291,10312,10332,10352,10371,10390,10412,10432,10451,10471,10491,10511,10532,10551,10571,10592,10611,10632,10652,10672,10692,10712,10731,10751,10772,10791,10812,10832,10851,10872,10891,10912,10932,10952,10971,10992,11011,11031,11052,11071,11091,11111,11131,11151,11171,11192,11212,11231,11252,11270,11292,11312,11332,11352,11372,11392,11411,11431,11451,11471,11492,11511,11531,11552,11572,11592,11612,11632,11652,11672,11691,11711,11732,11751,11771,11791,11811,11832,11851,11872,11890,11912,11931,11951,11972,11992,12011,12031,12052,12071,12092,12112,12131,12151,12171,12192,12211,12232,12251,12272,12291,12312,12332,12352,12372,12392,12411,12431,12451,12470,12492,12512,12532,12552,12571,12591,12611,12631,12651,12670,12692,12711,12732,12751,12771,12792,12812,12832,12852,12872,12891,12912,12932,12952,12972,12992,13012,13031,13052,13071,13092,13112,13132,13152,13172,13191,13211,13232,13251,13272,13291,13312,13332,13351,13372,13391,13412,13432,13452,13471,13491,13512,13532,13551,13570,13591,13611,13632,13650,13672,13692,13711,13731,13751,13771,13791,13812,13831,13852,13871,13891,13912,13931,13952,13971,13990,14012,14031,14052,14071,14092,14110,14132,14152,14171,14191,14210,14230,14252,14272,14291,14310,14332,14351,14372,14391,14411,14431,14451,14472,14492,14511,14532,14551,14572,14592,14612,14632,14652,14672,14691,14710,14731,14751,14772,14791,14812,14831,14852,14872,14892,14911,14931,14951,14972,14991,15011,15032,15051,15072,15092,15112,15132,15152,15171,15191,15212,15231,15252,15272,15291,15312,15331,15352,15371,15391,15412,15431,15451,15472,15491,15512,15531,15552,15572,15592,15611,15632,15651,15671,15692,15712,15732,15751,15771,15792,15812,15832,15851,15872,15892,15912,15932,15952,15971,15992,16011,16032,16052,16072,16092,16111,16132,16150,16171,16192,16212,16231,16251,16271,16292,16312,16332,16351,16371,16391,16412,16432,16451,16472,16490,16512,16532,16551,16571,16592,16612,16632,16651,16670,16692,16712,16731,16752,16772,16791,16812,16832,16852,16872,16891,16911,16932,16952,16971,16991,17011,17031,17052,17072,17092,17111,17131,17151,17171,17192,17211,17232,17252,17272,17291,17312,17331,17352,17371,17390,17411,17431,17451,17472,17492,17512,17532,17551,17572,17591,17611,17631,17651,17672,17691,17711,17731,17752,17771,17791,17812,17830,17852,17872,17891,17911,17931,17951,17972,17992,18011,18030,18051,18071,18091,18111,18131,18152,18171,18192,18211,18231,18251,18271,18291,18311,18332,18351,18370,18391,18411,18431,18451,18470,18491,18511,18531,18551,18572,18591,18611,18632,18652,18671,18691,18711,18731,18752,18772,18791,18812,18831,18852,18871,18892,18912,18931,18952,18971,18992,19011,19032,19052,19072,19091,19112,19131,19152,19171,19192,19212,19231,19251,19272,19292,19312,19330,19351,19372,19392,19412,19432,19452,19472,19491,19511,19531,19551,19571,19592,19611,19631,19652,19670,19692,19711,19731,19751,19771,19792,19811,19831,19852,19872,19891,19912,19932,19951,19972,19992,20012,20032,20050,20072,20092,20112,20132,20151,20171,20192,20212,20232,20251,20271,20291,20311,20331,20352,20371,20392,20412,20430,20452,20471,20491,20511,20532,20551,20572,20590,20611,20632,20652,20671,20692,20712,20732,20750,20771,20792,20811,20832,20851,20871,20892,20912,20931,20951,20972,20992,21011,21031,21051,21071,21092,21112,21132,21152,21170,21192,21211,21232,21252,21272,21292,21312,21332,21351,21371,21391,21412,21431,21451,21472,21492,21512,21531,21552,21572,21592,21611,21631,21651,21671,21690,21711,21731,21752,21772,21791,21812,21831,21851,21871,21892,21911,21932,21952,21972,21992,22011,22032,22051,22072,22092,22111,22131,22150,22172,22192,22212,22232,22252,22271,22292,22311,22331,22352,22371,22392,22412,22431,22452,22471,22491,22510,22531,22551,22572,22591,22612,22632,22652,22671,22692,22712,22732,22752,22772,22792,22812,22831,22852,22871,22891,22912,22932,22951,22972,22992,23011,23032,23052,23072,23092,23112,23132,23152,23172,23191,23212,23231,23252,23272,23292,23312,23331,23352,23372,23391,23412,23430,23451,23471,23492,23511,23532,23551,23572,23592,23612,23631,23652,23671,23692,23712,23731,23752,23771,23791,23811,23832,23852,23871,23891,23912,23931,23951,23972,23991,24011,24032,24052,24072,24092,24112,24131,24152,24171,24192,24211,24232,24252,24272,24291,24312,24332,24352,24371,24392,24412,24432,24451,24471,24492,24511,24531,24552,24572,24591,24612,24632,24651,24671,24692,24712,24732,24750,24771,24792,24812,24831,24851,24872,24891,24911,24932,24951,24972,24992,25011,25032,25050,25071,25092,25111,25131,25152,25171,25192,25212,25231,25251,25272,25292,25312,25332,25351,25372,25391,25412,25432,25451,25472,25491,25511,25532,25552,25572,25592,25611,25632,25652,25671,25692,25712,25732,25752,25770,25791,25812,25832,25852,25872,25892,25912,25932,25951,25972,25992,26011,26032,26051,26072,26092,26112,26131,26152,26172,26191,26211,26231,26251,26271,26292,26312,26332,26352,26371,26392,26412,26431,26451,26471,26492,26511,26532,26551,26571,26592,26612,26631,26651,26671,26691,26710,26732,26752,26772,26792,26811,26831,26851,26871,26891,26911,26932,26951,26971,26991,27011,27032,27052,27071,27091,27111,27132,27151,27171,27191,27211,27230,27251,27270,27291,27311,27331,27352,27370,27392,27411,27432,27451,27470,27492,27510,27530,27551,27571,27591,27612,27631,27651,27671,27691,27711,27731,27751,27772,27791,27811,27830,27851,27871,27891,27910,27931,27951,27971,27991,28012,28031,28051,28071,28091,28111,28131,28151,28171,28192,28212,28231,28252,28271,28292,28311,28330,28352,28371,28391,28411,28431,28452,28471,28492,28512,28531,28552,28571,28591,28611,28632,28652,28671,28692,28711,28733,28751,28772,28792,28812,28832,28852,28870,28891,28912,28931,28951,28971,28990,29012,29032,29051,29071,29092,29111,29132,29151,29172,29191,29212,29230,29251,29272,29291,29311,29331,29351,29372,29391,29411,29432,29451,29470,29491,29511,29532,29551,29570,29591,29612,29631,29651,29671,29691,29711,29731,29751,29771,29791,29811,29831,29851,29871,29891,29911,29932,29951,29971,29990,30011,30031,30051,30071,30091,30111,30131,30151,30172,30191],"xSR":741.5,"ySR":469.95,"xT1":424.9,"yT1":0,"xT2":1058.1,"yT2":0,"toosoon":0,"cond_shown":"randomdotsizeEA","ratio_trial":500,"smaller_num":"1","larger_num":"2","correct_side":2,"subjID":"santiagoandresdiazarias13","gender":"0","age":"9","school":"4"},{"start_time":1552074090360,"click_time":1552074091609,"finger_time":1552074090888,"fix_duration":250,"trial":16,"RT":528,"MT":721,"sideResp":2,"stimulus":"img/500/equaldotanddens/R/6_Ratio_500_L_9_R_18.png","xmouse":[794,794,794,794,794,794,794,794,794,794,794,794,794,794,794,794,794,794,792,791,790,788,784,782,776,766,746,676,640,617,604,595,570,569,569,569,579,607,612,613,614,614,644,761,943,1141,1305,1442,1445,1436,1384,1316,1313,1312,1310,1298,1279,1234,1216,1201,1188,1174,1115],"ymouse":[521,521,521,521,521,521,521,521,521,521,521,521,521,521,521,521,521,521,518,516,512,507,497,492,482,470,452,401,375,357,344,325,262,242,227,219,214,211,209,209,208,206,198,192,188,168,133,83,81,80,72,62,61,60,56,52,49,47,49,52,52,52,47],"timestamp_mouse":[9,28,48,73,89,108,128,149,169,189,208,228,248,268,289,309,329,347,368,388,408,429,448,467,488,509,527,548,568,588,608,627,648,668,688,708,728,748,768,790,807,828,848,868,888,909,927,948,968,988,1008,1029,1048,1069,1087,1108,1128,1147,1168,1188,1209,1228,1248],"xSR":741.5,"ySR":469.95,"xT1":424.9,"yT1":0,"xT2":1058.1,"yT2":0,"toosoon":0,"cond_shown":"equaldotanddens","ratio_trial":500,"smaller_num":"9","larger_num":"18","correct_side":2,"subjID":"santiagoandresdiazarias13","gender":"0","age":"9","school":"4"},{"start_time":1552074097320,"click_time":1552074098828,"finger_time":1552074097869,"fix_duration":250,"trial":17,"RT":549,"MT":959,"sideResp":1,"stimulus":"img/500/equaldotsize/L/8_Ratio_500_L_8_R_4.png","xmouse":[815,815,815,815,815,815,815,815,815,815,815,815,815,815,815,815,815,815,815,815,815,815,815,815,815,817,830,848,875,915,924,926,926,921,870,802,732,670,616,559,545,535,527,518,504,470,468,468,471,480,482,482,482,482,482,482,482,482,482,482,482,482,482,482,482,482,482,482,482,482,482,482,482,482,482,482],"ymouse":[528,528,528,528,528,528,528,528,528,528,528,528,528,528,528,528,528,528,528,528,528,528,528,528,528,520,483,450,405,308,270,249,235,226,214,208,201,201,195,186,184,184,184,184,186,189,189,182,165,129,117,112,112,112,112,112,112,112,112,112,112,112,112,112,107,106,106,106,106,106,106,106,106,106,102,96],"timestamp_mouse":[13,35,47,69,88,108,129,148,168,188,208,229,248,269,288,308,328,347,368,388,409,429,448,468,488,508,527,548,568,588,608,628,648,668,688,707,727,749,767,787,808,829,848,868,888,909,928,948,969,988,1008,1029,1049,1069,1088,1109,1128,1149,1169,1189,1208,1229,1248,1269,1288,1307,1328,1348,1369,1388,1408,1429,1448,1468,1489,1508],"xSR":741.5,"ySR":469.95,"xT1":424.9,"yT1":0,"xT2":1058.1,"yT2":0,"toosoon":0,"cond_shown":"equaldotsize","ratio_trial":500,"smaller_num":"4","larger_num":"8","correct_side":1,"subjID":"santiagoandresdiazarias13","gender":"0","age":"9","school":"4"},{"start_time":1552074100976,"click_time":1552074102088,"finger_time":1552074101588,"fix_duration":1207.205554715351,"trial":18,"RT":612,"MT":500,"sideResp":2,"stimulus":"img/750/equaldotanddens/L/9_Ratio_750_L_4_R_3.png","xmouse":[793,793,793,793,793,793,793,793,793,793,793,793,793,793,793,793,793,793,793,793,793,793,793,793,793,793,793,798,800,802,802,817,836,861,886,917,955,963,965,967,968,987,998,1002,1004,1005,1005,1005,1008,1015,1024,1032,1033,1037,1057,1086],"ymouse":[520,520,520,520,520,520,520,520,520,520,520,520,520,520,520,520,520,520,520,520,520,520,520,520,520,519,514,499,487,474,461,411,370,325,278,220,167,156,151,149,148,139,131,125,117,113,110,109,109,108,104,86,81,77,77,77],"timestamp_mouse":[13,37,53,71,93,112,133,152,172,191,213,232,253,273,293,312,332,352,371,393,413,433,452,473,492,512,532,552,573,592,612,632,653,671,691,711,732,752,772,793,813,832,851,872,893,912,933,952,972,993,1012,1032,1052,1072,1092,1112],"xSR":741.5,"ySR":469.95,"xT1":424.9,"yT1":0,"xT2":1058.1,"yT2":0,"toosoon":0,"cond_shown":"equaldotanddens","ratio_trial":750,"smaller_num":"3","larger_num":"4","correct_side":1,"subjID":"santiagoandresdiazarias13","gender":"0","age":"9","school":"4"},{"start_time":1552074104540,"click_time":1552074105348,"finger_time":1552074105128,"fix_duration":1370.9620047711776,"trial":19,"RT":588,"MT":220,"sideResp":2,"stimulus":"img/900/equaldotsize/L/2_Ratio_900_L_20_R_18.png","xmouse":[780,780,780,780,780,780,780,780,780,780,780,780,780,780,780,780,780,780,780,780,780,780,780,780,780,780,780,783,791,808,833,870,908,987,1013,1051,1079,1097,1113,1113,1113],"ymouse":[493,493,493,493,493,493,493,493,493,493,493,493,493,493,493,493,493,493,493,493,493,493,493,493,493,493,493,493,479,460,432,393,350,253,225,193,165,140,106,100,98],"timestamp_mouse":[12,34,48,68,87,109,128,148,169,189,208,228,249,269,289,308,328,348,368,389,408,428,448,468,488,509,527,548,568,588,608,629,648,668,688,708,728,748,769,788,808],"xSR":741.5,"ySR":469.95,"xT1":424.9,"yT1":0,"xT2":1058.1,"yT2":0,"toosoon":0,"cond_shown":"equaldotsize","ratio_trial":900,"smaller_num":"18","larger_num":"20","correct_side":1,"subjID":"santiagoandresdiazarias13","gender":"0","age":"9","school":"4"},{"start_time":1552074109850,"click_time":1552074110950,"finger_time":1552074110509,"fix_duration":1218.0915904133508,"trial":20,"RT":659,"MT":441,"sideResp":1,"stimulus":"img/900/randomdotsizeEA/L/8_Ratio_900_L_20_R_18.png","xmouse":[770,764,764,762,762,762,762,762,762,762,762,762,762,762,762,762,762,762,762,762,762,762,762,762,762,762,762,762,762,762,762,759,756,736,712,675,645,622,531,509,500,499,499,505,515,527,537,541,542,546,549,549,547,519,502,489],"ymouse":[530,530,530,530,530,530,530,530,530,530,530,530,530,530,530,530,530,530,530,530,530,530,530,530,530,530,530,530,530,530,530,530,527,511,502,490,475,462,416,401,393,387,380,354,335,315,294,266,233,221,208,189,168,121,102,89],"timestamp_mouse":[1,31,40,60,78,100,120,139,159,179,198,220,238,259,280,299,320,338,362,379,400,419,439,458,480,498,518,540,560,579,598,618,639,659,679,699,718,739,759,778,798,820,840,860,879,899,918,939,960,978,1000,1019,1039,1059,1079,1100],"xSR":741.5,"ySR":469.95,"xT1":424.9,"yT1":0,"xT2":1058.1,"yT2":0,"toosoon":0,"cond_shown":"randomdotsizeEA","ratio_trial":900,"smaller_num":"18","larger_num":"20","correct_side":1,"subjID":"santiagoandresdiazarias13","gender":"0","age":"9","school":"4"},{"start_time":1552074115503,"click_time":1552074116569,"finger_time":1552074116269,"fix_duration":1352.6911411040367,"trial":21,"RT":766,"MT":300,"sideResp":1,"stimulus":"img/750/randomdotsizeEA/L/13_Ratio_750_L_8_R_6.png","xmouse":[797,797,797,797,797,797,797,797,797,797,797,797,797,797,797,797,797,797,797,797,797,797,797,797,797,797,797,797,797,797,797,797,797,799,805,825,832,835,836,834,794,743,672,600,552,528,528,527,525,523,513,507,502,502],"ymouse":[537,537,537,537,537,537,537,537,537,537,537,537,537,537,537,537,537,537,537,537,537,537,537,537,537,537,537,537,537,537,537,537,537,537,528,500,487,475,463,448,411,391,367,351,339,335,335,333,328,310,236,185,128,77],"timestamp_mouse":[10,39,46,67,86,107,126,146,165,185,205,226,245,266,286,306,326,346,366,387,406,425,445,466,485,507,526,547,565,585,605,627,646,666,687,706,726,746,766,787,805,826,846,865,885,906,925,946,966,985,1006,1026,1047,1066],"xSR":741.5,"ySR":469.95,"xT1":424.9,"yT1":0,"xT2":1058.1,"yT2":0,"toosoon":0,"cond_shown":"randomdotsizeEA","ratio_trial":750,"smaller_num":"6","larger_num":"8","correct_side":1,"subjID":"santiagoandresdiazarias13","gender":"0","age":"9","school":"4"},{"start_time":1552074120008,"click_time":1552074121030,"finger_time":1552074120448,"fix_duration":658.8901539884583,"trial":22,"RT":440,"MT":582,"sideResp":1,"stimulus":"img/500/equaldotsize/R/15_Ratio_500_L_1_R_2.png","xmouse":[795,795,795,795,795,795,795,795,795,795,795,795,795,795,795,795,795,795,795,795,797,799,807,817,832,868,886,907,927,945,979,987,987,985,974,919,862,773,694,620,564,563,563,558,555,555,555,554,552,547,530,514],"ymouse":[483,483,483,483,483,483,483,483,483,483,483,483,483,483,483,483,483,483,483,483,481,475,463,449,430,386,365,339,315,292,238,217,205,194,181,162,154,134,117,107,97,97,97,96,96,96,96,95,95,95,93,93],"timestamp_mouse":[17,20,43,60,80,101,121,142,160,180,202,221,240,262,282,301,321,340,360,380,401,421,440,460,480,501,520,540,561,581,601,621,641,660,680,701,720,741,762,781,801,821,841,862,881,901,920,941,961,981,1000,1022],"xSR":741.5,"ySR":469.95,"xT1":424.9,"yT1":0,"xT2":1058.1,"yT2":0,"toosoon":0,"cond_shown":"equaldotsize","ratio_trial":500,"smaller_num":"1","larger_num":"2","correct_side":2,"subjID":"santiagoandresdiazarias13","gender":"0","age":"9","school":"4"},{"start_time":1552074126659,"click_time":1552074127490,"finger_time":1552074127308,"fix_duration":948.395852041351,"trial":23,"RT":649,"MT":182,"sideResp":2,"stimulus":"img/250/equaldotanddens/R/11_Ratio_250_L_3_R_12.png","xmouse":[777,778,778,780,781,781,782,782,782,782,782,782,782,782,782,782,782,782,784,785,785,785,785,785,785,785,785,785,785,786,788,791,808,830,856,897,942,1016,1036,1052,1060,1062],"ymouse":[511,511,513,517,519,520,521,521,521,521,521,521,521,521,521,521,521,521,521,519,519,519,519,519,519,519,519,519,519,517,514,501,445,387,325,263,207,136,119,107,101,99],"timestamp_mouse":[10,30,50,70,90,110,129,151,171,189,209,230,251,269,290,310,329,350,371,390,410,431,451,471,490,510,531,551,570,590,610,629,649,669,690,710,730,750,770,789,809,831],"xSR":741.5,"ySR":469.95,"xT1":424.9,"yT1":0,"xT2":1058.1,"yT2":0,"toosoon":0,"cond_shown":"equaldotanddens","ratio_trial":250,"smaller_num":"3","larger_num":"12","correct_side":2,"subjID":"santiagoandresdiazarias13","gender":"0","age":"9","school":"4"},{"start_time":1552074129654,"click_time":1552074132489,"finger_time":1552074130570,"fix_duration":843.5661756968993,"trial":24,"RT":916,"MT":1919,"sideResp":1,"stimulus":"img/250/equaldotsize/L/5_Ratio_250_L_24_R_6.png","xmouse":[768,768,768,768,768,768,768,768,768,768,768,768,768,768,768,768,768,768,768,768,768,768,768,768,768,768,768,768,768,768,768,768,768,768,768,768,768,768,768,768,768,768,768,798,839,915,1004,1170,1240,1328,1399,1451,1490,1489,1467,1435,1400,1361,1359,1358,1358,1358,1363,1371,1378,1386,1391,1392,1392,1392,1392,1391,1386,1388,1417,1466,1505,1542,1542,1537,1529,1520,1508,1481,1464,1449,1427,1311,1261,1217,1169,1138,1117,1071,1050,1028,1002,941,913,912,910,908,900,894,879,861,861,837,798,776,764,758,740,725,714,708,696,678,675,673,667,659,625,610,597,586,577,554,550,548,546,546,546,546,546,546,546,546,546,541,527,509],"ymouse":[542,542,542,542,542,542,542,542,542,542,542,542,542,542,542,542,542,542,542,542,542,542,542,542,542,542,542,542,542,542,542,542,542,542,542,542,542,542,542,542,542,542,542,542,542,533,521,473,440,389,339,290,234,203,166,137,122,120,120,120,120,120,135,152,170,185,190,190,190,190,190,190,186,180,172,165,164,183,195,205,209,209,209,204,202,200,197,181,174,160,148,138,134,126,123,118,111,96,91,91,91,90,89,89,86,83,83,79,74,71,69,69,65,63,61,61,60,58,56,56,56,55,55,55,55,53,51,48,48,48,47,47,47,47,47,47,47,47,47,47,47,47],"timestamp_mouse":[15,38,55,76,95,116,134,154,175,194,216,234,254,276,294,316,336,356,374,396,416,435,455,476,494,514,535,555,575,595,615,636,654,675,695,716,736,755,775,796,815,836,854,875,895,916,935,955,975,994,1015,1034,1055,1074,1094,1115,1136,1155,1175,1196,1215,1234,1255,1275,1296,1316,1335,1356,1375,1395,1414,1436,1456,1474,1494,1514,1534,1555,1576,1594,1615,1636,1655,1675,1694,1714,1734,1755,1776,1795,1816,1835,1855,1876,1895,1915,1936,1955,1975,1994,2015,2036,2055,2074,2094,2122,2134,2155,2174,2195,2215,2236,2255,2275,2296,2316,2336,2355,2375,2396,2416,2436,2455,2476,2496,2516,2535,2555,2576,2595,2616,2635,2656,2675,2695,2715,2735,2755,2776,2796,2815,2835],"xSR":741.5,"ySR":469.95,"xT1":424.9,"yT1":0,"xT2":1058.1,"yT2":0,"toosoon":0,"cond_shown":"equaldotsize","ratio_trial":250,"smaller_num":"6","larger_num":"24","correct_side":1,"subjID":"santiagoandresdiazarias13","gender":"0","age":"9","school":"4"},{"start_time":1552074138417,"click_time":1552074140010,"finger_time":1552074139408,"fix_duration":407.69352094377456,"trial":25,"RT":991,"MT":602,"sideResp":1,"stimulus":"img/500/randomdotsizeEA/R/3_Ratio_500_L_10_R_20.png","xmouse":[785,785,785,785,785,785,785,785,785,785,785,785,785,785,785,785,785,785,785,785,785,785,785,785,785,785,785,785,785,785,785,785,785,785,785,785,785,785,785,785,785,785,785,785,785,785,785,785,785,771,763,751,736,728,724,723,721,716,710,694,691,684,680,675,659,650,643,634,621,594,583,572,564,557,545,542,536,532,527,518],"ymouse":[501,501,501,501,501,501,501,501,501,501,501,501,501,501,501,501,501,501,501,501,501,501,501,501,501,501,501,501,501,501,501,501,501,501,501,501,501,501,501,501,501,501,501,501,501,501,501,501,494,398,355,319,291,276,272,272,272,271,270,235,215,190,171,158,143,140,138,134,127,101,92,87,84,83,80,79,78,78,76,75],"timestamp_mouse":[13,38,53,73,91,112,131,153,172,193,213,232,253,272,291,313,332,352,372,391,411,432,453,472,492,511,532,553,573,592,611,632,652,672,692,712,733,753,772,792,813,831,853,873,891,911,932,951,972,991,1011,1032,1053,1073,1091,1111,1132,1152,1172,1193,1212,1231,1251,1273,1292,1311,1332,1351,1372,1392,1411,1431,1453,1472,1491,1513,1532,1552,1572,1593],"xSR":741.5,"ySR":469.95,"xT1":424.9,"yT1":0,"xT2":1058.1,"yT2":0,"toosoon":0,"cond_shown":"randomdotsizeEA","ratio_trial":500,"smaller_num":"10","larger_num":"20","correct_side":2,"subjID":"santiagoandresdiazarias13","gender":"0","age":"9","school":"4"},{"start_time":1552074144244,"click_time":1552074144909,"finger_time":1552074144609,"fix_duration":773.0492004749573,"trial":26,"RT":365,"MT":300,"sideResp":2,"stimulus":"img/500/equaldotanddens/R/9_Ratio_500_L_2_R_4.png","xmouse":[822,822,822,822,822,822,822,822,822,822,822,822,822,822,822,822,821,841,907,925,935,944,950,978,991,1001,1006,1008,1023,1039,1062,1090,1105,1113],"ymouse":[500,500,500,500,500,500,500,500,500,500,500,500,500,500,500,500,499,482,428,407,388,375,364,337,328,321,317,314,294,273,240,197,132,85],"timestamp_mouse":[13,37,45,65,85,106,125,144,164,185,204,225,244,264,285,305,325,345,365,385,405,426,445,465,484,505,524,545,565,585,605,625,646,665],"xSR":741.5,"ySR":469.95,"xT1":424.9,"yT1":0,"xT2":1058.1,"yT2":0,"toosoon":0,"cond_shown":"equaldotanddens","ratio_trial":500,"smaller_num":"2","larger_num":"4","correct_side":2,"subjID":"santiagoandresdiazarias13","gender":"0","age":"9","school":"4"},{"start_time":1552074148752,"click_time":1552074149788,"finger_time":1552074149589,"fix_duration":1140.2490497038068,"trial":27,"RT":837,"MT":199,"sideResp":1,"stimulus":"img/750/equaldotsize/L/6_Ratio_750_L_24_R_18.png","xmouse":[789,789,789,789,789,789,789,789,789,789,789,789,789,789,789,789,789,789,789,789,789,789,789,789,789,789,789,789,789,789,789,789,789,789,789,789,789,789,789,786,780,750,683,635,578,539,531,530,531,531,528,521],"ymouse":[519,519,519,519,519,519,519,519,519,519,519,519,519,519,519,519,519,519,519,519,519,519,519,519,519,519,519,519,519,519,519,519,519,519,519,519,519,519,519,511,500,448,335,265,161,99,88,85,85,85,83,80],"timestamp_mouse":[17,36,58,77,98,117,137,158,177,198,216,237,258,277,297,317,337,358,376,397,416,438,458,478,498,517,537,558,577,597,617,636,657,676,696,718,737,758,776,796,816,837,857,877,897,917,937,957,978,996,1017,1036],"xSR":741.5,"ySR":469.95,"xT1":424.9,"yT1":0,"xT2":1058.1,"yT2":0,"toosoon":0,"cond_shown":"equaldotsize","ratio_trial":750,"smaller_num":"18","larger_num":"24","correct_side":1,"subjID":"santiagoandresdiazarias13","gender":"0","age":"9","school":"4"},{"start_time":1552074154621,"click_time":1552074155829,"finger_time":1552074155349,"fix_duration":589.9758748958816,"trial":28,"RT":728,"MT":480,"sideResp":2,"stimulus":"img/750/randomdotsizeEA/R/12_Ratio_750_L_3_R_4.png","xmouse":[823,823,823,823,823,823,823,823,823,823,823,823,823,823,823,823,823,823,823,823,823,823,823,823,823,823,823,823,823,823,823,823,823,823,829,836,848,866,886,934,947,957,962,967,984,992,1003,1013,1019,1031,1034,1041,1046,1050,1058,1060,1061,1062,1064,1069,1069],"ymouse":[500,500,500,500,500,500,500,500,500,500,500,500,500,500,500,500,500,500,500,500,500,500,500,500,500,500,500,500,500,500,500,500,500,498,486,471,451,430,409,376,369,362,356,350,329,317,299,282,266,233,216,199,177,163,144,140,135,131,119,104,99],"timestamp_mouse":[13,43,48,67,87,107,128,149,167,188,208,227,247,267,289,309,328,348,367,387,408,428,449,468,489,508,528,547,569,589,609,629,648,667,688,707,728,749,768,789,809,828,848,869,889,907,928,948,968,989,1008,1029,1048,1068,1088,1107,1128,1149,1167,1188,1208],"xSR":741.5,"ySR":469.95,"xT1":424.9,"yT1":0,"xT2":1058.1,"yT2":0,"toosoon":0,"cond_shown":"randomdotsizeEA","ratio_trial":750,"smaller_num":"3","larger_num":"4","correct_side":2,"subjID":"santiagoandresdiazarias13","gender":"0","age":"9","school":"4"},{"start_time":1552074170392,"click_time":1552074171329,"finger_time":1552074170909,"fix_duration":1401.2364237006857,"trial":29,"RT":517,"MT":420,"sideResp":2,"stimulus":"img/750/equaldotanddens/R/7_Ratio_750_L_3_R_4.png","xmouse":[772,772,772,772,772,772,774,775,775,775,775,776,780,781,781,781,781,781,781,781,781,781,782,787,803,857,892,938,987,1030,1122,1140,1146,1154,1161,1165,1168,1171,1174,1175,1176,1165,1152,1137,1126,1110,1105],"ymouse":[529,529,529,529,529,529,529,530,530,530,530,530,530,530,530,530,530,530,530,530,530,530,528,525,514,489,473,453,418,384,310,292,284,276,269,258,251,245,237,230,218,202,192,180,160,105,78],"timestamp_mouse":[17,38,57,78,97,117,137,157,178,198,217,238,258,277,299,317,338,357,379,397,418,437,457,477,497,517,538,558,577,599,617,637,657,678,698,718,738,758,777,797,818,837,858,878,898,917,937],"xSR":741.5,"ySR":469.95,"xT1":424.9,"yT1":0,"xT2":1058.1,"yT2":0,"toosoon":0,"cond_shown":"equaldotanddens","ratio_trial":750,"smaller_num":"3","larger_num":"4","correct_side":2,"subjID":"santiagoandresdiazarias13","gender":"0","age":"9","school":"4"},{"start_time":1552074173681,"click_time":1552074174570,"finger_time":1552074174169,"fix_duration":1208.8581293917132,"trial":30,"RT":488,"MT":401,"sideResp":2,"stimulus":"img/500/equaldotsize/L/7_Ratio_500_L_10_R_5.png","xmouse":[760,760,760,760,760,760,760,760,761,761,761,763,765,770,773,775,776,778,779,781,784,790,803,823,854,884,928,1005,1038,1057,1069,1079,1082,1084,1087,1089,1098,1102,1107,1111,1113,1114,1115,1115,1115],"ymouse":[520,520,520,520,520,520,520,520,520,520,520,520,520,518,517,516,516,515,514,514,513,510,506,499,489,475,446,365,306,255,235,206,196,183,171,162,139,128,115,108,103,102,101,101,99],"timestamp_mouse":[11,44,49,69,88,108,129,149,168,189,208,228,248,269,290,308,330,349,369,388,408,428,448,468,488,509,529,549,569,588,610,629,648,668,688,708,728,748,769,788,810,828,848,868,889],"xSR":741.5,"ySR":469.95,"xT1":424.9,"yT1":0,"xT2":1058.1,"yT2":0,"toosoon":0,"cond_shown":"equaldotsize","ratio_trial":500,"smaller_num":"5","larger_num":"10","correct_side":1,"subjID":"santiagoandresdiazarias13","gender":"0","age":"9","school":"4"},{"start_time":1552074188412,"click_time":1552074189110,"finger_time":1552074188889,"fix_duration":961.0758545764992,"trial":31,"RT":477,"MT":221,"sideResp":2,"stimulus":"img/250/equaldotsize/L/2_Ratio_250_L_16_R_4.png","xmouse":[800,800,800,800,799,797,795,793,792,796,798,798,798,798,798,798,798,798,798,798,798,798,786,777,759,757,755,755,756,761,771,792,843,923,1146],"ymouse":[506,506,506,506,504,499,494,490,486,481,480,480,480,480,480,480,480,480,480,480,480,480,473,467,456,454,451,448,443,426,408,378,326,259,99],"timestamp_mouse":[36,37,57,77,98,119,137,158,178,197,218,237,257,277,297,317,338,359,378,398,418,438,458,477,497,517,537,557,577,597,617,637,657,678,698],"xSR":741.5,"ySR":469.95,"xT1":424.9,"yT1":0,"xT2":1058.1,"yT2":0,"toosoon":0,"cond_shown":"equaldotsize","ratio_trial":250,"smaller_num":"4","larger_num":"16","correct_side":1,"subjID":"santiagoandresdiazarias13","gender":"0","age":"9","school":"4"},{"start_time":1552074194165,"click_time":1552074195010,"finger_time":1552074194689,"fix_duration":1131.0828212216202,"trial":32,"RT":524,"MT":321,"sideResp":2,"stimulus":"img/500/randomdotsizeEA/L/5_Ratio_500_L_4_R_2.png","xmouse":[808,808,808,808,808,808,808,808,808,808,808,808,808,808,808,808,808,808,808,808,808,807,807,804,788,764,735,731,730,730,730,744,777,816,841,857,872,874,878,885,923,1068],"ymouse":[510,510,510,510,510,510,510,510,510,510,510,510,510,510,510,510,510,510,510,510,509,509,509,507,485,450,402,390,385,385,385,364,319,273,246,230,209,203,196,180,144,58],"timestamp_mouse":[19,46,66,84,104,124,145,164,184,205,224,244,265,284,304,324,345,365,385,405,424,445,465,484,505,524,545,564,584,605,625,645,665,685,705,724,745,764,784,806,824,844],"xSR":741.5,"ySR":469.95,"xT1":424.9,"yT1":0,"xT2":1058.1,"yT2":0,"toosoon":0,"cond_shown":"randomdotsizeEA","ratio_trial":500,"smaller_num":"2","larger_num":"4","correct_side":1,"subjID":"santiagoandresdiazarias13","gender":"0","age":"9","school":"4"},{"start_time":1552074198345,"click_time":1552074199470,"finger_time":1552074199051,"fix_duration":813.5494670790576,"trial":33,"RT":706,"MT":419,"sideResp":1,"stimulus":"img/750/equaldotsize/L/13_Ratio_750_L_8_R_6.png","xmouse":[798,798,798,798,798,798,798,798,798,798,798,798,798,798,798,798,798,798,798,798,798,798,798,798,798,798,798,798,798,798,798,798,798,792,780,757,730,694,592,541,496,465,441,409,396,382,372,371,371,371,371,371,371,382,393,414,434],"ymouse":[511,511,511,511,511,511,511,511,511,511,511,511,511,511,511,511,511,511,511,511,511,511,511,511,511,511,511,511,511,511,511,511,511,496,470,433,392,351,267,220,176,134,101,66,61,57,55,55,55,55,55,55,55,55,56,60,62],"timestamp_mouse":[12,33,45,64,85,105,125,145,164,185,204,226,245,265,285,304,325,344,365,385,405,424,445,465,484,505,525,544,565,585,604,625,645,664,684,706,724,745,764,784,804,824,845,865,886,904,925,944,965,985,1005,1024,1045,1065,1084,1105,1125],"xSR":741.5,"ySR":469.95,"xT1":424.9,"yT1":0,"xT2":1058.1,"yT2":0,"toosoon":0,"cond_shown":"equaldotsize","ratio_trial":750,"smaller_num":"6","larger_num":"8","correct_side":1,"subjID":"santiagoandresdiazarias13","gender":"0","age":"9","school":"4"},{"start_time":1552074204783,"click_time":1552074205810,"finger_time":1552074205489,"fix_duration":1071.010950825628,"trial":34,"RT":706,"MT":321,"sideResp":1,"stimulus":"img/250/randomdotsizeEA/L/14_Ratio_250_L_12_R_3.png","xmouse":[781,781,781,781,781,781,781,781,781,781,781,781,781,781,781,781,781,781,781,781,781,781,781,781,781,781,781,781,781,781,781,781,781,794,822,887,1031,1048,1054,1055,1052,999,958,908,842,780,706,594,567,553,537,504],"ymouse":[535,535,535,535,535,535,535,535,535,535,535,535,535,535,535,535,535,535,535,535,535,535,535,535,535,535,535,535,535,535,535,535,526,506,472,429,373,362,351,335,321,275,255,236,217,198,175,143,134,125,114,99],"timestamp_mouse":[9,44,48,67,86,106,126,146,167,186,206,226,246,267,287,306,326,346,366,387,407,426,446,467,488,507,526,546,567,587,607,627,647,667,686,706,726,746,766,786,806,827,846,866,888,906,926,946,966,986,1006,1027],"xSR":741.5,"ySR":469.95,"xT1":424.9,"yT1":0,"xT2":1058.1,"yT2":0,"toosoon":0,"cond_shown":"randomdotsizeEA","ratio_trial":250,"smaller_num":"3","larger_num":"12","correct_side":1,"subjID":"santiagoandresdiazarias13","gender":"0","age":"9","school":"4"},{"start_time":1552074207042,"click_time":1552074208629,"finger_time":1552074207690,"fix_duration":250,"trial":35,"RT":648,"MT":939,"sideResp":2,"stimulus":"img/750/randomdotsizeEA/L/8_Ratio_750_L_4_R_3.png","xmouse":[779,775,775,771,770,769,769,769,769,769,769,769,769,769,769,769,769,769,769,769,768,767,767,767,767,767,767,767,767,763,757,750,741,729,725,724,723,723,723,724,730,739,751,765,805,833,864,916,916,916,916,916,916,916,916,916,916,916,916,916,916,916,916,916,916,916,916,1238,1228,1202,1196,1195,1195,1195,1195,1195,1194,1194,1161,1139],"ymouse":[554,551,551,543,539,536,536,536,536,536,536,536,536,536,536,536,536,536,535,535,530,529,529,529,529,529,529,529,526,515,504,488,468,441,432,425,418,409,396,389,377,365,350,334,266,199,126,9,9,9,9,9,9,9,9,9,9,9,9,9,9,9,9,9,9,9,9,1,17,48,56,59,59,59,59,59,60,60,69,72],"timestamp_mouse":[10,36,47,67,88,107,128,148,167,188,208,227,247,267,287,307,328,347,367,387,407,428,449,467,488,507,528,547,567,587,607,628,648,667,687,708,727,747,767,787,807,827,847,868,888,907,927,948,967,987,1007,1027,1048,1068,1087,1108,1127,1148,1167,1187,1208,1228,1248,1268,1287,1307,1328,1347,1367,1388,1407,1427,1448,1468,1487,1508,1527,1548,1567,1587],"xSR":741.5,"ySR":469.95,"xT1":424.9,"yT1":0,"xT2":1058.1,"yT2":0,"toosoon":0,"cond_shown":"randomdotsizeEA","ratio_trial":750,"smaller_num":"3","larger_num":"4","correct_side":1,"subjID":"santiagoandresdiazarias13","gender":"0","age":"9","school":"4"},{"start_time":1552074233983,"click_time":1552074235510,"finger_time":1552074234771,"fix_duration":250,"trial":36,"RT":788,"MT":739,"sideResp":1,"stimulus":"img/500/equaldotsize/L/4_Ratio_500_L_18_R_9.png","xmouse":[762,762,762,762,762,762,762,762,762,762,762,762,762,762,762,762,762,762,762,762,762,762,762,762,762,762,762,762,762,762,762,762,762,762,762,762,762,757,749,740,729,718,712,703,696,692,685,680,677,674,667,655,651,647,643,638,624,619,613,607,599,592,582,576,567,554,537,531,529,528,527,526,526,526,526,526,523],"ymouse":[501,501,501,501,501,501,501,501,501,501,501,501,501,501,501,501,501,501,501,501,501,501,501,501,501,501,501,501,501,501,501,501,501,501,501,501,501,493,476,458,431,414,409,401,395,390,384,378,374,369,357,335,325,313,299,279,236,219,202,187,169,149,134,128,123,115,97,89,87,87,87,87,87,87,87,87,87],"timestamp_mouse":[9,32,48,66,87,108,128,148,167,187,208,227,246,266,288,307,327,347,367,388,406,428,447,468,488,507,527,547,567,587,607,628,647,667,688,707,727,748,768,788,808,827,846,867,887,908,927,947,966,986,1007,1027,1046,1066,1087,1108,1126,1146,1166,1187,1206,1227,1247,1267,1287,1308,1326,1346,1367,1387,1407,1427,1447,1467,1487,1508,1527],"xSR":741.5,"ySR":469.95,"xT1":424.9,"yT1":0,"xT2":1058.1,"yT2":0,"toosoon":0,"cond_shown":"equaldotsize","ratio_trial":500,"smaller_num":"9","larger_num":"18","correct_side":1,"subjID":"santiagoandresdiazarias13","gender":"0","age":"9","school":"4"},{"start_time":1552074237748,"click_time":1552074238610,"finger_time":1552074238331,"fix_duration":1017.2166220687723,"trial":37,"RT":583,"MT":279,"sideResp":1,"stimulus":"img/500/equaldotsize/L/13_Ratio_500_L_12_R_6.png","xmouse":[821,821,821,821,821,821,821,821,821,821,821,821,821,821,821,821,821,821,821,821,821,821,821,821,821,811,805,790,769,763,755,745,729,660,631,603,587,572,543,527,510,494,478,441],"ymouse":[555,555,555,555,555,555,555,555,555,555,555,555,555,555,555,555,555,555,555,555,555,555,555,555,555,542,533,514,481,464,446,428,400,307,277,248,231,213,178,161,141,123,107,70],"timestamp_mouse":[20,22,46,61,82,102,123,142,162,181,202,222,241,262,281,301,323,343,361,383,401,422,442,462,483,502,522,541,562,583,602,621,642,661,681,702,722,743,762,782,803,823,843,862],"xSR":741.5,"ySR":469.95,"xT1":424.9,"yT1":0,"xT2":1058.1,"yT2":0,"toosoon":0,"cond_shown":"equaldotsize","ratio_trial":500,"smaller_num":"6","larger_num":"12","correct_side":1,"subjID":"santiagoandresdiazarias13","gender":"0","age":"9","school":"4"},{"start_time":1552074250694,"click_time":1552074252091,"finger_time":1552074251010,"fix_duration":362.2377881592168,"trial":38,"RT":316,"MT":1081,"sideResp":2,"stimulus":"img/250/equaldotsize/R/9_Ratio_250_L_3_R_12.png","xmouse":[774,774,774,774,774,774,774,774,774,774,774,774,774,779,798,904,929,935,935,934,941,1050,1142,1233,1336,1432,1432,1432,1432,1432,1432,1432,1432,1432,1432,1432,1432,1432,1432,1432,1432,1432,1432,1432,1432,1432,1432,1432,1432,1432,1432,1432,1432,1432,1432,1432,1432,1432,1432,1432,1432,1432,1432,1432,1432,1432,1432,1432,1432,1131],"ymouse":[471,471,471,471,471,471,471,471,471,471,471,471,471,471,470,416,382,354,324,298,274,180,125,84,40,0,0,0,0,0,0,0,0,0,0,0,0,0,0,0,0,0,0,0,0,0,0,0,0,0,0,0,0,0,0,0,0,0,0,0,0,0,0,0,0,0,0,0,0,8],"timestamp_mouse":[15,44,55,76,97,117,136,155,176,197,216,237,255,275,295,316,335,356,377,396,416,437,457,477,497,517,536,556,577,597,616,636,656,676,697,717,737,757,776,796,817,835,856,876,896,915,936,956,976,995,1015,1036,1057,1076,1097,1116,1136,1156,1176,1197,1216,1237,1256,1277,1296,1317,1336,1355,1377,1396],"xSR":741.5,"ySR":469.95,"xT1":424.9,"yT1":0,"xT2":1058.1,"yT2":0,"toosoon":0,"cond_shown":"equaldotsize","ratio_trial":250,"smaller_num":"3","larger_num":"12","correct_side":2,"subjID":"santiagoandresdiazarias13","gender":"0","age":"9","school":"4"},{"start_time":1552074254764,"click_time":1552074256191,"finger_time":1552074255509,"fix_duration":1133.6084417101843,"trial":39,"RT":745,"MT":682,"sideResp":1,"stimulus":"img/250/randomdotsizeEA/L/1_Ratio_250_L_8_R_2.png","xmouse":[774,774,774,774,774,774,774,774,774,774,774,774,774,774,774,774,774,774,774,774,774,778,794,796,799,803,804,804,804,804,804,804,802,797,792,781,768,731,705,674,642,593,553,467,405,335,249,249,249,249,249,249,249,249,249,209,325,522,547,548,549,522,459,428,408,398,395,424,462,485,498,504],"ymouse":[550,550,550,550,550,550,550,550,550,550,550,550,550,550,550,550,550,550,550,550,550,550,547,547,546,544,543,543,543,543,541,539,512,507,501,491,482,475,475,475,475,465,450,393,318,210,52,52,52,52,52,52,52,52,52,101,207,338,349,350,349,325,288,278,271,267,262,206,158,125,101,89],"timestamp_mouse":[13,26,45,67,86,107,126,147,167,187,205,226,246,266,285,306,325,345,367,387,405,426,446,466,485,507,527,546,567,586,606,626,646,667,686,706,727,745,767,785,805,827,846,866,886,906,926,946,966,986,1007,1026,1046,1066,1086,1106,1126,1145,1166,1187,1206,1226,1246,1266,1287,1305,1326,1346,1367,1387,1406,1427],"xSR":741.5,"ySR":469.95,"xT1":424.9,"yT1":0,"xT2":1058.1,"yT2":0,"toosoon":0,"cond_shown":"randomdotsizeEA","ratio_trial":250,"smaller_num":"2","larger_num":"8","correct_side":1,"subjID":"santiagoandresdiazarias13","gender":"0","age":"9","school":"4"},{"start_time":1552074258882,"click_time":1552074260610,"finger_time":1552074259110,"fix_duration":250,"trial":40,"RT":228,"MT":1500,"sideResp":1,"stimulus":"img/750/equaldotanddens/L/8_Ratio_750_L_4_R_3.png","xmouse":[813,813,813,813,813,813,813,813,813,813,814,850,901,901,901,901,901,901,901,901,901,901,901,901,901,901,901,901,901,901,901,901,901,901,901,901,901,901,901,901,901,901,901,901,901,901,901,901,901,901,901,901,901,901,901,901,901,901,901,901,901,901,901,901,901,889,699,618,601,612,644,702,720,731,742,756,771,772,772,772,772,764,731,676,617,557,462],"ymouse":[499,499,499,499,499,499,499,499,499,499,500,512,525,525,525,525,525,525,525,525,525,525,525,525,525,525,525,525,525,525,525,525,525,525,525,525,525,525,525,525,525,525,525,525,525,525,525,525,525,525,525,525,525,525,525,525,525,525,525,525,525,525,525,525,525,523,466,400,349,305,250,151,115,89,69,46,28,28,28,28,28,28,28,28,28,28,20],"timestamp_mouse":[10,40,48,68,88,109,127,148,169,187,208,228,248,267,288,307,329,348,369,388,407,427,449,468,489,508,528,549,568,588,608,627,648,668,688,709,727,748,768,788,807,828,849,868,889,908,928,948,968,989,1009,1028,1048,1068,1089,1107,1128,1148,1167,1188,1207,1229,1248,1268,1288,1307,1328,1349,1368,1388,1408,1427,1447,1468,1489,1508,1528,1549,1569,1588,1608,1628,1647,1669,1689,1708,1728],"xSR":741.5,"ySR":469.95,"xT1":424.9,"yT1":0,"xT2":1058.1,"yT2":0,"toosoon":0,"cond_shown":"equaldotanddens","ratio_trial":750,"smaller_num":"3","larger_num":"4","correct_side":1,"subjID":"santiagoandresdiazarias13","gender":"0","age":"9","school":"4"},{"start_time":1552074317901,"click_time":1552074322951,"finger_time":1552074318210,"fix_duration":307.1016844677331,"trial":41,"RT":309,"MT":4741,"sideResp":2,"stimulus":"img/250/equaldotsize/R/10_Ratio_250_L_4_R_16.png","xmouse":[773,773,773,773,773,773,773,773,773,773,773,773,773,773,769,754,743,731,721,714,707,707,707,718,722,736,738,740,741,742,742,742,742,742,742,742,742,742,742,742,742,742,742,742,742,742,742,742,742,742,742,742,742,742,742,742,742,742,742,742,742,742,742,742,742,742,742,742,742,742,742,742,742,742,742,742,742,742,744,750,759,762,765,765,765,765,765,764,761,760,760,760,759,759,760,775,775,773,769,760,748,748,748,748,748,748,748,748,748,748,748,748,748,748,748,748,748,748,748,748,748,748,748,749,752,759,763,767,769,773,774,774,774,774,774,774,774,774,774,774,774,774,774,774,774,774,776,778,778,779,782,785,788,790,790,790,790,790,790,790,790,790,790,789,788,788,788,788,788,788,785,779,771,765,759,758,758,758,758,758,758,758,758,758,758,757,760,763,766,767,769,770,771,771,772,772,772,772,773,775,776,776,776,777,778,780,785,787,790,793,796,798,798,798,798,799,799,799,799,795,793,796,808,823,840,844,844,844,845,857,904,929,941,945,951,999,1013,1021,1021,1022,1009,989,987,986,986,1005,1021,1033,1039,1044,1053,1057,1059],"ymouse":[498,498,498,498,498,498,498,498,498,498,498,498,498,488,470,419,381,342,311,287,249,229,209,180,170,132,119,108,100,94,92,91,91,91,91,91,91,91,91,91,91,91,91,91,91,91,91,91,91,91,91,91,91,91,91,91,91,91,91,91,91,91,91,91,91,91,91,91,91,91,91,91,91,91,91,91,91,109,125,143,175,190,213,241,272,373,401,417,423,425,425,428,437,451,481,558,562,565,566,564,556,556,556,556,556,556,556,556,556,556,556,556,556,556,556,556,556,556,556,556,556,556,553,550,543,529,521,516,509,504,499,499,499,499,499,499,499,499,499,499,499,499,499,499,499,499,499,500,501,501,502,503,504,504,504,504,504,504,504,509,517,523,528,532,535,537,538,538,538,538,533,519,500,484,467,458,458,458,458,458,458,458,458,458,458,457,463,467,472,473,477,481,485,490,495,495,495,491,486,475,450,438,424,414,404,396,388,384,380,378,374,370,368,367,367,367,367,367,365,347,300,268,227,196,166,159,159,159,159,159,147,139,135,134,132,129,124,122,121,120,114,111,111,110,110,95,81,69,63,61,59,58,58],"timestamp_mouse":[9,37,48,70,90,110,129,148,169,188,210,228,248,270,289,309,328,349,369,388,408,429,449,468,488,508,530,548,569,589,609,628,648,669,689,709,730,749,770,789,809,829,848,868,889,908,929,948,969,990,1008,1028,1048,1069,1088,1109,1130,1149,1169,1189,1208,1229,1249,1270,1288,1309,1329,1350,1369,1388,1409,1429,1449,1468,1489,1508,1529,1549,1568,1590,1608,1629,1650,1669,1690,1709,1728,1748,1769,1788,1808,1828,1849,1869,1888,1908,1928,1949,1969,1988,2009,2029,2049,2069,2089,2109,2128,2148,2170,2189,2209,2229,2248,2268,2288,2310,2329,2349,2368,2390,2409,2429,2449,2468,2488,2509,2528,2548,2569,2589,2609,2629,2650,2669,2689,2708,2729,2750,2769,2789,2809,2829,2849,2868,2888,2909,2929,2949,2968,2989,3009,3029,3048,3069,3090,3108,3128,3149,3169,3190,3209,3229,3248,3270,3289,3309,3330,3349,3369,3388,3409,3430,3449,3469,3490,3508,3528,3549,3568,3588,3609,3629,3649,3668,3689,3708,3728,3750,3769,3788,3808,3830,3849,3869,3888,3909,3928,3949,3970,3990,4008,4029,4048,4068,4089,4109,4129,4150,4169,4189,4208,4228,4248,4269,4290,4310,4329,4350,4369,4388,4409,4429,4448,4470,4489,4508,4528,4549,4569,4588,4609,4628,4649,4670,4689,4709,4728,4748,4769,4788,4808,4830,4850,4870,4888,4909,4928,4949,4969,4988,5009,5029,5049],"xSR":741.5,"ySR":469.95,"xT1":424.9,"yT1":0,"xT2":1058.1,"yT2":0,"toosoon":0,"cond_shown":"equaldotsize","ratio_trial":250,"smaller_num":"4","larger_num":"16","correct_side":2,"subjID":"santiagoandresdiazarias13","gender":"0","age":"9","school":"4"},{"start_time":1552074326485,"click_time":1552074328110,"finger_time":1552074327089,"fix_duration":913.1867974011515,"trial":42,"RT":604,"MT":1021,"sideResp":1,"stimulus":"img/750/randomdotsizeEA/L/6_Ratio_750_L_24_R_18.png","xmouse":[798,798,798,798,798,798,798,798,798,798,798,798,798,798,798,798,798,798,798,798,798,798,798,798,798,798,799,803,808,816,825,845,856,866,875,896,927,934,943,954,963,985,996,1003,1012,1028,1037,1037,1037,1037,1038,922,838,763,736,728,727,721,717,707,688,665,660,654,647,632,551,545,545,545,550,559,561,561,561,563,564,564,564,564,559,494],"ymouse":[539,536,533,533,533,533,533,533,533,533,533,533,533,533,533,533,533,533,533,533,533,533,533,533,533,533,529,516,497,474,448,374,336,290,266,236,198,184,164,145,131,109,101,95,91,85,80,80,80,80,80,66,55,48,48,48,48,47,47,46,43,41,41,40,39,38,32,32,32,32,32,32,32,32,32,32,32,32,32,32,31,24],"timestamp_mouse":[5,25,50,64,86,104,125,144,164,185,204,224,244,266,286,305,325,345,364,384,406,425,445,466,484,504,524,544,566,584,604,624,644,665,684,705,725,744,765,785,806,826,846,866,884,905,925,945,965,986,1005,1026,1045,1064,1085,1104,1125,1145,1165,1185,1204,1225,1244,1265,1285,1305,1325,1344,1365,1384,1404,1425,1444,1465,1486,1506,1525,1545,1564,1584,1604,1625],"xSR":741.5,"ySR":469.95,"xT1":424.9,"yT1":0,"xT2":1058.1,"yT2":0,"toosoon":0,"cond_shown":"randomdotsizeEA","ratio_trial":750,"smaller_num":"18","larger_num":"24","correct_side":1,"subjID":"santiagoandresdiazarias13","gender":"0","age":"9","school":"4"},{"start_time":1552074331556,"click_time":1552074332930,"finger_time":1552074331611,"fix_duration":645.2029013682982,"trial":43,"RT":55,"MT":1319,"sideResp":2,"stimulus":"img/900/equaldotanddens/L/10_Ratio_900_L_20_R_18.png","xmouse":[757,757,757,757,759,762,766,773,775,779,780,781,781,781,781,781,781,781,781,781,781,781,784,789,794,799,806,808,808,808,808,808,808,808,808,808,808,808,808,808,808,808,808,808,808,808,808,808,808,808,808,808,810,822,840,858,877,891,912,925,937,952,972,979,984,988,996,1013,1072],"ymouse":[566,566,573,581,592,607,621,655,674,691,703,716,718,718,718,718,709,682,667,656,645,634,615,580,557,538,521,497,493,492,492,492,492,492,492,492,492,492,492,492,492,492,492,492,492,492,492,492,492,492,492,492,489,471,451,426,392,365,305,273,244,203,155,136,123,113,106,97,73],"timestamp_mouse":[13,34,55,73,93,115,133,153,175,193,214,234,254,273,293,313,333,353,374,393,413,433,453,473,494,515,535,554,575,595,613,633,654,674,694,713,733,753,773,794,813,835,853,873,894,915,934,954,975,994,1015,1033,1054,1075,1094,1113,1133,1153,1174,1195,1214,1235,1253,1274,1293,1313,1333,1354,1374],"xSR":741.5,"ySR":469.95,"xT1":424.9,"yT1":0,"xT2":1058.1,"yT2":0,"toosoon":0,"cond_shown":"equaldotanddens","ratio_trial":900,"smaller_num":"18","larger_num":"20","correct_side":1,"subjID":"santiagoandresdiazarias13","gender":"0","age":"9","school":"4"},{"start_time":1552074335624,"click_time":1552074359111,"finger_time":1552074343370,"fix_duration":252.90495767591327,"trial":44,"RT":7746,"MT":15741,"sideResp":1,"stimulus":"img/250/randomdotsizeEA/L/14_Ratio_250_L_12_R_3.png","xmouse":[752,752,752,752,752,752,752,752,752,752,752,752,752,752,752,752,752,752,752,752,752,752,752,752,752,752,752,752,752,752,752,752,752,752,752,752,752,752,752,752,752,752,752,752,752,752,752,752,752,752,752,752,752,752,752,752,752,752,752,752,752,752,752,752,752,752,752,752,752,752,752,752,752,752,752,752,752,752,752,752,752,752,752,752,752,752,752,752,752,752,752,752,752,752,752,752,752,752,752,752,752,752,752,752,752,752,752,752,752,752,752,752,752,752,752,752,752,752,752,752,752,752,752,752,752,752,752,752,752,752,752,752,752,752,752,752,752,752,752,752,752,752,752,752,752,752,752,752,752,752,752,752,752,752,752,752,752,752,752,752,752,752,752,752,752,752,752,752,752,752,752,752,752,752,752,752,752,752,752,752,752,752,752,752,752,752,752,752,752,752,752,752,752,752,752,752,752,752,752,752,752,752,752,752,752,752,752,752,752,752,752,752,752,752,752,752,752,752,752,752,752,752,752,752,752,752,752,752,752,752,752,752,752,752,752,752,752,752,752,752,752,752,752,752,752,752,752,752,752,752,752,752,752,752,752,752,752,752,752,752,752,752,752,752,752,752,752,752,752,752,752,752,752,752,752,752,752,752,752,752,752,752,752,752,752,752,752,752,752,752,752,752,752,752,752,752,752,752,752,752,752,752,752,752,752,752,752,752,752,752,752,752,752,752,752,752,752,752,752,752,752,752,752,752,752,752,752,752,752,752,752,752,752,752,752,752,752,752,752,752,752,752,752,752,752,752,752,752,752,752,752,752,752,752,752,752,752,752,752,752,752,752,752,752,752,752,752,752,752,752,752,752,752,753,753,753,753,753,753,753,753,753,753,753,753,758,800,851,913,914,914,914,914,914,914,914,914,915,916,916,916,901,901,901,901,901,901,901,901,901,901,901,901,901,901,901,901,901,901,901,901,901,901,901,901,901,901,901,901,901,901,901,901,901,901,901,901,901,901,821,829,842,857,869,873,866,862,862,862,871,872,872,872,872,872,872,872,872,872,872,872,872,872,872,872,872,872,872,871,824,811,811,811,811,811,811,811,811,811,811,811,811,811,811,811,811,811,811,811,811,811,811,811,811,811,811,811,811,811,811,811,811,811,811,811,811,811,811,811,811,811,811,811,811,811,811,811,811,811,811,811,811,811,811,811,811,811,811,811,811,811,811,811,811,811,811,811,811,811,811,811,811,811,811,811,811,811,811,811,811,811,811,811,811,811,811,811,811,811,811,811,811,811,811,811,811,811,811,811,811,811,811,811,811,811,811,811,811,811,811,811,811,811,811,811,811,811,811,811,811,811,811,811,811,811,811,811,811,811,811,811,811,811,811,811,811,811,811,811,811,811,811,811,811,811,811,811,811,811,811,811,811,811,811,811,811,811,811,811,811,811,811,811,811,811,811,811,811,811,811,811,811,811,811,811,811,811,811,811,811,811,811,811,811,811,811,811,811,811,811,811,811,811,811,811,811,811,811,811,811,811,811,811,811,811,811,811,811,811,811,811,811,811,811,811,811,811,811,811,811,811,811,811,811,811,811,811,811,811,811,811,811,811,811,811,811,811,811,811,811,811,811,811,811,811,811,811,811,811,811,811,811,811,811,811,811,811,811,811,811,811,811,811,811,811,811,811,811,811,811,811,811,811,811,811,811,811,811,811,811,811,811,811,811,811,811,811,811,811,811,811,811,811,811,811,811,811,811,811,811,811,811,811,811,811,811,811,811,811,811,811,811,811,811,811,811,811,811,811,811,811,811,811,811,811,811,811,811,811,811,811,811,811,811,811,811,811,811,811,811,811,811,811,811,811,811,811,811,811,811,811,811,811,811,811,811,811,811,811,811,811,811,811,811,811,811,811,811,811,811,811,811,811,811,811,811,811,811,811,811,811,811,811,811,811,811,811,811,811,811,811,811,811,811,811,811,811,811,811,811,811,811,811,811,811,811,811,811,811,811,811,811,811,811,811,811,811,811,811,811,811,811,811,811,811,811,811,811,811,811,811,811,811,811,811,811,811,811,811,811,811,811,811,811,811,811,811,811,811,811,811,811,811,811,811,811,811,811,811,811,811,811,811,811,811,811,811,811,811,811,811,811,811,811,811,811,811,811,811,811,811,811,811,811,811,811,811,811,811,811,811,811,811,811,811,811,811,811,811,811,811,811,811,811,811,811,811,811,811,811,811,811,811,811,811,811,811,811,811,811,811,811,811,811,811,811,811,811,811,811,811,811,811,811,811,811,811,811,811,811,811,811,811,811,811,811,811,811,811,811,811,811,811,811,811,811,811,811,811,811,811,811,811,811,811,811,811,811,811,811,811,811,811,811,811,811,811,811,811,811,811,811,811,811,811,811,811,811,811,811,811,811,811,811,811,811,811,811,811,811,811,811,811,811,811,811,811,811,811,811,811,811,811,811,811,811,811,811,811,811,811,811,811,811,811,811,811,811,811,811,811,811,811,811,811,811,811,811,811,811,811,811,811,811,811,811,811,811,811,811,811,811,811,811,811,811,811,811,811,811,811,811,811,811,811,811,811,811,811,811,811,811,811,811,811,811,811,811,811,811,811,811,811,811,811,811,811,811,811,811,811,811,811,811,811,811,811,811,811,811,811,811,811,811,467],"ymouse":[506,506,506,506,506,506,506,506,506,506,506,506,506,506,506,506,506,506,506,506,506,506,506,506,506,506,506,506,506,506,506,506,506,506,506,506,506,506,506,506,506,506,506,506,506,506,506,506,506,506,506,506,506,506,506,506,506,506,506,506,506,506,506,506,506,506,506,506,506,506,506,506,506,506,506,506,506,506,506,506,506,506,506,506,506,506,506,506,506,506,506,506,506,506,506,506,506,506,506,506,506,506,506,506,506,506,506,506,506,506,506,506,506,506,506,506,506,506,506,506,506,506,506,506,506,506,506,506,506,506,506,506,506,506,506,506,506,506,506,506,506,506,506,506,506,506,506,506,506,506,506,506,506,506,506,506,506,506,506,506,506,506,506,506,506,506,506,506,506,506,506,506,506,506,506,506,506,506,506,506,506,506,506,506,506,506,506,506,506,506,506,506,506,506,506,506,506,506,506,506,506,506,506,506,506,506,506,506,506,506,506,506,506,506,506,506,506,506,506,506,506,506,506,506,506,506,506,506,506,506,506,506,506,506,506,506,506,506,506,506,506,506,506,506,506,506,506,506,506,506,506,506,506,506,506,506,506,506,506,506,506,506,506,506,506,506,506,506,506,506,506,506,506,506,506,506,506,506,506,506,506,506,506,506,506,506,506,506,506,506,506,506,506,506,506,506,506,506,506,506,506,506,506,506,506,506,506,506,506,506,506,506,506,506,506,506,506,506,506,506,506,506,506,506,506,506,506,506,506,506,506,506,506,506,506,506,506,506,506,506,506,506,506,506,506,506,506,506,506,506,506,506,506,506,506,506,506,506,506,506,506,506,506,506,506,506,506,506,506,506,506,506,506,506,506,506,506,506,506,506,506,506,506,506,506,505,530,551,552,552,552,552,552,552,552,552,552,552,552,604,667,712,712,712,712,712,712,712,712,712,712,712,712,712,712,712,712,712,712,712,712,712,712,712,712,712,712,712,712,712,712,712,712,712,712,712,712,712,712,714,689,663,628,592,501,449,417,390,368,323,306,289,272,258,250,247,247,247,247,247,247,247,247,247,247,247,245,236,209,59,21,21,21,21,21,21,21,21,21,21,21,21,21,21,21,21,21,21,21,21,21,21,21,21,21,21,21,21,21,21,21,21,21,21,21,21,21,21,21,21,21,21,21,21,21,21,21,21,21,21,21,21,21,21,21,21,21,21,21,21,21,21,21,21,21,21,21,21,21,21,21,21,21,21,21,21,21,21,21,21,21,21,21,21,21,21,21,21,21,21,21,21,21,21,21,21,21,21,21,21,21,21,21,21,21,21,21,21,21,21,21,21,21,21,21,21,21,21,21,21,21,21,21,21,21,21,21,21,21,21,21,21,21,21,21,21,21,21,21,21,21,21,21,21,21,21,21,21,21,21,21,21,21,21,21,21,21,21,21,21,21,21,21,21,21,21,21,21,21,21,21,21,21,21,21,21,21,21,21,21,21,21,21,21,21,21,21,21,21,21,21,21,21,21,21,21,21,21,21,21,21,21,21,21,21,21,21,21,21,21,21,21,21,21,21,21,21,21,21,21,21,21,21,21,21,21,21,21,21,21,21,21,21,21,21,21,21,21,21,21,21,21,21,21,21,21,21,21,21,21,21,21,21,21,21,21,21,21,21,21,21,21,21,21,21,21,21,21,21,21,21,21,21,21,21,21,21,21,21,21,21,21,21,21,21,21,21,21,21,21,21,21,21,21,21,21,21,21,21,21,21,21,21,21,21,21,21,21,21,21,21,21,21,21,21,21,21,21,21,21,21,21,21,21,21,21,21,21,21,21,21,21,21,21,21,21,21,21,21,21,21,21,21,21,21,21,21,21,21,21,21,21,21,21,21,21,21,21,21,21,21,21,21,21,21,21,21,21,21,21,21,21,21,21,21,21,21,21,21,21,21,21,21,21,21,21,21,21,21,21,21,21,21,21,21,21,21,21,21,21,21,21,21,21,21,21,21,21,21,21,21,21,21,21,21,21,21,21,21,21,21,21,21,21,21,21,21,21,21,21,21,21,21,21,21,21,21,21,21,21,21,21,21,21,21,21,21,21,21,21,21,21,21,21,21,21,21,21,21,21,21,21,21,21,21,21,21,21,21,21,21,21,21,21,21,21,21,21,21,21,21,21,21,21,21,21,21,21,21,21,21,21,21,21,21,21,21,21,21,21,21,21,21,21,21,21,21,21,21,21,21,21,21,21,21,21,21,21,21,21,21,21,21,21,21,21,21,21,21,21,21,21,21,21,21,21,21,21,21,21,21,21,21,21,21,21,21,21,21,21,21,21,21,21,21,21,21,21,21,21,21,21,21,21,21,21,21,21,21,21,21,21,21,21,21,21,21,21,21,21,21,21,21,21,21,21,21,21,21,21,21,21,21,21,21,21,21,21,21,21,21,21,21,21,21,21,21,21,21,21,21,21,21,21,21,21,21,21,21,21,21,21,21,21,21,21,21,21,21,21,21,21,21,21,21,21,21,21,21,21,21,21,21,21,21,21,21,21,21,21,21,21,21,21,21,21,21,21,21,21,21,21,21,21,21,21,21,21,21,21,21,21,21,21,21,21,21,21,21,21,21,21,21,21,21,21,21,21,21,21,21,21,21,21,21,21,21,21,21,21,21,21,21,21,3],"timestamp_mouse":[12,36,45,66,86,105,127,145,167,186,207,225,246,267,285,306,325,347,366,386,407,426,446,465,486,506,525,545,567,585,606,626,647,666,686,705,726,747,765,786,806,825,847,866,886,907,927,946,965,986,1006,1027,1046,1067,1086,1107,1126,1146,1165,1186,1205,1226,1247,1266,1287,1305,1326,1345,1366,1386,1406,1426,1445,1466,1485,1506,1527,1546,1567,1585,1605,1627,1646,1666,1686,1706,1726,1747,1767,1786,1806,1825,1847,1867,1886,1906,1925,1945,1966,1986,2006,2026,2045,2067,2086,2106,2126,2146,2166,2186,2205,2227,2246,2265,2286,2305,2326,2345,2366,2385,2406,2426,2447,2467,2486,2506,2526,2546,2567,2585,2606,2627,2645,2666,2685,2705,2727,2746,2767,2786,2806,2825,2845,2866,2885,2907,2925,2945,2965,2986,3007,3026,3045,3066,3086,3107,3125,3146,3166,3186,3207,3226,3246,3266,3285,3306,3326,3347,3366,3385,3406,3427,3445,3466,3486,3507,3525,3546,3567,3585,3606,3626,3645,3667,3685,3705,3726,3745,3767,3785,3806,3825,3846,3866,3886,3905,3925,3947,3966,3985,4005,4025,4046,4067,4085,4106,4126,4147,4167,4186,4206,4225,4245,4265,4286,4305,4325,4347,4366,4386,4406,4426,4446,4465,4485,4507,4526,4545,4566,4586,4605,4627,4646,4666,4685,4707,4726,4747,4766,4786,4805,4825,4845,4866,4886,4906,4925,4946,4965,4986,5005,5025,5046,5067,5086,5105,5126,5146,5165,5186,5206,5226,5246,5266,5286,5306,5327,5346,5366,5385,5406,5425,5446,5467,5485,5505,5527,5546,5567,5586,5605,5626,5645,5667,5686,5706,5726,5745,5766,5786,5807,5827,5846,5866,5886,5906,5926,5946,5967,5986,6005,6025,6046,6067,6086,6106,6126,6150,6167,6186,6206,6226,6247,6266,6285,6305,6326,6346,6366,6385,6406,6425,6446,6467,6486,6506,6525,6545,6566,6586,6607,6625,6645,6666,6686,6706,6726,6747,6767,6786,6806,6825,6847,6865,6885,6906,6927,6946,6965,6986,7007,7026,7045,7066,7087,7106,7126,7145,7166,7186,7207,7225,7246,7265,7286,7307,7326,7346,7367,7386,7405,7426,7446,7466,7486,7506,7526,7545,7566,7586,7605,7625,7646,7666,7686,7707,7725,7746,7766,7786,7806,7825,7845,7866,7886,7906,7927,7945,7965,7987,8007,8026,8047,8066,8086,8105,8126,8146,8166,8186,8205,8226,8247,8267,8286,8307,8326,8345,8365,8385,8407,8426,8445,8467,8486,8507,8526,8547,8567,8586,8605,8626,8645,8665,8685,8706,8726,8745,8767,8786,8807,8825,8845,8867,8886,8906,8926,8945,8966,8985,9005,9025,9045,9066,9085,9106,9126,9145,9166,9186,9207,9227,9247,9267,9286,9307,9327,9345,9365,9386,9405,9425,9446,9466,9485,9506,9526,9546,9566,9586,9606,9626,9646,9665,9685,9706,9726,9746,9766,9785,9807,9826,9847,9866,9885,9906,9927,9950,9966,9986,10006,10025,10045,10065,10086,10105,10126,10145,10167,10186,10207,10226,10245,10266,10285,10306,10326,10345,10367,10386,10406,10426,10445,10465,10485,10505,10527,10546,10566,10586,10605,10625,10646,10666,10686,10705,10725,10746,10765,10786,10806,10826,10845,10867,10886,10906,10925,10946,10967,10986,11006,11026,11046,11067,11086,11105,11125,11145,11166,11186,11205,11225,11245,11265,11286,11305,11326,11347,11367,11386,11405,11426,11446,11465,11485,11506,11526,11546,11566,11587,11605,11626,11645,11666,11686,11706,11726,11746,11766,11786,11807,11826,11847,11867,11885,11906,11925,11945,11965,11986,12006,12025,12045,12066,12087,12106,12127,12145,12166,12186,12205,12225,12246,12266,12286,12307,12327,12345,12366,12386,12406,12426,12446,12466,12486,12506,12525,12547,12566,12586,12606,12625,12645,12665,12686,12707,12726,12746,12767,12786,12806,12826,12847,12867,12886,12905,12925,12946,12966,12985,13005,13027,13046,13067,13086,13106,13125,13145,13166,13185,13206,13227,13247,13266,13286,13306,13326,13346,13365,13385,13405,13427,13447,13467,13486,13506,13527,13546,13565,13586,13606,13625,13646,13666,13686,13706,13726,13746,13766,13785,13806,13826,13846,13865,13886,13906,13927,13947,13967,13986,14007,14026,14045,14066,14087,14106,14126,14146,14167,14186,14206,14226,14245,14265,14285,14306,14326,14346,14366,14386,14407,14427,14445,14465,14486,14506,14526,14546,14567,14587,14607,14625,14646,14665,14685,14706,14725,14745,14767,14786,14806,14826,14846,14866,14885,14906,14925,14945,14965,14986,15005,15026,15045,15067,15086,15106,1