[{"start_time":1552327917296,"click_time":1552327920961,"finger_time":1552327917307,"fix_duration":250,"trial":0,"RT":11,"MT":3654,"sideResp":2,"stimulus":"img/250/equaldotanddens/R/8_Ratio_250_L_1_R_4.png","xmouse":[789,789,789,789,789,789,789,789,789,789,789,789,789,789,789,789,789,789,789,789,789,789,789,789,789,789,789,789,789,789,789,789,789,789,789,789,789,789,789,789,789,789,789,789,789,789,789,789,789,789,789,789,789,789,789,789,789,789,789,788,787,786,786,786,786,786,786,786,786,786,786,786,787,788,789,791,792,792,793,793,793,793,793,793,793,793,793,793,793,793,793,793,793,793,793,793,793,793,793,793,793,793,793,793,793,793,793,793,793,793,793,793,793,793,793,793,793,793,793,793,793,793,793,793,796,814,825,837,848,858,868,869,869,869,869,869,872,876,881,889,912,919,925,933,941,964,975,986,997,1008,1049,1068,1085,1105,1135,1208,1253,1291,1324,1344,1359,1358,1356,1351,1340,1306,1287,1272,1256,1231,1203,1194,1189,1188,1188,1188,1187,1187,1186,1181,1171,1162,1159,1155],"ymouse":[488,488,488,488,488,488,488,488,488,488,488,488,488,488,488,488,488,488,488,488,488,488,488,488,488,488,488,488,488,490,498,503,505,505,505,505,505,505,505,505,505,505,505,505,505,507,507,507,507,507,507,507,507,507,507,507,507,507,507,509,516,522,525,527,529,534,538,541,544,546,549,552,556,559,563,570,572,573,574,575,575,575,575,575,575,575,576,577,579,581,585,591,593,595,596,598,598,598,598,598,598,598,598,598,598,598,598,598,598,598,598,598,598,598,598,598,598,598,598,598,598,598,598,599,598,578,565,551,536,524,510,510,509,509,509,509,508,505,501,494,474,467,462,455,444,421,409,398,386,376,348,336,322,305,278,197,134,65,0,0,0,0,0,0,4,21,32,40,46,57,66,68,70,70,70,70,70,70,70,70,69,68,68,68],"timestamp_mouse":[10,24,44,63,85,103,123,144,165,185,204,224,243,264,283,304,325,344,364,384,404,423,445,464,484,505,525,545,565,584,603,625,643,663,684,705,724,744,764,785,804,824,845,865,884,903,924,944,965,984,1004,1025,1044,1064,1085,1104,1124,1144,1163,1184,1204,1225,1244,1264,1284,1303,1323,1344,1364,1384,1405,1424,1444,1464,1485,1505,1524,1544,1564,1584,1604,1625,1644,1665,1685,1703,1723,1744,1763,1784,1804,1824,1843,1864,1884,1904,1924,1943,1965,1984,2005,2025,2044,2065,2084,2103,2123,2144,2163,2184,2205,2225,2245,2264,2284,2304,2324,2344,2364,2384,2405,2424,2445,2465,2484,2504,2524,2544,2564,2584,2604,2623,2644,2664,2685,2705,2725,2744,2764,2785,2804,2823,2843,2864,2885,2904,2923,2945,2964,2985,3004,3024,3043,3064,3084,3104,3124,3144,3163,3184,3205,3223,3243,3265,3285,3304,3323,3344,3364,3385,3405,3424,3444,3464,3484,3504,3525,3544,3565,3585,3604,3624,3643,3664],"xSR":741.5,"ySR":469.95,"xT1":424.9,"yT1":0,"xT2":1058.1,"yT2":0,"toosoon":0,"cond_shown":"equaldotanddens","ratio_trial":250,"smaller_num":"1","larger_num":"4","correct_side":2,"subjID":"SantiagoVelasquez20","gender":"0","age":"9","school":"4","test":{"fix_dur":[250,1500],"timestim":300,"targets_dim":[100,100],"targets_relative_coord":[0.3,0.7],"size_stim":[880,420],"start_dim":[100,100],"size_start":[300,300],"size_fix":60,"samplingrate":20,"img_types":["equaldotsize","equaldotanddens","randomdotsizeEA"],"ratios":[250,500,750,900],"rep_conds":9,"nTrials":120,"trials_to_rest":500,"Trials_order":[49,106,46,50,53,85,15,43,81,63,12,48,108,9,66,17,119,21,101,22,31,7,99,41,40,103,30,34,10,1,51,64,107,80,18,11,78,27,47,54,73,109,76,100,59,94,72,77,3,105,62,8,42,91,55,16,58,29,82,23,112,89,25,114,111,45,57,4,20,38,96,102,52,88,71,37,0,87,84,95,35,117,70,98,44,68,56,14,86,83,19,39,60,113,26,110,118,13,116,24,5,75,104,93,79,32,69,74,115,67,65,61,33,36,92,2,28,90,97,6],"cond_shown":["equaldotanddens","equaldotanddens","equaldotanddens","randomdotsizeEA","randomdotsizeEA","equaldotanddens","equaldotsize","equaldotanddens","equaldotsize","equaldotsize","equaldotsize","equaldotsize","equaldotsize","equaldotsize","equaldotsize","randomdotsizeEA","randomdotsizeEA","equaldotsize","randomdotsizeEA","equaldotanddens","equaldotanddens","equaldotanddens","equaldotsize","randomdotsizeEA","equaldotanddens","equaldotanddens","equaldotsize","equaldotanddens","equaldotanddens","equaldotanddens","equaldotsize","equaldotanddens","randomdotsizeEA","randomdotsizeEA","equaldotsize","randomdotsizeEA","equaldotsize","equaldotsize","randomdotsizeEA","equaldotsize","equaldotanddens","equaldotanddens","equaldotanddens","equaldotanddens","randomdotsizeEA","equaldotanddens","equaldotsize","randomdotsizeEA","equaldotsize","equaldotsize","randomdotsizeEA","randomdotsizeEA","equaldotsize","equaldotanddens","equaldotanddens","equaldotanddens","equaldotanddens","randomdotsizeEA","equaldotanddens","randomdotsizeEA","equaldotanddens","randomdotsizeEA","equaldotanddens","equaldotsize","equaldotsize","equaldotsize","equaldotsize","equaldotanddens","randomdotsizeEA","randomdotsizeEA","equaldotsize","equaldotsize","equaldotanddens","equaldotanddens","randomdotsizeEA","equaldotanddens","equaldotsize","equaldotsize","equaldotsize","randomdotsizeEA","randomdotsizeEA","equaldotsize","equaldotanddens","randomdotsizeEA","randomdotsizeEA","randomdotsizeEA","randomdotsizeEA","randomdotsizeEA","randomdotsizeEA","randomdotsizeEA","equaldotanddens","equaldotsize","equaldotsize","randomdotsizeEA","randomdotsizeEA","randomdotsizeEA","equaldotanddens","equaldotanddens","randomdotsizeEA","equaldotsize","randomdotsizeEA","equaldotsize","randomdotsizeEA","equaldotsize","equaldotanddens","randomdotsizeEA","equaldotsize","randomdotsizeEA","equaldotanddens","equaldotanddens","randomdotsizeEA","equaldotanddens","equaldotsize","equaldotsize","randomdotsizeEA","randomdotsizeEA","equaldotanddens","equaldotsize","equaldotanddens","equaldotsize"],"ratio_trial":[250,900,900,250,500,250,500,750,900,500,250,250,250,900,750,500,900,900,500,900,750,750,500,500,500,750,750,900,900,250,500,500,900,750,750,900,750,500,900,750,250,250,500,500,900,900,250,500,500,900,250,750,750,750,750,500,900,500,900,900,500,500,250,750,500,900,900,500,750,250,250,750,500,500,900,250,250,500,250,900,900,900,900,250,750,750,750,250,250,900,750,500,250,500,250,250,900,250,750,250,500,500,750,900,750,750,900,250,750,750,500,250,900,250,750,250,500,750,250,750],"smaller_num":["1","18","18","5","2","3","4","15","9","2","3","3","3","18","15","6","18","18","5","18","12","6","2","2","6","3","15","9","18","5","1","3","9","18","15","18","6","3","9","15","2","6","2","5","9","9","2","6","4","18","4","6","3","15","3","2","9","5","18","9","9","6","3","3","5","18","9","5","3","4","3","12","5","2","9","3","4","6","6","18","18","18","9","6","6","3","12","2","1","18","6","2","2","9","2","2","18","2","12","3","6","10","3","9","15","9","9","6","18","15","6","2","18","2","3","2","1","15","6","3"],"larger_num":["4","20","20","20","4","12","8","20","10","4","12","12","12","20","20","12","20","20","10","20","16","8","4","4","12","4","20","10","20","20","2","6","10","24","20","20","8","6","10","20","8","24","4","10","10","10","8","12","8","20","16","8","4","20","4","4","10","10","20","10","18","12","12","4","10","20","10","10","4","16","12","16","10","4","10","12","16","12","24","20","20","20","10","24","8","4","16","8","4","20","8","4","8","18","8","8","20","8","16","12","12","20","4","10","20","12","10","24","24","20","12","8","20","8","4","8","2","20","24","4"],"correct_side":[2,1,1,2,1,1,1,2,2,2,1,1,1,1,1,1,2,2,1,1,2,1,2,1,1,2,2,1,1,2,2,2,2,1,1,2,1,2,1,2,1,1,2,2,2,2,2,1,1,1,2,2,1,1,1,1,2,1,2,2,2,1,2,1,1,2,1,2,1,2,2,2,1,1,2,2,1,1,2,2,2,2,1,2,1,2,2,1,2,1,1,1,1,2,1,1,1,1,2,1,1,2,2,2,2,2,2,1,1,2,1,1,2,2,1,2,2,2,2,1],"img_shown":["img/250/equaldotanddens/R/8_Ratio_250_L_1_R_4.png","img/900/equaldotanddens/L/4_Ratio_900_L_20_R_18.png","img/900/equaldotanddens/L/10_Ratio_900_L_20_R_18.png","img/250/randomdotsizeEA/R/12_Ratio_250_L_5_R_20.png","img/500/randomdotsizeEA/L/5_Ratio_500_L_4_R_2.png","img/250/equaldotanddens/L/14_Ratio_250_L_12_R_3.png","img/500/equaldotsize/L/8_Ratio_500_L_8_R_4.png","img/750/equaldotanddens/R/4_Ratio_750_L_15_R_20.png","img/900/equaldotsize/R/6_Ratio_900_L_9_R_10.png","img/500/equaldotsize/R/9_Ratio_500_L_2_R_4.png","img/250/equaldotsize/L/15_Ratio_250_L_12_R_3.png","img/250/equaldotsize/L/14_Ratio_250_L_12_R_3.png","img/250/equaldotsize/L/15_Ratio_250_L_12_R_3.png","img/900/equaldotsize/L/10_Ratio_900_L_20_R_18.png","img/750/equaldotsize/L/1_Ratio_750_L_20_R_15.png","img/500/randomdotsizeEA/L/11_Ratio_500_L_12_R_6.png","img/900/randomdotsizeEA/R/13_Ratio_900_L_18_R_20.png","img/900/equaldotsize/R/9_Ratio_900_L_18_R_20.png","img/500/randomdotsizeEA/L/7_Ratio_500_L_10_R_5.png","img/900/equaldotanddens/L/10_Ratio_900_L_20_R_18.png","img/750/equaldotanddens/R/11_Ratio_750_L_12_R_16.png","img/750/equaldotanddens/L/14_Ratio_750_L_8_R_6.png","img/500/equaldotsize/R/9_Ratio_500_L_2_R_4.png","img/500/randomdotsizeEA/L/10_Ratio_500_L_4_R_2.png","img/500/equaldotanddens/L/13_Ratio_500_L_12_R_6.png","img/750/equaldotanddens/R/12_Ratio_750_L_3_R_4.png","img/750/equaldotsize/R/3_Ratio_750_L_15_R_20.png","img/900/equaldotanddens/L/1_Ratio_900_L_10_R_9.png","img/900/equaldotanddens/L/8_Ratio_900_L_20_R_18.png","img/250/equaldotanddens/R/12_Ratio_250_L_5_R_20.png","img/500/equaldotsize/R/15_Ratio_500_L_1_R_2.png","img/500/equaldotanddens/R/2_Ratio_500_L_3_R_6.png","img/900/randomdotsizeEA/R/3_Ratio_900_L_9_R_10.png","img/750/randomdotsizeEA/L/6_Ratio_750_L_24_R_18.png","img/750/equaldotsize/L/1_Ratio_750_L_20_R_15.png","img/900/randomdotsizeEA/R/14_Ratio_900_L_18_R_20.png","img/750/equaldotsize/L/13_Ratio_750_L_8_R_6.png","img/500/equaldotsize/R/2_Ratio_500_L_3_R_6.png","img/900/randomdotsizeEA/L/1_Ratio_900_L_10_R_9.png","img/750/equaldotsize/R/3_Ratio_750_L_15_R_20.png","img/250/equaldotanddens/L/1_Ratio_250_L_8_R_2.png","img/250/equaldotanddens/L/5_Ratio_250_L_24_R_6.png","img/500/equaldotanddens/R/9_Ratio_500_L_2_R_4.png","img/500/equaldotanddens/R/14_Ratio_500_L_5_R_10.png","img/900/randomdotsizeEA/R/7_Ratio_900_L_9_R_10.png","img/900/equaldotanddens/R/15_Ratio_900_L_9_R_10.png","img/250/equaldotsize/R/13_Ratio_250_L_2_R_8.png","img/500/randomdotsizeEA/L/11_Ratio_500_L_12_R_6.png","img/500/equaldotsize/L/8_Ratio_500_L_8_R_4.png","img/900/equaldotsize/L/10_Ratio_900_L_20_R_18.png","img/250/randomdotsizeEA/R/10_Ratio_250_L_4_R_16.png","img/750/randomdotsizeEA/R/2_Ratio_750_L_6_R_8.png","img/750/equaldotsize/L/8_Ratio_750_L_4_R_3.png","img/750/equaldotanddens/L/1_Ratio_750_L_20_R_15.png","img/750/equaldotanddens/L/10_Ratio_750_L_4_R_3.png","img/500/equaldotanddens/L/10_Ratio_500_L_4_R_2.png","img/900/equaldotanddens/R/6_Ratio_900_L_9_R_10.png","img/500/randomdotsizeEA/L/7_Ratio_500_L_10_R_5.png","img/900/equaldotanddens/R/13_Ratio_900_L_18_R_20.png","img/900/randomdotsizeEA/R/15_Ratio_900_L_9_R_10.png","img/500/equaldotanddens/R/1_Ratio_500_L_9_R_18.png","img/500/randomdotsizeEA/L/11_Ratio_500_L_12_R_6.png","img/250/equaldotanddens/R/11_Ratio_250_L_3_R_12.png","img/750/equaldotsize/L/10_Ratio_750_L_4_R_3.png","img/500/equaldotsize/L/7_Ratio_500_L_10_R_5.png","img/900/equaldotsize/R/14_Ratio_900_L_18_R_20.png","img/900/equaldotsize/L/1_Ratio_900_L_10_R_9.png","img/500/equaldotanddens/R/14_Ratio_500_L_5_R_10.png","img/750/randomdotsizeEA/L/9_Ratio_750_L_4_R_3.png","img/250/randomdotsizeEA/R/10_Ratio_250_L_4_R_16.png","img/250/equaldotsize/R/9_Ratio_250_L_3_R_12.png","img/750/equaldotsize/R/11_Ratio_750_L_12_R_16.png","img/500/equaldotanddens/L/7_Ratio_500_L_10_R_5.png","img/500/equaldotanddens/L/10_Ratio_500_L_4_R_2.png","img/900/randomdotsizeEA/R/3_Ratio_900_L_9_R_10.png","img/250/equaldotanddens/R/11_Ratio_250_L_3_R_12.png","img/250/equaldotsize/L/2_Ratio_250_L_16_R_4.png","img/500/equaldotsize/L/13_Ratio_500_L_12_R_6.png","img/250/equaldotsize/R/6_Ratio_250_L_6_R_24.png","img/900/randomdotsizeEA/R/11_Ratio_900_L_18_R_20.png","img/900/randomdotsizeEA/R/11_Ratio_900_L_18_R_20.png","img/900/equaldotsize/R/12_Ratio_900_L_18_R_20.png","img/900/equaldotanddens/L/1_Ratio_900_L_10_R_9.png","img/250/randomdotsizeEA/R/6_Ratio_250_L_6_R_24.png","img/750/randomdotsizeEA/L/14_Ratio_750_L_8_R_6.png","img/750/randomdotsizeEA/R/12_Ratio_750_L_3_R_4.png","img/750/randomdotsizeEA/R/11_Ratio_750_L_12_R_16.png","img/250/randomdotsizeEA/L/3_Ratio_250_L_8_R_2.png","img/250/randomdotsizeEA/R/8_Ratio_250_L_1_R_4.png","img/900/randomdotsizeEA/L/8_Ratio_900_L_20_R_18.png","img/750/equaldotanddens/L/13_Ratio_750_L_8_R_6.png","img/500/equaldotsize/L/10_Ratio_500_L_4_R_2.png","img/250/equaldotsize/L/3_Ratio_250_L_8_R_2.png","img/500/randomdotsizeEA/R/1_Ratio_500_L_9_R_18.png","img/250/randomdotsizeEA/L/1_Ratio_250_L_8_R_2.png","img/250/randomdotsizeEA/L/1_Ratio_250_L_8_R_2.png","img/900/equaldotanddens/L/2_Ratio_900_L_20_R_18.png","img/250/equaldotanddens/L/3_Ratio_250_L_8_R_2.png","img/750/randomdotsizeEA/R/11_Ratio_750_L_12_R_16.png","img/250/equaldotsize/L/14_Ratio_250_L_12_R_3.png","img/500/randomdotsizeEA/L/13_Ratio_500_L_12_R_6.png","img/500/equaldotsize/R/3_Ratio_500_L_10_R_20.png","img/750/randomdotsizeEA/R/7_Ratio_750_L_3_R_4.png","img/900/equaldotsize/R/5_Ratio_900_L_9_R_10.png","img/750/equaldotanddens/R/4_Ratio_750_L_15_R_20.png","img/750/randomdotsizeEA/R/15_Ratio_750_L_9_R_12.png","img/900/equaldotsize/R/3_Ratio_900_L_9_R_10.png","img/250/randomdotsizeEA/L/5_Ratio_250_L_24_R_6.png","img/750/equaldotanddens/L/6_Ratio_750_L_24_R_18.png","img/750/equaldotanddens/R/3_Ratio_750_L_15_R_20.png","img/500/randomdotsizeEA/L/13_Ratio_500_L_12_R_6.png","img/250/equaldotanddens/L/7_Ratio_250_L_8_R_2.png","img/900/equaldotsize/R/11_Ratio_900_L_18_R_20.png","img/250/equaldotsize/R/13_Ratio_250_L_2_R_8.png","img/750/randomdotsizeEA/L/8_Ratio_750_L_4_R_3.png","img/250/randomdotsizeEA/R/13_Ratio_250_L_2_R_8.png","img/500/equaldotanddens/R/12_Ratio_500_L_1_R_2.png","img/750/equaldotsize/R/3_Ratio_750_L_15_R_20.png","img/250/equaldotanddens/R/6_Ratio_250_L_6_R_24.png","img/750/equaldotsize/L/8_Ratio_750_L_4_R_3.png"],"Rat0":[["12_Ratio_0_L_9_R_0.png","13_Ratio_0_L_6_R_0.png","5_Ratio_0_L_2_R_0.png","6_Ratio_0_L_4_R_0.png","8_Ratio_0_L_6_R_0.png"],["1_Ratio_0_L_0_R_17.png","10_Ratio_0_L_0_R_22.png","11_Ratio_0_L_0_R_1.png","14_Ratio_0_L_0_R_24.png","15_Ratio_0_L_0_R_4.png","2_Ratio_0_L_0_R_5.png","3_Ratio_0_L_0_R_17.png","4_Ratio_0_L_0_R_7.png","7_Ratio_0_L_0_R_19.png","9_Ratio_0_L_0_R_15.png"]],"Rat250":[["1_Ratio_250_L_8_R_2.png","14_Ratio_250_L_12_R_3.png","15_Ratio_250_L_12_R_3.png","2_Ratio_250_L_16_R_4.png","3_Ratio_250_L_8_R_2.png","5_Ratio_250_L_24_R_6.png","7_Ratio_250_L_8_R_2.png"],["10_Ratio_250_L_4_R_16.png","11_Ratio_250_L_3_R_12.png","12_Ratio_250_L_5_R_20.png","13_Ratio_250_L_2_R_8.png","4_Ratio_250_L_3_R_12.png","6_Ratio_250_L_6_R_24.png","8_Ratio_250_L_1_R_4.png","9_Ratio_250_L_3_R_12.png"]],"Rat500":[["10_Ratio_500_L_4_R_2.png","11_Ratio_500_L_12_R_6.png","13_Ratio_500_L_12_R_6.png","4_Ratio_500_L_18_R_9.png","5_Ratio_500_L_4_R_2.png","7_Ratio_500_L_10_R_5.png","8_Ratio_500_L_8_R_4.png"],["1_Ratio_500_L_9_R_18.png","12_Ratio_500_L_1_R_2.png","14_Ratio_500_L_5_R_10.png","15_Ratio_500_L_1_R_2.png","2_Ratio_500_L_3_R_6.png","3_Ratio_500_L_10_R_20.png","6_Ratio_500_L_9_R_18.png","9_Ratio_500_L_2_R_4.png"]],"Rat750":[["1_Ratio_750_L_20_R_15.png","10_Ratio_750_L_4_R_3.png","13_Ratio_750_L_8_R_6.png","14_Ratio_750_L_8_R_6.png","6_Ratio_750_L_24_R_18.png","8_Ratio_750_L_4_R_3.png","9_Ratio_750_L_4_R_3.png"],["11_Ratio_750_L_12_R_16.png","12_Ratio_750_L_3_R_4.png","15_Ratio_750_L_9_R_12.png","2_Ratio_750_L_6_R_8.png","3_Ratio_750_L_15_R_20.png","4_Ratio_750_L_15_R_20.png","5_Ratio_750_L_15_R_20.png","7_Ratio_750_L_3_R_4.png"]],"Rat900":[["1_Ratio_900_L_10_R_9.png","10_Ratio_900_L_20_R_18.png","2_Ratio_900_L_20_R_18.png","4_Ratio_900_L_20_R_18.png","8_Ratio_900_L_20_R_18.png"],["11_Ratio_900_L_18_R_20.png","12_Ratio_900_L_18_R_20.png","13_Ratio_900_L_18_R_20.png","14_Ratio_900_L_18_R_20.png","15_Ratio_900_L_9_R_10.png","3_Ratio_900_L_9_R_10.png","5_Ratio_900_L_9_R_10.png","6_Ratio_900_L_9_R_10.png","7_Ratio_900_L_9_R_10.png","9_Ratio_900_L_18_R_20.png"]],"Rat1000":[["10_Ratio_1000_L_16_R_16.png","11_Ratio_1000_L_6_R_6.png","12_Ratio_1000_L_14_R_14.png","13_Ratio_1000_L_20_R_20.png","15_Ratio_1000_L_15_R_15.png","2_Ratio_1000_L_17_R_17.png","4_Ratio_1000_L_9_R_9.png","5_Ratio_1000_L_6_R_6.png","6_Ratio_1000_L_19_R_19.png","8_Ratio_1000_L_14_R_14.png","9_Ratio_1000_L_25_R_25.png"],["1_Ratio_1000_L_1_R_1.png","14_Ratio_1000_L_17_R_17.png","3_Ratio_1000_L_17_R_17.png","7_Ratio_1000_L_6_R_6.png"]]}},{"start_time":1552327923189,"click_time":1552327924820,"finger_time":1552327924239,"fix_duration":906.3539033827917,"trial":1,"RT":1050,"MT":581,"sideResp":2,"stimulus":"img/900/equaldotanddens/L/4_Ratio_900_L_20_R_18.png","xmouse":[792,792,792,792,792,792,792,798,803,806,807,807,807,807,807,807,807,807,807,807,807,807,807,807,807,807,807,805,803,799,796,794,794,794,794,794,794,794,794,794,794,794,794,794,794,794,794,794,793,793,794,805,815,836,855,871,897,910,924,937,948,966,973,984,999,1013,1048,1066,1082,1096,1108,1126,1137,1150,1178,1190,1196,1196,1195,1183,1169,1152],"ymouse":[632,632,632,632,632,632,631,627,624,622,621,620,620,620,620,620,620,620,620,620,620,620,620,620,620,620,620,620,620,619,618,618,618,618,618,618,618,618,618,618,618,618,618,618,618,618,618,618,613,610,602,580,566,545,531,517,488,472,446,428,414,395,386,374,363,350,317,297,275,255,234,195,168,141,93,71,59,58,59,67,73,77],"timestamp_mouse":[11,39,51,71,90,111,131,150,171,191,210,231,250,272,292,310,332,352,371,390,410,431,451,471,490,512,531,550,570,590,611,632,651,672,691,710,730,752,770,792,812,831,852,872,892,912,932,950,971,991,1013,1031,1050,1070,1091,1110,1130,1150,1171,1192,1211,1230,1251,1270,1291,1311,1330,1351,1371,1390,1411,1431,1451,1471,1491,1511,1532,1551,1571,1590,1611,1630],"xSR":741.5,"ySR":573.95,"xT1":424.9,"yT1":0,"xT2":1058.1,"yT2":0,"toosoon":0,"cond_shown":"equaldotanddens","ratio_trial":900,"smaller_num":"18","larger_num":"20","correct_side":1,"subjID":"SantiagoVelasquez20","gender":"0","age":"9","school":"4"},{"start_time":1552327926750,"click_time":1552327928880,"finger_time":1552327927739,"fix_duration":629.3527775804499,"trial":2,"RT":989,"MT":1141,"sideResp":1,"stimulus":"img/900/equaldotanddens/L/10_Ratio_900_L_20_R_18.png","xmouse":[789,789,789,789,789,789,789,789,789,789,789,789,789,789,789,789,789,789,789,789,789,789,789,789,789,789,789,789,789,789,789,789,789,789,789,789,789,789,789,789,789,789,789,789,789,789,789,789,789,788,787,781,772,757,754,754,754,749,686,620,505,363,135,0,0,0,0,0,0,1,9,19,33,55,66,75,85,92,104,110,116,128,137,178,193,209,226,242,267,277,284,289,294,301,305,308,317,330,359,366,369,369,374,396,409,419,429],"ymouse":[578,578,578,578,578,578,578,578,578,578,578,578,578,578,578,578,578,578,578,578,578,578,578,578,578,578,578,578,578,578,578,578,578,578,578,578,578,578,578,578,578,578,578,578,578,578,578,578,578,572,565,551,535,498,464,438,409,361,213,103,0,0,0,0,0,0,0,0,0,4,25,47,76,105,113,120,125,128,133,135,138,140,141,142,141,136,130,123,115,113,113,113,112,110,109,107,105,103,97,95,94,94,91,84,81,79,77],"timestamp_mouse":[12,31,50,71,89,111,131,150,171,189,209,231,251,270,291,310,329,350,369,389,411,430,451,471,490,511,530,549,569,591,610,631,650,671,691,709,729,751,771,789,811,830,851,871,890,911,930,951,970,989,1011,1030,1051,1069,1089,1110,1130,1151,1169,1189,1210,1230,1249,1269,1290,1309,1331,1350,1371,1390,1410,1430,1451,1469,1489,1510,1529,1550,1570,1589,1611,1629,1650,1669,1689,1710,1731,1749,1770,1789,1811,1831,1850,1870,1890,1910,1931,1950,1970,1990,2010,2030,2051,2070,2089,2110,2130],"xSR":741.5,"ySR":573.95,"xT1":424.9,"yT1":0,"xT2":1058.1,"yT2":0,"toosoon":0,"cond_shown":"equaldotanddens","ratio_trial":900,"smaller_num":"18","larger_num":"20","correct_side":1,"subjID":"SantiagoVelasquez20","gender":"0","age":"9","school":"4"},{"start_time":1552327931730,"click_time":1552327933701,"finger_time":1552327933039,"fix_duration":267.43458851995473,"trial":3,"RT":1309,"MT":662,"sideResp":1,"stimulus":"img/250/randomdotsizeEA/R/12_Ratio_250_L_5_R_20.png","xmouse":[783,783,783,783,783,783,783,783,783,783,783,783,783,783,783,783,783,783,783,783,783,783,783,783,783,783,783,783,783,783,783,783,783,783,783,783,783,783,783,783,783,783,783,783,783,783,783,783,783,783,783,783,783,783,783,783,783,783,783,781,779,778,774,767,757,736,723,712,697,678,626,600,574,565,557,551,549,547,543,535,512,499,484,476,462,453,445,439,437,437,436,436,436,436,436,436,436,436,438],"ymouse":[644,644,644,644,644,644,644,644,644,644,644,644,644,644,644,644,644,644,644,644,644,644,644,644,644,644,644,644,644,644,644,644,644,644,644,644,644,644,644,644,644,644,644,644,644,644,644,644,644,644,644,644,644,644,644,644,644,644,640,635,631,630,619,606,591,566,552,538,517,491,418,382,337,320,307,295,291,285,278,263,229,210,188,177,151,135,121,110,105,103,102,102,102,102,102,102,101,101,99],"timestamp_mouse":[13,40,50,71,90,110,131,150,169,190,210,231,250,271,290,310,329,350,371,391,410,430,449,470,490,511,530,551,571,591,610,629,650,670,691,709,731,750,771,789,811,831,850,870,890,909,931,951,970,990,1009,1029,1049,1070,1090,1110,1130,1150,1170,1191,1209,1229,1249,1271,1290,1309,1329,1350,1370,1390,1410,1430,1450,1470,1489,1511,1531,1550,1570,1589,1609,1630,1649,1670,1691,1710,1730,1751,1770,1791,1811,1831,1850,1870,1889,1910,1931,1949,1971],"xSR":741.5,"ySR":573.95,"xT1":424.9,"yT1":0,"xT2":1058.1,"yT2":0,"toosoon":0,"cond_shown":"randomdotsizeEA","ratio_trial":250,"smaller_num":"5","larger_num":"20","correct_side":2,"subjID":"SantiagoVelasquez20","gender":"0","age":"9","school":"4"},{"start_time":1552327935372,"click_time":1552327937620,"finger_time":1552327937120,"fix_duration":250,"trial":4,"RT":1748,"MT":500,"sideResp":1,"stimulus":"img/500/randomdotsizeEA/L/5_Ratio_500_L_4_R_2.png","xmouse":[795,795,795,795,795,795,795,795,795,795,795,795,795,795,795,795,795,795,795,795,795,795,795,795,795,795,795,795,795,795,795,795,795,795,795,795,795,795,795,795,795,795,795,795,795,795,795,795,795,795,795,795,795,795,795,795,795,795,795,795,795,795,795,795,795,795,795,795,795,795,795,795,795,795,795,795,795,795,795,795,795,795,795,795,795,795,795,789,777,761,746,726,702,637,610,588,569,558,549,549,549,547,546,542,540,534,527,518,495,487,480,469,453],"ymouse":[608,608,608,608,608,608,608,608,608,608,608,608,608,608,608,608,608,608,608,608,608,608,608,608,608,608,608,608,608,608,608,608,608,608,608,608,608,608,608,608,608,608,608,608,608,608,608,608,608,608,608,608,608,608,608,608,608,608,608,608,608,608,608,608,608,608,608,608,608,608,608,608,608,608,608,608,608,608,608,608,608,608,608,607,598,592,582,570,550,532,517,501,484,435,412,392,374,359,329,319,311,302,295,281,275,265,256,244,189,163,140,114,84],"timestamp_mouse":[14,35,47,68,89,109,129,149,168,187,209,228,249,267,288,309,328,349,369,388,408,427,448,469,487,509,528,548,569,589,607,628,649,668,688,708,729,749,767,789,808,828,849,868,887,909,927,948,969,988,1007,1027,1047,1069,1088,1109,1128,1148,1167,1189,1207,1228,1248,1269,1287,1309,1328,1349,1368,1389,1409,1427,1448,1469,1488,1508,1529,1548,1567,1589,1609,1629,1648,1668,1687,1708,1728,1748,1768,1787,1808,1828,1847,1868,1888,1908,1928,1947,1967,1987,2008,2029,2047,2068,2089,2109,2127,2147,2168,2187,2208,2229,2248],"xSR":741.5,"ySR":573.95,"xT1":424.9,"yT1":0,"xT2":1058.1,"yT2":0,"toosoon":0,"cond_shown":"randomdotsizeEA","ratio_trial":500,"smaller_num":"2","larger_num":"4","correct_side":1,"subjID":"SantiagoVelasquez20","gender":"0","age":"9","school":"4"},{"start_time":1552327939379,"click_time":1552327941000,"finger_time":1552327940380,"fix_duration":617.2571721370912,"trial":5,"RT":1001,"MT":620,"sideResp":1,"stimulus":"img/250/equaldotanddens/L/14_Ratio_250_L_12_R_3.png","xmouse":[773,773,773,773,773,773,773,773,773,773,773,773,773,773,773,773,773,773,773,773,773,773,773,773,773,773,773,773,773,773,773,773,773,773,773,773,773,773,773,773,773,773,773,773,773,773,773,773,773,772,768,764,759,742,734,724,711,698,660,650,640,629,621,606,599,592,586,580,569,555,549,547,544,543,540,540,540,538,533,529,524,521],"ymouse":[595,595,595,595,595,595,595,595,595,595,595,595,595,595,595,595,595,595,595,595,595,595,595,595,595,595,595,595,595,595,595,595,595,595,595,595,595,595,595,595,595,595,595,595,591,588,586,585,584,576,570,561,548,509,487,464,433,401,322,298,280,263,248,221,209,199,191,182,162,140,129,123,115,111,106,105,105,105,103,102,100,97],"timestamp_mouse":[14,29,41,60,81,102,121,141,162,182,202,221,242,260,282,300,320,342,362,380,401,421,442,460,481,502,521,542,562,581,602,622,640,662,682,701,720,741,761,782,801,820,842,860,881,902,922,941,960,980,1001,1022,1041,1061,1081,1101,1121,1141,1161,1180,1201,1220,1240,1262,1281,1301,1321,1341,1360,1380,1401,1421,1441,1461,1481,1501,1521,1542,1561,1581,1601,1621],"xSR":741.5,"ySR":573.95,"xT1":424.9,"yT1":0,"xT2":1058.1,"yT2":0,"toosoon":0,"cond_shown":"equaldotanddens","ratio_trial":250,"smaller_num":"3","larger_num":"12","correct_side":1,"subjID":"SantiagoVelasquez20","gender":"0","age":"9","school":"4"},{"start_time":1552327942419,"click_time":1552327943841,"finger_time":1552327943260,"fix_duration":496.744788463779,"trial":6,"RT":841,"MT":581,"sideResp":1,"stimulus":"img/500/equaldotsize/L/8_Ratio_500_L_8_R_4.png","xmouse":[809,809,809,809,809,809,809,809,809,809,807,806,806,806,806,806,806,806,806,806,806,806,806,806,806,806,806,806,806,806,806,806,806,806,806,806,806,806,806,802,799,789,756,717,699,646,602,464,415,385,373,368,367,367,366,366,366,366,366,366,366,366,373,381,387,393,398,408,410,414,419,425],"ymouse":[608,608,608,608,608,608,608,608,608,608,608,608,608,608,608,608,608,608,608,608,608,608,608,608,608,608,608,608,608,608,608,608,608,608,608,608,608,608,608,604,600,585,522,429,394,304,244,123,77,48,30,18,6,1,0,0,0,0,0,0,0,0,12,22,29,35,40,47,48,49,50,50],"timestamp_mouse":[11,21,41,61,81,102,121,141,160,180,201,222,242,260,281,301,321,342,361,382,400,421,441,461,482,501,520,541,561,582,601,622,642,662,680,700,720,741,760,780,801,822,841,862,881,901,920,940,960,981,1000,1020,1041,1061,1081,1101,1122,1140,1161,1182,1201,1222,1243,1260,1280,1301,1321,1341,1361,1382,1402,1422],"xSR":741.5,"ySR":573.95,"xT1":424.9,"yT1":0,"xT2":1058.1,"yT2":0,"toosoon":0,"cond_shown":"equaldotsize","ratio_trial":500,"smaller_num":"4","larger_num":"8","correct_side":1,"subjID":"SantiagoVelasquez20","gender":"0","age":"9","school":"4"},{"start_time":1552327945960,"click_time":1552327947500,"finger_time":1552327946840,"fix_duration":739.3184181042612,"trial":7,"RT":880,"MT":660,"sideResp":2,"stimulus":"img/750/equaldotanddens/R/4_Ratio_750_L_15_R_20.png","xmouse":[786,786,786,786,786,786,786,786,786,786,786,786,786,786,786,786,786,786,786,786,786,786,786,786,786,786,786,786,786,786,786,786,786,786,786,786,786,786,786,786,786,790,791,797,809,813,839,858,885,918,973,993,1006,1017,1031,1050,1060,1067,1073,1079,1083,1083,1083,1083,1083,1083,1083,1083,1083,1084,1088,1089,1090,1091,1091,1091,1091,1093],"ymouse":[604,604,604,604,604,604,604,604,604,604,604,604,604,604,604,604,604,604,604,604,604,604,604,604,604,604,604,604,604,604,604,604,604,604,604,604,604,604,604,604,604,601,599,590,572,567,524,501,462,425,360,336,316,298,271,229,204,178,157,140,130,130,130,130,130,130,130,130,130,128,119,113,110,108,106,105,103,99],"timestamp_mouse":[12,20,40,61,79,101,119,141,160,180,200,221,240,260,281,300,321,340,360,381,400,421,441,461,480,501,520,541,560,580,601,620,639,661,681,699,721,740,761,781,800,820,841,860,880,899,920,940,959,979,1000,1020,1041,1060,1080,1100,1119,1140,1161,1179,1201,1220,1240,1260,1280,1300,1321,1339,1359,1379,1401,1420,1441,1460,1480,1500,1519,1540],"xSR":741.5,"ySR":573.95,"xT1":424.9,"yT1":0,"xT2":1058.1,"yT2":0,"toosoon":0,"cond_shown":"equaldotanddens","ratio_trial":750,"smaller_num":"15","larger_num":"20","correct_side":2,"subjID":"SantiagoVelasquez20","gender":"0","age":"9","school":"4"},{"start_time":1552327949689,"click_time":1552327952080,"finger_time":1552327950380,"fix_duration":1068.8623687049278,"trial":8,"RT":691,"MT":1700,"sideResp":2,"stimulus":"img/900/equaldotsize/R/6_Ratio_900_L_9_R_10.png","xmouse":[787,787,787,787,787,787,787,787,787,787,787,787,787,787,787,787,787,787,787,787,787,787,787,787,787,787,787,787,787,787,787,783,777,771,757,752,747,746,745,740,736,730,725,720,711,701,692,683,674,655,646,636,626,620,609,606,603,602,602,602,602,602,601,601,600,600,600,600,600,600,599,598,597,597,594,593,593,592,591,590,590,592,594,597,612,626,653,672,692,736,758,781,802,820,854,859,860,861,864,889,913,941,966,989,1038,1056,1070,1082,1087,1091,1092,1095,1097,1098,1099,1099,1100,1100,1100,1102],"ymouse":[642,642,642,642,642,642,642,642,642,642,642,642,642,642,642,642,642,642,642,642,642,642,642,642,642,642,642,642,642,638,632,620,606,593,569,562,557,555,554,547,540,531,522,514,497,482,470,459,446,423,411,398,384,375,359,352,347,345,345,343,342,341,339,338,331,330,328,328,328,323,319,316,312,310,304,302,300,296,294,290,288,285,282,281,275,270,259,251,243,226,218,210,201,193,179,176,175,175,174,172,170,165,162,159,146,141,137,133,130,126,123,119,117,116,113,109,107,105,101,92],"timestamp_mouse":[11,33,51,71,91,112,130,150,171,191,212,232,251,272,291,311,331,350,370,391,412,432,451,471,491,511,532,550,571,590,611,631,651,671,691,711,731,750,771,792,811,830,851,872,891,910,931,951,971,992,1011,1030,1051,1070,1090,1111,1131,1152,1172,1192,1211,1231,1251,1270,1291,1311,1330,1351,1370,1390,1411,1431,1450,1472,1491,1512,1531,1551,1571,1591,1611,1631,1650,1671,1691,1711,1730,1752,1770,1790,1811,1831,1851,1870,1891,1911,1931,1952,1970,1990,2010,2031,2052,2072,2091,2111,2130,2150,2171,2190,2212,2231,2251,2271,2292,2311,2330,2351,2370,2390],"xSR":741.5,"ySR":573.95,"xT1":424.9,"yT1":0,"xT2":1058.1,"yT2":0,"toosoon":0,"cond_shown":"equaldotsize","ratio_trial":900,"smaller_num":"9","larger_num":"10","correct_side":2,"subjID":"SantiagoVelasquez20","gender":"0","age":"9","school":"4"},{"start_time":1552327954259,"click_time":1552327955880,"finger_time":1552327955139,"fix_duration":1418.7664797481334,"trial":9,"RT":880,"MT":741,"sideResp":2,"stimulus":"img/500/equaldotsize/R/9_Ratio_500_L_2_R_4.png","xmouse":[797,797,797,797,797,797,797,797,797,797,797,797,797,797,797,797,797,797,797,797,797,797,797,797,797,797,797,797,797,797,797,797,797,797,797,797,797,797,797,797,798,798,802,807,815,828,842,884,908,931,949,975,981,984,986,988,991,995,996,998,999,1013,1023,1038,1054,1068,1083,1084,1086,1086,1087,1087,1087,1087,1087,1087,1087,1087,1087,1089,1091,1095],"ymouse":[609,609,609,609,609,609,609,609,609,609,609,609,609,609,609,609,609,609,609,609,609,609,609,609,609,609,609,609,609,609,609,609,609,609,609,609,609,609,609,609,608,601,593,580,564,542,518,444,408,377,352,315,303,295,291,288,285,282,281,280,279,263,252,235,217,197,167,165,162,161,159,159,159,158,158,154,143,137,130,122,113,99],"timestamp_mouse":[9,21,41,62,80,100,122,142,161,181,201,221,240,261,282,301,321,342,362,381,400,422,442,461,482,501,521,541,561,581,601,620,642,661,680,701,721,742,762,782,802,821,841,861,880,900,921,941,961,980,1000,1020,1040,1061,1081,1102,1121,1141,1161,1180,1200,1221,1240,1260,1280,1301,1321,1340,1361,1382,1401,1421,1441,1461,1481,1501,1521,1541,1561,1580,1601,1620],"xSR":741.5,"ySR":573.95,"xT1":424.9,"yT1":0,"xT2":1058.1,"yT2":0,"toosoon":0,"cond_shown":"equaldotsize","ratio_trial":500,"smaller_num":"2","larger_num":"4","correct_side":2,"subjID":"SantiagoVelasquez20","gender":"0","age":"9","school":"4"},{"start_time":1552327957218,"click_time":1552327958561,"finger_time":1552327957960,"fix_duration":415.6048912474686,"trial":10,"RT":742,"MT":601,"sideResp":1,"stimulus":"img/250/equaldotsize/L/15_Ratio_250_L_12_R_3.png","xmouse":[773,773,777,780,781,781,781,781,781,781,781,781,781,781,781,781,781,781,781,781,781,781,781,781,781,781,781,781,781,781,781,781,782,782,777,770,760,745,736,719,714,701,687,670,623,604,586,557,544,523,516,512,509,506,502,501,501,501,501,501,501,498,496,493,492,491,489,486],"ymouse":[621,621,621,621,620,620,620,620,620,620,620,620,620,620,620,620,620,620,620,620,620,620,620,620,620,620,620,620,620,620,620,620,619,617,605,592,576,551,532,496,475,448,422,393,331,304,283,251,237,210,201,194,189,183,178,176,175,171,165,147,136,125,116,110,107,107,103,97],"timestamp_mouse":[10,23,41,61,81,101,122,142,161,181,203,222,242,261,281,302,323,342,362,382,401,421,441,462,482,502,522,543,563,582,603,623,642,662,682,702,721,741,762,783,802,821,841,862,882,901,921,943,962,983,1003,1022,1042,1061,1082,1102,1122,1142,1161,1182,1202,1221,1242,1263,1282,1302,1321,1343],"xSR":741.5,"ySR":573.95,"xT1":424.9,"yT1":0,"xT2":1058.1,"yT2":0,"toosoon":0,"cond_shown":"equaldotsize","ratio_trial":250,"smaller_num":"3","larger_num":"12","correct_side":1,"subjID":"SantiagoVelasquez20","gender":"0","age":"9","school":"4"},{"start_time":1552327960777,"click_time":1552327962220,"finger_time":1552327961600,"fix_duration":1234.0527891504194,"trial":11,"RT":823,"MT":620,"sideResp":1,"stimulus":"img/250/equaldotsize/L/14_Ratio_250_L_12_R_3.png","xmouse":[782,782,782,782,782,782,782,782,782,782,782,782,782,782,782,782,782,782,782,782,782,782,782,782,782,782,782,782,782,782,783,783,784,784,784,784,784,784,784,783,782,769,758,743,726,709,674,658,651,647,644,635,634,633,629,625,607,595,588,581,576,566,559,553,547,539,522,511,506,500,493,482,480],"ymouse":[607,607,607,607,607,607,607,607,607,607,607,607,607,607,607,607,607,607,607,607,607,607,607,607,607,607,607,607,607,607,607,605,605,602,600,597,593,590,588,587,582,552,531,505,476,443,376,334,304,278,255,224,217,212,204,196,172,160,156,152,152,151,151,150,149,149,142,135,131,123,113,100,97],"timestamp_mouse":[18,38,43,63,84,103,125,144,164,185,204,224,244,264,283,305,323,345,365,385,405,423,444,463,485,504,524,544,563,584,604,623,643,663,683,703,724,743,763,785,803,823,843,864,883,903,924,945,964,985,1003,1023,1044,1064,1083,1105,1124,1145,1164,1184,1203,1223,1243,1263,1284,1305,1323,1344,1363,1384,1403,1423,1443],"xSR":741.5,"ySR":573.95,"xT1":424.9,"yT1":0,"xT2":1058.1,"yT2":0,"toosoon":0,"cond_shown":"equaldotsize","ratio_trial":250,"smaller_num":"3","larger_num":"12","correct_side":1,"subjID":"SantiagoVelasquez20","gender":"0","age":"9","school":"4"},{"start_time":1552327964442,"click_time":1552327966061,"finger_time":1552327965400,"fix_duration":1239.579727864363,"trial":12,"RT":958,"MT":661,"sideResp":1,"stimulus":"img/250/equaldotsize/L/15_Ratio_250_L_12_R_3.png","xmouse":[790,790,790,790,790,790,790,790,790,790,790,790,790,790,790,790,790,790,790,790,790,790,790,790,790,790,790,790,790,790,790,790,790,790,790,790,790,790,792,792,793,793,793,793,793,793,792,788,764,750,733,717,705,685,682,679,676,668,645,632,619,605,591,561,553,546,540,535,527,525,524,523,523,523,523,523,522,522,519,517,515,513],"ymouse":[608,608,608,608,608,608,608,608,608,608,608,608,608,608,608,608,608,608,608,608,608,608,608,608,608,608,608,608,608,608,608,608,608,608,608,608,608,608,608,608,606,604,603,600,600,597,596,591,568,554,538,522,509,477,471,461,448,428,382,355,330,303,281,237,225,212,200,190,171,164,161,160,158,155,153,149,144,138,120,111,102,95],"timestamp_mouse":[1,19,39,58,78,98,120,140,159,179,199,218,239,259,280,299,318,340,360,379,400,419,439,459,478,500,519,540,559,578,598,618,638,658,678,698,718,738,759,779,799,820,839,858,878,898,918,940,958,978,999,1018,1039,1058,1078,1099,1118,1138,1159,1178,1198,1218,1238,1259,1279,1298,1319,1338,1370,1378,1399,1419,1439,1458,1478,1498,1519,1538,1558,1578,1599,1619],"xSR":741.5,"ySR":573.95,"xT1":424.9,"yT1":0,"xT2":1058.1,"yT2":0,"toosoon":0,"cond_shown":"equaldotsize","ratio_trial":250,"smaller_num":"3","larger_num":"12","correct_side":1,"subjID":"SantiagoVelasquez20","gender":"0","age":"9","school":"4"},{"start_time":1552327968843,"click_time":1552327970641,"finger_time":1552327970220,"fix_duration":380.2109023075258,"trial":13,"RT":1377,"MT":421,"sideResp":2,"stimulus":"img/900/equaldotsize/L/10_Ratio_900_L_20_R_18.png","xmouse":[809,809,809,809,809,809,809,809,809,809,809,809,809,809,809,809,809,809,809,809,809,809,809,809,809,809,809,809,809,809,809,809,809,809,809,809,809,809,809,809,809,809,809,809,809,809,809,809,809,809,809,809,809,809,809,809,809,809,809,809,809,809,809,809,809,809,817,832,966,1026,1054,1077,1081,1096,1102,1106,1114,1143,1155,1164,1171,1171,1171,1171,1171,1171,1171,1171,1141,1119],"ymouse":[610,610,610,610,610,610,610,610,610,610,610,610,610,610,610,610,610,610,610,610,610,610,610,610,610,610,610,610,610,610,610,610,610,610,610,610,610,610,610,610,610,610,610,610,610,610,610,610,610,610,610,610,610,610,610,610,610,610,610,610,610,610,610,610,610,610,608,601,531,505,494,483,480,450,435,407,358,244,208,188,176,175,175,175,174,170,160,144,107,85],"timestamp_mouse":[18,37,57,77,99,117,137,157,178,197,218,239,257,278,298,318,339,358,378,397,419,437,458,477,498,519,538,557,578,599,619,638,659,678,697,718,738,757,778,799,818,838,857,878,899,919,938,958,979,998,1017,1039,1058,1077,1099,1119,1138,1157,1177,1198,1219,1237,1258,1278,1297,1319,1338,1358,1377,1398,1418,1437,1457,1478,1497,1517,1537,1558,1577,1598,1617,1637,1658,1678,1697,1717,1737,1758,1777,1798],"xSR":741.5,"ySR":573.95,"xT1":424.9,"yT1":0,"xT2":1058.1,"yT2":0,"toosoon":0,"cond_shown":"equaldotsize","ratio_trial":900,"smaller_num":"18","larger_num":"20","correct_side":1,"subjID":"SantiagoVelasquez20","gender":"0","age":"9","school":"4"},{"start_time":1552327972112,"click_time":1552327973581,"finger_time":1552327972941,"fix_duration":250,"trial":14,"RT":829,"MT":640,"sideResp":1,"stimulus":"img/750/equaldotsize/L/1_Ratio_750_L_20_R_15.png","xmouse":[799,799,797,790,781,776,776,776,776,776,776,776,776,776,776,776,776,776,776,776,776,776,776,776,776,776,776,776,776,776,776,776,776,776,776,776,776,783,789,800,807,819,823,825,827,829,829,829,829,826,823,806,791,771,747,656,623,599,586,576,569,557,556,555,555,555,555,555,555,555,548,540,532,522],"ymouse":[599,599,598,599,601,602,602,602,602,602,602,602,602,602,602,602,602,602,602,602,602,602,602,602,602,602,602,602,602,602,602,602,602,602,602,602,602,598,596,589,584,571,564,557,550,538,526,521,515,507,494,457,431,404,368,258,222,197,181,166,155,139,137,137,137,137,137,137,137,135,125,114,102,87],"timestamp_mouse":[10,38,48,69,89,109,129,148,169,188,209,228,248,270,289,309,329,349,370,389,410,429,450,468,488,509,528,548,570,588,609,628,649,670,688,710,729,748,768,788,809,829,848,868,888,909,928,949,968,989,1008,1028,1048,1069,1090,1109,1129,1148,1168,1188,1209,1228,1249,1269,1290,1309,1328,1349,1369,1389,1409,1428,1449,1469],"xSR":741.5,"ySR":573.95,"xT1":424.9,"yT1":0,"xT2":1058.1,"yT2":0,"toosoon":0,"cond_shown":"equaldotsize","ratio_trial":750,"smaller_num":"15","larger_num":"20","correct_side":1,"subjID":"SantiagoVelasquez20","gender":"0","age":"9","school":"4"},{"start_time":1552327975854,"click_time":1552327977840,"finger_time":1552327977122,"fix_duration":1010.8703560183015,"trial":15,"RT":1268,"MT":718,"sideResp":1,"stimulus":"img/500/randomdotsizeEA/L/11_Ratio_500_L_12_R_6.png","xmouse":[778,779,779,779,779,779,779,779,779,779,779,779,779,779,779,779,779,779,779,779,779,779,779,779,779,779,779,779,779,779,779,780,782,782,783,783,783,783,783,783,783,783,783,783,783,783,783,783,783,783,783,783,783,783,783,783,783,783,783,780,775,768,759,739,727,705,690,669,649,623,615,610,606,602,597,592,588,584,576,564,561,558,555,551,533,530,524,521,519,517,514,513,512,510,506,504,501,499,497,492],"ymouse":[597,597,597,597,597,597,599,600,602,603,603,603,603,603,603,603,603,603,603,603,603,603,603,603,603,603,603,603,603,603,604,604,604,604,604,604,604,604,604,604,604,604,604,604,604,604,604,604,604,604,604,604,604,604,604,604,604,604,604,601,597,588,578,556,543,515,494,472,446,400,378,361,346,333,308,291,277,263,248,228,223,217,214,208,186,183,174,171,169,161,155,149,143,137,129,126,119,115,109,98],"timestamp_mouse":[14,32,47,67,86,107,127,146,166,186,208,227,246,267,286,307,328,347,367,387,407,426,448,467,487,508,527,548,567,586,608,627,646,667,686,707,726,746,767,787,806,827,848,867,887,908,927,948,967,986,1007,1027,1048,1066,1086,1106,1127,1148,1167,1186,1206,1227,1246,1268,1286,1307,1326,1346,1366,1386,1406,1426,1446,1467,1486,1508,1526,1546,1566,1586,1608,1628,1646,1666,1686,1707,1726,1747,1767,1786,1806,1826,1847,1867,1886,1907,1926,1946,1966,1986],"xSR":741.5,"ySR":573.95,"xT1":424.9,"yT1":0,"xT2":1058.1,"yT2":0,"toosoon":0,"cond_shown":"randomdotsizeEA","ratio_trial":500,"smaller_num":"6","larger_num":"12","correct_side":1,"subjID":"SantiagoVelasquez20","gender":"0","age":"9","school":"4"},{"start_time":1552327979152,"click_time":1552327981081,"finger_time":1552327980320,"fix_duration":250,"trial":16,"RT":1168,"MT":761,"sideResp":2,"stimulus":"img/900/randomdotsizeEA/R/13_Ratio_900_L_18_R_20.png","xmouse":[786,786,786,786,786,786,786,786,786,786,786,786,786,786,786,786,786,786,786,786,786,786,786,786,786,786,786,786,786,786,786,786,786,786,786,786,786,786,786,786,786,786,786,786,786,786,786,790,791,796,797,798,799,800,805,810,818,828,839,867,877,885,891,899,922,935,947,959,968,975,986,988,993,1000,1020,1028,1031,1033,1036,1038,1047,1053,1061,1068,1078,1082,1083,1083,1086,1089,1094,1097,1101,1106,1119,1130,1142],"ymouse":[634,634,634,634,634,634,634,634,634,634,634,634,634,634,634,634,634,634,634,634,634,634,634,634,634,634,634,634,634,634,634,634,634,634,634,634,634,634,634,634,634,634,634,634,634,634,634,632,631,627,625,623,621,619,614,607,597,582,568,525,508,494,481,467,438,425,415,404,396,389,376,374,370,366,353,347,343,337,330,324,306,297,286,275,255,248,243,238,228,218,199,190,178,165,129,104,83],"timestamp_mouse":[10,37,49,68,88,110,130,149,169,190,209,229,249,268,290,309,328,349,369,389,408,428,449,468,489,508,529,548,569,590,610,629,649,668,688,710,729,749,769,790,809,828,849,869,888,909,929,948,970,988,1008,1028,1049,1068,1088,1108,1128,1149,1168,1188,1209,1228,1249,1268,1288,1308,1328,1349,1369,1388,1409,1428,1448,1469,1489,1508,1529,1549,1568,1588,1609,1629,1648,1668,1689,1708,1728,1748,1768,1788,1809,1828,1848,1868,1889,1909,1929],"xSR":741.5,"ySR":573.95,"xT1":424.9,"yT1":0,"xT2":1058.1,"yT2":0,"toosoon":0,"cond_shown":"randomdotsizeEA","ratio_trial":900,"smaller_num":"18","larger_num":"20","correct_side":2,"subjID":"SantiagoVelasquez20","gender":"0","age":"9","school":"4"},{"start_time":1552327983105,"click_time":1552327984561,"finger_time":1552327984020,"fix_duration":822.0874517394108,"trial":17,"RT":915,"MT":541,"sideResp":2,"stimulus":"img/900/equaldotsize/R/9_Ratio_900_L_18_R_20.png","xmouse":[773,773,773,773,773,773,773,774,774,774,774,774,774,774,774,774,774,774,774,774,774,774,774,774,774,774,774,774,774,774,774,774,774,774,774,774,774,774,774,774,774,774,776,780,788,796,823,842,867,924,988,1048,1143,1165,1176,1184,1191,1204,1213,1221,1224,1224,1224,1224,1224,1222,1220,1210,1201,1181,1169,1160,1149],"ymouse":[592,592,592,592,592,592,593,593,593,593,593,593,593,593,593,593,593,593,593,593,593,593,593,593,593,593,593,593,593,593,593,593,593,593,593,593,593,593,593,593,593,593,593,589,580,569,536,515,487,440,403,372,301,275,249,227,205,170,152,131,121,116,113,112,111,109,106,97,91,79,71,65,59],"timestamp_mouse":[16,36,55,75,96,116,135,156,176,197,217,236,255,276,297,317,336,356,375,397,417,436,456,476,495,517,535,556,576,596,616,636,657,675,696,716,735,757,776,796,816,835,857,877,897,915,936,955,975,995,1016,1035,1055,1075,1095,1115,1137,1156,1176,1195,1216,1235,1255,1277,1296,1317,1336,1355,1376,1395,1416,1436,1456],"xSR":741.5,"ySR":573.95,"xT1":424.9,"yT1":0,"xT2":1058.1,"yT2":0,"toosoon":0,"cond_shown":"equaldotsize","ratio_trial":900,"smaller_num":"18","larger_num":"20","correct_side":2,"subjID":"SantiagoVelasquez20","gender":"0","age":"9","school":"4"},{"start_time":1552327986179,"click_time":1552327988081,"finger_time":1552327987320,"fix_duration":297.3911103054291,"trial":18,"RT":1141,"MT":761,"sideResp":1,"stimulus":"img/500/randomdotsizeEA/L/7_Ratio_500_L_10_R_5.png","xmouse":[799,799,799,799,799,799,799,799,799,799,799,799,799,799,799,799,799,799,799,799,799,799,799,799,799,799,799,799,799,799,799,799,799,799,799,799,799,799,799,799,799,799,799,798,793,791,790,789,789,789,789,789,789,789,786,784,781,780,779,774,770,766,761,757,736,727,718,710,702,688,680,675,670,665,649,640,632,623,614,594,584,571,559,546,539,539,539,537,536,531,528,524,519,512,493,485],"ymouse":[598,598,598,598,598,598,598,598,598,598,598,598,598,598,598,598,598,598,598,598,598,598,598,598,598,598,598,598,598,598,598,598,598,598,598,598,598,598,598,598,598,598,598,597,591,589,587,584,584,584,584,584,584,584,579,577,574,573,572,565,559,550,543,535,506,494,479,465,451,426,416,409,403,397,373,361,347,329,306,251,224,203,187,177,172,172,172,170,169,164,159,153,145,135,100,86],"timestamp_mouse":[10,32,42,62,81,101,122,142,163,181,202,222,242,263,282,301,322,341,361,383,401,422,443,462,481,501,522,541,561,582,601,622,643,662,682,702,723,743,763,781,801,822,843,862,881,901,921,942,963,981,1003,1023,1042,1063,1082,1103,1121,1141,1161,1181,1203,1221,1241,1261,1281,1302,1321,1341,1363,1382,1401,1421,1441,1462,1482,1501,1521,1542,1562,1582,1601,1622,1642,1662,1681,1703,1723,1742,1763,1781,1802,1822,1841,1862,1881,1902],"xSR":741.5,"ySR":573.95,"xT1":424.9,"yT1":0,"xT2":1058.1,"yT2":0,"toosoon":0,"cond_shown":"randomdotsizeEA","ratio_trial":500,"smaller_num":"5","larger_num":"10","correct_side":1,"subjID":"SantiagoVelasquez20","gender":"0","age":"9","school":"4"},{"start_time":1552327990189,"click_time":1552327991661,"finger_time":1552327991061,"fix_duration":726.6398835186643,"trial":19,"RT":872,"MT":600,"sideResp":1,"stimulus":"img/900/equaldotanddens/L/10_Ratio_900_L_20_R_18.png","xmouse":[769,769,769,769,769,769,769,769,769,769,769,769,769,769,769,769,769,769,769,769,769,769,769,769,769,769,769,769,769,769,769,769,769,769,769,769,769,769,769,770,771,771,768,728,707,690,675,652,616,603,592,585,580,571,567,563,555,548,538,534,529,522,515,498,495,495,493,492,491,487,486,486,485,483],"ymouse":[594,594,594,594,594,594,594,594,594,594,594,594,594,594,594,594,594,594,594,594,594,594,594,594,594,594,594,594,594,594,594,594,594,594,594,594,594,594,594,594,592,590,585,548,527,498,463,419,349,322,301,288,280,264,257,250,239,230,215,206,197,186,175,156,151,149,144,139,133,123,119,114,108,83],"timestamp_mouse":[13,32,52,71,92,113,132,151,172,193,213,232,252,272,291,311,333,353,371,393,412,432,452,472,493,511,532,553,572,591,612,633,653,672,693,712,732,751,771,792,811,831,853,872,892,911,932,951,971,991,1011,1032,1051,1071,1091,1111,1131,1151,1172,1191,1212,1232,1251,1271,1291,1312,1332,1352,1371,1393,1411,1431,1452,1472],"xSR":741.5,"ySR":573.95,"xT1":424.9,"yT1":0,"xT2":1058.1,"yT2":0,"toosoon":0,"cond_shown":"equaldotanddens","ratio_trial":900,"smaller_num":"18","larger_num":"20","correct_side":1,"subjID":"SantiagoVelasquez20","gender":"0","age":"9","school":"4"},{"start_time":1552327993828,"click_time":1552327995621,"finger_time":1552327994660,"fix_duration":1046.4159224636614,"trial":20,"RT":832,"MT":961,"sideResp":2,"stimulus":"img/750/equaldotanddens/R/11_Ratio_750_L_12_R_16.png","xmouse":[801,801,801,801,801,801,801,801,801,801,801,801,801,801,801,799,797,795,795,795,795,795,795,795,795,795,795,795,795,795,795,795,795,795,795,795,795,796,801,804,814,825,840,845,850,857,863,880,889,904,916,928,948,955,961,966,976,980,987,994,998,1006,1009,1013,1016,1020,1025,1039,1050,1063,1071,1081,1096,1103,1108,1111,1111,1111,1111,1111,1111,1111,1111,1111,1111,1112,1112,1112,1112,1112],"ymouse":[609,609,609,609,609,609,609,609,609,609,609,609,609,609,609,610,611,611,611,611,611,611,611,611,611,611,611,611,611,611,611,611,611,611,611,611,610,606,597,593,577,564,538,526,515,502,490,455,434,397,368,341,295,278,265,255,241,236,232,228,224,217,214,209,205,201,195,184,177,166,158,148,130,124,120,117,117,117,117,117,117,117,117,117,117,117,110,103,101,93],"timestamp_mouse":[14,35,52,73,92,113,134,153,173,193,212,233,252,273,293,313,333,353,373,392,414,433,453,473,494,512,534,552,573,594,613,634,653,673,693,712,732,752,773,794,813,832,853,872,892,912,933,952,973,992,1012,1033,1053,1073,1094,1112,1134,1152,1173,1193,1213,1234,1253,1273,1293,1313,1332,1352,1373,1392,1412,1433,1453,1473,1494,1513,1532,1553,1572,1593,1612,1632,1652,1672,1694,1714,1734,1753,1772,1792],"xSR":741.5,"ySR":573.95,"xT1":424.9,"yT1":0,"xT2":1058.1,"yT2":0,"toosoon":0,"cond_shown":"equaldotanddens","ratio_trial":750,"smaller_num":"12","larger_num":"16","correct_side":2,"subjID":"SantiagoVelasquez20","gender":"0","age":"9","school":"4"},{"start_time":1552327997287,"click_time":1552327998980,"finger_time":1552327998020,"fix_duration":545.7542446601043,"trial":21,"RT":733,"MT":960,"sideResp":1,"stimulus":"img/750/equaldotanddens/L/14_Ratio_750_L_8_R_6.png","xmouse":[785,786,787,788,788,788,788,788,788,788,788,788,788,788,788,789,789,790,790,790,790,790,790,790,791,792,793,793,793,793,793,793,793,793,789,775,768,758,750,742,735,735,734,734,734,734,734,733,733,733,733,733,733,732,730,727,724,718,712,700,696,691,685,678,667,661,656,650,646,634,629,624,617,612,606,602,598,596,588,582,564,549,541,532,519],"ymouse":[606,606,606,606,606,606,606,606,606,606,606,606,606,606,606,606,606,606,606,606,606,606,606,606,606,605,605,605,605,605,605,604,604,602,596,578,568,552,539,527,517,516,516,516,512,511,508,506,505,504,503,501,495,489,475,467,460,452,445,429,423,415,407,397,380,371,363,353,344,324,313,299,285,264,244,232,223,212,195,179,146,126,114,101,81],"timestamp_mouse":[15,33,53,74,93,113,133,154,173,193,213,233,253,273,293,313,333,353,373,393,413,433,453,473,493,513,533,553,573,593,613,633,653,673,693,713,733,753,773,793,813,834,853,874,893,914,934,954,975,995,1014,1034,1053,1074,1093,1113,1134,1155,1175,1193,1215,1235,1254,1275,1293,1314,1334,1355,1374,1393,1415,1434,1455,1475,1493,1514,1535,1554,1575,1594,1614,1634,1654,1674,1693],"xSR":741.5,"ySR":573.95,"xT1":424.9,"yT1":0,"xT2":1058.1,"yT2":0,"toosoon":0,"cond_shown":"equaldotanddens","ratio_trial":750,"smaller_num":"6","larger_num":"8","correct_side":1,"subjID":"SantiagoVelasquez20","gender":"0","age":"9","school":"4"},{"start_time":1552328000093,"click_time":1552328001880,"finger_time":1552328000940,"fix_duration":250,"trial":22,"RT":847,"MT":940,"sideResp":2,"stimulus":"img/500/equaldotsize/R/9_Ratio_500_L_2_R_4.png","xmouse":[786,786,786,786,786,786,786,786,786,786,786,786,786,786,786,786,786,786,786,786,786,786,786,786,786,786,786,786,786,786,786,786,786,786,786,786,786,786,788,791,805,832,856,881,914,972,998,1017,1027,1032,1036,1040,1042,1048,1052,1057,1060,1063,1066,1070,1081,1083,1087,1089,1090,1095,1098,1099,1101,1102,1104,1104,1104,1104,1104,1104,1104,1104,1104,1104,1104,1104,1104,1103,1103,1103,1103,1103,1103,1103],"ymouse":[603,603,603,603,603,603,603,603,603,603,603,603,603,603,603,603,603,603,603,603,603,603,603,603,603,603,603,603,603,603,603,603,603,603,603,603,603,603,603,603,597,586,575,562,539,480,447,413,389,370,349,339,335,326,318,299,288,280,268,258,235,232,221,215,209,198,193,189,183,177,166,158,156,149,145,144,142,140,139,139,137,136,132,131,128,119,114,108,102,97],"timestamp_mouse":[13,32,48,68,88,108,127,149,169,188,207,229,247,268,289,308,328,347,368,388,409,428,448,468,488,508,529,548,568,587,608,629,648,667,687,708,729,748,767,788,807,828,847,868,888,907,927,948,967,987,1007,1029,1047,1068,1089,1109,1128,1149,1169,1189,1207,1228,1247,1267,1289,1307,1329,1347,1367,1387,1407,1427,1447,1469,1489,1507,1527,1547,1567,1588,1607,1628,1647,1668,1687,1707,1727,1747,1768,1787],"xSR":741.5,"ySR":573.95,"xT1":424.9,"yT1":0,"xT2":1058.1,"yT2":0,"toosoon":0,"cond_shown":"equaldotsize","ratio_trial":500,"smaller_num":"2","larger_num":"4","correct_side":2,"subjID":"SantiagoVelasquez20","gender":"0","age":"9","school":"4"},{"start_time":1552328003404,"click_time":1552328004581,"finger_time":1552328004001,"fix_duration":522.9823232281032,"trial":23,"RT":597,"MT":580,"sideResp":1,"stimulus":"img/500/randomdotsizeEA/L/10_Ratio_500_L_4_R_2.png","xmouse":[790,790,790,790,790,790,790,790,790,790,790,790,790,790,790,790,790,790,790,790,790,790,790,790,790,790,791,791,789,779,774,769,764,760,742,731,719,700,683,648,636,625,616,608,589,581,577,574,573,573,573,572,572,568,550,543,534,527,522],"ymouse":[607,607,607,607,607,607,607,607,607,607,607,607,607,607,607,607,607,607,607,607,607,607,607,607,607,607,606,602,592,559,542,525,509,493,450,426,396,355,315,243,218,193,172,153,115,106,101,98,98,98,98,97,97,96,92,90,87,85,83],"timestamp_mouse":[19,37,58,78,96,117,137,158,177,196,217,237,256,277,296,316,337,356,376,397,416,436,456,476,496,517,536,556,578,597,616,637,657,676,697,716,737,756,777,798,816,836,856,876,897,917,937,957,976,996,1017,1036,1056,1078,1096,1116,1137,1156,1177],"xSR":741.5,"ySR":573.95,"xT1":424.9,"yT1":0,"xT2":1058.1,"yT2":0,"toosoon":0,"cond_shown":"randomdotsizeEA","ratio_trial":500,"smaller_num":"2","larger_num":"4","correct_side":1,"subjID":"SantiagoVelasquez20","gender":"0","age":"9","school":"4"},{"start_time":1552328006891,"click_time":1552328008380,"finger_time":1552328007501,"fix_duration":1268.7758185925254,"trial":24,"RT":610,"MT":879,"sideResp":1,"stimulus":"img/500/equaldotanddens/L/13_Ratio_500_L_12_R_6.png","xmouse":[778,778,778,778,778,778,778,778,778,778,778,778,778,778,778,778,778,778,778,778,778,778,778,778,778,778,778,778,778,777,764,757,751,744,735,715,707,702,699,697,661,642,633,624,615,603,600,597,593,591,585,583,582,581,579,574,570,565,560,551,544,531,528,525,523,520,519,518,517,515,514,513,512,510,509],"ymouse":[611,611,611,611,611,611,611,611,611,611,611,611,611,611,611,611,611,611,611,611,611,611,611,611,611,611,611,610,607,599,565,549,536,526,517,498,487,475,463,452,389,359,334,312,295,264,251,242,235,230,221,219,217,216,215,211,207,203,197,186,177,163,159,154,150,140,136,134,130,123,116,111,106,101,97],"timestamp_mouse":[9,35,50,70,90,110,129,151,169,190,211,230,249,269,291,310,329,350,369,390,410,431,451,469,489,510,531,551,569,590,610,630,649,670,689,709,729,749,769,790,809,830,849,870,891,910,929,949,969,990,1010,1030,1049,1070,1090,1110,1129,1149,1170,1190,1210,1229,1250,1270,1291,1310,1329,1350,1369,1390,1409,1429,1449,1469,1489],"xSR":741.5,"ySR":573.95,"xT1":424.9,"yT1":0,"xT2":1058.1,"yT2":0,"toosoon":0,"cond_shown":"equaldotanddens","ratio_trial":500,"smaller_num":"6","larger_num":"12","correct_side":1,"subjID":"SantiagoVelasquez20","gender":"0","age":"9","school":"4"},{"start_time":1552328010200,"click_time":1552328012420,"finger_time":1552328011222,"fix_duration":918.7644326756357,"trial":25,"RT":1022,"MT":1198,"sideResp":2,"stimulus":"img/750/equaldotanddens/R/12_Ratio_750_L_3_R_4.png","xmouse":[789,789,789,789,790,790,790,790,791,791,791,791,791,791,791,791,791,791,791,791,791,791,791,791,791,791,791,791,791,791,791,791,791,791,791,792,792,793,793,793,793,794,794,794,794,795,796,797,799,801,805,816,824,832,837,841,852,857,863,868,873,881,886,895,904,911,932,941,948,954,957,961,964,969,979,990,1012,1022,1033,1045,1053,1058,1058,1058,1058,1058,1059,1059,1059,1059,1060,1067,1071,1074,1078,1082,1091,1094,1098,1099,1101,1101,1101,1101,1101,1101,1101,1101,1101,1101,1101,1100],"ymouse":[646,646,646,646,646,645,643,642,640,638,636,633,633,633,633,633,633,633,633,633,633,633,633,633,633,633,633,633,633,633,633,633,633,633,633,631,631,628,627,625,622,619,618,617,616,612,608,601,595,585,574,544,519,501,483,464,427,409,393,383,375,366,363,357,350,343,325,316,309,303,300,294,290,285,275,265,245,230,211,194,182,173,173,173,173,173,173,173,172,172,170,166,162,159,155,151,140,133,125,121,117,114,114,114,114,114,114,111,109,104,102,97],"timestamp_mouse":[10,30,41,60,82,100,120,140,161,181,201,220,241,261,280,300,320,340,360,382,401,420,442,461,480,501,520,540,561,580,601,621,642,661,681,701,720,741,760,780,801,820,841,861,882,902,920,942,961,980,1002,1022,1041,1060,1080,1102,1121,1141,1160,1181,1200,1220,1240,1260,1280,1301,1321,1342,1360,1380,1400,1420,1441,1460,1481,1500,1521,1542,1561,1580,1601,1621,1641,1661,1681,1700,1722,1741,1760,1781,1800,1820,1840,1860,1881,1900,1920,1940,1961,1980,2001,2020,2041,2060,2080,2101,2121,2142,2162,2181,2201,2220],"xSR":741.5,"ySR":573.95,"xT1":424.9,"yT1":0,"xT2":1058.1,"yT2":0,"toosoon":0,"cond_shown":"equaldotanddens","ratio_trial":750,"smaller_num":"3","larger_num":"4","correct_side":2,"subjID":"SantiagoVelasquez20","gender":"0","age":"9","school":"4"},{"start_time":1552328013792,"click_time":1552328015600,"finger_time":1552328014820,"fix_duration":250,"trial":26,"RT":1028,"MT":780,"sideResp":2,"stimulus":"img/750/equaldotsize/R/3_Ratio_750_L_15_R_20.png","xmouse":[791,791,791,791,791,791,791,791,791,791,791,792,792,792,792,792,792,792,792,793,793,793,793,793,793,793,793,793,793,793,793,793,793,793,793,793,793,792,792,794,795,803,804,805,808,809,813,814,817,819,822,831,837,842,850,857,878,889,901,914,924,958,976,995,1016,1028,1043,1045,1045,1045,1045,1046,1046,1050,1052,1054,1058,1061,1063,1064,1065,1067,1068,1068,1068,1070,1078,1082,1087,1088,1090],"ymouse":[621,621,621,621,621,621,621,621,621,620,620,619,619,619,618,618,618,618,618,618,618,618,618,618,618,618,618,618,618,618,618,618,618,617,617,617,617,617,616,613,612,604,601,597,594,592,586,584,582,580,577,568,563,560,555,551,535,527,517,506,496,440,409,377,342,318,286,277,273,270,268,260,255,247,238,231,216,210,206,201,197,189,188,188,183,175,149,135,120,108,92],"timestamp_mouse":[9,36,50,68,88,110,128,150,169,189,209,228,248,269,288,309,329,348,370,389,410,429,449,469,489,510,530,549,569,588,609,629,649,669,690,710,730,748,768,789,809,829,849,868,888,909,929,950,969,989,1008,1028,1048,1068,1089,1109,1129,1150,1168,1189,1209,1229,1248,1268,1288,1309,1328,1348,1368,1388,1408,1429,1450,1468,1489,1508,1529,1548,1568,1589,1609,1629,1650,1669,1688,1709,1728,1748,1769,1790,1808],"xSR":741.5,"ySR":573.95,"xT1":424.9,"yT1":0,"xT2":1058.1,"yT2":0,"toosoon":0,"cond_shown":"equaldotsize","ratio_trial":750,"smaller_num":"15","larger_num":"20","correct_side":2,"subjID":"SantiagoVelasquez20","gender":"0","age":"9","school":"4"},{"start_time":1552328017541,"click_time":1552328019201,"finger_time":1552328018442,"fix_duration":1019.6757462672144,"trial":27,"RT":901,"MT":759,"sideResp":1,"stimulus":"img/900/equaldotanddens/L/1_Ratio_900_L_10_R_9.png","xmouse":[785,785,785,785,785,785,785,785,785,785,785,785,785,785,785,785,785,785,785,785,785,785,785,785,785,785,785,785,785,785,785,785,785,785,785,785,785,785,785,785,785,785,785,781,774,762,756,752,748,744,742,740,737,731,725,714,707,700,691,683,667,654,650,635,625,609,600,592,583,575,557,548,541,537,536,535,535,535,535,535,530,528,526,523],"ymouse":[607,607,607,607,607,607,607,607,607,607,607,607,607,607,607,607,607,607,607,607,607,607,607,607,607,607,607,607,607,607,607,607,607,607,607,607,607,607,607,607,607,607,606,598,589,568,557,548,538,526,521,515,507,492,479,450,433,413,393,372,328,292,281,246,224,184,163,145,127,112,84,73,63,59,58,57,57,57,57,57,56,56,56,56],"timestamp_mouse":[11,21,40,60,80,101,121,139,159,180,201,219,240,260,279,299,320,340,361,379,401,421,439,461,479,499,519,541,560,579,599,620,641,661,680,699,721,740,761,781,799,820,839,860,879,901,920,940,959,980,999,1019,1039,1060,1079,1099,1119,1139,1159,1179,1199,1219,1239,1259,1279,1300,1321,1341,1359,1379,1399,1420,1439,1459,1480,1500,1519,1539,1560,1579,1599,1620,1640,1660],"xSR":741.5,"ySR":573.95,"xT1":424.9,"yT1":0,"xT2":1058.1,"yT2":0,"toosoon":0,"cond_shown":"equaldotanddens","ratio_trial":900,"smaller_num":"9","larger_num":"10","correct_side":1,"subjID":"SantiagoVelasquez20","gender":"0","age":"9","school":"4"},{"start_time":1552328020970,"click_time":1552328022741,"finger_time":1552328021862,"fix_duration":687.5256282154803,"trial":28,"RT":892,"MT":879,"sideResp":1,"stimulus":"img/900/equaldotanddens/L/8_Ratio_900_L_20_R_18.png","xmouse":[785,785,785,785,785,785,785,785,785,785,785,785,785,785,785,785,785,785,785,785,785,785,785,785,785,785,785,785,785,785,785,785,785,785,785,785,781,781,777,775,774,772,770,762,755,747,740,732,719,713,707,704,701,696,691,682,675,669,655,645,640,634,627,604,595,589,584,579,569,560,557,553,549,543,537,532,526,522,516,514,513,511,510,509,508,507,507,506,505],"ymouse":[616,616,616,616,616,616,616,616,616,616,616,616,616,616,616,616,616,616,616,616,616,616,616,616,616,616,616,616,616,616,616,616,616,616,616,616,616,615,614,613,613,610,606,585,571,555,538,521,489,477,462,454,448,434,424,410,397,384,355,334,324,313,303,281,269,256,242,229,206,189,179,172,164,154,145,137,129,123,115,113,112,112,112,110,109,108,106,104,97],"timestamp_mouse":[13,32,50,72,92,111,131,151,172,191,211,230,252,270,292,311,330,350,372,390,411,431,450,472,490,512,532,550,571,592,612,630,650,670,692,710,730,751,770,790,811,830,850,871,892,911,931,950,970,991,1011,1032,1050,1070,1090,1111,1130,1151,1171,1191,1211,1230,1250,1271,1291,1311,1331,1351,1371,1390,1410,1430,1450,1470,1491,1511,1530,1551,1571,1591,1610,1630,1650,1671,1692,1712,1732,1752,1771],"xSR":741.5,"ySR":573.95,"xT1":424.9,"yT1":0,"xT2":1058.1,"yT2":0,"toosoon":0,"cond_shown":"equaldotanddens","ratio_trial":900,"smaller_num":"18","larger_num":"20","correct_side":1,"subjID":"SantiagoVelasquez20","gender":"0","age":"9","school":"4"},{"start_time":1552328024686,"click_time":1552328025921,"finger_time":1552328025360,"fix_duration":544.6212047024595,"trial":29,"RT":674,"MT":561,"sideResp":2,"stimulus":"img/250/equaldotanddens/R/12_Ratio_250_L_5_R_20.png","xmouse":[798,799,799,799,799,799,799,799,799,799,799,799,799,799,799,799,799,799,799,799,799,799,799,799,799,799,799,799,799,799,801,803,838,855,871,890,920,993,1016,1027,1034,1040,1045,1051,1054,1056,1057,1060,1061,1062,1064,1068,1078,1080,1084,1088,1093,1103,1105,1106,1106,1106],"ymouse":[606,607,607,607,607,607,607,607,607,607,607,607,607,607,607,607,607,607,607,607,607,607,607,607,607,607,607,607,607,607,607,605,578,563,548,529,502,436,401,375,351,328,299,267,257,248,243,235,233,232,230,227,217,213,204,189,170,133,118,107,101,97],"timestamp_mouse":[14,35,56,76,95,116,134,155,175,196,215,236,255,274,295,315,335,356,376,396,415,435,454,474,494,514,534,555,576,595,615,635,654,674,694,715,734,754,775,795,814,835,855,874,895,915,934,955,974,996,1015,1035,1055,1074,1094,1114,1134,1154,1174,1194,1214,1234],"xSR":741.5,"ySR":573.95,"xT1":424.9,"yT1":0,"xT2":1058.1,"yT2":0,"toosoon":0,"cond_shown":"equaldotanddens","ratio_trial":250,"smaller_num":"5","larger_num":"20","correct_side":2,"subjID":"SantiagoVelasquez20","gender":"0","age":"9","school":"4"},{"start_time":1552328028283,"click_time":1552328029401,"finger_time":1552328029200,"fix_duration":1280.2913099126038,"trial":30,"RT":917,"MT":201,"sideResp":2,"stimulus":"img/500/equaldotsize/R/15_Ratio_500_L_1_R_2.png","xmouse":[800,800,800,800,800,800,800,800,800,800,800,800,800,799,799,799,799,799,799,799,799,798,797,797,797,797,797,797,797,796,796,796,796,796,796,796,796,796,796,796,796,796,797,804,810,820,833,850,891,910,933,966,990,1031,1048,1059],"ymouse":[603,603,603,603,603,603,603,603,603,603,603,603,603,604,604,604,604,604,604,604,604,604,604,604,604,604,604,604,604,603,603,603,603,603,602,602,602,601,601,600,599,597,594,584,575,560,543,518,463,436,400,333,289,172,107,69],"timestamp_mouse":[17,38,58,78,99,118,137,157,178,199,217,237,259,278,297,318,338,359,378,398,418,438,458,477,498,519,537,559,579,599,618,639,659,679,698,717,738,759,779,797,817,838,858,878,897,917,937,957,977,998,1018,1037,1057,1078,1098,1118],"xSR":741.5,"ySR":573.95,"xT1":424.9,"yT1":0,"xT2":1058.1,"yT2":0,"toosoon":0,"cond_shown":"equaldotsize","ratio_trial":500,"smaller_num":"1","larger_num":"2","correct_side":2,"subjID":"SantiagoVelasquez20","gender":"0","age":"9","school":"4"},{"start_time":1552328031561,"click_time":1552328033601,"finger_time":1552328032601,"fix_duration":777.502121472422,"trial":31,"RT":1040,"MT":1000,"sideResp":2,"stimulus":"img/500/equaldotanddens/R/2_Ratio_500_L_3_R_6.png","xmouse":[793,793,793,793,793,793,793,793,793,793,793,793,793,793,793,793,793,793,793,793,793,793,793,793,793,793,793,793,793,793,793,793,793,793,793,793,793,793,793,793,793,793,793,793,794,797,799,802,804,806,811,814,820,829,838,864,876,887,898,907,924,930,944,960,974,992,1001,1003,1005,1008,1011,1013,1014,1016,1018,1023,1025,1027,1030,1033,1040,1044,1049,1055,1061,1065,1067,1068,1069,1069,1069,1069,1069,1070,1070,1074,1078,1079,1081,1083,1089,1092,1096],"ymouse":[615,615,615,615,615,615,615,615,615,615,615,615,615,615,615,615,615,615,615,615,615,615,615,615,615,615,615,615,615,615,615,615,615,615,615,615,615,615,615,615,615,615,615,615,615,609,605,598,594,589,581,577,567,554,539,504,486,471,455,439,415,407,392,378,366,343,330,325,320,315,303,295,286,279,271,254,247,240,235,227,215,208,199,193,187,176,169,166,164,163,163,162,161,158,156,144,136,130,124,117,105,101,94],"timestamp_mouse":[11,22,40,60,81,101,119,139,159,180,199,219,240,259,280,300,321,341,359,380,401,420,441,460,479,499,520,541,561,579,599,620,640,660,681,701,721,740,759,780,800,819,841,860,880,899,919,940,961,979,999,1020,1040,1059,1080,1099,1119,1139,1160,1180,1200,1219,1240,1259,1279,1300,1320,1339,1359,1379,1400,1421,1440,1459,1479,1499,1520,1539,1561,1581,1599,1619,1640,1660,1680,1700,1720,1739,1760,1779,1801,1820,1839,1859,1879,1899,1919,1939,1960,1981,2000,2021,2039],"xSR":741.5,"ySR":573.95,"xT1":424.9,"yT1":0,"xT2":1058.1,"yT2":0,"toosoon":0,"cond_shown":"equaldotanddens","ratio_trial":500,"smaller_num":"3","larger_num":"6","correct_side":2,"subjID":"SantiagoVelasquez20","gender":"0","age":"9","school":"4"},{"start_time":1552328034934,"click_time":1552328037101,"finger_time":1552328036382,"fix_duration":250,"trial":32,"RT":1448,"MT":719,"sideResp":2,"stimulus":"img/900/randomdotsizeEA/R/3_Ratio_900_L_9_R_10.png","xmouse":[767,767,767,767,767,767,767,767,767,767,767,767,767,767,767,767,767,767,767,767,767,767,767,767,767,767,767,767,767,767,767,767,767,767,767,767,767,767,767,767,767,767,767,767,767,767,768,768,768,768,768,768,768,768,768,768,768,768,768,768,768,768,768,768,768,769,772,777,782,787,797,821,833,847,863,878,917,934,948,960,971,991,1001,1012,1022,1029,1045,1050,1053,1054,1054,1058,1061,1063,1067,1072,1078,1079,1081,1084,1088,1094,1094,1096,1096,1098,1103,1106,1108],"ymouse":[622,622,622,622,622,622,622,622,622,622,622,622,622,622,622,622,622,622,622,622,622,622,622,622,622,622,622,622,622,622,622,622,622,622,622,622,622,622,622,622,622,622,622,622,622,622,622,622,622,622,622,622,622,622,622,622,622,622,622,622,622,622,622,622,622,621,618,614,609,604,597,580,571,559,545,528,473,448,422,401,379,341,321,302,284,267,232,220,212,207,202,192,185,177,166,157,141,140,137,134,131,126,125,122,121,117,108,103,97],"timestamp_mouse":[12,38,48,67,87,107,128,148,167,187,206,228,248,267,287,308,327,348,366,388,408,427,446,466,486,508,527,548,566,588,607,628,647,668,688,706,726,747,768,787,808,827,846,866,886,908,928,946,967,988,1008,1026,1046,1068,1087,1107,1128,1147,1168,1187,1208,1227,1248,1267,1287,1307,1326,1346,1366,1387,1407,1427,1448,1466,1486,1507,1527,1547,1566,1586,1607,1628,1647,1667,1688,1707,1726,1746,1767,1786,1806,1827,1846,1867,1886,1907,1927,1948,1967,1988,2006,2026,2046,2067,2087,2107,2127,2148,2167],"xSR":741.5,"ySR":573.95,"xT1":424.9,"yT1":0,"xT2":1058.1,"yT2":0,"toosoon":0,"cond_shown":"randomdotsizeEA","ratio_trial":900,"smaller_num":"9","larger_num":"10","correct_side":2,"subjID":"SantiagoVelasquez20","gender":"0","age":"9","school":"4"},{"start_time":1552328039137,"click_time":1552328040981,"finger_time":1552328040021,"fix_duration":553.6020124196772,"trial":33,"RT":884,"MT":960,"sideResp":1,"stimulus":"img/750/randomdotsizeEA/L/6_Ratio_750_L_24_R_18.png","xmouse":[807,807,807,807,807,807,807,807,806,806,806,806,805,805,805,805,805,805,805,805,805,805,803,802,800,799,798,798,798,797,796,794,791,790,789,787,785,783,783,783,783,783,783,783,782,780,776,771,768,764,761,757,742,732,729,723,719,707,696,686,677,667,644,639,637,635,635,627,616,602,591,574,554,546,541,538,535,530,528,528,528,528,528,528,528,527,527,526,520,512,503,498,487],"ymouse":[617,617,617,617,617,617,617,617,617,617,617,617,617,617,617,617,617,617,617,617,616,615,613,612,611,609,608,608,606,606,605,601,594,591,589,584,582,578,578,578,578,578,577,575,572,566,552,544,535,528,520,510,473,437,424,388,363,307,274,248,225,206,173,168,166,165,165,163,160,155,150,141,130,126,124,122,121,119,118,118,118,118,118,118,118,118,118,117,115,111,108,105,94],"timestamp_mouse":[13,35,44,64,84,105,123,145,164,184,205,225,244,264,284,305,325,343,364,385,404,425,443,464,485,504,523,545,563,585,603,623,643,665,685,704,724,744,763,783,803,824,844,863,884,904,924,944,964,983,1003,1023,1043,1064,1083,1104,1123,1143,1163,1184,1204,1225,1243,1264,1283,1304,1324,1343,1364,1385,1405,1425,1443,1464,1483,1503,1523,1543,1564,1583,1603,1625,1644,1663,1683,1704,1725,1744,1765,1783,1803,1825,1844],"xSR":741.5,"ySR":573.95,"xT1":424.9,"yT1":0,"xT2":1058.1,"yT2":0,"toosoon":0,"cond_shown":"randomdotsizeEA","ratio_trial":750,"smaller_num":"18","larger_num":"24","correct_side":1,"subjID":"SantiagoVelasquez20","gender":"0","age":"9","school":"4"},{"start_time":1552328042825,"click_time":1552328044701,"finger_time":1552328043621,"fix_duration":943.6830264536785,"trial":34,"RT":796,"MT":1080,"sideResp":1,"stimulus":"img/750/equaldotsize/L/1_Ratio_750_L_20_R_15.png","xmouse":[780,780,780,780,780,780,780,780,780,780,780,780,780,780,780,780,780,780,780,780,780,780,780,780,780,780,780,780,780,780,779,778,778,778,777,775,771,766,747,735,726,718,711,700,694,689,686,683,674,659,642,622,604,573,567,565,563,561,560,559,559,558,557,556,555,552,549,546,546,545,544,543,539,537,535,532,528,526,521,519,515,511,500,497,495,493,492,490,489,488,484,481,478,473],"ymouse":[634,634,634,634,634,634,634,634,634,633,633,633,633,633,633,633,633,633,633,633,633,633,633,633,633,633,633,633,633,633,633,632,632,632,631,630,628,625,609,597,586,574,561,535,520,498,486,475,450,430,413,395,380,357,353,351,351,349,348,346,345,343,334,327,320,312,304,295,291,285,280,273,261,255,250,245,236,230,220,214,206,198,181,175,172,168,165,156,149,140,129,119,105,70],"timestamp_mouse":[16,35,56,77,96,116,136,156,175,195,215,235,257,275,296,316,335,356,375,396,417,436,456,477,497,515,536,557,577,595,616,635,657,677,696,716,736,755,776,796,816,837,856,875,896,915,935,955,975,995,1016,1036,1055,1075,1096,1116,1135,1156,1177,1196,1216,1236,1257,1276,1296,1315,1335,1357,1376,1396,1416,1435,1456,1476,1496,1516,1535,1556,1576,1595,1615,1636,1657,1675,1696,1716,1736,1757,1776,1796,1815,1835,1856,1876],"xSR":741.5,"ySR":573.95,"xT1":424.9,"yT1":0,"xT2":1058.1,"yT2":0,"toosoon":0,"cond_shown":"equaldotsize","ratio_trial":750,"smaller_num":"15","larger_num":"20","correct_side":1,"subjID":"SantiagoVelasquez20","gender":"0","age":"9","school":"4"},{"start_time":1552328046576,"click_time":1552328048642,"finger_time":1552328047680,"fix_duration":533.2499103153611,"trial":35,"RT":1104,"MT":962,"sideResp":2,"stimulus":"img/900/randomdotsizeEA/R/14_Ratio_900_L_18_R_20.png","xmouse":[778,778,778,778,778,778,778,778,778,778,778,778,778,778,778,778,778,778,778,778,778,778,778,778,778,778,778,778,778,778,778,778,778,778,778,778,778,778,778,778,778,779,779,779,779,781,786,789,794,799,805,813,820,823,832,846,884,903,914,929,942,971,984,996,1002,1007,1015,1020,1023,1025,1026,1033,1036,1040,1045,1050,1060,1063,1066,1070,1073,1087,1094,1096,1096,1096,1096,1096,1096,1096,1096,1099,1099,1100,1100,1100,1101,1101,1101,1101,1101,1101,1102,1103],"ymouse":[617,617,617,617,617,617,617,617,617,617,617,617,617,617,617,617,617,617,617,617,617,617,617,617,617,617,617,617,617,617,617,617,617,617,617,617,617,617,617,617,617,617,616,614,613,610,601,596,591,589,586,584,580,578,575,568,553,540,530,516,502,468,450,432,418,405,384,373,365,358,349,323,306,288,271,253,220,212,205,194,186,167,162,160,159,159,159,156,152,146,138,127,122,120,116,113,109,109,109,109,109,107,103,99],"timestamp_mouse":[9,25,45,65,85,106,125,146,164,185,206,225,245,265,285,304,325,344,366,386,405,425,444,466,485,506,525,545,566,585,606,625,646,665,684,704,725,745,764,785,806,825,846,866,884,906,925,944,964,986,1006,1024,1044,1065,1085,1104,1124,1145,1165,1184,1204,1225,1246,1265,1285,1306,1325,1344,1365,1385,1405,1425,1445,1465,1485,1506,1525,1545,1564,1585,1604,1624,1645,1665,1686,1705,1724,1745,1764,1785,1805,1824,1844,1865,1884,1905,1925,1944,1965,1986,2006,2025,2044,2066],"xSR":741.5,"ySR":573.95,"xT1":424.9,"yT1":0,"xT2":1058.1,"yT2":0,"toosoon":0,"cond_shown":"randomdotsizeEA","ratio_trial":900,"smaller_num":"18","larger_num":"20","correct_side":2,"subjID":"SantiagoVelasquez20","gender":"0","age":"9","school":"4"},{"start_time":1552328051311,"click_time":1552328052681,"finger_time":1552328052121,"fix_duration":1348.3241396501837,"trial":36,"RT":810,"MT":560,"sideResp":1,"stimulus":"img/750/equaldotsize/L/13_Ratio_750_L_8_R_6.png","xmouse":[795,795,795,795,795,795,795,795,795,795,795,795,795,795,795,795,795,795,795,795,795,795,795,795,795,795,795,795,795,795,795,795,795,796,796,794,792,789,786,785,778,770,760,748,724,713,702,694,687,677,666,661,655,648,638,619,605,593,582,566,556,555,553,549,531,521,512,503,495],"ymouse":[614,614,614,614,614,614,614,614,614,614,614,614,614,614,614,614,614,614,614,614,614,614,614,614,614,614,614,614,614,614,614,614,614,614,610,604,598,591,584,575,543,525,504,483,442,424,407,393,383,369,355,346,338,326,313,282,263,244,227,204,186,181,176,170,144,130,118,107,99],"timestamp_mouse":[10,33,51,70,89,111,131,150,170,190,210,231,250,269,291,310,331,351,370,389,409,431,449,471,491,509,530,551,569,591,611,631,650,670,690,711,730,750,770,789,810,829,849,869,890,909,929,950,969,989,1010,1030,1050,1070,1090,1110,1130,1149,1169,1189,1211,1230,1250,1269,1290,1309,1329,1350,1370],"xSR":741.5,"ySR":573.95,"xT1":424.9,"yT1":0,"xT2":1058.1,"yT2":0,"toosoon":0,"cond_shown":"equaldotsize","ratio_trial":750,"smaller_num":"6","larger_num":"8","correct_side":1,"subjID":"SantiagoVelasquez20","gender":"0","age":"9","school":"4"},{"start_time":1552328055356,"click_time":1552328056962,"finger_time":1552328056060,"fix_duration":1353.0920790126982,"trial":37,"RT":704,"MT":902,"sideResp":2,"stimulus":"img/500/equaldotsize/R/2_Ratio_500_L_3_R_6.png","xmouse":[787,787,786,786,786,786,786,786,786,786,786,786,786,786,786,786,786,786,786,786,786,786,786,786,786,786,786,786,786,786,786,786,787,793,795,804,809,814,839,858,880,902,919,940,948,964,977,987,1004,1008,1010,1011,1012,1013,1016,1021,1026,1033,1053,1062,1074,1090,1107,1126,1127,1127,1127,1127,1127,1127,1127,1127,1127,1127,1127,1127,1127,1127,1128,1128,1128],"ymouse":[613,613,611,606,605,604,604,604,604,604,604,604,604,604,604,604,604,604,604,604,604,604,604,604,604,604,604,604,604,604,604,600,598,583,577,560,547,536,505,488,470,449,430,392,372,345,325,306,276,267,261,257,254,249,238,228,219,209,189,181,171,162,155,145,143,143,143,142,141,139,137,133,128,120,116,114,113,112,105,100,96],"timestamp_mouse":[13,26,45,65,85,105,125,146,165,185,206,226,244,265,284,306,325,344,365,385,405,425,445,466,484,505,524,546,566,585,605,625,645,664,685,704,726,745,765,785,806,825,844,864,885,904,925,945,965,985,1005,1024,1045,1064,1086,1105,1126,1144,1166,1185,1204,1225,1245,1265,1285,1304,1324,1345,1366,1386,1404,1425,1444,1465,1485,1504,1525,1545,1565,1586,1606],"xSR":741.5,"ySR":573.95,"xT1":424.9,"yT1":0,"xT2":1058.1,"yT2":0,"toosoon":0,"cond_shown":"equaldotsize","ratio_trial":500,"smaller_num":"3","larger_num":"6","correct_side":2,"subjID":"SantiagoVelasquez20","gender":"0","age":"9","school":"4"},{"start_time":1552328058525,"click_time":1552328060001,"finger_time":1552328059301,"fix_duration":304.6462296435094,"trial":38,"RT":776,"MT":700,"sideResp":1,"stimulus":"img/900/randomdotsizeEA/L/1_Ratio_900_L_10_R_9.png","xmouse":[787,787,787,787,787,787,787,787,787,787,787,788,788,788,788,788,788,788,788,788,788,788,788,788,788,788,788,788,788,788,788,788,788,788,788,788,787,782,774,757,746,735,725,716,702,696,688,680,674,663,659,654,648,643,631,625,623,622,622,618,613,605,598,589,560,553,552,551,550,530,508,483,461,442],"ymouse":[595,595,595,595,595,595,595,595,595,595,595,595,595,595,595,595,595,595,595,595,595,595,595,595,595,595,595,595,595,595,595,595,595,595,595,593,585,574,559,524,505,480,458,434,369,345,321,303,289,270,262,256,249,243,228,224,222,222,221,215,207,196,188,179,156,150,148,148,144,126,117,109,103,95],"timestamp_mouse":[16,36,56,75,95,117,135,155,176,197,215,236,257,275,296,315,337,355,375,396,417,437,457,476,496,517,536,557,577,596,617,635,657,677,697,716,735,756,776,795,815,835,857,876,895,915,935,956,977,995,1016,1037,1055,1075,1095,1115,1135,1156,1177,1196,1216,1235,1256,1277,1296,1316,1335,1355,1377,1396,1415,1435,1457,1476],"xSR":741.5,"ySR":573.95,"xT1":424.9,"yT1":0,"xT2":1058.1,"yT2":0,"toosoon":0,"cond_shown":"randomdotsizeEA","ratio_trial":900,"smaller_num":"9","larger_num":"10","correct_side":1,"subjID":"SantiagoVelasquez20","gender":"0","age":"9","school":"4"},{"start_time":1552328061922,"click_time":1552328062981,"finger_time":1552328062660,"fix_duration":979.0666303903139,"trial":39,"RT":738,"MT":321,"sideResp":2,"stimulus":"img/750/equaldotsize/R/3_Ratio_750_L_15_R_20.png","xmouse":[793,793,793,793,793,793,793,793,793,793,793,793,793,793,793,793,793,793,793,793,793,793,793,793,793,793,793,793,793,793,793,793,793,794,797,804,810,821,833,845,869,883,897,908,924,950,966,984,1004,1025,1044,1086,1113,1130],"ymouse":[625,625,625,625,625,625,625,625,625,625,625,625,625,625,625,625,625,625,625,625,625,625,625,625,625,625,625,625,625,625,625,625,625,625,621,604,589,572,554,535,490,467,440,417,382,337,312,287,258,229,199,145,117,99],"timestamp_mouse":[1,20,39,58,80,99,118,138,158,180,198,219,238,259,279,299,319,338,360,380,400,420,438,459,478,500,520,540,559,578,599,618,639,659,679,699,719,738,758,778,799,819,840,859,878,899,918,939,959,979,998,1019,1038,1058],"xSR":741.5,"ySR":573.95,"xT1":424.9,"yT1":0,"xT2":1058.1,"yT2":0,"toosoon":0,"cond_shown":"equaldotsize","ratio_trial":750,"smaller_num":"15","larger_num":"20","correct_side":2,"subjID":"SantiagoVelasquez20","gender":"0","age":"9","school":"4"},{"start_time":1552328065122,"click_time":1552328066341,"finger_time":1552328065762,"fix_duration":1157.3818298365077,"trial":40,"RT":640,"MT":579,"sideResp":1,"stimulus":"img/250/equaldotanddens/L/1_Ratio_250_L_8_R_2.png","xmouse":[788,788,788,788,788,788,788,788,788,788,788,788,788,788,788,788,788,788,788,788,788,788,788,788,788,788,788,788,788,788,787,785,783,779,774,764,732,712,696,682,675,661,650,647,641,632,619,612,607,604,600,593,590,579,571,551,542,534,528,527,522,511],"ymouse":[598,598,598,598,598,598,598,598,598,598,598,598,598,598,598,598,598,598,598,598,598,598,598,598,598,598,598,598,598,598,597,584,566,548,527,504,453,429,405,375,349,304,276,269,248,230,199,185,176,170,164,154,147,134,126,113,110,106,104,103,101,96],"timestamp_mouse":[1,19,39,58,80,100,119,139,159,180,199,219,239,258,279,299,320,338,359,378,399,419,439,458,478,500,518,539,559,578,599,619,640,659,680,698,718,738,760,779,799,818,840,859,879,899,919,939,959,980,999,1018,1038,1059,1079,1100,1118,1140,1158,1178,1199,1219],"xSR":741.5,"ySR":573.95,"xT1":424.9,"yT1":0,"xT2":1058.1,"yT2":0,"toosoon":0,"cond_shown":"equaldotanddens","ratio_trial":250,"smaller_num":"2","larger_num":"8","correct_side":1,"subjID":"SantiagoVelasquez20","gender":"0","age":"9","school":"4"},{"start_time":1552328067992,"click_time":1552328069102,"finger_time":1552328068701,"fix_duration":250,"trial":41,"RT":709,"MT":401,"sideResp":1,"stimulus":"img/250/equaldotanddens/L/5_Ratio_250_L_24_R_6.png","xmouse":[762,763,763,763,764,764,764,764,764,764,764,764,764,764,764,764,764,764,764,764,764,764,764,764,764,764,764,764,764,764,764,764,764,764,764,762,759,746,727,711,695,683,641,611,582,556,535,503,500,496,491,486,480,477,476,473],"ymouse":[587,588,588,588,588,588,588,588,588,589,589,589,589,589,589,589,589,589,589,589,589,589,589,589,589,589,589,589,589,589,589,589,585,581,575,570,560,535,502,475,449,424,361,326,294,262,235,177,163,149,135,123,110,106,102,96],"timestamp_mouse":[13,32,50,69,89,109,129,149,168,189,209,229,250,270,289,310,330,348,368,390,410,428,448,468,489,509,529,549,569,588,610,628,648,669,689,709,728,748,770,788,810,828,848,870,889,910,929,949,969,989,1009,1029,1048,1069,1089,1110],"xSR":741.5,"ySR":573.95,"xT1":424.9,"yT1":0,"xT2":1058.1,"yT2":0,"toosoon":0,"cond_shown":"equaldotanddens","ratio_trial":250,"smaller_num":"6","larger_num":"24","correct_side":1,"subjID":"SantiagoVelasquez20","gender":"0","age":"9","school":"4"},{"start_time":1552328071704,"click_time":1552328073380,"finger_time":1552328072440,"fix_duration":1202.1097549593192,"trial":42,"RT":736,"MT":940,"sideResp":2,"stimulus":"img/500/equaldotanddens/R/9_Ratio_500_L_2_R_4.png","xmouse":[791,791,791,791,791,791,791,791,791,791,791,791,791,791,791,791,791,790,789,789,789,789,789,789,789,789,789,789,789,789,789,789,789,789,791,793,812,821,827,834,839,849,868,877,886,897,906,920,924,927,930,935,944,956,970,983,1006,1015,1024,1032,1048,1076,1088,1098,1102,1102,1102,1102,1102,1103,1104,1107,1108,1108,1108,1108,1108,1108,1108,1108,1108,1112,1114,1116],"ymouse":[607,607,607,607,607,607,607,607,607,607,607,607,607,607,607,607,607,607,607,607,607,607,607,607,607,607,607,607,607,607,607,607,607,607,602,598,573,558,542,523,504,465,410,387,367,350,337,320,315,311,307,300,295,288,279,270,255,250,245,240,230,210,200,191,187,184,183,182,180,177,170,149,138,131,125,124,124,124,124,122,122,109,104,98],"timestamp_mouse":[17,37,56,77,98,117,136,156,177,198,216,237,257,277,296,317,338,356,378,396,418,438,457,478,497,516,537,557,578,597,617,638,657,678,696,716,736,757,777,798,817,837,857,876,897,916,936,957,978,997,1017,1037,1056,1076,1098,1117,1137,1156,1178,1197,1217,1237,1256,1277,1297,1317,1338,1358,1376,1398,1417,1437,1456,1476,1497,1516,1537,1557,1577,1597,1618,1637,1656,1676],"xSR":741.5,"ySR":573.95,"xT1":424.9,"yT1":0,"xT2":1058.1,"yT2":0,"toosoon":0,"cond_shown":"equaldotanddens","ratio_trial":500,"smaller_num":"2","larger_num":"4","correct_side":2,"subjID":"SantiagoVelasquez20","gender":"0","age":"9","school":"4"},{"start_time":1552328075028,"click_time":1552328076581,"finger_time":1552328075781,"fix_duration":725.33686392628,"trial":43,"RT":753,"MT":800,"sideResp":2,"stimulus":"img/500/equaldotanddens/R/14_Ratio_500_L_5_R_10.png","xmouse":[780,780,780,780,780,780,780,780,780,780,780,780,780,780,780,780,780,780,780,780,780,780,780,780,780,780,780,780,780,780,780,780,780,780,781,783,795,805,819,836,855,888,907,914,930,941,964,975,985,995,1007,1021,1026,1031,1032,1033,1034,1034,1035,1037,1039,1044,1044,1045,1046,1047,1058,1067,1075,1082,1087,1093,1094,1094,1094,1094,1094,1094],"ymouse":[599,599,599,599,599,599,599,599,599,599,599,599,599,599,599,599,599,599,599,599,599,599,599,599,599,599,599,599,599,599,599,599,599,599,599,597,582,569,555,541,524,492,466,456,430,410,368,347,325,299,274,224,205,185,179,175,171,168,162,156,149,136,135,133,133,132,125,120,115,110,106,102,101,101,101,101,101,99],"timestamp_mouse":[13,32,53,73,92,114,132,152,172,193,212,232,254,274,293,312,332,353,374,392,412,434,454,474,493,513,532,554,573,593,614,632,652,673,694,712,733,753,774,794,813,834,852,872,893,912,933,953,974,994,1013,1033,1053,1074,1093,1113,1134,1153,1172,1192,1212,1232,1253,1272,1292,1312,1333,1352,1374,1394,1412,1433,1453,1474,1493,1514,1533,1553],"xSR":741.5,"ySR":573.95,"xT1":424.9,"yT1":0,"xT2":1058.1,"yT2":0,"toosoon":0,"cond_shown":"equaldotanddens","ratio_trial":500,"smaller_num":"5","larger_num":"10","correct_side":2,"subjID":"SantiagoVelasquez20","gender":"0","age":"9","school":"4"},{"start_time":1552328081033,"click_time":1552328083001,"finger_time":1552328082342,"fix_duration":250,"trial":44,"RT":1309,"MT":659,"sideResp":1,"stimulus":"img/900/randomdotsizeEA/R/7_Ratio_900_L_9_R_10.png","xmouse":[801,801,801,801,801,801,801,801,801,801,801,801,801,801,801,801,801,801,801,801,801,801,801,801,801,801,801,801,801,801,801,801,801,801,801,801,801,801,801,801,801,801,801,801,801,801,801,801,801,801,801,801,801,801,801,801,800,797,793,791,790,788,787,786,785,784,776,771,766,759,754,730,721,714,706,700,688,682,678,672,661,620,603,586,574,562,547,543,541,539,538,537,536,535,533,531,522,514,503],"ymouse":[608,608,608,608,608,608,608,608,608,608,608,608,608,608,608,608,608,608,608,608,608,608,608,608,608,608,608,608,608,608,608,608,608,608,608,608,608,608,608,608,608,608,608,608,608,608,608,608,608,608,608,608,608,608,608,606,599,590,586,583,582,579,578,577,575,573,555,539,525,505,484,424,401,381,364,349,321,311,302,293,279,238,221,204,189,176,159,155,154,153,152,152,151,150,148,143,118,102,87],"timestamp_mouse":[11,38,49,68,87,109,128,149,169,189,207,229,247,269,288,308,328,347,369,388,409,428,449,469,488,507,529,548,568,587,608,629,649,668,687,708,729,749,769,788,807,829,848,869,888,909,929,949,967,989,1009,1027,1048,1069,1089,1109,1127,1147,1167,1187,1207,1228,1249,1269,1289,1309,1328,1347,1368,1389,1409,1428,1449,1468,1488,1509,1527,1548,1569,1588,1608,1628,1649,1667,1687,1708,1728,1747,1768,1788,1808,1829,1849,1868,1889,1907,1928,1948,1968],"xSR":741.5,"ySR":573.95,"xT1":424.9,"yT1":0,"xT2":1058.1,"yT2":0,"toosoon":0,"cond_shown":"randomdotsizeEA","ratio_trial":900,"smaller_num":"9","larger_num":"10","correct_side":2,"subjID":"SantiagoVelasquez20","gender":"0","age":"9","school":"4"},{"start_time":1552328085656,"click_time":1552328087602,"finger_time":1552328086600,"fix_duration":1493.7574769257585,"trial":45,"RT":944,"MT":1002,"sideResp":2,"stimulus":"img/900/equaldotanddens/R/15_Ratio_900_L_9_R_10.png","xmouse":[788,788,788,788,788,788,788,788,788,788,788,788,788,788,788,788,788,788,788,788,788,788,788,788,788,788,788,788,788,788,788,788,788,788,788,788,788,788,788,788,789,790,792,795,801,811,838,843,855,863,870,893,906,920,939,956,984,1003,1012,1020,1031,1037,1041,1046,1048,1050,1056,1057,1062,1065,1068,1076,1083,1088,1091,1096,1097,1097,1098,1099,1100,1108,1112,1116,1120,1123,1125,1125,1125,1125,1125,1125,1125,1125,1125,1126,1130,1132],"ymouse":[627,624,623,622,621,621,621,620,620,620,620,620,620,620,620,620,620,620,620,620,620,620,620,620,620,620,620,620,620,620,620,620,620,620,620,620,620,620,620,619,618,616,614,610,602,594,574,570,562,556,550,531,519,507,491,474,434,407,389,376,351,340,329,320,316,310,293,290,279,273,264,233,216,199,189,179,176,176,174,171,168,156,148,141,134,130,126,124,124,124,124,124,123,121,119,115,100,90],"timestamp_mouse":[4,25,49,66,86,105,126,145,164,186,206,225,244,266,284,305,325,344,364,386,406,424,444,466,486,506,525,546,566,584,606,625,645,664,685,705,726,746,764,786,805,826,845,864,884,905,925,944,964,986,1005,1026,1045,1065,1086,1106,1125,1145,1164,1185,1206,1225,1245,1266,1286,1305,1324,1345,1364,1384,1405,1426,1446,1465,1485,1506,1532,1545,1564,1585,1605,1624,1645,1665,1685,1706,1725,1745,1764,1785,1806,1825,1845,1865,1884,1906,1925,1945],"xSR":741.5,"ySR":573.95,"xT1":424.9,"yT1":0,"xT2":1058.1,"yT2":0,"toosoon":0,"cond_shown":"equaldotanddens","ratio_trial":900,"smaller_num":"9","larger_num":"10","correct_side":2,"subjID":"SantiagoVelasquez20","gender":"0","age":"9","school":"4"},{"start_time":1552328089361,"click_time":1552328090981,"finger_time":1552328090281,"fix_duration":556.3953881073332,"trial":46,"RT":920,"MT":700,"sideResp":2,"stimulus":"img/250/equaldotsize/R/13_Ratio_250_L_2_R_8.png","xmouse":[771,789,793,795,796,796,796,796,796,796,796,796,796,796,796,796,796,796,796,796,796,796,796,796,796,796,796,796,796,796,796,796,796,796,796,796,796,796,796,796,796,796,799,802,807,817,839,851,864,876,886,909,920,932,945,956,979,991,1003,1014,1026,1042,1051,1055,1058,1060,1062,1063,1064,1066,1070,1085,1090,1098,1102,1104,1106,1106,1106,1106,1107,1113],"ymouse":[615,617,618,618,619,619,619,619,619,619,619,619,619,619,619,619,619,619,619,619,619,619,619,619,619,619,619,619,619,619,619,619,619,619,619,619,619,619,619,619,619,619,615,610,600,586,554,536,518,506,490,449,433,419,399,379,338,319,296,276,256,222,204,194,187,184,179,177,174,170,165,146,137,128,123,119,116,116,115,112,111,93],"timestamp_mouse":[1,34,40,61,81,101,120,140,161,180,199,219,241,261,280,300,320,340,361,380,399,421,441,461,481,499,519,539,561,581,601,619,639,660,680,700,721,741,760,779,800,820,841,860,880,900,920,940,959,979,1000,1019,1040,1059,1080,1099,1120,1140,1161,1179,1201,1220,1240,1260,1281,1301,1320,1340,1359,1379,1401,1420,1440,1459,1481,1501,1520,1539,1561,1580,1601,1620],"xSR":741.5,"ySR":573.95,"xT1":424.9,"yT1":0,"xT2":1058.1,"yT2":0,"toosoon":0,"cond_shown":"equaldotsize","ratio_trial":250,"smaller_num":"2","larger_num":"8","correct_side":2,"subjID":"SantiagoVelasquez20","gender":"0","age":"9","school":"4"},{"start_time":1552328093444,"click_time":1552328095021,"finger_time":1552328094282,"fix_duration":1381.1014823278895,"trial":47,"RT":838,"MT":739,"sideResp":1,"stimulus":"img/500/randomdotsizeEA/L/11_Ratio_500_L_12_R_6.png","xmouse":[796,796,796,796,796,796,796,796,796,796,796,796,796,796,796,796,796,796,796,796,796,796,796,796,796,796,796,796,796,796,796,796,796,796,796,796,796,796,796,796,794,788,765,752,732,727,710,705,699,694,686,670,664,660,654,642,612,595,575,556,542,523,517,514,511,505,499,499,499,499,499,499,499,499,499,499,499,497,496],"ymouse":[611,611,611,611,611,611,611,611,611,611,611,611,611,611,611,611,611,611,611,611,611,611,611,611,611,611,611,611,611,611,611,611,611,611,611,611,611,611,610,604,590,569,522,500,471,463,423,410,397,386,374,351,340,331,322,304,277,262,245,228,212,180,165,152,142,129,121,121,121,121,121,121,121,120,119,115,111,102,97],"timestamp_mouse":[17,38,57,77,97,116,136,157,177,197,216,237,256,277,298,317,336,357,376,398,418,437,457,476,496,518,536,556,577,598,617,637,658,678,698,718,738,756,777,797,816,838,857,877,896,917,937,956,976,996,1016,1037,1056,1077,1097,1118,1137,1156,1176,1198,1217,1236,1256,1277,1298,1317,1336,1356,1376,1397,1417,1438,1458,1477,1496,1517,1537,1558,1577],"xSR":741.5,"ySR":573.95,"xT1":424.9,"yT1":0,"xT2":1058.1,"yT2":0,"toosoon":0,"cond_shown":"randomdotsizeEA","ratio_trial":500,"smaller_num":"6","larger_num":"12","correct_side":1,"subjID":"SantiagoVelasquez20","gender":"0","age":"9","school":"4"},{"start_time":1552328096514,"click_time":1552328098140,"finger_time":1552328097902,"fix_duration":250,"trial":48,"RT":1388,"MT":238,"sideResp":1,"stimulus":"img/500/equaldotsize/L/8_Ratio_500_L_8_R_4.png","xmouse":[819,819,819,819,819,819,819,819,819,819,819,819,819,819,819,819,819,819,819,819,819,819,819,819,819,819,819,819,819,819,819,819,819,819,819,819,819,819,819,819,819,819,819,818,818,818,818,818,818,818,818,818,817,816,815,815,814,814,812,811,807,803,800,796,790,787,785,784,782,778,770,764,755,744,703,679,654,627,601,556,529,511],"ymouse":[628,628,628,629,629,629,629,629,629,628,628,628,628,628,628,628,628,628,628,628,628,628,628,628,628,628,628,628,628,628,628,628,628,628,628,628,628,628,628,628,628,628,628,627,627,627,627,627,627,627,627,627,626,625,625,624,623,622,620,617,612,608,604,599,590,586,582,580,578,571,557,541,523,498,424,382,337,289,244,167,119,88],"timestamp_mouse":[13,37,47,67,88,108,128,148,167,188,207,227,247,267,288,308,328,347,367,387,407,426,447,466,486,506,528,546,566,587,606,626,647,668,686,707,728,747,767,786,806,827,848,867,887,907,926,947,967,988,1008,1028,1047,1068,1087,1107,1127,1147,1168,1188,1207,1227,1247,1268,1288,1307,1327,1348,1367,1388,1407,1427,1448,1466,1487,1508,1528,1547,1567,1587,1608,1626],"xSR":741.5,"ySR":573.95,"xT1":424.9,"yT1":0,"xT2":1058.1,"yT2":0,"toosoon":0,"cond_shown":"equaldotsize","ratio_trial":500,"smaller_num":"4","larger_num":"8","correct_side":1,"subjID":"SantiagoVelasquez20","gender":"0","age":"9","school":"4"},{"start_time":1552328100660,"click_time":1552328102081,"finger_time":1552328101521,"fix_duration":957.9903385136828,"trial":49,"RT":861,"MT":560,"sideResp":1,"stimulus":"img/900/equaldotsize/L/10_Ratio_900_L_20_R_18.png","xmouse":[770,770,770,770,770,770,770,770,770,770,770,770,770,770,770,770,770,770,770,770,770,770,770,770,770,770,770,770,770,770,770,770,770,770,770,770,770,771,771,771,771,771,771,770,767,760,753,748,731,729,728,722,706,680,673,666,659,651,643,641,640,639,637,634,611,592,573,552,515,505,494,485],"ymouse":[612,612,612,612,612,612,612,612,612,612,612,612,612,612,612,612,612,612,612,612,612,612,612,612,612,612,612,612,612,612,612,612,612,612,612,612,612,612,607,603,596,586,576,543,526,504,482,457,394,367,342,316,284,236,217,200,183,161,149,147,147,146,146,145,140,134,129,123,107,104,102,99],"timestamp_mouse":[10,22,41,61,81,100,121,142,162,181,201,220,242,261,281,301,321,341,360,380,401,421,441,460,482,501,521,540,561,580,600,622,641,661,681,701,721,742,760,782,801,822,841,861,882,901,920,941,960,982,1001,1022,1042,1062,1080,1101,1121,1141,1161,1181,1200,1221,1240,1260,1281,1302,1322,1342,1361,1380,1400,1421],"xSR":741.5,"ySR":573.95,"xT1":424.9,"yT1":0,"xT2":1058.1,"yT2":0,"toosoon":0,"cond_shown":"equaldotsize","ratio_trial":900,"smaller_num":"18","larger_num":"20","correct_side":1,"subjID":"SantiagoVelasquez20","gender":"0","age":"9","school":"4"},{"start_time":1552328103662,"click_time":1552328105061,"finger_time":1552328104582,"fix_duration":479.5936326206094,"trial":50,"RT":920,"MT":479,"sideResp":1,"stimulus":"img/250/randomdotsizeEA/R/10_Ratio_250_L_4_R_16.png","xmouse":[779,779,779,779,779,779,779,780,780,780,781,781,781,781,781,781,781,781,781,782,782,782,783,783,783,783,783,783,783,783,783,783,783,783,783,783,783,783,783,783,783,783,783,783,783,782,777,769,755,751,749,746,743,734,730,727,717,714,709,700,694,685,675,653,638,621,601,577,561,533,521],"ymouse":[615,615,615,615,615,615,615,615,615,615,615,615,615,615,615,615,615,615,615,614,614,614,614,614,614,613,613,613,613,613,613,613,613,613,613,613,613,613,613,613,613,613,610,603,596,586,567,550,514,495,476,456,434,400,385,381,365,361,354,338,325,309,290,256,235,215,192,163,143,107,90],"timestamp_mouse":[1,20,39,59,79,100,119,140,159,179,198,219,239,260,280,300,319,339,358,379,400,418,438,460,480,498,519,538,559,579,599,619,640,660,678,698,719,738,759,780,800,819,840,859,879,899,920,940,959,978,999,1018,1039,1060,1079,1099,1119,1138,1159,1178,1199,1218,1238,1260,1279,1299,1319,1340,1360,1379,1398],"xSR":741.5,"ySR":573.95,"xT1":424.9,"yT1":0,"xT2":1058.1,"yT2":0,"toosoon":0,"cond_shown":"randomdotsizeEA","ratio_trial":250,"smaller_num":"4","larger_num":"16","correct_side":2,"subjID":"SantiagoVelasquez20","gender":"0","age":"9","school":"4"},{"start_time":1552328106318,"click_time":1552328107761,"finger_time":1552328107501,"fix_duration":333.95966119977373,"trial":51,"RT":1183,"MT":260,"sideResp":1,"stimulus":"img/750/randomdotsizeEA/R/2_Ratio_750_L_6_R_8.png","xmouse":[798,798,798,798,798,798,798,798,798,798,798,798,798,798,798,798,798,798,798,798,798,798,798,798,798,798,798,798,798,798,798,798,798,798,798,798,798,798,798,798,798,798,798,798,798,798,798,798,798,798,798,798,798,798,798,798,797,794,789,779,766,740,718,708,699,696,665,648,633,609,585,535,509],"ymouse":[606,606,606,606,606,606,606,606,606,606,606,606,606,606,606,606,606,606,606,606,606,606,606,606,606,606,606,606,606,606,606,606,606,606,606,606,606,606,606,606,606,606,606,606,606,606,606,606,606,606,606,606,606,606,606,606,602,597,586,568,544,487,432,396,363,342,276,245,205,165,123,57,26],"timestamp_mouse":[10,23,44,63,82,103,124,143,163,182,204,223,243,264,283,302,324,344,363,384,404,424,443,464,483,504,523,543,564,584,604,622,644,664,682,702,723,743,763,783,804,822,843,864,884,902,923,944,963,983,1004,1023,1044,1063,1084,1103,1123,1143,1163,1183,1203,1223,1243,1262,1282,1302,1322,1344,1362,1384,1403,1422,1443],"xSR":741.5,"ySR":573.95,"xT1":424.9,"yT1":0,"xT2":1058.1,"yT2":0,"toosoon":0,"cond_shown":"randomdotsizeEA","ratio_trial":750,"smaller_num":"6","larger_num":"8","correct_side":2,"subjID":"SantiagoVelasquez20","gender":"0","age":"9","school":"4"},{"start_time":1552328109176,"click_time":1552328111041,"finger_time":1552328110121,"fix_duration":333.726940090475,"trial":52,"RT":945,"MT":920,"sideResp":1,"stimulus":"img/750/equaldotsize/L/8_Ratio_750_L_4_R_3.png","xmouse":[766,766,766,766,766,766,766,766,766,766,766,766,766,766,766,766,766,766,766,766,766,766,766,766,766,766,766,766,766,766,766,766,766,766,766,766,766,766,766,766,766,766,766,766,767,768,770,770,767,761,748,737,731,718,714,709,704,697,676,665,653,642,630,611,605,603,601,597,586,581,578,575,573,566,562,556,550,544,541,540,539,538,536,534,532,530,530,530,523,521,521,521,520,514],"ymouse":[616,616,616,616,616,616,616,616,616,616,616,616,616,616,616,616,616,616,616,616,616,616,616,616,616,616,616,616,616,616,616,616,616,616,616,616,616,616,616,616,616,616,616,616,615,609,597,573,532,512,493,474,460,433,421,410,400,389,349,331,309,286,264,231,220,214,208,201,188,184,182,181,180,178,178,175,174,172,170,168,165,162,157,139,123,99,66,28,0,0,0,0,0,9],"timestamp_mouse":[11,32,46,65,86,105,124,145,166,185,205,225,246,265,286,305,325,346,365,385,405,425,446,464,484,506,525,546,565,584,604,626,645,666,684,706,725,744,765,785,806,825,846,866,886,905,924,945,965,985,1005,1026,1045,1065,1085,1106,1125,1146,1165,1186,1206,1225,1245,1264,1285,1305,1326,1345,1365,1384,1404,1424,1445,1465,1485,1505,1524,1544,1565,1585,1605,1626,1646,1665,1685,1705,1725,1745,1765,1784,1805,1826,1844,1864],"xSR":741.5,"ySR":573.95,"xT1":424.9,"yT1":0,"xT2":1058.1,"yT2":0,"toosoon":0,"cond_shown":"equaldotsize","ratio_trial":750,"smaller_num":"3","larger_num":"4","correct_side":1,"subjID":"SantiagoVelasquez20","gender":"0","age":"9","school":"4"},{"start_time":1552328113541,"click_time":1552328114722,"finger_time":1552328114521,"fix_duration":1359.462065649228,"trial":53,"RT":980,"MT":201,"sideResp":1,"stimulus":"img/750/equaldotanddens/L/1_Ratio_750_L_20_R_15.png","xmouse":[776,776,776,776,776,776,776,776,776,776,776,776,776,776,776,776,776,776,776,776,776,776,776,776,776,776,776,776,776,776,776,776,776,776,776,776,776,776,776,776,776,776,776,774,772,770,767,766,761,753,725,708,691,666,635,555,508,493,469,459],"ymouse":[630,630,630,630,630,630,630,630,630,630,630,630,630,630,630,630,630,630,630,630,630,630,630,630,630,630,630,630,630,630,630,630,630,630,630,630,630,630,630,630,630,631,631,628,625,620,612,608,591,573,526,501,478,444,405,311,240,214,129,84],"timestamp_mouse":[2,20,39,61,81,99,119,140,161,181,201,221,240,260,281,301,320,341,360,379,401,419,439,461,480,501,520,540,561,580,600,621,639,660,681,701,719,740,761,781,800,821,840,859,881,900,919,939,959,980,1001,1019,1040,1060,1080,1101,1120,1139,1160,1181],"xSR":741.5,"ySR":573.95,"xT1":424.9,"yT1":0,"xT2":1058.1,"yT2":0,"toosoon":0,"cond_shown":"equaldotanddens","ratio_trial":750,"smaller_num":"15","larger_num":"20","correct_side":1,"subjID":"SantiagoVelasquez20","gender":"0","age":"9","school":"4"},{"start_time":1552328116854,"click_time":1552328118860,"finger_time":1552328118161,"fix_duration":810.6861151792888,"trial":54,"RT":1307,"MT":699,"sideResp":1,"stimulus":"img/750/equaldotanddens/L/10_Ratio_750_L_4_R_3.png","xmouse":[812,812,812,812,812,812,812,812,812,812,812,812,812,812,812,812,812,812,812,812,812,812,812,812,812,812,812,812,812,812,812,812,812,812,812,812,812,812,812,812,812,812,812,812,812,812,812,812,812,812,812,812,812,812,812,812,812,812,812,812,812,812,813,814,821,840,849,860,870,880,893,896,898,899,900,902,902,902,902,901,885,872,862,852,840,814,799,786,772,752,730,719,710,700,683,638,610,581,556,536,516],"ymouse":[613,613,613,613,613,613,613,613,613,613,613,613,613,613,613,613,613,613,613,613,613,613,613,613,613,613,613,613,613,613,613,613,613,613,613,613,613,613,613,613,613,613,613,613,613,613,613,613,613,613,613,613,613,613,613,613,613,613,613,613,613,613,613,611,599,568,550,530,511,495,468,463,458,453,449,440,434,427,419,409,382,362,346,330,314,278,257,237,215,185,156,144,134,127,115,90,74,57,46,37,31],"timestamp_mouse":[10,32,47,67,87,107,128,146,167,187,208,226,248,268,288,307,328,346,366,388,408,427,447,467,488,508,527,547,567,586,607,627,647,668,687,707,727,746,768,787,807,826,848,867,887,906,927,948,968,987,1007,1027,1047,1068,1088,1108,1127,1148,1168,1187,1208,1227,1247,1267,1286,1307,1328,1348,1367,1387,1406,1427,1446,1467,1488,1506,1526,1547,1567,1587,1607,1627,1647,1667,1687,1706,1726,1747,1767,1787,1807,1826,1847,1866,1887,1906,1926,1948,1968,1987,2006],"xSR":741.5,"ySR":573.95,"xT1":424.9,"yT1":0,"xT2":1058.1,"yT2":0,"toosoon":0,"cond_shown":"equaldotanddens","ratio_trial":750,"smaller_num":"3","larger_num":"4","correct_side":1,"subjID":"SantiagoVelasquez20","gender":"0","age":"9","school":"4"},