[{"start_time":1552327256925,"click_time":1552327258664,"finger_time":1552327257283,"fix_duration":595.4481690015945,"trial":0,"RT":358,"MT":1381,"sideResp":2,"stimulus":[],"xmouse":[805,805,805,805,805,805,805,805,805,805,805,805,805,805,803,800,799,795,791,779,776,776,776,777,779,782,785,788,789,792,793,793,793,793,793,793,793,791,788,776,773,770,765,759,746,741,740,740,740,740,740,740,740,740,740,740,740,740,740,740,740,744,748,752,754,759,762,765,767,772,783,789,793,795,796,797,797,798,798,801,803,806,815,828,906,1012,1086,1148],"ymouse":[533,533,533,533,533,533,533,533,533,533,533,533,533,533,526,507,493,478,462,433,421,417,413,409,399,390,377,368,362,356,355,354,354,354,354,354,354,354,359,393,409,426,445,466,502,521,526,526,526,527,527,527,527,527,527,527,527,527,527,527,527,525,524,522,521,518,516,514,513,510,500,494,490,487,484,482,481,480,478,474,469,465,452,438,354,244,160,66],"timestamp_mouse":[9,31,38,58,78,99,119,138,159,178,198,219,239,259,278,299,318,338,358,378,398,418,438,458,480,498,518,539,559,579,598,619,639,659,678,699,718,738,758,778,798,819,839,859,879,898,918,939,958,979,998,1018,1038,1059,1079,1098,1118,1139,1158,1179,1198,1219,1238,1259,1278,1298,1318,1339,1358,1378,1398,1419,1439,1458,1478,1499,1518,1539,1558,1579,1598,1618,1639,1658,1679,1698,1719,1739],"xSR":741.5,"ySR":469.95,"xT1":424.9,"yT1":0,"xT2":1058.1,"yT2":0,"toosoon":0,"cond_shown":"Congruent","ratio_trial":100,"L_num":1,"L_den":2,"R_num":3,"R_den":5,"correct_side":2,"subjID":"SantiagoVelasquez20","gender":"0","age":"9","school":"4","test":{"fix_dur":[250,1500],"timestim":1000,"targets_dim":[100,100],"targets_relative_coord":[0.3,0.7],"size_stim":[880,420],"start_dim":[100,100],"size_start":[300,300],"size_fix":60,"samplingrate":20,"img_types":["Congruent","Incongruent"],"ratios":[100,200,300],"rep_conds":19,"nTrials":120,"trials_to_rest":500,"Trials_order":[60,56,94,17,65,70,96,67,15,99,100,116,61,5,117,22,43,66,58,39,0,23,101,9,57,75,102,20,82,19,91,98,10,95,81,54,24,78,71,106,42,37,31,33,59,16,112,52,29,73,28,68,18,34,14,114,26,113,25,11,64,12,50,55,2,35,111,63,80,51,103,84,93,3,79,13,86,6,76,104,92,105,36,40,21,83,107,77,41,32,115,119,85,97,87,118,62,38,48,44,27,69,45,46,1,90,53,74,110,8,7,89,109,88,30,47,4,72,108,49],"cond_shown":["Congruent","Congruent","Congruent","Incongruent","Incongruent","Congruent","Congruent","Incongruent","Incongruent","Incongruent","Congruent","Congruent","Incongruent","Incongruent","Incongruent","Congruent","Incongruent","Congruent","Congruent","Incongruent","Congruent","Incongruent","Incongruent","Incongruent","Incongruent","Incongruent","Congruent","Congruent","Congruent","Incongruent","Incongruent","Congruent","Congruent","Incongruent","Incongruent","Congruent","Congruent","Congruent","Incongruent","Congruent","Congruent","Incongruent","Incongruent","Incongruent","Incongruent","Congruent","Congruent","Congruent","Incongruent","Incongruent","Congruent","Congruent","Congruent","Congruent","Congruent","Congruent","Congruent","Incongruent","Incongruent","Incongruent","Congruent","Congruent","Congruent","Incongruent","Congruent","Incongruent","Incongruent","Incongruent","Congruent","Incongruent","Incongruent","Congruent","Incongruent","Incongruent","Incongruent","Incongruent","Congruent","Congruent","Congruent","Congruent","Congruent","Incongruent","Congruent","Congruent","Incongruent","Incongruent","Incongruent","Incongruent","Incongruent","Congruent","Incongruent","Incongruent","Incongruent","Incongruent","Incongruent","Congruent","Congruent","Congruent","Congruent","Congruent","Incongruent","Incongruent","Incongruent","Congruent","Incongruent","Congruent","Incongruent","Congruent","Congruent","Congruent","Incongruent","Incongruent","Incongruent","Congruent","Congruent","Incongruent","Congruent","Congruent","Congruent","Incongruent"],"ratio_trial":[100,200,300,300,300,300,100,100,200,200,300,200,100,300,200,300,100,100,300,200,100,300,300,200,200,200,100,200,300,100,100,200,300,300,200,100,100,100,300,300,100,100,100,200,300,300,300,300,300,100,300,200,100,300,200,100,200,300,100,300,300,100,200,100,200,300,200,200,200,200,100,100,200,200,100,100,200,100,300,200,200,200,100,300,200,300,300,300,300,200,100,300,100,100,200,300,200,200,100,200,200,200,200,300,100,100,300,200,200,200,100,300,100,300,100,300,300,100,100,100],"left_num":[1,11,20,4,4,24,12,6,4,7,4,1,12,13,7,20,6,10,1,4,8,13,4,3,1,1,7,12,4,11,12,16,5,1,14,11,4,15,13,8,3,6,3,1,13,1,20,24,7,11,5,20,4,20,9,3,9,13,8,4,18,8,6,12,4,1,4,7,13,9,8,3,7,7,3,4,3,6,1,9,13,14,8,1,3,13,1,4,8,3,6,8,8,13,7,20,6,14,11,6,7,7,1,1,2,3,7,3,8,16,12,13,10,1,11,13,3,2,8,9],"right_num":[3,3,5,2,6,8,13,13,6,4,1,21,2,12,8,9,3,3,7,1,2,12,2,1,2,3,15,6,1,9,2,12,6,3,12,6,6,13,12,10,4,3,11,2,12,19,14,8,8,9,6,9,6,8,13,2,4,12,1,2,9,2,11,2,3,3,14,14,14,8,1,4,6,4,11,8,14,5,11,4,14,6,2,8,11,12,3,2,14,14,13,9,1,12,12,13,11,6,4,7,6,6,2,3,8,2,8,14,3,12,9,12,8,19,6,12,4,11,2,14],"left_den":[2,22,25,20,5,30,30,10,5,15,10,2,30,26,10,25,12,25,20,30,16,26,20,10,3,2,14,15,10,22,30,20,25,2,30,22,8,25,26,15,20,12,5,3,26,3,25,30,10,22,25,25,8,25,30,6,20,26,20,20,20,16,20,30,8,2,6,10,26,15,20,20,15,15,5,8,10,20,5,20,26,30,16,30,4,26,2,20,10,10,10,10,20,26,10,25,20,28,22,12,15,15,3,5,4,6,10,6,15,20,24,26,25,3,22,26,6,5,16,15],"right_den":[5,10,10,4,12,16,26,26,10,6,10,30,4,15,16,18,5,10,20,3,5,15,4,2,15,10,25,10,10,15,4,20,12,15,18,15,10,26,15,12,16,5,22,15,15,30,28,16,20,15,12,15,10,16,26,5,16,15,2,4,15,5,22,4,10,15,30,28,20,10,2,16,9,6,22,20,28,25,22,16,20,9,5,24,20,15,15,4,28,28,26,18,2,20,24,26,22,20,10,10,9,9,15,6,20,5,20,20,9,20,15,15,16,30,15,15,5,22,5,28],"correct_side":[2,1,1,2,1,1,2,1,1,2,1,2,2,2,1,1,2,1,2,2,1,2,2,2,1,1,2,1,1,2,2,1,2,1,2,1,2,1,2,2,2,2,1,1,2,2,1,1,1,2,2,1,2,1,2,1,1,2,2,2,1,1,2,2,1,1,1,1,2,2,2,2,2,2,1,1,2,1,2,1,2,2,1,2,1,2,1,2,1,2,1,1,2,2,1,1,2,1,1,2,2,2,1,2,1,1,1,2,1,1,2,2,2,2,1,2,2,2,1,1],"img_shown":["img2/100/Congruent/R/C_Dist_100_LN_1_LD_2_RN_3_RD_5_1.png","img2/200/Congruent/L/C_Dist_200_LN_11_LD_22_RN_3_RD_10_0.png","img2/300/Congruent/L/C_Dist_300_LN_20_LD_25_RN_5_RD_10_0.png","img2/300/Incongruent/R/I_Dist_300_LN_4_LD_20_RN_2_RD_4_1.png","img2/300/Incongruent/L/I_Dist_300_LN_4_LD_5_RN_6_RD_12_0.png","img2/300/Congruent/L/C_Dist_300_LN_24_LD_30_RN_8_RD_16_0.png","img2/100/Congruent/R/C_Dist_100_LN_12_LD_30_RN_13_RD_26_1.png","img2/100/Incongruent/L/I_Dist_100_LN_6_LD_10_RN_13_RD_26_0.png","img2/200/Incongruent/L/I_Dist_200_LN_4_LD_5_RN_6_RD_10_0.png","img2/200/Incongruent/R/I_Dist_200_LN_7_LD_15_RN_4_RD_6_1.png","img2/300/Congruent/L/C_Dist_300_LN_4_LD_10_RN_1_RD_10_0.png","img2/200/Congruent/R/C_Dist_200_LN_1_LD_2_RN_21_RD_30_1.png","img2/100/Incongruent/R/I_Dist_100_LN_12_LD_30_RN_2_RD_4_1.png","img2/300/Incongruent/R/I_Dist_300_LN_13_LD_26_RN_12_RD_15_1.png","img2/200/Incongruent/L/I_Dist_200_LN_7_LD_10_RN_8_RD_16_0.png","img2/300/Congruent/L/C_Dist_300_LN_20_LD_25_RN_9_RD_18_0.png","img2/100/Incongruent/R/I_Dist_100_LN_6_LD_12_RN_3_RD_5_1.png","img2/100/Congruent/L/C_Dist_100_LN_10_LD_25_RN_3_RD_10_0.png","img2/300/Congruent/R/C_Dist_300_LN_1_LD_20_RN_7_RD_20_1.png","img2/200/Incongruent/R/I_Dist_200_LN_4_LD_30_RN_1_RD_3_1.png","img2/100/Congruent/L/C_Dist_100_LN_8_LD_16_RN_2_RD_5_0.png","img2/300/Incongruent/R/I_Dist_300_LN_13_LD_26_RN_12_RD_15_1.png","img2/300/Incongruent/R/I_Dist_300_LN_4_LD_20_RN_2_RD_4_1.png","img2/200/Incongruent/R/I_Dist_200_LN_3_LD_10_RN_1_RD_2_1.png","img2/200/Incongruent/L/I_Dist_200_LN_1_LD_3_RN_2_RD_15_0.png","img2/200/Incongruent/L/I_Dist_200_LN_1_LD_2_RN_3_RD_10_0.png","img2/100/Congruent/R/C_Dist_100_LN_7_LD_14_RN_15_RD_25_1.png","img2/200/Congruent/L/C_Dist_200_LN_12_LD_15_RN_6_RD_10_0.png","img2/300/Congruent/L/C_Dist_300_LN_4_LD_10_RN_1_RD_10_0.png","img2/100/Incongruent/R/I_Dist_100_LN_11_LD_22_RN_9_RD_15_1.png","img2/100/Incongruent/R/I_Dist_100_LN_12_LD_30_RN_2_RD_4_1.png","img2/200/Congruent/L/C_Dist_200_LN_16_LD_20_RN_12_RD_20_0.png","img2/300/Congruent/R/C_Dist_300_LN_5_LD_25_RN_6_RD_12_1.png","img2/300/Incongruent/L/I_Dist_300_LN_1_LD_2_RN_3_RD_15_0.png","img2/200/Incongruent/R/I_Dist_200_LN_14_LD_30_RN_12_RD_18_1.png","img2/100/Congruent/L/C_Dist_100_LN_11_LD_22_RN_6_RD_15_0.png","img2/100/Congruent/R/C_Dist_100_LN_4_LD_8_RN_6_RD_10_1.png","img2/100/Congruent/L/C_Dist_100_LN_15_LD_25_RN_13_RD_26_0.png","img2/300/Incongruent/R/I_Dist_300_LN_13_LD_26_RN_12_RD_15_1.png","img2/300/Congruent/R/C_Dist_300_LN_8_LD_15_RN_10_RD_12_1.png","img2/100/Congruent/R/C_Dist_100_LN_3_LD_20_RN_4_RD_16_1.png","img2/100/Incongruent/R/I_Dist_100_LN_6_LD_12_RN_3_RD_5_1.png","img2/100/Incongruent/L/I_Dist_100_LN_3_LD_5_RN_11_RD_22_0.png","img2/200/Incongruent/L/I_Dist_200_LN_1_LD_3_RN_2_RD_15_0.png","img2/300/Incongruent/R/I_Dist_300_LN_13_LD_26_RN_12_RD_15_1.png","img2/300/Congruent/R/C_Dist_300_LN_1_LD_3_RN_19_RD_30_1.png","img2/300/Congruent/L/C_Dist_300_LN_20_LD_25_RN_14_RD_28_0.png","img2/300/Congruent/L/C_Dist_300_LN_24_LD_30_RN_8_RD_16_0.png","img2/300/Incongruent/L/I_Dist_300_LN_7_LD_10_RN_8_RD_20_0.png","img2/100/Incongruent/R/I_Dist_100_LN_11_LD_22_RN_9_RD_15_1.png","img2/300/Congruent/R/C_Dist_300_LN_5_LD_25_RN_6_RD_12_1.png","img2/200/Congruent/L/C_Dist_200_LN_20_LD_25_RN_9_RD_15_0.png","img2/100/Congruent/R/C_Dist_100_LN_4_LD_8_RN_6_RD_10_1.png","img2/300/Congruent/L/C_Dist_300_LN_20_LD_25_RN_8_RD_16_0.png","img2/200/Congruent/R/C_Dist_200_LN_9_LD_30_RN_13_RD_26_1.png","img2/100/Congruent/L/C_Dist_100_LN_3_LD_6_RN_2_RD_5_0.png","img2/200/Congruent/L/C_Dist_200_LN_9_LD_20_RN_4_RD_16_0.png","img2/300/Incongruent/R/I_Dist_300_LN_13_LD_26_RN_12_RD_15_1.png","img2/100/Incongruent/R/I_Dist_100_LN_8_LD_20_RN_1_RD_2_1.png","img2/300/Incongruent/R/I_Dist_300_LN_4_LD_20_RN_2_RD_4_1.png","img2/300/Congruent/L/C_Dist_300_LN_18_LD_20_RN_9_RD_15_0.png","img2/100/Congruent/L/C_Dist_100_LN_8_LD_16_RN_2_RD_5_0.png","img2/200/Congruent/R/C_Dist_200_LN_6_LD_20_RN_11_RD_22_1.png","img2/100/Incongruent/R/I_Dist_100_LN_12_LD_30_RN_2_RD_4_1.png","img2/200/Congruent/L/C_Dist_200_LN_4_LD_8_RN_3_RD_10_0.png","img2/300/Incongruent/L/I_Dist_300_LN_1_LD_2_RN_3_RD_15_0.png","img2/200/Incongruent/L/I_Dist_200_LN_4_LD_6_RN_14_RD_30_0.png","img2/200/Incongruent/L/I_Dist_200_LN_7_LD_10_RN_14_RD_28_0.png","img2/200/Congruent/R/C_Dist_200_LN_13_LD_26_RN_14_RD_20_1.png","img2/200/Incongruent/R/I_Dist_200_LN_9_LD_15_RN_8_RD_10_1.png","img2/100/Incongruent/R/I_Dist_100_LN_8_LD_20_RN_1_RD_2_1.png","img2/100/Congruent/R/C_Dist_100_LN_3_LD_20_RN_4_RD_16_1.png","img2/200/Incongruent/R/I_Dist_200_LN_7_LD_15_RN_6_RD_9_1.png","img2/200/Incongruent/R/I_Dist_200_LN_7_LD_15_RN_4_RD_6_1.png","img2/100/Incongruent/L/I_Dist_100_LN_3_LD_5_RN_11_RD_22_0.png","img2/100/Incongruent/L/I_Dist_100_LN_4_LD_8_RN_8_RD_20_0.png","img2/200/Congruent/R/C_Dist_200_LN_3_LD_10_RN_14_RD_28_1.png","img2/100/Congruent/L/C_Dist_100_LN_6_LD_20_RN_5_RD_25_0.png","img2/300/Congruent/R/C_Dist_300_LN_1_LD_5_RN_11_RD_22_1.png","img2/200/Congruent/L/C_Dist_200_LN_9_LD_20_RN_4_RD_16_0.png","img2/200/Congruent/R/C_Dist_200_LN_13_LD_26_RN_14_RD_20_1.png","img2/200/Incongruent/R/I_Dist_200_LN_14_LD_30_RN_6_RD_9_1.png","img2/100/Congruent/L/C_Dist_100_LN_8_LD_16_RN_2_RD_5_0.png","img2/300/Congruent/R/C_Dist_300_LN_1_LD_30_RN_8_RD_24_1.png","img2/200/Incongruent/L/I_Dist_200_LN_3_LD_4_RN_11_RD_20_0.png","img2/300/Incongruent/R/I_Dist_300_LN_13_LD_26_RN_12_RD_15_1.png","img2/300/Incongruent/L/I_Dist_300_LN_1_LD_2_RN_3_RD_15_0.png","img2/300/Incongruent/R/I_Dist_300_LN_4_LD_20_RN_2_RD_4_1.png","img2/300/Incongruent/L/I_Dist_300_LN_8_LD_10_RN_14_RD_28_0.png","img2/200/Congruent/R/C_Dist_200_LN_3_LD_10_RN_14_RD_28_1.png","img2/100/Incongruent/L/I_Dist_100_LN_6_LD_10_RN_13_RD_26_0.png","img2/300/Incongruent/L/I_Dist_300_LN_8_LD_10_RN_9_RD_18_0.png","img2/100/Incongruent/R/I_Dist_100_LN_8_LD_20_RN_1_RD_2_1.png","img2/100/Incongruent/R/I_Dist_100_LN_13_LD_26_RN_12_RD_20_1.png","img2/200/Incongruent/L/I_Dist_200_LN_7_LD_10_RN_12_RD_24_0.png","img2/300/Congruent/L/C_Dist_300_LN_20_LD_25_RN_13_RD_26_0.png","img2/200/Congruent/R/C_Dist_200_LN_6_LD_20_RN_11_RD_22_1.png","img2/200/Congruent/L/C_Dist_200_LN_14_LD_28_RN_6_RD_20_0.png","img2/100/Congruent/L/C_Dist_100_LN_11_LD_22_RN_4_RD_10_0.png","img2/200/Congruent/R/C_Dist_200_LN_6_LD_12_RN_7_RD_10_1.png","img2/200/Incongruent/R/I_Dist_200_LN_7_LD_15_RN_6_RD_9_1.png","img2/200/Incongruent/R/I_Dist_200_LN_7_LD_15_RN_6_RD_9_1.png","img2/200/Incongruent/L/I_Dist_200_LN_1_LD_3_RN_2_RD_15_0.png","img2/300/Congruent/R/C_Dist_300_LN_1_LD_5_RN_3_RD_6_1.png","img2/100/Incongruent/L/I_Dist_100_LN_2_LD_4_RN_8_RD_20_0.png","img2/100/Congruent/L/C_Dist_100_LN_3_LD_6_RN_2_RD_5_0.png","img2/300/Incongruent/L/I_Dist_300_LN_7_LD_10_RN_8_RD_20_0.png","img2/200/Congruent/R/C_Dist_200_LN_3_LD_6_RN_14_RD_20_1.png","img2/200/Congruent/L/C_Dist_200_LN_8_LD_15_RN_3_RD_9_0.png","img2/200/Congruent/L/C_Dist_200_LN_16_LD_20_RN_12_RD_20_0.png","img2/100/Incongruent/R/I_Dist_100_LN_12_LD_24_RN_9_RD_15_1.png","img2/300/Incongruent/R/I_Dist_300_LN_13_LD_26_RN_12_RD_15_1.png","img2/100/Incongruent/R/I_Dist_100_LN_10_LD_25_RN_8_RD_16_1.png","img2/300/Congruent/R/C_Dist_300_LN_1_LD_3_RN_19_RD_30_1.png","img2/100/Congruent/L/C_Dist_100_LN_11_LD_22_RN_6_RD_15_0.png","img2/300/Incongruent/R/I_Dist_300_LN_13_LD_26_RN_12_RD_15_1.png","img2/300/Congruent/R/C_Dist_300_LN_3_LD_6_RN_4_RD_5_1.png","img2/100/Congruent/R/C_Dist_100_LN_2_LD_5_RN_11_RD_22_1.png","img2/100/Congruent/L/C_Dist_100_LN_8_LD_16_RN_2_RD_5_0.png","img2/100/Incongruent/L/I_Dist_100_LN_9_LD_15_RN_14_RD_28_0.png"],"dist100_C":[["C_Dist_100_LN_10_LD_25_RN_3_RD_10_0.png","C_Dist_100_LN_11_LD_22_RN_4_RD_10_0.png","C_Dist_100_LN_11_LD_22_RN_6_RD_15_0.png","C_Dist_100_LN_15_LD_25_RN_13_RD_26_0.png","C_Dist_100_LN_3_LD_6_RN_2_RD_5_0.png","C_Dist_100_LN_6_LD_20_RN_5_RD_25_0.png","C_Dist_100_LN_8_LD_16_RN_2_RD_5_0.png","C_Dist_100_LN_9_LD_15_RN_8_RD_16_0.png"],["C_Dist_100_LN_1_LD_2_RN_18_RD_30_1.png","C_Dist_100_LN_1_LD_2_RN_3_RD_5_1.png","C_Dist_100_LN_12_LD_30_RN_13_RD_26_1.png","C_Dist_100_LN_2_LD_5_RN_11_RD_22_1.png","C_Dist_100_LN_2_LD_5_RN_6_RD_12_1.png","C_Dist_100_LN_3_LD_20_RN_4_RD_16_1.png","C_Dist_100_LN_4_LD_10_RN_15_RD_30_1.png","C_Dist_100_LN_4_LD_8_RN_6_RD_10_1.png","C_Dist_100_LN_6_LD_12_RN_15_RD_25_1.png","C_Dist_100_LN_7_LD_14_RN_15_RD_25_1.png","C_Dist_100_LN_7_LD_14_RN_9_RD_15_1.png"]],"dist100_I":[["I_Dist_100_LN_1_LD_2_RN_8_RD_20_0.png","I_Dist_100_LN_2_LD_4_RN_6_RD_15_0.png","I_Dist_100_LN_2_LD_4_RN_8_RD_20_0.png","I_Dist_100_LN_3_LD_5_RN_11_RD_22_0.png","I_Dist_100_LN_3_LD_5_RN_8_RD_16_0.png","I_Dist_100_LN_3_LD_6_RN_4_RD_10_0.png","I_Dist_100_LN_3_LD_9_RN_7_RD_30_0.png","I_Dist_100_LN_4_LD_8_RN_8_RD_20_0.png","I_Dist_100_LN_6_LD_10_RN_11_RD_22_0.png","I_Dist_100_LN_6_LD_10_RN_13_RD_26_0.png","I_Dist_100_LN_6_LD_10_RN_7_RD_14_0.png","I_Dist_100_LN_9_LD_10_RN_20_RD_25_0.png","I_Dist_100_LN_9_LD_15_RN_13_RD_26_0.png","I_Dist_100_LN_9_LD_15_RN_14_RD_28_0.png"],["I_Dist_100_LN_10_LD_25_RN_8_RD_16_1.png","I_Dist_100_LN_10_LD_25_RN_9_RD_18_1.png","I_Dist_100_LN_11_LD_22_RN_9_RD_15_1.png","I_Dist_100_LN_12_LD_24_RN_9_RD_15_1.png","I_Dist_100_LN_12_LD_30_RN_2_RD_4_1.png","I_Dist_100_LN_13_LD_26_RN_12_RD_20_1.png","I_Dist_100_LN_13_LD_26_RN_6_RD_10_1.png","I_Dist_100_LN_17_LD_30_RN_10_RD_15_1.png","I_Dist_100_LN_6_LD_12_RN_3_RD_5_1.png","I_Dist_100_LN_8_LD_16_RN_6_RD_10_1.png","I_Dist_100_LN_8_LD_20_RN_1_RD_2_1.png","I_Dist_100_LN_9_LD_18_RN_6_RD_10_1.png"]],"dist100_S":[["E_Dist_100_LN_2_LD_12_RN_2_RD_30_0.png","E_Dist_100_LN_6_LD_10_RN_6_RD_12_0.png"],["E_Dist_100_LN_6_LD_12_RN_6_RD_10_1.png"]],"dist200_C":[["C_Dist_200_LN_11_LD_22_RN_3_RD_10_0.png","C_Dist_200_LN_12_LD_15_RN_6_RD_10_0.png","C_Dist_200_LN_12_LD_20_RN_6_RD_15_0.png","C_Dist_200_LN_14_LD_28_RN_6_RD_20_0.png","C_Dist_200_LN_15_LD_25_RN_4_RD_10_0.png","C_Dist_200_LN_16_LD_20_RN_12_RD_20_0.png","C_Dist_200_LN_16_LD_30_RN_9_RD_27_0.png","C_Dist_200_LN_20_LD_25_RN_9_RD_15_0.png","C_Dist_200_LN_21_LD_30_RN_2_RD_4_0.png","C_Dist_200_LN_4_LD_10_RN_3_RD_15_0.png","C_Dist_200_LN_4_LD_8_RN_3_RD_10_0.png","C_Dist_200_LN_6_LD_15_RN_3_RD_15_0.png","C_Dist_200_LN_7_LD_21_RN_2_RD_15_0.png","C_Dist_200_LN_8_LD_15_RN_2_RD_6_0.png","C_Dist_200_LN_8_LD_15_RN_3_RD_9_0.png","C_Dist_200_LN_8_LD_15_RN_7_RD_21_0.png","C_Dist_200_LN_9_LD_20_RN_4_RD_16_0.png"],["C_Dist_200_LN_1_LD_2_RN_21_RD_30_1.png","C_Dist_200_LN_13_LD_26_RN_14_RD_20_1.png","C_Dist_200_LN_3_LD_10_RN_11_RD_22_1.png","C_Dist_200_LN_3_LD_10_RN_14_RD_28_1.png","C_Dist_200_LN_3_LD_10_RN_7_RD_14_1.png","C_Dist_200_LN_3_LD_12_RN_9_RD_20_1.png","C_Dist_200_LN_3_LD_6_RN_14_RD_20_1.png","C_Dist_200_LN_5_LD_10_RN_14_RD_20_1.png","C_Dist_200_LN_6_LD_12_RN_7_RD_10_1.png","C_Dist_200_LN_6_LD_20_RN_11_RD_22_1.png","C_Dist_200_LN_7_LD_15_RN_18_RD_27_1.png","C_Dist_200_LN_9_LD_30_RN_13_RD_26_1.png"]],"dist200_I":[["I_Dist_200_LN_1_LD_2_RN_3_RD_10_0.png","I_Dist_200_LN_1_LD_3_RN_2_RD_15_0.png","I_Dist_200_LN_3_LD_4_RN_11_RD_20_0.png","I_Dist_200_LN_4_LD_5_RN_6_RD_10_0.png","I_Dist_200_LN_4_LD_6_RN_14_RD_30_0.png","I_Dist_200_LN_7_LD_10_RN_12_RD_24_0.png","I_Dist_200_LN_7_LD_10_RN_14_RD_28_0.png","I_Dist_200_LN_7_LD_10_RN_8_RD_16_0.png"],["I_Dist_200_LN_11_LD_20_RN_3_RD_4_1.png","I_Dist_200_LN_14_LD_30_RN_12_RD_18_1.png","I_Dist_200_LN_14_LD_30_RN_6_RD_9_1.png","I_Dist_200_LN_3_LD_10_RN_1_RD_2_1.png","I_Dist_200_LN_4_LD_30_RN_1_RD_3_1.png","I_Dist_200_LN_6_LD_20_RN_3_RD_6_1.png","I_Dist_200_LN_7_LD_15_RN_4_RD_6_1.png","I_Dist_200_LN_7_LD_15_RN_6_RD_9_1.png","I_Dist_200_LN_9_LD_15_RN_8_RD_10_1.png"]],"dist200_S":[["E_Dist_200_LN_3_LD_6_RN_3_RD_10_0.png"],["E_Dist_200_LN_3_LD_10_RN_3_RD_6_1.png"]],"dist300_C":[["C_Dist_300_LN_11_LD_22_RN_1_RD_5_0.png","C_Dist_300_LN_11_LD_22_RN_2_RD_10_0.png","C_Dist_300_LN_11_LD_22_RN_4_RD_20_0.png","C_Dist_300_LN_12_LD_24_RN_2_RD_10_0.png","C_Dist_300_LN_18_LD_20_RN_9_RD_15_0.png","C_Dist_300_LN_20_LD_25_RN_13_RD_26_0.png","C_Dist_300_LN_20_LD_25_RN_14_RD_28_0.png","C_Dist_300_LN_20_LD_25_RN_5_RD_10_0.png","C_Dist_300_LN_20_LD_25_RN_8_RD_16_0.png","C_Dist_300_LN_20_LD_25_RN_9_RD_18_0.png","C_Dist_300_LN_24_LD_30_RN_2_RD_4_0.png","C_Dist_300_LN_24_LD_30_RN_8_RD_16_0.png","C_Dist_300_LN_3_LD_6_RN_2_RD_10_0.png","C_Dist_300_LN_4_LD_10_RN_1_RD_10_0.png","C_Dist_300_LN_4_LD_5_RN_2_RD_4_0.png","C_Dist_300_LN_8_LD_16_RN_1_RD_5_0.png","C_Dist_300_LN_9_LD_10_RN_3_RD_5_0.png"],["C_Dist_300_LN_1_LD_20_RN_7_RD_20_1.png","C_Dist_300_LN_1_LD_3_RN_19_RD_30_1.png","C_Dist_300_LN_1_LD_30_RN_8_RD_24_1.png","C_Dist_300_LN_1_LD_5_RN_11_RD_22_1.png","C_Dist_300_LN_1_LD_5_RN_3_RD_6_1.png","C_Dist_300_LN_1_LD_5_RN_6_RD_12_1.png","C_Dist_300_LN_2_LD_10_RN_12_RD_24_1.png","C_Dist_300_LN_2_LD_20_RN_10_RD_25_1.png","C_Dist_300_LN_3_LD_12_RN_11_RD_20_1.png","C_Dist_300_LN_3_LD_6_RN_4_RD_5_1.png","C_Dist_300_LN_4_LD_20_RN_13_RD_26_1.png","C_Dist_300_LN_5_LD_25_RN_6_RD_12_1.png","C_Dist_300_LN_5_LD_25_RN_7_RD_14_1.png","C_Dist_300_LN_7_LD_14_RN_20_RD_25_1.png","C_Dist_300_LN_8_LD_15_RN_10_RD_12_1.png"]],"dist300_I":[["I_Dist_300_LN_1_LD_2_RN_2_RD_10_0.png","I_Dist_300_LN_1_LD_2_RN_3_RD_15_0.png","I_Dist_300_LN_2_LD_4_RN_6_RD_30_0.png","I_Dist_300_LN_3_LD_6_RN_4_RD_20_0.png","I_Dist_300_LN_4_LD_5_RN_6_RD_12_0.png","I_Dist_300_LN_4_LD_5_RN_8_RD_16_0.png","I_Dist_300_LN_7_LD_10_RN_8_RD_20_0.png","I_Dist_300_LN_8_LD_10_RN_14_RD_28_0.png","I_Dist_300_LN_8_LD_10_RN_9_RD_18_0.png"],["I_Dist_300_LN_13_LD_26_RN_12_RD_15_1.png","I_Dist_300_LN_4_LD_20_RN_2_RD_4_1.png"]],"dist300_S":[["E_Dist_300_LN_9_LD_12_RN_9_RD_20_0.png"],["E_Dist_300_LN_18_LD_30_RN_18_RD_20_1.png","E_Dist_300_LN_3_LD_10_RN_3_RD_5_1.png","E_Dist_300_LN_9_LD_20_RN_9_RD_12_1.png"]],"dist500_C":[["C_Dist_500_LN_10_LD_13_RN_7_RD_26_0.png","C_Dist_500_LN_10_LD_15_RN_4_RD_24_0.png","C_Dist_500_LN_12_LD_16_RN_3_RD_12_0.png","C_Dist_500_LN_12_LD_18_RN_4_RD_24_0.png","C_Dist_500_LN_15_LD_18_RN_5_RD_15_0.png","C_Dist_500_LN_15_LD_20_RN_1_RD_4_0.png","C_Dist_500_LN_18_LD_27_RN_1_RD_6_0.png","C_Dist_500_LN_20_LD_24_RN_1_RD_3_0.png","C_Dist_500_LN_20_LD_24_RN_3_RD_9_0.png","C_Dist_500_LN_20_LD_24_RN_7_RD_21_0.png","C_Dist_500_LN_20_LD_28_RN_3_RD_14_0.png","C_Dist_500_LN_21_LD_28_RN_6_RD_24_0.png","C_Dist_500_LN_22_LD_28_RN_2_RD_7_0.png","C_Dist_500_LN_25_LD_30_RN_9_RD_27_0.png","C_Dist_500_LN_4_LD_6_RN_1_RD_6_0.png","C_Dist_500_LN_5_LD_6_RN_2_RD_6_0.png","C_Dist_500_LN_6_LD_9_RN_1_RD_6_0.png","C_Dist_500_LN_7_LD_10_RN_1_RD_5_0.png","C_Dist_500_LN_8_LD_12_RN_1_RD_6_0.png","C_Dist_500_LN_8_LD_12_RN_4_RD_24_0.png"],["C_Dist_500_LN_1_LD_4_RN_12_RD_16_1.png","C_Dist_500_LN_1_LD_4_RN_9_RD_12_1.png","C_Dist_500_LN_1_LD_9_RN_11_RD_18_1.png","C_Dist_500_LN_10_LD_24_RN_22_RD_24_1.png","C_Dist_500_LN_2_LD_12_RN_10_RD_15_1.png","C_Dist_500_LN_2_LD_12_RN_12_RD_18_1.png","C_Dist_500_LN_2_LD_12_RN_4_RD_6_1.png","C_Dist_500_LN_2_LD_24_RN_7_RD_12_1.png","C_Dist_500_LN_2_LD_5_RN_18_RD_20_1.png","C_Dist_500_LN_2_LD_5_RN_9_RD_10_1.png","C_Dist_500_LN_2_LD_8_RN_12_RD_16_1.png","C_Dist_500_LN_2_LD_8_RN_21_RD_28_1.png","C_Dist_500_LN_3_LD_10_RN_4_RD_5_1.png","C_Dist_500_LN_3_LD_12_RN_15_RD_20_1.png","C_Dist_500_LN_3_LD_30_RN_6_RD_10_1.png","C_Dist_500_LN_3_LD_8_RN_14_RD_16_1.png","C_Dist_500_LN_4_LD_16_RN_15_RD_20_1.png","C_Dist_500_LN_4_LD_24_RN_12_RD_18_1.png","C_Dist_500_LN_5_LD_14_RN_6_RD_7_1.png","C_Dist_500_LN_7_LD_21_RN_20_RD_24_1.png","C_Dist_500_LN_7_LD_28_RN_12_RD_16_1.png","C_Dist_500_LN_7_LD_28_RN_9_RD_12_1.png","C_Dist_500_LN_9_LD_27_RN_20_RD_24_1.png"]],"dist500_I":[["I_Dist_500_LN_2_LD_3_RN_4_RD_24_0.png","I_Dist_500_LN_5_LD_6_RN_6_RD_18_0.png","I_Dist_500_LN_7_LD_8_RN_9_RD_24_0.png"],["I_Dist_500_LN_7_LD_21_RN_5_RD_6_1.png"]],"dist500_S":[["E_Dist_500_LN_6_LD_8_RN_6_RD_24_0.png"],["E_Dist_500_LN_2_LD_12_RN_2_RD_3_1.png","E_Dist_500_LN_6_LD_24_RN_6_RD_8_1.png"]]}},{"start_time":1552327261596,"click_time":1552327264944,"finger_time":1552327263023,"fix_duration":570.0691732890313,"trial":1,"RT":1427,"MT":1921,"sideResp":1,"stimulus":[],"xmouse":[783,783,783,783,783,784,784,784,784,785,785,786,788,790,791,793,793,793,793,793,793,793,793,793,793,793,793,793,793,793,793,793,793,793,793,793,788,784,781,779,779,779,779,779,779,779,779,778,778,778,778,778,778,778,778,778,778,778,778,778,778,778,778,778,778,778,778,775,771,767,759,745,739,736,736,736,738,738,738,738,738,738,738,738,738,738,738,738,738,739,740,742,742,743,743,744,746,746,747,747,747,749,749,751,752,753,754,755,756,756,756,756,756,757,757,757,757,757,757,757,757,757,757,757,757,757,757,756,755,754,753,752,750,747,744,738,718,697,688,649,615,582,562,562,562,562,562,562,562,562,562,562,562,560,556,550,544,542,539,537,535,533,533,533,533,530,527,498],"ymouse":[518,518,518,518,518,518,518,518,518,517,517,516,515,513,511,509,509,509,509,509,509,509,509,509,509,509,509,509,509,509,509,509,509,509,508,507,507,507,507,507,507,507,507,507,507,507,507,506,506,506,506,506,506,506,506,506,506,506,506,506,506,506,506,506,506,506,506,503,497,492,481,457,443,428,414,403,391,387,382,380,380,380,380,380,380,380,385,392,404,412,420,430,434,438,442,446,452,454,455,456,458,462,465,468,471,474,477,477,479,479,479,480,480,481,481,481,481,481,481,481,481,481,481,477,472,467,457,453,448,444,442,440,436,432,426,417,385,344,321,231,172,116,63,57,57,57,57,57,57,57,57,57,57,57,58,61,62,63,63,64,64,64,65,65,65,65,67,78],"timestamp_mouse":[10,41,48,68,87,107,128,147,167,188,208,228,247,268,288,307,327,347,369,388,408,427,447,468,488,507,528,547,567,588,608,627,648,667,687,707,727,748,767,787,808,827,847,867,888,907,928,948,967,988,1008,1028,1047,1067,1087,1108,1127,1148,1168,1187,1208,1228,1249,1267,1288,1307,1327,1347,1367,1388,1408,1427,1447,1467,1488,1508,1528,1547,1567,1587,1608,1628,1647,1667,1688,1708,1727,1748,1767,1787,1807,1827,1847,1868,1888,1908,1927,1947,1967,1988,2007,2027,2047,2067,2087,2108,2127,2148,2167,2188,2207,2227,2247,2267,2287,2308,2329,2347,2368,2388,2407,2428,2447,2468,2488,2507,2528,2547,2567,2588,2607,2627,2647,2668,2688,2708,2728,2747,2767,2787,2807,2827,2847,2867,2887,2908,2927,2948,2967,2988,3008,3027,3047,3067,3087,3107,3127,3148,3167,3188,3207,3227,3248,3268,3288,3308,3327,3348],"xSR":741.5,"ySR":469.95,"xT1":424.9,"yT1":0,"xT2":1058.1,"yT2":0,"toosoon":0,"cond_shown":"Congruent","ratio_trial":200,"L_num":11,"L_den":22,"R_num":3,"R_den":10,"correct_side":1,"subjID":"SantiagoVelasquez20","gender":"0","school":"4","age":"9"},{"start_time":1552327266676,"click_time":1552327268726,"finger_time":1552327268243,"fix_duration":250,"trial":2,"RT":1567,"MT":483,"sideResp":2,"stimulus":[],"xmouse":[782,782,782,782,782,782,782,782,782,782,782,782,782,782,782,782,782,782,782,782,782,782,782,782,782,782,782,782,782,782,782,782,782,782,782,782,782,782,782,782,782,782,782,782,782,782,782,782,782,782,782,782,782,782,782,782,782,782,782,782,782,782,782,782,782,782,782,782,782,782,782,782,782,782,788,794,804,832,850,866,886,923,990,1005,1010,1013,1016,1019,1020,1022,1023,1025,1027,1030,1033,1036,1041,1051,1058,1063,1069,1076,1080],"ymouse":[536,536,536,536,536,536,536,536,536,536,536,536,536,536,536,536,536,536,536,536,536,536,536,536,536,536,536,536,536,536,536,536,536,536,536,536,536,536,536,536,536,536,536,536,536,536,536,536,536,536,536,536,536,536,536,536,536,536,536,536,536,536,536,536,536,536,536,536,536,536,536,536,536,534,528,525,517,488,471,454,430,388,312,276,249,229,209,194,189,185,179,173,168,164,164,164,163,157,149,140,127,100,68],"timestamp_mouse":[15,28,54,68,87,108,127,147,167,188,207,227,247,267,287,308,328,347,367,387,408,428,447,468,488,508,527,547,567,588,608,628,648,668,689,708,727,747,767,788,808,828,848,867,887,907,927,947,968,987,1007,1028,1047,1067,1088,1107,1128,1147,1167,1187,1208,1227,1247,1267,1288,1308,1327,1347,1368,1387,1407,1427,1447,1468,1487,1508,1527,1548,1567,1587,1608,1627,1649,1667,1687,1708,1727,1749,1767,1788,1807,1827,1847,1867,1887,1907,1927,1948,1967,1988,2007,2028,2049],"xSR":741.5,"ySR":469.95,"xT1":424.9,"yT1":0,"xT2":1058.1,"yT2":0,"toosoon":0,"cond_shown":"Congruent","ratio_trial":300,"L_num":20,"L_den":25,"R_num":5,"R_den":10,"correct_side":1,"subjID":"SantiagoVelasquez20","gender":"0","school":"4","age":"9"},{"start_time":1552327271239,"click_time":1552327272665,"finger_time":1552327272163,"fix_duration":1195.065858214685,"trial":3,"RT":924,"MT":502,"sideResp":1,"stimulus":[],"xmouse":[782,782,782,782,782,782,782,781,781,781,781,781,781,781,781,781,779,779,779,778,778,778,778,778,778,778,778,778,778,776,776,776,775,775,773,773,773,773,772,770,764,762,761,761,761,745,738,735,735,735,732,722,674,636,609,598,598,598,598,598,598,598,598,598,598,598,598,598,598,598,598,481],"ymouse":[525,525,525,525,525,525,525,521,518,515,515,515,515,515,515,515,511,509,508,508,508,508,508,508,508,508,508,508,508,508,508,508,508,510,511,511,511,513,514,514,517,517,517,517,517,495,475,460,443,428,396,362,247,146,54,19,19,19,19,19,19,19,19,19,19,19,19,19,19,19,19,5],"timestamp_mouse":[13,35,44,64,84,104,124,145,164,184,205,225,244,264,284,305,324,344,364,386,404,425,444,464,484,506,524,545,564,585,604,625,644,665,684,705,724,745,764,784,804,824,845,865,885,904,924,944,965,985,1005,1024,1045,1064,1084,1104,1124,1145,1164,1184,1204,1225,1245,1265,1284,1304,1325,1344,1364,1384,1404,1425],"xSR":741.5,"ySR":469.95,"xT1":424.9,"yT1":0,"xT2":1058.1,"yT2":0,"toosoon":0,"cond_shown":"Incongruent","ratio_trial":300,"L_num":4,"L_den":20,"R_num":2,"R_den":4,"correct_side":2,"subjID":"SantiagoVelasquez20","gender":"0","school":"4","age":"9"},{"start_time":1552327276765,"click_time":1552327279263,"finger_time":1552327278383,"fix_duration":961.8693987843059,"trial":4,"RT":1618,"MT":880,"sideResp":1,"stimulus":[],"xmouse":[786,786,786,786,786,786,786,786,786,786,786,786,786,786,786,786,786,786,786,786,786,786,786,786,786,786,786,786,786,786,786,786,786,786,786,786,786,786,786,786,786,786,786,786,786,786,786,786,786,786,786,786,786,786,786,786,786,786,786,786,786,786,786,786,786,786,786,786,786,786,786,786,786,786,786,786,789,797,812,819,825,832,840,852,869,878,888,899,910,920,923,927,929,931,931,931,931,931,929,905,879,831,812,774,736,718,702,690,682,673,670,668,667,658,649,639,633,633,633,628,620,607,576,547,491],"ymouse":[508,508,508,508,508,508,508,508,508,508,508,508,508,508,508,508,508,508,508,508,508,508,508,508,508,508,508,508,508,508,508,508,508,508,508,508,508,508,508,508,508,508,508,508,508,508,508,508,508,508,508,508,508,508,508,508,508,508,508,508,508,508,508,508,508,508,508,508,508,508,508,508,508,508,508,507,502,497,484,477,469,460,450,432,388,361,330,309,295,282,276,269,263,257,255,255,255,255,254,256,267,289,299,323,350,363,374,383,388,395,397,399,399,388,365,332,293,262,237,194,168,140,100,69,29],"timestamp_mouse":[18,44,59,79,99,119,139,159,178,198,219,239,259,278,298,319,338,359,378,399,419,439,459,478,499,519,539,558,579,598,619,638,658,679,698,718,739,759,779,799,819,839,859,878,899,918,938,958,979,999,1019,1039,1059,1079,1099,1120,1139,1159,1179,1198,1218,1238,1258,1279,1299,1319,1340,1359,1379,1398,1418,1439,1459,1479,1498,1518,1539,1558,1579,1598,1618,1639,1658,1679,1698,1718,1738,1759,1778,1798,1818,1839,1858,1878,1898,1919,1938,1958,1979,1998,2018,2038,2058,2078,2098,2118,2139,2159,2178,2198,2219,2238,2258,2280,2298,2318,2338,2359,2379,2398,2419,2438,2459,2478,2498],"xSR":741.5,"ySR":469.95,"xT1":424.9,"yT1":0,"xT2":1058.1,"yT2":0,"toosoon":0,"cond_shown":"Incongruent","ratio_trial":300,"L_num":4,"L_den":5,"R_num":6,"R_den":12,"correct_side":1,"subjID":"SantiagoVelasquez20","gender":"0","school":"4","age":"9"},{"start_time":1552327280458,"click_time":1552327282424,"finger_time":1552327282003,"fix_duration":352.26246273653226,"trial":5,"RT":1545,"MT":421,"sideResp":1,"stimulus":[],"xmouse":[763,763,763,763,763,763,763,763,763,764,764,764,764,764,764,764,764,764,764,764,764,764,764,764,764,764,764,764,764,764,764,764,764,764,764,764,764,764,764,764,764,764,764,764,764,764,764,764,764,764,764,764,764,764,764,764,764,764,764,764,764,764,764,764,764,764,764,764,764,764,764,764,764,764,764,753,744,735,725,710,666,643,625,607,597,592,588,573,553,533,521,521,519,513,510,507,504,490,483],"ymouse":[540,540,540,540,540,540,540,540,540,540,540,540,540,540,540,540,540,540,540,540,540,540,540,540,540,540,540,540,540,540,540,540,540,540,540,540,540,540,540,540,540,540,540,540,540,540,540,540,540,540,540,540,540,540,540,540,539,539,537,537,537,537,537,537,537,537,537,537,537,537,537,537,537,536,532,504,482,462,436,398,303,247,208,182,170,160,153,141,130,119,116,116,116,117,118,118,117,107,99],"timestamp_mouse":[11,36,45,66,86,105,126,145,165,185,205,225,246,266,285,306,326,345,365,385,406,427,445,466,485,505,525,545,565,585,606,626,645,665,685,706,726,746,765,785,806,825,846,865,886,906,926,945,965,986,1005,1026,1046,1066,1086,1106,1126,1145,1166,1186,1206,1225,1246,1266,1285,1306,1325,1347,1365,1385,1405,1426,1446,1465,1486,1505,1526,1545,1565,1585,1605,1625,1646,1665,1685,1706,1725,1746,1765,1786,1806,1825,1845,1865,1885,1906,1926,1945,1965],"xSR":741.5,"ySR":469.95,"xT1":424.9,"yT1":0,"xT2":1058.1,"yT2":0,"toosoon":0,"cond_shown":"Congruent","ratio_trial":300,"L_num":24,"L_den":30,"R_num":8,"R_den":16,"correct_side":1,"subjID":"SantiagoVelasquez20","gender":"0","school":"4","age":"9"},{"start_time":1552327288872,"click_time":1552327290723,"finger_time":1552327290383,"fix_duration":986.8224708441586,"trial":6,"RT":1511,"MT":340,"sideResp":2,"stimulus":[],"xmouse":[793,793,793,793,793,793,793,793,793,793,793,793,793,793,793,793,793,793,793,793,793,793,793,793,793,793,793,793,793,793,793,793,793,793,793,793,793,793,793,793,793,793,793,793,793,793,793,793,793,793,793,793,793,793,793,793,793,793,793,793,793,793,793,793,793,793,793,793,793,793,793,795,798,803,807,819,831,844,871,905,992,1047,1075,1096,1112,1124,1132,1133,1134,1135,1130,1119,1114],"ymouse":[511,510,509,509,509,509,509,509,509,509,509,509,509,509,509,509,509,509,509,509,509,509,509,509,509,509,509,509,509,509,509,509,509,509,509,509,509,509,509,509,509,509,509,509,509,509,509,509,509,509,509,509,509,509,509,509,509,509,509,509,509,509,509,509,509,509,509,509,509,509,509,504,498,491,484,463,448,431,396,363,282,244,229,220,212,204,194,191,187,178,156,108,68],"timestamp_mouse":[11,32,61,71,91,111,133,152,172,192,212,231,252,272,292,312,333,352,373,392,412,432,451,472,492,511,531,552,572,591,613,631,652,673,692,713,733,751,771,791,813,831,853,872,891,913,933,952,972,991,1012,1032,1051,1073,1092,1112,1132,1152,1173,1191,1212,1231,1251,1271,1293,1311,1332,1353,1372,1392,1411,1431,1451,1472,1491,1511,1531,1551,1572,1591,1612,1631,1652,1673,1692,1711,1731,1751,1771,1792,1812,1831,1851],"xSR":741.5,"ySR":469.95,"xT1":424.9,"yT1":0,"xT2":1058.1,"yT2":0,"toosoon":0,"cond_shown":"Congruent","ratio_trial":100,"L_num":12,"L_den":30,"R_num":13,"R_den":26,"correct_side":2,"subjID":"SantiagoVelasquez20","gender":"0","school":"4","age":"9"},{"start_time":1552327293796,"click_time":1552327295904,"finger_time":1552327295343,"fix_duration":250,"trial":7,"RT":1547,"MT":561,"sideResp":2,"stimulus":[],"xmouse":[789,789,789,792,792,792,792,792,792,793,793,793,793,793,793,793,793,793,793,793,800,807,811,813,815,818,819,820,820,820,823,824,826,826,827,827,827,828,822,816,812,812,812,812,812,814,816,819,821,821,821,821,821,821,821,821,821,821,821,821,821,821,821,821,821,821,821,821,821,821,821,821,824,826,829,835,838,843,847,851,852,852,852,852,854,866,874,883,891,896,911,917,925,933,949,970,979,984,991,1000,1020,1030,1038,1046,1059,1074],"ymouse":[510,510,510,509,509,509,509,509,509,509,511,511,512,512,512,512,512,512,512,512,509,504,500,497,494,482,479,477,477,477,477,477,477,477,477,477,477,482,493,501,507,507,507,507,507,504,501,498,495,494,494,494,494,494,494,494,494,494,494,494,494,494,494,494,494,494,494,494,494,494,494,494,491,488,485,476,470,459,448,433,427,425,423,422,418,399,391,380,370,364,344,333,320,305,281,252,238,226,213,200,168,154,140,130,111,90],"timestamp_mouse":[16,37,48,67,88,108,128,148,167,188,207,228,248,267,288,309,328,348,368,388,407,428,447,469,488,509,527,547,569,588,607,628,649,667,688,708,727,748,767,787,808,827,849,867,887,908,927,947,968,988,1008,1029,1048,1067,1089,1107,1128,1148,1169,1189,1207,1227,1249,1268,1288,1307,1329,1348,1368,1388,1407,1427,1447,1469,1488,1507,1527,1547,1568,1589,1607,1627,1647,1668,1687,1707,1728,1748,1768,1787,1807,1827,1848,1868,1888,1907,1927,1947,1967,1988,2008,2028,2047,2068,2088,2108],"xSR":741.5,"ySR":469.95,"xT1":424.9,"yT1":0,"xT2":1058.1,"yT2":0,"toosoon":0,"cond_shown":"Incongruent","ratio_trial":100,"L_num":6,"L_den":10,"R_num":13,"R_den":26,"correct_side":1,"subjID":"SantiagoVelasquez20","gender":"0","school":"4","age":"9"},{"start_time":1552327298475,"click_time":1552327300785,"finger_time":1552327300623,"fix_duration":250,"trial":8,"RT":2148,"MT":162,"sideResp":1,"stimulus":[],"xmouse":[800,800,800,800,800,800,800,800,800,800,800,800,800,800,800,800,800,800,800,800,800,800,800,800,800,800,800,800,800,800,800,800,800,800,800,800,800,800,800,800,800,800,800,800,800,800,800,800,800,800,800,800,800,800,800,800,800,800,800,800,800,800,800,800,800,800,800,800,800,800,800,800,800,799,798,793,783,776,773,772,771,771,771,771,771,771,771,771,771,771,771,771,771,771,771,771,771,771,771,771,771,771,771,771,771,770,760,725,702,673,645,571,535,497,468,448],"ymouse":[508,508,508,508,508,508,508,508,508,508,508,508,508,508,508,508,508,508,508,508,508,508,508,508,508,508,508,508,508,508,508,508,508,508,508,508,508,508,508,508,508,508,508,508,508,508,508,508,508,508,508,508,508,508,508,508,508,508,508,508,508,508,508,508,508,508,508,508,508,508,508,508,508,507,507,505,501,500,499,499,499,499,499,499,499,499,499,499,499,500,500,502,502,503,504,505,505,505,507,507,508,508,508,508,508,507,502,486,471,451,430,326,255,171,101,8],"timestamp_mouse":[10,29,49,68,88,108,129,149,168,188,208,228,248,269,289,310,329,349,369,388,410,430,449,469,490,509,529,548,569,589,609,629,649,668,689,709,730,749,769,789,810,830,849,869,888,909,930,949,969,989,1009,1028,1050,1069,1090,1109,1128,1148,1169,1189,1209,1228,1249,1269,1288,1309,1328,1349,1368,1388,1410,1430,1448,1468,1488,1509,1528,1549,1568,1589,1608,1629,1648,1669,1688,1710,1730,1748,1769,1789,1808,1829,1848,1868,1889,1908,1928,1948,1968,1988,2008,2028,2048,2068,2088,2108,2128,2148,2168,2188,2208,2229,2248,2269,2288,2309],"xSR":741.5,"ySR":469.95,"xT1":424.9,"yT1":0,"xT2":1058.1,"yT2":0,"toosoon":0,"cond_shown":"Incongruent","ratio_trial":200,"L_num":4,"L_den":5,"R_num":6,"R_den":10,"correct_side":1,"subjID":"SantiagoVelasquez20","gender":"0","school":"4","age":"9"},{"start_time":1552327302528,"click_time":1552327305024,"finger_time":1552327304484,"fix_duration":804.9602773927844,"trial":9,"RT":1956,"MT":540,"sideResp":2,"stimulus":[],"xmouse":[780,780,780,780,780,780,780,780,780,780,780,780,780,780,780,780,780,780,780,780,780,780,780,780,780,780,780,780,780,780,780,780,780,780,780,780,780,780,780,780,780,780,780,780,780,780,780,780,780,780,780,780,780,780,780,780,780,780,780,780,780,780,780,780,780,780,780,780,780,780,780,780,780,780,780,780,780,780,780,780,780,780,780,780,780,780,780,780,780,780,780,780,780,780,784,790,802,817,862,882,896,909,927,934,964,970,972,972,972,977,980,986,994,1000,1018,1029,1038,1043,1046,1048,1049,1051,1054,1058,1065],"ymouse":[492,492,492,492,492,492,492,492,492,492,492,492,492,492,492,492,492,492,492,492,492,492,492,492,492,492,492,492,492,492,492,492,492,492,492,492,492,492,492,492,492,492,492,492,492,492,492,492,492,492,492,492,492,492,492,492,492,492,492,492,492,492,492,492,492,492,492,492,492,492,492,492,492,492,492,492,492,492,492,492,492,492,492,492,492,492,492,492,492,492,492,492,492,492,492,490,481,468,423,390,364,339,308,298,252,244,240,239,237,223,214,205,192,185,162,149,136,129,124,122,120,118,114,107,89],"timestamp_mouse":[31,35,55,76,96,115,136,157,177,197,216,236,257,277,296,316,336,356,376,397,417,436,455,475,496,517,536,557,577,596,616,636,655,676,697,716,736,756,775,797,816,835,856,876,895,917,935,956,976,995,1016,1035,1055,1075,1095,1116,1136,1155,1175,1196,1216,1236,1255,1275,1296,1317,1335,1356,1376,1397,1417,1435,1455,1475,1495,1515,1535,1555,1576,1595,1617,1636,1656,1675,1696,1717,1736,1756,1775,1796,1817,1836,1856,1875,1896,1915,1936,1956,1977,1996,2017,2036,2056,2076,2095,2115,2136,2156,2176,2195,2215,2235,2257,2276,2296,2315,2336,2355,2377,2396,2416,2436,2455,2475,2496],"xSR":741.5,"ySR":469.95,"xT1":424.9,"yT1":0,"xT2":1058.1,"yT2":0,"toosoon":0,"cond_shown":"Incongruent","ratio_trial":200,"L_num":7,"L_den":15,"R_num":4,"R_den":6,"correct_side":2,"subjID":"SantiagoVelasquez20","gender":"0","school":"4","age":"9"},{"start_time":1552327307930,"click_time":1552327311483,"finger_time":1552327309843,"fix_duration":826.4598821781301,"trial":10,"RT":1913,"MT":1640,"sideResp":1,"stimulus":[],"xmouse":[775,778,778,779,781,781,782,782,782,782,782,782,782,782,782,783,783,783,783,783,783,783,783,783,783,783,783,778,774,757,752,752,752,752,752,752,752,752,752,753,755,761,765,769,775,777,777,777,778,778,778,779,779,779,779,779,779,779,779,779,779,779,779,779,779,779,779,779,779,779,779,779,779,779,779,779,779,779,779,779,779,779,779,779,779,779,779,779,780,782,784,788,792,797,802,805,808,813,822,846,858,865,871,875,877,878,879,879,879,879,879,879,879,879,879,879,879,879,879,879,879,879,879,879,879,880,881,881,881,881,881,881,881,881,879,876,873,872,872,864,858,852,847,836,799,778,761,752,747,734,715,678,652,634,629,629,629,629,629,629,628,628,626,626,621,606,580,539,495,475,474,473,472,473,474,475,476,478],"ymouse":[522,522,522,522,522,522,522,522,522,522,522,522,522,522,522,522,521,520,518,516,514,512,510,510,510,510,510,519,528,553,560,560,560,560,560,560,560,558,557,551,545,533,526,517,508,504,504,504,507,517,520,521,521,521,521,521,521,521,521,521,521,521,521,521,521,521,521,521,521,521,521,521,521,521,521,521,521,521,521,521,521,521,521,521,521,521,521,521,521,521,517,510,502,493,474,464,456,446,424,390,371,361,353,348,344,343,343,343,343,343,343,343,343,343,343,343,343,343,343,343,343,343,343,343,343,341,341,341,341,341,341,341,341,341,342,343,344,344,344,338,333,329,326,320,304,296,288,283,278,262,242,216,193,173,157,126,120,116,113,108,107,106,106,106,106,109,112,117,119,120,120,120,119,118,113,110,105,97],"timestamp_mouse":[20,45,54,74,94,113,133,155,174,193,213,235,254,275,294,313,334,353,375,393,413,433,454,474,495,514,534,553,573,593,613,634,655,673,694,714,735,753,773,793,815,833,854,873,893,913,933,954,974,993,1014,1033,1054,1073,1093,1115,1134,1154,1174,1193,1213,1233,1253,1273,1293,1315,1333,1353,1374,1395,1415,1433,1454,1475,1493,1514,1533,1555,1573,1593,1614,1635,1655,1673,1693,1714,1733,1753,1774,1793,1814,1833,1854,1873,1893,1913,1935,1954,1973,1994,2013,2033,2053,2073,2093,2113,2133,2155,2174,2194,2214,2234,2254,2273,2294,2314,2334,2354,2373,2394,2414,2435,2455,2473,2493,2513,2534,2553,2573,2594,2614,2635,2654,2673,2694,2713,2733,2753,2773,2795,2813,2834,2853,2873,2895,2913,2933,2953,2974,2994,3013,3033,3055,3074,3093,3113,3134,3154,3175,3195,3213,3233,3253,3274,3295,3313,3334,3354,3374,3394,3413,3434,3454,3473,3494,3513,3533,3553],"xSR":741.5,"ySR":469.95,"xT1":424.9,"yT1":0,"xT2":1058.1,"yT2":0,"toosoon":0,"cond_shown":"Congruent","ratio_trial":300,"L_num":4,"L_den":10,"R_num":1,"R_den":10,"correct_side":1,"subjID":"SantiagoVelasquez20","gender":"0","school":"4","age":"9"},{"start_time":1552327313148,"click_time":1552327315443,"finger_time":1552327314443,"fix_duration":821.8391477154764,"trial":11,"RT":1295,"MT":1000,"sideResp":2,"stimulus":[],"xmouse":[793,793,793,793,793,793,793,793,793,793,793,793,793,793,793,793,793,793,793,793,793,793,793,793,793,793,793,793,793,793,793,793,793,793,793,793,793,793,793,793,793,793,793,794,794,794,794,794,794,794,794,794,794,794,796,798,800,802,804,804,804,804,804,806,817,831,835,843,846,850,854,857,861,862,865,866,866,866,866,866,866,867,867,869,872,876,882,885,888,897,904,909,912,913,915,915,916,916,917,919,920,922,925,928,939,955,968,981,992,1011,1020,1027,1037,1046,1060],"ymouse":[490,490,490,490,490,490,490,490,490,490,490,490,490,490,490,490,490,490,490,490,490,490,490,490,490,490,490,490,490,490,490,492,492,492,492,492,492,493,493,493,493,493,493,493,493,493,493,493,493,493,493,493,493,493,492,486,482,478,476,476,476,476,476,474,468,459,458,454,452,449,445,442,439,437,433,431,431,431,431,431,431,431,430,429,422,415,404,393,386,361,344,333,325,321,316,313,311,308,306,299,295,290,285,279,255,232,213,196,181,156,142,129,113,101,80],"timestamp_mouse":[15,41,56,75,96,115,137,157,175,197,215,236,255,277,296,317,337,355,375,397,416,436,457,475,495,516,536,556,576,596,615,635,657,675,695,716,735,757,775,796,817,837,856,875,897,915,936,955,977,995,1015,1035,1055,1076,1095,1116,1135,1156,1176,1197,1216,1237,1255,1275,1295,1315,1335,1355,1375,1395,1415,1435,1455,1476,1495,1515,1535,1555,1576,1595,1616,1635,1656,1676,1695,1716,1735,1755,1776,1796,1815,1836,1856,1876,1895,1916,1935,1955,1975,1995,2015,2036,2055,2076,2095,2115,2135,2155,2175,2195,2216,2236,2255,2275,2295],"xSR":741.5,"ySR":469.95,"xT1":424.9,"yT1":0,"xT2":1058.1,"yT2":0,"toosoon":0,"cond_shown":"Congruent","ratio_trial":200,"L_num":1,"L_den":2,"R_num":21,"R_den":30,"correct_side":2,"subjID":"SantiagoVelasquez20","gender":"0","school":"4","age":"9"},{"start_time":1552327316516,"click_time":1552327319003,"finger_time":1552327318184,"fix_duration":250,"trial":12,"RT":1668,"MT":819,"sideResp":1,"stimulus":[],"xmouse":[799,799,799,799,799,799,799,799,799,799,799,799,799,799,799,799,799,799,799,799,799,799,799,799,799,799,799,799,799,799,799,799,799,799,799,799,799,799,799,799,799,799,799,799,799,799,799,799,799,799,799,799,799,799,799,799,799,799,799,799,799,799,799,799,799,799,799,799,799,799,799,799,799,799,799,799,799,799,800,801,802,805,809,813,816,820,823,824,824,824,824,824,824,824,824,824,824,814,799,779,751,674,651,637,628,620,606,592,586,584,583,583,579,574,564,564,564,564,564,564,564,564,564,564,495],"ymouse":[494,494,494,494,494,494,494,494,494,494,494,494,494,494,494,494,494,494,494,494,494,494,494,494,494,494,494,494,494,494,494,494,494,494,494,494,494,494,494,494,494,494,494,494,494,494,494,494,494,494,494,494,494,494,494,494,494,494,494,494,494,494,494,494,494,494,494,494,494,494,494,494,494,494,494,494,494,494,492,490,489,483,475,466,455,441,425,422,421,421,421,421,419,418,417,417,417,405,393,381,363,318,306,294,287,276,246,222,207,194,181,149,125,85,27,27,27,27,27,27,27,27,27,27,1],"timestamp_mouse":[12,36,47,69,89,108,127,148,167,187,208,229,248,268,289,308,327,348,368,388,408,427,448,467,489,507,527,547,567,588,607,627,647,667,688,708,727,747,767,788,807,827,849,867,889,909,927,948,968,989,1008,1027,1048,1067,1087,1109,1127,1147,1168,1188,1207,1229,1248,1267,1288,1308,1328,1347,1367,1389,1409,1427,1448,1468,1488,1508,1527,1548,1567,1588,1607,1628,1647,1668,1687,1708,1728,1747,1767,1788,1808,1828,1847,1867,1887,1907,1927,1947,1967,1987,2007,2028,2047,2067,2087,2108,2128,2147,2168,2187,2207,2229,2247,2267,2288,2308,2328,2348,2368,2388,2407,2428,2448,2468,2487],"xSR":741.5,"ySR":469.95,"xT1":424.9,"yT1":0,"xT2":1058.1,"yT2":0,"toosoon":0,"cond_shown":"Incongruent","ratio_trial":100,"L_num":12,"L_den":30,"R_num":2,"R_den":4,"correct_side":2,"subjID":"SantiagoVelasquez20","gender":"0","school":"4","age":"9"},{"start_time":1552327321337,"click_time":1552327323663,"finger_time":1552327323163,"fix_duration":1491.6991562756416,"trial":13,"RT":1826,"MT":500,"sideResp":2,"stimulus":[],"xmouse":[791,792,792,793,794,794,794,794,794,794,794,794,794,794,794,794,794,794,794,794,794,794,794,794,794,794,794,794,794,794,794,794,794,794,794,794,794,794,794,794,794,794,795,795,795,795,795,795,795,795,795,795,795,795,795,795,795,795,795,795,795,795,795,795,795,795,795,795,795,795,795,795,795,795,795,795,795,795,795,795,795,795,795,795,796,797,799,801,803,808,818,885,946,952,971,978,995,1002,1006,1010,1015,1023,1025,1026,1026,1026,1026,1026,1026,1027,1027,1029,1030,1032,1034,1038,1059],"ymouse":[535,530,530,527,526,526,526,526,526,526,526,526,526,526,526,526,526,526,526,526,526,526,526,526,526,526,526,526,526,526,526,526,526,526,526,526,526,526,526,526,526,524,523,523,522,522,522,522,522,522,522,522,522,522,522,522,522,522,522,522,522,522,522,522,522,522,522,522,522,522,522,522,522,522,522,522,522,522,522,522,522,522,522,522,521,520,515,512,508,498,479,382,295,282,225,183,118,96,77,62,44,22,18,17,17,17,17,17,17,17,17,17,17,17,17,19,25],"timestamp_mouse":[15,40,46,67,88,108,127,148,167,188,206,226,246,267,287,306,327,348,368,387,407,426,446,468,487,506,526,547,566,587,606,627,647,666,687,706,726,747,767,786,807,826,846,866,887,908,926,947,967,987,1006,1026,1046,1067,1088,1107,1126,1148,1166,1186,1208,1226,1247,1267,1288,1308,1327,1347,1367,1387,1407,1428,1446,1468,1486,1507,1526,1547,1567,1587,1607,1627,1648,1667,1687,1706,1727,1746,1767,1787,1807,1826,1847,1867,1887,1906,1926,1946,1967,1987,2007,2026,2046,2066,2087,2108,2126,2147,2167,2187,2206,2226,2246,2267,2286,2308,2326],"xSR":741.5,"ySR":469.95,"xT1":424.9,"yT1":0,"xT2":1058.1,"yT2":0,"toosoon":0,"cond_shown":"Incongruent","ratio_trial":300,"L_num":13,"L_den":26,"R_num":12,"R_den":15,"correct_side":2,"subjID":"SantiagoVelasquez20","gender":"0","school":"4","age":"9"},{"start_time":1552327324975,"click_time":1552327327125,"finger_time":1552327325343,"fix_duration":549.6709053670093,"trial":14,"RT":368,"MT":1782,"sideResp":2,"stimulus":[],"xmouse":[801,801,801,801,801,801,801,801,801,801,801,801,801,801,795,792,792,792,791,791,791,791,790,790,790,790,790,790,790,790,790,790,790,790,790,790,790,790,790,790,790,790,790,790,790,790,790,790,790,790,790,790,790,790,790,790,790,790,788,787,776,771,765,760,756,752,750,750,750,750,750,750,750,751,758,794,819,842,858,866,874,880,884,886,893,897,902,906,912,946,1002,1055,1075,1099,1136,1149,1159,1163,1168,1170,1171,1171,1171,1171,1171,1166,1161,1151],"ymouse":[525,525,525,525,525,525,525,525,525,525,525,521,517,510,495,487,480,473,468,468,468,468,467,467,467,467,467,467,467,469,472,474,475,475,475,475,475,475,475,475,475,475,475,475,475,475,475,475,475,475,475,475,475,475,475,475,475,475,474,473,455,445,433,415,364,339,317,308,303,299,298,298,298,298,297,292,285,280,274,271,264,260,257,255,247,244,240,235,228,203,180,167,160,151,129,121,113,106,98,93,87,87,87,87,86,86,85,85],"timestamp_mouse":[12,39,49,68,89,108,130,148,169,188,208,228,248,269,288,308,329,349,368,389,408,428,448,469,489,510,530,549,568,589,608,629,648,668,688,710,729,750,769,789,809,829,850,870,888,909,930,949,970,990,1009,1029,1048,1070,1088,1108,1128,1148,1168,1188,1210,1229,1249,1268,1289,1308,1328,1348,1369,1389,1410,1429,1448,1468,1488,1508,1528,1548,1569,1589,1609,1628,1650,1668,1689,1708,1729,1748,1768,1790,1809,1828,1849,1869,1889,1908,1929,1949,1969,1988,2009,2029,2048,2068,2088,2108,2128,2150],"xSR":741.5,"ySR":469.95,"xT1":424.9,"yT1":0,"xT2":1058.1,"yT2":0,"toosoon":0,"cond_shown":"Incongruent","ratio_trial":200,"L_num":7,"L_den":10,"R_num":8,"R_den":16,"correct_side":1,"subjID":"SantiagoVelasquez20","gender":"0","school":"4","age":"9"},{"start_time":1552327328453,"click_time":1552327330783,"finger_time":1552327330303,"fix_duration":367.5113944006605,"trial":15,"RT":1850,"MT":480,"sideResp":2,"stimulus":[],"xmouse":[770,770,770,770,770,773,774,775,775,775,775,775,775,775,775,775,775,775,775,775,776,777,778,778,778,778,778,778,778,778,778,778,778,778,778,778,778,778,778,778,778,778,778,778,778,778,778,778,778,778,778,778,778,778,778,778,778,778,778,778,778,778,778,778,778,778,778,778,778,778,778,778,778,778,778,778,778,778,778,778,778,778,779,781,786,788,790,790,790,790,794,801,806,811,813,820,823,827,830,834,844,903,925,938,941,941,948,957,967,978,984,996,1000,1007,1024,1058,1075],"ymouse":[496,496,496,496,496,493,493,492,492,492,492,492,492,492,492,492,492,492,492,492,492,492,492,492,492,492,492,492,492,492,492,492,492,492,492,492,492,492,492,492,495,505,509,509,509,509,509,509,509,509,509,509,509,509,509,509,509,509,507,507,507,507,507,507,507,507,505,505,505,505,505,505,505,505,505,505,505,505,505,505,505,505,502,498,484,477,472,471,471,471,471,470,468,465,465,458,455,451,445,436,407,198,123,99,91,89,82,79,76,74,71,68,67,64,58,49,44],"timestamp_mouse":[13,42,51,71,92,110,132,152,171,190,210,230,251,271,290,311,330,352,372,391,411,430,451,472,490,511,531,552,571,590,611,631,651,670,690,711,731,751,770,790,810,830,851,872,891,911,931,951,970,991,1012,1031,1051,1071,1091,1111,1132,1150,1170,1190,1211,1232,1250,1271,1292,1310,1331,1350,1371,1392,1410,1431,1450,1472,1492,1511,1530,1550,1571,1592,1611,1631,1650,1671,1691,1710,1731,1751,1771,1790,1810,1830,1850,1871,1891,1912,1930,1950,1970,1990,2010,2030,2051,2070,2091,2110,2131,2150,2170,2191,2210,2230,2251,2270,2291,2312,2330],"xSR":741.5,"ySR":469.95,"xT1":424.9,"yT1":0,"xT2":1058.1,"yT2":0,"toosoon":0,"cond_shown":"Congruent","ratio_trial":300,"L_num":20,"L_den":25,"R_num":9,"R_den":18,"correct_side":1,"subjID":"SantiagoVelasquez20","gender":"0","school":"4","age":"9"},{"start_time":1552327335458,"click_time":1552327337825,"finger_time":1552327337283,"fix_duration":594.9049484237842,"trial":16,"RT":1825,"MT":542,"sideResp":1,"stimulus":[],"xmouse":[815,815,815,815,815,815,815,815,815,815,818,819,820,820,820,820,820,820,820,820,820,820,820,820,820,820,820,820,820,820,820,820,820,820,820,820,820,820,820,820,820,820,820,820,820,820,820,820,820,820,820,820,820,820,820,820,820,820,820,820,820,820,820,820,820,820,820,820,820,820,820,820,820,820,820,819,814,810,805,802,799,798,796,796,794,794,793,790,789,785,782,777,762,754,742,728,709,660,641,621,602,576,571,568,567,567,564,562,561,561,561,561,561,559,554,543,527,491,478],"ymouse":[488,488,488,488,488,488,488,488,488,488,491,494,495,495,495,495,495,495,495,495,495,495,495,495,495,495,495,495,495,495,495,495,495,495,495,495,495,495,495,495,495,495,495,495,495,495,495,495,495,495,495,495,495,495,495,495,495,495,495,495,495,495,495,495,495,495,495,495,495,495,495,495,495,495,495,497,498,499,499,499,499,499,498,498,498,498,497,495,490,482,475,464,440,429,411,390,367,308,285,252,218,165,151,138,131,124,112,107,104,104,104,103,103,103,103,103,103,100,98],"timestamp_mouse":[21,37,45,66,87,106,125,146,165,185,206,225,246,266,285,306,326,346,365,386,405,425,447,466,486,505,525,546,566,585,606,626,646,666,685,706,725,746,767,787,807,826,847,865,886,905,925,947,966,986,1005,1025,1046,1065,1086,1105,1126,1145,1165,1185,1207,1226,1246,1266,1285,1305,1326,1347,1366,1386,1405,1425,1446,1466,1485,1505,1526,1545,1566,1585,1605,1625,1646,1665,1685,1705,1725,1745,1766,1786,1806,1825,1845,1866,1886,1905,1926,1945,1965,1985,2006,2027,2046,2065,2085,2105,2127,2145,2165,2187,2206,2227,2245,2265,2286,2305,2326,2345,2366],"xSR":741.5,"ySR":469.95,"xT1":424.9,"yT1":0,"xT2":1058.1,"yT2":0,"toosoon":0,"cond_shown":"Incongruent","ratio_trial":100,"L_num":6,"L_den":12,"R_num":3,"R_den":5,"correct_side":2,"subjID":"SantiagoVelasquez20","gender":"0","school":"4","age":"9"},{"start_time":1552327340915,"click_time":1552327344204,"finger_time":1552327343544,"fix_duration":250,"trial":17,"RT":2629,"MT":660,"sideResp":1,"stimulus":[],"xmouse":[766,767,767,768,769,771,775,776,777,783,787,788,790,791,791,791,791,791,791,791,791,791,791,791,791,791,791,791,791,791,791,791,791,791,791,791,791,791,791,791,791,791,791,791,791,791,791,791,791,791,791,791,791,791,791,791,791,791,791,791,791,791,791,791,791,791,791,791,791,791,791,791,791,791,791,791,791,791,791,791,791,791,791,791,791,791,791,791,791,791,791,791,791,791,791,791,791,791,791,791,791,791,791,791,791,792,792,792,792,792,792,792,792,792,792,792,792,792,792,792,792,792,792,792,792,792,792,792,791,788,781,767,747,720,674,672,671,669,669,667,658,650,642,633,618,613,610,609,606,600,596,592,587,584,580,562,555,551,550,550,550,550,550,543,524],"ymouse":[546,545,544,544,542,540,535,534,532,522,517,514,511,509,509,509,509,509,509,509,509,509,509,509,509,509,509,509,509,509,509,509,509,509,509,509,509,509,509,509,509,509,509,509,509,509,509,509,509,509,509,509,509,509,509,509,509,509,509,509,509,509,509,509,509,509,509,509,509,509,509,509,509,509,509,509,509,509,509,509,509,509,509,509,509,509,509,509,509,509,509,509,509,509,509,509,509,509,509,509,509,509,509,509,509,510,510,510,510,506,499,496,495,495,495,495,495,495,495,495,495,495,495,495,495,495,495,494,494,494,486,467,447,427,401,397,391,377,364,349,312,286,261,233,192,173,166,159,154,145,142,137,133,129,124,106,95,89,87,87,87,86,80,71,48],"timestamp_mouse":[13,33,48,69,88,108,128,149,169,188,208,229,248,270,288,308,330,349,368,388,408,430,448,468,489,508,529,549,569,589,608,629,648,668,689,709,728,750,769,789,808,829,848,868,890,909,928,948,969,989,1008,1029,1048,1070,1088,1109,1129,1150,1169,1188,1208,1229,1248,1268,1288,1310,1329,1348,1369,1390,1409,1429,1448,1469,1490,1509,1529,1550,1569,1588,1608,1628,1649,1669,1688,1708,1729,1748,1768,1789,1810,1830,1849,1869,1889,1910,1929,1948,1969,1988,2008,2030,2048,2068,2089,2109,2128,2149,2168,2188,2208,2229,2250,2268,2288,2309,2329,2349,2369,2388,2409,2429,2448,2469,2490,2508,2529,2549,2568,2588,2608,2629,2649,2670,2693,2709,2728,2749,2768,2789,2809,2828,2848,2869,2889,2908,2928,2948,2969,2989,3008,3028,3048,3068,3088,3108,3128,3150,3169,3189,3209,3229,3248,3268,3289],"xSR":741.5,"ySR":469.95,"xT1":424.9,"yT1":0,"xT2":1058.1,"yT2":0,"toosoon":0,"cond_shown":"Congruent","ratio_trial":100,"L_num":10,"L_den":25,"R_num":3,"R_den":10,"correct_side":1,"subjID":"SantiagoVelasquez20","gender":"0","school":"4","age":"9"},{"start_time":1552327345788,"click_time":1552327347644,"finger_time":1552327347224,"fix_duration":783.174819525396,"trial":18,"RT":1436,"MT":420,"sideResp":2,"stimulus":[],"xmouse":[768,765,765,762,760,760,759,759,759,759,759,759,759,759,759,759,759,759,759,759,763,765,765,765,765,765,766,766,767,768,768,768,768,768,768,768,768,768,768,768,768,768,768,768,768,768,768,768,768,768,768,768,768,768,768,769,769,770,771,771,771,772,775,778,780,781,786,789,792,799,800,815,823,833,849,871,936,963,990,1027,1214,1214,1214,1214,1214,1214,1214,1214,1214,1214,1214,1214,1092],"ymouse":[501,502,502,505,505,506,507,507,507,507,507,507,507,507,507,507,507,507,507,508,508,508,508,508,508,508,508,508,508,508,508,508,508,508,508,508,508,508,508,508,508,508,508,508,508,508,508,508,508,508,508,508,508,508,508,507,502,500,498,498,498,498,498,498,497,497,493,490,486,477,475,452,441,427,409,386,315,277,233,181,11,11,11,11,11,11,11,11,11,11,11,11,4],"timestamp_mouse":[24,51,55,76,95,116,136,156,175,196,215,235,257,275,297,315,335,356,376,396,415,436,455,475,497,516,536,556,575,596,615,635,656,676,696,715,736,755,775,795,816,835,855,876,895,916,935,956,976,995,1015,1037,1056,1076,1095,1116,1136,1156,1175,1197,1216,1235,1255,1277,1296,1315,1335,1356,1376,1395,1416,1436,1455,1475,1495,1515,1535,1555,1575,1596,1617,1636,1655,1676,1696,1715,1737,1756,1776,1797,1816,1836,1856],"xSR":741.5,"ySR":469.95,"xT1":424.9,"yT1":0,"xT2":1058.1,"yT2":0,"toosoon":0,"cond_shown":"Congruent","ratio_trial":300,"L_num":1,"L_den":20,"R_num":7,"R_den":20,"correct_side":2,"subjID":"SantiagoVelasquez20","gender":"0","school":"4","age":"9"},{"start_time":1552327349233,"click_time":1552327351704,"finger_time":1552327351123,"fix_duration":648.1809846087316,"trial":19,"RT":1890,"MT":581,"sideResp":1,"stimulus":[],"xmouse":[794,794,794,794,794,794,794,794,794,794,794,794,794,794,794,794,794,794,794,794,794,794,794,794,794,794,794,794,794,793,793,793,792,792,791,791,791,791,791,791,791,791,791,791,791,791,791,791,791,790,790,790,790,790,790,790,790,790,790,790,790,790,790,790,790,790,790,790,790,790,790,790,790,790,790,790,790,790,790,790,790,790,790,790,790,790,790,790,790,790,790,790,788,783,761,731,711,695,680,653,644,638,636,636,636,636,631,607,589,567,564,563,563,563,563,562,562,562,562,562,562,553,537,517],"ymouse":[506,504,504,501,499,498,496,495,494,494,494,494,494,493,493,493,493,493,493,493,493,493,493,493,493,493,493,493,493,493,493,493,494,496,497,497,497,497,497,497,497,497,497,497,497,496,495,495,495,494,494,494,494,494,494,494,494,494,494,494,494,494,494,494,494,494,494,494,494,494,494,494,494,494,494,494,494,494,494,494,494,494,494,494,494,494,494,494,494,494,494,494,491,486,467,446,429,411,380,285,247,227,214,210,194,186,167,123,84,49,43,41,40,40,40,39,39,39,39,39,39,43,52,59],"timestamp_mouse":[15,41,51,70,91,110,130,151,170,190,210,231,250,271,291,311,331,350,371,390,411,431,451,471,492,510,530,550,570,591,611,630,650,671,691,710,732,751,771,790,812,830,851,870,890,910,931,951,970,991,1010,1030,1051,1071,1090,1112,1130,1150,1170,1190,1210,1232,1250,1270,1290,1310,1331,1350,1370,1392,1411,1431,1451,1471,1490,1511,1530,1552,1570,1591,1612,1631,1651,1671,1691,1710,1732,1750,1770,1791,1812,1832,1850,1871,1890,1911,1930,1951,1971,1990,2010,2030,2051,2071,2091,2111,2130,2150,2171,2191,2210,2230,2250,2270,2290,2311,2330,2352,2370,2390,2410,2430,2450,2471],"xSR":741.5,"ySR":469.95,"xT1":424.9,"yT1":0,"xT2":1058.1,"yT2":0,"toosoon":0,"cond_shown":"Incongruent","ratio_trial":200,"L_num":4,"L_den":30,"R_num":1,"R_den":3,"correct_side":2,"subjID":"SantiagoVelasquez20","gender":"0","school":"4","age":"9"},{"start_time":1552327355390,"click_time":1552327357044,"finger_time":1552327356924,"fix_duration":845.431123752129,"trial":20,"RT":1534,"MT":120,"sideResp":1,"stimulus":[],"xmouse":[814,814,814,814,814,814,814,814,814,814,814,814,814,814,814,814,814,814,814,814,814,814,814,814,814,814,814,814,814,814,814,814,814,814,814,814,814,814,814,814,814,814,814,814,814,814,814,814,814,814,814,814,814,814,814,814,814,814,814,814,814,814,814,814,814,814,814,814,814,814,814,814,814,813,806,773,736,648,580,520,482,457,446],"ymouse":[506,506,506,506,506,506,506,506,506,506,506,506,506,506,506,506,506,506,506,506,506,506,506,506,506,506,506,506,506,506,506,506,506,506,506,506,506,506,506,506,506,506,506,506,506,506,506,506,506,506,506,506,506,506,506,506,506,506,506,506,506,506,506,506,506,506,506,506,506,506,506,506,506,505,503,494,483,441,393,341,284,210,36],"timestamp_mouse":[13,37,54,73,95,114,133,153,173,193,214,234,253,273,294,314,334,355,374,393,414,433,453,474,494,513,534,553,573,594,613,634,653,675,694,715,735,754,774,794,814,833,854,873,893,913,933,955,974,993,1013,1033,1055,1073,1094,1114,1134,1155,1173,1193,1214,1233,1253,1274,1293,1314,1335,1353,1374,1394,1414,1435,1454,1474,1494,1514,1534,1553,1573,1594,1613,1634,1654],"xSR":741.5,"ySR":469.95,"xT1":424.9,"yT1":0,"xT2":1058.1,"yT2":0,"toosoon":0,"cond_shown":"Congruent","ratio_trial":100,"L_num":8,"L_den":16,"R_num":2,"R_den":5,"correct_side":1,"subjID":"SantiagoVelasquez20","gender":"0","school":"4","age":"9"},{"start_time":1552327358196,"click_time":1552327360223,"finger_time":1552327359483,"fix_duration":250,"trial":21,"RT":1287,"MT":740,"sideResp":2,"stimulus":[],"xmouse":[813,813,813,813,813,812,812,812,812,812,811,811,811,811,811,811,811,811,811,811,811,811,811,811,811,810,810,810,810,810,810,810,810,810,810,809,809,809,809,809,809,808,808,808,808,808,808,808,808,808,808,808,808,807,807,807,807,807,807,807,807,807,807,813,824,831,838,846,847,848,848,848,849,857,866,878,892,940,965,978,988,997,1008,1011,1013,1016,1018,1020,1023,1023,1023,1025,1033,1040,1046,1049,1052,1055,1057,1060,1077,1126],"ymouse":[533,533,532,532,532,532,532,532,532,532,531,531,531,531,530,530,530,530,530,530,530,530,530,530,529,529,529,529,529,529,529,529,529,528,528,528,528,527,527,527,527,526,526,526,526,526,526,526,526,526,526,526,526,525,525,525,525,524,524,521,519,516,505,492,468,453,439,420,416,415,415,414,409,396,384,368,342,273,246,227,213,194,170,160,151,144,136,130,124,124,124,124,123,121,119,118,116,115,113,111,103,83],"timestamp_mouse":[12,33,48,67,87,108,129,147,168,188,208,227,249,267,287,307,327,348,368,387,408,429,448,467,487,508,527,549,567,587,608,628,649,667,688,708,727,747,768,788,808,827,847,867,887,908,927,948,967,989,1009,1029,1048,1068,1088,1108,1128,1148,1167,1187,1208,1228,1247,1267,1287,1307,1328,1348,1367,1387,1407,1427,1447,1468,1487,1507,1527,1548,1567,1587,1607,1629,1648,1668,1687,1709,1727,1747,1768,1787,1807,1827,1848,1868,1887,1907,1927,1947,1967,1988,2008,2027],"xSR":741.5,"ySR":469.95,"xT1":424.9,"yT1":0,"xT2":1058.1,"yT2":0,"toosoon":0,"cond_shown":"Incongruent","ratio_trial":300,"L_num":13,"L_den":26,"R_num":12,"R_den":15,"correct_side":2,"subjID":"SantiagoVelasquez20","gender":"0","school":"4","age":"9"},{"start_time":1552327366017,"click_time":1552327368643,"finger_time":1552327367763,"fix_duration":1350.691842900798,"trial":22,"RT":1746,"MT":880,"sideResp":2,"stimulus":[],"xmouse":[774,774,774,775,775,775,776,777,778,779,780,781,782,782,782,783,783,783,783,783,783,783,783,783,783,783,783,783,783,783,783,783,783,783,783,783,783,783,783,783,783,783,783,783,783,783,783,783,783,783,783,783,783,783,783,783,783,783,783,783,783,783,783,783,783,783,783,783,783,783,783,783,783,783,783,783,783,783,783,783,783,783,783,784,788,790,796,811,828,837,845,847,847,847,847,847,848,850,859,866,876,887,912,922,928,939,954,985,990,993,993,993,993,993,995,999,1005,1008,1015,1018,1021,1024,1028,1029,1030,1032,1034,1039,1042,1050,1056,1059],"ymouse":[485,485,485,485,485,485,485,485,486,486,488,488,489,489,489,489,489,489,489,489,489,489,490,492,494,495,495,496,496,496,497,497,497,497,497,497,497,497,497,497,497,497,497,497,497,497,497,497,497,497,497,497,497,497,497,497,497,497,497,497,496,496,496,496,496,496,496,496,496,496,496,496,496,496,496,496,496,496,496,496,495,494,493,491,486,482,475,463,450,444,440,438,438,438,438,438,438,436,425,418,405,392,358,341,323,281,243,195,185,175,171,169,169,169,169,167,165,162,156,152,148,144,136,132,128,124,118,109,104,95,89,84],"timestamp_mouse":[13,26,46,66,87,106,126,146,166,186,206,226,246,266,287,308,326,347,366,387,408,428,446,466,486,508,526,546,566,586,607,626,647,667,686,706,728,747,768,787,807,828,847,867,887,906,926,946,966,987,1008,1027,1048,1068,1087,1106,1126,1147,1167,1186,1208,1226,1247,1266,1287,1306,1326,1346,1366,1386,1406,1426,1446,1467,1486,1506,1526,1546,1568,1586,1607,1627,1647,1666,1686,1707,1726,1746,1766,1786,1808,1827,1848,1867,1887,1908,1927,1946,1967,1987,2007,2027,2046,2067,2087,2106,2127,2146,2166,2186,2207,2228,2246,2266,2286,2307,2328,2346,2367,2386,2406,2427,2446,2466,2486,2506,2527,2547,2566,2586,2607,2626],"xSR":741.5,"ySR":469.95,"xT1":424.9,"yT1":0,"xT2":1058.1,"yT2":0,"toosoon":0,"cond_shown":"Incongruent","ratio_trial":300,"L_num":4,"L_den":20,"R_num":2,"R_den":4,"correct_side":2,"subjID":"SantiagoVelasquez20","gender":"0","school":"4","age":"9"},{"start_time":1552327370525,"click_time":1552327372965,"finger_time":1552327372124,"fix_duration":1059.3280650025997,"trial":23,"RT":1599,"MT":841,"sideResp":2,"stimulus":[],"xmouse":[798,798,798,798,798,798,798,798,798,798,798,798,798,798,798,798,798,798,798,798,798,797,797,797,797,797,797,797,797,797,796,795,795,795,795,795,795,795,795,795,795,795,795,794,794,794,793,793,793,793,793,793,793,793,793,793,793,792,792,791,791,791,791,791,791,791,791,791,791,791,791,793,801,804,804,804,804,804,807,819,847,867,899,908,914,923,939,967,976,976,976,953,942,933,931,931,935,940,943,947,954,957,987,1003,1010,1020,1029,1031,1034,1037,1043,1045,1047,1048,1048,1050,1050,1051,1052,1054,1054,1059],"ymouse":[489,489,489,489,489,489,489,489,489,489,490,490,490,490,490,490,490,490,490,490,491,494,494,494,494,494,494,494,494,494,494,495,495,495,495,495,495,495,495,495,495,495,495,497,498,499,500,500,500,500,500,500,500,500,500,500,500,500,499,499,499,499,499,499,499,499,499,499,499,498,494,491,476,473,473,473,473,473,471,464,450,439,420,412,406,395,377,342,310,289,269,215,196,180,171,158,144,139,136,134,132,131,127,124,124,121,118,117,114,108,99,94,88,85,84,81,81,79,78,77,77,76],"timestamp_mouse":[18,39,58,79,98,119,138,158,178,198,219,239,258,278,300,319,338,359,379,399,418,439,459,478,499,518,538,559,580,598,620,639,659,678,698,718,738,760,780,799,819,840,858,879,899,918,939,958,978,998,1018,1038,1058,1078,1098,1118,1138,1159,1179,1198,1218,1239,1259,1278,1299,1319,1339,1359,1378,1398,1418,1438,1458,1479,1498,1519,1538,1558,1580,1599,1619,1638,1658,1679,1698,1719,1740,1758,1779,1799,1819,1839,1858,1878,1898,1919,1940,1958,1979,1998,2018,2038,2058,2078,2098,2118,2139,2158,2178,2198,2218,2238,2259,2279,2299,2318,2338,2358,2379,2399,2419,2439],"xSR":741.5,"ySR":469.95,"xT1":424.9,"yT1":0,"xT2":1058.1,"yT2":0,"toosoon":0,"cond_shown":"Incongruent","ratio_trial":200,"L_num":3,"L_den":10,"R_num":1,"R_den":2,"correct_side":2,"subjID":"SantiagoVelasquez20","gender":"0","school":"4","age":"9"},{"start_time":1552327373957,"click_time":1552327377403,"finger_time":1552327377083,"fix_duration":250,"trial":24,"RT":3126,"MT":320,"sideResp":2,"stimulus":[],"xmouse":[806,806,806,806,806,806,806,806,806,806,806,806,806,806,806,806,805,804,802,797,797,797,797,797,797,797,797,797,797,796,796,796,796,796,796,796,796,796,796,796,796,796,796,796,796,796,796,796,796,796,796,796,796,796,796,796,796,796,796,796,796,796,796,796,796,796,796,796,796,796,796,796,796,796,796,796,796,796,796,796,796,796,796,796,796,796,796,796,796,796,796,796,796,796,796,796,796,796,796,796,796,796,796,796,796,796,796,796,796,796,796,796,796,796,796,796,794,792,790,786,784,780,779,779,779,779,779,779,779,779,779,779,779,779,779,779,779,779,778,779,781,781,781,781,782,783,783,783,783,783,783,783,783,787,795,809,836,850,858,862,865,879,895,927,972,1005,1044,1050,1051,1051,1053,1058,1060],"ymouse":[513,513,513,513,513,513,513,513,513,513,513,513,513,513,513,511,509,509,507,504,504,504,504,504,504,504,504,504,504,504,502,502,502,502,502,502,502,502,502,502,502,502,502,502,502,502,502,502,502,502,502,502,502,502,502,502,502,502,502,502,502,502,502,502,502,502,502,502,502,502,502,502,502,502,502,502,502,502,502,502,502,502,502,502,502,502,502,502,502,502,502,502,502,502,500,498,496,495,494,493,493,493,492,492,492,492,492,492,492,492,492,492,492,492,492,491,490,489,489,486,485,483,483,483,483,483,483,483,483,483,483,483,483,483,483,483,483,483,483,485,487,487,487,487,488,488,488,488,488,488,488,488,489,488,482,471,443,425,409,400,389,352,320,264,199,157,103,95,94,94,94,92,91],"timestamp_mouse":[8,41,46,66,88,106,128,146,168,187,207,227,247,267,286,307,327,348,366,387,408,426,447,466,488,506,527,547,566,587,608,626,647,668,686,707,727,746,767,788,806,827,848,867,887,908,926,946,967,988,1006,1026,1048,1067,1086,1108,1127,1146,1167,1188,1206,1227,1246,1268,1286,1307,1326,1347,1368,1386,1406,1427,1448,1466,1487,1506,1528,1548,1567,1586,1606,1628,1646,1666,1687,1708,1726,1748,1768,1787,1806,1827,1848,1866,1886,1906,1926,1948,1967,1987,2006,2028,2047,2066,2086,2107,2127,2146,2168,2186,2206,2227,2247,2267,2286,2307,2326,2346,2366,2387,2406,2426,2447,2467,2486,2506,2526,2547,2566,2586,2607,2627,2646,2666,2686,2707,2726,2747,2766,2787,2806,2826,2848,2867,2886,2907,2926,2947,2968,2988,3007,3027,3046,3067,3087,3106,3126,3146,3166,3187,3206,3226,3246,3266,3287,3307,3327,3347,3367,3387,3406,3426,3446],"xSR":741.5,"ySR":469.95,"xT1":424.9,"yT1":0,"xT2":1058.1,"yT2":0,"toosoon":0,"cond_shown":"Incongruent","ratio_trial":200,"L_num":1,"L_den":3,"R_num":2,"R_den":15,"correct_side":1,"subjID":"SantiagoVelasquez20","gender":"0","school":"4","age":"9"},{"start_time":1552327380446,"click_time":1552327406304,"finger_time":1552327380643,"fix_duration":560.3467168673915,"trial":25,"RT":197,"MT":25661,"sideResp":2,"stimulus":[],"xmouse":[816,815,815,814,813,812,811,813,832,861,882,888,888,888,888,888,888,888,888,888,888,888,888,888,888,888,888,888,888,888,888,888,888,888,888,888,888,888,888,888,888,888,888,888,888,888,888,888,888,888,888,888,888,888,888,888,888,888,888,888,888,888,888,888,888,888,888,888,888,888,888,888,888,888,888,888,888,888,888,888,888,888,888,888,888,888,888,888,888,888,888,888,888,888,888,888,888,888,888,888,888,888,888,888,888,888,888,888,888,888,888,888,888,888,888,888,888,888,888,888,888,888,888,888,888,888,888,888,888,888,888,888,888,888,888,888,888,888,888,888,888,888,888,888,888,888,888,888,888,888,888,888,888,888,888,888,888,888,888,888,888,888,888,888,888,888,888,888,888,888,888,888,888,888,888,888,888,888,888,888,888,888,888,888,888,888,888,888,888,888,888,888,888,888,888,888,888,888,888,888,888,888,888,888,888,888,888,888,888,888,888,888,888,888,888,888,888,888,888,888,888,888,888,888,888,888,888,888,888,888,888,888,888,888,888,888,888,888,888,888,888,888,888,888,888,888,888,888,888,888,888,888,888,888,888,888,888,888,888,888,888,888,888,888,888,888,888,888,888,888,888,888,888,888,888,888,888,888,888,888,888,888,888,888,888,888,888,888,888,888,888,888,888,888,888,888,888,888,888,888,888,888,888,888,888,888,888,888,888,888,888,888,888,888,888,888,888,888,888,888,888,888,888,888,888,888,888,888,888,888,888,888,888,888,888,888,888,888,888,888,888,888,888,888,888,888,888,888,888,888,888,888,888,888,888,888,888,888,888,888,888,888,888,888,888,888,888,888,888,888,888,888,888,888,888,888,888,888,888,888,888,888,888,888,888,888,888,888,888,888,888,888,888,888,888,888,888,888,888,888,888,888,888,888,888,888,888,888,888,888,888,888,888,888,888,888,888,888,888,888,888,888,888,888,888,888,888,888,888,888,888,888,888,888,888,888,888,888,888,888,888,888,888,888,888,888,888,888,888,888,888,888,888,888,888,888,888,888,888,888,888,888,888,888,888,888,888,888,888,888,888,888,888,888,888,888,888,888,888,888,888,888,888,888,888,888,888,888,888,888,888,888,888,888,888,888,888,888,888,888,888,888,888,888,888,888,888,888,888,888,888,888,888,888,888,888,888,888,888,888,888,888,888,888,888,888,888,888,888,888,888,888,888,888,888,888,888,888,888,888,888,888,888,888,888,888,888,888,888,888,888,888,888,888,888,888,888,888,888,888,888,888,888,888,888,888,888,888,888,888,888,888,888,888,888,888,888,888,888,888,888,888,888,888,888,888,888,888,888,888,888,888,888,888,888,888,888,888,888,888,888,888,888,888,888,888,888,888,888,888,888,888,888,888,888,888,888,888,888,888,888,888,888,888,888,888,888,888,888,888,888,888,888,888,888,888,888,888,888,888,888,888,888,888,888,888,888,888,888,888,888,888,888,888,888,888,888,888,888,888,888,888,888,888,888,888,888,888,888,888,888,888,888,888,888,888,888,888,888,888,888,888,888,888,888,888,888,888,888,888,888,888,888,888,888,888,888,888,888,888,888,888,888,888,888,888,888,888,888,888,888,888,888,888,888,888,888,888,888,888,888,888,888,888,888,888,888,888,888,888,888,888,888,888,888,888,888,888,888,888,888,888,888,888,888,888,888,888,888,888,888,888,888,888,888,888,888,888,888,888,888,888,888,888,888,888,888,888,888,888,888,888,888,888,888,888,888,888,888,888,888,888,888,888,888,888,888,888,888,888,888,888,888,888,888,888,888,888,888,888,888,888,888,888,888,888,888,888,888,888,888,888,888,888,888,888,888,888,888,888,888,888,888,888,888,888,888,888,888,888,888,888,888,888,888,888,888,888,888,888,888,888,888,888,888,888,888,888,888,888,888,888,888,888,888,888,888,888,888,888,888,888,888,888,888,888,888,888,888,888,888,888,888,888,888,888,888,888,888,888,888,888,888,888,888,888,888,888,888,888,888,888,888,888,888,888,888,888,888,888,888,888,888,888,888,888,888,888,888,888,888,888,888,888,888,888,888,888,888,888,888,888,888,888,888,888,888,888,888,888,888,888,888,888,888,888,888,888,888,888,888,888,888,888,888,888,888,888,888,888,888,888,888,888,888,888,888,888,888,888,888,888,888,888,888,888,888,888,888,888,888,888,888,888,888,888,888,888,888,888,888,888,888,888,888,888,888,888,888,888,888,888,888,888,888,888,888,888,888,888,888,888,888,888,888,888,888,888,888,888,888,888,888,888,888,888,888,888,888,888,888,888,888,888,888,888,888,888,888,888,888,888,888,888,888,888,888,888,888,888,888,888,888,888,888,888,888,888,888,888,888,888,888,888,888,888,888,888,888,888,888,888,888,888,888,888,888,888,888,888,888,888,888,888,888,888,888,888,888,888,888,888,888,888,888,888,888,888,888,888,888,888,888,888,888,888,888,888,888,888,888,888,888,888,888,888,888,888,888,888,888,888,888,888,888,888,888,888,888,888,888,888,888,888,888,888,888,888,888,888,888,888,888,888,888,888,888,888,888,888,888,888,888,888,888,888,888,888,888,888,888,888,888,888,888,888,888,888,888,888,888,888,888,888,888,888,888,888,888,888,888,888,888,888,888,888,888,888,888,888,888,888,888,888,888,888,888,888,888,888,888,888,888,888,888,888,888,888,888,888,888,888,888,867,792,780,774,772,772,772,772,772,772,771,771,771,771,770,770,769,769,768,767,765,765,765,765,765,765,765,765,765,765,765,761,768,782,790,795,804,804,804,804,804,804,804,804,804,804,803,803,803,803,803,803,803,803,803,815,834,834,834,834,835,832,832,834,840,855,885,904,922,941,962,991,1000,1007,1012,1016,1027,1029,1030,1030,1032,1034,1039,1045,1050,1052,1052,1053,1054,1059],"ymouse":[495,496,496,497,497,497,498,522,557,598,629,636,636,636,636,636,636,636,636,636,636,636,636,636,636,636,636,636,636,636,636,636,636,636,636,636,636,636,636,636,636,636,636,636,636,636,636,636,636,636,636,636,636,636,636,636,636,636,636,636,636,636,636,636,636,636,636,636,636,636,636,636,636,636,636,636,636,636,636,636,636,636,636,636,636,636,636,636,636,636,636,636,636,636,636,636,636,636,636,636,636,636,636,636,636,636,636,636,636,636,636,636,636,636,636,636,636,636,636,636,636,636,636,636,636,636,636,636,636,636,636,636,636,636,636,636,636,636,636,636,636,636,636,636,636,636,636,636,636,636,636,636,636,636,636,636,636,636,636,636,636,636,636,636,636,636,636,636,636,636,636,636,636,636,636,636,636,636,636,636,636,636,636,636,636,636,636,636,636,636,636,636,636,636,636,636,636,636,636,636,636,636,636,636,636,636,636,636,636,636,636,636,636,636,636,636,636,636,636,636,636,636,636,636,636,636,636,636,636,636,636,636,636,636,636,636,636,636,636,636,636,636,636,636,636,636,636,636,636,636,636,636,636,636,636,636,636,636,636,636,636,636,636,636,636,636,636,636,636,636,636,636,636,636,636,636,636,636,636,636,636,636,636,636,636,636,636,636,636,636,636,636,636,636,636,636,636,636,636,636,636,636,636,636,636,636,636,636,636,636,636,636,636,636,636,636,636,636,636,636,636,636,636,636,636,636,636,636,636,636,636,636,636,636,636,636,636,636,636,636,636,636,636,636,636,636,636,636,636,636,636,636,636,636,636,636,636,636,636,636,636,636,636,636,636,636,636,636,636,636,636,636,636,636,636,636,636,636,636,636,636,636,636,636,636,636,636,636,636,636,636,636,636,636,636,636,636,636,636,636,636,636,636,636,636,636,636,636,636,636,636,636,636,636,636,636,636,636,636,636,636,636,636,636,636,636,636,636,636,636,636,636,636,636,636,636,636,636,636,636,636,636,636,636,636,636,636,636,636,636,636,636,636,636,636,636,636,636,636,636,636,636,636,636,636,636,636,636,636,636,636,636,636,636,636,636,636,636,636,636,636,636,636,636,636,636,636,636,636,636,636,636,636,636,636,636,636,636,636,636,636,636,636,636,636,636,636,636,636,636,636,636,636,636,636,636,636,636,636,636,636,636,636,636,636,636,636,636,636,636,636,636,636,636,636,636,636,636,636,636,636,636,636,636,636,636,636,636,636,636,636,636,636,636,636,636,636,636,636,636,636,636,636,636,636,636,636,636,636,636,636,636,636,636,636,636,636,636,636,636,636,636,636,636,636,636,636,636,636,636,636,636,636,636,636,636,636,636,636,636,636,636,636,636,636,636,636,636,636,636,636,636,636,636,636,636,636,636,636,636,636,636,636,636,636,636,636,636,636,636,636,636,636,636,636,636,636,636,636,636,636,636,636,636,636,636,636,636,636,636,636,636,636,636,636,636,636,636,636,636,636,636,636,636,636,636,636,636,636,636,636,636,636,636,636,636,636,636,636,636,636,636,636,636,636,636,636,636,636,636,636,636,636,636,636,636,636,636,636,636,636,636,636,636,636,636,636,636,636,636,636,636,636,636,636,636,636,636,636,636,636,636,636,636,636,636,636,636,636,636,636,636,636,636,636,636,636,636,636,636,636,636,636,636,636,636,636,636,636,636,636,636,636,636,636,636,636,636,636,636,636,636,636,636,636,636,636,636,636,636,636,636,636,636,636,636,636,636,636,636,636,636,636,636,636,636,636,636,636,636,636,636,636,636,636,636,636,636,636,636,636,636,636,636,636,636,636,636,636,636,636,636,636,636,636,636,636,636,636,636,636,636,636,636,636,636,636,636,636,636,636,636,636,636,636,636,636,636,636,636,636,636,636,636,636,636,636,636,636,636,636,636,636,636,636,636,636,636,636,636,636,636,636,636,636,636,636,636,636,636,636,636,636,636,636,636,636,636,636,636,636,636,636,636,636,636,636,636,636,636,636,636,636,636,636,636,636,636,636,636,636,636,636,636,636,636,636,636,636,636,636,636,636,636,636,636,636,636,636,636,636,636,636,636,636,636,636,636,636,636,636,636,636,636,636,636,636,636,636,636,636,636,636,636,636,636,636,636,636,636,636,636,636,636,636,636,636,636,636,636,636,636,636,636,636,636,636,636,636,636,636,636,636,636,636,636,636,636,636,636,636,636,636,636,636,636,636,636,636,636,636,636,636,636,636,636,636,636,636,636,636,636,636,636,636,636,636,636,636,636,636,636,636,636,636,636,636,636,636,636,636,636,636,636,636,636,636,636,636,636,636,636,636,636,636,636,636,636,636,636,636,636,636,636,636,636,636,636,636,636,636,636,636,636,636,636,636,636,636,636,636,636,636,636,636,636,636,636,636,636,636,636,636,636,636,636,636,636,636,636,636,636,636,636,636,636,636,636,636,636,636,636,636,636,636,636,636,636,636,636,636,636,636,636,636,636,636,636,636,636,636,636,636,636,636,636,636,636,636,636,636,636,636,636,636,636,636,636,636,636,636,636,636,636,636,636,636,636,636,636,636,636,636,636,636,636,636,636,636,636,636,636,636,636,636,636,636,636,636,636,636,636,636,636,636,636,636,636,636,636,636,636,636,636,636,636,636,636,636,636,636,636,636,636,636,636,636,636,636,636,636,636,636,636,636,636,636,636,636,636,636,636,636,660,712,717,719,720,720,720,720,720,720,720,697,686,680,677,675,674,673,668,664,659,658,658,658,658,658,658,658,658,658,656,580,528,482,457,437,406,406,406,406,406,406,408,414,417,418,419,420,420,420,420,420,420,420,420,416,406,406,406,406,404,378,362,347,331,312,287,271,257,241,224,204,199,194,190,187,176,172,169,157,143,131,97,76,59,49,45,42,41,38],"timestamp_mouse":[17,38,58,79,97,117,138,157,178,197,218,238,259,279,298,317,338,357,378,398,417,438,457,478,498,518,539,558,577,597,617,645,658,678,698,719,737,758,779,799,818,838,857,877,898,918,938,958,977,997,1019,1039,1059,1079,1098,1117,1138,1157,1177,1198,1217,1238,1259,1277,1298,1318,1337,1357,1377,1398,1417,1439,1457,1479,1499,1518,1537,1557,1578,1598,1618,1637,1658,1677,1698,1719,1739,1758,1779,1797,1818,1837,1857,1878,1898,1917,1937,1958,1977,1998,2017,2039,2057,2077,2098,2118,2138,2157,2179,2198,2219,2237,2257,2278,2298,2318,2339,2357,2378,2398,2417,2437,2458,2477,2497,2518,2539,2557,2577,2598,2617,2638,2657,2678,2697,2719,2738,2757,2779,2799,2819,2838,2858,2877,2898,2918,2939,2957,2977,2999,3018,3038,3057,3078,3097,3117,3138,3157,3178,3198,3218,3238,3257,3278,3298,3317,3339,3359,3377,3398,3417,3438,3458,3478,3499,3517,3538,3557,3578,3597,3618,3637,3657,3678,3699,3719,3737,3758,3778,3797,3818,3838,3858,3878,3898,3918,3939,3959,3978,3997,4018,4038,4057,4078,4097,4118,4139,4157,4178,4197,4217,4238,4258,4278,4297,4317,4338,4357,4377,4399,4418,4437,4458,4478,4497,4518,4538,4558,4578,4597,4618,4638,4657,4678,4697,4718,4738,4757,4778,4799,4818,4838,4857,4877,4898,4917,4939,4959,4978,4998,5019,5037,5058,5078,5098,5118,5137,5157,5177,5198,5217,5237,5257,5278,5298,5318,5338,5358,5378,5398,5418,5438,5458,5477,5498,5517,5538,5558,5578,5599,5618,5638,5657,5678,5697,5718,5737,5757,5778,5798,5818,5837,5857,5877,5897,5919,5939,5958,5977,5998,6017,6038,6057,6077,6097,6118,6138,6157,6178,6198,6218,6238,6257,6278,6299,6318,6337,6357,6377,6398,6418,6437,6458,6478,6498,6519,6538,6557,6578,6598,6617,6637,6659,6679,6698,6717,6738,6758,6778,6798,6818,6838,6858,6879,6899,6917,6937,6957,6979,6999,7017,7037,7057,7077,7098,7118,7137,7157,7177,7197,7217,7237,7257,7278,7297,7318,7337,7358,7378,7399,7417,7438,7458,7478,7498,7517,7538,7557,7577,7598,7618,7638,7658,7678,7698,7718,7737,7758,7778,7798,7818,7838,7859,7877,7898,7917,7938,7958,7977,7997,8017,8037,8058,8078,8098,8117,8138,8158,8177,8198,8218,8238,8258,8278,8297,8318,8337,8358,8378,8398,8417,8437,8458,8478,8498,8519,8537,8558,8578,8598,8619,8638,8657,8678,8698,8718,8738,8758,8779,8797,8817,8838,8858,8878,8899,8918,8938,8957,8978,8997,9018,9037,9057,9077,9097,9118,9137,9159,9178,9197,9217,9238,9259,9279,9297,9318,9338,9357,9378,9398,9418,9438,9458,9477,9497,9517,9537,9558,9577,9597,9618,9639,9658,9677,9698,9718,9737,9758,9779,9798,9818,9838,9858,9877,9899,9918,9937,9958,9977,9997,10018,10037,10058,10078,10099,10118,10138,10158,10177,10198,10219,10237,10259,10277,10297,10318,10337,10359,10377,10397,10418,10437,10458,10477,10498,10517,10537,10558,10577,10598,10618,10638,10658,10678,10697,10717,10738,10759,10777,10797,10817,10837,10859,10878,10899,10918,10937,10959,10977,10997,11018,11038,11057,11078,11098,11119,11138,11158,11177,11198,11218,11237,11258,11278,11298,11319,11337,11359,11377,11397,11417,11437,11458,11477,11498,11517,11537,11557,11577,11598,11618,11638,11657,11677,11697,11718,11738,11759,11777,11798,11817,11838,11858,11877,11898,11918,11938,11958,11977,11998,12018,12038,12059,12077,12097,12118,12138,12157,12178,12199,12218,12237,12258,12278,12298,12318,12337,12357,12377,12397,12417,12437,12459,12477,12498,12518,12537,12558,12577,12598,12618,12639,12657,12677,12698,12718,12739,12758,12777,12798,12817,12837,12858,12877,12897,12917,12937,12958,12977,12998,13018,13037,13057,13078,13098,13119,13139,13157,13178,13199,13219,13238,13257,13277,13297,13317,13337,13358,13377,13399,13417,13438,13458,13477,13498,13517,13537,13559,13577,13598,13618,13638,13658,13677,13698,13718,13738,13758,13778,13797,13817,13837,13859,13877,13897,13919,13938,13957,13977,13997,14017,14039,14059,14078,14098,14117,14137,14157,14177,14197,14218,14237,14259,14279,14298,14317,14337,14357,14377,14398,14418,14437,14457,14478,14498,14517,14538,14558,14578,14599,14618,14638,14658,14677,14697,14718,14738,14758,14777,14798,14817,14838,14858,14877,14898,14917,14937,14958,14977,14998,15017,15037,15058,15077,15097,15118,15138,15158,15178,15199,15218,15238,15259,15278,15298,15317,15338,15357,15378,15398,15418,15439,15458,15478,15497,15518,15537,15558,15578,15597,15619,15639,15657,15677,15698,15719,15739,15758,15778,15798,15817,15837,15858,15878,15898,15918,15938,15958,15978,15998,16018,16037,16058,16078,16097,16118,16139,16158,16178,16197,16217,16237,16258,16277,16298,16317,16338,16358,16379,16398,16417,16437,16458,16477,16497,16517,16537,16558,16579,16598,16619,16638,16658,16678,16697,16718,16737,16757,16778,16797,16817,16838,16858,16878,16898,16917,16937,16958,16978,16998,17018,17038,17057,17078,17097,17117,17138,17157,17178,17198,17218,17239,17259,17278,17298,17318,17338,17358,17378,17398,17418,17437,17458,17478,17497,17517,17538,17558,17578,17599,17619,17638,17657,17678,17697,17718,17738,17757,17778,17798,17817,17838,17858,17878,17899,17917,17938,17959,17978,17997,18018,18037,18057,18078,18097,18118,18137,18157,18179,18199,18218,18238,18258,18277,18298,18318,18337,18357,18378,18397,18417,18437,18458,18479,18498,18518,18538,18558,18577,18597,18618,18638,18657,18678,18698,18717,18737,18757,18779,18797,18817,18837,18858,18877,18898,18918,18939,18957,18977,18998,19018,19038,19058,19077,19097,19118,19137,19157,19178,19197,19217,19238,19257,19279,19298,19318,19339,19358,19378,19398,19418,19438,19457,19478,19497,19517,19537,19558,19579,19598,19618,19639,19658,19678,19697,19718,19737,19758,19779,19797,19817,19837,19858,19877,19898,19917,19938,19957,19979,19997,20017,20037,20058,20079,20097,20117,20137,20157,20178,20197,20217,20237,20257,20277,20297,20317,20338,20358,20378,20397,20417,20438,20457,20478,20498,20517,20538,20557,20578,20598,20618,20638,20658,20678,20698,20718,20737,20759,20777,20797,20818,20837,20858,20877,20897,20917,20938,20958,20979,20998,21018,21037,21057,21078,21098,21118,21139,21159,21178,21198,21219,21239,21257,21278,21298,21317,21338,21358,21378,21398,21419,21438,21459,21477,21498,21518,21537,21557,21578,21597,21618,21638,21658,21677,21697,21719,21738,21758,21778,21798,21817,21837,21859,21878,21897,21918,21938,21958,21977,21997,22018,22037,22058,22077,22098,22118,22139,22157,22178,22197,22217,22238,22257,22279,22297,22318,22338,22357,22378,22398,22418,22439,22458,22478,22497,22518,22537,22558,22577,22597,22619,22638,22657,22678,22697,22718,22738,22757,22778,22798,22819,22838,22858,22878,22898,22918,22937,22957,22977,22998,23019,23038,23058,23077,23098,23117,23138,23158,23178,23198,23218,23238,23258,23277,23297,23317,23337,23358,23377,23397,23419,23439,23458,23477,23497,23518,23538,23557,23577,23598,23618,23638,23657,23679,23698,23718,23738,23758,23778,23797,23818,23837,23858,23877,23898,23918,23939,23958,23977,23997,24017,24037,24057,24079,24098,24117,24137,24158,24177,24198,24218,24237,24258,24277,24298,24317,24337,24357,24377,24398,24417,24437,24458,24477,24497,24518,24538,24558,24577,24597,24617,24637,24658,24677,24697,24717,24737,24758,24777,24798,24818,24837,24858,24878,24898,24917,24937,24957,24978,24997,25017,25037,25058,25078,25098,25117,25137,25157,25178,25198,25217,25237,25257,25277,25298,25317,25337,25357,25378,25398,25417,25437,25457,25477,25499,25517,25537,25557,25577,25599,25617,25637,25657,25677,25697,25717,25737,25757,25777,25798,25817,25837,25858],"xSR":741.5,"ySR":469.95,"xT1":424.9,"yT1":0,"xT2":1058.1,"yT2":0,"toosoon":0,"cond_shown":"Incongruent","ratio_trial":200,"L_num":1,"L_den":2,"R_num":3,"R_den":10,"correct_side":1,"subjID":"SantiagoVelasquez20","gender":"0","school":"4","age":"9"},{"start_time":1552327410085,"click_time":1552327412263,"finger_time":1552327411744,"fix_duration":679.3468859851298,"trial":26,"RT":1659,"MT":519,"sideResp":1,"stimulus":[],"xmouse":[764,764,764,764,764,764,766,768,770,772,773,775,775,776,776,776,776,776,776,776,776,776,776,776,776,776,776,777,782,790,792,793,793,793,795,796,799,810,816,817,817,817,817,817,817,817,817,817,818,811,807,802,798,795,793,792,790,788,788,787,785,785,785,785,785,785,785,785,785,785,785,785,785,785,785,785,785,785,785,780,773,760,747,734,723,705,692,687,685,684,683,681,679,678,671,667,659,653,649,641,635,628,618,605,577,555,541,528,514,496],"ymouse":[537,537,537,537,537,537,537,537,536,536,535,534,534,534,534,534,534,534,534,534,534,534,534,534,534,534,534,533,532,530,530,530,530,530,530,530,530,531,532,532,532,532,532,532,532,532,532,532,533,537,538,541,541,542,542,542,542,542,541,541,541,541,541,541,541,541,541,541,541,541,541,541,541,541,541,541,540,539,537,532,525,519,511,503,493,466,447,441,438,435,429,423,408,393,340,314,282,262,247,224,215,206,200,193,174,155,143,132,118,94],"timestamp_mouse":[1,19,38,59,79,98,118,139,158,180,198,219,238,258,279,298,319,338,358,379,398,418,438,458,479,498,518,538,558,578,598,619,638,658,680,698,718,739,758,778,798,819,840,859,879,899,918,939,958,978,998,1019,1038,1058,1078,1098,1118,1139,1159,1178,1199,1218,1238,1259,1278,1299,1320,1339,1359,1379,1398,1419,1439,1459,1479,1499,1519,1539,1558,1578,1598,1618,1639,1659,1678,1698,1719,1738,1760,1779,1798,1818,1838,1860,1878,1898,1918,1938,1958,1979,1998,2019,2038,2059,2079,2099,2118,2139,2158,2178],"xSR":741.5,"ySR":469.95,"xT1":424.9,"yT1":0,"xT2":1058.1,"yT2":0,"toosoon":0,"cond_shown":"Congruent","ratio_trial":100,"L_num":7,"L_den":14,"R_num":15,"R_den":25,"correct_side":2,"subjID":"SantiagoVelasquez20","gender":"0","school":"4","age":"9"},{"start_time":1552327414052,"click_time":1552327415965,"finger_time":1552327415543,"fix_duration":586.2749430782895,"trial":27,"RT":1491,"MT":422,"sideResp":1,"stimulus":[],"xmouse":[803,803,803,803,803,801,801,800,800,798,798,797,797,797,797,797,797,797,796,796,796,796,796,796,796,796,796,796,796,796,796,796,796,796,796,796,796,796,796,796,796,796,796,796,796,795,793,792,791,789,786,785,784,783,783,783,783,783,783,783,783,783,783,783,781,774,770,764,757,757,757,754,747,742,736,735,727,720,712,698,658,645,635,623,610,595,572,561,551,540,529,512,507,503,493,474],"ymouse":[537,537,537,537,536,534,533,531,530,528,525,523,522,522,522,522,522,522,522,522,522,522,522,522,522,522,522,522,522,522,522,522,522,522,522,522,522,522,522,522,522,522,522,522,522,522,522,522,522,522,522,522,522,522,522,522,522,522,522,522,522,522,522,522,521,519,517,515,513,513,513,511,505,498,489,487,475,465,452,432,384,370,358,347,335,318,298,287,272,252,234,196,177,162,135,90],"timestamp_mouse":[29,39,51,71,91,111,132,151,172,192,211,232,252,272,292,311,332,351,371,392,412,432,451,471,492,511,531,551,572,591,611,631,652,672,692,711,732,753,771,792,811,831,852,872,891,911,933,951,972,991,1013,1031,1052,1072,1091,1112,1131,1151,1172,1191,1212,1232,1251,1271,1292,1311,1331,1351,1372,1392,1411,1431,1452,1472,1491,1511,1531,1551,1571,1592,1613,1631,1651,1672,1692,1711,1731,1751,1772,1791,1811,1831,1852,1871,1891,1912],"xSR":741.5,"ySR":469.95,"xT1":424.9,"yT1":0,"xT2":1058.1,"yT2":0,"toosoon":0,"cond_shown":"Congruent","ratio_trial":200,"L_num":12,"L_den":15,"R_num":6,"R_den":10,"correct_side":1,"subjID":"SantiagoVelasquez20","gender":"0","school":"4","age":"9"},{"start_time":1552327418419,"click_time":1552327421844,"finger_time":1552327420883,"fix_duration":1494.211776871512,"trial":28,"RT":2464,"MT":961,"sideResp":1,"stimulus":[],"xmouse":[782,782,782,782,782,782,782,782,782,782,782,782,782,782,782,782,782,782,782,782,782,782,782,782,782,782,782,782,782,782,782,782,782,782,782,782,782,782,782,782,782,782,782,782,782,782,782,782,782,782,782,782,782,782,782,782,782,782,782,782,782,782,782,782,782,782,782,782,782,782,782,782,782,782,782,782,782,782,782,782,781,781,779,778,777,777,776,776,776,776,776,776,776,776,776,776,776,776,776,776,777,777,777,778,779,781,783,786,789,790,791,791,791,791,791,791,791,790,785,780,770,758,750,725,720,720,720,720,720,720,720,720,720,719,712,705,698,697,694,690,687,682,676,643,613,604,599,594,585,583,580,577,567,551,500,480,461,447,430,429,428,428,429,433,438,438,440,441,444,456,461,462],"ymouse":[515,515,515,515,515,515,515,515,515,515,515,515,515,515,515,515,515,515,515,515,515,515,515,515,515,515,515,515,515,515,515,515,515,515,515,515,515,515,515,515,515,515,515,515,515,515,515,515,515,515,515,515,515,515,515,515,515,515,515,515,515,515,515,515,515,515,515,515,515,515,515,515,515,515,515,515,515,515,514,514,514,513,510,509,507,507,506,506,506,506,506,506,506,506,506,506,506,506,506,506,506,506,506,506,506,506,506,506,506,505,504,504,504,502,502,502,500,499,497,496,495,494,490,486,486,486,486,486,486,486,486,486,486,485,479,474,467,466,459,452,443,431,418,374,327,310,299,291,282,280,279,278,273,264,227,208,188,167,131,124,123,123,123,123,123,123,123,123,120,107,101,99],"timestamp_mouse":[13,24,47,64,85,104,124,145,164,185,204,225,244,265,285,304,325,346,365,384,405,425,444,465,484,504,525,544,564,585,604,625,644,665,684,704,725,744,764,785,804,825,844,865,885,904,925,945,964,984,1004,1026,1045,1064,1084,1105,1125,1145,1165,1184,1205,1224,1244,1264,1285,1305,1324,1344,1365,1384,1405,1424,1444,1465,1485,1504,1524,1544,1565,1584,1605,1624,1644,1664,1685,1704,1725,1744,1764,1785,1805,1825,1844,1865,1884,1904,1925,1944,1965,1985,2004,2025,2044,2064,2084,2104,2124,2144,2164,2185,2204,2224,2244,2264,2285,2304,2325,2344,2364,2384,2405,2424,2444,2464,2484,2504,2524,2544,2564,2585,2604,2624,2644,2664,2684,2704,2725,2745,2765,2784,2804,2825,2844,2864,2884,2904,2925,2944,2964,2984,3005,3024,3044,3064,3084,3104,3124,3144,3165,3184,3205,3224,3244,3264,3284,3304,3325,3344,3364,3384,3404,3424],"xSR":741.5,"ySR":469.95,"xT1":424.9,"yT1":0,"xT2":1058.1,"yT2":0,"toosoon":0,"cond_shown":"Congruent","ratio_trial":300,"L_num":4,"L_den":10,"R_num":1,"R_den":10,"correct_side":1,"subjID":"SantiagoVelasquez20","gender":"0","school":"4","age":"9"},{"start_time":1552327423971,"click_time":1552327425864,"finger_time":1552327425543,"fix_duration":1246.8444070144512,"trial":29,"RT":1572,"MT":321,"sideResp":1,"stimulus":[],"xmouse":[778,778,778,778,778,778,778,777,776,776,775,775,774,774,774,774,774,774,774,773,771,770,770,770,770,770,770,770,770,770,770,770,770,773,781,785,786,786,786,786,786,786,786,786,786,786,786,787,787,787,787,787,787,787,787,787,787,787,787,787,787,787,787,787,787,787,787,787,787,787,787,787,784,783,781,777,772,768,764,756,751,739,732,724,722,721,709,700,689,674,650,595,564,538,509],"ymouse":[534,534,534,534,534,534,534,535,536,537,537,537,538,538,538,538,538,538,538,538,532,529,528,528,528,528,528,528,528,528,528,528,527,525,522,520,519,519,519,519,519,519,519,519,519,519,519,519,519,519,519,519,519,519,519,519,519,519,519,519,519,519,519,519,519,519,519,519,519,519,519,518,514,513,507,493,476,470,463,452,445,433,429,425,424,422,397,372,337,275,213,108,66,34,1],"timestamp_mouse":[13,34,52,73,92,112,132,152,172,192,212,232,253,273,293,312,332,353,373,392,413,432,452,474,492,513,532,552,572,593,613,632,654,672,692,712,733,753,772,793,813,832,852,874,892,913,933,952,973,993,1012,1033,1052,1072,1092,1113,1134,1153,1173,1192,1212,1232,1252,1272,1292,1313,1334,1353,1372,1393,1413,1432,1453,1472,1493,1513,1533,1552,1572,1592,1612,1632,1653,1672,1692,1713,1732,1752,1772,1793,1812,1832,1852,1872,1893],"xSR":741.5,"ySR":469.95,"xT1":424.9,"yT1":0,"xT2":1058.1,"yT2":0,"toosoon":0,"cond_shown":"Incongruent","ratio_trial":100,"L_num":11,"L_den":22,"R_num":9,"R_den":15,"correct_side":2,"subjID":"SantiagoVelasquez20","gender":"0","school":"4","age":"9"},{"start_time":1552327431014,"click_time":1552327433383,"finger_time":1552327432744,"fix_duration":1169.3039604192047,"trial":30,"RT":1730,"MT":639,"sideResp":1,"stimulus":[],"xmouse":[784,784,784,784,784,784,784,784,784,784,784,784,784,784,784,784,784,784,784,784,786,790,794,796,796,796,796,796,796,796,796,796,796,796,796,796,796,796,796,796,796,796,796,796,796,796,796,796,796,796,796,796,796,796,796,796,796,796,796,796,796,796,796,796,796,796,796,796,796,796,796,796,796,796,796,796,796,796,796,796,796,796,796,796,796,788,776,762,744,724,714,710,709,708,708,708,707,706,695,688,666,657,648,641,633,630,629,627,626,619,611,599,588,578,570,552,541,526,509],"ymouse":[526,526,526,526,526,526,526,526,526,526,526,526,526,526,526,526,526,526,526,526,525,521,518,516,516,516,516,516,516,516,516,516,516,516,516,516,516,516,516,516,516,516,516,516,516,516,516,516,516,516,516,516,516,516,516,516,516,516,516,516,516,516,516,516,516,516,516,516,516,516,516,516,516,516,516,516,516,516,516,516,516,516,516,516,515,492,456,402,312,194,154,123,108,102,102,102,101,99,92,89,86,86,86,86,83,83,82,82,81,79,77,73,71,70,68,63,62,59,56],"timestamp_mouse":[12,41,49,70,89,109,130,150,170,189,210,230,249,269,290,310,329,350,371,389,410,429,449,469,489,510,529,550,570,589,610,630,649,669,689,710,730,749,770,789,810,830,849,869,889,910,930,950,970,989,1010,1030,1050,1069,1089,1111,1130,1149,1170,1189,1209,1230,1249,1270,1289,1309,1330,1350,1370,1389,1409,1430,1449,1469,1490,1510,1529,1549,1570,1589,1609,1629,1649,1669,1689,1709,1730,1749,1770,1791,1809,1829,1849,1870,1891,1910,1930,1950,1970,1989,2009,2029,2049,2069,2091,2109,2129,2149,2169,2190,2210,2229,2250,2269,2289,2309,2330,2349,2369],"xSR":741.5,"ySR":469.95,"xT1":424.9,"yT1":0,"xT2":1058.1,"yT2":0,"toosoon":0,"cond_shown":"Incongruent","ratio_trial":100,"L_num":12,"L_den":30,"R_num":2,"R_den":4,"correct_side":2,"subjID":"SantiagoVelasquez20","gender":"0","school":"4","age":"9"},{"start_time":1552327436316,"click_time":1552327439224,"finger_time":1552327438163,"fix_duration":250,"trial":31,"RT":1847,"MT":1061,"sideResp":1,"stimulus":[],"xmouse":[808,808,808,808,808,799,796,796,796,796,796,796,796,796,796,796,796,796,796,796,796,796,795,795,795,795,795,795,795,795,795,795,795,795,795,795,795,795,795,795,795,795,795,795,795,795,795,795,795,795,795,795,795,795,795,795,795,795,795,795,798,799,803,805,808,809,809,809,809,809,809,809,809,809,809,809,809,809,809,809,810,810,810,810,810,810,810,810,810,810,812,819,825,829,835,856,872,892,918,949,977,1013,1022,1024,1027,1036,1042,1046,1046,1046,1046,1046,1046,1046,1046,1042,1033,1025,1015,1002,953,931,909,890,878,861,848,817,760,705,631,590,554,527,510,498,495,494,493,492,491,491,491,491,491,490],"ymouse":[511,511,511,511,510,516,517,517,517,517,517,517,517,517,517,517,517,517,517,517,517,517,518,518,518,518,518,518,518,518,518,518,518,518,518,518,518,518,518,518,518,518,518,518,518,518,518,518,518,518,518,518,518,518,518,518,518,518,518,518,519,519,519,519,520,520,520,520,520,520,520,520,520,520,520,520,520,520,520,520,520,520,520,520,520,520,520,520,520,513,496,472,457,442,426,384,355,321,283,241,204,162,147,140,130,108,98,91,90,89,89,89,89,89,91,98,107,117,127,135,149,149,147,143,140,132,129,120,103,92,84,84,91,101,114,125,125,125,125,125,125,124,122,118,113,98],"timestamp_mouse":[10,37,48,67,87,107,127,147,168,187,208,227,247,267,288,307,327,347,367,387,407,428,447,467,488,508,527,549,567,588,608,627,648,667,688,708,727,749,767,788,807,829,848,868,888,907,928,948,968,987,1008,1027,1048,1069,1088,1107,1128,1148,1168,1187,1207,1228,1247,1267,1287,1307,1327,1348,1367,1388,1407,1427,1448,1467,1489,1508,1529,1548,1568,1587,1607,1627,1648,1668,1687,1707,1728,1747,1767,1788,1807,1828,1847,1869,1888,1908,1927,1948,1967,1988,2007,2027,2047,2067,2087,2107,2127,2147,2167,2187,2208,2227,2248,2267,2287,2308,2327,2348,2367,2388,2408,2429,2447,2468,2487,2508,2527,2547,2568,2588,2608,2628,2647,2668,2687,2708,2727,2747,2767,2787,2808,2828,2847,2868,2887,2907],"xSR":741.5,"ySR":469.95,"xT1":424.9,"yT1":0,"xT2":1058.1,"yT2":0,"toosoon":0,"cond_shown":"Congruent","ratio_trial":200,"L_num":16,"L_den":20,"R_num":12,"R_den":20,"correct_side":1,"subjID":"SantiagoVelasquez20","gender":"0","school":"4","age":"9"},{"start_time":1552327440378,"click_time":1552327442343,"finger_time":1552327441824,"fix_duration":333.55968183476045,"trial":32,"RT":1446,"MT":519,"sideResp":2,"stimulus":[],"xmouse":[773,772,770,770,770,770,770,770,770,770,770,770,770,770,770,770,770,770,770,770,770,770,770,770,770,770,770,770,770,770,770,770,770,770,770,770,770,770,770,770,770,770,770,770,770,770,770,770,770,770,770,770,770,770,770,770,770,770,770,770,770,770,770,770,770,770,770,770,771,773,775,778,813,866,924,966,1014,1059,1077,1099,1126,1164,1232,1243,1243,1243,1243,1243,1243,1243,1243,1243,1243,1243,1243,1243,1243,1243,1128],"ymouse":[544,540,536,536,536,535,535,535,534,534,534,533,533,533,532,532,532,532,532,532,532,532,532,532,532,532,532,532,532,532,532,532,532,532,532,532,532,532,532,532,532,532,532,532,532,532,532,532,532,532,532,532,532,532,532,532,532,532,532,532,532,532,532,532,532,532,532,528,523,518,512,504,466,440,416,396,366,332,311,275,218,152,30,4,4,4,4,4,4,4,4,4,4,4,4,4,4,4,1],"timestamp_mouse":[5,26,50,66,85,107,126,145,165,185,205,225,246,267,286,305,325,345,366,385,406,426,445,466,485,506,525,546,566,586,606,625,645,665,685,706,725,745,766,786,805,825,845,865,885,906,925,945,965,986,1005,1026,1046,