[{"start_time":1552328308714,"click_time":1552328310300,"finger_time":1552328309719,"fix_duration":450.82185436743237,"trial":0,"RT":1005,"MT":581,"sideResp":1,"stimulus":"img/750/randomdotsizeEA/R/3_Ratio_750_L_15_R_20.png","xmouse":[775,775,775,775,775,775,775,775,775,775,775,775,775,775,775,775,775,775,775,775,775,775,775,775,775,775,775,775,775,775,775,775,775,775,775,775,775,775,775,775,775,775,775,775,775,775,775,775,777,790,793,793,793,789,778,776,774,773,773,771,767,758,738,711,673,672,671,668,667,667,667,667,665,648,628,628,628,623,599,499],"ymouse":[522,522,522,522,522,522,522,522,522,522,522,522,522,522,522,522,522,522,522,522,522,522,522,522,522,522,522,522,522,522,522,522,522,522,522,522,522,522,522,522,522,522,522,522,522,522,522,522,517,474,413,337,239,209,194,194,194,194,194,194,194,194,192,189,183,179,170,162,160,160,160,160,158,149,127,125,125,121,103,37],"timestamp_mouse":[9,26,45,65,85,105,124,144,164,185,206,224,245,265,284,304,326,344,365,385,406,424,444,465,486,506,524,545,564,584,604,625,645,666,685,704,725,744,764,784,805,825,845,865,885,904,925,945,965,984,1005,1025,1046,1064,1084,1104,1125,1144,1165,1184,1206,1224,1245,1265,1284,1305,1325,1344,1366,1384,1405,1424,1445,1465,1485,1505,1524,1545,1564,1585],"xSR":741.5,"ySR":469.95,"xT1":424.9,"yT1":0,"xT2":1058.1,"yT2":0,"toosoon":0,"cond_shown":"randomdotsizeEA","ratio_trial":750,"smaller_num":"15","larger_num":"20","correct_side":2,"subjID":"anasofiavanegas2","gender":"1","age":"9","school":"4","test":{"fix_dur":[250,1500],"timestim":300,"targets_dim":[100,100],"targets_relative_coord":[0.3,0.7],"size_stim":[880,420],"start_dim":[100,100],"size_start":[300,300],"size_fix":60,"samplingrate":20,"img_types":["equaldotsize","equaldotanddens","randomdotsizeEA"],"ratios":[250,500,750,900],"rep_conds":9,"nTrials":120,"trials_to_rest":500,"Trials_order":[8,66,93,52,100,67,14,68,91,19,26,115,34,32,105,33,16,35,64,50,37,36,82,117,51,69,96,10,24,86,21,78,38,44,72,20,119,39,94,104,98,106,99,101,76,85,89,0,83,54,15,116,97,71,46,61,23,7,95,53,92,27,13,112,47,88,45,109,58,17,87,28,40,4,22,30,79,75,102,73,65,48,12,6,74,49,25,3,77,107,84,9,90,2,1,63,114,111,41,62,18,56,11,43,103,31,60,55,70,118,57,42,29,110,80,108,59,81,5,113],"cond_shown":["randomdotsizeEA","equaldotsize","equaldotsize","equaldotanddens","equaldotanddens","equaldotanddens","randomdotsizeEA","randomdotsizeEA","equaldotanddens","equaldotanddens","randomdotsizeEA","equaldotanddens","equaldotanddens","randomdotsizeEA","equaldotsize","equaldotsize","equaldotanddens","randomdotsizeEA","equaldotanddens","randomdotsizeEA","equaldotanddens","equaldotsize","equaldotanddens","equaldotsize","equaldotsize","equaldotsize","equaldotsize","equaldotanddens","equaldotsize","randomdotsizeEA","equaldotsize","equaldotsize","randomdotsizeEA","randomdotsizeEA","equaldotsize","randomdotsizeEA","randomdotsizeEA","equaldotsize","equaldotanddens","randomdotsizeEA","randomdotsizeEA","equaldotanddens","equaldotsize","randomdotsizeEA","equaldotanddens","equaldotanddens","randomdotsizeEA","equaldotsize","randomdotsizeEA","equaldotsize","equaldotsize","randomdotsizeEA","equaldotanddens","randomdotsizeEA","equaldotanddens","equaldotanddens","randomdotsizeEA","equaldotanddens","randomdotsizeEA","randomdotsizeEA","randomdotsizeEA","equaldotsize","equaldotanddens","equaldotanddens","randomdotsizeEA","equaldotanddens","equaldotsize","equaldotanddens","equaldotanddens","randomdotsizeEA","equaldotsize","equaldotanddens","equaldotanddens","equaldotanddens","equaldotanddens","equaldotsize","equaldotanddens","equaldotsize","equaldotsize","equaldotanddens","randomdotsizeEA","equaldotsize","equaldotsize","equaldotsize","randomdotsizeEA","equaldotanddens","equaldotanddens","equaldotsize","randomdotsizeEA","randomdotsizeEA","equaldotsize","equaldotsize","equaldotsize","randomdotsizeEA","equaldotanddens","equaldotsize","equaldotsize","equaldotsize","randomdotsizeEA","randomdotsizeEA","equaldotsize","randomdotsizeEA","randomdotsizeEA","equaldotanddens","equaldotanddens","equaldotanddens","equaldotsize","equaldotanddens","equaldotanddens","equaldotanddens","equaldotsize","equaldotsize","randomdotsizeEA","randomdotsizeEA","randomdotsizeEA","equaldotsize","randomdotsizeEA","equaldotsize","randomdotsizeEA","randomdotsizeEA"],"ratio_trial":[750,750,900,500,500,750,250,750,750,750,250,750,900,750,900,900,500,900,500,250,250,250,900,900,500,900,250,900,250,250,900,750,250,750,250,750,900,500,900,750,250,900,500,500,500,250,500,250,900,750,500,750,250,900,900,250,900,750,900,500,750,500,250,500,900,500,900,250,900,500,500,500,500,500,900,750,750,500,750,250,500,250,250,750,250,250,250,500,500,900,250,900,750,250,250,500,750,500,500,250,750,750,900,750,750,750,250,750,900,900,900,750,500,250,750,250,900,900,500,500],"smaller_num":["15","3","18","4","6","3","3","3","3","15","4","15","9","3","18","9","9","18","2","2","3","2","18","18","5","18","6","18","2","6","9","6","3","15","5","3","9","9","18","3","2","18","10","2","2","1","1","2","18","3","9","15","2","18","9","6","18","6","18","5","15","9","1","2","18","1","9","3","9","5","10","6","6","4","18","18","3","2","3","6","2","6","2","9","4","3","2","6","2","18","1","9","15","3","3","1","3","5","2","3","3","3","18","15","3","15","2","3","18","9","18","15","9","1","15","4","9","18","5","5"],"larger_num":["20","4","20","8","12","4","12","4","4","20","16","20","10","4","20","10","18","20","4","8","12","8","20","20","10","20","24","20","8","24","10","8","12","20","20","4","10","18","20","4","8","20","20","4","4","4","2","8","20","4","18","20","8","20","10","24","20","8","20","10","20","18","4","4","20","2","10","12","10","10","20","12","12","8","20","24","4","4","4","24","4","24","8","12","16","12","8","12","4","20","4","10","20","12","12","2","4","10","4","12","4","4","20","20","4","20","8","4","20","10","20","20","18","4","20","16","10","20","10","10"],"correct_side":[2,1,1,1,1,1,1,1,2,2,2,2,2,2,2,1,2,1,1,1,1,1,2,1,2,2,1,1,2,1,1,2,2,2,2,1,1,2,1,1,1,1,2,2,1,2,2,1,2,2,1,1,1,1,2,2,1,1,1,2,2,2,2,1,1,2,2,1,2,2,2,1,1,1,1,1,1,2,1,2,1,1,2,2,1,1,1,1,1,1,2,2,1,1,2,2,2,1,1,1,1,1,1,1,1,1,2,2,1,1,1,1,2,2,2,1,2,1,1,2],"img_shown":["img/750/randomdotsizeEA/R/3_Ratio_750_L_15_R_20.png","img/750/equaldotsize/L/8_Ratio_750_L_4_R_3.png","img/900/equaldotsize/L/10_Ratio_900_L_20_R_18.png","img/500/equaldotanddens/L/8_Ratio_500_L_8_R_4.png","img/500/equaldotanddens/L/11_Ratio_500_L_12_R_6.png","img/750/equaldotanddens/L/10_Ratio_750_L_4_R_3.png","img/250/randomdotsizeEA/L/15_Ratio_250_L_12_R_3.png","img/750/randomdotsizeEA/L/9_Ratio_750_L_4_R_3.png","img/750/equaldotanddens/R/7_Ratio_750_L_3_R_4.png","img/750/equaldotanddens/R/3_Ratio_750_L_15_R_20.png","img/250/randomdotsizeEA/R/10_Ratio_250_L_4_R_16.png","img/750/equaldotanddens/R/3_Ratio_750_L_15_R_20.png","img/900/equaldotanddens/R/3_Ratio_900_L_9_R_10.png","img/750/randomdotsizeEA/R/12_Ratio_750_L_3_R_4.png","img/900/equaldotsize/R/13_Ratio_900_L_18_R_20.png","img/900/equaldotsize/L/1_Ratio_900_L_10_R_9.png","img/500/equaldotanddens/R/1_Ratio_500_L_9_R_18.png","img/900/randomdotsizeEA/L/2_Ratio_900_L_20_R_18.png","img/500/equaldotanddens/L/5_Ratio_500_L_4_R_2.png","img/250/randomdotsizeEA/L/3_Ratio_250_L_8_R_2.png","img/250/equaldotanddens/L/14_Ratio_250_L_12_R_3.png","img/250/equaldotsize/L/7_Ratio_250_L_8_R_2.png","img/900/equaldotanddens/R/14_Ratio_900_L_18_R_20.png","img/900/equaldotsize/L/10_Ratio_900_L_20_R_18.png","img/500/equaldotsize/R/14_Ratio_500_L_5_R_10.png","img/900/equaldotsize/R/13_Ratio_900_L_18_R_20.png","img/250/equaldotsize/L/5_Ratio_250_L_24_R_6.png","img/900/equaldotanddens/L/4_Ratio_900_L_20_R_18.png","img/250/equaldotsize/R/13_Ratio_250_L_2_R_8.png","img/250/randomdotsizeEA/L/5_Ratio_250_L_24_R_6.png","img/900/equaldotsize/L/1_Ratio_900_L_10_R_9.png","img/750/equaldotsize/R/2_Ratio_750_L_6_R_8.png","img/250/randomdotsizeEA/R/11_Ratio_250_L_3_R_12.png","img/750/randomdotsizeEA/R/5_Ratio_750_L_15_R_20.png","img/250/equaldotsize/R/12_Ratio_250_L_5_R_20.png","img/750/randomdotsizeEA/L/9_Ratio_750_L_4_R_3.png","img/900/randomdotsizeEA/L/1_Ratio_900_L_10_R_9.png","img/500/equaldotsize/R/6_Ratio_500_L_9_R_18.png","img/900/equaldotanddens/L/2_Ratio_900_L_20_R_18.png","img/750/randomdotsizeEA/L/8_Ratio_750_L_4_R_3.png","img/250/randomdotsizeEA/L/7_Ratio_250_L_8_R_2.png","img/900/equaldotanddens/L/10_Ratio_900_L_20_R_18.png","img/500/equaldotsize/R/3_Ratio_500_L_10_R_20.png","img/500/randomdotsizeEA/R/9_Ratio_500_L_2_R_4.png","img/500/equaldotanddens/L/5_Ratio_500_L_4_R_2.png","img/250/equaldotanddens/R/8_Ratio_250_L_1_R_4.png","img/500/randomdotsizeEA/R/15_Ratio_500_L_1_R_2.png","img/250/equaldotsize/L/3_Ratio_250_L_8_R_2.png","img/900/randomdotsizeEA/R/9_Ratio_900_L_18_R_20.png","img/750/equaldotsize/R/7_Ratio_750_L_3_R_4.png","img/500/equaldotsize/L/4_Ratio_500_L_18_R_9.png","img/750/randomdotsizeEA/L/1_Ratio_750_L_20_R_15.png","img/250/equaldotanddens/L/3_Ratio_250_L_8_R_2.png","img/900/randomdotsizeEA/L/10_Ratio_900_L_20_R_18.png","img/900/equaldotanddens/R/3_Ratio_900_L_9_R_10.png","img/250/equaldotanddens/R/6_Ratio_250_L_6_R_24.png","img/900/randomdotsizeEA/L/8_Ratio_900_L_20_R_18.png","img/750/equaldotanddens/L/13_Ratio_750_L_8_R_6.png","img/900/randomdotsizeEA/L/4_Ratio_900_L_20_R_18.png","img/500/randomdotsizeEA/R/14_Ratio_500_L_5_R_10.png","img/750/randomdotsizeEA/R/5_Ratio_750_L_15_R_20.png","img/500/equaldotsize/R/1_Ratio_500_L_9_R_18.png","img/250/equaldotanddens/R/8_Ratio_250_L_1_R_4.png","img/500/equaldotanddens/L/10_Ratio_500_L_4_R_2.png","img/900/randomdotsizeEA/L/8_Ratio_900_L_20_R_18.png","img/500/equaldotanddens/R/15_Ratio_500_L_1_R_2.png","img/900/equaldotsize/R/3_Ratio_900_L_9_R_10.png","img/250/equaldotanddens/L/15_Ratio_250_L_12_R_3.png","img/900/equaldotanddens/R/15_Ratio_900_L_9_R_10.png","img/500/randomdotsizeEA/R/14_Ratio_500_L_5_R_10.png","img/500/equaldotsize/R/3_Ratio_500_L_10_R_20.png","img/500/equaldotanddens/L/11_Ratio_500_L_12_R_6.png","img/500/equaldotanddens/L/13_Ratio_500_L_12_R_6.png","img/500/equaldotanddens/L/8_Ratio_500_L_8_R_4.png","img/900/equaldotanddens/L/4_Ratio_900_L_20_R_18.png","img/750/equaldotsize/L/6_Ratio_750_L_24_R_18.png","img/750/equaldotanddens/L/10_Ratio_750_L_4_R_3.png","img/500/equaldotsize/R/9_Ratio_500_L_2_R_4.png","img/750/equaldotsize/L/8_Ratio_750_L_4_R_3.png","img/250/equaldotanddens/R/6_Ratio_250_L_6_R_24.png","img/500/randomdotsizeEA/L/5_Ratio_500_L_4_R_2.png","img/250/equaldotsize/L/5_Ratio_250_L_24_R_6.png","img/250/equaldotsize/R/13_Ratio_250_L_2_R_8.png","img/750/equaldotsize/R/15_Ratio_750_L_9_R_12.png","img/250/randomdotsizeEA/L/2_Ratio_250_L_16_R_4.png","img/250/equaldotanddens/L/15_Ratio_250_L_12_R_3.png","img/250/equaldotanddens/L/7_Ratio_250_L_8_R_2.png","img/500/equaldotsize/L/13_Ratio_500_L_12_R_6.png","img/500/randomdotsizeEA/L/5_Ratio_500_L_4_R_2.png","img/900/randomdotsizeEA/L/8_Ratio_900_L_20_R_18.png","img/250/equaldotsize/R/8_Ratio_250_L_1_R_4.png","img/900/equaldotsize/R/3_Ratio_900_L_9_R_10.png","img/750/equaldotsize/L/1_Ratio_750_L_20_R_15.png","img/250/randomdotsizeEA/L/15_Ratio_250_L_12_R_3.png","img/250/equaldotanddens/R/11_Ratio_250_L_3_R_12.png","img/500/equaldotsize/R/15_Ratio_500_L_1_R_2.png","img/750/equaldotsize/R/12_Ratio_750_L_3_R_4.png","img/500/equaldotsize/L/7_Ratio_500_L_10_R_5.png","img/500/randomdotsizeEA/L/10_Ratio_500_L_4_R_2.png","img/250/randomdotsizeEA/L/15_Ratio_250_L_12_R_3.png","img/750/equaldotsize/L/9_Ratio_750_L_4_R_3.png","img/750/randomdotsizeEA/L/10_Ratio_750_L_4_R_3.png","img/900/randomdotsizeEA/L/4_Ratio_900_L_20_R_18.png","img/750/equaldotanddens/L/1_Ratio_750_L_20_R_15.png","img/750/equaldotanddens/L/9_Ratio_750_L_4_R_3.png","img/750/equaldotanddens/L/1_Ratio_750_L_20_R_15.png","img/250/equaldotsize/R/13_Ratio_250_L_2_R_8.png","img/750/equaldotanddens/R/7_Ratio_750_L_3_R_4.png","img/900/equaldotanddens/L/4_Ratio_900_L_20_R_18.png","img/900/equaldotanddens/L/1_Ratio_900_L_10_R_9.png","img/900/equaldotsize/L/4_Ratio_900_L_20_R_18.png","img/750/equaldotsize/L/1_Ratio_750_L_20_R_15.png","img/500/randomdotsizeEA/R/6_Ratio_500_L_9_R_18.png","img/250/randomdotsizeEA/R/8_Ratio_250_L_1_R_4.png","img/750/randomdotsizeEA/R/3_Ratio_750_L_15_R_20.png","img/250/equaldotsize/L/2_Ratio_250_L_16_R_4.png","img/900/randomdotsizeEA/R/3_Ratio_900_L_9_R_10.png","img/900/equaldotsize/L/10_Ratio_900_L_20_R_18.png","img/500/randomdotsizeEA/L/7_Ratio_500_L_10_R_5.png","img/500/randomdotsizeEA/R/14_Ratio_500_L_5_R_10.png"],"Rat0":[["12_Ratio_0_L_9_R_0.png","13_Ratio_0_L_6_R_0.png","5_Ratio_0_L_2_R_0.png","6_Ratio_0_L_4_R_0.png","8_Ratio_0_L_6_R_0.png"],["1_Ratio_0_L_0_R_17.png","10_Ratio_0_L_0_R_22.png","11_Ratio_0_L_0_R_1.png","14_Ratio_0_L_0_R_24.png","15_Ratio_0_L_0_R_4.png","2_Ratio_0_L_0_R_5.png","3_Ratio_0_L_0_R_17.png","4_Ratio_0_L_0_R_7.png","7_Ratio_0_L_0_R_19.png","9_Ratio_0_L_0_R_15.png"]],"Rat250":[["1_Ratio_250_L_8_R_2.png","14_Ratio_250_L_12_R_3.png","15_Ratio_250_L_12_R_3.png","2_Ratio_250_L_16_R_4.png","3_Ratio_250_L_8_R_2.png","5_Ratio_250_L_24_R_6.png","7_Ratio_250_L_8_R_2.png"],["10_Ratio_250_L_4_R_16.png","11_Ratio_250_L_3_R_12.png","12_Ratio_250_L_5_R_20.png","13_Ratio_250_L_2_R_8.png","4_Ratio_250_L_3_R_12.png","6_Ratio_250_L_6_R_24.png","8_Ratio_250_L_1_R_4.png","9_Ratio_250_L_3_R_12.png"]],"Rat500":[["10_Ratio_500_L_4_R_2.png","11_Ratio_500_L_12_R_6.png","13_Ratio_500_L_12_R_6.png","4_Ratio_500_L_18_R_9.png","5_Ratio_500_L_4_R_2.png","7_Ratio_500_L_10_R_5.png","8_Ratio_500_L_8_R_4.png"],["1_Ratio_500_L_9_R_18.png","12_Ratio_500_L_1_R_2.png","14_Ratio_500_L_5_R_10.png","15_Ratio_500_L_1_R_2.png","2_Ratio_500_L_3_R_6.png","3_Ratio_500_L_10_R_20.png","6_Ratio_500_L_9_R_18.png","9_Ratio_500_L_2_R_4.png"]],"Rat750":[["1_Ratio_750_L_20_R_15.png","10_Ratio_750_L_4_R_3.png","13_Ratio_750_L_8_R_6.png","14_Ratio_750_L_8_R_6.png","6_Ratio_750_L_24_R_18.png","8_Ratio_750_L_4_R_3.png","9_Ratio_750_L_4_R_3.png"],["11_Ratio_750_L_12_R_16.png","12_Ratio_750_L_3_R_4.png","15_Ratio_750_L_9_R_12.png","2_Ratio_750_L_6_R_8.png","3_Ratio_750_L_15_R_20.png","4_Ratio_750_L_15_R_20.png","5_Ratio_750_L_15_R_20.png","7_Ratio_750_L_3_R_4.png"]],"Rat900":[["1_Ratio_900_L_10_R_9.png","10_Ratio_900_L_20_R_18.png","2_Ratio_900_L_20_R_18.png","4_Ratio_900_L_20_R_18.png","8_Ratio_900_L_20_R_18.png"],["11_Ratio_900_L_18_R_20.png","12_Ratio_900_L_18_R_20.png","13_Ratio_900_L_18_R_20.png","14_Ratio_900_L_18_R_20.png","15_Ratio_900_L_9_R_10.png","3_Ratio_900_L_9_R_10.png","5_Ratio_900_L_9_R_10.png","6_Ratio_900_L_9_R_10.png","7_Ratio_900_L_9_R_10.png","9_Ratio_900_L_18_R_20.png"]],"Rat1000":[["10_Ratio_1000_L_16_R_16.png","11_Ratio_1000_L_6_R_6.png","12_Ratio_1000_L_14_R_14.png","13_Ratio_1000_L_20_R_20.png","15_Ratio_1000_L_15_R_15.png","2_Ratio_1000_L_17_R_17.png","4_Ratio_1000_L_9_R_9.png","5_Ratio_1000_L_6_R_6.png","6_Ratio_1000_L_19_R_19.png","8_Ratio_1000_L_14_R_14.png","9_Ratio_1000_L_25_R_25.png"],["1_Ratio_1000_L_1_R_1.png","14_Ratio_1000_L_17_R_17.png","3_Ratio_1000_L_17_R_17.png","7_Ratio_1000_L_6_R_6.png"]]}},{"start_time":1552328312331,"click_time":1552328314118,"finger_time":1552328313058,"fix_duration":250,"trial":1,"RT":727,"MT":1060,"sideResp":1,"stimulus":"img/750/equaldotsize/L/8_Ratio_750_L_4_R_3.png","xmouse":[794,792,789,787,787,787,787,786,786,786,786,786,786,786,786,786,786,786,786,786,786,786,786,786,786,786,786,786,786,786,786,786,785,786,801,813,831,846,853,837,802,739,653,420,295,168,83,52,49,76,93,107,113,115,129,148,175,212,247,304,317,329,339,356,365,378,391,402,410,410,410,410,410,410,410,410,410,410,410,410,410,410,410,412,413,414,415,416,420,439],"ymouse":[543,543,543,543,543,543,543,543,543,543,543,543,543,543,543,543,543,543,543,543,543,543,543,543,543,543,543,543,543,543,543,543,542,537,499,476,450,427,407,370,358,347,338,338,332,317,301,288,283,262,247,229,221,220,218,215,212,203,192,177,172,163,155,131,113,92,67,46,30,30,30,30,30,30,30,30,30,30,30,30,30,30,30,30,30,30,30,30,30,33],"timestamp_mouse":[8,27,48,68,87,109,128,147,167,187,208,229,248,268,289,308,329,348,367,388,408,427,447,468,489,508,528,548,567,587,608,628,647,667,687,708,727,748,767,788,808,828,847,869,887,908,927,947,968,988,1008,1027,1047,1068,1087,1107,1127,1149,1168,1187,1207,1227,1247,1269,1287,1308,1328,1349,1368,1387,1408,1427,1447,1468,1487,1508,1528,1548,1568,1587,1608,1628,1647,1667,1687,1708,1727,1749,1768,1787],"xSR":741.5,"ySR":469.95,"xT1":424.9,"yT1":0,"xT2":1058.1,"yT2":0,"toosoon":0,"cond_shown":"equaldotsize","ratio_trial":750,"smaller_num":"3","larger_num":"4","correct_side":1,"subjID":"anasofiavanegas2","gender":"1","age":"9","school":"4"},{"start_time":1552328316093,"click_time":1552328317039,"finger_time":1552328316918,"fix_duration":773.1914158101672,"trial":2,"RT":825,"MT":121,"sideResp":1,"stimulus":"img/900/equaldotsize/L/10_Ratio_900_L_20_R_18.png","xmouse":[814,814,814,814,814,814,814,814,814,814,814,814,814,814,814,814,814,814,814,814,814,814,814,814,814,814,814,814,814,814,814,814,814,814,814,814,814,814,814,812,807,769,740,702,658,613,518,488],"ymouse":[518,518,518,518,518,518,518,518,518,518,518,518,518,518,518,518,518,518,518,518,518,518,518,518,518,518,518,518,518,518,518,518,518,518,518,518,518,518,518,514,505,458,428,384,336,270,139,98],"timestamp_mouse":[19,36,46,65,85,105,127,145,167,186,205,225,245,265,285,306,325,345,366,387,406,426,447,466,486,507,526,545,566,585,605,626,647,666,686,707,726,746,765,787,806,825,845,865,885,906,925,946],"xSR":741.5,"ySR":469.95,"xT1":424.9,"yT1":0,"xT2":1058.1,"yT2":0,"toosoon":0,"cond_shown":"equaldotsize","ratio_trial":900,"smaller_num":"18","larger_num":"20","correct_side":1,"subjID":"anasofiavanegas2","gender":"1","age":"9","school":"4"},{"start_time":1552328318251,"click_time":1552328319619,"finger_time":1552328318779,"fix_duration":250,"trial":3,"RT":528,"MT":840,"sideResp":1,"stimulus":"img/500/equaldotanddens/L/8_Ratio_500_L_8_R_4.png","xmouse":[796,796,796,796,796,796,796,796,796,796,796,796,796,796,796,796,796,796,796,796,796,796,796,796,802,820,847,890,941,1051,1115,1142,1150,1139,1119,1088,1027,954,855,653,598,596,597,609,609,609,604,596,589,574,569,566,563,554,546,540,535,535,535,534,533,533,532,532,532,532,531,528,521],"ymouse":[533,533,533,533,533,533,533,533,533,533,533,533,533,533,533,533,533,533,533,533,533,533,533,533,531,523,510,486,451,360,295,261,240,208,195,184,166,146,119,84,76,75,73,60,56,51,47,43,42,41,41,44,47,57,61,62,63,63,63,63,63,63,63,63,63,61,55,51,46],"timestamp_mouse":[12,28,48,68,87,107,128,147,167,188,207,227,247,267,287,307,327,347,367,387,407,429,448,467,487,507,528,547,568,588,607,628,648,667,688,708,727,748,767,788,807,828,847,869,887,908,927,947,968,987,1007,1027,1047,1068,1087,1109,1128,1147,1167,1188,1207,1227,1248,1268,1288,1308,1328,1347,1368],"xSR":741.5,"ySR":469.95,"xT1":424.9,"yT1":0,"xT2":1058.1,"yT2":0,"toosoon":0,"cond_shown":"equaldotanddens","ratio_trial":500,"smaller_num":"4","larger_num":"8","correct_side":1,"subjID":"anasofiavanegas2","gender":"1","age":"9","school":"4"},{"start_time":1552328321131,"click_time":1552328321859,"finger_time":1552328321799,"fix_duration":250,"trial":4,"RT":668,"MT":60,"sideResp":1,"stimulus":"img/500/equaldotanddens/L/11_Ratio_500_L_12_R_6.png","xmouse":[765,765,765,765,765,765,765,765,765,765,765,765,765,765,765,765,765,765,765,765,765,768,768,768,768,768,768,768,771,775,777,777,777,776,747,591,474],"ymouse":[502,502,502,502,502,502,502,502,502,502,502,503,504,506,508,508,508,508,508,508,508,506,506,506,506,506,506,506,501,493,488,484,478,464,395,173,36],"timestamp_mouse":[8,28,47,68,87,108,128,147,167,187,209,228,247,268,288,308,329,348,368,387,407,428,448,468,488,508,527,547,567,588,607,628,648,668,688,707,727],"xSR":741.5,"ySR":469.95,"xT1":424.9,"yT1":0,"xT2":1058.1,"yT2":0,"toosoon":0,"cond_shown":"equaldotanddens","ratio_trial":500,"smaller_num":"6","larger_num":"12","correct_side":1,"subjID":"anasofiavanegas2","gender":"1","age":"9","school":"4"},{"start_time":1552328326229,"click_time":1552328327739,"finger_time":1552328327338,"fix_duration":1207.9630150382982,"trial":5,"RT":1109,"MT":401,"sideResp":1,"stimulus":"img/750/equaldotanddens/L/10_Ratio_750_L_4_R_3.png","xmouse":[783,783,783,783,783,783,783,783,783,783,779,777,777,777,777,777,777,777,777,776,776,776,775,775,775,775,775,775,775,775,775,775,775,775,775,775,775,775,775,775,775,775,775,775,775,775,775,775,775,775,775,775,775,775,774,752,707,605,542,497,480,480,480,480,479,476,475,475,475,475,475,475,476,476,476,476],"ymouse":[521,521,521,521,518,513,512,512,512,512,512,513,513,513,513,513,513,513,513,514,514,514,514,514,514,514,514,514,514,514,514,514,514,514,514,514,514,514,514,514,514,514,514,514,514,514,514,514,514,514,514,514,514,514,513,465,395,276,212,170,153,153,153,153,149,141,133,132,132,132,130,127,121,114,104,81],"timestamp_mouse":[10,35,49,69,89,109,130,149,170,189,209,230,250,269,289,309,331,349,370,389,409,429,449,469,489,510,529,550,570,590,610,629,651,670,690,710,731,750,770,790,811,830,850,871,890,909,930,949,970,990,1009,1029,1050,1069,1090,1109,1129,1149,1170,1189,1209,1230,1249,1269,1290,1309,1329,1350,1370,1389,1410,1429,1449,1470,1489,1510],"xSR":741.5,"ySR":469.95,"xT1":424.9,"yT1":0,"xT2":1058.1,"yT2":0,"toosoon":0,"cond_shown":"equaldotanddens","ratio_trial":750,"smaller_num":"3","larger_num":"4","correct_side":1,"subjID":"anasofiavanegas2","gender":"1","age":"9","school":"4"},{"start_time":1552328330292,"click_time":1552328332218,"finger_time":1552328331819,"fix_duration":1432.8884851370485,"trial":6,"RT":1527,"MT":399,"sideResp":1,"stimulus":"img/250/randomdotsizeEA/L/15_Ratio_250_L_12_R_3.png","xmouse":[826,826,826,826,826,826,824,818,815,813,812,812,812,812,812,812,812,812,812,812,812,812,812,812,812,812,812,812,812,812,812,812,812,812,812,811,811,811,811,811,811,811,811,811,811,811,811,811,811,811,811,811,811,811,811,811,811,811,811,811,811,811,811,811,811,811,811,811,811,810,809,808,807,803,800,790,775,747,667,627,598,579,566,560,558,551,537,522,509,509,509,509,517,518,517,507,493],"ymouse":[519,519,519,519,519,519,519,519,519,520,520,520,520,520,520,520,520,520,520,520,520,520,520,520,520,520,520,520,520,520,520,520,520,520,520,519,518,511,508,504,503,502,501,500,500,500,500,500,500,500,500,500,500,500,500,500,500,500,500,500,500,500,500,500,500,500,500,500,500,500,500,500,500,500,496,484,459,416,311,267,243,230,223,220,218,211,197,185,171,170,170,166,146,135,123,109,94],"timestamp_mouse":[10,33,47,67,86,106,126,147,166,186,206,227,246,266,287,306,326,346,366,386,406,426,447,466,486,506,526,547,568,586,606,628,646,667,687,706,727,747,766,787,806,826,847,867,887,907,927,947,967,987,1007,1027,1048,1067,1087,1107,1126,1148,1167,1187,1207,1228,1248,1267,1286,1306,1328,1348,1368,1388,1406,1426,1446,1468,1486,1506,1527,1548,1566,1587,1606,1626,1647,1666,1686,1706,1726,1746,1766,1787,1806,1826,1847,1866,1886,1906,1926],"xSR":741.5,"ySR":469.95,"xT1":424.9,"yT1":0,"xT2":1058.1,"yT2":0,"toosoon":0,"cond_shown":"randomdotsizeEA","ratio_trial":250,"smaller_num":"3","larger_num":"12","correct_side":1,"subjID":"anasofiavanegas2","gender":"1","age":"9","school":"4"},{"start_time":1552328333613,"click_time":1552328336878,"finger_time":1552328336458,"fix_duration":392.0076137411613,"trial":7,"RT":2845,"MT":420,"sideResp":1,"stimulus":"img/750/randomdotsizeEA/L/9_Ratio_750_L_4_R_3.png","xmouse":[796,796,796,796,796,796,796,796,796,796,796,796,796,796,796,796,796,796,796,796,796,796,796,795,795,792,790,790,790,790,790,790,790,790,790,790,790,790,790,790,790,790,790,790,790,790,790,790,790,790,790,790,790,790,790,790,790,790,790,790,790,790,790,790,790,790,790,790,790,790,790,790,790,790,790,790,790,790,790,790,790,790,790,790,790,790,790,790,790,790,790,790,790,790,790,790,790,790,790,790,790,790,790,790,790,790,790,790,790,790,790,790,790,790,790,790,790,790,790,790,790,790,790,790,790,790,790,790,790,790,790,790,790,790,790,790,790,790,790,790,788,771,719,687,651,638,629,615,603,588,570,552,534,534,534,534,534,534,534,534,534,534,533,524],"ymouse":[529,529,529,529,529,529,529,529,529,529,529,529,529,529,529,529,529,529,529,529,529,529,529,527,525,519,517,514,514,514,514,514,514,514,514,514,514,514,514,514,514,514,514,514,514,513,513,513,513,512,512,512,512,512,512,512,512,510,510,510,510,510,510,510,510,510,510,510,510,510,510,510,510,510,510,510,510,510,510,510,510,510,510,510,510,510,510,510,509,509,509,509,509,509,509,509,509,509,509,509,509,509,509,509,509,509,509,509,509,509,509,509,509,509,509,509,509,509,509,509,509,509,509,509,509,509,509,509,509,509,509,509,509,509,509,509,509,509,509,502,494,470,402,358,294,259,234,195,179,165,154,144,134,134,134,134,134,134,133,130,124,114,103,73],"timestamp_mouse":[10,27,46,65,85,106,125,146,165,186,206,225,246,266,287,306,326,346,367,387,405,426,446,465,486,505,527,545,566,586,606,625,646,665,686,705,725,746,765,786,806,825,847,866,886,906,925,945,966,985,1006,1025,1045,1066,1085,1106,1125,1145,1165,1187,1205,1226,1245,1266,1285,1307,1325,1346,1366,1387,1405,1425,1447,1466,1485,1506,1525,1545,1565,1587,1605,1626,1647,1667,1685,1705,1725,1746,1765,1786,1805,1825,1847,1867,1886,1905,1926,1946,1965,1985,2005,2025,2046,2066,2086,2106,2125,2145,2165,2185,2205,2225,2245,2265,2285,2307,2326,2345,2366,2387,2406,2425,2445,2466,2487,2505,2525,2545,2565,2585,2606,2626,2646,2666,2686,2705,2725,2747,2765,2785,2806,2826,2845,2865,2885,2906,2925,2945,2965,2985,3006,3025,3046,3067,3085,3105,3126,3145,3165,3186,3205,3226,3245,3265],"xSR":741.5,"ySR":469.95,"xT1":424.9,"yT1":0,"xT2":1058.1,"yT2":0,"toosoon":0,"cond_shown":"randomdotsizeEA","ratio_trial":750,"smaller_num":"3","larger_num":"4","correct_side":1,"subjID":"anasofiavanegas2","gender":"1","age":"9","school":"4"},{"start_time":1552328338325,"click_time":1552328340519,"finger_time":1552328339039,"fix_duration":684.516863951347,"trial":8,"RT":714,"MT":1480,"sideResp":2,"stimulus":"img/750/equaldotanddens/R/7_Ratio_750_L_3_R_4.png","xmouse":[794,794,794,794,794,794,794,794,794,794,794,794,794,794,794,794,794,794,794,794,794,794,794,794,794,794,794,794,794,794,794,794,794,795,795,795,796,801,812,829,846,886,904,919,932,941,949,953,956,961,968,977,999,1006,1007,1009,1009,1012,1013,1013,1014,1015,1017,1018,1019,1021,1021,1027,1035,1044,1052,1058,1060,1060,1060,1060,1060,1062,1063,1063,1064,1067,1068,1069,1071,1072,1073,1073,1073,1073,1077,1084,1084,1084,1086,1087,1089,1092,1092,1092,1093,1094,1094,1094,1094,1094,1094,1095,1095,1096],"ymouse":[504,504,504,504,504,504,504,504,504,504,504,504,504,504,504,504,504,504,504,504,504,504,504,504,504,504,504,504,504,504,504,504,503,491,476,469,463,457,449,437,426,403,391,382,373,366,351,342,336,323,307,288,248,236,231,227,224,210,203,198,192,189,187,184,180,179,179,177,174,170,165,161,159,159,159,158,158,155,154,152,151,146,144,140,137,133,133,133,133,132,131,129,129,129,128,126,124,116,115,114,114,112,112,112,112,112,112,109,107,99],"timestamp_mouse":[15,34,54,73,93,115,133,154,174,193,215,233,254,275,293,313,334,355,373,394,414,434,454,474,493,515,534,554,574,595,613,633,653,674,694,714,735,754,773,793,814,835,853,873,893,915,934,953,973,993,1013,1033,1053,1074,1094,1113,1133,1153,1173,1194,1214,1234,1253,1273,1293,1313,1333,1353,1373,1394,1413,1433,1454,1474,1494,1513,1533,1553,1573,1594,1614,1634,1653,1673,1693,1715,1733,1753,1774,1793,1813,1835,1853,1873,1893,1913,1933,1953,1973,1994,2013,2033,2053,2074,2093,2113,2133,2153,2173,2194],"xSR":741.5,"ySR":469.95,"xT1":424.9,"yT1":0,"xT2":1058.1,"yT2":0,"toosoon":0,"cond_shown":"equaldotanddens","ratio_trial":750,"smaller_num":"3","larger_num":"4","correct_side":2,"subjID":"anasofiavanegas2","gender":"1","age":"9","school":"4"},{"start_time":1552328342578,"click_time":1552328344199,"finger_time":1552328343278,"fix_duration":898.2805047295893,"trial":9,"RT":700,"MT":921,"sideResp":2,"stimulus":"img/750/equaldotanddens/R/3_Ratio_750_L_15_R_20.png","xmouse":[809,809,809,809,809,809,809,809,809,809,809,809,809,809,809,809,809,809,809,809,809,809,809,809,809,809,809,809,809,809,809,809,809,809,809,809,809,800,782,759,736,714,712,710,707,692,681,670,656,642,612,606,604,604,604,626,677,767,879,1011,1196,1223,1238,1241,1244,1258,1266,1270,1270,1267,1247,1240,1238,1236,1232,1226,1222,1220,1213,1205,1175,1136],"ymouse":[535,535,535,535,535,535,535,535,535,535,535,535,535,535,535,535,535,535,535,535,535,535,535,535,535,535,535,535,536,536,536,536,536,515,485,395,341,286,245,201,164,143,142,142,142,135,128,119,109,96,72,67,66,66,66,79,108,159,217,274,326,326,308,287,266,233,214,200,188,174,149,137,135,133,131,130,129,129,124,118,95,67],"timestamp_mouse":[8,27,40,61,82,100,121,140,160,180,201,221,241,260,281,300,321,340,360,381,401,421,440,461,482,501,520,542,561,581,600,622,640,661,681,700,720,740,761,781,800,821,840,861,880,900,921,941,962,981,1000,1021,1040,1060,1080,1100,1121,1141,1161,1181,1201,1220,1240,1261,1280,1300,1320,1341,1360,1381,1400,1421,1440,1460,1482,1500,1521,1541,1561,1581,1600,1621],"xSR":741.5,"ySR":469.95,"xT1":424.9,"yT1":0,"xT2":1058.1,"yT2":0,"toosoon":0,"cond_shown":"equaldotanddens","ratio_trial":750,"smaller_num":"15","larger_num":"20","correct_side":2,"subjID":"anasofiavanegas2","gender":"1","age":"9","school":"4"},{"start_time":1552328346150,"click_time":1552328347638,"finger_time":1552328347359,"fix_duration":929.359039526284,"trial":10,"RT":1209,"MT":279,"sideResp":2,"stimulus":"img/250/randomdotsizeEA/R/10_Ratio_250_L_4_R_16.png","xmouse":[841,841,841,841,841,841,841,841,841,841,841,839,836,831,829,827,826,826,826,826,826,826,825,825,824,824,823,823,823,823,823,823,823,823,823,823,823,823,823,823,822,822,821,821,821,821,821,821,821,821,821,821,821,821,821,821,821,821,831,837,854,910,997,1069,1135,1166,1183,1186,1186,1186,1186,1181,1172,1159,1146],"ymouse":[533,533,533,533,533,533,533,533,533,533,534,535,536,539,539,540,540,540,540,539,539,539,538,538,538,538,539,539,539,539,539,539,539,539,539,539,539,539,539,539,539,539,539,539,539,539,539,539,539,539,539,539,539,539,539,539,539,539,533,530,518,476,407,346,283,238,211,196,196,196,193,147,124,108,96],"timestamp_mouse":[10,28,49,68,89,110,128,149,169,190,209,228,250,268,288,308,328,349,368,388,409,428,449,468,489,508,529,548,568,588,609,629,649,668,688,708,729,748,769,788,808,829,849,868,888,909,928,948,968,990,1008,1029,1049,1069,1090,1108,1128,1148,1168,1188,1209,1229,1248,1268,1289,1308,1328,1349,1369,1388,1408,1430,1448,1468,1488],"xSR":741.5,"ySR":469.95,"xT1":424.9,"yT1":0,"xT2":1058.1,"yT2":0,"toosoon":0,"cond_shown":"randomdotsizeEA","ratio_trial":250,"smaller_num":"4","larger_num":"16","correct_side":2,"subjID":"anasofiavanegas2","gender":"1","age":"9","school":"4"},{"start_time":1552328348851,"click_time":1552328350200,"finger_time":1552328349879,"fix_duration":250,"trial":11,"RT":1028,"MT":321,"sideResp":2,"stimulus":"img/750/equaldotanddens/R/3_Ratio_750_L_15_R_20.png","xmouse":[762,764,771,777,779,781,781,781,781,782,782,782,782,782,782,782,782,782,782,782,782,781,781,781,781,781,781,781,781,781,781,781,781,781,781,781,781,781,781,781,781,781,781,781,781,781,781,787,798,814,831,874,898,928,961,982,1011,1017,1023,1030,1041,1055,1085,1091,1094,1094,1096,1102],"ymouse":[519,521,532,540,547,549,550,550,550,550,550,550,550,550,550,550,549,549,548,548,548,548,548,548,548,548,548,547,544,542,542,542,542,542,542,542,542,541,541,541,541,541,541,541,541,541,540,532,518,501,481,435,404,371,335,312,278,271,263,251,233,204,134,115,107,105,100,90],"timestamp_mouse":[8,31,47,67,88,107,128,147,169,188,208,227,249,267,287,307,328,349,367,387,407,428,448,468,488,507,527,547,567,587,609,628,648,668,689,708,728,747,767,789,808,829,848,868,888,908,927,947,967,988,1007,1028,1047,1067,1087,1107,1129,1147,1167,1187,1208,1228,1247,1267,1288,1308,1327,1348],"xSR":741.5,"ySR":469.95,"xT1":424.9,"yT1":0,"xT2":1058.1,"yT2":0,"toosoon":0,"cond_shown":"equaldotanddens","ratio_trial":750,"smaller_num":"15","larger_num":"20","correct_side":2,"subjID":"anasofiavanegas2","gender":"1","age":"9","school":"4"},{"start_time":1552328351738,"click_time":1552328352818,"finger_time":1552328352440,"fix_duration":657.3589872698145,"trial":12,"RT":702,"MT":378,"sideResp":2,"stimulus":"img/900/equaldotanddens/R/3_Ratio_900_L_9_R_10.png","xmouse":[791,791,791,791,791,791,792,792,792,792,792,792,792,792,792,792,792,792,792,792,792,790,789,789,789,789,789,788,788,788,788,788,789,814,841,882,934,996,1123,1179,1193,1201,1205,1219,1223,1225,1225,1225,1225,1225,1225,1220,1210,1174,1154],"ymouse":[525,525,525,525,525,525,525,525,525,525,525,525,525,525,525,525,525,525,524,524,524,524,524,524,524,521,519,517,517,517,516,514,510,499,488,471,444,408,308,244,214,188,165,118,104,99,96,95,93,90,89,86,83,73,69],"timestamp_mouse":[9,21,41,62,80,101,121,140,162,180,201,220,240,261,282,301,321,340,360,380,400,420,440,461,481,501,520,540,561,582,600,621,640,660,680,701,720,740,760,780,800,821,840,861,880,900,920,940,961,980,1000,1021,1041,1060,1080],"xSR":741.5,"ySR":469.95,"xT1":424.9,"yT1":0,"xT2":1058.1,"yT2":0,"toosoon":0,"cond_shown":"equaldotanddens","ratio_trial":900,"smaller_num":"9","larger_num":"10","correct_side":2,"subjID":"anasofiavanegas2","gender":"1","age":"9","school":"4"},{"start_time":1552328355530,"click_time":1552328356920,"finger_time":1552328356819,"fix_duration":1410.568807838454,"trial":13,"RT":1289,"MT":101,"sideResp":1,"stimulus":"img/750/randomdotsizeEA/R/12_Ratio_750_L_3_R_4.png","xmouse":[792,792,792,792,792,792,792,792,792,792,792,792,792,792,792,792,792,792,792,792,792,792,792,792,792,792,792,792,792,792,792,792,792,792,792,792,792,792,792,792,792,792,792,792,792,792,792,792,792,792,792,792,792,792,792,792,792,792,792,792,792,792,791,788,776,756,730,691,615,508],"ymouse":[524,524,524,524,524,524,524,524,524,524,524,524,524,524,524,524,524,524,524,524,524,524,524,524,524,524,524,524,524,524,524,524,524,524,524,524,524,524,524,524,524,524,524,524,524,524,524,524,524,524,524,524,524,524,524,524,524,524,524,524,523,517,509,494,441,395,333,266,162,73],"timestamp_mouse":[9,30,48,69,88,109,129,148,169,189,208,229,248,269,289,309,329,349,369,389,408,429,448,469,488,508,529,549,569,588,608,628,648,669,688,709,729,749,769,789,809,828,849,868,889,909,928,950,968,990,1009,1030,1049,1069,1089,1110,1128,1150,1168,1189,1209,1229,1248,1269,1289,1310,1329,1350,1369,1390],"xSR":741.5,"ySR":469.95,"xT1":424.9,"yT1":0,"xT2":1058.1,"yT2":0,"toosoon":0,"cond_shown":"randomdotsizeEA","ratio_trial":750,"smaller_num":"3","larger_num":"4","correct_side":2,"subjID":"anasofiavanegas2","gender":"1","age":"9","school":"4"},{"start_time":1552328359027,"click_time":1552328360179,"finger_time":1552328359839,"fix_duration":505.90714918847044,"trial":14,"RT":812,"MT":340,"sideResp":2,"stimulus":"img/900/equaldotsize/R/13_Ratio_900_L_18_R_20.png","xmouse":[780,780,780,780,780,780,780,780,780,780,780,781,782,783,783,783,783,783,783,783,783,783,783,783,783,783,783,783,783,783,783,783,783,783,783,783,786,790,797,826,844,862,889,908,952,972,1006,1042,1080,1123,1136,1141,1141,1141,1136,1135,1135,1135],"ymouse":[520,520,520,520,520,520,520,520,520,520,520,520,520,520,520,520,520,520,520,520,520,520,520,520,520,520,520,520,520,520,520,520,520,520,520,520,516,513,503,477,461,443,420,404,371,357,336,313,287,251,227,210,202,174,134,118,102,91],"timestamp_mouse":[12,35,52,73,92,112,132,153,172,193,213,232,253,271,293,313,333,353,372,392,412,433,452,473,491,513,532,553,573,591,611,633,652,672,692,712,733,753,773,792,812,832,851,872,891,912,932,953,972,993,1012,1032,1053,1073,1091,1112,1132,1152],"xSR":741.5,"ySR":469.95,"xT1":424.9,"yT1":0,"xT2":1058.1,"yT2":0,"toosoon":0,"cond_shown":"equaldotsize","ratio_trial":900,"smaller_num":"18","larger_num":"20","correct_side":2,"subjID":"anasofiavanegas2","gender":"1","age":"9","school":"4"},{"start_time":1552328362317,"click_time":1552328363280,"finger_time":1552328362899,"fix_duration":817.5393064230959,"trial":15,"RT":582,"MT":381,"sideResp":1,"stimulus":"img/900/equaldotsize/L/1_Ratio_900_L_10_R_9.png","xmouse":[782,782,782,782,782,782,782,782,782,782,782,782,782,782,782,782,782,782,782,782,782,782,782,782,782,782,782,784,786,786,785,779,763,746,727,699,687,684,682,679,663,644,623,601,587,569,552,534,512],"ymouse":[505,505,505,505,505,505,505,505,505,505,505,505,505,505,505,505,505,505,505,505,505,505,505,505,505,505,504,496,479,461,400,356,301,251,208,155,139,136,134,131,117,108,99,90,83,77,73,67,60],"timestamp_mouse":[10,29,43,61,83,103,123,142,163,183,202,223,243,262,283,302,323,343,363,382,402,423,442,461,481,502,523,542,562,582,602,623,642,662,682,702,722,742,763,782,803,822,841,863,882,903,922,942,962],"xSR":741.5,"ySR":469.95,"xT1":424.9,"yT1":0,"xT2":1058.1,"yT2":0,"toosoon":0,"cond_shown":"equaldotsize","ratio_trial":900,"smaller_num":"9","larger_num":"10","correct_side":1,"subjID":"anasofiavanegas2","gender":"1","age":"9","school":"4"},{"start_time":1552328365439,"click_time":1552328367079,"finger_time":1552328366320,"fix_duration":1137.094996699407,"trial":16,"RT":881,"MT":759,"sideResp":2,"stimulus":"img/500/equaldotanddens/R/1_Ratio_500_L_9_R_18.png","xmouse":[772,771,769,769,769,768,767,767,765,765,765,765,765,765,765,765,765,765,765,765,765,765,765,765,765,765,765,765,764,763,762,762,761,761,761,761,760,759,758,758,758,758,768,780,847,874,890,902,908,913,924,933,945,956,967,986,995,1003,1009,1018,1031,1036,1038,1040,1041,1041,1041,1041,1041,1041,1041,1041,1041,1043,1045,1054,1057,1057,1059,1064,1074,1077,1080],"ymouse":[509,509,509,509,509,509,510,510,511,511,511,511,511,511,511,511,511,511,511,511,511,511,511,511,511,511,511,511,511,511,511,511,511,511,511,511,511,511,511,511,511,511,509,503,473,456,441,429,417,407,388,374,357,341,326,294,280,268,262,250,214,198,179,159,156,156,156,156,156,156,156,156,156,155,152,148,147,146,144,134,111,103,98],"timestamp_mouse":[8,27,41,60,80,100,120,140,161,180,201,221,241,259,281,300,320,341,360,381,400,421,440,460,480,500,521,540,561,580,601,620,640,660,681,700,720,740,760,781,801,820,840,859,881,900,920,940,960,980,1000,1020,1040,1060,1081,1100,1121,1141,1159,1181,1200,1220,1241,1260,1280,1300,1320,1340,1359,1381,1400,1420,1441,1460,1480,1499,1520,1540,1561,1580,1600,1620,1640],"xSR":741.5,"ySR":469.95,"xT1":424.9,"yT1":0,"xT2":1058.1,"yT2":0,"toosoon":0,"cond_shown":"equaldotanddens","ratio_trial":500,"smaller_num":"9","larger_num":"18","correct_side":2,"subjID":"anasofiavanegas2","gender":"1","age":"9","school":"4"},{"start_time":1552328368905,"click_time":1552328371019,"finger_time":1552328370659,"fix_duration":905.1954438311883,"trial":17,"RT":1754,"MT":360,"sideResp":1,"stimulus":"img/900/randomdotsizeEA/L/2_Ratio_900_L_20_R_18.png","xmouse":[800,800,800,800,800,800,800,800,800,800,800,800,800,800,799,799,799,799,799,799,799,799,799,799,799,799,799,799,799,799,799,799,799,799,799,799,799,799,799,799,799,799,799,799,799,799,799,799,799,799,799,799,799,799,799,799,798,798,798,798,798,798,798,798,798,798,798,798,798,798,798,798,798,798,798,798,798,798,798,798,794,773,755,754,754,754,743,727,700,667,634,595,591,589,587,583,576,576,576,575,575,568,556,536,528,517],"ymouse":[532,532,532,532,532,532,532,532,532,532,532,532,532,532,532,532,532,532,532,532,532,532,532,532,532,532,532,532,532,532,532,532,532,532,532,532,532,532,532,532,532,532,532,532,532,532,532,532,532,532,532,532,532,532,532,532,532,532,532,532,532,532,532,532,532,532,532,532,532,532,532,532,532,532,532,532,532,532,532,532,532,532,532,532,532,532,505,450,373,285,207,113,89,57,34,20,7,7,7,7,7,7,10,16,19,21],"timestamp_mouse":[15,35,55,75,94,113,135,155,175,195,215,235,254,273,295,314,335,354,375,395,413,435,455,474,493,513,534,554,574,595,615,635,654,674,694,715,735,754,775,795,815,834,854,873,894,915,935,955,974,994,1014,1034,1055,1075,1094,1114,1135,1155,1174,1195,1215,1234,1255,1274,1295,1314,1333,1355,1375,1394,1414,1434,1454,1474,1495,1514,1534,1554,1575,1594,1614,1634,1654,1673,1695,1714,1733,1754,1774,1794,1813,1834,1854,1874,1895,1914,1934,1955,1974,1993,2014,2034,2055,2074,2094,2114],"xSR":741.5,"ySR":469.95,"xT1":424.9,"yT1":0,"xT2":1058.1,"yT2":0,"toosoon":0,"cond_shown":"randomdotsizeEA","ratio_trial":900,"smaller_num":"18","larger_num":"20","correct_side":1,"subjID":"anasofiavanegas2","gender":"1","age":"9","school":"4"},{"start_time":1552328373435,"click_time":1552328374319,"finger_time":1552328373466,"fix_duration":1395.2992043703766,"trial":18,"RT":31,"MT":853,"sideResp":1,"stimulus":"img/500/equaldotanddens/L/5_Ratio_500_L_4_R_2.png","xmouse":[763,633,544,457,373,293,282,282,282,282,282,282,282,283,287,304,373,429,478,519,560,563,564,564,564,564,564,564,564,564,564,567,573,588,611,639,694,702,703,703,693,637,585,516,449],"ymouse":[539,515,489,460,422,378,372,372,372,372,372,372,372,372,372,372,361,356,356,361,379,383,384,385,386,387,387,387,388,388,388,389,391,393,395,395,393,388,381,360,331,237,189,139,97],"timestamp_mouse":[4,31,45,64,84,105,123,144,163,185,205,225,244,265,285,304,325,344,365,385,404,424,444,464,484,505,525,544,565,585,604,623,644,664,684,704,725,744,763,785,803,823,845,864,884],"xSR":741.5,"ySR":469.95,"xT1":424.9,"yT1":0,"xT2":1058.1,"yT2":0,"toosoon":0,"cond_shown":"equaldotanddens","ratio_trial":500,"smaller_num":"2","larger_num":"4","correct_side":1,"subjID":"anasofiavanegas2","gender":"1","age":"9","school":"4"},{"start_time":1552328378382,"click_time":1552328380680,"finger_time":1552328379219,"fix_duration":1402.8199747813544,"trial":19,"RT":837,"MT":1461,"sideResp":1,"stimulus":"img/250/randomdotsizeEA/L/3_Ratio_250_L_8_R_2.png","xmouse":[824,824,824,824,824,824,824,824,824,824,824,824,824,824,824,824,824,824,824,824,824,824,824,824,824,824,824,824,824,824,824,824,824,824,824,824,824,824,827,832,837,848,863,896,928,955,985,1014,1060,1078,1096,1110,1124,1144,1148,1150,1150,1138,1070,978,857,722,587,587,587,587,587,587,587,587,587,587,587,587,587,587,587,587,587,587,587,587,587,587,587,587,287,297,352,381,414,441,458,474,480,485,495,503,510,510,511,515,518,523,523,524,524,524,526,527,527,527,527,527,523],"ymouse":[531,531,531,531,531,531,531,531,531,531,531,531,531,531,531,531,531,531,531,531,531,531,531,531,531,531,531,531,531,531,531,531,531,531,531,531,531,531,529,527,524,518,512,496,477,462,440,418,384,369,356,347,337,313,303,284,272,258,220,181,129,69,5,5,5,5,5,5,5,5,5,5,5,5,5,5,5,5,5,5,5,5,5,5,5,5,1,13,64,86,109,125,135,142,144,144,144,144,144,144,144,143,135,123,120,112,107,101,87,82,79,78,76,70,63],"timestamp_mouse":[17,39,58,78,97,118,137,158,177,197,218,238,257,278,297,318,338,357,377,398,418,437,457,478,498,518,538,558,578,597,618,637,657,677,698,718,737,757,777,797,818,837,858,877,898,917,937,958,977,997,1017,1037,1057,1077,1097,1117,1137,1157,1177,1197,1218,1237,1258,1276,1298,1318,1338,1358,1377,1397,1417,1437,1457,1477,1498,1517,1537,1557,1577,1597,1616,1637,1657,1677,1696,1717,1738,1757,1778,1798,1818,1836,1857,1877,1897,1917,1938,1957,1977,1997,2017,2037,2056,2077,2097,2117,2137,2157,2177,2197,2217,2237,2258,2278,2298],"xSR":741.5,"ySR":469.95,"xT1":424.9,"yT1":0,"xT2":1058.1,"yT2":0,"toosoon":0,"cond_shown":"randomdotsizeEA","ratio_trial":250,"smaller_num":"2","larger_num":"8","correct_side":1,"subjID":"anasofiavanegas2","gender":"1","age":"9","school":"4"},{"start_time":1552328383092,"click_time":1552328384039,"finger_time":1552328383839,"fix_duration":1352.5142449091122,"trial":20,"RT":747,"MT":200,"sideResp":1,"stimulus":"img/250/equaldotanddens/L/14_Ratio_250_L_12_R_3.png","xmouse":[799,799,799,799,799,799,799,799,799,799,799,799,799,799,799,799,799,799,799,799,799,799,799,799,799,799,799,799,799,799,799,799,799,799,799,799,796,792,784,748,727,700,671,640,594,569,546,521],"ymouse":[542,542,542,542,542,542,542,542,542,542,542,542,542,542,542,542,542,542,542,542,542,542,542,542,542,542,542,542,542,542,542,542,542,533,511,495,479,462,443,379,344,299,255,216,151,113,76,44],"timestamp_mouse":[11,28,47,68,88,106,127,147,168,187,208,227,247,268,288,307,328,348,366,388,408,428,448,468,488,507,528,547,568,587,608,627,647,667,687,707,727,747,767,787,807,828,847,868,887,907,927,947],"xSR":741.5,"ySR":469.95,"xT1":424.9,"yT1":0,"xT2":1058.1,"yT2":0,"toosoon":0,"cond_shown":"equaldotanddens","ratio_trial":250,"smaller_num":"3","larger_num":"12","correct_side":1,"subjID":"anasofiavanegas2","gender":"1","age":"9","school":"4"},{"start_time":1552328386202,"click_time":1552328386960,"finger_time":1552328386779,"fix_duration":1181.221146768306,"trial":21,"RT":577,"MT":181,"sideResp":1,"stimulus":"img/250/equaldotsize/L/7_Ratio_250_L_8_R_2.png","xmouse":[796,796,796,796,796,796,796,796,796,796,796,796,796,796,796,796,796,796,796,796,796,797,801,803,803,803,803,803,791,779,768,748,733,682,640,587,530,476],"ymouse":[504,504,504,504,504,504,504,504,504,504,504,504,504,504,504,504,504,504,504,504,504,504,500,494,492,488,483,478,456,443,429,402,381,303,246,184,122,64],"timestamp_mouse":[18,37,57,78,98,118,138,157,178,196,218,237,257,277,297,318,338,357,376,398,417,437,457,477,497,517,538,557,577,597,617,636,657,678,697,717,737,757],"xSR":741.5,"ySR":469.95,"xT1":424.9,"yT1":0,"xT2":1058.1,"yT2":0,"toosoon":0,"cond_shown":"equaldotsize","ratio_trial":250,"smaller_num":"2","larger_num":"8","correct_side":1,"subjID":"anasofiavanegas2","gender":"1","age":"9","school":"4"},{"start_time":1552328389771,"click_time":1552328391380,"finger_time":1552328390699,"fix_duration":250,"trial":22,"RT":928,"MT":681,"sideResp":2,"stimulus":"img/900/equaldotanddens/R/14_Ratio_900_L_18_R_20.png","xmouse":[791,793,794,795,796,797,797,797,798,798,798,798,798,798,798,798,798,798,798,798,798,798,798,798,798,798,798,798,798,798,798,798,798,798,798,798,798,798,798,798,798,798,798,798,802,827,850,868,878,889,917,931,942,954,966,989,999,1011,1020,1024,1028,1028,1027,1025,1024,1024,1024,1024,1025,1027,1032,1047,1054,1054,1059,1064,1066,1067,1067,1067,1067],"ymouse":[532,530,529,529,528,527,526,526,525,525,525,525,525,525,525,525,525,525,525,525,525,525,525,525,525,525,525,525,525,525,525,525,525,525,525,525,525,525,525,525,525,525,525,525,522,512,502,491,483,472,428,409,394,381,366,326,303,274,251,228,184,176,167,162,158,154,154,154,153,151,145,135,131,130,127,122,120,117,114,109,92],"timestamp_mouse":[14,28,47,69,89,108,129,148,168,189,208,229,248,267,288,308,329,348,369,388,408,429,449,467,489,509,529,549,569,589,609,629,648,668,689,709,729,749,769,788,807,828,849,868,888,908,928,948,968,988,1010,1027,1048,1068,1087,1109,1128,1148,1168,1187,1209,1228,1248,1269,1288,1309,1329,1348,1368,1388,1408,1428,1448,1468,1488,1508,1528,1548,1568,1588,1609],"xSR":741.5,"ySR":469.95,"xT1":424.9,"yT1":0,"xT2":1058.1,"yT2":0,"toosoon":0,"cond_shown":"equaldotanddens","ratio_trial":900,"smaller_num":"18","larger_num":"20","correct_side":2,"subjID":"anasofiavanegas2","gender":"1","age":"9","school":"4"},{"start_time":1552328393861,"click_time":1552328394859,"finger_time":1552328394439,"fix_duration":740.0696776898047,"trial":23,"RT":578,"MT":420,"sideResp":1,"stimulus":"img/900/equaldotsize/L/10_Ratio_900_L_20_R_18.png","xmouse":[809,809,809,809,809,809,809,809,809,809,809,809,809,809,809,809,809,809,809,809,809,809,809,809,809,809,809,809,804,791,765,688,616,577,562,562,562,562,562,562,562,562,562,562,562,562,562,562,562,430],"ymouse":[510,510,510,510,510,510,510,510,510,510,510,510,510,510,510,510,510,510,510,510,510,510,510,510,510,510,502,482,457,407,348,205,102,37,11,11,11,11,11,11,11,11,11,11,11,11,11,11,11,1],"timestamp_mouse":[18,38,58,77,99,119,138,158,178,199,219,238,258,279,297,318,339,357,379,398,418,439,459,478,497,518,538,558,578,598,618,638,659,678,698,717,739,757,778,797,817,838,859,879,899,918,938,957,978,998],"xSR":741.5,"ySR":469.95,"xT1":424.9,"yT1":0,"xT2":1058.1,"yT2":0,"toosoon":0,"cond_shown":"equaldotsize","ratio_trial":900,"smaller_num":"18","larger_num":"20","correct_side":1,"subjID":"anasofiavanegas2","gender":"1","age":"9","school":"4"},{"start_time":1552328397418,"click_time":1552328399120,"finger_time":1552328398599,"fix_duration":1238.6952140636172,"trial":24,"RT":1181,"MT":521,"sideResp":2,"stimulus":"img/500/equaldotsize/R/14_Ratio_500_L_5_R_10.png","xmouse":[803,803,803,803,803,803,803,803,803,803,803,803,803,803,803,803,803,803,803,803,803,803,803,803,803,803,803,803,803,803,803,803,803,803,803,803,803,803,803,803,803,803,803,803,803,803,803,803,803,803,803,803,803,803,803,803,805,811,821,845,860,879,897,913,949,975,990,1003,1017,1044,1051,1056,1060,1061,1064,1067,1068,1069,1070,1071,1074,1077,1080,1084,1089,1099],"ymouse":[541,541,541,541,541,541,541,541,541,541,541,541,541,541,541,541,541,541,541,541,541,541,541,541,541,541,541,541,541,541,541,541,541,541,541,541,541,541,541,541,541,541,541,541,541,541,541,541,541,541,541,541,541,541,541,539,537,533,527,514,505,496,486,476,447,416,396,378,357,300,276,249,225,207,184,169,161,154,148,144,138,133,130,124,117,98],"timestamp_mouse":[10,28,42,60,82,102,122,141,162,181,202,221,241,262,282,300,322,342,361,381,402,422,441,461,481,501,521,541,562,581,600,621,642,660,681,702,722,741,761,781,802,821,842,862,881,902,921,942,962,981,1002,1021,1042,1061,1081,1102,1121,1141,1161,1181,1200,1221,1241,1262,1282,1300,1321,1341,1362,1381,1401,1421,1441,1462,1482,1500,1521,1541,1560,1582,1601,1621,1641,1662,1682,1702],"xSR":741.5,"ySR":469.95,"xT1":424.9,"yT1":0,"xT2":1058.1,"yT2":0,"toosoon":0,"cond_shown":"equaldotsize","ratio_trial":500,"smaller_num":"5","larger_num":"10","correct_side":2,"subjID":"anasofiavanegas2","gender":"1","age":"9","school":"4"},{"start_time":1552328401147,"click_time":1552328402319,"finger_time":1552328401979,"fix_duration":927.4821640373559,"trial":25,"RT":832,"MT":340,"sideResp":2,"stimulus":"img/900/equaldotsize/R/13_Ratio_900_L_18_R_20.png","xmouse":[797,797,797,797,797,797,797,797,797,797,797,797,797,797,797,797,797,797,797,797,797,797,797,797,797,797,797,797,797,797,798,798,798,798,799,800,802,806,810,814,824,848,885,957,983,1000,1016,1027,1057,1070,1083,1093,1099,1104,1104,1104,1109,1109,1106],"ymouse":[518,518,518,518,518,518,518,518,518,518,518,518,518,518,518,518,518,518,518,518,518,516,515,515,514,514,514,514,514,514,511,510,510,510,509,508,505,501,498,496,490,477,455,411,393,380,363,353,327,310,290,272,256,219,201,181,151,131,96],"timestamp_mouse":[12,31,52,72,93,113,133,153,173,192,213,233,253,272,292,313,331,353,373,392,412,433,451,473,493,511,531,553,572,592,612,633,653,671,693,712,733,752,772,792,812,832,852,872,892,912,932,952,972,992,1012,1032,1052,1071,1092,1112,1132,1153,1171],"xSR":741.5,"ySR":469.95,"xT1":424.9,"yT1":0,"xT2":1058.1,"yT2":0,"toosoon":0,"cond_shown":"equaldotsize","ratio_trial":900,"smaller_num":"18","larger_num":"20","correct_side":2,"subjID":"anasofiavanegas2","gender":"1","age":"9","school":"4"},{"start_time":1552328411032,"click_time":1552328412059,"finger_time":1552328411600,"fix_duration":952.1913060829542,"trial":26,"RT":568,"MT":459,"sideResp":1,"stimulus":"img/250/equaldotsize/L/5_Ratio_250_L_24_R_6.png","xmouse":[788,788,788,788,788,788,789,789,790,791,792,793,793,793,793,793,793,793,793,793,793,793,793,794,796,809,829,836,851,858,858,834,792,729,729,729,729,729,729,729,729,729,729,729,729,729,729,729,729,729,531,516],"ymouse":[547,547,547,547,547,547,546,545,544,544,543,542,542,542,542,542,542,542,542,542,542,542,542,542,541,535,521,514,485,454,324,235,135,36,36,36,36,36,36,36,36,36,36,36,36,36,36,36,36,36,28,56],"timestamp_mouse":[11,32,48,67,87,107,128,148,167,187,207,227,248,268,287,307,328,347,366,387,408,428,448,467,488,506,527,548,568,587,611,627,647,666,687,707,727,747,768,787,807,827,847,866,886,906,927,947,968,987,1006,1026],"xSR":741.5,"ySR":469.95,"xT1":424.9,"yT1":0,"xT2":1058.1,"yT2":0,"toosoon":0,"cond_shown":"equaldotsize","ratio_trial":250,"smaller_num":"6","larger_num":"24","correct_side":1,"subjID":"anasofiavanegas2","gender":"1","age":"9","school":"4"},{"start_time":1552328413732,"click_time":1552328415839,"finger_time":1552328415359,"fix_duration":329.35425090825976,"trial":27,"RT":1627,"MT":480,"sideResp":1,"stimulus":"img/900/equaldotanddens/L/4_Ratio_900_L_20_R_18.png","xmouse":[798,798,797,795,793,793,793,793,793,793,793,793,793,793,793,793,793,793,793,793,793,793,793,793,793,793,793,793,793,793,793,793,793,793,793,793,793,793,793,793,793,793,793,793,793,793,793,793,793,793,793,793,793,793,793,793,793,793,793,793,793,793,793,793,793,793,793,793,793,793,793,793,793,793,793,793,793,793,793,792,785,766,734,687,636,534,498,473,449,430,401,393,392,392,392,392,392,393,394,398,408,415,419,422,424,428],"ymouse":[524,524,524,524,526,526,526,526,526,526,526,526,526,526,526,526,526,526,526,526,526,526,526,526,526,526,526,526,526,526,526,526,526,526,526,526,526,526,526,526,526,526,526,526,526,526,526,526,526,526,526,526,526,526,526,526,526,526,526,526,526,526,526,526,526,526,526,526,526,526,526,526,526,526,526,526,526,526,526,524,503,459,413,361,315,228,196,170,146,129,102,95,92,90,88,83,71,67,62,59,55,53,53,53,53,52],"timestamp_mouse":[12,34,47,68,88,108,128,148,167,187,208,227,247,268,287,307,327,348,366,387,408,428,448,468,487,506,527,547,568,587,607,627,648,668,687,707,728,748,767,788,807,828,848,868,887,906,926,948,968,987,1008,1028,1046,1068,1087,1107,1127,1147,1168,1188,1208,1227,1247,1268,1288,1307,1327,1348,1366,1388,1407,1428,1448,1468,1487,1507,1528,1547,1566,1586,1606,1627,1647,1667,1687,1707,1727,1747,1767,1787,1808,1827,1847,1867,1887,1907,1928,1947,1967,1997,2008,2027,2046,2067,2088,2107],"xSR":741.5,"ySR":469.95,"xT1":424.9,"yT1":0,"xT2":1058.1,"yT2":0,"toosoon":0,"cond_shown":"equaldotanddens","ratio_trial":900,"smaller_num":"18","larger_num":"20","correct_side":1,"subjID":"anasofiavanegas2","gender":"1","age":"9","school":"4"},{"start_time":1552328417436,"click_time":1552328418659,"finger_time":1552328418240,"fix_duration":494.24650817807156,"trial":28,"RT":804,"MT":419,"sideResp":2,"stimulus":"img/250/equaldotsize/R/13_Ratio_250_L_2_R_8.png","xmouse":[781,781,781,781,781,781,781,781,781,781,781,781,781,781,781,781,781,781,781,781,781,781,781,781,781,781,781,781,781,781,781,781,781,781,781,781,781,781,789,805,844,867,888,908,925,964,981,992,1001,1008,1018,1021,1023,1026,1030,1037,1043,1045,1050,1058,1068,1091],"ymouse":[504,504,504,504,504,504,504,504,504,504,504,504,504,504,504,504,504,504,504,504,504,504,504,504,504,504,504,504,504,504,504,504,504,504,504,504,504,505,499,487,460,439,416,386,348,243,198,167,145,130,117,114,113,111,109,106,105,104,104,103,101,92],"timestamp_mouse":[8,24,43,63,84,104,124,144,164,184,203,223,243,263,283,303,323,343,363,384,404,423,443,464,484,503,524,543,564,584,603,624,643,664,684,702,724,743,764,784,804,823,844,864,883,905,923,942,964,983,1004,1023,1043,1063,1083,1104,1123,1143,1164,1184,1204,1223],"xSR":741.5,"ySR":469.95,"xT1":424.9,"yT1":0,"xT2":1058.1,"yT2":0,"toosoon":0,"cond_shown":"equaldotsize","ratio_trial":250,"smaller_num":"2","larger_num":"8","correct_side":2,"subjID":"anasofiavanegas2","gender":"1","age":"9","school":"4"},{"start_time":1552328420654,"click_time":1552328421739,"finger_time":1552328421359,"fix_duration":1032.5909007848709,"trial":29,"RT":705,"MT":380,"sideResp":1,"stimulus":"img/250/randomdotsizeEA/L/5_Ratio_250_L_24_R_6.png","xmouse":[782,782,782,782,782,782,782,782,782,782,782,782,782,782,782,782,782,782,782,782,782,782,782,782,782,782,784,784,785,785,783,778,777,769,762,720,682,645,622,610,593,590,589,590,592,592,592,587,583,580,573,565,551,529,516],"ymouse":[523,523,523,523,523,523,523,523,523,523,523,523,523,523,523,523,523,523,523,523,523,523,523,523,522,521,520,519,517,513,502,496,496,492,487,452,418,387,362,339,301,284,282,272,257,214,191,171,154,139,114,102,87,71,62],"timestamp_mouse":[12,26,45,65,86,106,125,146,165,185,206,225,245,266,285,305,326,345,366,385,405,426,445,466,486,506,525,546,565,585,605,625,645,665,685,705,725,745,765,786,805,824,845,866,885,905,925,946,965,984,1005,1025,1045,1065,1085],"xSR":741.5,"ySR":469.95,"xT1":424.9,"yT1":0,"xT2":1058.1,"yT2":0,"toosoon":0,"cond_shown":"randomdotsizeEA","ratio_trial":250,"smaller_num":"6","larger_num":"24","correct_side":1,"subjID":"anasofiavanegas2","gender":"1","age":"9","school":"4"},{"start_time":1552328423387,"click_time":1552328424320,"finger_time":1552328423939,"fix_duration":605.9130749518134,"trial":30,"RT":552,"MT":381,"sideResp":2,"stimulus":"img/900/equaldotsize/L/1_Ratio_900_L_10_R_9.png","xmouse":[771,771,771,771,771,771,771,771,771,771,771,771,771,771,771,771,769,766,761,758,758,758,758,764,784,801,822,847,892,910,931,949,967,990,1002,1007,1012,1015,1016,1023,1029,1035,1043,1058,1075,1086,1096],"ymouse":[528,528,528,528,528,528,528,528,528,528,528,528,528,528,528,528,531,536,542,545,545,545,545,543,533,524,516,506,479,462,438,410,390,364,350,341,329,310,263,245,230,213,196,165,136,117,98],"timestamp_mouse":[13,32,52,72,93,113,133,152,173,191,213,232,253,273,293,312,333,352,372,393,412,433,452,471,493,512,533,552,572,592,612,632,652,672,692,712,733,752,772,792,812,833,852,873,892,912,933],"xSR":741.5,"ySR":469.95,"xT1":424.9,"yT1":0,"xT2":1058.1,"yT2":0,"toosoon":0,"cond_shown":"equaldotsize","ratio_trial":900,"smaller_num":"9","larger_num":"10","correct_side":1,"subjID":"anasofiavanegas2","gender":"1","age":"9","school":"4"},{"start_time":1552328425962,"click_time":1552328427579,"finger_time":1552328426419,"fix_duration":822.8097003285028,"trial":31,"RT":457,"MT":1160,"sideResp":2,"stimulus":"img/750/equaldotsize/R/2_Ratio_750_L_6_R_8.png","xmouse":[783,783,783,783,783,783,783,783,783,783,783,783,783,783,783,783,782,780,777,768,761,746,728,695,617,595,576,558,537,524,514,513,513,513,506,504,503,503,503,506,508,511,513,513,513,511,510,510,510,510,510,510,510,510,510,510,512,514,518,524,548,568,600,638,750,796,843,899,954,1068,1106,1132,1159,1167,1184,1193,1193,1188,1175,1152,1074],"ymouse":[539,539,539,539,539,539,539,539,539,539,539,539,539,539,539,539,538,538,538,535,530,522,508,483,422,401,379,354,326,305,282,275,265,257,232,225,219,214,208,194,185,176,168,159,154,147,147,147,147,147,147,147,147,147,148,153,157,161,166,173,190,201,217,232,272,284,293,296,298,298,295,284,263,256,231,202,188,172,152,130,62],"timestamp_mouse":[17,37,57,78,97,117,137,157,177,197,218,238,258,277,298,317,337,358,377,398,417,437,457,478,498,517,537,558,577,597,616,637,657,677,699,717,737,758,778,798,817,837,857,878,897,917,937,958,977,997,1016,1037,1058,1077,1098,1118,1137,1157,1178,1197,1216,1237,1258,1278,1299,1317,1338,1358,1377,1398,1417,1437,1457,1477,1497,1517,1537,1557,1577,1597,1616],"xSR":741.5,"ySR":469.95,"xT1":424.9,"yT1":0,"xT2":1058.1,"yT2":0,"toosoon":0,"cond_shown":"equaldotsize","ratio_trial":750,"smaller_num":"6","larger_num":"8","correct_side":2,"subjID":"anasofiavanegas2","gender":"1","age":"9","school":"4"},{"start_time":1552328429051,"click_time":1552328430219,"finger_time":1552328429899,"fix_duration":331.5812635050472,"trial":32,"RT":848,"MT":320,"sideResp":2,"stimulus":"img/250/randomdotsizeEA/R/11_Ratio_250_L_3_R_12.png","xmouse":[749,749,749,749,749,749,749,749,749,749,749,749,749,749,749,749,749,749,749,749,749,749,749,749,749,749,749,749,749,749,749,749,749,749,749,749,749,749,749,751,757,794,817,841,864,892,950,986,1041,1064,1091,1125,1138,1149,1153,1156,1160,1160,1158],"ymouse":[546,546,546,546,546,546,546,546,546,546,546,546,546,546,546,546,546,546,546,546,546,546,546,546,546,546,546,546,546,546,546,546,546,546,546,546,546,546,546,543,536,490,457,428,397,364,303,277,241,223,201,162,144,128,116,107,87,70,57],"timestamp_mouse":[11,37,48,69,89,108,128,149,169,189,208,229,249,268,289,308,328,349,368,388,408,429,448,468,489,508,527,548,569,589,609,629,649,669,689,709,728,748,769,789,808,828,848,869,889,908,928,948,968,988,1008,1028,1048,1069,1088,1108,1128,1148,1168],"xSR":741.5,"ySR":469.95,"xT1":424.9,"yT1":0,"xT2":1058.1,"yT2":0,"toosoon":0,"cond_shown":"randomdotsizeEA","ratio_trial":250,"smaller_num":"3","larger_num":"12","correct_side":2,"subjID":"anasofiavanegas2","gender":"1","age":"9","school":"4"},{"start_time":1552328432089,"click_time":1552328433219,"finger_time":1552328432739,"fix_duration":487.32267121121697,"trial":33,"RT":650,"MT":480,"sideResp":2,"stimulus":"img/750/randomdotsizeEA/R/5_Ratio_750_L_15_R_20.png","xmouse":[783,783,782,781,781,781,781,781,781,781,781,781,781,781,781,781,781,781,781,781,781,781,781,782,783,787,788,790,793,798,813,823,831,839,851,877,885,893,902,931,947,961,975,987,1004,1012,1017,1022,1035,1072,1090,1103,1109,1111,1113,1114,1115],"ymouse":[541,541,541,541,541,541,541,541,541,541,541,541,541,541,541,541,541,541,541,541,541,541,541,540,539,536,535,533,528,521,496,480,461,439,413,340,310,284,259,214,195,179,167,159,148,144,141,139,135,121,118,114,112,110,106,101,98],"timestamp_mouse":[12,34,50,70,90,110,130,151,171,191,211,231,251,270,290,310,331,350,371,390,411,430,451,470,490,511,530,551,570,590,610,630,650,670,690,710,730,751,771,791,810,830,849,870,890,909,930,951,970,990,1010,1030,1050,1071,1091,1111,1130],"xSR":741.5,"ySR":469.95,"xT1":424.9,"yT1":0,"xT2":1058.1,"yT2":0,"toosoon":0,"cond_shown":"randomdotsizeEA","ratio_trial":750,"smaller_num":"15","larger_num":"20","correct_side":2,"subjID":"anasofiavanegas2","gender":"1","age":"9","school":"4"},{"start_time":1552328436445,"click_time":1552328437659,"finger_time":1552328437279,"fix_duration":844.8533749251875,"trial":34,"RT":834,"MT":380,"sideResp":2,"stimulus":"img/250/equaldotsize/R/12_Ratio_250_L_5_R_20.png","xmouse":[785,783,779,778,778,778,778,778,778,778,778,778,778,778,778,778,778,778,778,778,778,778,778,778,778,778,778,778,778,778,778,778,778,778,778,778,778,778,781,786,793,804,826,837,846,851,856,858,860,864,870,878,890,894,897,904,911,949,984,1032,1078],"ymouse":[537,535,528,525,523,523,523,523,523,523,523,523,523,523,523,523,523,523,523,523,523,523,523,523,523,523,523,523,523,521,520,519,518,517,517,516,515,512,508,499,482,454,375,334,287,260,234,178,150,126,101,78,50,44,41,40,39,46,55,74,94],"timestamp_mouse":[14,34,54,74,94,114,134,154,174,194,215,234,254,275,294,313,335,355,375,395,415,435,454,475,495,515,535,555,574,595,615,634,654,673,694,714,734,755,774,795,815,834,854,874,894,914,935,954,974,995,1014,1034,1054,1074,1093,1114,1134,1154,1174,1194,1214],"xSR":741.5,"ySR":469.95,"xT1":424.9,"yT1":0,"xT2":1058.1,"yT2":0,"toosoon":0,"cond_shown":"equaldotsize","ratio_trial":250,"smaller_num":"5","larger_num":"20","correct_side":2,"subjID":"anasofiavanegas2","gender":"1","age":"9","school":"4"},{"start_time":1552328439330,"click_time":1552328441139,"finger_time":1552328441059,"fix_duration":669.5061282805646,"trial":35,"RT":1729,"MT":80,"sideResp":1,"stimulus":"img/750/randomdotsizeEA/L/9_Ratio_750_L_4_R_3.png","xmouse":[776,776,776,776,776,776,776,776,776,776,776,776,776,776,776,776,776,776,776,776,776,776,776,776,776,776,776,776,775,775,774,774,774,774,774,774,774,774,774,774,774,774,774,774,774,774,774,774,774,774,774,774,774,774,774,774,774,774,774,774,774,774,774,773,771,771,770,770,770,770,770,770,770,770,770,770,770,770,770,770,770,770,770,770,768,762,740,701,648,520,485],"ymouse":[528,528,528,528,528,528,528,528,528,528,528,528,528,528,528,528,528,528,528,528,528,528,528,528,528,528,528,528,528,528,528,528,528,528,528,528,528,528,528,528,528,528,528,528,528,528,528,528,528,528,528,528,528,528,528,528,528,528,528,528,528,528,528,531,531,531,531,531,531,531,531,531,531,531,531,531,531,531,531,531,531,531,531,531,527,484,400,311,232,102,70],"timestamp_mouse":[10,29,49,69,90,109,130,150,170,190,210,230,250,270,289,310,330,350,369,389,410,430,449,470,490,509,529,549,569,589,610,629,650,669,689,710,729,748,770,790,809,830,849,869,890,910,929,950,969,989,1009,1030,1050,1068,1090,1110,1129,1150,1170,1189,1210,1230,1249,1269,1290,1309,1330,1349,1370,1390,1410,1429,1449,1469,1489,1510,1530,1550,1569,1589,1610,1628,1649,1669,1689,1710,1729,1749,1769,1789,1809],"xSR":741.5,"ySR":469.95,"xT1":424.9,"yT1":0,"xT2":1058.1,"yT2":0,"toosoon":0,"cond_shown":"randomdotsizeEA","ratio_trial":750,"smaller_num":"3","larger_num":"4","correct_side":1,"subjID":"anasofiavanegas2","gender":"1","age":"9","school":"4"},{"start_time":1552328442614,"click_time":1552328443500,"finger_time":1552328443320,"fix_duration":774.9862788644498,"trial":36,"RT":706,"MT":180,"sideResp":1,"stimulus":"img/900/randomdotsizeEA/L/1_Ratio_900_L_10_R_9.png","xmouse":[775,773,771,770,768,767,767,765,764,764,764,764,764,764,764,764,764,764,764,764,764,764,764,764,764,764,764,764,764,764,764,763,763,763,763,756,740,719,691,670,617,578,551,537,516],"ymouse":[518,518,518,518,519,520,520,520,520,520,520,520,520,520,520,520,520,520,520,520,520,520,520,520,520,520,520,520,520,520,520,520,517,505,491,438,403,366,330,301,234,184,150,129,84],"timestamp_mouse":[11,25,45,66,85,105,125,146,165,186,205,226,245,265,285,305,326,345,365,385,406,425,445,466,485,506,526,546,565,585,606,625,645,666,685,706,725,746,766,786,805,826,845,865,886],"xSR":741.5,"ySR":469.95,"xT1":424.9,"yT1":0,"xT2":1058.1,"yT2":0,"toosoon":0,"cond_shown":"randomdotsizeEA","ratio_trial":900,"smaller_num":"9","larger_num":"10","correct_side":1,"subjID":"anasofiavanegas2","gender":"1","age":"9","school":"4"},{"start_time":1552328446141,"click_time":1552328447179,"finger_time":1552328446719,"fix_duration":1420.3079969633307,"trial":37,"RT":578,"MT":460,"sideResp":2,"stimulus":"img/500/equaldotsize/R/6_Ratio_500_L_9_R_18.png","xmouse":[806,806,806,806,806,806,806,806,806,806,806,806,806,806,806,806,806,806,806,806,806,806,806,806,806,806,807,813,847,880,924,953,974,999,1007,1018,1035,1047,1077,1091,1103,1108,1111,1113,1114,1114,1116,1116,1116,1116,1116,1116],"ymouse":[494,494,494,494,494,494,494,494,494,494,494,494,494,494,494,494,494,495,495,495,495,495,495,495,495,495,494,482,437,393,342,303,272,237,226,216,201,189,168,159,152,148,145,142,138,133,127,122,111,105,100,95],"timestamp_mouse":[18,38,59,79,99,119,139,157,179,198,218,239,259,279,300,319,338,358,378,398,418,438,459,478,499,519,538,558,578,598,618,638,657,678,697,719,738,758,778,798,819,838,858,877,897,918,938,958,979,998,1019,1037],"xSR":741.5,"ySR":469.95,"xT1":424.9,"yT1":0,"xT2":1058.1,"yT2":0,"toosoon":0,"cond_shown":"equaldotsize","ratio_trial":500,"smaller_num":"9","larger_num":"18","correct_side":2,"subjID":"anasofiavanegas2","gender":"1","age":"9","school":"4"},{"start_time":1552328448452,"click_time":1552328449920,"finger_time":1552328449459,"fix_duration":250,"trial":38,"RT":1007,"MT":461,"sideResp":1,"stimulus":"img/900/equaldotanddens/L/2_Ratio_900_L_20_R_18.png","xmouse":[786,786,786,786,786,786,786,786,786,778,772,771,770,770,770,770,770,770,770,770,770,770,770,770,770,770,770,770,770,770,770,770,770,770,770,770,770,770,770,770,770,770,770,770,770,770,770,770,770,766,758,746,730,679,649,623,602,577,577,577,577,577,577,577,577,577,577,577,577,577,577,577,577,486],"ymouse":[513,513,513,513,513,513,513,513,513,509,508,508,508,508,508,508,508,508,508,508,508,508,508,508,508,508,508,508,508,508,508,508,508,508,508,508,508,508,508,508,508,508,508,508,508,508,508,508,504,488,443,395,338,207,154,109,65,2,2,2,2,2,2,2,2,2,2,2,2,2,2,2,2,18],"timestamp_mouse":[20,30,48,67,89,108,127,147,167,188,207,227,247,268,287,307,328,347,368,387,407,427,447,468,486,508,527,547,567,587,607,627,647,668,688,707,728,747,768,788,807,827,848,868,887,908,927,947,967,988,1007,1028,1047,1068,1087,1108,1127,1147,1168,1187,1207,1227,1247,1267,1287,1307,1327,1348,1367,1387,1408,1428,1447,1468],"xSR":741.5,"ySR":469.95,"xT1":424.9,"yT1":0,"xT2":1058.1,"yT2":0,"toosoon":0,"cond_shown":"equaldotanddens","ratio_trial":900,"smaller_num":"18","larger_num":"20","correct_side":1,"subjID":"anasofiavanegas2","gender":"1","age":"9","school":"4"},{"start_time":1552328453198,"click_time":1552328454159,"finger_time":1552328453659,"fix_duration":1037.392821123557,"trial":39,"RT":461,"MT":500,"sideResp":2,"stimulus":"img/750/randomdotsizeEA/L/8_Ratio_750_L_4_R_3.png","xmouse":[784,781,780,780,780,780,780,780,779,779,779,778,778,778,778,778,778,778,778,782,786,802,836,851,863,870,880,901,912,926,949,981,995,1004,1010,1016,1021,1031,1037,1046,1048,1056,1068,1076,1088,1098,1113,1115,1115],"ymouse":[530,531,531,531,531,531,531,531,531,531,531,531,531,531,531,531,531,531,531,531,531,531,527,525,522,520,514,494,480,463,440,400,375,356,340,327,316,300,290,276,271,254,231,217,196,174,125,102,85],"timestamp_mouse":[1,21,41,62,81,102,122,142,161,181,201,222,242,261,280,301,322,343,361,381,402,421,441,461,481,501,521,541,562,581,601,622,641,661,681,702,721,741,761,780,801,821,841,861,881,901,923,940,961],"xSR":741.5,"ySR":469.95,"xT1":424.9,"yT1":0,"xT2":1058.1,"yT2":0,"toosoon":0,"cond_shown":"randomdotsizeEA","ratio_trial":750,"smaller_num":"3","larger_num":"4","correct_side":1,"subjID":"anasofiavanegas2","gender":"1","age":"9","school":"4"},{"start_time":1552328461739,"click_time":1552328463200,"finger_time":1552328462339,"fix_duration":1036.6927771945127,"trial":40,"RT":600,"MT":861,"sideResp":1,"stimulus":"img/250/randomdotsizeEA/L/7_Ratio_250_L_8_R_2.png","xmouse":[810,810,810,810,810,810,810,810,810,810,810,810,810,810,810,810,810,810,810,810,810,810,810,810,810,810,810,810,810,807,792,754,743,742,742,755,769,779,784,785,785,778,775,774,774,774,774,774,774,773,771,763,755,738,720,695,654,637,620,599,575,567,559,552,547,543,541,541,541,540,540,532,527,522],"ymouse":[546,546,546,546,546,546,546,546,546,546,546,546,546,546,546,546,546,546,546,546,546,546,546,546,546,546,546,546,546,552,571,605,612,613,613,603,589,578,574,574,574,576,578,579,579,579,579,579,579,579,576,544,515,467,410,353,286,266,245,220,183,165,146,130,118,110,108,108,108,105,103,89,83,77],"timestamp_mouse":[9,27,41,60,81,100,120,140,161,181,200,221,241,260,281,299,321,341,360,380,401,421,441,461,480,501,521,541,560,581,600,619,640,661,681,701,719,740,760,781,800,820,840,861,881,900,921,939,961,980,1000,1020,1041,1060,1080,1100,1120,1140,1170,1180,1201,1219,1240,1260,1280,1301,1320,1341,1360,1381,1400,1420,1440,1461],"xSR":741.5,"ySR":469.95,"xT1":424.9,"yT1":0,"xT2":1058.1,"yT2":0,"toosoon":0,"cond_shown":"randomdotsizeEA","ratio_trial":250,"smaller_num":"2","larger_num":"8","correct_side":1,"subjID":"anasofiavanegas2","gender":"1","age":"9","school":"4"},{"start_time":1552328465611,"click_time":1552328467140,"finger_time":1552328466379,"fix_duration":1250.5313347295419,"trial":41,"RT":768,"MT":761,"sideResp":2,"stimulus":"img/900/equaldotanddens/L/10_Ratio_900_L_20_R_18.png","xmouse":[797,797,797,797,797,797,797,797,797,797,797,797,797,797,797,797,797,797,797,797,796,796,796,796,796,796,796,796,796,797,800,804,809,812,814,818,821,838,850,864,878,894,945,1009,1119,1174,1203,1239,1252,1259,1264,1264,1263,1261,1260,1260,1260,1260,1260,1260,1257,1254,1245,1242,1235,1229,1221,1207,1201,1198,1197,1197,1194,1188,1177,1160,1144],"ymouse":[554,554,554,554,554,554,554,554,554,554,554,554,554,554,554,554,554,554,554,554,554,554,554,554,554,554,554,554,554,553,548,542,529,522,516,510,505,492,486,480,474,466,438,410,360,332,314,281,257,233,211,196,181,177,176,176,176,176,173,171,163,154,125,108,88,68,48,17,9,3,2,2,2,2,7,15,21],"timestamp_mouse":[11,28,48,68,89,107,128,149,168,189,208,228,248,269,289,308,329,348,369,387,408,429,449,468,489,509,529,548,569,589,608,628,647,668,688,708,728,747,768,787,808,828,849,869,888,909,928,948,968,988,1008,1029,1049,1069,1088,1108,1129,1149,1168,1188,1207,1229,1248,1269,1288,1308,1328,1349,1368,1389,1408,1429,1449,1469,1488,1507,1528],"xSR":741.5,"ySR":469.95,"xT1":424.9,"yT1":0,"xT2":1058.1,"yT2":0,"toosoon":0,"cond_shown":"equaldotanddens","ratio_trial":900,"smaller_num":"18","larger_num":"20","correct_side":1,"subjID":"anasofiavanegas2","gender":"1","age":"9","school":"4"},{"start_time":1552328472059,"click_time":1552328473579,"finger_time":1552328472740,"fix_duration":1397.9912179666385,"trial":42,"RT":681,"MT":839,"sideResp":2,"stimulus":"img/500/equaldotsize/R/3_Ratio_500_L_10_R_20.png","xmouse":[754,754,754,754,754,754,754,754,754,754,754,754,754,754,754,754,754,754,754,754,754,754,754,754,754,754,754,754,754,754,754,754,754,766,796,839,974,1131,1199,1409,1409,1409,1409,1409,1409,1409,1409,1409,1409,1409,1409,1409,1409,1409,1300,1287,1253,1251,1250,1250,1250,1250,1250,1249,1248,1245,1245,1245,1245,1245,1244,1237,1228,1213,1193,1168,1105],"ymouse":[508,508,508,508,508,508,508,508,508,508,508,508,508,508,508,508,508,508,508,508,508,508,508,508,508,508,508,508,508,508,508,508,508,493,459,419,319,207,162,28,28,28,28,28,28,28,28,28,28,28,28,28,28,28,6,11,17,17,17,17,17,17,17,17,18,20,20,20,20,20,20,23,27,33,41,48,58],"timestamp_mouse":[9,28,41,61,80,99,120,140,161,180,201,220,240,260,280,300,320,340,361,380,401,420,440,461,481,500,521,539,561,580,601,619,640,660,681,701,720,740,760,780,800,821,840,861,880,901,921,941,960,980,1000,1020,1040,1060,1080,1101,1120,1140,1161,1181,1201,1221,1241,1261,1280,1301,1321,1341,1360,1379,1399,1420,1440,1460,1480,1500,1520],"xSR":741.5,"ySR":469.95,"xT1":424.9,"yT1":0,"xT2":1058.1,"yT2":0,"toosoon":0,"cond_shown":"equaldotsize","ratio_trial":500,"smaller_num":"10","larger_num":"20","correct_side":2,"subjID":"anasofiavanegas2","gender":"1","age":"9","school":"4"},{"start_time":1552328475251,"click_time":1552328476299,"finger_time":1552328475759,"fix_duration":710.7190955587765,"trial":43,"RT":508,"MT":540,"sideResp":2,"stimulus":"img/500/randomdotsizeEA/R/9_Ratio_500_L_2_R_4.png","xmouse":[785,785,785,785,785,785,785,785,785,785,785,786,788,791,792,795,800,805,807,811,815,823,828,832,835,843,859,888,902,916,932,986,1031,1084,1138,1188,1268,1312,1332,1345,1350,1353,1353,1353,1353,1353,1342,1309,1281,1255,1229,1170,1146],"ymouse":[526,526,526,526,526,526,526,526,526,526,526,526,526,526,526,526,526,526,526,526,526,526,526,526,525,523,518,509,505,497,485,415,361,318,285,256,191,126,87,62,49,39,37,36,36,35,35,35,35,35,34,26,22],"timestamp_mouse":[17,28,48,68,88,108,129,148,169,189,208,229,248,268,288,309,328,349,368,389,408,428,448,468,488,508,528,549,567,589,608,629,647,668,688,708,729,749,768,789,808,828,848,868,888,908,928,947,968,989,1008,1029,1047],"xSR":741.5,"ySR":469.95,"xT1":424.9,"yT1":0,"xT2":1058.1,"yT2":0,"toosoon":0,"cond_shown":"randomdotsizeEA","ratio_trial":500,"smaller_num":"2","larger_num":"4","correct_side":2,"subjID":"anasofiavanegas2","gender":"1","age":"9","school":"4"},{"start_time":1552328482114,"click_time":1552328483839,"finger_time":1552328482839,"fix_duration":993.8090162209436,"trial":44,"RT":725,"MT":1000,"sideResp":1,"stimulus":"img/500/equaldotanddens/L/5_Ratio_500_L_4_R_2.png","xmouse":[777,777,777,777,777,777,777,777,777,777,777,777,777,777,777,777,777,777,777,777,777,777,777,777,777,777,777,777,777,777,777,778,781,790,820,833,842,849,852,855,855,856,856,857,866,875,885,895,907,938,941,949,951,951,947,944,935,918,891,808,764,712,684,659,632,627,622,617,613,597,596,595,597,600,602,604,604,600,592,580,571,563,555,545,531,525,520],"ymouse":[536,536,536,536,536,536,536,536,536,536,536,536,536,536,536,536,536,536,536,536,536,536,536,536,536,536,536,536,536,536,536,536,532,522,493,479,460,442,421,380,372,368,367,366,356,347,338,330,321,295,291,276,265,257,243,241,240,239,239,243,248,252,252,252,244,237,226,213,205,157,151,140,137,132,128,116,108,98,88,79,74,73,72,72,72,72,72],"timestamp_mouse":[10,27,45,66,86,106,125,146,166,185,205,225,244,266,285,306,324,345,366,385,404,426,446,465,486,504,526,546,566,586,606,624,644,665,684,704,725,744,766,785,805,825,845,865,884,905,925,945,965,985,1005,1024,1045,1065,1085,1105,1125,1144,1165,1185,1204,1224,1246,1265,1285,1304,1326,1345,1364,1386,1406,1425,1446,1465,1484,1504,1524,1544,1566,1585,1604,1625,1644,1664,1685,1704,1725],"xSR":741.5,"ySR":469.95,"xT1":424.9,"yT1":0,"xT2":1058.1,"yT2":0,"toosoon":0,"cond_shown":"equaldotanddens","ratio_trial":500,"smaller_num":"2","larger_num":"4","correct_side":1,"subjID":"anasofiavanegas2","gender":"1","age":"9","school":"4"},{"start_time":1552328485677,"click_time":1552328486779,"finger_time":1552328486379,"fix_duration":577.3809391104077,"trial":45,"RT":702,"MT":400,"sideResp":2,"stimulus":"img/250/equaldotanddens/R/8_Ratio_250_L_1_R_4.png","xmouse":[817,817,817,816,813,810,808,806,806,806,806,806,806,806,806,806,806,806,806,806,806,806,806,806,806,806,806,806,806,806,806,806,807,813,819,828,854,875,900,929,955,1011,1028,1042,1054,1064,1072,1072,1073,1075,1076,1079,1079,1079,1079,1079],"ymouse":[533,533,533,533,533,533,533,533,533,533,533,533,533,533,533,533,533,533,533,533,533,533,533,533,533,533,533,533,533,533,533,533,522,504,481,456,405,379,352,326,306,266,252,240,225,210,198,197,196,193,189,161,149,134,118,98],"timestamp_mouse":[9,22,41,61,83,102,121,142,163,183,203,222,242,262,283,301,323,342,363,381,403,422,443,463,482,503,522,542,561,582,601,622,643,661,682,702,723,741,763,782,802,822,842,861,881,901,923,941,963,982,1001,1022,1041,1062,1081,1102],"xSR":741.5,"ySR":469.95,"xT1":424.9,"yT1":0,"xT2":1058.1,"yT2":0,"toosoon":0,"cond_shown":"equaldotanddens","ratio_trial":250,"smaller_num":"1","larger_num":"4","correct_side":2,"subjID":"anasofiavanegas2","gender":"1","age":"9","school":"4"},{"start_time":1552328489199,"click_time":1552328491098,"finger_time":1552328490280,"fix_duration":1419.6551842900737,"trial":46,"RT":1081,"MT":818,"sideResp":2,"stimulus":"img/500/randomdotsizeEA/R/15_Ratio_500_L_1_R_2.png","xmouse":[769,769,769,769,769,770,773,775,776,777,777,777,777,777,777,777,777,777,777,777,777,777,777,777,777,777,777,777,777,777,777,777,777,777,777,777,777,777,777,777,777,777,777,777,777,777,777,777,780,782,789,812,825,839,855,865,884,896,910,924,934,949,954,957,958,959,961,965,967,972,975,984,994,1005,1023,1048,1136,1193,1242,1298,1298,1298,1298,1298,1298,1298,1298,1298,1298,1298,1298,1298,1298,1298,1298,1108],"ymouse":[522,522,522,522,522,522,519,518,517,517,517,517,517,517,517,516,516,516,516,516,516,516,516,516,516,516,516,516,516,516,516,516,516,516,516,516,516,516,516,516,516,516,516,516,516,516,516,516,516,515,512,501,496,492,484,475,457,448,437,428,418,371,345,308,288,270,243,233,228,221,216,205,195,187,174,159,108,82,51,8,8,8,8,8,8,8,8,8,8,8,8,8,8,8,8,2],"timestamp_mouse":[10,29,40,60,80,99,119,140,161,181,200,221,241,261,279,301,319,341,359,381,400,420,440,460,480,500,520,541,560,581,600,619,640,661,681,700,721,741,760,781,801,820,841,861,880,900,920,940,960,980,1000,1020,1041,1060,1081,1100,1120,1139,1159,1180,1199,1219,1239,1260,1280,1300,1319,1340,1360,1380,1399,1419,1441,1461,1480,1500,1519,1540,1560,1580,1601,1621,1640,1660,1680,1699,1720,1740,1760,1779,1801,1820,1839,1860,1880,1899],"xSR":741.5,"ySR":469.95,"xT1":424.9,"yT1":0,"xT2":1058.1,"yT2":0,"toosoon":0,"cond_shown":"randomdotsizeEA","ratio_trial":500,"smaller_num":"1","larger_num":"2","correct_side":2,"subjID":"anasofiavanegas2","gender":"1","age":"9","school":"4"},{"start_time":1552328494175,"click_time":1552328496838,"finger_time":1552328495799,"fix_duration":1355.6670189960378,"trial":47,"RT":1624,"MT":1039,"sideResp":1,"stimulus":"img/250/equaldotsize/L/3_Ratio_250_L_8_R_2.png","xmouse":[762,762,762,762,762,762,762,762,762,762,762,762,762,762,762,762,762,762,762,762,762,762,762,762,762,762,762,762,762,762,762,762,761,761,761,761,761,761,761,761,761,761,761,761,761,761,761,761,761,761,761,761,761,761,761,761,761,761,761,761,761,761,761,761,761,761,761,761,761,761,761,761,761,761,761,761,761,761,762,762,762,762,762,762,762,762,762,762,762,762,762,762,755,746,735,725,712,700,672,657,640,612,600,588,588,588,588,588,588,588,587,587,582,572,568,563,558,555,551,551,551,551,551,551,550,548,547,543,541,539,537,533,530,523],"ymouse":[507,507,507,507,507,507,507,507,507,507,507,507,507,507,507,507,507,507,507,507,507,507,507,507,507,507,507,507,507,507,508,509,514,518,518,518,518,518,518,518,518,518,518,518,518,519,519,519,519,519,519,519,519,519,519,519,519,519,519,519,519,519,519,519,519,519,519,519,519,519,519,519,519,519,519,519,519,519,519,500,472,444,423,401,401,401,401,401,401,401,398,395,369,354,336,320,302,282,222,185,147,95,79,70,70,70,70,70,70,70,70,70,70,70,70,70,70,70,70,70,70,70,70,70,70,70,69,69,69,69,69,69,69,69],"timestamp_mouse":[17,25,43,63,84,104,123,143,165,183,203,223,244,263,285,303,324,344,365,385,405,425,443,465,484,504,525,544,564,584,603,623,643,665,684,704,725,745,765,785,805,824,845,865,884,904,925,944,964,984,1005,1024,1043,1065,1085,1105,1123,1145,1165,1184,1204,1224,1244,1265,1285,1303,1325,1345,1365,1384,1405,1424,1444,1464,1484,1504,1523,1544,1563,1584,1603,1624,1644,1663,1684,1705,1725,1745,1764,1784,1804,1825,1845,1864,1884,1904,1924,1945,1964,1984,2005,2024,2045,2064,2084,2103,2124,2145,2164,2184,2203,2223,2243,2263,2284,2305,2324,2344,2365,2384,2404,2425,2443,2464,2483,2504,2523,2545,2564,2584,2605,2624,2645,2663],"xSR":741.5,"ySR":469.95,"xT1":424.9,"yT1":0,"xT2":1058.1,"yT2":0,"toosoon":0,"cond_shown":"equaldotsize","ratio_trial":250,"smaller_num":"2","larger_num":"8","correct_side":1,"subjID":"anasofiavanegas2","gender":"1","age":"9","school":"4"},{"start_time":1552328498312,"click_time":1552328499539,"finger_time":1552328499039,"fix_duration":590.0245506676368,"trial":48,"RT":727,"MT":500,"sideResp":1,"stimulus":"img/900/randomdotsizeEA/R/9_Ratio_900_L_18_R_20.png","xmouse":[804,804,804,804,804,804,804,804,804,804,804,804,804,804,804,804,804,804,804,804,804,804,804,804,804,804,804,804,804,804,804,804,804,803,797,793,785,781,777,772,763,736,719,702,675,657,628,615,606,598,590,576,571,566,563,559,551,546,544,539,527,493],"ymouse":[549,549,549,549,549,549,549,549,549,549,549,549,549,549,549,549,549,549,549,549,549,549,549,549,549,549,549,549,549,549,549,549,542,533,507,491,466,452,435,416,394,337,303,268,216,180,123,103,87,73,61,43,38,33,31,30,28,28,28,28,32,54],"timestamp_mouse":[11,36,47,68,87,106,128,148,168,187,207,227,248,266,287,308,327,348,368,386,406,428,448,467,488,508,528,547,568,587,608,626,647,667,687,707,727,747,768,787,808,827,846,867,888,907,927,947,966,987,1007,1026,1047,1068,1087,1108,1126,1147,1166,1187,1207,1227],"xSR":741.5,"ySR":469.95,"xT1":424.9,"yT1":0,"xT2":1058.1,"yT2":0,"toosoon":0,"cond_shown":"randomdotsizeEA","ratio_trial":900,"smaller_num":"18","larger_num":"20","correct_side":2,"subjID":"anasofiavanegas2","gender":"1","age":"9","school":"4"},{"start_time":1552328501110,"click_time":1552328502480,"finger_time":1552328502058,"fix_duration":250,"trial":49,"RT":948,"MT":422,"sideResp":2,"stimulus":"img/750/equaldotsize/R/7_Ratio_750_L_3_R_4.png","xmouse":[804,805,804,802,802,802,802,802,802,802,802,802,802,802,802,802,802,802,802,802,802,802,802,802,802,802,802,802,802,802,802,802,802,802,802,802,802,802,802,802,802,802,802,802,802,805,837,874,917,956,986,1012,1039,1043,1043,1043,1043,1043,1043,1044,1050,1052,1061,1064,1066,1067,1072,1073,1079],"ymouse":[512,512,514,515,515,515,515,515,515,515,515,515,515,515,515,515,515,515,515,515,515,515,515,515,515,515,515,515,515,515,515,515,515,515,515,515,515,515,515,515,515,515,515,515,513,510,472,429,373,311,258,215,181,177,177,177,177,177,177,176,172,170,156,146,141,134,118,108,89],"timestamp_mouse":[8,39,49,69,90,110,128,149,169,190,208,228,249,270,288,309,329,350,368,390,408,430,450,469,489,509,529,550,569,590,610,628,649,668,689,710,730,748,770,789,809,829,849,870,889,909,928,948,969,988,1010,1029,1050,1069,1088,1110,1129,1149,1169,1189,1210,1229,1249,1269,1289,1309,1330,1348,1370],"xSR":741.5,"ySR":469.95,"xT1":424.9,"yT1":0,"xT2":1058.1,"yT2":0,"toosoon":0,"cond_shown":"equaldotsize","ratio_trial":750,"smaller_num":"3","larger_num":"4","correct_side":2,"subjID":"anasofiavanegas2","gender":"1","age":"9","school":"4"},{"start_time":1552328505027,"click_time":1552328506419,"finger_time":1552328505739,"fix_duration":1466.619643168586,"trial":50,"RT":712,"MT":680,"sideResp":1,"stimulus":"img/500/equaldotsize/L/4_Ratio_500_L_18_R_9.png","xmouse":[751,751,751,751,751,751,751,751,751,751,751,751,751,751,751,751,751,751,751,751,751,751,754,755,756,756,756,756,756,761,774,785,799,812,829,849,875,882,889,891,896,910,912,912,912,912,911,900,880,850,812,782,762,722,651,607,579,577,577,577,577,577,577,576,572,567,547,534,527,521],"ymouse":[532,532,532,532,532,532,532,532,532,532,532,532,532,532,532,532,532,532,532,532,532,532,532,531,531,531,531,531,531,529,521,515,509,502,494,483,467,461,456,452,442,406,394,388,388,387,386,379,366,352,336,296,258,203,113,75,48,47,47,47,47,47,46,46,46,46,52,57,59,60],"timestamp_mouse":[12,32,52,71,92,112,132,153,173,192,211,232,252,273,292,313,332,352,373,392,412,431,451,471,493,512,532,553,571,591,613,631,652,672,693,712,732,752,772,792,812,831,852,871,893,912,931,952,971,992,1012,1031,1052,1071,1092,1112,1132,1152,1171,1192,1212,1231,1252,1271,1292,1312,1331,1352,1373,1392],"xSR":741.5,"ySR":469.95,"xT1":424.9,"yT1":0,"xT2":1058.1,"yT2":0,"toosoon":0,"cond_shown":"equaldotsize","ratio_trial":500,"smaller_num":"9","larger_num":"18","correct_side":1,"subjID":"anasofiavanegas2","gender":"1","age":"9","school":"4"},{"start_time":1552328511728,"click_time":1552328513199,"finger_time":1552328512498,"fix_duration":808.3388388391413,"trial":51,"RT":770,"MT":701,"sideResp":1,"stimulus":"img/750/randomdotsizeEA/L/1_Ratio_750_L_20_R_15.png","xmouse":[769,769,769,769,769,769,769,769,769,769,769,769,769,769,767,765,765,765,765,765,764,764,764,764,764,764,764,764,764,764,764,764,764,764,764,765,767,767,767,767,766,765,764,764,763,760,755,731,719,707,694,661,646,638,634,632,628,605,590,575,569,567,568,571,572,572,568,568,567,565,560,537,527,516],"ymouse":[503,503,503,503,503,503,503,503,503,503,503,503,503,503,506,510,519,522,525,526,528,528,528,528,528,528,528,528,528,528,528,528,528,528,528,527,512,478,464,451,440,436,435,434,432,427,419,391,378,365,352,322,313,309,305,303,296,267,252,238,228,214,206,193,183,170,148,146,143,138,127,97,87,80],"timestamp_mouse":[12,31,50,70,90,110,130,150,170,190,210,230,252,272,291,312,331,351,372,392,412,431,451,472,492,510,531,550,570,591,612,632,652,671,690,711,730,751,770,792,811,832,851,870,891,911,931,951,971,992,1011,1032,1050,1070,1091,1112,1131,1151,1171,1192,1211,1231,1250,1271,1291,1310,1332,1351,1370,1392,1410,1432,1451,1471],"xSR":741.5,"ySR":469.95,"xT1":424.9,"yT1":0,"xT2":1058.1,"yT2":0,"toosoon":0,"cond_shown":"randomdotsizeEA","ratio_trial":750,"smaller_num":"15","larger_num":"20","correct_side":1,"subjID":"anasofiavanegas2","gender":"1","age":"9","school":"4"},{"start_time":1552328515158,"click_time":1552328516519,"finger_time":1552328515898,"fix_duration":897.3287194609932,"trial":52,"RT":740,"MT":621,"sideResp":1,"stimulus":"img/250/equaldotanddens/L/3_Ratio_250_L_8_R_2.png","xmouse":[819,819,819,819,819,819,819,819,819,819,819,819,819,819,819,819,819,819,819,819,819,819,819,819,819,819,819,819,819,819,819,819,819,819,819,813,778,749,702,660,615,574,562,550,535,526,521,521,521,521,522,527,529,529,528,522,512,510,510,510,510,510,509,509,509,509,503,496,492],"ymouse":[550,552,552,552,552,552,552,552,552,552,552,552,552,552,552,552,552,552,552,552,552,552,552,552,552,552,552,552,548,546,545,545,544,544,542,534,494,466,428,388,351,308,287,267,240,225,212,211,211,210,206,192,177,171,157,145,129,126,124,124,124,124,123,123,123,123,112,101,93],"timestamp_mouse":[11,33,40,61,81,101,121,142,161,182,200,220,241,260,282,300,321,340,361,382,401,422,441,462,482,502,521,541,561,582,600,621,641,660,681,701,720,740,762,781,800,821,841,860,881,900,921,941,961,981,1002,1021,1042,1061,1080,1101,1121,1141,1161,1180,1201,1221,1241,1262,1282,1300,1320,1341,1361],"xSR":741.5,"ySR":469.95,"xT1":424.9,"yT1":0,"xT2":1058.1,"yT2":0,"toosoon":0,"cond_shown":"equaldotanddens","ratio_trial":250,"smaller_num":"2","larger_num":"8","correct_side":1,"subjID":"anasofiavanegas2","gender":"1","age":"9","school":"4"},{"start_time":1552328517650,"click_time":1552328519338,"finger_time":1552328518479,"fix_duration":250,"trial":53,"RT":829,"MT":859,"sideResp":1,"stimulus":"img/900/randomdotsizeEA/L/10_Ratio_900_L_20_R_18.png","xmouse":[787,787,787,787,787,787,787,787,788,788,788,788,788,788,788,788,788,788,788,788,788,788,788,788,788,788,785,784,784,784,784,784,784,784,784,784,784,784,784,784,785,786,783,772,761,751,735,728,723,720,716,690,662,625,577,527,477,465,463,463,463,463,463,465,467,473,484,490,494,497,499,500,500,500,500,500,506,510,515,518,523,525,525,525,524],"ymouse":[510,510,510,510,510,510,510,510,509,509,509,509,509,509,509,509,509,509,509,509,509,509,509,509,509,507,498,497,497,497,497,497,497,497,497,497,497,497,497,495,489,466,451,433,420,412,401,397,393,390,386,362,342,311,271,233,194,184,183,183,183,183,183,183,183,183,181,180,177,171,164,155,153,151,147,142,132,127,121,117,111,101,96,91,89],"timestamp_mouse":[11,30,49,70,90,109,128,149,170,190,208,228,249,269,290,309,330,348,369,390,409,429,449,468,488,509,529,549,570,590,609,630,648,669,690,709,730,750,768,790,809,829,849,869,889,910,929,950,968,989,1008,1029,1049,1070,1089,1109,1129,1148,1169,1189,1210,1229,1250,1269,1288,1310,1329,1348,1368,1389,1409,1428,1448,1469,1489,1509,1529,1548,1568,1590,1609,1628,1648,1669,1688],"xSR":741.5,"ySR":469.95,"xT1":424.9,"yT1":0,"xT2":1058.1,"yT2":0,"toosoon":0,"cond_shown":"randomdotsizeEA","ratio_trial":900,"smaller_num":"18","larger_num":"20","correct_side":1,"subjID":"anasofiavanegas2","gender":"1","age":"9","school":"4"},{"start_time":1552328520751,"click_time":1552328521898,"finger_time":1552328521379,"fix_duration":469.2856845630501,"trial":54,"RT":628,"MT":519,"sideResp":2,"stimulus":"img/900/equaldotanddens/R/3_Ratio_900_L_9_R_10.png","xmouse":[766,766,766,766,766,766,766,766,766,766,766,766,766,766,766,766,766,766,766,766,766,766,766,766,766,766,766,766,766,769,774,859,912,971,1027,1074,1143,1166,1182,1198,1209,1235,1246,1254,1263,1263,1259,1259,1259,1259,1259,1259,1259,1259,1259,1259,1259,1150],"ymouse":[517,517,517,517,517,517,517,517,517,517,517,517,517,517,517,517,517,517,517,517,517,517,517,517,517,517,517,517,517,517,517,484,464,438,408,374,324,308,297,286,276,246,221,176,108,51,9,9,9,9,9,9,9,9,9,9,9,10],"timestamp_mouse":[10,28,48,67,88,107,128,149,168,188,209,228,248,267,289,309,328,347,368,388,409,427,447,468,489,509,529,547,569,587,608,628,647,667,688,708,729,747,768,788,808,829,847,868,888,908,928,948,969,988,1007,1029,1048,1068,1089,1108,1129,1147],"xSR":741.5,"ySR":469.95,"xT1":424.9,"yT1":0,"xT2":1058.1,"yT2":0,"toosoon":0,"cond_shown":"equaldotanddens","ratio_trial":900,"smaller_num":"9","larger_num":"10","correct_side":2,"subjID":"anasofiavanegas2","gender":"1","age":"9","school":"4"},{"start_time":1552328525355,"click_time":1552328526559,"finger_time":1552328525399,"fix_duration":635.5833899076124,"trial":55,"RT":44,"MT":1160,"sideResp":2,"stimulus":"img/250/equaldotanddens/R/6_Ratio_250_L_6_R_24.png","xmouse":[746,746,739,736,733,732,730,729,729,729,729,729,729,729,729,729,729,731,733,734,734,734,734,734,734,734,734,734,734,734,734,734,734,735,736,741,751,788,840,863,939,990,1031,1033,1034,1036,1037,1049,1053,1069,1078,1084,1091,1092,1093,1095,1096,1099,1099,1097,1084],"ymouse":[519,519,519,521,524,527,529,534,534,534,534,534,534,534,534,534,534,534,534,534,534,534,534,534,534,534,534,534,534,534,534,534,534,534,534,533,532,520,497,487,435,395,319,300,291,285,279,258,252,225,207,192,179,177,175,172,169,152,148,123,93],"timestamp_mouse":[11,24,44,63,84,104,124,144,164,184,203,225,245,264,284,304,324,344,365,385,405,424,443,464,484,504,524,543,564,585,605,624,644,663,685,704,723,743,765,784,805,824,844,864,885,904,925,944,964,983,1004,1024,1044,1064,1084,1104,1125,1144,1164,1183,1204],"xSR":741.5,"ySR":469.95,"xT1":424.9,"yT1":0,"xT2":1058.1,"yT2":0,"toosoon":0,"cond_shown":"equaldotanddens","ratio_trial":250,"smaller_num":"6","larger_num":"24","correct_side":2,"subjID":"anasofiavanegas2","gender":"1","age":"9","school":"4"},{"start_time":1552328531584,"click_time":1552328533679,"finger_time":1552328532598,"fix_duration":1444.6013575307666,"trial":56,"RT":1014,"MT":1081,"sideResp":1,"stimulus":"img/900/randomdotsizeEA/L/8_Ratio_900_L_20_R_18.png","xmouse":[780,780,780,780,780,780,780,780,780,780,780,780,780,781,782,782,782,782,782,782,782,782,782,782,782,782,782,782,782,782,782,782,782,782,782,782,782,782,782,782,781,781,781,781,781,782,784,788,789,792,795,804,807,811,815,827,832,838,849,862,872,887,891,893,894,894,894,894,894,894,894,894,894,894,895,895,896,897,898,898,898,898,890,872,842,822,785,769,751,731,707,659,641,624,619,604,593,580,569,560,553,542,539,530,524],"ymouse":[535,535,535,535,535,535,535,535,535,535,535,535,532,531,529,529,529,529,529,529,529,529,529,529,529,529,529,529,529,529,529,529,529,529,529,529,529,529,529,529,527,525,525,524,522,517,505,494,487,478,468,431,407,379,322,222,199,174,136,104,78,44,32,28,27,27,27,27,27,27,27,27,27,27,27,27,27,27,27,27,27,27,27,27,27,27,27,27,27,30,33,44,49,53,54,56,58,59,63,65,68,71,71,73,73],"timestamp_mouse":[15,35,55,76,95,116,136,155,174,194,216,234,256,276,294,315,335,355,375,396,415,435,454,474,496,516,535,556,575,596,615,636,655,674,696,716,735,755,775,796,815,835,854,874,896,915,934,954,976,995,1014,1035,1054,1074,1096,1117,1135,1154,1175,1195,1216,1235,1254,1275,1295,1315,1335,1355,1375,1395,1414,1435,1454,1476,1494,1516,1535,1556,1575,1596,1616,1634,1655,1676,1695,1715,1735,1755,1775,1794,1815,1834,1855,1875,1895,1916,1934,1956,1975,1995,2015,2034,2055,2074,2095],"xSR":741.5,"ySR":469.95,"xT1":424.9,"yT1":0,"xT2":1058.1,"yT2":0,"toosoon":0,"cond_shown":"randomdotsizeEA","ratio_trial":900,"smaller_num":"18","larger_num":"20","correct_side":1,"subjID":"anasofiavanegas2","gender":"1","age":"9","school":"4"},{"start_time":1552328537552,"click_time":1552328538939,"finger_time":1552328538579,"fix_duration":972.9478738642186,"trial":57,"RT":1027,"MT":360,"sideResp":1,"stimulus":"img/750/equaldotanddens/L/13_Ratio_750_L_8_R_6.png","xmouse":[796,796,796,796,796,796,796,796,796,796,796,796,796,796,796,796,796,796,796,796,796,796,796,796,796,796,796,796,796,796,796,796,796,796,796,796,796,796,796,796,796,796,796,796,796,796,796,795,794,772,749,731,719,687,671,645,620,602,590,589,588,584,573,537,527,523,523,523,522,511],"ymouse":[539,539,539,539,539,539,539,539,539,539,539,539,539,539,539,539,539,539,539,539,539,539,539,539,539,539,539,539,539,539,539,539,539,539,539,539,539,539,539,539,539,539,539,539,539,539,539,539,539,502,471,446,426,360,327,282,246,221,203,201,195,181,160,114,107,105,105,105,102,79],"timestamp_mouse":[11,27,47,67,88,107,127,148,167,188,208,228,247,268,288,307,327,348,367,387,408,427,446,466,488,507,528,547,566,586,608,628,646,666,686,707,728,748,767,787,807,828,846,867,888,907,926,946,967,986,1006,1027,1047,1068,1087,1106,1127,1147,1168,1186,1206,1227,1248,1267,1286,1306,1326,1347,1367,1387],"xSR":741.5,"ySR":469.95,"xT1":424.9,"yT1":0,"xT2":1058.1,"yT2":0,"toosoon":0,"cond_shown":"equaldotanddens","ratio_trial":750,"smaller_num":"6","larger_num":"8","correct_side":1,"subjID":"anasofiavanegas2","gender":"1","age":"9","school":"4"},{"start_time":1552328540847,"click_time":1552328542019,"finger_time":1552328541638,"fix_duration":467.7392274450034,"trial":58,"RT":791,"MT":381,"sideResp":1,"stimulus":"img/900/randomdotsizeEA/L/4_Ratio_900_L_20_R_18.png","xmouse":[795,794,794,794,794,794,794,794,794,794,794,794,794,794,794,794,794,794,794,794,794,794,794,794,794,794,794,794,794,794,794,794,794,794,794,794,794,794,791,765,744,720,696,671,635,613,605,576,558,540,538,538,538,536,536,535,535,534,521],"ymouse":[532,531,531,531,531,531,531,531,531,531,531,531,531,531,531,531,531,531,531,531,531,531,531,531,531,531,531,531,531,531,531,531,531,531,531,531,531,530,524,464,422,380,344,309,254,217,202,167,146,130,128,127,127,124,122,121,119,114,85],"timestamp_mouse":[14,31,52,71,91,112,131,152,172,191,212,232,252,272,291,311,330,350,372,391,412,430,451,472,492,512,531,551,571,591,611,631,651,672,691,710,731,751,770,791,811,830,850,871,891,912,931,952,971,992,1011,1032,1051,1073,1090,1111,1131,1151,1172],"xSR":741.5,"ySR":469.95,"xT1":424.9,"yT1":0,"xT2":1058.1,"yT2":0,"toosoon":0,"cond_shown":"randomdotsizeEA","ratio_trial":900,"smaller_num":"18","larger_num":"20","correct_side":1,"subjID":"anasofiavanegas2","gender":"1","age":"9","school":"4"},{"start_time":1552328545289,"click_time":1552328547398,"finger_time":1552328546218,"fix_duration":527.6750290809744,"trial":59,"RT":929,"MT":1180,"sideResp":2,"stimulus":"img/500/randomdotsizeEA/R/14_Ratio_500_L_5_R_10.png","xmouse":[776,776,776,773,771,770,770,769,769,769,769,769,768,768,768,768,768,768,768,768,768,768,768,768,768,768,768,768,768,768,768,768,768,767,767,767,766,766,766,766,766,766,766,766,766,766,766,766,771,779,788,801,811,836,844,852,856,863,877,879,882,884,886,887,888,890,893,896,907,913,920,929,952,956,961,962,967,972,974,975,977,978,982,986,989,993,999,1006,1021,1024,1032,1038,1060,1067,1075,1081,1087,1098,1102,1106,1108,1111,1116,1117,1117,1117],"ymouse":[513,513,511,503,500,499,498,497,497,496,495,494,493,493,493,493,493,492,490,490,490,489,487,486,486,485,484,483,483,483,482,482,482,480,479,479,479,479,479,478,478,478,478,478,478,474,468,453,437,409,369,327,298,250,236,228,222,217,206,204,202,201,201,201,200,199,199,197,194,192,187,181,166,164,160,159,155,150,148,148,146,146,143,142,142,142,142,142,142,142,141,141,138,138,135,133,131,126,125,123,120,118,110,105,100,97],"timestamp_mouse":[10,30,49,70,89,110,130,149,170,190,209,229,250,269,290,308,329,349,370,389,409,430,449,469,488,509,529,549,569,589,609,630,649,669,689,710,729,749,768,788,810,829,849,868,888,910,929,949,969,989,1009,1029,1048,1069,1088,1109,1129,1149,1169,1189,1209,1229,1249,1270,1289,1308,1329,1349,1369,1390,1409,1430,1449,1468,1489,1509,1529,1550,1568,1590,1609,1629,1649,1669,1689,1709,1729,1749,1771,1789,1809,1829,1850,1869,1889,1909,1929,1949,1969,1989,2009,2029,2050,2069,2089,2109],"xSR":741.5,"ySR":469.95,"xT1":424.9,"yT1":0,"xT2":1058.1,"yT2":0,"toosoon":0,"cond_shown":"randomdotsizeEA","ratio_trial":500,"smaller_num":"5","larger_num":"10","correct_side":2,"subjID":"anasofiavanegas2","gender":"1","age":"9","school":"4"},{"start_time":1552328549309,"click_time":1552328550098,"finger_time":1552328549858,"fix_duration":829.4590840435703,"trial":60,"RT":549,"MT":240,"sideResp":2,"stimulus":"img/750/randomdotsizeEA/R/5_Ratio_750_L_15_R_20.png","xmouse":[768,768,768,768,768,768,768,768,768,768,768,768,768,768,768,768,768,768,768,768,768,768,768,767,768,772,778,794,806,811,824,853,901,925,958,987,1034,1049,1061,1071],"ymouse":[520,520,520,520,520,520,520,520,520,520,520,520,520,520,520,520,520,520,520,520,520,520,520,516,510,504,493,469,447,439,415,367,298,269,231,197,141,121,105,91],"timestamp_mouse":[11,28,49,69,89,109,130,149,169,189,210,230,249,269,288,309,328,350,370,389,410,429,450,469,490,508,529,549,569,589,610,629,649,669,690,709,731,748,769,788],"xSR":741.5,"ySR":469.95,"xT1":424.9,"yT1":0,"xT2":1058.1,"yT2":0,"toosoon":0,"cond_shown":"randomdotsizeEA","ratio_trial":750,"smaller_num":"15","larger_num":"20","correct_side":2,"subjID":"anasofiavanegas2","gender":"1","age":"9","school":"4"},{"start_time":1552328552439,"click_time":1552328553238,"finger_time":1552328553079,"fix_duration":1119.830562237418,"trial":61,"RT":640,"MT":159,"sideResp":2,"stimulus":"img/500/equaldotsize/R/1_Ratio_500_L_9_R_18.png","xmouse":[798,798,798,798,798,798,798,798,798,798,798,798,798,798,798,798,798,798,798,798,798,798,798,797,797,796,796,796,796,796,798,823,848,891,944,991,1062,1080,1090,1094,1096],"ymouse":[554,554,554,554,554,554,554,554,554,554,554,554,554,554,554,554,553,553,553,553,553,553,553,551,548,547,543,539,535,530,524,488,460,411,349,295,199,160,133,110,90],"timestamp_mouse":[1,28,40,60,79,99,120,139,159,179,200,220,239,260,279,299,319,340,360,379,400,420,440,458,480,499,519,539,559,579,599,619,640,659,679,699,719,739,760,779,799],"xSR":741.5,"ySR":469.95,"xT1":424.9,"yT1":0,"xT2":1058.1,"yT2":0,"toosoon":0,"cond_shown":"equaldotsize","ratio_trial":500,"smaller_num":"9","larger_num":"18","correct_side":2,"subjID":"anasofiavanegas2","gender":"1","age":"9","school":"4"},{"start_time":1552328555959,"click_time":1552328557239,"finger_time":1552328556658,"fix_duration":1019.8948881250116,"trial":62,"RT":699,"MT":581,"sideResp":2,"stimulus":"img/250/equaldotanddens/R/8_Ratio_250_L_1_R_4.png","xmouse":[806,806,806,806,806,806,806,806,806,806,806,806,806,806,805,805,805,805,805,805,805,805,805,805,805,805,807,808,811,815,818,827,830,833,836,841,854,864,877,889,919,940,959,974,983,1000,1007,1012,1015,1017,1018,1020,1021,1021,1023,1027,1028,1030,1031,1032,1038,1041,1046,1057,1068],"ymouse":[548,548,548,548,548,548,548,548,548,548,548,548,548,548,547,547,547,547,547,547,547,547,547,547,546,541,537,532,526,519,514,4