[{"start_time":1552327673505,"click_time":1552327680130,"finger_time":1552327673509,"fix_duration":250,"trial":0,"RT":4,"MT":6621,"sideResp":2,"stimulus":[],"xmouse":[681,689,707,717,723,728,729,730,732,735,742,750,760,775,778,778,778,778,778,778,779,779,780,782,782,782,782,783,784,785,786,786,787,788,790,791,791,791,791,791,791,791,791,791,791,791,791,791,791,791,791,791,791,791,791,791,791,791,791,791,791,791,791,791,791,791,791,791,791,789,786,785,785,785,785,785,785,785,783,781,779,776,775,775,775,775,775,775,775,775,775,775,775,775,775,775,775,775,775,775,775,775,775,775,775,775,775,775,775,775,775,775,775,775,775,775,775,775,775,775,775,775,775,775,775,775,775,775,775,775,775,775,777,778,780,781,781,781,781,782,782,782,782,782,782,782,782,781,777,775,774,774,774,774,774,774,774,774,774,774,774,774,774,774,774,774,774,774,774,774,774,774,774,774,774,776,777,777,777,777,777,777,777,777,777,777,777,777,777,777,777,777,777,777,777,777,777,777,777,777,777,777,777,777,777,777,777,777,777,777,777,777,777,777,777,777,777,777,777,777,778,778,778,778,778,778,778,778,778,778,778,778,778,778,778,778,778,778,778,778,778,778,778,778,778,778,778,779,783,785,786,786,786,787,787,787,787,787,787,787,787,787,787,787,787,787,787,787,790,790,782,770,754,739,736,735,735,735,735,735,735,735,735,735,735,735,735,734,736,751,764,780,793,804,831,852,877,905,951,961,964,964,964,960,957,957,957,965,976,976,976,976,976,976,976,976,976,976,976,976,976,976,976,1043,1043,1043,1043,1043,1048,1052,1056,1061],"ymouse":[503,504,506,508,509,509,509,509,510,511,514,517,520,524,524,524,524,524,524,524,524,524,524,524,524,524,524,524,524,524,523,523,523,523,523,523,523,522,522,522,522,522,522,522,522,522,522,522,522,522,522,522,522,522,522,522,522,522,522,522,522,522,522,522,522,522,522,522,522,521,521,521,521,521,521,521,521,521,521,521,521,521,521,521,521,521,521,521,521,521,521,521,521,521,521,521,521,521,521,521,521,521,521,521,521,521,521,521,521,521,521,521,521,521,521,521,521,521,521,521,521,521,521,521,521,521,521,521,521,521,521,521,521,521,521,521,521,521,521,521,521,521,521,521,520,520,520,520,515,514,514,514,514,514,514,514,514,514,514,514,514,514,514,514,514,514,514,514,514,514,515,515,515,515,515,515,515,515,515,515,515,515,515,515,515,515,515,515,515,515,515,515,515,515,515,515,515,515,515,515,515,515,515,515,515,515,515,515,515,515,515,515,515,515,515,515,515,515,515,515,513,511,509,507,507,507,507,507,507,507,507,507,507,507,507,507,507,507,507,507,507,507,507,507,507,507,510,512,523,524,525,526,526,526,527,527,527,528,528,528,528,528,528,528,528,528,528,528,548,565,580,596,608,615,617,617,617,617,617,617,617,617,617,617,617,617,617,616,612,594,582,569,559,551,532,515,491,459,377,337,294,256,222,151,123,95,68,39,12,12,12,12,12,12,12,12,12,12,12,12,12,12,12,0,0,0,0,0,0,0,1,2],"timestamp_mouse":[3,25,46,64,84,104,125,144,164,183,203,224,244,263,285,305,324,344,363,385,405,424,444,465,485,505,524,544,564,584,604,624,645,664,685,705,725,745,764,785,805,824,844,865,885,905,925,943,965,985,1004,1025,1044,1064,1085,1103,1125,1144,1164,1184,1204,1225,1244,1265,1284,1305,1324,1344,1365,1384,1404,1425,1444,1465,1485,1503,1525,1544,1564,1584,1604,1624,1644,1665,1684,1705,1725,1743,1764,1785,1804,1823,1845,1865,1885,1904,1925,1943,1965,1985,2005,2025,2044,2065,2085,2103,2123,2144,2163,2183,2205,2224,2245,2265,2285,2305,2325,2344,2365,2385,2404,2423,2444,2464,2485,2504,2525,2544,2563,2585,2605,2624,2645,2664,2684,2703,2724,2745,2765,2784,2805,2824,2844,2865,2884,2904,2925,2945,2964,2984,3004,3024,3044,3065,3085,3105,3124,3144,3165,3183,3203,3224,3243,3264,3284,3305,3325,3344,3364,3385,3403,3424,3444,3465,3484,3504,3524,3544,3565,3583,3605,3625,3644,3665,3684,3705,3724,3744,3764,3785,3805,3823,3844,3864,3885,3905,3925,3944,3964,3985,4005,4025,4044,4063,4085,4105,4124,4144,4165,4185,4205,4224,4243,4264,4284,4304,4324,4344,4364,4385,4405,4425,4445,4464,4484,4505,4524,4545,4565,4585,4603,4624,4645,4664,4685,4705,4723,4744,4764,4783,4804,4824,4845,4864,4885,4903,4925,4945,4964,4984,5005,5025,5043,5064,5084,5105,5125,5143,5165,5185,5204,5225,5245,5265,5285,5305,5323,5344,5364,5384,5404,5425,5445,5465,5483,5504,5525,5545,5564,5584,5605,5624,5643,5665,5685,5704,5724,5743,5765,5784,5804,5824,5844,5864,5884,5903,5924,5944,5965,5984,6004,6024,6043,6065,6083,6104,6124,6144,6164,6184,6205,6225,6245,6265,6284,6305,6324,6344,6364,6384,6404,6424,6444,6465,6484,6504,6524,6543,6565,6584,6604,6624],"xSR":741.5,"ySR":469.95,"xT1":424.9,"yT1":0,"xT2":1058.1,"yT2":0,"toosoon":0,"cond_shown":"Congruent","ratio_trial":300,"L_num":4,"L_den":5,"R_num":2,"R_den":4,"correct_side":1,"subjID":"anasofiavanegas2","gender":"1","age":"9","school":"4","test":{"fix_dur":[250,1500],"timestim":1000,"targets_dim":[100,100],"targets_relative_coord":[0.3,0.7],"size_stim":[880,420],"start_dim":[100,100],"size_start":[300,300],"size_fix":60,"samplingrate":20,"img_types":["Congruent","Incongruent"],"ratios":[100,200,300],"rep_conds":19,"nTrials":120,"trials_to_rest":500,"Trials_order":[4,46,117,30,8,92,116,57,22,53,80,63,27,14,106,37,59,74,108,29,82,39,54,75,16,72,99,32,33,81,12,68,35,19,1,10,90,9,7,110,97,107,17,13,93,62,66,79,94,51,15,36,84,101,26,109,100,113,24,28,114,71,2,43,44,69,20,25,105,86,119,47,77,58,52,42,41,56,11,76,83,49,95,45,67,87,111,102,0,60,91,115,21,103,3,118,34,73,89,61,38,96,50,18,55,78,31,85,88,70,112,64,23,6,48,40,104,5,65,98],"cond_shown":["Congruent","Congruent","Incongruent","Congruent","Congruent","Congruent","Congruent","Incongruent","Congruent","Incongruent","Congruent","Incongruent","Incongruent","Congruent","Congruent","Incongruent","Incongruent","Congruent","Congruent","Incongruent","Congruent","Incongruent","Congruent","Incongruent","Congruent","Congruent","Incongruent","Congruent","Incongruent","Incongruent","Congruent","Congruent","Incongruent","Incongruent","Incongruent","Congruent","Congruent","Incongruent","Incongruent","Congruent","Incongruent","Incongruent","Incongruent","Incongruent","Incongruent","Congruent","Congruent","Incongruent","Congruent","Incongruent","Incongruent","Congruent","Congruent","Incongruent","Congruent","Incongruent","Congruent","Incongruent","Congruent","Congruent","Congruent","Incongruent","Congruent","Incongruent","Congruent","Incongruent","Congruent","Incongruent","Incongruent","Congruent","Incongruent","Incongruent","Incongruent","Congruent","Congruent","Congruent","Incongruent","Congruent","Incongruent","Congruent","Incongruent","Incongruent","Incongruent","Incongruent","Incongruent","Incongruent","Incongruent","Congruent","Congruent","Congruent","Incongruent","Incongruent","Incongruent","Incongruent","Incongruent","Congruent","Congruent","Incongruent","Incongruent","Incongruent","Congruent","Congruent","Congruent","Congruent","Incongruent","Congruent","Incongruent","Incongruent","Congruent","Congruent","Congruent","Congruent","Incongruent","Congruent","Congruent","Congruent","Congruent","Incongruent","Incongruent","Congruent"],"ratio_trial":[300,300,200,100,200,200,200,200,300,300,200,200,200,200,300,100,300,200,100,300,300,200,100,200,300,100,200,200,200,200,100,200,300,100,100,300,100,200,100,200,100,300,300,100,200,200,100,100,300,200,200,100,100,300,200,100,300,300,100,300,100,300,200,100,200,200,200,100,200,200,300,300,300,300,300,100,300,200,300,300,300,100,300,200,100,200,200,100,100,100,100,100,200,100,200,300,300,100,300,100,200,100,200,100,100,100,100,100,300,300,300,300,300,100,100,300,200,300,300,200],"left_num":[4,1,7,11,3,4,7,7,1,8,3,14,6,3,2,9,8,12,2,4,20,9,2,4,20,7,1,9,9,7,6,6,13,17,2,2,11,3,6,8,1,4,4,17,7,9,11,9,9,7,1,15,8,4,3,8,4,13,6,11,2,8,13,2,3,11,4,12,1,12,4,13,4,1,20,1,4,6,4,7,1,12,2,6,12,3,4,1,7,2,13,9,14,3,4,24,4,11,7,1,3,11,12,2,11,7,6,3,4,9,11,2,4,1,7,20,7,4,4,4],"right_num":[2,6,12,6,14,3,2,6,11,9,14,6,3,14,10,14,9,6,6,2,13,8,11,14,9,9,3,4,8,8,15,11,12,10,6,10,4,1,11,3,8,2,8,10,4,13,6,6,3,14,2,13,2,2,14,1,2,12,15,1,11,14,14,6,11,3,3,2,2,6,2,12,2,7,13,18,2,3,2,20,2,9,6,3,9,1,6,18,9,6,6,14,12,11,1,2,13,9,8,8,7,4,6,6,9,9,7,8,1,3,4,10,6,18,15,13,18,6,8,3],"left_den":[5,5,10,22,10,10,21,15,5,10,6,30,20,10,20,15,10,15,5,20,25,15,5,6,25,14,2,20,15,10,12,20,26,30,4,20,22,10,10,15,2,20,5,30,15,30,22,18,10,10,3,25,16,20,6,20,5,26,12,22,5,10,26,4,10,20,8,30,3,20,20,26,20,20,25,2,20,15,20,14,2,24,4,20,24,10,5,2,14,5,26,15,30,5,30,30,20,22,10,2,10,22,20,5,22,14,10,5,10,10,22,20,5,2,14,25,15,5,5,10],"right_den":[4,12,24,15,28,15,15,9,22,18,20,9,6,28,25,28,18,10,12,4,26,10,22,30,18,15,10,16,10,16,25,22,15,15,15,25,10,2,22,9,20,4,16,15,6,26,15,10,5,28,15,26,5,4,20,2,4,15,25,5,22,28,20,15,22,4,10,4,15,15,4,15,4,20,26,30,4,15,4,25,10,15,30,6,15,2,10,30,15,12,10,28,18,22,3,4,26,15,20,20,14,10,15,12,15,15,14,16,10,5,20,25,12,30,25,26,27,12,16,15],"correct_side":[1,2,1,1,2,1,1,2,2,1,2,2,2,2,2,1,1,1,2,2,1,2,2,1,1,2,1,1,2,1,2,2,2,2,1,2,1,2,1,1,1,2,1,2,2,2,1,2,1,1,1,1,1,2,2,2,1,2,2,1,2,1,2,1,2,2,1,2,1,1,2,2,2,2,1,2,2,1,2,2,1,2,1,2,2,2,1,2,2,2,2,1,2,1,2,1,2,2,1,1,2,1,1,2,2,2,1,1,1,1,1,2,1,2,2,1,2,1,1,1],"img_shown":["img2/300/Congruent/L/C_Dist_300_LN_4_LD_5_RN_2_RD_4_0.png","img2/300/Congruent/R/C_Dist_300_LN_1_LD_5_RN_6_RD_12_1.png","img2/200/Incongruent/L/I_Dist_200_LN_7_LD_10_RN_12_RD_24_0.png","img2/100/Congruent/L/C_Dist_100_LN_11_LD_22_RN_6_RD_15_0.png","img2/200/Congruent/R/C_Dist_200_LN_3_LD_10_RN_14_RD_28_1.png","img2/200/Congruent/L/C_Dist_200_LN_4_LD_10_RN_3_RD_15_0.png","img2/200/Congruent/L/C_Dist_200_LN_7_LD_21_RN_2_RD_15_0.png","img2/200/Incongruent/R/I_Dist_200_LN_7_LD_15_RN_6_RD_9_1.png","img2/300/Congruent/R/C_Dist_300_LN_1_LD_5_RN_11_RD_22_1.png","img2/300/Incongruent/L/I_Dist_300_LN_8_LD_10_RN_9_RD_18_0.png","img2/200/Congruent/R/C_Dist_200_LN_3_LD_6_RN_14_RD_20_1.png","img2/200/Incongruent/R/I_Dist_200_LN_14_LD_30_RN_6_RD_9_1.png","img2/200/Incongruent/R/I_Dist_200_LN_6_LD_20_RN_3_RD_6_1.png","img2/200/Congruent/R/C_Dist_200_LN_3_LD_10_RN_14_RD_28_1.png","img2/300/Congruent/R/C_Dist_300_LN_2_LD_20_RN_10_RD_25_1.png","img2/100/Incongruent/L/I_Dist_100_LN_9_LD_15_RN_14_RD_28_0.png","img2/300/Incongruent/L/I_Dist_300_LN_8_LD_10_RN_9_RD_18_0.png","img2/200/Congruent/L/C_Dist_200_LN_12_LD_15_RN_6_RD_10_0.png","img2/100/Congruent/R/C_Dist_100_LN_2_LD_5_RN_6_RD_12_1.png","img2/300/Incongruent/R/I_Dist_300_LN_4_LD_20_RN_2_RD_4_1.png","img2/300/Congruent/L/C_Dist_300_LN_20_LD_25_RN_13_RD_26_0.png","img2/200/Incongruent/R/I_Dist_200_LN_9_LD_15_RN_8_RD_10_1.png","img2/100/Congruent/R/C_Dist_100_LN_2_LD_5_RN_11_RD_22_1.png","img2/200/Incongruent/L/I_Dist_200_LN_4_LD_6_RN_14_RD_30_0.png","img2/300/Congruent/L/C_Dist_300_LN_20_LD_25_RN_9_RD_18_0.png","img2/100/Congruent/R/C_Dist_100_LN_7_LD_14_RN_9_RD_15_1.png","img2/200/Incongruent/L/I_Dist_200_LN_1_LD_2_RN_3_RD_10_0.png","img2/200/Congruent/L/C_Dist_200_LN_9_LD_20_RN_4_RD_16_0.png","img2/200/Incongruent/R/I_Dist_200_LN_9_LD_15_RN_8_RD_10_1.png","img2/200/Incongruent/L/I_Dist_200_LN_7_LD_10_RN_8_RD_16_0.png","img2/100/Congruent/R/C_Dist_100_LN_6_LD_12_RN_15_RD_25_1.png","img2/200/Congruent/R/C_Dist_200_LN_6_LD_20_RN_11_RD_22_1.png","img2/300/Incongruent/R/I_Dist_300_LN_13_LD_26_RN_12_RD_15_1.png","img2/100/Incongruent/R/I_Dist_100_LN_17_LD_30_RN_10_RD_15_1.png","img2/100/Incongruent/L/I_Dist_100_LN_2_LD_4_RN_6_RD_15_0.png","img2/300/Congruent/R/C_Dist_300_LN_2_LD_20_RN_10_RD_25_1.png","img2/100/Congruent/L/C_Dist_100_LN_11_LD_22_RN_4_RD_10_0.png","img2/200/Incongruent/R/I_Dist_200_LN_3_LD_10_RN_1_RD_2_1.png","img2/100/Incongruent/L/I_Dist_100_LN_6_LD_10_RN_11_RD_22_0.png","img2/200/Congruent/L/C_Dist_200_LN_8_LD_15_RN_3_RD_9_0.png","img2/100/Incongruent/L/I_Dist_100_LN_1_LD_2_RN_8_RD_20_0.png","img2/300/Incongruent/R/I_Dist_300_LN_4_LD_20_RN_2_RD_4_1.png","img2/300/Incongruent/L/I_Dist_300_LN_4_LD_5_RN_8_RD_16_0.png","img2/100/Incongruent/R/I_Dist_100_LN_17_LD_30_RN_10_RD_15_1.png","img2/200/Incongruent/R/I_Dist_200_LN_7_LD_15_RN_4_RD_6_1.png","img2/200/Congruent/R/C_Dist_200_LN_9_LD_30_RN_13_RD_26_1.png","img2/100/Congruent/L/C_Dist_100_LN_11_LD_22_RN_6_RD_15_0.png","img2/100/Incongruent/R/I_Dist_100_LN_9_LD_18_RN_6_RD_10_1.png","img2/300/Congruent/L/C_Dist_300_LN_9_LD_10_RN_3_RD_5_0.png","img2/200/Incongruent/L/I_Dist_200_LN_7_LD_10_RN_14_RD_28_0.png","img2/200/Incongruent/L/I_Dist_200_LN_1_LD_3_RN_2_RD_15_0.png","img2/100/Congruent/L/C_Dist_100_LN_15_LD_25_RN_13_RD_26_0.png","img2/100/Congruent/L/C_Dist_100_LN_8_LD_16_RN_2_RD_5_0.png","img2/300/Incongruent/R/I_Dist_300_LN_4_LD_20_RN_2_RD_4_1.png","img2/200/Congruent/R/C_Dist_200_LN_3_LD_6_RN_14_RD_20_1.png","img2/100/Incongruent/R/I_Dist_100_LN_8_LD_20_RN_1_RD_2_1.png","img2/300/Congruent/L/C_Dist_300_LN_4_LD_5_RN_2_RD_4_0.png","img2/300/Incongruent/R/I_Dist_300_LN_13_LD_26_RN_12_RD_15_1.png","img2/100/Congruent/R/C_Dist_100_LN_6_LD_12_RN_15_RD_25_1.png","img2/300/Congruent/L/C_Dist_300_LN_11_LD_22_RN_1_RD_5_0.png","img2/100/Congruent/R/C_Dist_100_LN_2_LD_5_RN_11_RD_22_1.png","img2/300/Incongruent/L/I_Dist_300_LN_8_LD_10_RN_14_RD_28_0.png","img2/200/Congruent/R/C_Dist_200_LN_13_LD_26_RN_14_RD_20_1.png","img2/100/Incongruent/L/I_Dist_100_LN_2_LD_4_RN_6_RD_15_0.png","img2/200/Congruent/R/C_Dist_200_LN_3_LD_10_RN_11_RD_22_1.png","img2/200/Incongruent/R/I_Dist_200_LN_11_LD_20_RN_3_RD_4_1.png","img2/200/Congruent/L/C_Dist_200_LN_4_LD_8_RN_3_RD_10_0.png","img2/100/Incongruent/R/I_Dist_100_LN_12_LD_30_RN_2_RD_4_1.png","img2/200/Incongruent/L/I_Dist_200_LN_1_LD_3_RN_2_RD_15_0.png","img2/200/Congruent/L/C_Dist_200_LN_12_LD_20_RN_6_RD_15_0.png","img2/300/Incongruent/R/I_Dist_300_LN_4_LD_20_RN_2_RD_4_1.png","img2/300/Incongruent/R/I_Dist_300_LN_13_LD_26_RN_12_RD_15_1.png","img2/300/Incongruent/R/I_Dist_300_LN_4_LD_20_RN_2_RD_4_1.png","img2/300/Congruent/R/C_Dist_300_LN_1_LD_20_RN_7_RD_20_1.png","img2/300/Congruent/L/C_Dist_300_LN_20_LD_25_RN_13_RD_26_0.png","img2/100/Congruent/R/C_Dist_100_LN_1_LD_2_RN_18_RD_30_1.png","img2/300/Incongruent/R/I_Dist_300_LN_4_LD_20_RN_2_RD_4_1.png","img2/200/Congruent/L/C_Dist_200_LN_6_LD_15_RN_3_RD_15_0.png","img2/300/Incongruent/R/I_Dist_300_LN_4_LD_20_RN_2_RD_4_1.png","img2/300/Congruent/R/C_Dist_300_LN_7_LD_14_RN_20_RD_25_1.png","img2/300/Incongruent/L/I_Dist_300_LN_1_LD_2_RN_2_RD_10_0.png","img2/100/Incongruent/R/I_Dist_100_LN_12_LD_24_RN_9_RD_15_1.png","img2/300/Incongruent/L/I_Dist_300_LN_2_LD_4_RN_6_RD_30_0.png","img2/200/Incongruent/R/I_Dist_200_LN_6_LD_20_RN_3_RD_6_1.png","img2/100/Incongruent/R/I_Dist_100_LN_12_LD_24_RN_9_RD_15_1.png","img2/200/Incongruent/R/I_Dist_200_LN_3_LD_10_RN_1_RD_2_1.png","img2/200/Incongruent/L/I_Dist_200_LN_4_LD_5_RN_6_RD_10_0.png","img2/100/Congruent/R/C_Dist_100_LN_1_LD_2_RN_18_RD_30_1.png","img2/100/Congruent/R/C_Dist_100_LN_7_LD_14_RN_9_RD_15_1.png","img2/100/Congruent/R/C_Dist_100_LN_2_LD_5_RN_6_RD_12_1.png","img2/100/Incongruent/R/I_Dist_100_LN_13_LD_26_RN_6_RD_10_1.png","img2/100/Incongruent/L/I_Dist_100_LN_9_LD_15_RN_14_RD_28_0.png","img2/200/Incongruent/R/I_Dist_200_LN_14_LD_30_RN_12_RD_18_1.png","img2/100/Incongruent/L/I_Dist_100_LN_3_LD_5_RN_11_RD_22_0.png","img2/200/Incongruent/R/I_Dist_200_LN_4_LD_30_RN_1_RD_3_1.png","img2/300/Congruent/L/C_Dist_300_LN_24_LD_30_RN_2_RD_4_0.png","img2/300/Congruent/R/C_Dist_300_LN_4_LD_20_RN_13_RD_26_1.png","img2/100/Incongruent/R/I_Dist_100_LN_11_LD_22_RN_9_RD_15_1.png","img2/300/Incongruent/L/I_Dist_300_LN_7_LD_10_RN_8_RD_20_0.png","img2/100/Incongruent/L/I_Dist_100_LN_1_LD_2_RN_8_RD_20_0.png","img2/200/Congruent/R/C_Dist_200_LN_3_LD_10_RN_7_RD_14_1.png","img2/100/Congruent/L/C_Dist_100_LN_11_LD_22_RN_4_RD_10_0.png","img2/200/Congruent/L/C_Dist_200_LN_12_LD_20_RN_6_RD_15_0.png","img2/100/Congruent/R/C_Dist_100_LN_2_LD_5_RN_6_RD_12_1.png","img2/100/Incongruent/R/I_Dist_100_LN_11_LD_22_RN_9_RD_15_1.png","img2/100/Congruent/R/C_Dist_100_LN_7_LD_14_RN_9_RD_15_1.png","img2/100/Incongruent/L/I_Dist_100_LN_6_LD_10_RN_7_RD_14_0.png","img2/100/Incongruent/L/I_Dist_100_LN_3_LD_5_RN_8_RD_16_0.png","img2/300/Congruent/L/C_Dist_300_LN_4_LD_10_RN_1_RD_10_0.png","img2/300/Congruent/L/C_Dist_300_LN_9_LD_10_RN_3_RD_5_0.png","img2/300/Congruent/L/C_Dist_300_LN_11_LD_22_RN_4_RD_20_0.png","img2/300/Congruent/R/C_Dist_300_LN_2_LD_20_RN_10_RD_25_1.png","img2/300/Incongruent/L/I_Dist_300_LN_4_LD_5_RN_6_RD_12_0.png","img2/100/Congruent/R/C_Dist_100_LN_1_LD_2_RN_18_RD_30_1.png","img2/100/Congruent/R/C_Dist_100_LN_7_LD_14_RN_15_RD_25_1.png","img2/300/Congruent/L/C_Dist_300_LN_20_LD_25_RN_13_RD_26_0.png","img2/200/Congruent/R/C_Dist_200_LN_7_LD_15_RN_18_RD_27_1.png","img2/300/Incongruent/L/I_Dist_300_LN_4_LD_5_RN_6_RD_12_0.png","img2/300/Incongruent/L/I_Dist_300_LN_4_LD_5_RN_8_RD_16_0.png","img2/200/Congruent/L/C_Dist_200_LN_4_LD_10_RN_3_RD_15_0.png"],"dist100_C":[["C_Dist_100_LN_10_LD_25_RN_3_RD_10_0.png","C_Dist_100_LN_11_LD_22_RN_4_RD_10_0.png","C_Dist_100_LN_11_LD_22_RN_6_RD_15_0.png","C_Dist_100_LN_15_LD_25_RN_13_RD_26_0.png","C_Dist_100_LN_3_LD_6_RN_2_RD_5_0.png","C_Dist_100_LN_6_LD_20_RN_5_RD_25_0.png","C_Dist_100_LN_8_LD_16_RN_2_RD_5_0.png","C_Dist_100_LN_9_LD_15_RN_8_RD_16_0.png"],["C_Dist_100_LN_1_LD_2_RN_18_RD_30_1.png","C_Dist_100_LN_1_LD_2_RN_3_RD_5_1.png","C_Dist_100_LN_12_LD_30_RN_13_RD_26_1.png","C_Dist_100_LN_2_LD_5_RN_11_RD_22_1.png","C_Dist_100_LN_2_LD_5_RN_6_RD_12_1.png","C_Dist_100_LN_3_LD_20_RN_4_RD_16_1.png","C_Dist_100_LN_4_LD_10_RN_15_RD_30_1.png","C_Dist_100_LN_4_LD_8_RN_6_RD_10_1.png","C_Dist_100_LN_6_LD_12_RN_15_RD_25_1.png","C_Dist_100_LN_7_LD_14_RN_15_RD_25_1.png","C_Dist_100_LN_7_LD_14_RN_9_RD_15_1.png"]],"dist100_I":[["I_Dist_100_LN_1_LD_2_RN_8_RD_20_0.png","I_Dist_100_LN_2_LD_4_RN_6_RD_15_0.png","I_Dist_100_LN_2_LD_4_RN_8_RD_20_0.png","I_Dist_100_LN_3_LD_5_RN_11_RD_22_0.png","I_Dist_100_LN_3_LD_5_RN_8_RD_16_0.png","I_Dist_100_LN_3_LD_6_RN_4_RD_10_0.png","I_Dist_100_LN_3_LD_9_RN_7_RD_30_0.png","I_Dist_100_LN_4_LD_8_RN_8_RD_20_0.png","I_Dist_100_LN_6_LD_10_RN_11_RD_22_0.png","I_Dist_100_LN_6_LD_10_RN_13_RD_26_0.png","I_Dist_100_LN_6_LD_10_RN_7_RD_14_0.png","I_Dist_100_LN_9_LD_10_RN_20_RD_25_0.png","I_Dist_100_LN_9_LD_15_RN_13_RD_26_0.png","I_Dist_100_LN_9_LD_15_RN_14_RD_28_0.png"],["I_Dist_100_LN_10_LD_25_RN_8_RD_16_1.png","I_Dist_100_LN_10_LD_25_RN_9_RD_18_1.png","I_Dist_100_LN_11_LD_22_RN_9_RD_15_1.png","I_Dist_100_LN_12_LD_24_RN_9_RD_15_1.png","I_Dist_100_LN_12_LD_30_RN_2_RD_4_1.png","I_Dist_100_LN_13_LD_26_RN_12_RD_20_1.png","I_Dist_100_LN_13_LD_26_RN_6_RD_10_1.png","I_Dist_100_LN_17_LD_30_RN_10_RD_15_1.png","I_Dist_100_LN_6_LD_12_RN_3_RD_5_1.png","I_Dist_100_LN_8_LD_16_RN_6_RD_10_1.png","I_Dist_100_LN_8_LD_20_RN_1_RD_2_1.png","I_Dist_100_LN_9_LD_18_RN_6_RD_10_1.png"]],"dist100_S":[["E_Dist_100_LN_2_LD_12_RN_2_RD_30_0.png","E_Dist_100_LN_6_LD_10_RN_6_RD_12_0.png"],["E_Dist_100_LN_6_LD_12_RN_6_RD_10_1.png"]],"dist200_C":[["C_Dist_200_LN_11_LD_22_RN_3_RD_10_0.png","C_Dist_200_LN_12_LD_15_RN_6_RD_10_0.png","C_Dist_200_LN_12_LD_20_RN_6_RD_15_0.png","C_Dist_200_LN_14_LD_28_RN_6_RD_20_0.png","C_Dist_200_LN_15_LD_25_RN_4_RD_10_0.png","C_Dist_200_LN_16_LD_20_RN_12_RD_20_0.png","C_Dist_200_LN_16_LD_30_RN_9_RD_27_0.png","C_Dist_200_LN_20_LD_25_RN_9_RD_15_0.png","C_Dist_200_LN_21_LD_30_RN_2_RD_4_0.png","C_Dist_200_LN_4_LD_10_RN_3_RD_15_0.png","C_Dist_200_LN_4_LD_8_RN_3_RD_10_0.png","C_Dist_200_LN_6_LD_15_RN_3_RD_15_0.png","C_Dist_200_LN_7_LD_21_RN_2_RD_15_0.png","C_Dist_200_LN_8_LD_15_RN_2_RD_6_0.png","C_Dist_200_LN_8_LD_15_RN_3_RD_9_0.png","C_Dist_200_LN_8_LD_15_RN_7_RD_21_0.png","C_Dist_200_LN_9_LD_20_RN_4_RD_16_0.png"],["C_Dist_200_LN_1_LD_2_RN_21_RD_30_1.png","C_Dist_200_LN_13_LD_26_RN_14_RD_20_1.png","C_Dist_200_LN_3_LD_10_RN_11_RD_22_1.png","C_Dist_200_LN_3_LD_10_RN_14_RD_28_1.png","C_Dist_200_LN_3_LD_10_RN_7_RD_14_1.png","C_Dist_200_LN_3_LD_12_RN_9_RD_20_1.png","C_Dist_200_LN_3_LD_6_RN_14_RD_20_1.png","C_Dist_200_LN_5_LD_10_RN_14_RD_20_1.png","C_Dist_200_LN_6_LD_12_RN_7_RD_10_1.png","C_Dist_200_LN_6_LD_20_RN_11_RD_22_1.png","C_Dist_200_LN_7_LD_15_RN_18_RD_27_1.png","C_Dist_200_LN_9_LD_30_RN_13_RD_26_1.png"]],"dist200_I":[["I_Dist_200_LN_1_LD_2_RN_3_RD_10_0.png","I_Dist_200_LN_1_LD_3_RN_2_RD_15_0.png","I_Dist_200_LN_3_LD_4_RN_11_RD_20_0.png","I_Dist_200_LN_4_LD_5_RN_6_RD_10_0.png","I_Dist_200_LN_4_LD_6_RN_14_RD_30_0.png","I_Dist_200_LN_7_LD_10_RN_12_RD_24_0.png","I_Dist_200_LN_7_LD_10_RN_14_RD_28_0.png","I_Dist_200_LN_7_LD_10_RN_8_RD_16_0.png"],["I_Dist_200_LN_11_LD_20_RN_3_RD_4_1.png","I_Dist_200_LN_14_LD_30_RN_12_RD_18_1.png","I_Dist_200_LN_14_LD_30_RN_6_RD_9_1.png","I_Dist_200_LN_3_LD_10_RN_1_RD_2_1.png","I_Dist_200_LN_4_LD_30_RN_1_RD_3_1.png","I_Dist_200_LN_6_LD_20_RN_3_RD_6_1.png","I_Dist_200_LN_7_LD_15_RN_4_RD_6_1.png","I_Dist_200_LN_7_LD_15_RN_6_RD_9_1.png","I_Dist_200_LN_9_LD_15_RN_8_RD_10_1.png"]],"dist200_S":[["E_Dist_200_LN_3_LD_6_RN_3_RD_10_0.png"],["E_Dist_200_LN_3_LD_10_RN_3_RD_6_1.png"]],"dist300_C":[["C_Dist_300_LN_11_LD_22_RN_1_RD_5_0.png","C_Dist_300_LN_11_LD_22_RN_2_RD_10_0.png","C_Dist_300_LN_11_LD_22_RN_4_RD_20_0.png","C_Dist_300_LN_12_LD_24_RN_2_RD_10_0.png","C_Dist_300_LN_18_LD_20_RN_9_RD_15_0.png","C_Dist_300_LN_20_LD_25_RN_13_RD_26_0.png","C_Dist_300_LN_20_LD_25_RN_14_RD_28_0.png","C_Dist_300_LN_20_LD_25_RN_5_RD_10_0.png","C_Dist_300_LN_20_LD_25_RN_8_RD_16_0.png","C_Dist_300_LN_20_LD_25_RN_9_RD_18_0.png","C_Dist_300_LN_24_LD_30_RN_2_RD_4_0.png","C_Dist_300_LN_24_LD_30_RN_8_RD_16_0.png","C_Dist_300_LN_3_LD_6_RN_2_RD_10_0.png","C_Dist_300_LN_4_LD_10_RN_1_RD_10_0.png","C_Dist_300_LN_4_LD_5_RN_2_RD_4_0.png","C_Dist_300_LN_8_LD_16_RN_1_RD_5_0.png","C_Dist_300_LN_9_LD_10_RN_3_RD_5_0.png"],["C_Dist_300_LN_1_LD_20_RN_7_RD_20_1.png","C_Dist_300_LN_1_LD_3_RN_19_RD_30_1.png","C_Dist_300_LN_1_LD_30_RN_8_RD_24_1.png","C_Dist_300_LN_1_LD_5_RN_11_RD_22_1.png","C_Dist_300_LN_1_LD_5_RN_3_RD_6_1.png","C_Dist_300_LN_1_LD_5_RN_6_RD_12_1.png","C_Dist_300_LN_2_LD_10_RN_12_RD_24_1.png","C_Dist_300_LN_2_LD_20_RN_10_RD_25_1.png","C_Dist_300_LN_3_LD_12_RN_11_RD_20_1.png","C_Dist_300_LN_3_LD_6_RN_4_RD_5_1.png","C_Dist_300_LN_4_LD_20_RN_13_RD_26_1.png","C_Dist_300_LN_5_LD_25_RN_6_RD_12_1.png","C_Dist_300_LN_5_LD_25_RN_7_RD_14_1.png","C_Dist_300_LN_7_LD_14_RN_20_RD_25_1.png","C_Dist_300_LN_8_LD_15_RN_10_RD_12_1.png"]],"dist300_I":[["I_Dist_300_LN_1_LD_2_RN_2_RD_10_0.png","I_Dist_300_LN_1_LD_2_RN_3_RD_15_0.png","I_Dist_300_LN_2_LD_4_RN_6_RD_30_0.png","I_Dist_300_LN_3_LD_6_RN_4_RD_20_0.png","I_Dist_300_LN_4_LD_5_RN_6_RD_12_0.png","I_Dist_300_LN_4_LD_5_RN_8_RD_16_0.png","I_Dist_300_LN_7_LD_10_RN_8_RD_20_0.png","I_Dist_300_LN_8_LD_10_RN_14_RD_28_0.png","I_Dist_300_LN_8_LD_10_RN_9_RD_18_0.png"],["I_Dist_300_LN_13_LD_26_RN_12_RD_15_1.png","I_Dist_300_LN_4_LD_20_RN_2_RD_4_1.png"]],"dist300_S":[["E_Dist_300_LN_9_LD_12_RN_9_RD_20_0.png"],["E_Dist_300_LN_18_LD_30_RN_18_RD_20_1.png","E_Dist_300_LN_3_LD_10_RN_3_RD_5_1.png","E_Dist_300_LN_9_LD_20_RN_9_RD_12_1.png"]],"dist500_C":[["C_Dist_500_LN_10_LD_13_RN_7_RD_26_0.png","C_Dist_500_LN_10_LD_15_RN_4_RD_24_0.png","C_Dist_500_LN_12_LD_16_RN_3_RD_12_0.png","C_Dist_500_LN_12_LD_18_RN_4_RD_24_0.png","C_Dist_500_LN_15_LD_18_RN_5_RD_15_0.png","C_Dist_500_LN_15_LD_20_RN_1_RD_4_0.png","C_Dist_500_LN_18_LD_27_RN_1_RD_6_0.png","C_Dist_500_LN_20_LD_24_RN_1_RD_3_0.png","C_Dist_500_LN_20_LD_24_RN_3_RD_9_0.png","C_Dist_500_LN_20_LD_24_RN_7_RD_21_0.png","C_Dist_500_LN_20_LD_28_RN_3_RD_14_0.png","C_Dist_500_LN_21_LD_28_RN_6_RD_24_0.png","C_Dist_500_LN_22_LD_28_RN_2_RD_7_0.png","C_Dist_500_LN_25_LD_30_RN_9_RD_27_0.png","C_Dist_500_LN_4_LD_6_RN_1_RD_6_0.png","C_Dist_500_LN_5_LD_6_RN_2_RD_6_0.png","C_Dist_500_LN_6_LD_9_RN_1_RD_6_0.png","C_Dist_500_LN_7_LD_10_RN_1_RD_5_0.png","C_Dist_500_LN_8_LD_12_RN_1_RD_6_0.png","C_Dist_500_LN_8_LD_12_RN_4_RD_24_0.png"],["C_Dist_500_LN_1_LD_4_RN_12_RD_16_1.png","C_Dist_500_LN_1_LD_4_RN_9_RD_12_1.png","C_Dist_500_LN_1_LD_9_RN_11_RD_18_1.png","C_Dist_500_LN_10_LD_24_RN_22_RD_24_1.png","C_Dist_500_LN_2_LD_12_RN_10_RD_15_1.png","C_Dist_500_LN_2_LD_12_RN_12_RD_18_1.png","C_Dist_500_LN_2_LD_12_RN_4_RD_6_1.png","C_Dist_500_LN_2_LD_24_RN_7_RD_12_1.png","C_Dist_500_LN_2_LD_5_RN_18_RD_20_1.png","C_Dist_500_LN_2_LD_5_RN_9_RD_10_1.png","C_Dist_500_LN_2_LD_8_RN_12_RD_16_1.png","C_Dist_500_LN_2_LD_8_RN_21_RD_28_1.png","C_Dist_500_LN_3_LD_10_RN_4_RD_5_1.png","C_Dist_500_LN_3_LD_12_RN_15_RD_20_1.png","C_Dist_500_LN_3_LD_30_RN_6_RD_10_1.png","C_Dist_500_LN_3_LD_8_RN_14_RD_16_1.png","C_Dist_500_LN_4_LD_16_RN_15_RD_20_1.png","C_Dist_500_LN_4_LD_24_RN_12_RD_18_1.png","C_Dist_500_LN_5_LD_14_RN_6_RD_7_1.png","C_Dist_500_LN_7_LD_21_RN_20_RD_24_1.png","C_Dist_500_LN_7_LD_28_RN_12_RD_16_1.png","C_Dist_500_LN_7_LD_28_RN_9_RD_12_1.png","C_Dist_500_LN_9_LD_27_RN_20_RD_24_1.png"]],"dist500_I":[["I_Dist_500_LN_2_LD_3_RN_4_RD_24_0.png","I_Dist_500_LN_5_LD_6_RN_6_RD_18_0.png","I_Dist_500_LN_7_LD_8_RN_9_RD_24_0.png"],["I_Dist_500_LN_7_LD_21_RN_5_RD_6_1.png"]],"dist500_S":[["E_Dist_500_LN_6_LD_8_RN_6_RD_24_0.png"],["E_Dist_500_LN_2_LD_12_RN_2_RD_3_1.png","E_Dist_500_LN_6_LD_24_RN_6_RD_8_1.png"]]}},{"start_time":1552327681979,"click_time":1552327683610,"finger_time":1552327682849,"fix_duration":526.6718986720706,"trial":1,"RT":870,"MT":761,"sideResp":1,"stimulus":[],"xmouse":[781,781,781,781,781,781,781,781,781,781,781,781,781,781,781,781,781,781,781,781,781,781,781,781,781,781,781,781,781,781,781,781,781,781,781,781,781,781,781,781,781,783,783,783,765,738,726,723,722,738,753,757,753,719,689,689,689,689,689,689,689,689,689,689,689,689,689,689,689,162,204,227,250,270,288,308,315,315,316,330,396,452],"ymouse":[502,502,502,502,502,502,502,502,502,502,502,502,502,502,502,502,502,502,502,502,502,502,502,502,502,502,502,502,502,502,502,502,502,502,502,502,502,502,502,502,486,476,474,464,415,381,365,358,340,324,265,216,152,72,28,28,28,28,28,28,28,28,28,28,28,28,28,28,28,8,48,63,79,93,103,111,111,111,111,105,78,54],"timestamp_mouse":[12,40,51,71,90,109,131,151,169,191,211,229,251,271,291,310,331,351,371,389,411,431,451,471,491,510,529,550,570,591,610,631,651,670,690,711,731,749,770,790,810,830,849,870,892,910,930,950,970,990,1010,1030,1050,1070,1091,1110,1130,1150,1171,1190,1211,1230,1250,1270,1291,1310,1331,1350,1370,1390,1410,1429,1451,1470,1491,1510,1531,1550,1571,1591,1610,1630],"xSR":741.5,"ySR":469.95,"xT1":424.9,"yT1":0,"xT2":1058.1,"yT2":0,"toosoon":0,"cond_shown":"Congruent","ratio_trial":300,"L_num":1,"L_den":5,"R_num":6,"R_den":12,"correct_side":2,"subjID":"anasofiavanegas2","gender":"1","school":"4","age":"9"},{"start_time":1552327685558,"click_time":1552327686849,"finger_time":1552327686089,"fix_duration":268.14677751221615,"trial":2,"RT":531,"MT":760,"sideResp":2,"stimulus":[],"xmouse":[790,790,790,790,790,790,790,790,790,790,790,790,790,790,789,788,785,785,785,785,785,785,785,785,793,799,850,908,944,965,980,988,988,988,988,988,988,988,988,988,988,988,1003,1020,1035,1049,1075,1090,1093,1093,1094,1092,1088,1081,1074,1067,1055,1054,1054,1054,1057,1067,1074,1083,1095],"ymouse":[533,533,533,533,533,533,533,533,533,533,533,533,533,533,533,533,533,533,533,533,533,533,533,533,526,521,463,383,315,241,167,37,9,9,9,9,9,9,9,9,9,9,20,70,129,171,218,233,234,234,231,202,185,165,148,133,110,105,105,104,104,104,104,103,99],"timestamp_mouse":[23,31,52,70,91,111,130,151,171,191,211,230,251,272,291,311,331,351,371,391,411,431,451,471,491,511,531,550,571,592,611,631,652,671,691,712,732,751,771,791,811,831,850,870,892,912,932,950,971,991,1012,1032,1051,1072,1091,1111,1131,1151,1171,1191,1211,1231,1251,1271,1291],"xSR":741.5,"ySR":469.95,"xT1":424.9,"yT1":0,"xT2":1058.1,"yT2":0,"toosoon":0,"cond_shown":"Incongruent","ratio_trial":200,"L_num":7,"L_den":10,"R_num":12,"R_den":24,"correct_side":1,"subjID":"anasofiavanegas2","gender":"1","school":"4","age":"9"},{"start_time":1552327689279,"click_time":1552327689869,"finger_time":1552327689750,"fix_duration":826.2541246145908,"trial":3,"RT":471,"MT":119,"sideResp":1,"stimulus":[],"xmouse":[778,778,778,778,778,778,778,778,778,778,778,778,778,778,778,778,778,778,778,778,776,762,746,727,699,605,556,515,478,461],"ymouse":[518,518,518,518,518,518,518,518,518,518,518,518,518,518,518,518,518,518,518,518,518,502,476,445,399,275,209,156,113,91],"timestamp_mouse":[11,41,50,69,89,110,131,149,170,191,211,231,251,270,291,309,331,351,371,391,410,429,450,471,491,511,530,550,570,590],"xSR":741.5,"ySR":469.95,"xT1":424.9,"yT1":0,"xT2":1058.1,"yT2":0,"toosoon":0,"cond_shown":"Congruent","ratio_trial":100,"L_num":11,"L_den":22,"R_num":6,"R_den":15,"correct_side":1,"subjID":"anasofiavanegas2","gender":"1","school":"4","age":"9"},{"start_time":1552327691805,"click_time":1552327692269,"finger_time":1552327692189,"fix_duration":512.3512686860468,"trial":4,"RT":384,"MT":80,"sideResp":1,"stimulus":[],"xmouse":[791,791,791,791,792,792,792,792,792,792,792,792,792,792,792,792,792,792,785,770,678,614,540,499],"ymouse":[522,522,522,522,522,522,522,522,522,522,522,522,522,522,522,522,522,516,499,468,305,213,82,8],"timestamp_mouse":[9,32,44,65,85,103,123,145,165,184,204,224,245,264,285,305,324,345,364,384,404,424,444,464],"xSR":741.5,"ySR":469.95,"xT1":424.9,"yT1":0,"xT2":1058.1,"yT2":0,"toosoon":0,"cond_shown":"Congruent","ratio_trial":200,"L_num":3,"L_den":10,"R_num":14,"R_den":28,"correct_side":2,"subjID":"anasofiavanegas2","gender":"1","school":"4","age":"9"},{"start_time":1552327701224,"click_time":1552327702071,"finger_time":1552327701951,"fix_duration":250,"trial":5,"RT":727,"MT":120,"sideResp":2,"stimulus":[],"xmouse":[788,788,788,788,788,788,788,788,788,788,788,788,788,788,788,788,788,788,788,788,788,788,788,788,788,788,788,788,788,788,788,788,788,788,791,820,902,935,1023,1058,1078,1083,1083],"ymouse":[524,524,524,524,524,524,524,524,524,524,524,524,524,524,524,524,524,524,524,524,524,524,524,524,524,524,524,524,524,524,524,524,524,524,516,480,407,385,322,274,174,126,90],"timestamp_mouse":[13,35,47,67,87,106,125,147,167,186,207,226,246,267,286,306,327,347,367,386,407,426,447,467,487,507,526,547,566,586,607,626,647,666,687,706,727,746,767,787,806,826,846],"xSR":741.5,"ySR":469.95,"xT1":424.9,"yT1":0,"xT2":1058.1,"yT2":0,"toosoon":0,"cond_shown":"Congruent","ratio_trial":200,"L_num":4,"L_den":10,"R_num":3,"R_den":15,"correct_side":1,"subjID":"anasofiavanegas2","gender":"1","school":"4","age":"9"},{"start_time":1552327703737,"click_time":1552327704911,"finger_time":1552327704351,"fix_duration":305.6324291985981,"trial":6,"RT":614,"MT":560,"sideResp":1,"stimulus":[],"xmouse":[776,776,776,776,776,776,776,776,776,776,776,776,776,776,776,776,776,776,776,776,776,776,776,776,776,776,776,776,776,774,740,718,688,665,652,652,652,652,652,649,628,617,608,607,606,604,595,582,565,540,540,540,536,529,514,513,513,513,513],"ymouse":[515,515,515,515,515,515,515,515,515,515,515,515,515,515,515,515,515,515,515,515,515,515,515,515,515,515,515,515,512,508,461,424,371,327,296,296,296,296,292,278,215,194,183,182,180,169,152,136,121,111,111,111,109,106,100,100,100,100,99],"timestamp_mouse":[13,38,53,72,93,114,133,154,174,194,213,234,254,273,293,314,334,354,373,392,413,434,453,473,493,513,533,553,573,593,614,633,654,674,693,713,733,754,773,794,814,833,854,873,893,913,933,953,973,994,1013,1033,1054,1073,1093,1113,1134,1153,1174],"xSR":741.5,"ySR":469.95,"xT1":424.9,"yT1":0,"xT2":1058.1,"yT2":0,"toosoon":0,"cond_shown":"Congruent","ratio_trial":200,"L_num":7,"L_den":21,"R_num":2,"R_den":15,"correct_side":1,"subjID":"anasofiavanegas2","gender":"1","school":"4","age":"9"},{"start_time":1552327706382,"click_time":1552327707050,"finger_time":1552327706830,"fix_duration":250,"trial":7,"RT":448,"MT":220,"sideResp":1,"stimulus":[],"xmouse":[773,773,773,773,773,773,773,773,773,773,773,773,773,773,773,774,774,775,775,775,775,771,724,682,643,595,553,507,501,498,497,497,497,497],"ymouse":[503,503,503,503,503,503,503,503,503,503,503,503,503,503,503,501,500,498,496,494,491,481,432,396,352,294,234,147,121,116,112,109,105,93],"timestamp_mouse":[10,29,52,68,88,109,129,148,168,189,208,228,249,268,289,308,328,348,369,388,409,428,448,467,488,508,529,549,568,588,609,628,649,668],"xSR":741.5,"ySR":469.95,"xT1":424.9,"yT1":0,"xT2":1058.1,"yT2":0,"toosoon":0,"cond_shown":"Incongruent","ratio_trial":200,"L_num":7,"L_den":15,"R_num":6,"R_den":9,"correct_side":2,"subjID":"anasofiavanegas2","gender":"1","school":"4","age":"9"},{"start_time":1552327708082,"click_time":1552327708770,"finger_time":1552327708531,"fix_duration":250,"trial":8,"RT":449,"MT":239,"sideResp":2,"stimulus":[],"xmouse":[788,788,788,788,788,788,788,788,788,788,788,788,788,788,788,788,788,788,788,794,801,826,850,920,963,994,1010,1016,1016,1016,1015,1015,1023,1057,1073],"ymouse":[517,517,517,517,517,517,517,517,517,517,517,517,517,517,517,517,517,517,517,514,504,476,454,377,324,286,265,250,232,224,214,190,164,88,31],"timestamp_mouse":[9,29,48,68,89,108,129,149,169,189,208,228,249,269,288,309,329,348,368,389,408,428,449,468,488,509,528,548,568,589,608,629,649,668,688],"xSR":741.5,"ySR":469.95,"xT1":424.9,"yT1":0,"xT2":1058.1,"yT2":0,"toosoon":0,"cond_shown":"Congruent","ratio_trial":300,"L_num":1,"L_den":5,"R_num":11,"R_den":22,"correct_side":2,"subjID":"anasofiavanegas2","gender":"1","school":"4","age":"9"},{"start_time":1552327710624,"click_time":1552327712691,"finger_time":1552327712211,"fix_duration":692.5685878254994,"trial":9,"RT":1587,"MT":480,"sideResp":1,"stimulus":[],"xmouse":[784,784,784,784,784,784,784,784,784,784,784,784,784,784,784,784,784,784,784,784,784,784,784,784,784,784,784,784,784,784,784,784,784,784,784,784,784,784,784,784,784,784,784,784,784,784,784,784,784,784,784,784,784,784,784,784,784,784,784,784,784,784,784,784,784,784,784,784,784,784,784,784,784,784,784,784,784,779,753,693,610,522,421,419,419,418,418,418,418,418,418,418,418,418,418,418,418,418,418,418,418,410,417,425],"ymouse":[506,506,506,506,506,506,506,506,506,506,506,506,506,506,506,506,506,506,506,506,506,506,506,506,506,506,506,506,506,506,506,506,506,506,506,506,506,506,506,506,506,506,506,506,506,506,506,506,506,506,506,506,506,506,506,506,506,506,506,506,506,506,506,506,506,506,506,506,506,506,506,506,506,506,506,506,506,501,470,403,318,230,84,63,44,8,8,8,8,8,8,8,8,8,8,8,8,8,8,8,8,4,28,46],"timestamp_mouse":[11,35,47,66,86,106,127,145,166,187,206,228,247,266,286,306,325,346,367,386,407,426,447,466,487,507,525,547,567,585,607,626,646,667,686,706,727,746,767,787,807,827,846,867,886,906,927,946,967,986,1006,1026,1047,1066,1087,1106,1126,1146,1166,1186,1207,1226,1246,1267,1287,1307,1327,1347,1366,1386,1406,1426,1447,1466,1486,1507,1526,1546,1566,1587,1607,1626,1647,1666,1686,1706,1726,1746,1767,1786,1806,1826,1847,1866,1886,1906,1926,1946,1966,1987,2007,2027,2046,2066],"xSR":741.5,"ySR":469.95,"xT1":424.9,"yT1":0,"xT2":1058.1,"yT2":0,"toosoon":0,"cond_shown":"Incongruent","ratio_trial":300,"L_num":8,"L_den":10,"R_num":9,"R_den":18,"correct_side":1,"subjID":"anasofiavanegas2","gender":"1","school":"4","age":"9"},{"start_time":1552327714629,"click_time":1552327715490,"finger_time":1552327715170,"fix_duration":776.1012606996238,"trial":10,"RT":541,"MT":320,"sideResp":2,"stimulus":[],"xmouse":[806,806,806,806,806,806,806,806,806,806,806,806,806,806,806,806,806,806,806,806,806,806,806,806,806,808,822,891,940,1000,1061,1186,1208,1213,1212,1208,1207,1205,1201,1197,1197,1197,1159,1151],"ymouse":[480,480,480,480,480,480,480,480,480,480,480,480,480,480,480,480,480,480,480,480,480,480,480,480,479,477,471,432,400,357,306,150,95,54,29,18,15,10,4,0,0,0,1,13],"timestamp_mouse":[1,22,41,62,81,102,121,142,162,182,202,221,241,262,282,301,322,342,361,382,402,420,442,462,482,501,521,541,561,581,600,622,641,661,682,701,721,741,761,781,801,821,841,861],"xSR":741.5,"ySR":469.95,"xT1":424.9,"yT1":0,"xT2":1058.1,"yT2":0,"toosoon":0,"cond_shown":"Congruent","ratio_trial":200,"L_num":3,"L_den":6,"R_num":14,"R_den":20,"correct_side":2,"subjID":"anasofiavanegas2","gender":"1","school":"4","age":"9"},{"start_time":1552327717925,"click_time":1552327718630,"finger_time":1552327718470,"fix_duration":1213.0918334972268,"trial":11,"RT":545,"MT":160,"sideResp":1,"stimulus":[],"xmouse":[794,794,794,794,794,793,793,793,792,792,792,792,792,792,792,792,792,792,792,792,792,792,791,790,789,786,782,762,736,693,647,601,545,538,531,521],"ymouse":[508,508,508,508,507,507,505,504,504,504,504,504,503,503,503,503,503,503,503,503,503,502,501,500,499,495,489,457,412,335,252,170,61,39,22,5],"timestamp_mouse":[11,26,46,66,85,106,126,146,166,185,206,225,246,266,286,306,325,346,365,384,406,426,445,464,485,506,525,545,565,585,606,626,645,666,685,705],"xSR":741.5,"ySR":469.95,"xT1":424.9,"yT1":0,"xT2":1058.1,"yT2":0,"toosoon":0,"cond_shown":"Incongruent","ratio_trial":200,"L_num":14,"L_den":30,"R_num":6,"R_den":9,"correct_side":2,"subjID":"anasofiavanegas2","gender":"1","school":"4","age":"9"},{"start_time":1552327720845,"click_time":1552327721351,"finger_time":1552327721250,"fix_duration":833.293814185678,"trial":12,"RT":405,"MT":101,"sideResp":2,"stimulus":[],"xmouse":[812,812,812,812,812,812,812,812,812,812,812,812,812,812,812,812,812,811,812,818,833,894,952,1015,1069,1110],"ymouse":[506,506,506,506,506,506,506,506,506,506,506,506,506,506,506,506,506,504,498,482,458,373,296,214,145,99],"timestamp_mouse":[10,36,45,66,85,105,124,145,166,186,206,225,245,265,286,306,324,346,365,385,405,425,445,466,485,506],"xSR":741.5,"ySR":469.95,"xT1":424.9,"yT1":0,"xT2":1058.1,"yT2":0,"toosoon":0,"cond_shown":"Incongruent","ratio_trial":200,"L_num":6,"L_den":20,"R_num":3,"R_den":6,"correct_side":2,"subjID":"anasofiavanegas2","gender":"1","school":"4","age":"9"},{"start_time":1552327722667,"click_time":1552327723410,"finger_time":1552327723030,"fix_duration":294.8520989817886,"trial":13,"RT":363,"MT":380,"sideResp":1,"stimulus":[],"xmouse":[778,778,778,778,778,778,778,778,778,778,778,778,778,778,778,778,771,759,735,696,621,591,575,575,575,575,575,575,575,575,575,575,575,575,575,575,575,468],"ymouse":[517,517,517,517,517,517,517,517,517,517,517,517,517,517,517,517,500,472,418,349,169,64,9,9,9,9,9,9,9,9,9,9,9,9,9,9,9,11],"timestamp_mouse":[8,35,43,63,83,103,123,143,164,184,203,223,244,263,284,303,324,343,363,383,404,423,443,464,482,504,523,544,564,584,604,623,644,663,683,704,723,743],"xSR":741.5,"ySR":469.95,"xT1":424.9,"yT1":0,"xT2":1058.1,"yT2":0,"toosoon":0,"cond_shown":"Congruent","ratio_trial":200,"L_num":3,"L_den":10,"R_num":14,"R_den":28,"correct_side":2,"subjID":"anasofiavanegas2","gender":"1","school":"4","age":"9"},{"start_time":1552327725995,"click_time":1552327726711,"finger_time":1552327726630,"fix_duration":1382.8710283188095,"trial":14,"RT":635,"MT":81,"sideResp":2,"stimulus":[],"xmouse":[767,767,767,767,767,767,767,767,767,767,767,767,767,767,767,767,767,767,767,767,767,767,767,767,767,767,767,767,767,777,788,803,833,883,1007,1060],"ymouse":[517,517,517,517,517,517,517,517,517,517,517,517,517,517,517,517,517,517,517,517,517,516,515,515,514,514,514,512,509,489,473,452,410,342,175,84],"timestamp_mouse":[15,40,56,75,95,115,135,155,176,196,215,236,255,276,295,315,335,355,376,396,416,436,455,476,496,516,535,556,576,595,615,635,655,675,695,715],"xSR":741.5,"ySR":469.95,"xT1":424.9,"yT1":0,"xT2":1058.1,"yT2":0,"toosoon":0,"cond_shown":"Congruent","ratio_trial":300,"L_num":2,"L_den":20,"R_num":10,"R_den":25,"correct_side":2,"subjID":"anasofiavanegas2","gender":"1","school":"4","age":"9"},{"start_time":1552327730893,"click_time":1552327731630,"finger_time":1552327731390,"fix_duration":601.7476136454803,"trial":15,"RT":497,"MT":240,"sideResp":2,"stimulus":[],"xmouse":[789,789,789,789,789,789,789,789,789,789,789,789,789,789,789,789,789,789,789,789,789,789,801,810,864,909,950,975,989,1005,1008,1009,1012,1015,1037,1062,1088],"ymouse":[507,507,507,507,507,507,507,507,507,507,507,507,507,507,507,507,507,507,507,507,507,507,494,482,432,393,357,330,310,284,281,279,275,267,213,154,92],"timestamp_mouse":[32,37,57,77,97,117,138,157,178,198,217,237,258,277,297,318,338,358,378,397,417,437,457,477,497,517,537,557,578,598,617,637,658,677,697,717,737],"xSR":741.5,"ySR":469.95,"xT1":424.9,"yT1":0,"xT2":1058.1,"yT2":0,"toosoon":0,"cond_shown":"Incongruent","ratio_trial":100,"L_num":9,"L_den":15,"R_num":14,"R_den":28,"correct_side":1,"subjID":"anasofiavanegas2","gender":"1","school":"4","age":"9"},{"start_time":1552327733281,"click_time":1552327734592,"finger_time":1552327733770,"fix_duration":448.9640934170073,"trial":16,"RT":489,"MT":822,"sideResp":1,"stimulus":[],"xmouse":[807,807,807,807,807,807,807,807,807,807,807,807,807,807,807,807,807,807,807,807,807,805,803,800,792,754,724,689,654,633,619,615,615,613,613,613,613,613,613,613,611,606,605,601,593,576,549,546,545,545,545,532,528,527,526,526,526,526,526,526,526,526,526,526,525,498],"ymouse":[515,515,515,515,515,515,515,515,515,515,515,515,515,515,515,515,515,515,515,515,515,507,496,478,454,359,291,218,154,117,91,86,86,85,85,85,85,85,85,85,85,84,84,83,82,80,78,78,78,78,78,78,78,78,78,78,78,78,78,78,78,78,78,78,78,78],"timestamp_mouse":[10,38,50,69,88,110,129,150,170,189,210,229,250,270,290,309,330,350,369,390,410,430,449,469,489,511,528,550,569,590,609,629,649,670,690,709,730,749,769,790,809,829,849,869,890,909,929,949,970,989,1010,1029,1050,1069,1089,1110,1130,1150,1169,1190,1211,1229,1249,1269,1289,1311],"xSR":741.5,"ySR":469.95,"xT1":424.9,"yT1":0,"xT2":1058.1,"yT2":0,"toosoon":0,"cond_shown":"Incongruent","ratio_trial":300,"L_num":8,"L_den":10,"R_num":9,"R_den":18,"correct_side":1,"subjID":"anasofiavanegas2","gender":"1","school":"4","age":"9"},{"start_time":1552327737643,"click_time":1552327738590,"finger_time":1552327738050,"fix_duration":1471.0349709288466,"trial":17,"RT":407,"MT":540,"sideResp":1,"stimulus":[],"xmouse":[767,767,767,767,767,767,767,767,767,767,767,767,767,767,767,767,767,767,766,756,740,730,714,693,624,583,559,553,550,550,550,548,548,547,547,547,547,547,546,546,546,544,538,522,518,516,512,508],"ymouse":[495,495,495,495,495,495,495,495,495,495,495,495,495,495,495,495,495,495,488,472,445,423,394,350,223,170,135,123,116,116,116,115,115,115,115,115,115,115,115,115,115,115,115,112,110,108,103,98],"timestamp_mouse":[9,28,47,67,88,108,128,146,167,188,208,227,247,267,288,308,327,348,367,387,407,428,447,467,487,507,528,547,567,588,607,627,647,667,688,707,726,748,768,787,807,828,847,867,887,907,928,947],"xSR":741.5,"ySR":469.95,"xT1":424.9,"yT1":0,"xT2":1058.1,"yT2":0,"toosoon":0,"cond_shown":"Congruent","ratio_trial":200,"L_num":12,"L_den":15,"R_num":6,"R_den":10,"correct_side":1,"subjID":"anasofiavanegas2","gender":"1","school":"4","age":"9"},{"start_time":1552327741062,"click_time":1552327742271,"finger_time":1552327741590,"fix_duration":849.663362070616,"trial":18,"RT":528,"MT":681,"sideResp":2,"stimulus":[],"xmouse":[761,761,761,761,761,761,761,761,761,761,761,761,761,761,761,761,761,761,761,761,761,761,761,758,757,755,755,755,771,797,858,953,1143,1206,1248,1268,1279,1287,1321,1339,1354,1354,1354,1354,1354,1354,1354,1354,1354,1354,1245,1235,1231,1226,1221,1210,1198,1185,1171,1161,1153],"ymouse":[507,507,507,507,507,507,507,507,507,507,507,507,507,507,507,507,507,507,507,507,506,505,493,487,479,471,454,445,417,398,372,343,291,269,247,231,211,187,88,47,0,0,0,0,0,0,0,0,0,0,2,19,27,35,41,47,51,57,60,61,61],"timestamp_mouse":[10,28,48,68,88,109,128,149,168,189,208,228,249,269,288,308,329,349,368,389,409,429,449,468,488,508,528,548,568,588,609,628,649,668,689,708,728,749,768,788,808,828,848,869,888,908,928,949,969,988,1009,1028,1049,1067,1089,1108,1129,1148,1168,1189,1209],"xSR":741.5,"ySR":469.95,"xT1":424.9,"yT1":0,"xT2":1058.1,"yT2":0,"toosoon":0,"cond_shown":"Congruent","ratio_trial":100,"L_num":2,"L_den":5,"R_num":6,"R_den":12,"correct_side":2,"subjID":"anasofiavanegas2","gender":"1","school":"4","age":"9"},{"start_time":1552327744570,"click_time":1552327746410,"finger_time":1552327745010,"fix_duration":1079.1901040369191,"trial":19,"RT":440,"MT":1400,"sideResp":1,"stimulus":[],"xmouse":[805,805,805,805,805,805,805,805,805,805,805,805,805,805,805,805,805,805,805,805,805,814,824,842,846,841,821,791,733,713,659,586,501,386,368,368,368,368,368,368,368,368,368,368,369,381,398,419,459,471,488,499,512,554,576,596,615,628,653,685,710,739,770,831,857,880,899,916,938,946,952,964,970,977,978,978,978,975,954,815,779,757,745,728,714,702,693,687,677,653,612,555,509],"ymouse":[524,524,524,524,524,524,524,524,524,524,524,524,524,524,524,524,524,524,522,512,507,478,445,362,322,270,222,183,152,148,140,130,115,99,97,96,96,96,96,96,96,96,96,96,96,96,98,103,111,116,127,135,146,171,180,190,196,198,198,198,198,193,187,170,162,157,149,142,132,128,126,123,120,115,113,112,110,107,101,72,67,67,67,70,72,73,74,75,75,73,60,45,32],"timestamp_mouse":[6,23,39,60,80,100,121,140,161,180,200,220,240,261,280,301,320,341,360,381,400,420,440,461,480,500,520,541,560,580,600,620,641,660,680,701,720,741,760,780,800,820,841,860,880,900,919,941,959,981,1000,1021,1040,1060,1079,1100,1120,1140,1160,1181,1200,1221,1241,1260,1280,1301,1320,1340,1360,1381,1400,1420,1440,1460,1481,1500,1520,1540,1560,1581,1600,1620,1640,1661,1680,1701,1720,1740,1760,1781,1800,1821,1840],"xSR":741.5,"ySR":469.95,"xT1":424.9,"yT1":0,"xT2":1058.1,"yT2":0,"toosoon":0,"cond_shown":"Incongruent","ratio_trial":300,"L_num":4,"L_den":20,"R_num":2,"R_den":4,"correct_side":2,"subjID":"anasofiavanegas2","gender":"1","school":"4","age":"9"},{"start_time":1552327749904,"click_time":1552327751811,"finger_time":1552327750430,"fix_duration":393.3070447759439,"trial":20,"RT":526,"MT":1381,"sideResp":1,"stimulus":[],"xmouse":[775,770,767,763,762,760,760,760,760,760,760,760,760,760,760,760,760,760,760,760,760,760,760,766,775,789,814,908,954,989,1010,1012,986,970,966,966,966,986,1009,1029,1044,1055,1056,1056,1056,1056,1056,1056,1056,1056,1056,1056,1057,1057,1054,1035,983,983,983,983,983,983,983,983,983,983,983,983,983,983,983,983,107,147,178,199,217,245,261,270,273,285,306,315,325,340,359,392,399,403,403,408,414,419,422,427],"ymouse":[529,531,533,537,539,540,541,541,541,541,541,541,541,541,541,541,541,541,541,541,541,541,539,529,517,498,468,371,328,286,251,224,201,197,196,196,196,191,181,171,162,153,149,149,149,149,149,149,149,147,143,140,118,104,86,61,18,18,18,18,18,18,18,18,18,18,18,18,18,18,18,18,27,53,70,80,87,95,96,96,95,84,67,62,61,59,58,57,57,57,57,57,56,55,54,54],"timestamp_mouse":[7,27,48,66,86,107,126,146,166,187,207,226,247,266,287,307,326,346,366,387,407,427,447,465,487,506,526,547,566,586,607,626,645,666,685,705,726,745,765,785,805,825,845,866,886,907,927,946,966,987,1006,1027,1046,1067,1086,1106,1127,1146,1166,1186,1207,1226,1246,1266,1287,1306,1327,1346,1366,1387,1407,1426,1446,1465,1487,1506,1526,1546,1567,1587,1607,1626,1646,1666,1686,1706,1727,1746,1766,1786,1806,1828,1846,1866,1886,1907],"xSR":741.5,"ySR":469.95,"xT1":424.9,"yT1":0,"xT2":1058.1,"yT2":0,"toosoon":0,"cond_shown":"Congruent","ratio_trial":300,"L_num":20,"L_den":25,"R_num":13,"R_den":26,"correct_side":1,"subjID":"anasofiavanegas2","gender":"1","school":"4","age":"9"},{"start_time":1552327757221,"click_time":1552327757770,"finger_time":1552327757710,"fix_duration":949.2054023820244,"trial":21,"RT":489,"MT":60,"sideResp":1,"stimulus":[],"xmouse":[780,780,780,780,780,780,780,780,780,780,780,780,780,780,780,780,780,780,780,780,780,780,780,777,762,722,585,487],"ymouse":[515,515,515,515,515,515,515,515,515,515,515,515,515,515,515,515,515,515,515,515,515,515,515,502,463,394,179,43],"timestamp_mouse":[11,32,50,69,89,110,129,149,169,189,210,229,250,269,290,310,329,349,369,390,410,429,449,469,489,509,530,549],"xSR":741.5,"ySR":469.95,"xT1":424.9,"yT1":0,"xT2":1058.1,"yT2":0,"toosoon":0,"cond_shown":"Incongruent","ratio_trial":200,"L_num":9,"L_den":15,"R_num":8,"R_den":10,"correct_side":2,"subjID":"anasofiavanegas2","gender":"1","school":"4","age":"9"},{"start_time":1552327760708,"click_time":1552327761752,"finger_time":1552327761190,"fix_duration":1136.0314136870302,"trial":22,"RT":482,"MT":562,"sideResp":2,"stimulus":[],"xmouse":[786,786,786,786,786,786,786,786,786,786,786,786,786,786,786,786,786,786,786,786,786,786,786,786,790,800,830,860,929,952,969,981,989,994,997,1016,1032,1045,1051,1051,1051,1051,1051,1051,1051,1051,1051,1051,1051,1051,1052,1057,1066],"ymouse":[483,483,483,483,483,483,483,483,483,483,483,483,483,483,483,483,483,483,483,483,483,483,483,480,463,441,375,315,186,141,110,90,78,73,72,66,60,54,51,51,51,51,51,52,55,56,56,56,56,56,56,56,56],"timestamp_mouse":[10,22,43,62,83,102,123,142,162,182,203,223,243,263,282,303,322,342,362,382,402,423,442,462,482,501,524,544,563,583,603,623,643,663,683,703,723,743,764,784,803,823,843,863,883,904,923,944,964,983,1003,1024,1044],"xSR":741.5,"ySR":469.95,"xT1":424.9,"yT1":0,"xT2":1058.1,"yT2":0,"toosoon":0,"cond_shown":"Congruent","ratio_trial":100,"L_num":2,"L_den":5,"R_num":11,"R_den":22,"correct_side":2,"subjID":"anasofiavanegas2","gender":"1","school":"4","age":"9"},{"start_time":1552327763343,"click_time":1552327764372,"finger_time":1552327763891,"fix_duration":250,"trial":23,"RT":548,"MT":481,"sideResp":2,"stimulus":[],"xmouse":[828,828,828,827,824,819,816,816,816,816,816,816,816,816,816,816,816,816,816,816,816,816,816,816,816,816,820,826,838,862,903,975,1007,1021,1036,1059,1086,1094,1096,1096,1096,1096,1096,1096,1096,1096,1096,1096,1095,1090,1087,1085],"ymouse":[517,517,517,515,508,497,492,492,492,492,492,492,492,492,492,492,492,492,492,492,492,492,492,492,492,491,471,461,444,419,384,321,289,269,247,216,170,156,154,154,154,154,154,154,154,154,154,154,148,127,105,52],"timestamp_mouse":[15,36,50,68,88,108,128,149,169,188,208,228,248,269,288,309,328,349,369,389,408,430,449,468,489,508,528,548,569,588,610,629,649,668,688,709,729,748,768,789,808,828,850,870,888,909,928,948,969,989,1009,1029],"xSR":741.5,"ySR":469.95,"xT1":424.9,"yT1":0,"xT2":1058.1,"yT2":0,"toosoon":0,"cond_shown":"Incongruent","ratio_trial":200,"L_num":4,"L_den":6,"R_num":14,"R_den":30,"correct_side":1,"subjID":"anasofiavanegas2","gender":"1","school":"4","age":"9"},{"start_time":1552327766173,"click_time":1552327767512,"finger_time":1552327766671,"fix_duration":360.984718762303,"trial":24,"RT":498,"MT":841,"sideResp":1,"stimulus":[],"xmouse":[797,797,797,797,797,797,797,797,797,797,797,797,797,797,797,797,797,797,797,797,797,796,794,784,764,764,764,764,764,764,764,764,764,764,764,764,764,764,764,764,764,764,764,764,764,764,764,764,739,601,510,417,417,417,417,417,417,417,417,417,417,417,417,417,417,417,427],"ymouse":[517,517,517,517,517,517,517,517,517,517,517,517,517,517,517,517,517,517,517,517,517,516,503,483,453,452,452,452,452,452,452,452,452,452,452,452,452,452,452,452,452,452,452,452,452,452,452,452,416,248,138,33,33,33,33,33,33,33,33,33,33,33,33,33,33,33,11],"timestamp_mouse":[29,38,59,78,99,118,139,158,178,199,219,239,259,278,298,320,340,359,379,399,419,438,458,478,498,518,539,558,578,598,619,640,658,679,698,718,738,759,778,799,818,838,859,879,899,919,939,958,980,999,1018,1039,1058,1078,1098,1119,1138,1158,1178,1199,1218,1239,1258,1278,1298,1319,1339],"xSR":741.5,"ySR":469.95,"xT1":424.9,"yT1":0,"xT2":1058.1,"yT2":0,"toosoon":0,"cond_shown":"Congruent","ratio_trial":300,"L_num":20,"L_den":25,"R_num":9,"R_den":18,"correct_side":1,"subjID":"anasofiavanegas2","gender":"1","school":"4","age":"9"},{"start_time":1552327769334,"click_time":1552327770491,"finger_time":1552327769851,"fix_duration":660.8112619478342,"trial":25,"RT":517,"MT":640,"sideResp":2,"stimulus":[],"xmouse":[798,798,798,798,798,798,798,798,798,798,798,798,798,798,798,798,798,798,798,798,798,798,798,796,794,794,795,826,860,896,943,960,972,975,977,981,985,1004,1021,1030,1036,1038,1038,1038,1037,1037,1037,1036,1036,1036,1036,1036,1049,1067,1079,1086,1086,1089],"ymouse":[504,504,504,504,504,504,504,504,504,504,504,504,504,504,504,504,504,504,504,504,504,504,500,486,476,468,457,412,372,337,305,295,278,272,267,261,256,244,228,208,187,166,139,134,131,128,125,117,115,115,115,115,112,109,107,104,101,96],"timestamp_mouse":[17,37,57,77,97,117,139,159,178,199,219,239,258,278,297,318,337,358,379,399,419,437,458,477,498,517,537,557,578,597,617,638,657,678,697,718,738,757,778,797,817,837,857,877,897,917,937,957,977,998,1019,1037,1057,1077,1097,1117,1139,1157],"xSR":741.5,"ySR":469.95,"xT1":424.9,"yT1":0,"xT2":1058.1,"yT2":0,"toosoon":0,"cond_shown":"Congruent","ratio_trial":100,"L_num":7,"L_den":14,"R_num":9,"R_den":15,"correct_side":2,"subjID":"anasofiavanegas2","gender":"1","school":"4","age":"9"},{"start_time":1552327774657,"click_time":1552327776432,"finger_time":1552327775291,"fix_duration":1405.4574790744412,"trial":26,"RT":634,"MT":1141,"sideResp":2,"stimulus":[],"xmouse":[796,796,796,796,796,796,796,796,796,796,796,796,796,796,796,796,796,796,796,796,796,796,796,796,796,798,802,805,809,815,827,859,878,897,911,919,930,932,937,942,950,960,960,960,960,960,960,960,957,957,957,957,964,974,979,986,990,990,990,989,988,988,990,993,995,999,1011,1019,1027,1036,1048,1054,1056,1056,1056,1056,1056,1056,1056,1057,1057,1059,1060,1061,1062,1063,1071,1078,1089],"ymouse":[540,540,540,540,540,540,540,540,540,540,540,540,540,540,540,540,540,540,540,540,540,540,540,540,540,534,523,517,509,501,481,442,419,398,377,361,343,339,333,327,321,314,314,314,314,314,314,314,314,314,314,314,306,298,292,283,262,251,240,235,233,232,230,227,224,218,210,204,189,171,143,126,117,117,117,117,117,117,117,116,115,111,111,110,109,108,104,101,95],"timestamp_mouse":[14,35,54,75,94,115,134,155,175,195,216,235,255,274,294,315,335,356,374,395,415,435,455,476,496,514,535,554,574,594,614,634,654,674,695,714,735,754,774,794,814,835,856,874,895,914,934,954,975,994,1014,1035,1055,1074,1094,1115,1135,1155,1175,1195,1214,1235,1254,1275,1295,1315,1335,1355,1376,1395,1415,1435,1455,1475,1494,1516,1534,1555,1574,1594,1615,1636,1654,1675,1694,1714,1735,1754,1775],"xSR":741.5,"ySR":469.95,"xT1":424.9,"yT1":0,"xT2":1058.1,"yT2":0,"toosoon":0,"cond_shown":"Incongruent","ratio_trial":200,"L_num":1,"L_den":2,"R_num":3,"R_den":10,"correct_side":1,"subjID":"anasofiavanegas2","gender":"1","school":"4","age":"9"},{"start_time":1552327777963,"click_time":1552327778811,"finger_time":1552327778411,"fix_duration":250,"trial":27,"RT":448,"MT":400,"sideResp":1,"stimulus":[],"xmouse":[767,767,767,767,767,767,767,767,767,767,767,767,767,767,767,767,767,767,767,767,767,767,757,742,720,686,660,652,649,644,635,620,575,572,570,570,570,567,557,547,536,531,520],"ymouse":[501,501,501,501,501,501,501,501,501,501,501,501,501,501,501,501,501,501,501,501,501,489,454,426,386,342,304,288,278,264,250,231,196,194,193,193,192,172,157,141,126,117,92],"timestamp_mouse":[10,32,48,69,89,108,129,149,168,189,208,228,248,269,289,308,330,349,369,389,408,428,448,469,488,509,529,549,568,588,608,629,652,668,688,708,728,749,768,788,808,829,848],"xSR":741.5,"ySR":469.95,"xT1":424.9,"yT1":0,"xT2":1058.1,"yT2":0,"toosoon":0,"cond_shown":"Congruent","ratio_trial":200,"L_num":9,"L_den":20,"R_num":4,"R_den":16,"correct_side":1,"subjID":"anasofiavanegas2","gender":"1","school":"4","age":"9"},{"start_time":1552327781752,"click_time":1552327783932,"finger_time":1552327783211,"fix_duration":599.9204714653367,"trial":28,"RT":1459,"MT":721,"sideResp":1,"stimulus":[],"xmouse":[798,798,798,798,798,798,798,798,798,798,798,798,798,798,798,798,798,798,798,798,798,798,798,798,798,798,798,798,798,798,798,798,798,798,798,798,798,798,798,798,798,798,798,798,798,798,798,798,798,797,797,797,797,797,797,797,797,797,797,797,797,797,797,797,797,797,797,797,797,797,797,794,731,690,650,630,617,610,602,597,587,574,560,560,562,564,567,568,563,560,560,560,560,557,543,529,514,505,503,500,494,493,492,493,494,495,495,495,492],"ymouse":[511,511,511,511,511,511,511,511,511,511,511,511,511,511,511,511,511,511,511,511,511,511,511,511,511,511,511,511,511,511,511,511,511,511,511,511,511,511,511,511,511,511,511,511,511,511,511,508,505,504,503,501,500,499,499,499,499,499,499,499,499,499,499,499,499,499,499,499,499,499,498,498,468,439,407,386,370,355,329,311,287,263,236,231,225,215,200,185,163,160,160,159,159,158,154,150,148,145,145,143,138,133,117,109,105,102,101,100,97],"timestamp_mouse":[19,40,60,80,101,119,140,160,179,201,219,240,259,279,300,321,341,359,379,400,420,440,460,480,499,520,540,560,580,601,620,639,659,679,700,719,740,759,779,799,820,839,859,880,899,920,940,960,979,1000,1019,1039,1059,1079,1100,1120,1139,1159,1179,1200,1219,1240,1260,1280,1299,1320,1341,1359,1379,1399,1419,1440,1459,1480,1499,1519,1539,1560,1580,1599,1619,1639,1660,1680,1699,1720,1739,1760,1779,1800,1819,1840,1859,1879,1899,1920,1939,1960,1979,1999,2020,2039,2060,2079,2099,2120,2140,2160,2180],"xSR":741.5,"ySR":469.95,"xT1":424.9,"yT1":0,"xT2":1058.1,"yT2":0,"toosoon":0,"cond_shown":"Incongruent","ratio_trial":200,"L_num":9,"L_den":15,"R_num":8,"R_den":10,"correct_side":2,"subjID":"anasofiavanegas2","gender":"1","school":"4","age":"9"},{"start_time":1552327787583,"click_time":1552327788752,"finger_time":1552327788431,"fix_duration":250,"trial":29,"RT":848,"MT":321,"sideResp":2,"stimulus":[],"xmouse":[757,757,757,757,757,757,757,757,757,757,757,757,757,757,757,757,757,757,757,757,757,757,757,757,757,757,757,757,757,757,757,757,757,757,757,757,757,762,772,782,795,809,851,883,909,925,933,953,969,998,1018,1032,1043,1045,1047,1048,1049,1057,1060],"ymouse":[525,525,525,525,525,525,525,525,525,525,525,525,525,525,525,525,525,525,525,525,525,525,525,525,525,525,525,525,525,525,525,525,525,525,525,525,525,522,513,504,493,478,416,360,308,268,246,216,197,169,152,141,126,122,120,117,113,102,99],"timestamp_mouse":[17,28,48,68,88,109,128,148,168,188,209,229,250,269,289,309,330,349,368,389,410,429,449,468,488,508,530,548,568,588,609,630,648,668,688,708,730,748,769,788,809,828,848,868,888,908,930,948,969,988,1008,1028,1048,1068,1089,1109,1129,1148,1169],"xSR":741.5,"ySR":469.95,"xT1":424.9,"yT1":0,"xT2":1058.1,"yT2":0,"toosoon":0,"cond_shown":"Incongruent","ratio_trial":200,"L_num":7,"L_den":10,"R_num":8,"R_den":16,"correct_side":1,"subjID":"anasofiavanegas2","gender":"1","school":"4","age":"9"},{"start_time":1552327790879,"click_time":1552327793151,"finger_time":1552327791532,"fix_duration":1006.5935816466456,"trial":30,"RT":653,"MT":1619,"sideResp":1,"stimulus":[],"xmouse":[821,821,821,821,821,821,821,821,821,821,821,821,821,821,821,821,821,821,821,821,821,821,821,821,821,821,821,821,821,821,820,813,762,729,700,665,638,619,618,618,618,618,618,618,617,617,617,617,617,617,617,617,617,619,625,632,639,650,652,653,653,653,653,653,653,653,659,679,694,708,717,720,720,720,720,720,720,720,721,721,722,724,749,758,762,762,762,762,763,764,764,764,764,764,753,705,624,528,389,380,380,380,380,380,380,380,380,380,380,380,380,380,380,439],"ymouse":[523,523,523,523,523,523,523,523,523,523,523,523,523,523,523,523,523,523,523,523,523,523,523,523,523,523,523,521,519,514,503,481,372,309,252,193,143,111,110,110,110,110,110,110,109,109,109,109,109,109,109,109,109,115,128,140,151,168,170,171,171,171,183,192,203,215,231,264,278,288,295,297,297,297,297,297,297,297,297,301,306,314,335,339,340,340,340,341,342,344,345,345,345,345,338,305,247,173,31,0,0,0,0,0,0,0,0,0,0,0,0,0,0,57],"timestamp_mouse":[13,32,53,72,93,114,133,152,172,194,213,232,252,273,292,314,333,352,372,394,413,432,452,473,492,513,532,552,572,592,612,633,653,672,692,712,732,752,772,793,812,833,852,874,894,914,933,952,972,993,1012,1033,1052,1073,1092,1112,1133,1153,1172,1193,1212,1233,1252,1272,1292,1314,1333,1353,1372,1392,1412,1432,1452,1473,1492,1513,1532,1553,1572,1592,1612,1633,1653,1672,1692,1713,1732,1754,1772,1792,1812,1832,1853,1874,1892,1914,1933,1952,1972,1992,2012,2032,2053,2073,2092,2112,2132,2153,2172,2192,2212,2232,2252,2272],"xSR":741.5,"ySR":469.95,"xT1":424.9,"yT1":0,"xT2":1058.1,"yT2":0,"toosoon":0,"cond_shown":"Congruent","ratio_trial":100,"L_num":6,"L_den":12,"R_num":15,"R_den":25,"correct_side":2,"subjID":"anasofiavanegas2","gender":"1","school":"4","age":"9"},{"start_time":1552327794986,"click_time":1552327795953,"finger_time":1552327795451,"fix_duration":333.5263576216988,"trial":31,"RT":465,"MT":502,"sideResp":2,"stimulus":[],"xmouse":[815,815,815,815,815,815,815,815,815,815,815,815,815,815,815,815,815,815,815,815,815,815,828,841,861,887,911,930,944,950,957,963,969,974,975,975,975,975,975,975,975,975,975,975,982,1008,1027,1049,1073],"ymouse":[523,523,523,523,523,520,519,519,519,519,519,519,519,519,517,516,515,514,513,510,507,502,478,456,429,393,358,320,272,250,226,205,187,165,156,151,146,145,145,145,145,145,145,145,140,131,124,114,98],"timestamp_mouse":[8,32,46,65,87,105,126,145,167,185,206,225,246,265,285,305,325,345,366,385,406,425,446,465,485,505,525,546,566,585,606,625,647,665,686,705,731,746,765,785,805,826,846,865,885,905,926,945,966],"xSR":741.5,"ySR":469.95,"xT1":424.9,"yT1":0,"xT2":1058.1,"yT2":0,"toosoon":0,"cond_shown":"Congruent","ratio_trial":200,"L_num":6,"L_den":20,"R_num":11,"R_den":22,"correct_side":2,"subjID":"anasofiavanegas2","gender":"1","school":"4","age":"9"},{"start_time":1552327799619,"click_time":1552327800432,"finger_time":1552327800232,"fix_duration":425.80661041481994,"trial":32,"RT":613,"MT":200,"sideResp":1,"stimulus":[],"xmouse":[775,775,775,775,775,775,775,775,775,775,775,775,775,775,775,775,775,775,775,775,775,775,775,775,775,775,775,775,773,769,755,697,673,650,635,626,621,604,585,560,519],"ymouse":[533,533,533,533,533,533,533,533,533,533,533,533,533,533,533,533,533,533,533,533,533,533,533,533,533,533,533,533,525,508,466,295,204,137,110,96,92,85,77,67,50],"timestamp_mouse":[13,34,53,73,92,113,132,152,173,194,214,232,252,274,292,313,332,353,372,393,412,432,452,473,493,512,533,553,572,592,613,633,654,672,693,712,733,754,772,792,813],"xSR":741.5,"ySR":469.95,"xT1":424.9,"yT1":0,"xT2":1058.1,"yT2":0,"toosoon":0,"cond_shown":"Incongruent","ratio_trial":300,"L_num":13,"L_den":26,"R_num":12,"R_den":15,"correct_side":2,"subjID":"anasofiavanegas2","gender":"1","school":"4","age":"9"},{"start_time":1552327802426,"click_time":1552327805112,"finger_time":1552327803952,"fix_duration":612.543130877459,"trial":33,"RT":1526,"MT":1160,"sideResp":2,"stimulus":[],"xmouse":[798,798,798,798,798,798,798,798,798,798,798,798,798,798,798,798,798,798,798,798,798,798,798,798,798,798,798,798,798,798,798,798,798,798,798,798,798,798,798,798,798,798,798,798,798,798,798,798,798,798,798,798,798,798,798,797,795,795,794,794,794,794,794,794,794,794,794,794,794,794,794,794,786,775,763,750,736,722,721,721,721,720,719,719,719,719,719,719,719,719,719,719,719,719,719,719,729,825,931,1064,1256,1350,1429,1431,1427,1412,1412,1412,1412,1412,1412,1412,1412,1412,1412,1412,1412,1412,1412,1303,1254,1241,1222,1215,1210,1206,1202,1192,1185,1179,1174,1171,1166,1161,1156],"ymouse":[532,532,532,532,532,532,532,532,532,532,532,532,532,532,532,532,532,532,532,532,532,532,532,532,532,532,532,532,532,532,532,532,532,532,532,532,532,532,532,532,532,532,532,532,532,532,532,532,532,532,532,532,532,532,532,531,531,531,531,531,531,531,531,531,531,531,531,531,531,531,531,531,531,531,531,531,531,531,532,532,532,532,533,533,533,533,533,533,533,533,533,533,533,533,533,533,534,508,476,430,328,250,127,95,57,15,15,15,15,15,15,15,15,15,15,15,15,15,15,18,78,93,115,125,134,142,147,148,149,149,149,146,123,101,78],"timestamp_mouse":[10,25,46,66,85,107,125,145,166,186,206,226,245,266,286,305,326,345,365,386,406,426,445,465,486,507,526,546,567,585,606,626,646,665,686,706,725,745,766,786,807,826,846,865,886,905,926,945,966,986,1007,1025,1046,1066,1086,1105,1126,1145,1166,1185,1206,1227,1247,1266,1286,1305,1326,1346,1366,1386,1405,1425,1445,1465,1485,1505,1526,1545,1567,1585,1605,1626,1645,1665,1685,1705,1726,1745,1765,1787,1806,1825,1845,1865,1887,1905,1925,1945,1965,1985,2006,2026,2045,2065,2085,2105,2126,2145,2165,2185,2205,2226,2245,2266,2286,2306,2326,2345,2366,2385,2406,2425,2445,2467,2486,2505,2526,2546,2566,2586,2605,2625,2646,2665,2686],"xSR":741.5,"ySR":469.95,"xT1":424.9,"yT1":0,"xT2":1058.1,"yT2":0,"toosoon":0,"cond_shown":"Incongruent","ratio_trial":100,"L_num":17,"L_den":30,"R_num":10,"R_den":15,"correct_side":2,"subjID":"anasofiavanegas2","gender":"1","school":"4","age":"9"},{"start_time":1552327806957,"click_time":1552327808351,"finger_time":1552327807371,"fix_duration":584.7577331090594,"trial":34,"RT":414,"MT":980,"sideResp":1,"stimulus":[],"xmouse":[815,815,815,815,815,815,815,815,815,815,815,815,815,816,818,827,832,836,839,840,842,845,849,855,868,922,965,1001,1018,1027,1029,1029,1029,1029,1029,1029,1029,1030,1035,1046,1064,1066,1066,1066,1066,1064,1053,1041,1006,948,768,662,623,612,611,611,611,606,591,568,534,533,533,533,533,533,533,532,530,522],"ymouse":[506,506,506,506,506,506,506,506,506,506,506,506,506,506,504,497,494,491,488,487,485,483,481,477,469,438,414,396,380,371,367,367,367,367,367,367,367,366,355,336,304,293,289,285,282,276,257,236,186,128,39,17,17,17,17,17,17,17,17,17,17,17,17,17,17,17,17,17,18,20],"timestamp_mouse":[28,34,54,74,96,116,135,155,174,195,216,234,256,275,294,314,335,354,374,395,414,434,454,476,495,515,534,556,574,595,614,634,655,675,695,715,735,754,775,795,815,834,854,874,894,914,935,955,975,995,1015,1035,1054,1075,1094,1114,1134,1154,1174,1196,1215,1234,1254,1274,1296,1314,1334,1356,1375,1394],"xSR":741.5,"ySR":469.95,"xT1":424.9,"yT1":0,"xT2":1058.1,"yT2":0,"toosoon":0,"cond_shown":"Incongruent","ratio_trial":100,"L_num":2,"L_den":4,"R_num":6,"R_den":15,"correct_side":1,"subjID":"anasofiavanegas2","gender":"1","school":"4","age":"9"},{"start_time":1552327811803,"click_time":1552327812752,"finger_time":1552327812271,"fix_duration":710.046282140297,"trial":35,"RT":468,"MT":481,"sideResp":1,"stimulus":[],"xmouse":[796,796,796,796,796,796,796,796,796,796,796,796,796,796,796,796,796,796,796,796,796,807,815,825,832,830,828,809,789,750,736,724,717,715,715,715,715,715,715,715,715,715,715,715,680,617,557,498],"ymouse":[535,535,535,535,535,535,535,535,535,535,535,535,535,535,535,535,535,535,535,535,535,510,488,457,411,378,363,307,258,194,164,143,131,127,127,127,127,127,127,127,127,127,127,127,127,117,109,99],"timestamp_mouse":[10,34,49,69,90,108,130,149,169,189,210,229,249,268,290,310,328,348,369,390,408,429,449,468,488,508,528,549,569,588,608,629,648,670,688,708,730,749,770,788,809,828,848,869,888,908,928,949],"xSR":741.5,"ySR":469.95,"xT1":424.9,"yT1":0,"xT2":1058.1,"yT2":0,"toosoon":0,"cond_shown":"Congruent","ratio_trial":300,"L_num":2,"L_den":20,"R_num":10,"R_den":25,"correct_side":2,"subjID":"anasofiavanegas2","gender":"1","school":"4","age":"9"},{"start_time":1552327815538,"click_time":1552327817371,"finger_time":1552327817071,"fix_duration":1364.6076477512277,"trial":36,"RT":1533,"MT":300,"sideResp":2,"stimulus":[],"xmouse":[798,798,798,798,798,798,798,798,798,798,798,798,798,798,798,798,798,798,798,798,798,798,798,798,798,798,798,798,798,798,798,798,798,798,798,798,798,798,798,798,798,798,798,798,798,798,798,798,798,798,798,798,798,798,798,798,798,798,798,798,798,798,798,798,798,798,798,798,798,798,798,798,799,807,815,827,843,866,948,977,1000,1020,1057,1068,1077,1083,1087,1090,1090,1091,1091,1091],"ymouse":[506,506,506,506,506,506,506,506,506,506,506,506,506,506,506,506,506,506,506,506,506,506,506,506,506,506,506,506,506,506,506,506,506,506,506,506,506,506,506,506,506,506,506,506,506,506,506,506,506,506,506,506,506,506,506,506,506,506,506,506,506,506,506,506,506,506,506,506,506,506,506,506,505,494,486,474,454,427,340,315,295,273,227,208,189,171,156,142,130,121,107,96],"timestamp_mouse":[15,33,54,73,93,113,133,153,173,193,214,233,253,273,293,314,334,355,373,394,415,434,455,475,494,514,534,553,575,594,614,634,653,674,694,713,734,753,774,795,813,834,853,873,893,913,933,953,975,994,1013,1033,1053,1075,1094,1114,1134,1153,1173,1193,1213,1233,1254,1275,1293,1313,1333,1355,1374,1393,1414,1434,1453,1473,1494,1514,1533,1554,1574,1593,1614,1634,1653,1673,1693,1713,1734,1754,1773,1793,1813,1833],"xSR":741.5,"ySR":469.95,"xT1":424.9,"yT1":0,"xT2":1058.1,"yT2":0,"toosoon":0,"cond_shown":"Congruent","ratio_trial":100,"L_num":11,"L_den":22,"R_num":4,"R_den":10,"correct_side":1,"subjID":"anasofiavanegas2","gender":"1","school":"4","age":"9"},{"start_time":1552327819088,"click_time":1552327820592,"finger_time":1552327819572,"fix_duration":394.59135938507194,"trial":37,"RT":484,"MT":1020,"sideResp":2,"stimulus":[],"xmouse":[802,802,802,802,802,802,802,802,802,802,802,802,802,802,802,802,802,802,802,802,802,802,802,802,803,803,796,793,788,785,777,746,727,718,713,713,713,713,713,713,713,713,713,713,713,713,713,731,760,800,932,966,995,1025,1052,1142,1193,1233,1267,1270,1255,1252,1252,1252,1252,1252,1252,1252,1252,1252,1252,1252,1252,1252,1252,1108],"ymouse":[516,516,516,516,516,516,516,516,516,516,516,516,516,516,516,516,516,516,516,516,511,504,491,471,449,424,380,366,356,347,327,276,253,241,237,237,237,237,237,237,237,237,237,237,237,237,239,252,270,294,368,387,400,405,405,365,325,281,192,123,24,10,10,10,10,10,10,10,10,10,10,10,10,10,10,9],"timestamp_mouse":[10,34,44,64,83,103,124,143,163,185,204,224,244,264,283,303,324,343,363,384,404,423,443,464,484,504,523,543,563,585,603,624,644,663,683,704,724,743,763,783,804,825,844,864,884,904,924,945,965,984,1006,1023,1043,1064,1083,1105,1123,1143,1164,1184,1205,1224,1243,1264,1284,1303,1323,1344,1365,1383,1404,1424,1443,1464,1484,1504],"xSR":741.5,"ySR":469.95,"xT1":424.9,"yT1":0,"xT2":1058.1,"yT2":0,"toosoon":0,"cond_shown":"Incongruent","ratio_trial":200,"L_num":3,"L_den":10,"R_num":1,"R_den":2,"correct_side":2,"subjID":"anasofiavanegas2","gender":"1","school":"4","age":"9"},{"start_time":1552327822872,"click_time":1552327823712,"finger_time":1552327823232,"fix_duration":518.2224426596948,"trial":38,"RT":360,"MT":480,"sideResp":2,"stimulus":[],"xmouse":[811,811,811,811,811,811,811,811,811,811,811,811,811,811,811,811,814,828,851,913,970,1022,1138,1176,1193,1199,1205,1206,1206,1206,1206,1206,1206,1206,1206,1206,1206,1206,1206,1191,1178,1168,1152],"ymouse":[511,511,511,511,511,511,511,511,511,511,511,511,511,511,511,511,508,498,482,430,380,324,184,120,77,49,23,3,3,3,3,3,3,3,3,3,3,3,3,12,28,42,65],"timestamp_mouse":[8,20,41,61,81,100,120,141,160,181,201,220,240,260,281,300,320,340,360,380,402,420,441,460,481,500,520,541,560,581,600,620,640,662,680,700,721,741,760,780,800,820,840],"xSR":741.5,"ySR":469.95,"xT1":424.9,"yT1":0,"xT2":1058.1,"yT2":0,"toosoon":0,"cond_shown":"Incongruent","ratio_trial":100,"L_num":6,"L_den":10,"R_num":11,"R_den":22,"correct_side":1,"subjID":"anasofiavanegas2","gender":"1","school":"4","age":"9"},{"start_time":1552327825334,"click_time":1552327826132,"finger_time":1552327825713,"fix_duration":559.3384385520886,"trial":39,"RT":379,"MT":419,"sideResp":1,"stimulus":[],"xmouse":[802,802,802,802,802,802,802,802,802,802,802,802,802,802,802,802,799,797,791,779,768,752,737,708,702,702,702,702,702,699,687,667,642,589,563,554,545,538,525,521],"ymouse":[528,528,528,528,528,528,528,528,528,528,528,528,528,528,528,525,513,498,446,380,296,190,97,23,8,8,8,8,7,7,7,7,7,7,9,12,16,21,30,33],"timestamp_mouse":[18,42,60,78,99,118,138,158,178,198,218,239,259,278,299,318,338,359,379,398,418,438,458,478,498,518,539,560,578,598,619,638,659,679,698,718,738,758,778,798],"xSR":741.5,"ySR":469.95,"xT1":424.9,"yT1":0,"xT2":1058.1,"yT2":0,"toosoon":0,"cond_shown":"Congruent","ratio_trial":200,"L_num":8,"L_den":15,"R_num":3,"R_den":9,"correct_side":1,"subjID":"anasofiavanegas2","gender":"1","school":"4","age":"9"},{"start_time":1552327830224,"click_time":1552327831472,"finger_time":1552327830693,"fix_duration":1050.784654207379,"trial":40,"RT":469,"MT":779,"sideResp":1,"stimulus":[],"xmouse":[795,795,795,795,795,795,795,795,795,795,795,795,795,795,797,800,802,805,807,808,810,811,811,808,797,737,700,673,646,630,599,579,564,547,534,522,518,514,512,508,505,504,504,504,504,518,540,540,540,540,540,540,540,540,540,540,540,540,540,540,540,540,472],"ymouse":[500,500,500,500,500,500,500,500,500,500,500,500,500,500,499,498,497,494,492,490,483,477,470,460,449,416,395,372,337,317,292,278,270,260,253,245,238,229,224,217,210,206,201,194,181,130,23,23,23,23,23,23,23,23,23,23,23,23,23,23,23,23,58],"timestamp_mouse":[16,36,48,68,88,109,128,148,168,189,209,228,248,268,289,308,329,348,368,389,408,428,449,469,488,508,528,548,568,588,608,628,648,668,689,708,729,749,768,788,809,828,849,869,889,908,928,949,969,989,1008,1028,1048,1068,1090,1108,1128,1149,1169,1188,1209,1228,1248],"xSR":741.5,"ySR":469.95,"xT1":424.9,"yT1":0,"xT2":1058.1,"yT2":0,"toosoon":0,"cond_shown":"Incongruent","ratio_trial":100,"L_num":1,"L_den":2,"R_num":8,"R_den":20,"correct_side":1,"subjID":"anasofiavanegas2","gender":"1","school":"4","age":"9"},{"start_time":1552327833786,"click_time":1552327835273,"finger_time":1552327834232,"fix_duration":453.49031030563145,"trial":41,"RT":446,"MT":1041,"sideResp":2,"stimulus":[],"xmouse":[788,788,788,788,788,788,788,788,788,788,788,788,788,788,788,788,788,788,788,788,788,783,764,750,734,721,714,703,694,686,675,662,637,622,612,605,603,601,601,601,601,601,601,601,601,601,602,640,702,789,875,954,1050,1070,1090,1109,1129,1175,1191,1204,1213,1215,1215,1216,1216,1216,1216,1216,1216,1215,1203,1186,1152,1140,1130],"ymouse":[493,493,493,493,493,493,493,493,493,493,493,493,493,493,493,493,493,493,493,493,493,484,457,442,429,419,411,393,370,353,336,319,285,270,258,249,243,238,237,237,237,237,237,237,237,237,236,241,260,285,307,320,321,311,297,282,262,208,184,165,149,144,142,142,142,142,142,142,142,140,135,128,107,101,95],"timestamp_mouse":[11,31,46,66,87,106,127,146,167,186,206,226,246,267,287,306,327,346,367,386,406,426,446,466,487,507,526,547,566,586,606,626,647,666,686,706,726,747,767,786,807,827,846,866,888,906,926,947,967,986,1006,1026,1047,1068,1086,1106,1126,1147,1167,1186,1207,1226,1246,1267,1287,1306,1326,1346,1366,1386,1406,1426,1447,1466,1487],"xSR":741.5,"ySR":469.95,"xT1":424.9,"yT1":0,"xT2":1058.1,"yT2":0,"toosoon":0,"cond_shown":"Incongruent","ratio_trial":300,"L_num":4,"L_den":20,"R_num":2,"R_den":4,"correct_side":2,"subjID":"anasofiavanegas2","gender":"1","school":"4","age":"9"},{"start_time":1552327839741,"click_time":1552327841213,"finger_time":1552327840632,"fix_duration":1306.2572297149231,"trial":42,"RT":891,"MT":581,"sideResp":1,"stimulus":[],"xmouse":[807,807,807,808,810,813,814,815,817,817,819,820,822,824,825,828,828,829,829,829,830,831,831,831,832,832,832,832,832,832,832,832,832,832,832,832,832,832,832,832,834,835,835,835,832,817,812,792,767,742,688,668,652,641,635,617,604,579,563,550,539,538,537,535,532,521,514,507,505,505,505,505,507,507],"ymouse":[510,510,509,508,507,505,505,505,504,504,503,503,502,502,502,500,500,500,500,500,500,500,499,499,499,499,499,499,499,499,499,499,499,499,499,499,499,499,499,499,487,479,474,470,466,431,422,384,350,321,274,260,249,242,238,229,222,210,203,198,193,192,191,188,182,161,148,134,129,124,110,104,100,97],"timestamp_mouse":[12,38,51,71,92,111,132,151,172,191,211,231,251,271,291,311,331,351,372,391,412,431,453,472,492,511,531,552,571,591,611,633,651,671,691,712,731,751,771,791,811,831,852,871,891,911,932,951,971,992,1013,1031,1051,1071,1092,1111,1132,1152,1172,1191,1211,1231,1252,1271,1292,1311,1331,1351,1372,1391,1411,1432,1451,1472],"xSR":741.5,"ySR":469.95,"xT1":424.9,"yT1":0,"xT2":1058.1,"yT2":0,"toosoon":0,"cond_shown":"Incongruent","ratio_trial":300,"L_num":4,"L_den":5,"R_num":8,"R_den":16,"correct_side":1,"subjID":"anasofiavanegas2","gender":"1","school":"4","age":"9"},{"start_time":1552327843778,"click_time":1552327846353,"finger_time":1552327845753,"fix_duration":304.15349131636583,"trial":43,"RT":1975,"MT":600,"sideResp":1,"stimulus":[],"xmouse":[790,790,790,790,790,790,790,790,790,790,790,790,790,790,790,790,790,790,790,790,790,790,790,790,790,790,790,790,790,790,790,790,790,790,790,790,790,790,790,790,790,790,790,790,790,790,790,790,790,790,790,790,790,790,790,790,790,790,790,790,790,790,790,790,790,790,790,790,790,790,794,795,799,809,813,817,819,820,820,820,820,820,820,820,820,821,823,824,825,826,826,826,826,826,826,826,826,824,814,804,797,786,780,777,776,774,771,767,748,732,707,686,656,618,598,581,565,550,531,492,481,476,473,472,471,471,472,474,475],"ymouse":[506,506,506,506,506,506,506,506,506,506,506,506,506,506,506,506,506,506,506,506,506,506,506,506,506,506,506,506,506,506,506,506,506,506,506,506,506,506,506,506,506,506,506,506,506,506,506,506,506,506,506,506,506,506,506,506,506,506,506,506,506,506,506,506,506,506,506,506,506,506,505,505,504,502,501,500,499,499,499,499,499,499,499,499,499,499,498,497,496,496,496,496,496,496,496,494,492,483,461,444,427,409,398,393,389,386,381,374,352,337,321,304,276,236,219,206,194,182,169,144,137,133,131,128,121,115,109,101,96],"timestamp_mouse":[14,39,55,74,96,114,134,155,174,194,216,235,254,275,295,315,335,355,374,394,415,434,455,474,494,515,535,554,574,595,615,636,655,675,694,715,735,755,774,795,814,835,855,874,894,915,935,955,975,995,1015,1035,1055,1074,1094,1114,1134,1154,1174,1195,1216,1234,1255,1274,1295,1315,1334,1355,1375,1394,1414,1434,1455,1474,1495,1514,1534,1555,1574,1595,1615,1635,1654,1674,1694,1714,1735,1754,1774,1795,1814,1836,1856,1875,1894,1915,1935,1954,1975,1994,2014,2034,2054,2074,2094,2114,2135,2155,2175,2194,2214,2234,2255,2275,2294,2314,2335,2354,2374,2394,2414,2434,2454,2476,2495,2514,2534,2554,2575],"xSR":741.5,"ySR":469.95,"xT1":424.9,"yT1":0,"xT2":1058.1,"yT2":0,"toosoon":0,"cond_shown":"Incongruent","ratio_trial":100,"L_num":17,"L_den":30,"R_num":10,"R_den":15,"correct_side":2,"subjID":"anasofiavanegas2","gender":"1","school":"4","age":"9"},{"start_time":1552327850545,"click_time":1552327867052,"finger_time":1552327851834,"fix_duration":250,"trial":44,"RT":1289,"MT":15218,"sideResp":1,"stimulus":[],"xmouse":[807,807,807,807,807,807,807,807,807,807,807,807,807,807,807,807,807,807,807,807,807,807,807,807,807,807,807,807,807,807,807,807,807,807,807,807,807,807,807,807,807,807,807,807,807,807,807,807,807,807,807,807,807,807,807,807,805,796,788,787,787,794,812,826,837,849,878,893,905,917,924,933,933,932,931,931,930,921,908,893,881,854,838,822,801,775,736,725,718,711,703,694,680,680,680,680,686,688,691,692,692,692,692,692,692,692,694,699,707,714,718,723,723,723,723,723,726,733,740,747,753,757,758,759,762,763,767,768,768,768,768,768,768,768,768,768,768,768,768,768,769,771,771,771,771,771,771,771,771,771,771,771,771,771,771,771,771,771,771,771,771,771,771,771,771,771,771,771,771,771,771,771,771,771,771,771,771,771,771,771,771,771,771,771,771,771,771,771,771,771,771,771,771,771,771,771,771,771,771,771,771,771,771,771,771,771,771,771,771,775,788,826,863,863,863,863,863,863,863,863,863,863,863,863,863,863,863,863,863,863,863,863,863,863,863,863,864,862,857,855,855,855,855,855,855,855,855,855,855,855,852,848,831,829,829,829,826,816,808,805,805,805,805,805,805,805,805,805,805,804,802,799,795,795,794,794,794,794,794,794,794,794,794,794,794,794,794,794,794,794,794,794,794,794,794,794,794,794,794,794,794,794,794,794,794,793,789,786,779,778,777,777,777,777,777,777,777,777,777,777,777,777,777,778,781,783,785,789,789,789,789,789,789,789,789,789,789,789,789,789,789,789,789,789,789,789,789,789,789,789,789,789,789,789,789,789,789,789,788,788,788,788,788,788,788,788,788,788,788,788,788,788,788,788,788,788,788,788,788,788,788,788,788,788,788,788,788,788,788,788,788,788,788,788,788,788,788,788,788,788,788,788,788,788,788,788,788,788,788,788,788,788,788,788,788,788,788,788,788,788,788,788,788,788,788,788,788,788,788,788,788,788,788,788,788,788,788,788,788,788,788,788,788,788,788,788,788,788,788,788,788,788,788,788,788,788,788,788,788,788,788,788,788,788,788,788,788,788,788,788,788,788,788,788,788,788,788,788,788,788,788,788,788,788,788,788,788,788,788,788,788,788,788,788,788,788,788,788,788,788,788,788,788,788,788,788,788,788,788,788,788,788,788,788,788,788,788,788,788,788,788,788,788,788,788,788,788,788,788,788,788,788,788,788,788,788,788,788,784,782,782,782,782,782,782,782,782,782,782,782,782,782,794,801,803,804,806,815,815,815,815,815,815,815,815,815,815,815,815,815,815,815,815,815,815,815,815,815,815,809,804,799,795,795,795,795,795,795,795,795,795,795,795,795,795,795,794,783,781,779,778,778,778,778,778,778,777,777,776,776,776,776,776,776,776,776,776,776,776,776,776,776,776,776,776,776,776,776,776,776,776,776,776,776,776,776,776,776,776,776,776,776,776,776,776,776,776,776,776,776,776,776,776,776,776,776,776,776,776,776,776,776,776,776,776,776,776,776,776,776,776,776,776,776,776,776,776,776,776,776,777,777,777,777,777,777,778,778,778,778,779,779,779,779,779,779,779,779,779,779,779,779,779,779,779,779,779,779,779,779,779,779,779,779,779,779,779,779,779,779,779,779,779,779,779,779,779,779,779,779,779,779,779,779,779,779,779,779,779,779,779,779,779,779,779,779,779,779,779,779,779,779,779,779,779,779,779,779,779,779,779,779,779,779,779,779,779,779,779,779,779,779,779,779,779,779,779,779,779,779,779,779,779,779,779,779,779,779,779,779,779,779,779,779,779,779,779,779,779,779,779,779,779,779,779,780,782,783,783,783,782,774,750,661,618,597,595,595,595,595,595,597,599,592,534,464],"ymouse":[505,505,505,505,505,505,505,505,505,505,505,505,505,505,505,505,505,505,505,505,505,505,505,505,505,505,505,505,505,505,505,505,505,505,505,505,505,505,505,505,505,505,505,505,505,505,505,505,505,505,505,505,505,505,505,505,505,505,505,505,504,495,484,474,462,444,392,361,333,303,277,229,207,199,197,197,197,197,197,197,197,204,212,223,235,249,277,288,298,313,331,353,408,431,454,480,526,545,561,570,572,572,572,572,572,573,572,559,543,529,521,512,512,512,512,512,512,511,510,509,508,507,507,507,507,507,507,507,507,507,507,507,507,507,507,507,507,507,507,507,507,507,507,507,507,507,507,507,507,507,507,507,507,507,507,507,507,507,507,507,507,507,507,507,507,507,507,507,507,507,507,507,507,507,507,507,507,507,507,507,507,507,507,507,507,507,507,507,507,507,507,507,507,507,507,507,507,507,507,507,507,507,507,507,507,507,507,507,507,507,497,470,454,454,454,454,454,454,454,454,454,454,454,454,454,454,454,454,454,454,454,454,454,454,454,454,454,461,472,479,479,479,480,487,501,515,522,522,522,522,522,522,529,529,529,529,526,508,504,503,503,503,503,503,503,503,503,503,503,503,503,510,521,523,525,526,526,526,527,527,527,527,527,527,527,527,527,527,527,527,527,527,527,527,527,527,527,527,527,527,527,527,527,527,527,524,518,512,502,498,496,496,496,496,496,496,496,496,496,496,496,496,496,497,500,501,504,507,507,507,507,507,507,507,507,507,507,507,507,507,507,507,507,507,507,507,507,507,507,507,507,507,507,507,507,507,507,507,507,507,507,507,507,507,507,507,507,507,507,507,507,507,507,507,507,507,507,507,507,507,507,507,507,507,507,507,507,507,507,507,507,507,507,507,507,507,507,507,507,507,507,507,507,507,507,507,507,507,507,507,507,507,507,507,507,507,507,507,507,507,507,507,507,507,507,507,507,507,507,507,507,507,507,507,507,507,507,507,507,507,507,507,507,507,507,507,507,507,507,507,507,507,507,507,507,507,507,507,507,507,507,507,507,507,507,507,507,507,507,507,507,507,507,507,507,507,507,507,507,507,507,507,507,507,507,507,507,507,507,507,507,507,507,507,507,507,507,507,507,507,507,507,507,507,507,507,507,507,507,507,507,507,507,507,507,507,507,507,507,507,507,507,507,507,507,507,507,507,507,507,507,507,507,507,507,507,498,441,394,387,387,387,387,387,387,387,387,387,387,387,387,387,388,390,392,392,393,396,396,396,396,396,396,396,396,396,396,396,396,396,396,396,396,396,396,396,396,396,415,429,442,454,477,486,491,493,493,493,493,493,493,493,493,493,493,493,493,495,497,498,499,500,500,500,500,500,502,504,509,510,511,512,512,512,512,512,512,512,512,512,512,512,512,512,512,512,512,512,512,512,512,512,512,512,512,512,512,512,512,512,512,512,512,512,512,512,512,512,512,512,512,512,512,512,512,512,512,512,512,512,512,512,512,512,512,512,512,512,512,512,512,512,512,512,512,512,512,511,510,509,508,508,508,508,508,506,506,506,505,504,503,503,503,502,501,501,501,500,500,500,500,500,500,500,500,500,500,500,500,500,500,500,500,500,500,500,500,500,500,500,500,500,500,500,500,500,500,500,500,500,500,500,500,500,500,500,500,500,500,500,500,500,500,500,500,500,500,500,500,500,500,500,500,500,500,500,500,500,500,500,500,500,500,500,500,500,500,500,500,500,500,500,500,500,500,500,500,500,500,500,500,500,499,498,497,497,497,497,497,497,497,497,497,497,497,497,497,497,497,497,497,497,497,497,497,495,494,490,489,489,487,476,394,156,119,117,117,117,117,117,116,111,107,90,56,50],"timestamp_mouse":[12,39,47,68,87,108,127,147,167,188,208,228,247,268,287,308,327,347,368,387,408,427,449,467,489,508,528,547,567,588,608,627,647,668,688,708,727,748,768,788,807,827,848,868,888,908,927,948,967,988,1008,1027,1047,1068,1088,1107,1128,1147,1168,1188,1208,1227,1247,1267,1289,1307,1327,1347,1367,1387,1407,1428,1447,1467,1487,1507,1528,1548,1567,1587,1608,1628,1647,1667,1687,1707,1727,1747,1767,1787,1807,1827,1848,1867,1888,1907,1928,1947,1968,1988,2008,2028,2047,2067,2087,2107,2128,2147,2167,2188,2208,2228,2247,2268,2288,2307,2328,2347,2368,2387,2407,2427,2448,2467,2487,2507,2528,2548,2567,2588,2608,2627,2648,2667,2688,2708,2727,2749,2767,2787,2807,2828,2849,2867,2888,2907,2927,2947,2968,2987,3008,3028,3047,3067,3087,3108,3128,3148,3168,3188,3208,3228,3247,3268,3287,3308,3327,3348,3368,3387,3409,3427,3449,3467,3487,3507,3527,3547,3567,3588,3608,3627,3648,3667,3688,3708,3728,3747,3767,3787,3808,3828,3847,3867,3888,3907,3928,3947,3968,3988,4008,4027,4048,4068,4087,4107,4128,4147,4168,4188,4208,4227,4247,4267,4287,4307,4327,4347,4367,4388,4407,4429,4447,4467,4488,4507,4528,4547,4567,4588,4608,4628,4647,4667,4689,4707,4728,4748,4767,4788,4809,4828,4847,4867,4891,4907,4928,4947,4967,4989,5007,5027,5047,5067,5087,5108,5127,5147,5167,5187,5208,5228,5248,5267,5288,5308,5328,5347,5368,5387,5408,5427,5448,5467,5488,5507,5528,5548,5567,5588,5607,5628,5647,5668,5688,5708,5729,5748,5768,5787,5808,5829,5847,5868,5888,5907,5928,5948,5967,5988,6007,6028,6047,6068,6088,6107,6128,6147,6169,6188,6208,6228,6247,6268,6287,6308,6327,6347,6367,6388,6408,6428,6447,6467,6488,6508,6528,6548,6568,6588,6608,6627,6647,6667,6688,6708,6727,6748,6768,6788,6808,6829,6847,6867,6887,6908,6928,6948,6969,6988,7008,7027,7047,7068,7088,7107,7127,7148,7168,7188,7209,7227,7247,7268,7288,7308,7328,7348,7368,7388,7407,7428,7447,7467,7488,7508,7527,7548,7567,7587,7608,7627,7648,7667,7687,7707,7728,7748,7767,7787,7807,7827,7849,7868,7888,7907,7927,7948,7968,7988,8008,8027,8048,8067,8088,8108,8127,8148,8167,8188,8208,8227,8248,8268,8288,8307,8327,8347,8368,8387,8407,8427,8448,8467,8487,8508,8527,8547,8567,8588,8608,8627,8648,8667,8687,8707,8727,8747,8769,8787,8808,8828,8847,8868,8889,8907,8928,8947,8967,8987,9007,9028,9048,9067,9087,9107,9127,9147,9167,9188,9208,9228,9247,9268,9288,9308,9327,9347,9367,9388,9407,9428,9447,9467,9488,9508,9528,9547,9568,9588,9609,9629,9647,9668,9687,9708,9728,9747,9767,9787,9807,9828,9847,9867,9888,9907,9928,9947,9967,9988,10008,10028,10047,10067,10087,10108,10127,10147,10167,10187,10208,10228,10247,10267,10288,10307,10328,10347,10368,10388,10408,10427,10447,10467,10488,10508,10529,10547,10568,10588,10607,10627,10647,10668,10688,10708,10727,10747,10767,10787,10807,10828,10848,10868,10888,10907,10928,10948,10968,10987,11007,11027,11048,11067,11088,11107,11127,11148,11167,11187,11208,11228,11248,11268,11287,11307,11327,11348,11368,11387,11408,11428,11448,11468,11487,11507,11528,11548,11567,11587,11608,11627,11648,11668,11687,11708,11728,11747,11768,11788,11807,11828,11847,11868,11888,11908,11927,11947,11968,11987,12007,12028,12048,12067,12088,12107,12128,12147,12168,12187,12208,12227,12248,12268,12287,12308,12328,12347,12368,12388,12409,12427,12448,12467,12487,12508,12527,12547,12567,12587,12608,12627,12648,12668,12687,12707,12728,12747,12767,12789,12808,12828,12847,12868,12887,12908,12928,12947,12967,12987,13007,13028,13048,13067,13088,13108,13127,13148,13167,13187,13208,13227,13248,13268,13287,13308,13328,13348,13368,13387,13407,13427,13447,13467,13488,13507,13529,13547,13568,13587,13608,13628,13647,13667,13688,13707,13727,13748,13768,13788,13807,13829,13848,13867,13887,13908,13927,13948,13967,13987,14007,14029,14047,14067,14088,14108,14127,14148,14168,14187,14208,14227,14248,14267,14287,14307,14327,14348,14368,14387,14408,14428,14447,14468,14488,14508,14528,14547,14567,14588,14608,14627,14647,14668,14688,14708,14727,14747,14768,14787,14807,14828,14848,14867,14889,14908,14927,14948,14967,14988,15009,15027,15047,15067,15088,15108,15127,15148,15167,15189,15208,15228,15248,15267,15288,15307,15327,15347,15367,15387,15408,15428,15447,15468,15488,15509,15527,15547,15568,15587,15608,15627,15647,15668,15687,15708,15727,15748,15768,15787,15808,15828,15848,15868,15889,15907,15928,15948,15968,15988,16008,16027,16047,16067,16087,16107,16128,16148,16168,16188,16207,16227,16247,16266,16287,16307,16327,16347,16367,16387,16408,16428,16447,16467,16488,16507],"xSR":741.5,"ySR":469.95,"xT1":424.9,"yT1":0,"xT2":1058.1,"yT2":0,"toosoon":0,"cond_shown":"Incongruent","ratio_trial":200,"L_num":7,"L_den":15,"R_num":4,"R_den":6,"correct_side":2,"subjID":"anasofiavanegas2","gender":"1","school":"4","age":"9"},{"start_time":1552327870442,"click_time":1552327871253,"finger_time":1552327870852,"fix_duration":527.6525002753922,"trial":45,"RT":410,"MT":401,"sideResp":2,"stimulus":[],"xmouse":[794,794,794,794,794,794,794,794,794,794,794,794,794,794,794,794,794,794,795,803,814,838,877,978,1025,1036,1036,1036,1036,1036,1036,1036,1036,1036,1036,1036,1036,1036,1036,1036,1065],"ymouse":[498,498,498,498,498,498,498,498,498,498,498,498,498,498,498,498,498,498,497,473,448,406,332,158,55,10,10,10,10,10,10,10,10,10,10,10,10,10,10,10,17],"timestamp_mouse":[10,36,50,70,90,110,132,152,171,190,211,230,251,271,290,311,331,351,371,391,410,431,450,471,490,511,530,550,571,590,611,631,651,671,690,710,731,751,771,791,811],"xSR":741.5,"ySR":469.95,"xT1":424.9,"yT1":0,"xT2":1058.1,"yT2":0,"toosoon":0,"cond_shown":"Congruent","ratio_trial":200,"L_num":9,"L_den":30,"R_num":13,"R_den":26,"correct_side":2,"subjID":"anasofiavanegas2","gender":"1","school":"4","age":"9"},{"start_time":1552327875440,"click_time":1552327876532,"finger_time":1552327875972,"fix_duration":1386.7884787237379,"trial":46,"RT":532,"MT":560,"sideResp":2,"stimulus":[],"xmouse":[793,793,793,793,793,793,793,793,793,793,793,793,793,793,793,793,793,793,793,793,793,793,793,793,793,793,798,806,822,859,876,890,906,920,930,951,975,975,975,975,975,975,975,975,975,975,975,1043,1051,1055,1057,1057,1057,1057,1060],"ymouse":[529,529,529,529,529,529,529,529,529,529,529,529,529,529,529,529,529,529,529,522,517,511,507,503,491,487,468,441,398,307,271,241,212,189,165,96,19,19,19,19,19,19,19,19,19,19,19,1,55,74,75,75,75,75,80],"timestamp_mouse":[20,41,53,72,92,112,133,152,172,193,213,233,253,272,293,312,333,353,372,392,412,432,453,472,492,512,532,552,572,593,612,633,652,673,692,713,732,752,772,793,813,833,853,873,892,912,933,952,973,992,1013,1033,1053,1073,1092],"xSR":741.5,"ySR":469.95,"xT1":424.9,"yT1":0,"xT2":1058.1,"yT2":0,"toosoon":0,"cond_shown":"Congruent","ratio_trial":100,"L_num":11,"L_den":22,"R_num":6,"R_den":15,"correct_side":1,"subjID":"anasofiavanegas2","gender":"1","school":"4","age":"9"},{"start_time":1552327879251,"click_time":1552327880372,"finger_time":1552327879932,"fix_duration":697.9918594977808,"trial":47,"RT":681,"MT":440,"sideResp":1,"stimulus":[],"xmouse":[782,782,782,782,782,782,782,782,782,782,782,782,782,782,782,782,782,782,782,782,782,782,782,782,782,782,782,782,782,782,782,782,778,762,723,699,673,643,608,549,539,539,539,539,539,539,539,539,539,539,539,539,539,539,539,539,515],"ymouse":[521,521,521,521,521,521,521,521,521,521,521,521,521,521,521,521,521,521,521,521,521,521,521,521,521,521,521,521,521,521,521,516,510,484,412,363,299,231,158,33,14,14,14,14,14,14,14,14,14,14,14,14,14,14,14,14,9],"timestamp_mouse":[10,34,41,62,81,102,122,141,161,182,202,222,243,263,282,301,321,341,361,381,401,421,442,461,482,501,522,543,562,582,602,622,641,662,681,701,721,742,761,782,801,822,841,862,881,902,921,942,962,981,1001,1021,1042,1062,1082,1101,1121],"xSR":741.5,"ySR":469.95,"xT1":424.9,"yT1":0,"xT2":1058.1,"yT2":0,"toosoon":0,"cond_shown":"Incongruent","ratio_trial":100,"L_num":9,"L_den":18,"R_num":6,"R_den":10,"correct_side":2,"subjID":"anasofiavanegas2","gender":"1","school":"4","age":"9"},{"start_time":1552327882494,"click_time":1552327883433,"finger_time":1552327883032,"fix_duration":419.0667021658938,"trial":48,"RT":538,"MT":401,"sideResp":2,"stimulus":[],"xmouse":[777,777,777,777,777,777,777,777,777,777,777,777,777,777,777,777,777,777,777,777,777,778,784,789,799,817,840,914,951,1000,1018,1023,1027,1027,1027,1027,1027,1027,1027,1027,1027,1027,1033,1041,1051,1057,1062],"ymouse":[533,533,533,533,533,533,533,533,533,533,533,533,533,533,533,533,533,533,533,533,533,533,528,521,506,483,445,322,258,161,118,91,74,74,74,74,74,74,74,74,74,73,73,74,75,75,75],"timestamp_mouse":[18,38,59,78,98,119,138,158,179,199,219,239,258,278,298,318,338,359,380,400,418,438,458,479,500,519,538,558,579,598,620,639,658,678,698,719,739,759,778,798,819,838,858,879,898,918,939],"xSR":741.5,"ySR":469.95,"xT1":424.9,"yT1":0,"xT2":1058.1,"yT2":0,"toosoon":0,"cond_shown":"Congruent","ratio_trial":300,"L_num":9,"L_den":10,"R_num":3,"R_den":5,"correct_side":1,"subjID":"anasofiavanegas2","gender":"1","school":"4","age":"9"},{"start_time":1552327885519,"click_time":1552327886253,"finger_time":1552327885912,"fix_duration":1085.2894552333462,"trial":49,"RT":393,"MT":341,"sideResp":1,"stimulus":[],"xmouse":[784,784,784,784,784,784,784,784,784,784,784,784,784,784,784,784,784,782,768,746,712,647,630,618,613,609,607,606,606,601,597,589,585,579,570,560,523],"ymouse":[504,504,504,504,504,504,504,504,504,504,504,504,504,504,504,504,503,500,480,456,420,334,304,279,267,256,251,249,247,239,231,216,205,190,171,149,77],"timestamp_mouse":[14,34,54,74,94,115,133,153,173,195,214,233,254,273,294,315,334,353,374,393,414,433,455,473,493,514,534,555,573,594,614,633,655,673,693,714,734],"xSR":741.5,"ySR":469.95,"xT1":424.9,"yT1":0,"xT2":1058.1,"yT2":0,"toosoon":0,"cond_shown":"Incongruent","ratio_trial":200,"L_num":7,"L_den":10,"R_num":14,"R_den":28,"correct_side":1,"subjID":"anasofiavanegas2","gender":"1","school":"4","age":"9"},{"start_time":1552327887565,"click_time":1552327888154,"finger_time":1552327887873,"fix_duration":250,"trial":50,"RT":308,"MT":281,"sideResp":2,"stimulus":[],"xmouse":[792,792,792,792,793,793,793,793,793,794,794,795,797,799,808,833,849,861,880,922,944,959,973,979,1004,1018,1032,1046,1055,1063],"ymouse":[501,501,501,501,501,500,498,496,495,493,492,491,488,485,474,440,416,402,381,324,293,269,239,215,156,129,105,81,61,46],"timestamp_mouse":[10,33,49,68,87,108,128,147,167,188,208,228,247,269,288,308,327,349,368,389,407,429,448,469,488,509,527,548,567,588],"xSR":741.5,"ySR":469.95,"xT1":424.9,"yT1":0,"xT2":1058.1,"yT2":0,"toosoon":0,"cond_shown":"Incongruent","ratio_trial":200,"L_num":1,"L_den":3,"R_num":2,"R_den":15,"correct_side":1,"subjID":"anasofiavanegas2","gender":"1","school":"4","age":"9"},{"start_time":1552327889609,"click_time":1552327890273,"finger_time":1552327889893,"fix_duration":554.8601351665188,"trial":51,"RT":284,"MT":380,"sideResp":1,"stimulus":[],"xmouse":[791,791,791,791,791,791,791,791,791,791,791,791,791,791,790,782,766,750,729,728,720,710,687,641,627,623,622,622,622,622,619,610,593,522],"ymouse":[500,499,497,497,497,497,495,494,494,493,493,491,488,477,466,450,428,408,381,380,365,343,295,226,208,201,199,199,199,198,193,180,157,81],"timestamp_mouse":[5,25,45,65,84,104,123,144,163,183,203,225,243,265,284,303,323,344,364,384,404,424,443,464,484,505,525,544,563,584,603,624,643,664],"xSR":741.5,"ySR":469.95,"xT1":424.9,"yT1":0,"xT2":1058.1,"yT2":0,"toosoon":0,"cond_shown":"Congruent","ratio_trial":100,"L_num":15,"L_den":25,"R_num":13,"R_den":26,"correct_side":1,"subjID":"anasofiavanegas2","gender":"1","school":"4","age":"9"},{"start_time":1552327896596,"click_time":1552327899553,"finger_time":1552327897292,"fix_duration":741.8342279684015,"trial":52,"RT":696,"MT":2261,"sideResp":1,"stimulus":[],"xmouse":[790,790,790,790,790,790,790,790,790,790,790,790,790,790,790,790,790,790,790,790,790,790,790,790,790,790,790,790,790,790,790,803,814,837,879,893,900,907,917,937,949,963,975,994,996,996,995,995,995,995,995,995,995,996,999,1004,1007,1008,1009,1010,1011,1012,1015,1020,1025,1034,1045,1061,1080,1084,1084,1084,1084,1084,1084,1084,1084,1084,1084,1084,1084,1085,1085,1085,1085,1085,1085,1085,1085,1085,1085,1085,1085,1085,1085,1085,1085,1085,1085,1085,1085,1085,1085,1085,1085,1085,1085,1085,1085,1085,1085,1085,1085,1085,1083,1082,1082,1082,1075,1048,1036,1023,1008,947,905,870,853,842,831,729,650,603,586,583,583,583,583,583,583,583,583,583,583,582,577,565,545,505],"ymouse":[518,518,518,518,518,518,518,518,518,518,518,518,518,518,518,518,518,518,518,518,518,518,518,518,518,518,518,518,518,518,518,516,513,505,487,479,473,466,451,421,404,383,359,311,290,277,268,264,264,264,262,259,254,235,223,212,196,188,182,178,176,173,170,163,157,147,138,126,112,106,105,105,105,105,105,105,105,105,105,105,105,104,104,104,104,104,104,104,104,104,104,104,104,104,104,104,104,104,104,104,104,104,104,104,104,104,104,104,104,104,104,104,104,104,116,123,133,153,170,209,227,245,263,299,313,318,320,319,305,204,148,121,113,111,111,111,111,111,111,111,111,111,111,110,109,104,92,69],"timestamp_mouse":[17,39,57,77,98,118,136,156,177,197,218,237,257,276,298,318,337,357,378,397,418,438,457,478,497,517,538,557,576,598,617,637,656,676,696,717,736,756,777,798,816,837,857,877,896,916,937,956,976,996,1016,1037,1056,1078,1096,1117,1136,1157,1178,1197,1216,1237,1256,1278,1296,1317,1336,1357,1378,1397,1417,1438,1458,1477,1497,1517,1537,1556,1577,1597,1618,1638,1657,1677,1697,1717,1736,1757,1776,1797,1817,1837,1857,1877,1896,1916,1937,1956,1976,1998,2018,2038,2058,2077,2096,2116,2137,2157,2177,2196,2217,2237,2256,2277,2296,2316,2337,2358,2377,2396,2416,2437,2456,2478,2496,2517,2537,2557,2577,2596,2616,2637,2656,2678,2698,2717,2737,2757,2776,2797,2816,2838,2857,2877,2897,2916,2936,2957],"xSR":741.5,"ySR":469.95,"xT1":424.9,"yT1":0,"xT2":1058.1,"yT2":0,"toosoon":0,"cond_shown":"Congruent","ratio_trial":100,"L_num":8,"L_den":16,"R_num":2,"R_den":5,"correct_side":1,"subjID":"anasofiavanegas2","gender":"1","school":"4","age":"9"},{"start_time":1552327904225,"click_time":1552327905193,"finger_time":1552327904793,"fix_duration":1051.127350516497,"trial":53,"RT":568,"MT":400,"sideResp":2,"stimulus":[],"xmouse":[796,796,796,796,796,796,796,796,796,796,795,794,794,794,794,794,794,794,794,794,794,794,794,794,794,793,793,794,811,830,856,909,964,1023,1024,1024,1024,1024,1024,1025,1025,1025,1025,1025,1026,1028,1033,1043,1060],"ymouse":[523,522,521,521,521,521,521,521,521,520,519,516,514,511,511,511,511,511,511,511,511,511,511,511,511,508,505,497,459,425,378,299,201,80,74,73,73,73,73,73,73,73,73,73,73,73,73,74,76],"timestamp_mouse":[11,32,47,68,88,109,128,147,167,188,208,227,249,268,287,309,327,347,367,388,408,428,448,468,488,507,528,547,568,589,607,627,648,668,687,707,728,749,768,787,808,828,849,869,887,907,928,947,968],"xSR":741.5,"ySR":469.95,"xT1":424.9,"yT1":0,"xT2":1058.1,"yT2":0,"toosoon":0,"cond_shown":"Incongruent","ratio_trial":300,"L_num":4,"L_den":20,"R_num":2,"R_den":4,"correct_side":2,"subjID":"anasofiavanegas2","gender":"1","school":"4","age":"9"},{"start_time":1552327906725,"click_time":1552327907332,"finger_time":1552327907232,"fix_duration":250,"trial":54,"RT":507,"MT":100,"sideResp":2,"stimulus":[],"xmouse":[799,799,799,799,799,799,799,799,799,799,799,799,799,799,799,799,799,799,799,799,799,799,799,799,827,863,913,1016,1079,1149,1151],"ymouse":[516,516,516,516,516,516,516,516,517,517,517,517,517,517,517,517,517,517,517,517,517,517,517,516,499,477,439,350,278,124,69],"timestamp_mouse":[12,31,49,69,87,108,127,149,167,188,209,227,248,269,289,309,327,348,368,387,408,427,449,469,487,507,527,548,568,589,607],"xSR":741.5,"ySR":469.95,"xT1":424.9,"yT1":0,"xT2":1058.1,"yT2":0,"toosoon":0,"cond_shown":"Congruent","ratio_trial":200,"L_num":3,"L_den":6,"R_num":14,"R_den":20,"correct_side":2,"subjID":"anasofiavanegas2","gender":"1","school":"4","age":"9"},{"start_time":1552327910625,"click_time":1552327911313,"finger_time":1552327911213,"fix_duration":1250.93963471185,"trial":55,"RT":588,"MT":100,"sideResp":2,"stimulus":[],"xmouse":[805,805,805,805,805,805,805,806,806,806,806,806,806,806,806,806,806,806,806,806,806,806,806,806,806,806,806,806,806,806,823,857,899,961,1101],"ymouse":[498,498,498,498,498,498,497,495,493,488,486,485,483,482,482,481,481,481,481,481,481,481,481,481,481,481,479,477,472,455,417,360,293,204,20],"timestamp_mouse":[8,27,47,69,87,108,129,147,167,188,209,228,249,267,288,309,328,348,369,389,407,428,447,468,489,508,529,548,569,588,607,627,647,668,688],"xSR":741.5,"ySR":469.95,"xT1":424.9,"yT1":0,"xT2":1058.1,"yT2":0,"toosoon":0,"cond_shown":"Incongruent","ratio_trial":100,"L_num":8,"L_den":20,"R_num":1