[{"start_time":1552313004564,"click_time":1552313005606,"finger_time":1552313005046,"fix_duration":1057.7721741536384,"trial":0,"RT":482,"MT":560,"sideResp":1,"stimulus":[],"xmouse":[776,776,776,776,776,776,776,776,776,776,774,773,771,770,768,767,767,767,766,765,759,754,746,735,719,687,671,670,670,668,659,659,659,659,659,659,659,659,659,659,659,659,659,553,551,547,542,542,541,541,537,515],"ymouse":[559,559,559,559,559,559,559,558,558,558,557,555,554,552,551,551,551,551,551,551,548,543,531,507,455,323,218,185,120,35,0,0,0,0,0,0,0,0,0,0,0,0,0,39,62,79,87,87,87,80,67,43],"timestamp_mouse":[9,43,61,81,100,122,140,161,181,202,222,241,262,281,302,322,341,362,380,402,422,442,462,482,501,522,540,562,582,601,620,640,660,681,702,723,741,760,780,801,822,842,861,882,901,922,942,961,982,1001,1021,1041],"xSR":741.5,"ySR":501.8,"xT1":424.9,"yT1":0,"xT2":1058.1,"yT2":0,"toosoon":0,"cond_shown":"Congruent","ratio_trial":300,"L_num":20,"L_den":25,"R_num":8,"R_den":16,"correct_side":1,"subjID":"sarah isabella zamboni vincos 14","gender":"1","age":"10","school":"4","test":{"fix_dur":[250,1500],"timestim":1000,"targets_dim":[100,100],"targets_relative_coord":[0.3,0.7],"size_stim":[880,420],"start_dim":[100,100],"size_start":[300,300],"size_fix":60,"samplingrate":20,"img_types":["Congruent","Incongruent"],"ratios":[100,200,300],"rep_conds":19,"nTrials":120,"trials_to_rest":500,"Trials_order":[40,87,1,11,59,29,25,7,26,31,54,64,103,37,62,8,91,111,35,30,0,75,43,38,9,5,22,28,21,109,52,74,83,107,42,114,86,105,117,53,44,50,98,4,88,10,97,113,115,72,116,79,12,47,101,45,95,71,23,55,17,85,51,3,73,89,57,24,77,56,104,80,19,36,70,118,39,112,34,66,63,41,61,27,46,32,110,93,2,76,13,82,78,65,58,20,96,67,106,84,33,48,18,99,92,108,15,94,90,60,119,6,100,69,49,81,16,68,102,14],"cond_shown":["Congruent","Incongruent","Incongruent","Incongruent","Incongruent","Incongruent","Incongruent","Incongruent","Congruent","Incongruent","Congruent","Congruent","Incongruent","Incongruent","Congruent","Congruent","Incongruent","Incongruent","Incongruent","Congruent","Congruent","Incongruent","Incongruent","Congruent","Incongruent","Incongruent","Congruent","Congruent","Incongruent","Incongruent","Congruent","Congruent","Incongruent","Incongruent","Congruent","Congruent","Congruent","Incongruent","Incongruent","Incongruent","Congruent","Congruent","Congruent","Congruent","Congruent","Congruent","Incongruent","Incongruent","Incongruent","Congruent","Congruent","Incongruent","Congruent","Incongruent","Incongruent","Incongruent","Incongruent","Incongruent","Incongruent","Incongruent","Incongruent","Incongruent","Incongruent","Incongruent","Incongruent","Incongruent","Incongruent","Congruent","Incongruent","Congruent","Congruent","Congruent","Incongruent","Congruent","Congruent","Congruent","Incongruent","Congruent","Congruent","Congruent","Incongruent","Incongruent","Incongruent","Incongruent","Congruent","Congruent","Congruent","Incongruent","Congruent","Congruent","Incongruent","Congruent","Congruent","Incongruent","Congruent","Congruent","Congruent","Incongruent","Congruent","Congruent","Incongruent","Congruent","Congruent","Incongruent","Congruent","Congruent","Incongruent","Congruent","Congruent","Congruent","Incongruent","Congruent","Congruent","Incongruent","Incongruent","Incongruent","Congruent","Congruent","Congruent","Congruent"],"ratio_trial":[300,200,100,300,300,300,100,100,200,100,100,300,100,100,200,200,100,200,300,100,100,200,100,200,200,300,300,300,200,100,300,200,300,300,100,100,200,200,200,300,200,200,200,300,300,300,100,300,100,100,200,100,100,300,300,200,300,300,300,100,300,100,200,200,100,300,200,100,300,200,200,200,100,100,300,300,200,300,300,100,200,300,100,200,300,200,200,200,200,300,100,300,100,300,300,200,100,100,300,100,200,100,100,200,200,100,200,300,100,100,300,100,300,200,100,200,300,200,100,200],"left_num":[20,1,3,13,4,4,13,3,8,4,3,4,6,6,13,6,12,14,8,9,3,7,3,1,4,2,20,5,7,12,4,3,3,7,6,15,1,11,7,4,7,3,12,3,12,4,6,4,8,2,3,9,8,13,13,3,13,13,13,3,1,10,4,4,6,13,7,11,13,3,3,3,3,1,20,24,4,1,4,3,3,4,11,1,7,12,4,7,6,3,8,3,11,13,1,8,15,9,11,12,14,11,1,1,3,1,6,8,9,1,13,11,24,6,17,4,20,6,3,5],"right_num":[8,3,8,12,2,2,6,4,3,8,4,2,11,7,14,7,9,12,9,8,4,6,11,21,6,6,14,7,12,9,13,9,4,8,5,13,21,3,6,2,2,7,6,4,2,2,13,6,6,6,9,6,2,12,12,1,12,12,12,4,2,9,14,1,7,12,12,4,12,7,7,11,8,18,9,2,1,6,1,2,1,6,9,2,20,6,3,6,3,11,6,2,6,12,3,3,13,13,4,13,12,4,3,2,11,3,3,10,8,3,12,4,2,3,10,14,8,11,2,14],"left_den":[25,2,5,26,20,20,26,6,15,8,20,5,10,10,26,12,24,30,10,15,20,15,5,2,5,4,25,25,10,24,20,12,6,10,20,25,2,20,15,20,21,10,15,6,24,5,10,5,16,5,12,18,16,26,26,10,26,26,26,6,2,25,6,30,10,26,10,22,26,10,10,10,5,2,25,30,30,5,10,6,10,5,22,3,14,15,10,15,15,12,16,6,22,26,5,15,25,15,22,30,30,22,2,3,10,2,20,15,15,2,26,22,30,20,30,6,25,20,6,10],"right_den":[16,10,16,15,4,4,10,10,9,20,16,4,22,14,20,10,15,18,18,16,16,9,22,30,10,30,28,14,24,15,26,20,20,20,25,26,30,4,9,4,15,14,10,5,10,4,26,12,10,12,20,10,5,15,15,2,15,15,15,10,10,18,30,3,14,15,24,10,15,14,14,22,16,30,18,4,3,12,10,5,2,12,15,15,25,10,15,9,15,20,10,10,15,15,6,9,26,26,20,26,18,10,5,15,22,5,6,12,16,5,15,10,4,6,15,30,16,22,5,20],"correct_side":[1,1,1,2,2,2,2,1,1,1,2,1,1,1,2,2,2,2,1,1,2,2,1,2,1,1,1,2,1,2,2,2,1,1,1,1,2,2,2,2,1,2,1,2,1,1,1,1,2,2,2,2,1,2,2,2,2,2,2,1,1,2,1,2,1,2,1,1,2,2,2,2,1,2,1,1,2,2,1,1,2,1,2,1,2,1,1,2,1,2,2,1,1,2,2,1,1,1,1,2,2,1,2,1,2,2,2,2,1,2,2,1,1,2,2,1,1,2,1,2],"img_shown":["img2/300/Congruent/L/C_Dist_300_LN_20_LD_25_RN_8_RD_16_0.png","img2/200/Incongruent/L/I_Dist_200_LN_1_LD_2_RN_3_RD_10_0.png","img2/100/Incongruent/L/I_Dist_100_LN_3_LD_5_RN_8_RD_16_0.png","img2/300/Incongruent/R/I_Dist_300_LN_13_LD_26_RN_12_RD_15_1.png","img2/300/Incongruent/R/I_Dist_300_LN_4_LD_20_RN_2_RD_4_1.png","img2/300/Incongruent/R/I_Dist_300_LN_4_LD_20_RN_2_RD_4_1.png","img2/100/Incongruent/R/I_Dist_100_LN_13_LD_26_RN_6_RD_10_1.png","img2/100/Incongruent/L/I_Dist_100_LN_3_LD_6_RN_4_RD_10_0.png","img2/200/Congruent/L/C_Dist_200_LN_8_LD_15_RN_3_RD_9_0.png","img2/100/Incongruent/L/I_Dist_100_LN_4_LD_8_RN_8_RD_20_0.png","img2/100/Congruent/R/C_Dist_100_LN_3_LD_20_RN_4_RD_16_1.png","img2/300/Congruent/L/C_Dist_300_LN_4_LD_5_RN_2_RD_4_0.png","img2/100/Incongruent/L/I_Dist_100_LN_6_LD_10_RN_11_RD_22_0.png","img2/100/Incongruent/L/I_Dist_100_LN_6_LD_10_RN_7_RD_14_0.png","img2/200/Congruent/R/C_Dist_200_LN_13_LD_26_RN_14_RD_20_1.png","img2/200/Congruent/R/C_Dist_200_LN_6_LD_12_RN_7_RD_10_1.png","img2/100/Incongruent/R/I_Dist_100_LN_12_LD_24_RN_9_RD_15_1.png","img2/200/Incongruent/R/I_Dist_200_LN_14_LD_30_RN_12_RD_18_1.png","img2/300/Incongruent/L/I_Dist_300_LN_8_LD_10_RN_9_RD_18_0.png","img2/100/Congruent/L/C_Dist_100_LN_9_LD_15_RN_8_RD_16_0.png","img2/100/Congruent/R/C_Dist_100_LN_3_LD_20_RN_4_RD_16_1.png","img2/200/Incongruent/R/I_Dist_200_LN_7_LD_15_RN_6_RD_9_1.png","img2/100/Incongruent/L/I_Dist_100_LN_3_LD_5_RN_11_RD_22_0.png","img2/200/Congruent/R/C_Dist_200_LN_1_LD_2_RN_21_RD_30_1.png","img2/200/Incongruent/L/I_Dist_200_LN_4_LD_5_RN_6_RD_10_0.png","img2/300/Incongruent/L/I_Dist_300_LN_2_LD_4_RN_6_RD_30_0.png","img2/300/Congruent/L/C_Dist_300_LN_20_LD_25_RN_14_RD_28_0.png","img2/300/Congruent/R/C_Dist_300_LN_5_LD_25_RN_7_RD_14_1.png","img2/200/Incongruent/L/I_Dist_200_LN_7_LD_10_RN_12_RD_24_0.png","img2/100/Incongruent/R/I_Dist_100_LN_12_LD_24_RN_9_RD_15_1.png","img2/300/Congruent/R/C_Dist_300_LN_4_LD_20_RN_13_RD_26_1.png","img2/200/Congruent/R/C_Dist_200_LN_3_LD_12_RN_9_RD_20_1.png","img2/300/Incongruent/L/I_Dist_300_LN_3_LD_6_RN_4_RD_20_0.png","img2/300/Incongruent/L/I_Dist_300_LN_7_LD_10_RN_8_RD_20_0.png","img2/100/Congruent/L/C_Dist_100_LN_6_LD_20_RN_5_RD_25_0.png","img2/100/Congruent/L/C_Dist_100_LN_15_LD_25_RN_13_RD_26_0.png","img2/200/Congruent/R/C_Dist_200_LN_1_LD_2_RN_21_RD_30_1.png","img2/200/Incongruent/R/I_Dist_200_LN_11_LD_20_RN_3_RD_4_1.png","img2/200/Incongruent/R/I_Dist_200_LN_7_LD_15_RN_6_RD_9_1.png","img2/300/Incongruent/R/I_Dist_300_LN_4_LD_20_RN_2_RD_4_1.png","img2/200/Congruent/L/C_Dist_200_LN_7_LD_21_RN_2_RD_15_0.png","img2/200/Congruent/R/C_Dist_200_LN_3_LD_10_RN_7_RD_14_1.png","img2/200/Congruent/L/C_Dist_200_LN_12_LD_15_RN_6_RD_10_0.png","img2/300/Congruent/R/C_Dist_300_LN_3_LD_6_RN_4_RD_5_1.png","img2/300/Congruent/L/C_Dist_300_LN_12_LD_24_RN_2_RD_10_0.png","img2/300/Congruent/L/C_Dist_300_LN_4_LD_5_RN_2_RD_4_0.png","img2/100/Incongruent/L/I_Dist_100_LN_6_LD_10_RN_13_RD_26_0.png","img2/300/Incongruent/L/I_Dist_300_LN_4_LD_5_RN_6_RD_12_0.png","img2/100/Incongruent/R/I_Dist_100_LN_8_LD_16_RN_6_RD_10_1.png","img2/100/Congruent/R/C_Dist_100_LN_2_LD_5_RN_6_RD_12_1.png","img2/200/Congruent/R/C_Dist_200_LN_3_LD_12_RN_9_RD_20_1.png","img2/100/Incongruent/R/I_Dist_100_LN_9_LD_18_RN_6_RD_10_1.png","img2/100/Congruent/L/C_Dist_100_LN_8_LD_16_RN_2_RD_5_0.png","img2/300/Incongruent/R/I_Dist_300_LN_13_LD_26_RN_12_RD_15_1.png","img2/300/Incongruent/R/I_Dist_300_LN_13_LD_26_RN_12_RD_15_1.png","img2/200/Incongruent/R/I_Dist_200_LN_3_LD_10_RN_1_RD_2_1.png","img2/300/Incongruent/R/I_Dist_300_LN_13_LD_26_RN_12_RD_15_1.png","img2/300/Incongruent/R/I_Dist_300_LN_13_LD_26_RN_12_RD_15_1.png","img2/300/Incongruent/R/I_Dist_300_LN_13_LD_26_RN_12_RD_15_1.png","img2/100/Incongruent/L/I_Dist_100_LN_3_LD_6_RN_4_RD_10_0.png","img2/300/Incongruent/L/I_Dist_300_LN_1_LD_2_RN_2_RD_10_0.png","img2/100/Incongruent/R/I_Dist_100_LN_10_LD_25_RN_9_RD_18_1.png","img2/200/Incongruent/L/I_Dist_200_LN_4_LD_6_RN_14_RD_30_0.png","img2/200/Incongruent/R/I_Dist_200_LN_4_LD_30_RN_1_RD_3_1.png","img2/100/Incongruent/L/I_Dist_100_LN_6_LD_10_RN_7_RD_14_0.png","img2/300/Incongruent/R/I_Dist_300_LN_13_LD_26_RN_12_RD_15_1.png","img2/200/Incongruent/L/I_Dist_200_LN_7_LD_10_RN_12_RD_24_0.png","img2/100/Congruent/L/C_Dist_100_LN_11_LD_22_RN_4_RD_10_0.png","img2/300/Incongruent/R/I_Dist_300_LN_13_LD_26_RN_12_RD_15_1.png","img2/200/Congruent/R/C_Dist_200_LN_3_LD_10_RN_7_RD_14_1.png","img2/200/Congruent/R/C_Dist_200_LN_3_LD_10_RN_7_RD_14_1.png","img2/200/Congruent/R/C_Dist_200_LN_3_LD_10_RN_11_RD_22_1.png","img2/100/Incongruent/L/I_Dist_100_LN_3_LD_5_RN_8_RD_16_0.png","img2/100/Congruent/R/C_Dist_100_LN_1_LD_2_RN_18_RD_30_1.png","img2/300/Congruent/L/C_Dist_300_LN_20_LD_25_RN_9_RD_18_0.png","img2/300/Congruent/L/C_Dist_300_LN_24_LD_30_RN_2_RD_4_0.png","img2/200/Incongruent/R/I_Dist_200_LN_4_LD_30_RN_1_RD_3_1.png","img2/300/Congruent/R/C_Dist_300_LN_1_LD_5_RN_6_RD_12_1.png","img2/300/Congruent/L/C_Dist_300_LN_4_LD_10_RN_1_RD_10_0.png","img2/100/Congruent/L/C_Dist_100_LN_3_LD_6_RN_2_RD_5_0.png","img2/200/Incongruent/R/I_Dist_200_LN_3_LD_10_RN_1_RD_2_1.png","img2/300/Incongruent/L/I_Dist_300_LN_4_LD_5_RN_6_RD_12_0.png","img2/100/Incongruent/R/I_Dist_100_LN_11_LD_22_RN_9_RD_15_1.png","img2/200/Incongruent/L/I_Dist_200_LN_1_LD_3_RN_2_RD_15_0.png","img2/300/Congruent/R/C_Dist_300_LN_7_LD_14_RN_20_RD_25_1.png","img2/200/Congruent/L/C_Dist_200_LN_12_LD_15_RN_6_RD_10_0.png","img2/200/Congruent/L/C_Dist_200_LN_4_LD_10_RN_3_RD_15_0.png","img2/200/Incongruent/R/I_Dist_200_LN_7_LD_15_RN_6_RD_9_1.png","img2/200/Congruent/L/C_Dist_200_LN_6_LD_15_RN_3_RD_15_0.png","img2/300/Congruent/R/C_Dist_300_LN_3_LD_12_RN_11_RD_20_1.png","img2/100/Incongruent/R/I_Dist_100_LN_8_LD_16_RN_6_RD_10_1.png","img2/300/Congruent/L/C_Dist_300_LN_3_LD_6_RN_2_RD_10_0.png","img2/100/Congruent/L/C_Dist_100_LN_11_LD_22_RN_6_RD_15_0.png","img2/300/Incongruent/R/I_Dist_300_LN_13_LD_26_RN_12_RD_15_1.png","img2/300/Congruent/R/C_Dist_300_LN_1_LD_5_RN_3_RD_6_1.png","img2/200/Congruent/L/C_Dist_200_LN_8_LD_15_RN_3_RD_9_0.png","img2/100/Congruent/L/C_Dist_100_LN_15_LD_25_RN_13_RD_26_0.png","img2/100/Incongruent/L/I_Dist_100_LN_9_LD_15_RN_13_RD_26_0.png","img2/300/Congruent/L/C_Dist_300_LN_11_LD_22_RN_4_RD_20_0.png","img2/100/Congruent/R/C_Dist_100_LN_12_LD_30_RN_13_RD_26_1.png","img2/200/Incongruent/R/I_Dist_200_LN_14_LD_30_RN_12_RD_18_1.png","img2/100/Congruent/L/C_Dist_100_LN_11_LD_22_RN_4_RD_10_0.png","img2/100/Congruent/R/C_Dist_100_LN_1_LD_2_RN_3_RD_5_1.png","img2/200/Incongruent/L/I_Dist_200_LN_1_LD_3_RN_2_RD_15_0.png","img2/200/Congruent/R/C_Dist_200_LN_3_LD_10_RN_11_RD_22_1.png","img2/100/Congruent/R/C_Dist_100_LN_1_LD_2_RN_3_RD_5_1.png","img2/200/Incongruent/R/I_Dist_200_LN_6_LD_20_RN_3_RD_6_1.png","img2/300/Congruent/R/C_Dist_300_LN_8_LD_15_RN_10_RD_12_1.png","img2/100/Congruent/L/C_Dist_100_LN_9_LD_15_RN_8_RD_16_0.png","img2/100/Congruent/R/C_Dist_100_LN_1_LD_2_RN_3_RD_5_1.png","img2/300/Incongruent/R/I_Dist_300_LN_13_LD_26_RN_12_RD_15_1.png","img2/100/Congruent/L/C_Dist_100_LN_11_LD_22_RN_4_RD_10_0.png","img2/300/Congruent/L/C_Dist_300_LN_24_LD_30_RN_2_RD_4_0.png","img2/200/Incongruent/R/I_Dist_200_LN_6_LD_20_RN_3_RD_6_1.png","img2/100/Incongruent/R/I_Dist_100_LN_17_LD_30_RN_10_RD_15_1.png","img2/200/Incongruent/L/I_Dist_200_LN_4_LD_6_RN_14_RD_30_0.png","img2/300/Congruent/L/C_Dist_300_LN_20_LD_25_RN_8_RD_16_0.png","img2/200/Congruent/R/C_Dist_200_LN_6_LD_20_RN_11_RD_22_1.png","img2/100/Congruent/L/C_Dist_100_LN_3_LD_6_RN_2_RD_5_0.png","img2/200/Congruent/R/C_Dist_200_LN_5_LD_10_RN_14_RD_20_1.png"],"dist100_C":[["C_Dist_100_LN_10_LD_25_RN_3_RD_10_0.png","C_Dist_100_LN_11_LD_22_RN_4_RD_10_0.png","C_Dist_100_LN_11_LD_22_RN_6_RD_15_0.png","C_Dist_100_LN_15_LD_25_RN_13_RD_26_0.png","C_Dist_100_LN_3_LD_6_RN_2_RD_5_0.png","C_Dist_100_LN_6_LD_20_RN_5_RD_25_0.png","C_Dist_100_LN_8_LD_16_RN_2_RD_5_0.png","C_Dist_100_LN_9_LD_15_RN_8_RD_16_0.png"],["C_Dist_100_LN_1_LD_2_RN_18_RD_30_1.png","C_Dist_100_LN_1_LD_2_RN_3_RD_5_1.png","C_Dist_100_LN_12_LD_30_RN_13_RD_26_1.png","C_Dist_100_LN_2_LD_5_RN_11_RD_22_1.png","C_Dist_100_LN_2_LD_5_RN_6_RD_12_1.png","C_Dist_100_LN_3_LD_20_RN_4_RD_16_1.png","C_Dist_100_LN_4_LD_10_RN_15_RD_30_1.png","C_Dist_100_LN_4_LD_8_RN_6_RD_10_1.png","C_Dist_100_LN_6_LD_12_RN_15_RD_25_1.png","C_Dist_100_LN_7_LD_14_RN_15_RD_25_1.png","C_Dist_100_LN_7_LD_14_RN_9_RD_15_1.png"]],"dist100_I":[["I_Dist_100_LN_1_LD_2_RN_8_RD_20_0.png","I_Dist_100_LN_2_LD_4_RN_6_RD_15_0.png","I_Dist_100_LN_2_LD_4_RN_8_RD_20_0.png","I_Dist_100_LN_3_LD_5_RN_11_RD_22_0.png","I_Dist_100_LN_3_LD_5_RN_8_RD_16_0.png","I_Dist_100_LN_3_LD_6_RN_4_RD_10_0.png","I_Dist_100_LN_3_LD_9_RN_7_RD_30_0.png","I_Dist_100_LN_4_LD_8_RN_8_RD_20_0.png","I_Dist_100_LN_6_LD_10_RN_11_RD_22_0.png","I_Dist_100_LN_6_LD_10_RN_13_RD_26_0.png","I_Dist_100_LN_6_LD_10_RN_7_RD_14_0.png","I_Dist_100_LN_9_LD_10_RN_20_RD_25_0.png","I_Dist_100_LN_9_LD_15_RN_13_RD_26_0.png","I_Dist_100_LN_9_LD_15_RN_14_RD_28_0.png"],["I_Dist_100_LN_10_LD_25_RN_8_RD_16_1.png","I_Dist_100_LN_10_LD_25_RN_9_RD_18_1.png","I_Dist_100_LN_11_LD_22_RN_9_RD_15_1.png","I_Dist_100_LN_12_LD_24_RN_9_RD_15_1.png","I_Dist_100_LN_12_LD_30_RN_2_RD_4_1.png","I_Dist_100_LN_13_LD_26_RN_12_RD_20_1.png","I_Dist_100_LN_13_LD_26_RN_6_RD_10_1.png","I_Dist_100_LN_17_LD_30_RN_10_RD_15_1.png","I_Dist_100_LN_6_LD_12_RN_3_RD_5_1.png","I_Dist_100_LN_8_LD_16_RN_6_RD_10_1.png","I_Dist_100_LN_8_LD_20_RN_1_RD_2_1.png","I_Dist_100_LN_9_LD_18_RN_6_RD_10_1.png"]],"dist100_S":[["E_Dist_100_LN_2_LD_12_RN_2_RD_30_0.png","E_Dist_100_LN_6_LD_10_RN_6_RD_12_0.png"],["E_Dist_100_LN_6_LD_12_RN_6_RD_10_1.png"]],"dist200_C":[["C_Dist_200_LN_11_LD_22_RN_3_RD_10_0.png","C_Dist_200_LN_12_LD_15_RN_6_RD_10_0.png","C_Dist_200_LN_12_LD_20_RN_6_RD_15_0.png","C_Dist_200_LN_14_LD_28_RN_6_RD_20_0.png","C_Dist_200_LN_15_LD_25_RN_4_RD_10_0.png","C_Dist_200_LN_16_LD_20_RN_12_RD_20_0.png","C_Dist_200_LN_16_LD_30_RN_9_RD_27_0.png","C_Dist_200_LN_20_LD_25_RN_9_RD_15_0.png","C_Dist_200_LN_21_LD_30_RN_2_RD_4_0.png","C_Dist_200_LN_4_LD_10_RN_3_RD_15_0.png","C_Dist_200_LN_4_LD_8_RN_3_RD_10_0.png","C_Dist_200_LN_6_LD_15_RN_3_RD_15_0.png","C_Dist_200_LN_7_LD_21_RN_2_RD_15_0.png","C_Dist_200_LN_8_LD_15_RN_2_RD_6_0.png","C_Dist_200_LN_8_LD_15_RN_3_RD_9_0.png","C_Dist_200_LN_8_LD_15_RN_7_RD_21_0.png","C_Dist_200_LN_9_LD_20_RN_4_RD_16_0.png"],["C_Dist_200_LN_1_LD_2_RN_21_RD_30_1.png","C_Dist_200_LN_13_LD_26_RN_14_RD_20_1.png","C_Dist_200_LN_3_LD_10_RN_11_RD_22_1.png","C_Dist_200_LN_3_LD_10_RN_14_RD_28_1.png","C_Dist_200_LN_3_LD_10_RN_7_RD_14_1.png","C_Dist_200_LN_3_LD_12_RN_9_RD_20_1.png","C_Dist_200_LN_3_LD_6_RN_14_RD_20_1.png","C_Dist_200_LN_5_LD_10_RN_14_RD_20_1.png","C_Dist_200_LN_6_LD_12_RN_7_RD_10_1.png","C_Dist_200_LN_6_LD_20_RN_11_RD_22_1.png","C_Dist_200_LN_7_LD_15_RN_18_RD_27_1.png","C_Dist_200_LN_9_LD_30_RN_13_RD_26_1.png"]],"dist200_I":[["I_Dist_200_LN_1_LD_2_RN_3_RD_10_0.png","I_Dist_200_LN_1_LD_3_RN_2_RD_15_0.png","I_Dist_200_LN_3_LD_4_RN_11_RD_20_0.png","I_Dist_200_LN_4_LD_5_RN_6_RD_10_0.png","I_Dist_200_LN_4_LD_6_RN_14_RD_30_0.png","I_Dist_200_LN_7_LD_10_RN_12_RD_24_0.png","I_Dist_200_LN_7_LD_10_RN_14_RD_28_0.png","I_Dist_200_LN_7_LD_10_RN_8_RD_16_0.png"],["I_Dist_200_LN_11_LD_20_RN_3_RD_4_1.png","I_Dist_200_LN_14_LD_30_RN_12_RD_18_1.png","I_Dist_200_LN_14_LD_30_RN_6_RD_9_1.png","I_Dist_200_LN_3_LD_10_RN_1_RD_2_1.png","I_Dist_200_LN_4_LD_30_RN_1_RD_3_1.png","I_Dist_200_LN_6_LD_20_RN_3_RD_6_1.png","I_Dist_200_LN_7_LD_15_RN_4_RD_6_1.png","I_Dist_200_LN_7_LD_15_RN_6_RD_9_1.png","I_Dist_200_LN_9_LD_15_RN_8_RD_10_1.png"]],"dist200_S":[["E_Dist_200_LN_3_LD_6_RN_3_RD_10_0.png"],["E_Dist_200_LN_3_LD_10_RN_3_RD_6_1.png"]],"dist300_C":[["C_Dist_300_LN_11_LD_22_RN_1_RD_5_0.png","C_Dist_300_LN_11_LD_22_RN_2_RD_10_0.png","C_Dist_300_LN_11_LD_22_RN_4_RD_20_0.png","C_Dist_300_LN_12_LD_24_RN_2_RD_10_0.png","C_Dist_300_LN_18_LD_20_RN_9_RD_15_0.png","C_Dist_300_LN_20_LD_25_RN_13_RD_26_0.png","C_Dist_300_LN_20_LD_25_RN_14_RD_28_0.png","C_Dist_300_LN_20_LD_25_RN_5_RD_10_0.png","C_Dist_300_LN_20_LD_25_RN_8_RD_16_0.png","C_Dist_300_LN_20_LD_25_RN_9_RD_18_0.png","C_Dist_300_LN_24_LD_30_RN_2_RD_4_0.png","C_Dist_300_LN_24_LD_30_RN_8_RD_16_0.png","C_Dist_300_LN_3_LD_6_RN_2_RD_10_0.png","C_Dist_300_LN_4_LD_10_RN_1_RD_10_0.png","C_Dist_300_LN_4_LD_5_RN_2_RD_4_0.png","C_Dist_300_LN_8_LD_16_RN_1_RD_5_0.png","C_Dist_300_LN_9_LD_10_RN_3_RD_5_0.png"],["C_Dist_300_LN_1_LD_20_RN_7_RD_20_1.png","C_Dist_300_LN_1_LD_3_RN_19_RD_30_1.png","C_Dist_300_LN_1_LD_30_RN_8_RD_24_1.png","C_Dist_300_LN_1_LD_5_RN_11_RD_22_1.png","C_Dist_300_LN_1_LD_5_RN_3_RD_6_1.png","C_Dist_300_LN_1_LD_5_RN_6_RD_12_1.png","C_Dist_300_LN_2_LD_10_RN_12_RD_24_1.png","C_Dist_300_LN_2_LD_20_RN_10_RD_25_1.png","C_Dist_300_LN_3_LD_12_RN_11_RD_20_1.png","C_Dist_300_LN_3_LD_6_RN_4_RD_5_1.png","C_Dist_300_LN_4_LD_20_RN_13_RD_26_1.png","C_Dist_300_LN_5_LD_25_RN_6_RD_12_1.png","C_Dist_300_LN_5_LD_25_RN_7_RD_14_1.png","C_Dist_300_LN_7_LD_14_RN_20_RD_25_1.png","C_Dist_300_LN_8_LD_15_RN_10_RD_12_1.png"]],"dist300_I":[["I_Dist_300_LN_1_LD_2_RN_2_RD_10_0.png","I_Dist_300_LN_1_LD_2_RN_3_RD_15_0.png","I_Dist_300_LN_2_LD_4_RN_6_RD_30_0.png","I_Dist_300_LN_3_LD_6_RN_4_RD_20_0.png","I_Dist_300_LN_4_LD_5_RN_6_RD_12_0.png","I_Dist_300_LN_4_LD_5_RN_8_RD_16_0.png","I_Dist_300_LN_7_LD_10_RN_8_RD_20_0.png","I_Dist_300_LN_8_LD_10_RN_14_RD_28_0.png","I_Dist_300_LN_8_LD_10_RN_9_RD_18_0.png"],["I_Dist_300_LN_13_LD_26_RN_12_RD_15_1.png","I_Dist_300_LN_4_LD_20_RN_2_RD_4_1.png"]],"dist300_S":[["E_Dist_300_LN_9_LD_12_RN_9_RD_20_0.png"],["E_Dist_300_LN_18_LD_30_RN_18_RD_20_1.png","E_Dist_300_LN_3_LD_10_RN_3_RD_5_1.png","E_Dist_300_LN_9_LD_20_RN_9_RD_12_1.png"]],"dist500_C":[["C_Dist_500_LN_10_LD_13_RN_7_RD_26_0.png","C_Dist_500_LN_10_LD_15_RN_4_RD_24_0.png","C_Dist_500_LN_12_LD_16_RN_3_RD_12_0.png","C_Dist_500_LN_12_LD_18_RN_4_RD_24_0.png","C_Dist_500_LN_15_LD_18_RN_5_RD_15_0.png","C_Dist_500_LN_15_LD_20_RN_1_RD_4_0.png","C_Dist_500_LN_18_LD_27_RN_1_RD_6_0.png","C_Dist_500_LN_20_LD_24_RN_1_RD_3_0.png","C_Dist_500_LN_20_LD_24_RN_3_RD_9_0.png","C_Dist_500_LN_20_LD_24_RN_7_RD_21_0.png","C_Dist_500_LN_20_LD_28_RN_3_RD_14_0.png","C_Dist_500_LN_21_LD_28_RN_6_RD_24_0.png","C_Dist_500_LN_22_LD_28_RN_2_RD_7_0.png","C_Dist_500_LN_25_LD_30_RN_9_RD_27_0.png","C_Dist_500_LN_4_LD_6_RN_1_RD_6_0.png","C_Dist_500_LN_5_LD_6_RN_2_RD_6_0.png","C_Dist_500_LN_6_LD_9_RN_1_RD_6_0.png","C_Dist_500_LN_7_LD_10_RN_1_RD_5_0.png","C_Dist_500_LN_8_LD_12_RN_1_RD_6_0.png","C_Dist_500_LN_8_LD_12_RN_4_RD_24_0.png"],["C_Dist_500_LN_1_LD_4_RN_12_RD_16_1.png","C_Dist_500_LN_1_LD_4_RN_9_RD_12_1.png","C_Dist_500_LN_1_LD_9_RN_11_RD_18_1.png","C_Dist_500_LN_10_LD_24_RN_22_RD_24_1.png","C_Dist_500_LN_2_LD_12_RN_10_RD_15_1.png","C_Dist_500_LN_2_LD_12_RN_12_RD_18_1.png","C_Dist_500_LN_2_LD_12_RN_4_RD_6_1.png","C_Dist_500_LN_2_LD_24_RN_7_RD_12_1.png","C_Dist_500_LN_2_LD_5_RN_18_RD_20_1.png","C_Dist_500_LN_2_LD_5_RN_9_RD_10_1.png","C_Dist_500_LN_2_LD_8_RN_12_RD_16_1.png","C_Dist_500_LN_2_LD_8_RN_21_RD_28_1.png","C_Dist_500_LN_3_LD_10_RN_4_RD_5_1.png","C_Dist_500_LN_3_LD_12_RN_15_RD_20_1.png","C_Dist_500_LN_3_LD_30_RN_6_RD_10_1.png","C_Dist_500_LN_3_LD_8_RN_14_RD_16_1.png","C_Dist_500_LN_4_LD_16_RN_15_RD_20_1.png","C_Dist_500_LN_4_LD_24_RN_12_RD_18_1.png","C_Dist_500_LN_5_LD_14_RN_6_RD_7_1.png","C_Dist_500_LN_7_LD_21_RN_20_RD_24_1.png","C_Dist_500_LN_7_LD_28_RN_12_RD_16_1.png","C_Dist_500_LN_7_LD_28_RN_9_RD_12_1.png","C_Dist_500_LN_9_LD_27_RN_20_RD_24_1.png"]],"dist500_I":[["I_Dist_500_LN_2_LD_3_RN_4_RD_24_0.png","I_Dist_500_LN_5_LD_6_RN_6_RD_18_0.png","I_Dist_500_LN_7_LD_8_RN_9_RD_24_0.png"],["I_Dist_500_LN_7_LD_21_RN_5_RD_6_1.png"]],"dist500_S":[["E_Dist_500_LN_6_LD_8_RN_6_RD_24_0.png"],["E_Dist_500_LN_2_LD_12_RN_2_RD_3_1.png","E_Dist_500_LN_6_LD_24_RN_6_RD_8_1.png"]]}},{"start_time":1552313010108,"click_time":1552313011626,"finger_time":1552313010504,"fix_duration":622.2843926775107,"trial":1,"RT":396,"MT":1122,"sideResp":2,"stimulus":[],"xmouse":[794,793,793,793,793,793,793,792,791,789,787,787,786,786,786,786,785,785,782,765,757,754,753,762,805,854,911,974,1041,1197,1239,1239,1239,1239,1239,1239,1239,1239,1239,1239,1239,1239,1239,1239,971,956,956,956,962,964,967,980,1000,1015,1022,1022,1022,1022,1022,1022,1024,1025,1026,1027,1028,1029,1031,1031,1031,1031,1031,1032,1034,1043,1056,1059],"ymouse":[482,483,483,483,483,484,484,485,487,490,493,494,495,495,495,495,494,492,482,447,432,418,405,392,360,338,311,278,236,94,25,25,25,25,25,25,25,25,25,25,25,25,25,25,6,10,10,10,10,10,10,20,32,40,44,44,44,44,44,44,44,44,44,44,45,45,43,42,42,41,41,41,41,41,41,41],"timestamp_mouse":[17,36,59,77,97,118,136,158,177,196,217,237,258,277,298,317,338,358,377,396,418,437,458,478,498,517,536,557,578,597,618,637,656,677,697,717,738,758,778,798,818,838,857,877,897,917,937,957,977,998,1016,1037,1057,1076,1097,1117,1138,1157,1177,1197,1216,1237,1258,1278,1298,1318,1336,1357,1378,1397,1417,1437,1456,1478,1497,1518],"xSR":741.5,"ySR":469.95,"xT1":424.9,"yT1":0,"xT2":1058.1,"yT2":0,"toosoon":0,"cond_shown":"Incongruent","ratio_trial":200,"L_num":1,"L_den":2,"R_num":3,"R_den":10,"correct_side":1,"subjID":"sarah isabella zamboni vincos 14","gender":"1","school":"4","age":"10"},{"start_time":1552313013510,"click_time":1552313015665,"finger_time":1552313013945,"fix_duration":1004.4898811802765,"trial":2,"RT":435,"MT":1720,"sideResp":1,"stimulus":[],"xmouse":[781,781,781,781,780,779,779,778,778,778,778,778,778,778,777,772,760,753,749,746,743,740,738,731,728,723,723,723,723,719,714,706,696,683,677,675,677,688,695,745,799,855,914,957,983,994,988,979,965,930,913,896,879,860,838,802,799,797,797,797,797,797,798,798,798,798,798,798,798,798,798,797,797,797,797,797,797,797,797,797,797,796,796,793,788,761,729,703,673,654,618,608,594,589,593,619,620,619,617,615,608,603,592,579,564,539,526,517],"ymouse":[529,529,529,529,529,529,529,529,529,529,529,529,529,529,529,533,544,551,553,555,551,543,537,529,525,518,516,511,504,490,482,474,469,467,466,467,470,477,481,507,528,549,573,592,606,611,611,611,608,602,598,593,588,582,575,561,558,557,556,554,551,551,549,549,549,548,547,546,545,544,541,539,538,538,538,538,538,538,538,538,538,537,537,536,533,516,492,478,455,440,404,373,322,263,183,87,73,68,66,66,67,67,67,67,67,71,77,80],"timestamp_mouse":[15,45,56,75,95,115,136,155,176,196,216,235,254,274,296,315,336,356,375,395,414,435,454,475,496,515,535,555,575,596,614,636,655,675,696,714,736,755,774,795,814,835,856,876,895,916,934,955,976,997,1015,1036,1055,1075,1095,1115,1134,1155,1175,1195,1215,1235,1254,1276,1295,1315,1335,1356,1375,1395,1415,1436,1455,1476,1496,1515,1536,1556,1576,1595,1615,1636,1656,1676,1694,1716,1736,1755,1775,1795,1814,1835,1856,1874,1895,1915,1934,1955,1975,1996,2015,2035,2056,2076,2096,2115,2135,2155],"xSR":741.5,"ySR":469.95,"xT1":424.9,"yT1":0,"xT2":1058.1,"yT2":0,"toosoon":0,"cond_shown":"Incongruent","ratio_trial":100,"L_num":3,"L_den":5,"R_num":8,"R_den":16,"correct_side":1,"subjID":"sarah isabella zamboni vincos 14","gender":"1","school":"4","age":"10"},{"start_time":1552313017205,"click_time":1552313018785,"finger_time":1552313018325,"fix_duration":379.46274987997396,"trial":3,"RT":1120,"MT":460,"sideResp":2,"stimulus":[],"xmouse":[795,795,795,795,795,795,795,795,795,795,795,795,795,795,795,795,795,795,795,794,793,792,791,790,790,790,790,790,790,790,790,790,790,790,790,790,790,790,790,790,790,790,790,790,790,790,790,790,790,790,790,790,790,791,797,805,831,849,868,885,901,908,908,908,908,910,916,921,927,934,943,958,967,979,995,1012,1057,1082,1104,1121],"ymouse":[507,507,507,507,507,507,507,507,507,508,508,508,508,508,508,508,508,508,508,509,510,510,510,511,511,511,511,511,511,511,511,511,511,511,511,511,511,511,511,511,511,511,511,511,511,511,511,511,511,511,511,511,511,507,500,492,461,440,413,385,352,317,302,291,283,273,259,253,246,239,226,202,191,184,176,168,146,135,117,96],"timestamp_mouse":[9,28,39,61,81,101,121,140,159,181,201,221,241,261,279,300,321,341,360,380,400,420,440,459,481,500,521,540,560,581,600,619,641,660,681,700,721,740,760,780,800,821,839,860,880,900,921,940,961,980,1000,1020,1039,1060,1080,1101,1120,1141,1160,1180,1201,1220,1240,1259,1279,1301,1320,1340,1360,1381,1401,1420,1441,1460,1481,1500,1520,1541,1560,1580],"xSR":741.5,"ySR":469.95,"xT1":424.9,"yT1":0,"xT2":1058.1,"yT2":0,"toosoon":0,"cond_shown":"Incongruent","ratio_trial":300,"L_num":13,"L_den":26,"R_num":12,"R_den":15,"correct_side":2,"subjID":"sarah isabella zamboni vincos 14","gender":"1","school":"4","age":"10"},{"start_time":1552313020076,"click_time":1552313021565,"finger_time":1552313021146,"fix_duration":250,"trial":4,"RT":1070,"MT":419,"sideResp":2,"stimulus":[],"xmouse":[800,799,799,799,799,799,799,801,802,803,804,804,804,804,804,804,804,804,804,804,804,804,802,801,800,800,800,800,800,799,799,799,799,798,798,798,798,798,798,798,798,798,797,797,797,797,797,796,801,809,818,826,834,860,876,902,920,952,962,970,976,981,987,987,989,992,993,995,997,1003,1012,1024,1049,1058,1063],"ymouse":[560,560,560,560,560,559,559,558,557,557,557,557,557,557,557,557,557,557,557,557,556,553,549,549,549,549,549,549,549,549,549,549,549,549,549,549,549,549,549,549,549,549,549,549,549,549,549,549,539,528,516,500,494,451,408,350,312,239,217,193,171,155,138,138,138,138,138,138,136,129,119,111,101,99,99],"timestamp_mouse":[11,30,50,69,88,108,129,149,170,189,209,230,250,269,288,310,329,349,369,389,410,429,448,469,489,509,529,550,569,590,609,629,649,668,688,709,729,748,769,790,809,829,849,870,888,908,929,949,970,989,1009,1029,1049,1070,1090,1108,1129,1150,1168,1190,1209,1229,1250,1268,1289,1308,1329,1349,1368,1389,1408,1429,1450,1468,1489],"xSR":741.5,"ySR":469.95,"xT1":424.9,"yT1":0,"xT2":1058.1,"yT2":0,"toosoon":0,"cond_shown":"Incongruent","ratio_trial":300,"L_num":4,"L_den":20,"R_num":2,"R_den":4,"correct_side":2,"subjID":"sarah isabella zamboni vincos 14","gender":"1","school":"4","age":"10"},{"start_time":1552313025235,"click_time":1552313026285,"finger_time":1552313025805,"fix_duration":1128.2550166974504,"trial":5,"RT":570,"MT":480,"sideResp":2,"stimulus":[],"xmouse":[784,783,783,783,783,783,783,783,783,783,783,783,783,783,783,783,783,783,783,783,783,783,783,782,782,771,760,750,730,704,649,635,632,636,654,763,883,969,1052,1120,1173,1179,1182,1183,1183,1184,1184,1184,1183,1179,1162,1144,1123],"ymouse":[523,522,522,522,522,522,522,522,522,522,522,522,522,522,522,522,522,522,522,522,522,522,522,522,522,518,511,502,489,468,423,403,387,372,356,337,322,302,281,262,232,220,208,196,185,161,150,140,133,124,110,103,97],"timestamp_mouse":[10,31,50,70,91,111,130,150,171,191,210,229,250,271,289,310,331,349,369,390,410,430,450,471,490,510,530,549,570,590,610,630,650,670,690,710,729,750,770,789,809,831,850,869,890,910,930,950,970,991,1012,1031,1050],"xSR":741.5,"ySR":469.95,"xT1":424.9,"yT1":0,"xT2":1058.1,"yT2":0,"toosoon":0,"cond_shown":"Incongruent","ratio_trial":300,"L_num":4,"L_den":20,"R_num":2,"R_den":4,"correct_side":2,"subjID":"sarah isabella zamboni vincos 14","gender":"1","school":"4","age":"10"},{"start_time":1552313027578,"click_time":1552313028726,"finger_time":1552313028246,"fix_duration":250,"trial":6,"RT":668,"MT":480,"sideResp":1,"stimulus":[],"xmouse":[782,782,782,782,782,782,782,782,782,782,782,782,782,782,782,782,783,783,783,782,782,782,782,782,782,782,781,779,774,770,764,758,750,735,728,719,704,684,654,600,577,557,542,527,527,527,527,527,527,527,527,527,527,527,527,527,527,495],"ymouse":[505,505,505,505,505,505,505,505,505,505,505,505,505,505,505,505,505,505,505,504,504,504,504,504,504,504,504,503,501,498,491,484,474,451,438,415,356,296,231,119,74,42,20,2,2,2,2,2,2,2,2,2,2,2,2,2,2,10],"timestamp_mouse":[12,34,47,67,86,107,128,147,167,187,207,227,247,266,286,307,327,348,368,387,408,427,447,468,487,506,527,547,566,588,608,627,648,668,686,706,726,747,767,787,807,827,846,868,887,908,928,947,967,988,1008,1028,1048,1068,1087,1108,1126,1148],"xSR":741.5,"ySR":469.95,"xT1":424.9,"yT1":0,"xT2":1058.1,"yT2":0,"toosoon":0,"cond_shown":"Incongruent","ratio_trial":100,"L_num":13,"L_den":26,"R_num":6,"R_den":10,"correct_side":2,"subjID":"sarah isabella zamboni vincos 14","gender":"1","school":"4","age":"10"},{"start_time":1552313031441,"click_time":1552313032665,"finger_time":1552313032565,"fix_duration":1414.0775953741593,"trial":7,"RT":1124,"MT":100,"sideResp":2,"stimulus":[],"xmouse":[786,785,785,785,785,784,784,784,784,784,784,784,784,784,784,784,784,784,784,784,784,784,784,784,784,784,784,783,784,785,788,789,791,794,797,799,799,799,799,799,799,799,799,799,799,799,798,796,794,792,790,788,788,788,788,792,814,838,879,936,1000,1078],"ymouse":[525,525,525,525,525,525,525,525,525,525,525,525,525,525,525,525,525,525,525,525,525,525,525,525,525,525,525,525,523,522,517,515,510,503,497,489,489,489,488,488,488,488,488,488,488,488,490,492,493,495,498,499,499,499,499,493,461,427,360,276,169,3],"timestamp_mouse":[4,39,44,65,85,104,123,145,163,183,204,224,245,264,283,304,324,344,363,384,403,425,444,463,484,504,523,543,564,584,605,624,645,664,683,705,724,744,765,785,803,825,845,864,883,904,925,945,964,984,1006,1023,1043,1065,1085,1104,1124,1144,1164,1184,1205,1223],"xSR":741.5,"ySR":469.95,"xT1":424.9,"yT1":0,"xT2":1058.1,"yT2":0,"toosoon":0,"cond_shown":"Incongruent","ratio_trial":100,"L_num":3,"L_den":6,"R_num":4,"R_den":10,"correct_side":1,"subjID":"sarah isabella zamboni vincos 14","gender":"1","school":"4","age":"10"},{"start_time":1552313037141,"click_time":1552313038726,"finger_time":1552313038286,"fix_duration":1234.3771706929658,"trial":8,"RT":1145,"MT":440,"sideResp":2,"stimulus":[],"xmouse":[791,791,791,791,791,791,791,791,791,791,791,791,791,791,791,791,791,791,791,791,791,791,791,791,791,791,791,791,791,791,791,791,791,791,791,791,791,791,791,791,791,791,791,791,791,791,791,791,791,791,791,791,791,792,794,797,807,814,823,830,837,850,855,860,865,868,880,887,898,909,922,952,969,988,1002,1025,1049,1059,1068,1074],"ymouse":[531,531,531,531,531,531,531,531,531,531,531,531,531,531,531,531,531,531,531,531,531,531,531,531,531,531,531,531,531,531,531,531,531,531,531,531,531,531,531,531,531,531,531,531,531,531,531,531,531,531,531,531,531,526,519,509,483,469,453,440,432,418,411,405,397,382,355,342,324,306,286,247,228,205,182,153,123,112,104,97],"timestamp_mouse":[11,25,44,64,85,103,124,145,163,185,204,224,244,263,284,305,324,344,363,385,405,424,444,464,485,505,523,544,564,585,604,624,645,665,683,703,723,745,765,785,805,824,845,865,885,905,924,944,964,985,1004,1024,1045,1064,1083,1104,1124,1144,1165,1184,1204,1224,1244,1264,1285,1304,1325,1344,1363,1383,1403,1425,1443,1464,1485,1504,1525,1544,1563,1584],"xSR":741.5,"ySR":469.95,"xT1":424.9,"yT1":0,"xT2":1058.1,"yT2":0,"toosoon":0,"cond_shown":"Congruent","ratio_trial":200,"L_num":8,"L_den":15,"R_num":3,"R_den":9,"correct_side":1,"subjID":"sarah isabella zamboni vincos 14","gender":"1","school":"4","age":"10"},{"start_time":1552313044791,"click_time":1552313045566,"finger_time":1552313045045,"fix_duration":605.6852570365269,"trial":9,"RT":254,"MT":521,"sideResp":1,"stimulus":[],"xmouse":[772,772,772,772,772,770,767,764,762,760,758,754,749,740,705,682,655,636,620,581,574,572,570,570,569,567,565,558,548,534,533,533,536,538,540,540,535,529,523],"ymouse":[494,494,494,494,493,492,490,486,482,479,476,471,465,456,425,409,389,376,363,340,335,331,326,323,320,305,294,277,257,229,210,189,169,149,117,105,96,88,82],"timestamp_mouse":[15,43,54,74,94,115,134,154,174,194,215,235,254,273,294,314,334,355,375,395,414,435,453,474,494,515,534,554,575,594,614,633,653,674,694,714,734,754,775],"xSR":741.5,"ySR":469.95,"xT1":424.9,"yT1":0,"xT2":1058.1,"yT2":0,"toosoon":0,"cond_shown":"Incongruent","ratio_trial":100,"L_num":4,"L_den":8,"R_num":8,"R_den":20,"correct_side":1,"subjID":"sarah isabella zamboni vincos 14","gender":"1","school":"4","age":"10"},{"start_time":1552313046857,"click_time":1552313047745,"finger_time":1552313047164,"fix_duration":349.04240750739456,"trial":10,"RT":307,"MT":581,"sideResp":1,"stimulus":[],"xmouse":[809,809,809,809,809,809,809,809,809,809,808,804,797,782,751,729,683,664,640,620,599,568,557,551,549,550,554,555,556,557,559,561,561,561,561,556,543,531,517,500,488,473,468,464,460],"ymouse":[518,518,518,518,518,518,518,518,518,518,518,517,512,501,479,465,437,421,401,378,356,319,306,297,289,275,253,243,233,222,209,189,182,176,171,165,158,153,148,140,134,123,114,103,94],"timestamp_mouse":[10,28,47,67,87,109,128,147,169,188,209,228,248,268,287,307,328,348,368,389,409,429,447,467,489,508,529,548,568,587,609,629,648,668,689,707,729,747,769,788,808,829,848,869,888],"xSR":741.5,"ySR":469.95,"xT1":424.9,"yT1":0,"xT2":1058.1,"yT2":0,"toosoon":0,"cond_shown":"Congruent","ratio_trial":100,"L_num":3,"L_den":20,"R_num":4,"R_den":16,"correct_side":2,"subjID":"sarah isabella zamboni vincos 14","gender":"1","school":"4","age":"10"},{"start_time":1552313049059,"click_time":1552313050065,"finger_time":1552313049464,"fix_duration":371.3878493359118,"trial":11,"RT":405,"MT":601,"sideResp":2,"stimulus":[],"xmouse":[804,804,804,804,804,804,804,804,804,804,804,804,804,804,804,804,806,809,812,816,820,827,836,842,846,849,850,850,850,850,850,850,856,869,882,894,907,924,930,938,947,958,978,994,1003,1012,1020,1039,1047,1055,1062],"ymouse":[512,512,512,512,512,511,510,510,510,510,510,510,509,509,506,504,497,489,481,470,457,434,416,406,397,393,390,390,390,390,389,387,376,356,340,319,294,243,217,194,172,152,115,88,72,57,45,26,21,15,11],"timestamp_mouse":[9,26,45,66,85,105,126,147,167,186,207,227,247,266,285,305,327,347,366,385,405,427,446,467,487,507,528,545,567,586,606,626,645,666,686,707,727,746,766,786,806,827,845,867,885,907,926,946,966,986,1006],"xSR":741.5,"ySR":469.95,"xT1":424.9,"yT1":0,"xT2":1058.1,"yT2":0,"toosoon":0,"cond_shown":"Congruent","ratio_trial":300,"L_num":4,"L_den":5,"R_num":2,"R_den":4,"correct_side":1,"subjID":"sarah isabella zamboni vincos 14","gender":"1","school":"4","age":"10"},{"start_time":1552313052360,"click_time":1552313053826,"finger_time":1552313053405,"fix_duration":1452.5018244213657,"trial":12,"RT":1045,"MT":421,"sideResp":2,"stimulus":[],"xmouse":[797,797,797,797,797,797,797,797,797,797,797,797,797,797,797,797,797,797,797,797,797,797,797,797,797,797,797,797,797,797,797,797,797,797,797,797,797,797,797,797,797,797,797,797,797,796,796,796,796,797,800,807,830,850,866,881,901,922,928,933,937,940,941,942,944,948,961,983,998,1013,1026,1042,1081,1100],"ymouse":[528,528,528,528,528,528,528,528,528,528,528,528,528,528,528,528,528,528,528,528,528,528,528,528,528,528,528,528,528,528,528,528,528,528,528,528,528,528,528,528,528,528,528,528,528,528,528,526,524,521,517,503,457,418,378,347,303,263,253,246,241,238,237,234,228,222,204,179,165,153,144,132,104,87],"timestamp_mouse":[13,35,45,66,85,106,126,144,165,184,205,225,244,265,284,306,325,346,365,385,405,425,445,465,485,506,525,545,566,585,606,625,646,665,685,705,725,746,765,786,804,825,846,865,884,904,926,945,965,986,1004,1025,1045,1065,1086,1105,1126,1145,1165,1185,1205,1224,1245,1265,1285,1306,1325,1345,1366,1384,1404,1424,1445,1465],"xSR":741.5,"ySR":469.95,"xT1":424.9,"yT1":0,"xT2":1058.1,"yT2":0,"toosoon":0,"cond_shown":"Incongruent","ratio_trial":100,"L_num":6,"L_den":10,"R_num":11,"R_den":22,"correct_side":1,"subjID":"sarah isabella zamboni vincos 14","gender":"1","school":"4","age":"10"},{"start_time":1552313055285,"click_time":1552313057586,"finger_time":1552313057105,"fix_duration":438.53500647334806,"trial":13,"RT":1820,"MT":481,"sideResp":1,"stimulus":[],"xmouse":[805,805,805,805,805,805,805,805,805,805,805,805,805,805,805,805,805,805,805,805,805,805,805,805,805,805,805,805,805,805,805,805,805,805,805,805,805,805,805,805,805,805,805,805,805,805,805,805,805,805,805,805,805,805,805,805,805,805,805,805,805,805,805,805,805,805,805,805,805,805,805,805,805,805,804,804,804,803,803,803,803,803,802,802,800,799,795,787,782,763,721,701,678,656,641,623,616,610,602,596,585,582,578,573,569,566,552,537,527,520,514,513,512,510,509],"ymouse":[534,534,534,534,534,534,534,534,534,534,534,534,534,534,534,534,534,534,534,534,534,534,534,534,534,534,534,534,534,534,534,534,534,534,534,534,534,534,534,534,534,534,534,534,534,534,534,534,534,534,534,534,534,534,535,535,537,537,537,538,538,538,539,539,539,539,539,539,539,539,540,540,540,540,541,541,541,541,541,541,542,542,542,542,542,542,542,542,540,534,514,503,486,464,445,389,363,342,318,306,280,265,252,239,225,215,192,178,169,161,142,130,116,103,88],"timestamp_mouse":[1,42,59,80,101,120,141,159,179,201,221,241,260,279,301,321,340,360,380,401,419,440,460,481,500,520,540,561,581,601,621,639,660,681,701,720,739,759,780,801,819,841,861,880,900,920,939,961,980,1001,1019,1039,1061,1081,1100,1119,1140,1160,1179,1200,1221,1240,1260,1280,1301,1320,1340,1361,1381,1399,1420,1440,1460,1480,1501,1519,1541,1561,1579,1601,1620,1641,1659,1680,1699,1721,1741,1761,1781,1799,1820,1840,1860,1880,1900,1921,1940,1960,1981,1999,2021,2040,2060,2080,2100,2121,2141,2161,2179,2200,2222,2240,2260,2279,2300],"xSR":741.5,"ySR":469.95,"xT1":424.9,"yT1":0,"xT2":1058.1,"yT2":0,"toosoon":0,"cond_shown":"Incongruent","ratio_trial":100,"L_num":6,"L_den":10,"R_num":7,"R_den":14,"correct_side":1,"subjID":"sarah isabella zamboni vincos 14","gender":"1","school":"4","age":"10"},{"start_time":1552313060371,"click_time":1552313061726,"finger_time":1552313061325,"fix_duration":843.9272361850476,"trial":14,"RT":954,"MT":401,"sideResp":2,"stimulus":[],"xmouse":[793,793,793,792,792,792,791,791,790,790,790,790,790,790,790,790,790,790,790,790,789,789,789,789,789,789,789,789,789,789,788,788,787,786,785,785,784,783,782,782,782,782,782,784,786,791,795,810,823,840,856,883,907,913,916,918,920,923,925,926,927,934,956,969,985,1001,1021,1078],"ymouse":[539,540,541,543,544,545,546,548,548,548,548,548,548,548,548,548,548,548,548,548,548,548,548,548,548,548,548,548,548,548,548,548,547,546,545,544,540,539,536,533,531,530,526,522,516,504,489,440,405,363,327,269,216,196,184,175,171,168,168,168,168,166,156,148,136,125,107,57],"timestamp_mouse":[14,35,54,74,94,115,135,153,174,195,213,235,255,275,295,313,334,354,374,395,414,435,454,475,495,514,534,554,574,595,615,634,654,674,693,714,742,753,774,794,813,834,854,873,893,913,935,954,974,994,1013,1034,1053,1074,1094,1113,1134,1153,1174,1194,1215,1234,1254,1274,1294,1314,1335,1355],"xSR":741.5,"ySR":469.95,"xT1":424.9,"yT1":0,"xT2":1058.1,"yT2":0,"toosoon":0,"cond_shown":"Congruent","ratio_trial":200,"L_num":13,"L_den":26,"R_num":14,"R_den":20,"correct_side":2,"subjID":"sarah isabella zamboni vincos 14","gender":"1","school":"4","age":"10"},{"start_time":1552313063563,"click_time":1552313065045,"finger_time":1552313064925,"fix_duration":515.8976038397157,"trial":15,"RT":1362,"MT":120,"sideResp":2,"stimulus":[],"xmouse":[788,788,788,788,788,788,788,788,788,788,788,788,788,788,788,788,788,788,788,788,788,788,788,788,788,788,788,788,788,788,788,788,788,788,788,788,788,788,788,788,788,788,788,788,788,788,788,788,788,788,788,788,788,788,788,788,788,788,788,788,788,789,790,791,795,798,804,809,827,840,855,878,940,991,1099],"ymouse":[516,516,516,516,516,516,516,516,516,516,516,516,516,516,516,516,516,516,516,516,516,516,516,516,516,516,516,516,516,516,516,516,516,516,516,516,516,516,516,516,516,516,516,516,516,516,516,516,516,516,516,516,516,516,516,516,516,516,516,516,516,516,516,514,505,498,487,476,446,428,406,363,280,214,54],"timestamp_mouse":[1,24,46,62,82,103,122,142,163,182,203,223,243,261,282,303,322,341,362,382,403,421,441,463,482,503,523,543,562,582,603,622,643,662,683,703,723,743,763,782,802,822,841,862,883,903,922,942,962,982,1002,1022,1042,1062,1082,1103,1121,1143,1162,1182,1202,1223,1243,1261,1282,1303,1323,1343,1362,1383,1403,1422,1442,1462,1481],"xSR":741.5,"ySR":469.95,"xT1":424.9,"yT1":0,"xT2":1058.1,"yT2":0,"toosoon":0,"cond_shown":"Congruent","ratio_trial":200,"L_num":6,"L_den":12,"R_num":7,"R_den":10,"correct_side":2,"subjID":"sarah isabella zamboni vincos 14","gender":"1","school":"4","age":"10"},{"start_time":1552313068156,"click_time":1552313069245,"finger_time":1552313068705,"fix_duration":689.4842327001969,"trial":16,"RT":549,"MT":540,"sideResp":1,"stimulus":[],"xmouse":[772,772,772,772,772,772,772,772,772,772,772,772,772,773,773,773,773,773,774,774,774,773,772,771,769,769,775,783,794,813,821,826,829,829,824,815,805,791,775,711,676,645,622,608,597,594,591,586,578,568,559,551,540,527,497],"ymouse":[549,549,549,549,549,549,549,549,549,549,549,549,549,549,547,547,546,545,545,545,543,541,538,535,514,499,481,462,441,378,345,314,292,270,237,229,223,222,222,232,235,235,232,226,217,213,209,203,191,170,156,137,121,104,73],"timestamp_mouse":[13,28,49,69,89,110,129,150,168,189,210,230,248,270,290,309,328,349,370,390,409,428,448,470,490,508,528,549,569,589,610,629,649,669,689,709,729,749,769,789,810,830,850,870,889,910,929,949,969,988,1010,1029,1050,1069,1089],"xSR":741.5,"ySR":469.95,"xT1":424.9,"yT1":0,"xT2":1058.1,"yT2":0,"toosoon":0,"cond_shown":"Incongruent","ratio_trial":100,"L_num":12,"L_den":24,"R_num":9,"R_den":15,"correct_side":2,"subjID":"sarah isabella zamboni vincos 14","gender":"1","school":"4","age":"10"},{"start_time":1552313072279,"click_time":1552313073246,"finger_time":1552313072685,"fix_duration":912.7292485310878,"trial":17,"RT":406,"MT":561,"sideResp":1,"stimulus":[],"xmouse":[807,807,807,807,807,807,807,807,807,807,807,807,807,807,807,807,807,805,794,773,717,621,486,418,365,360,359,359,367,377,383,385,388,391,392,394,396,396,399,400,400,400,399,389,389,396,408,424,461],"ymouse":[521,521,521,521,521,521,521,521,521,521,521,521,521,521,521,521,521,521,521,515,489,452,427,417,399,395,393,388,377,367,362,360,357,354,353,352,351,348,337,329,317,299,267,217,195,172,151,129,91],"timestamp_mouse":[7,25,51,66,85,107,126,146,167,187,206,227,247,266,287,307,326,346,365,386,406,426,447,466,485,506,527,546,566,585,606,627,647,666,685,706,727,746,767,786,806,827,846,867,886,906,926,947,967],"xSR":741.5,"ySR":469.95,"xT1":424.9,"yT1":0,"xT2":1058.1,"yT2":0,"toosoon":0,"cond_shown":"Incongruent","ratio_trial":200,"L_num":14,"L_den":30,"R_num":12,"R_den":18,"correct_side":2,"subjID":"sarah isabella zamboni vincos 14","gender":"1","school":"4","age":"10"},{"start_time":1552313075021,"click_time":1552313076405,"finger_time":1552313075166,"fix_duration":492.1967497184435,"trial":18,"RT":145,"MT":1239,"sideResp":2,"stimulus":[],"xmouse":[798,798,798,798,798,800,803,803,804,805,807,811,814,815,819,822,824,825,825,825,825,825,825,825,825,825,824,823,821,818,815,812,805,805,807,809,815,849,881,932,983,1005,1005,1005,1005,1005,1005,1005,1005,1005,1005,1005,1005,1005,1022,1026,1027,1030,1030,1031,1031,1032,1032,1032,1032,1034,1037,1048,1054,1061],"ymouse":[505,503,500,494,489,483,474,468,467,464,462,456,450,447,439,431,424,419,418,418,418,418,418,418,418,418,418,421,426,432,441,447,459,467,472,472,470,439,393,319,231,108,48,12,12,12,12,12,12,12,12,12,12,12,18,26,28,29,29,29,29,29,29,29,29,29,29,32,34,35],"timestamp_mouse":[4,24,44,64,84,104,125,145,164,184,204,226,244,264,284,305,324,344,363,383,404,425,445,465,485,505,525,545,563,584,605,624,644,664,685,705,723,743,764,785,805,825,843,864,884,903,925,943,965,984,1005,1025,1044,1063,1085,1104,1125,1144,1165,1184,1203,1225,1245,1272,1285,1303,1324,1345,1364,1383],"xSR":741.5,"ySR":469.95,"xT1":424.9,"yT1":0,"xT2":1058.1,"yT2":0,"toosoon":0,"cond_shown":"Incongruent","ratio_trial":300,"L_num":8,"L_den":10,"R_num":9,"R_den":18,"correct_side":1,"subjID":"sarah isabella zamboni vincos 14","gender":"1","school":"4","age":"10"},{"start_time":1552313078498,"click_time":1552313080666,"finger_time":1552313078565,"fix_duration":852.0641988261549,"trial":19,"RT":67,"MT":2101,"sideResp":1,"stimulus":[],"xmouse":[774,773,772,769,765,761,755,748,739,736,736,735,735,734,732,730,728,728,728,728,728,729,735,747,752,759,765,770,789,795,799,802,804,806,808,809,811,815,819,819,819,819,819,819,819,819,819,819,818,818,815,813,810,794,777,757,735,696,659,651,648,648,648,648,648,648,648,641,635,615,608,601,599,595,593,592,589,584,579,575,572,569,566,545,535,524,513,499,479,470,463,458,454,452,452,455,466,485,519,541,560,580,586,583,581,577,569,553,498],"ymouse":[481,478,476,465,457,447,440,431,423,423,423,423,423,421,420,419,418,418,418,418,418,418,420,425,428,433,436,440,452,455,457,459,461,465,468,469,471,473,476,476,476,477,478,479,479,480,481,482,484,484,484,484,485,481,473,465,451,426,397,391,388,387,386,385,382,377,371,358,347,313,300,289,281,270,269,268,265,261,254,249,245,240,236,225,220,215,211,205,197,193,190,186,183,180,177,172,164,147,123,108,95,83,76,69,66,66,68,74,83],"timestamp_mouse":[10,26,49,67,88,108,128,147,166,186,208,226,247,266,287,307,327,348,366,386,407,427,448,468,486,507,528,547,566,586,608,627,647,667,687,708,727,747,767,787,807,827,846,867,888,907,926,947,967,987,1008,1027,1047,1067,1087,1108,1127,1147,1167,1186,1208,1227,1247,1267,1287,1307,1328,1347,1367,1388,1407,1426,1448,1467,1488,1507,1528,1548,1567,1587,1607,1627,1647,1667,1687,1708,1727,1747,1767,1788,1807,1826,1848,1868,1887,1908,1928,1947,1967,1986,2008,2026,2047,2067,2086,2108,2127,2147,2167],"xSR":741.5,"ySR":469.95,"xT1":424.9,"yT1":0,"xT2":1058.1,"yT2":0,"toosoon":0,"cond_shown":"Congruent","ratio_trial":100,"L_num":9,"L_den":15,"R_num":8,"R_den":16,"correct_side":1,"subjID":"sarah isabella zamboni vincos 14","gender":"1","school":"4","age":"10"},{"start_time":1552313084961,"click_time":1552313086806,"finger_time":1552313086084,"fix_duration":1133.7939548379827,"trial":20,"RT":1123,"MT":722,"sideResp":2,"stimulus":[],"xmouse":[777,777,778,779,781,784,787,789,791,792,792,792,792,792,792,792,792,792,792,792,791,790,788,787,787,786,786,785,784,783,783,781,779,778,777,777,777,777,777,777,777,777,777,777,777,777,777,777,777,777,775,775,776,779,784,791,803,807,812,817,829,842,857,871,885,900,939,959,980,986,974,934,928,928,941,953,983,983,983,983,983,983,983,983,983,1046,1048,1048,1049,1049,1051,1056,1061],"ymouse":[530,530,530,530,530,530,529,528,526,525,525,525,525,525,524,523,517,515,514,513,510,508,506,505,503,503,503,502,502,502,502,503,507,510,512,512,512,512,512,512,512,512,512,512,512,512,512,512,512,512,512,512,507,502,496,485,465,456,449,438,420,394,367,344,317,291,220,190,158,136,103,63,48,34,20,10,2,2,2,2,2,2,2,2,2,0,2,2,3,5,7,15,18],"timestamp_mouse":[12,35,44,65,84,105,124,145,164,185,204,225,244,263,284,305,325,345,365,384,406,425,445,464,484,504,525,543,565,585,604,625,645,664,684,704,725,744,765,783,805,824,845,865,884,905,924,943,965,985,1003,1023,1044,1065,1085,1105,1123,1145,1165,1184,1205,1224,1245,1264,1284,1304,1323,1345,1364,1384,1404,1424,1444,1464,1484,1505,1523,1544,1564,1584,1604,1625,1644,1664,1684,1704,1723,1744,1764,1784,1804,1824,1844],"xSR":741.5,"ySR":469.95,"xT1":424.9,"yT1":0,"xT2":1058.1,"yT2":0,"toosoon":0,"cond_shown":"Congruent","ratio_trial":100,"L_num":3,"L_den":20,"R_num":4,"R_den":16,"correct_side":2,"subjID":"sarah isabella zamboni vincos 14","gender":"1","school":"4","age":"10"},{"start_time":1552313088576,"click_time":1552313090546,"finger_time":1552313089985,"fix_duration":250,"trial":21,"RT":1409,"MT":561,"sideResp":2,"stimulus":[],"xmouse":[813,813,813,813,813,813,813,813,813,813,813,813,813,813,813,813,813,813,813,813,813,813,814,814,814,814,814,814,814,814,814,814,814,814,814,814,814,814,814,814,814,814,814,814,814,814,814,814,814,815,817,817,818,818,818,818,819,819,819,819,819,819,819,819,819,820,823,824,827,838,858,876,893,920,941,980,995,1007,1024,1036,1051,1051,1051,1051,1051,1051,1051,1051,1051,1051,1051,1051,1051,1051,1051,1051,1051,1051,1077],"ymouse":[525,525,525,525,525,525,526,526,526,526,526,526,526,526,526,526,526,526,526,526,526,526,526,526,526,526,526,526,526,526,526,526,526,526,526,526,526,526,526,526,526,526,526,526,526,526,526,526,526,526,524,523,522,522,522,521,520,519,519,519,519,519,519,519,518,517,513,512,505,487,432,372,322,264,221,165,141,121,86,58,13,13,13,13,13,13,13,13,13,13,13,13,13,13,13,13,13,13,7],"timestamp_mouse":[10,42,49,70,89,108,129,150,168,189,210,229,249,268,289,309,329,349,368,390,410,429,450,470,489,509,529,550,570,589,609,629,649,669,689,709,729,748,769,790,808,829,850,869,890,910,929,950,970,989,1010,1030,1050,1069,1090,1109,1129,1149,1170,1189,1209,1228,1250,1270,1289,1309,1328,1349,1369,1388,1409,1428,1449,1470,1490,1509,1529,1549,1569,1589,1609,1629,1649,1669,1688,1709,1729,1749,1770,1788,1810,1829,1849,1869,1890,1909,1929,1949,1970],"xSR":741.5,"ySR":469.95,"xT1":424.9,"yT1":0,"xT2":1058.1,"yT2":0,"toosoon":0,"cond_shown":"Incongruent","ratio_trial":200,"L_num":7,"L_den":15,"R_num":6,"R_den":9,"correct_side":2,"subjID":"sarah isabella zamboni vincos 14","gender":"1","school":"4","age":"10"},{"start_time":1552313105882,"click_time":1552313107006,"finger_time":1552313106425,"fix_duration":514.9620031521424,"trial":22,"RT":543,"MT":581,"sideResp":2,"stimulus":[],"xmouse":[791,791,791,791,791,791,791,791,791,791,791,791,791,792,792,792,792,794,794,795,795,796,796,797,798,800,808,831,857,886,924,957,1030,1045,1045,1045,1045,1045,1045,1045,1045,1045,1045,1045,1045,1045,1045,1045,1045,1045,1045,1045,1230,1219,1209,1191,1104],"ymouse":[519,520,520,521,521,521,521,521,521,521,521,521,521,522,522,522,523,523,522,521,519,519,518,516,516,514,507,468,425,350,274,193,36,0,0,0,0,0,0,0,0,0,0,0,0,0,0,0,0,0,0,0,0,7,12,21,45],"timestamp_mouse":[3,25,45,63,84,104,123,144,164,183,204,224,243,262,284,304,324,342,364,383,404,424,443,463,484,504,524,543,562,583,604,624,643,664,684,703,724,744,763,783,804,823,843,863,882,904,923,943,964,983,1003,1024,1043,1063,1084,1104,1124],"xSR":741.5,"ySR":469.95,"xT1":424.9,"yT1":0,"xT2":1058.1,"yT2":0,"toosoon":0,"cond_shown":"Incongruent","ratio_trial":100,"L_num":3,"L_den":5,"R_num":11,"R_den":22,"correct_side":1,"subjID":"sarah isabella zamboni vincos 14","gender":"1","school":"4","age":"10"},{"start_time":1552313110227,"click_time":1552313110866,"finger_time":1552313110765,"fix_duration":439.96005248593684,"trial":23,"RT":538,"MT":101,"sideResp":1,"stimulus":[],"xmouse":[791,791,791,791,791,791,791,790,789,788,787,787,787,787,787,787,787,787,787,787,786,785,785,785,782,766,755,736,710,610,548,488],"ymouse":[528,528,528,528,528,528,528,529,530,531,531,531,531,531,531,531,531,531,531,531,531,532,532,532,530,480,434,374,304,160,106,63],"timestamp_mouse":[27,51,59,79,98,118,137,159,177,198,218,238,258,279,298,319,339,358,379,398,418,439,459,478,499,517,538,559,578,600,617,639],"xSR":741.5,"ySR":469.95,"xT1":424.9,"yT1":0,"xT2":1058.1,"yT2":0,"toosoon":0,"cond_shown":"Congruent","ratio_trial":200,"L_num":1,"L_den":2,"R_num":21,"R_den":30,"correct_side":2,"subjID":"sarah isabella zamboni vincos 14","gender":"1","school":"4","age":"10"},{"start_time":1552313113118,"click_time":1552313114745,"finger_time":1552313114444,"fix_duration":371.4535114224089,"trial":24,"RT":1326,"MT":301,"sideResp":2,"stimulus":[],"xmouse":[801,801,801,801,801,801,801,801,801,801,801,801,801,801,801,801,801,801,801,801,801,801,801,801,801,801,801,801,801,801,801,795,795,794,794,794,794,794,794,794,794,794,794,794,794,794,794,794,794,794,794,794,794,794,794,794,794,794,794,794,794,794,794,794,802,809,866,911,971,1040,1077,1116,1121,1125,1126,1126,1128,1130,1134,1140,1144,1155],"ymouse":[520,520,520,520,520,520,520,520,520,520,520,520,520,520,520,520,520,520,520,520,520,520,520,520,520,520,520,520,520,522,525,533,535,535,535,535,535,535,535,535,535,535,535,535,535,535,535,535,535,536,536,536,536,536,536,536,536,536,536,536,536,536,536,536,528,519,474,441,395,338,306,271,262,254,247,238,215,200,180,145,134,88],"timestamp_mouse":[11,39,47,68,87,108,128,148,167,187,207,228,247,268,288,308,328,346,367,387,408,428,448,468,488,506,527,548,568,587,608,626,647,668,687,708,727,748,768,787,807,828,848,867,886,908,928,948,967,988,1007,1028,1047,1067,1087,1108,1128,1147,1168,1187,1208,1228,1247,1268,1287,1307,1326,1348,1367,1387,1407,1427,1448,1467,1487,1507,1527,1547,1568,1587,1608,1627],"xSR":741.5,"ySR":469.95,"xT1":424.9,"yT1":0,"xT2":1058.1,"yT2":0,"toosoon":0,"cond_shown":"Incongruent","ratio_trial":200,"L_num":4,"L_den":5,"R_num":6,"R_den":10,"correct_side":1,"subjID":"sarah isabella zamboni vincos 14","gender":"1","school":"4","age":"10"},{"start_time":1552313117063,"click_time":1552313118286,"finger_time":1552313117766,"fix_duration":1215.4141779392187,"trial":25,"RT":703,"MT":520,"sideResp":1,"stimulus":[],"xmouse":[807,807,807,807,807,807,807,807,807,807,807,807,807,807,806,806,805,804,803,803,799,797,796,795,795,795,795,795,795,795,795,793,789,782,763,747,734,721,714,707,689,677,669,664,651,643,632,621,606,572,550,519,500,488,473,469,466,464,462,461,461,468],"ymouse":[531,531,531,531,531,531,531,531,531,530,530,530,529,529,528,528,527,527,524,523,521,519,518,517,517,517,517,517,517,517,516,516,511,505,478,445,396,340,309,289,259,245,238,235,229,227,224,223,221,216,213,208,206,204,200,197,194,188,185,150,112,15],"timestamp_mouse":[2,37,42,63,82,103,123,142,162,182,203,222,242,263,283,303,323,342,362,381,402,422,442,461,483,502,523,542,563,583,602,622,642,662,682,703,722,743,762,783,801,823,842,863,883,901,922,942,962,983,1002,1022,1043,1062,1083,1103,1123,1142,1163,1182,1203,1223],"xSR":741.5,"ySR":469.95,"xT1":424.9,"yT1":0,"xT2":1058.1,"yT2":0,"toosoon":0,"cond_shown":"Incongruent","ratio_trial":300,"L_num":2,"L_den":4,"R_num":6,"R_den":30,"correct_side":1,"subjID":"sarah isabella zamboni vincos 14","gender":"1","school":"4","age":"10"},{"start_time":1552313120712,"click_time":1552313122285,"finger_time":1552313121164,"fix_duration":1464.9767945926908,"trial":26,"RT":452,"MT":1121,"sideResp":1,"stimulus":[],"xmouse":[796,796,796,796,796,796,796,796,796,796,796,795,794,794,793,793,793,790,788,786,783,778,766,761,757,756,755,752,751,747,742,733,712,699,685,676,668,639,625,610,596,584,560,553,546,541,537,520,510,503,491,477,424,381,338,309,295,293,296,308,334,395,560,632,713,765,800,810,810,810,810,810,802,791,769,736,652,535,475],"ymouse":[520,520,520,520,520,520,520,520,520,521,521,521,521,521,521,521,521,520,518,514,503,488,459,448,441,438,434,416,408,398,386,374,349,336,322,312,303,278,267,255,242,228,200,192,184,181,180,178,174,170,167,164,162,162,157,152,149,141,136,124,112,90,57,48,39,39,39,43,43,43,43,44,56,67,78,87,97,97,97],"timestamp_mouse":[13,42,52,74,93,113,134,153,173,193,213,233,253,274,294,313,333,353,374,393,414,432,452,473,493,513,533,552,573,592,613,633,652,673,693,712,734,754,773,792,813,833,854,873,893,913,932,953,973,993,1014,1033,1053,1074,1094,1113,1134,1153,1173,1194,1213,1234,1253,1274,1294,1313,1334,1353,1374,1394,1413,1433,1452,1472,1494,1513,1534,1553,1573],"xSR":741.5,"ySR":469.95,"xT1":424.9,"yT1":0,"xT2":1058.1,"yT2":0,"toosoon":0,"cond_shown":"Congruent","ratio_trial":300,"L_num":20,"L_den":25,"R_num":14,"R_den":28,"correct_side":1,"subjID":"sarah isabella zamboni vincos 14","gender":"1","school":"4","age":"10"},{"start_time":1552313123617,"click_time":1552313124526,"finger_time":1552313124245,"fix_duration":250,"trial":27,"RT":628,"MT":281,"sideResp":2,"stimulus":[],"xmouse":[794,794,794,794,794,794,794,794,794,794,795,795,796,797,797,797,797,798,798,798,798,798,798,798,799,799,802,807,809,820,826,846,898,932,964,988,1008,1049,1064,1078,1090,1101,1106,1112,1119,1123],"ymouse":[518,518,518,518,518,518,518,518,518,518,518,518,518,517,517,517,517,516,516,516,516,516,516,516,516,515,514,511,509,498,491,467,403,363,330,308,290,256,240,225,211,192,177,143,118,94],"timestamp_mouse":[14,29,48,69,88,109,129,149,169,188,207,229,248,268,288,307,328,348,369,388,409,428,449,469,488,508,529,548,568,587,608,628,648,669,688,709,728,749,768,788,808,827,848,868,888,909],"xSR":741.5,"ySR":469.95,"xT1":424.9,"yT1":0,"xT2":1058.1,"yT2":0,"toosoon":0,"cond_shown":"Congruent","ratio_trial":300,"L_num":5,"L_den":25,"R_num":7,"R_den":14,"correct_side":2,"subjID":"sarah isabella zamboni vincos 14","gender":"1","school":"4","age":"10"},{"start_time":1552313127006,"click_time":1552313128005,"finger_time":1552313127566,"fix_duration":1298.5484345078705,"trial":28,"RT":560,"MT":439,"sideResp":1,"stimulus":[],"xmouse":[786,786,786,789,793,795,795,795,795,796,796,796,796,796,796,796,796,796,796,796,796,796,796,795,794,794,792,788,769,726,669,597,510,344,280,242,220,214,212,213,216,216,216,216,216,216,216,216,216,410,436],"ymouse":[541,535,525,505,497,495,494,494,494,493,493,493,493,493,493,493,493,493,493,493,493,493,493,494,494,494,494,494,462,385,301,225,162,81,57,46,39,33,20,10,2,2,2,2,2,2,2,2,2,5,19],"timestamp_mouse":[1,20,46,60,79,100,118,139,159,180,199,218,239,260,279,300,319,339,360,378,400,420,440,459,480,499,519,539,560,579,599,620,638,660,679,698,719,740,761,778,799,819,839,860,879,899,920,939,960,980,999],"xSR":741.5,"ySR":469.95,"xT1":424.9,"yT1":0,"xT2":1058.1,"yT2":0,"toosoon":0,"cond_shown":"Incongruent","ratio_trial":200,"L_num":7,"L_den":10,"R_num":12,"R_den":24,"correct_side":1,"subjID":"sarah isabella zamboni vincos 14","gender":"1","school":"4","age":"10"},{"start_time":1552313130673,"click_time":1552313131365,"finger_time":1552313131165,"fix_duration":1486.5793376617844,"trial":29,"RT":492,"MT":200,"sideResp":1,"stimulus":[],"xmouse":[806,806,806,806,806,806,806,806,806,806,806,806,806,806,806,806,806,806,805,804,801,798,782,777,761,716,686,652,623,591,531,496,460,440,434],"ymouse":[502,502,502,502,502,498,496,496,496,495,494,494,494,494,494,494,494,494,492,491,488,485,474,471,460,430,404,370,342,312,252,209,160,119,88],"timestamp_mouse":[13,43,52,72,92,112,132,152,173,192,211,231,253,273,292,313,333,352,373,393,411,432,452,472,492,511,533,553,572,591,612,632,653,671,692],"xSR":741.5,"ySR":469.95,"xT1":424.9,"yT1":0,"xT2":1058.1,"yT2":0,"toosoon":0,"cond_shown":"Incongruent","ratio_trial":100,"L_num":12,"L_den":24,"R_num":9,"R_den":15,"correct_side":2,"subjID":"sarah isabella zamboni vincos 14","gender":"1","school":"4","age":"10"},{"start_time":1552313139083,"click_time":1552313140205,"finger_time":1552313139704,"fix_duration":1097.3668646572796,"trial":30,"RT":621,"MT":501,"sideResp":1,"stimulus":[],"xmouse":[781,784,784,784,788,790,792,795,796,798,801,801,802,802,802,802,803,803,803,803,803,803,802,801,801,801,800,800,800,800,800,802,807,814,822,832,856,863,868,870,870,851,838,825,816,811,804,793,777,756,731,679,580,528,494,469,438],"ymouse":[526,525,524,524,521,520,519,515,515,513,511,511,511,511,510,510,509,509,508,507,506,499,494,490,488,485,482,481,480,477,473,461,453,441,428,410,373,357,341,320,316,297,292,287,285,282,278,272,264,250,233,207,164,140,125,113,98],"timestamp_mouse":[2,23,54,62,83,102,122,141,162,182,202,223,241,262,283,302,323,343,363,383,402,422,442,462,482,502,522,543,561,582,602,621,643,662,681,703,721,742,762,782,802,822,843,862,883,902,922,942,962,981,1003,1022,1042,1062,1083,1102,1122],"xSR":741.5,"ySR":469.95,"xT1":424.9,"yT1":0,"xT2":1058.1,"yT2":0,"toosoon":0,"cond_shown":"Congruent","ratio_trial":300,"L_num":4,"L_den":20,"R_num":13,"R_den":26,"correct_side":2,"subjID":"sarah isabella zamboni vincos 14","gender":"1","school":"4","age":"10"},{"start_time":1552313143726,"click_time":1552313144545,"finger_time":1552313144125,"fix_duration":660.8228491710387,"trial":31,"RT":399,"MT":420,"sideResp":2,"stimulus":[],"xmouse":[823,823,823,823,823,823,823,823,823,823,822,822,822,822,822,822,822,824,835,843,853,860,868,878,904,919,934,949,988,1003,1018,1027,1036,1045,1048,1051,1052,1055,1056,1060,1063],"ymouse":[538,538,538,538,538,538,538,538,538,538,535,533,531,525,517,512,506,496,477,467,455,448,443,437,421,408,393,372,328,305,282,263,243,210,197,175,162,148,136,108,95],"timestamp_mouse":[20,44,59,79,99,119,139,159,179,199,220,240,259,280,299,319,340,359,379,399,419,439,460,480,499,520,539,558,580,600,620,640,660,680,699,718,739,759,779,799,819],"xSR":741.5,"ySR":469.95,"xT1":424.9,"yT1":0,"xT2":1058.1,"yT2":0,"toosoon":0,"cond_shown":"Congruent","ratio_trial":200,"L_num":3,"L_den":12,"R_num":9,"R_den":20,"correct_side":2,"subjID":"sarah isabella zamboni vincos 14","gender":"1","school":"4","age":"10"},{"start_time":1552313146427,"click_time":1552313147365,"finger_time":1552313146884,"fix_duration":780.3091459368795,"trial":32,"RT":457,"MT":481,"sideResp":2,"stimulus":[],"xmouse":[801,801,800,799,799,799,799,799,798,796,796,796,796,796,796,796,796,794,794,794,794,794,794,797,824,857,897,932,978,997,997,997,997,997,997,997,997,997,997,997,997,997,997,997,997,997,1129],"ymouse":[528,528,528,528,528,528,528,528,528,528,528,528,528,528,528,528,528,527,525,513,499,483,463,439,350,274,198,124,35,1,1,1,1,1,1,1,1,1,1,1,1,1,1,1,1,1,5],"timestamp_mouse":[27,41,58,79,99,118,138,159,179,199,218,238,258,278,299,318,339,359,378,399,418,438,457,478,498,518,538,558,578,598,618,638,659,679,698,719,739,758,780,798,818,838,858,878,898,918,938],"xSR":741.5,"ySR":469.95,"xT1":424.9,"yT1":0,"xT2":1058.1,"yT2":0,"toosoon":0,"cond_shown":"Incongruent","ratio_trial":300,"L_num":3,"L_den":6,"R_num":4,"R_den":20,"correct_side":1,"subjID":"sarah isabella zamboni vincos 14","gender":"1","school":"4","age":"10"},{"start_time":1552313154680,"click_time":1552313155846,"finger_time":1552313155224,"fix_duration":1333.4609131954946,"trial":33,"RT":544,"MT":622,"sideResp":1,"stimulus":[],"xmouse":[804,804,804,804,804,804,804,804,804,804,804,804,804,804,804,804,804,804,804,804,804,802,800,786,780,771,763,749,707,675,630,604,604,604,604,604,604,604,604,604,604,604,604,604,604,400,376,357,342,341,341,341,341,358,368,376,386,401,438],"ymouse":[500,500,500,500,501,501,501,501,501,501,501,502,503,503,503,503,503,503,503,505,506,507,507,507,503,493,476,434,272,164,51,3,3,3,3,3,3,3,3,3,3,3,3,3,3,25,61,84,104,105,105,105,105,88,76,66,55,42,19],"timestamp_mouse":[11,26,47,66,85,106,126,144,166,186,206,226,246,264,286,306,324,345,365,385,404,426,445,465,485,505,526,544,564,585,604,625,645,664,684,704,725,746,765,786,806,826,846,866,885,906,925,946,965,985,1006,1025,1046,1065,1085,1106,1126,1146,1166],"xSR":741.5,"ySR":469.95,"xT1":424.9,"yT1":0,"xT2":1058.1,"yT2":0,"toosoon":0,"cond_shown":"Incongruent","ratio_trial":300,"L_num":7,"L_den":10,"R_num":8,"R_den":20,"correct_side":1,"subjID":"sarah isabella zamboni vincos 14","gender":"1","school":"4","age":"10"},{"start_time":1552313158976,"click_time":1552313159865,"finger_time":1552313159386,"fix_duration":250,"trial":34,"RT":410,"MT":479,"sideResp":1,"stimulus":[],"xmouse":[802,803,803,805,805,805,805,805,805,805,805,804,804,804,804,804,804,804,804,804,802,801,802,812,807,788,773,749,737,727,726,726,726,726,725,723,721,716,698,687,672,655,629,552,514],"ymouse":[516,515,513,511,511,510,509,508,506,504,501,497,493,488,486,485,485,485,482,476,465,443,394,234,167,123,96,74,65,58,58,58,58,58,57,56,56,56,58,58,58,57,53,53,53],"timestamp_mouse":[11,30,51,69,88,109,129,150,168,188,209,229,249,269,289,310,330,350,369,389,410,429,449,470,488,509,529,549,569,589,609,629,649,670,689,709,729,750,769,789,809,829,850,870,889],"xSR":741.5,"ySR":469.95,"xT1":424.9,"yT1":0,"xT2":1058.1,"yT2":0,"toosoon":0,"cond_shown":"Congruent","ratio_trial":100,"L_num":6,"L_den":20,"R_num":5,"R_den":25,"correct_side":1,"subjID":"sarah isabella zamboni vincos 14","gender":"1","school":"4","age":"10"},{"start_time":1552313168347,"click_time":1552313170466,"finger_time":1552313169224,"fix_duration":560.2982587850044,"trial":35,"RT":877,"MT":1242,"sideResp":1,"stimulus":[],"xmouse":[791,791,791,791,791,791,791,791,791,791,791,791,791,791,791,791,791,791,791,791,791,791,791,791,791,791,791,791,791,791,791,791,791,791,791,791,791,791,791,791,791,786,773,741,717,695,695,695,695,695,695,695,695,695,695,695,695,695,695,695,695,695,695,695,695,695,694,691,682,664,644,639,639,636,628,611,606,606,608,621,650,724,753,760,761,758,735,724,719,717,713,706,677,657,637,604,585,570,556,544,534,531,529,528,525,512],"ymouse":[489,489,489,489,489,489,489,489,489,489,489,489,489,489,489,489,489,489,489,489,489,489,489,489,489,489,489,489,489,489,489,489,489,489,489,489,489,489,489,489,489,489,483,471,465,462,462,462,462,462,462,462,462,462,462,462,462,462,462,462,462,462,462,462,462,462,462,462,457,443,378,342,331,301,287,274,272,272,271,268,261,239,226,220,217,210,187,179,173,169,161,157,148,144,142,138,136,132,127,124,118,116,113,108,98,67],"timestamp_mouse":[18,44,58,78,99,118,139,158,178,198,219,237,259,279,299,319,337,359,379,399,418,439,459,478,498,519,539,558,579,597,619,638,659,678,698,719,738,759,778,799,819,839,857,877,898,919,937,958,979,998,1018,1039,1058,1078,1098,1119,1138,1159,1179,1198,1218,1238,1258,1279,1299,1318,1339,1358,1379,1398,1419,1438,1458,1478,1498,1519,1538,1559,1578,1598,1618,1639,1658,1678,1699,1718,1739,1758,1779,1798,1819,1838,1857,1878,1898,1920,1938,1959,1978,1998,2019,2037,2058,2078,2099,2119],"xSR":741.5,"ySR":469.95,"xT1":424.9,"yT1":0,"xT2":1058.1,"yT2":0,"toosoon":0,"cond_shown":"Congruent","ratio_trial":100,"L_num":15,"L_den":25,"R_num":13,"R_den":26,"correct_side":1,"subjID":"sarah isabella zamboni vincos 14","gender":"1","school":"4","age":"10"},{"start_time":1552313173146,"click_time":1552313174785,"finger_time":1552313173886,"fix_duration":658.9058958337619,"trial":36,"RT":740,"MT":899,"sideResp":1,"stimulus":[],"xmouse":[773,773,773,773,773,773,773,773,773,773,773,773,773,773,773,773,773,773,773,773,773,773,773,773,773,773,773,773,773,773,773,773,773,773,779,784,785,728,648,576,537,521,524,524,524,524,520,502,491,486,486,486,513,532,557,577,592,596,594,586,572,554,525,525,530,535,536,536,537,537,537,539,541,542,542,543,543,543,541,540,537,525,500],"ymouse":[538,538,538,538,538,538,538,538,538,538,538,538,538,538,538,538,538,538,538,538,538,538,538,538,538,538,538,538,538,538,538,538,538,538,534,529,522,461,398,340,287,250,216,213,211,208,202,182,174,169,169,169,164,161,156,150,142,136,130,119,109,99,69,53,34,20,15,13,12,12,12,12,13,18,24,33,40,55,57,60,61,65,75],"timestamp_mouse":[1,19,39,59,80,99,119,139,159,178,199,218,240,258,278,299,319,340,359,379,398,420,438,459,479,499,518,540,559,579,600,619,639,658,680,699,719,740,758,778,799,819,838,860,879,899,920,940,958,978,999,1019,1039,1059,1080,1100,1119,1139,1160,1180,1199,1219,1238,1259,1278,1299,1319,1339,1360,1380,1400,1419,1439,1460,1480,1499,1520,1539,1559,1580,1600,1620,1639],"xSR":741.5,"ySR":469.95,"xT1":424.9,"yT1":0,"xT2":1058.1,"yT2":0,"toosoon":0,"cond_shown":"Congruent","ratio_trial":200,"L_num":1,"L_den":2,"R_num":21,"R_den":30,"correct_side":2,"subjID":"sarah isabella zamboni vincos 14","gender":"1","school":"4","age":"10"},{"start_time":1552313181898,"click_time":1552313184806,"finger_time":1552313184505,"fix_duration":512.1378918067008,"trial":37,"RT":2607,"MT":301,"sideResp":2,"stimulus":[],"xmouse":[790,790,790,790,790,790,790,790,790,790,790,790,790,790,790,790,790,790,790,790,790,790,790,790,790,790,790,790,790,790,790,790,790,790,790,790,790,790,790,790,790,790,790,790,790,790,790,790,790,790,790,790,790,790,790,790,790,790,790,790,790,790,790,790,790,790,790,790,790,790,790,790,790,790,790,790,790,790,790,790,790,790,790,790,790,790,790,790,790,790,790,790,790,790,790,790,790,790,790,790,790,790,790,790,790,790,790,790,790,790,790,790,790,790,790,790,790,790,790,790,790,790,790,790,790,790,785,775,763,763,765,768,771,774,782,799,812,826,837,854,883,916,957,998,1040,1074],"ymouse":[541,541,541,541,541,541,541,541,541,541,541,541,541,541,541,541,541,541,541,541,541,541,541,541,541,541,541,541,541,541,541,541,541,541,541,541,541,541,541,541,541,541,541,541,541,541,541,541,541,541,541,541,541,541,541,541,541,541,541,541,541,541,541,541,541,541,541,541,541,541,541,541,541,541,541,541,541,541,541,541,541,541,541,541,541,541,541,541,541,541,541,541,541,541,541,541,541,541,541,541,541,541,541,541,541,541,541,541,541,541,541,541,541,541,541,541,541,541,541,541,541,541,541,541,541,541,535,523,498,490,455,442,431,422,409,389,375,358,342,320,269,222,157,111,63,14],"timestamp_mouse":[10,40,47,68,88,107,126,147,168,187,208,227,247,267,287,308,327,346,367,387,408,426,447,468,488,507,527,548,568,586,608,627,648,668,687,707,728,748,768,787,808,826,848,868,887,908,926,946,968,987,1007,1026,1047,1067,1086,1108,1127,1148,1167,1187,1208,1226,1248,1266,1287,1306,1327,1348,1367,1388,1406,1427,1448,1466,1487,1506,1527,1548,1568,1587,1607,1626,1647,1668,1686,1708,1728,1748,1768,1786,1808,1827,1847,1867,1886,1908,1928,1946,1967,1987,2007,2028,2048,2068,2086,2107,2128,2148,2166,2188,2208,2227,2247,2268,2288,2308,2327,2348,2367,2387,2408,2427,2447,2468,2486,2507,2528,2548,2567,2587,2607,2628,2647,2667,2687,2707,2727,2747,2768,2788,2807,2828,2848,2868,2888,2907],"xSR":741.5,"ySR":469.95,"xT1":424.9,"yT1":0,"xT2":1058.1,"yT2":0,"toosoon":0,"cond_shown":"Incongruent","ratio_trial":200,"L_num":11,"L_den":20,"R_num":3,"R_den":4,"correct_side":2,"subjID":"sarah isabella zamboni vincos 14","gender":"1","school":"4","age":"10"},{"start_time":1552313187897,"click_time":1552313190225,"finger_time":1552313189566,"fix_duration":250,"trial":38,"RT":1669,"MT":659,"sideResp":2,"stimulus":[],"xmouse":[808,808,808,808,808,808,808,808,808,808,808,808,808,808,808,808,808,808,808,808,808,807,807,807,807,807,806,806,806,806,806,806,806,806,806,806,806,806,806,806,806,806,806,806,806,806,806,806,806,806,806,806,806,806,806,806,806,806,806,806,806,806,806,806,806,806,805,805,805,805,805,805,805,805,805,805,804,804,804,803,802,802,802,812,826,854,869,875,879,882,888,904,913,917,920,924,929,930,933,937,949,959,968,978,988,996,1022,1026,1032,1035,1037,1039,1039,1039,1044,1047,1076],"ymouse":[497,497,497,497,497,497,497,497,497,497,497,497,497,497,497,497,497,497,497,497,498,499,500,500,500,501,503,504,505,506,508,508,508,508,508,508,508,508,508,508,508,508,508,508,508,508,508,508,508,508,508,508,508,508,508,508,508,508,508,508,508,508,508,508,508,508,508,508,508,508,508,508,508,508,508,508,508,508,508,508,505,497,485,465,445,407,386,374,368,359,346,316,297,284,272,239,218,208,201,191,176,164,154,145,135,126,113,110,107,105,103,103,103,103,103,103,97],"timestamp_mouse":[12,38,48,69,88,109,129,149,168,188,208,228,249,268,288,308,328,348,368,389,408,429,448,468,488,509,529,549,568,588,608,627,648,668,689,707,729,749,767,787,809,828,848,869,888,909,928,949,969,988,1009,1029,1048,1069,1088,1109,1129,1149,1168,1188,1209,1229,1247,1269,1288,1308,1328,1348,1367,1389,1409,1429,1448,1468,1488,1509,1528,1549,1569,1589,1609,1629,1649,1669,1689,1710,1727,1749,1768,1789,1808,1828,1847,1868,1889,1910,1928,1948,1968,1989,2010,2028,2049,2068,2088,2108,2127,2148,2168,2189,2208,2228,2248,2269,2288,2309,2328],"xSR":741.5,"ySR":469.95,"xT1":424.9,"yT1":0,"xT2":1058.1,"yT2":0,"toosoon":0,"cond_shown":"Incongruent","ratio_trial":200,"L_num":7,"L_den":15,"R_num":6,"R_den":9,"correct_side":2,"subjID":"sarah isabella zamboni vincos 14","gender":"1","school":"4","age":"10"},{"start_time":1552313196027,"click_time":1552313197025,"finger_time":1552313196525,"fix_duration":1159.0083019477902,"trial":39,"RT":498,"MT":500,"sideResp":2,"stimulus":[],"xmouse":[786,786,786,786,785,785,785,785,785,785,785,785,785,785,785,785,787,788,790,790,790,790,790,789,789,789,791,796,802,823,845,881,920,961,1011,1029,1030,1030,1030,1030,1030,1030,1030,1030,1030,1035,1044,1056,1063,1070],"ymouse":[517,517,517,517,517,517,517,517,517,517,517,517,516,514,513,510,505,500,495,491,482,477,474,471,468,456,441,429,419,385,351,304,258,212,159,142,142,141,141,141,141,141,141,141,141,135,125,112,101,90],"timestamp_mouse":[18,38,59,78,99,119,138,159,178,198,219,238,258,278,298,318,338,357,379,398,419,438,459,479,498,519,538,559,579,599,619,638,659,677,700,717,738,759,778,799,819,838,859,878,899,919,938,958,979,998],"xSR":741.5,"ySR":469.95,"xT1":424.9,"yT1":0,"xT2":1058.1,"yT2":0,"toosoon":0,"cond_shown":"Incongruent","ratio_trial":300,"L_num":4,"L_den":20,"R_num":2,"R_den":4,"correct_side":2,"subjID":"sarah isabella zamboni vincos 14","gender":"1","school":"4","age":"10"},{"start_time":1552313198366,"click_time":1552313199664,"finger_time":1552313199146,"fix_duration":600.7188446501258,"trial":40,"RT":780,"MT":518,"sideResp":2,"stimulus":[],"xmouse":[806,806,806,806,806,806,806,806,806,806,806,806,806,806,806,806,806,806,806,806,806,806,804,804,804,804,804,804,804,804,805,805,806,809,810,813,816,822,844,855,867,876,884,899,906,913,920,926,935,940,945,950,964,971,977,980,987,991,1005,1011,1019,1030,1045,1074,1088],"ymouse":[521,521,521,521,521,521,521,521,521,521,521,521,521,521,521,521,521,521,521,521,521,521,521,520,520,520,518,518,518,517,516,515,514,511,509,505,502,495,469,454,442,426,412,383,367,354,342,332,307,295,285,274,248,235,223,215,207,202,184,174,166,155,138,112,98],"timestamp_mouse":[19,41,59,80,99,120,140,158,179,200,219,240,259,279,298,320,339,359,379,399,420,439,460,478,499,519,540,558,580,600,620,640,659,680,700,718,739,760,780,799,819,840,859,879,899,919,940,960,979,1000,1019,1040,1061,1079,1099,1119,1139,1159,1179,1200,1219,1239,1259,1280,1298],"xSR":741.5,"ySR":469.95,"xT1":424.9,"yT1":0,"xT2":1058.1,"yT2":0,"toosoon":0,"cond_shown":"Congruent","ratio_trial":200,"L_num":7,"L_den":21,"R_num":2,"R_den":15,"correct_side":1,"subjID":"sarah isabella zamboni vincos 14","gender":"1","school":"4","age":"10"},{"start_time":1552313201567,"click_time":1552313202166,"finger_time":1552313201944,"fix_duration":819.9463175049754,"trial":41,"RT":377,"MT":222,"sideResp":1,"stimulus":[],"xmouse":[801,799,792,792,788,788,787,786,785,785,785,785,785,785,785,785,785,784,781,772,763,750,727,699,640,604,577,556,537,526,521],"ymouse":[529,528,525,525,523,522,522,522,521,521,521,521,521,521,521,520,519,514,491,409,356,295,239,186,118,98,86,80,79,77,74],"timestamp_mouse":[1,26,45,58,78,98,119,138,157,178,199,217,238,258,278,298,318,338,359,377,399,418,439,458,478,498,518,538,559,579,598],"xSR":741.5,"ySR":469.95,"xT1":424.9,"yT1":0,"xT2":1058.1,"yT2":0,"toosoon":0,"cond_shown":"Congruent","ratio_trial":200,"L_num":3,"L_den":10,"R_num":7,"R_den":14,"correct_side":2,"subjID":"sarah isabella zamboni vincos 14","gender":"1","school":"4","age":"10"},{"start_time":1552313204078,"click_time":1552313204604,"finger_time":1552313204265,"fix_duration":470.06673922145717,"trial":42,"RT":187,"MT":339,"sideResp":2,"stimulus":[],"xmouse":[811,811,811,811,811,811,811,811,815,816,817,818,819,825,829,837,846,855,879,912,935,952,971,1019,1038,1054,1062],"ymouse":[524,524,524,524,524,518,512,503,479,467,462,457,452,437,429,416,403,386,347,301,266,232,198,109,68,26,8],"timestamp_mouse":[9,35,48,68,87,108,127,147,168,187,207,227,248,268,288,308,328,348,367,386,407,428,446,468,486,507,526],"xSR":741.5,"ySR":469.95,"xT1":424.9,"yT1":0,"xT2":1058.1,"yT2":0,"toosoon":0,"cond_shown":"Congruent","ratio_trial":200,"L_num":12,"L_den":15,"R_num":6,"R_den":10,"correct_side":1,"subjID":"sarah isabella zamboni vincos 14","gender":"1","school":"4","age":"10"},{"start_time":1552313209183,"click_time":1552313210266,"finger_time":1552313209644,"fix_duration":655.6533917467701,"trial":43,"RT":461,"MT":622,"sideResp":1,"stimulus":[],"xmouse":[796,796,796,796,796,796,796,796,796,796,796,796,796,796,796,796,796,796,793,786,780,770,756,738,641,588,555,532,524,508,500,493,488,486,485,485,485,485,485,485,485,483,470,456,424,410,400,393,388,386,384,388,394,404,435],"ymouse":[520,520,520,520,520,520,520,520,520,520,520,520,520,520,520,520,520,520,519,517,513,506,494,480,427,406,392,382,374,350,334,319,301,281,238,226,217,211,204,191,183,175,159,146,117,105,93,79,69,56,54,51,50,49,49],"timestamp_mouse":[13,29,45,62,82,102,122,142,163,182,202,222,242,261,281,302,322,341,363,383,403,423,442,461,481,503,522,543,563,582,602,622,643,663,682,703,722,742,762,782,802,823,842,862,882,902,923,942,962,982,1002,1022,1042,1062,1083],"xSR":741.5,"ySR":469.95,"xT1":424.9,"yT1":0,"xT2":1058.1,"yT2":0,"toosoon":0,"cond_shown":"Congruent","ratio_trial":300,"L_num":3,"L_den":6,"R_num":4,"R_den":5,"correct_side":2,"subjID":"sarah isabella zamboni vincos 14","gender":"1","school":"4","age":"10"},{"start_time":1552313212428,"click_time":1552313213345,"finger_time":1552313212826,"fix_duration":320.4263230789812,"trial":44,"RT":398,"MT":519,"sideResp":2,"stimulus":[],"xmouse":[828,827,826,826,826,826,826,826,826,826,825,825,825,825,825,827,830,832,838,843,848,857,863,867,870,870,870,868,861,849,830,791,777,768,766,764,764,771,781,797,818,896,948,998,1049,1081],"ymouse":[532,532,532,532,532,532,532,532,532,532,532,533,535,539,541,544,546,546,544,537,527,499,487,476,467,465,463,463,463,462,461,454,452,449,444,437,411,383,363,341,314,238,191,135,71,15],"timestamp_mouse":[18,37,57,77,98,117,136,158,177,197,217,237,258,278,298,318,337,357,377,398,418,438,457,477,498,517,538,556,577,597,617,638,657,677,697,717,738,757,777,798,817,838,857,877,897,917],"xSR":741.5,"ySR":469.95,"xT1":424.9,"yT1":0,"xT2":1058.1,"yT2":0,"toosoon":0,"cond_shown":"Congruent","ratio_trial":300,"L_num":12,"L_den":24,"R_num":2,"R_den":10,"correct_side":1,"subjID":"sarah isabella zamboni vincos 14","gender":"1","school":"4","age":"10"},{"start_time":1552313216087,"click_time":1552313217465,"finger_time":1552313216546,"fix_duration":340.1095328399043,"trial":45,"RT":459,"MT":919,"sideResp":1,"stimulus":[],"xmouse":[813,813,813,813,813,813,813,813,811,805,799,796,793,791,791,791,791,791,790,787,782,768,741,639,535,461,390,326,272,206,206,206,206,206,206,206,206,206,206,206,206,206,206,206,206,288,297,304,306,306,306,306,315,330,341,344,351,361,377,383,388,392,393,393,396,402,413,423,433],"ymouse":[564,564,564,564,564,564,564,564,564,561,560,558,557,556,556,556,556,556,555,552,546,529,499,398,310,253,202,151,94,0,0,0,0,0,0,0,0,0,0,0,0,0,0,0,0,4,11,15,16,17,18,20,23,25,26,26,27,27,28,28,28,28,28,28,29,30,33,35,36],"timestamp_mouse":[20,42,57,78,98,118,139,158,178,199,218,239,259,279,299,319,338,358,379,398,418,439,459,479,498,519,538,559,578,598,618,639,658,678,699,719,738,759,778,798,818,837,858,879,898,918,938,959,978,998,1017,1038,1059,1078,1098,1119,1139,1157,1180,1198,1219,1239,1257,1278,1298,1318,1339,1358,1377],"xSR":741.5,"ySR":469.95,"xT1":424.9,"yT1":0,"xT2":1058.1,"yT2":0,"toosoon":0,"cond_shown":"Congruent","ratio_trial":300,"L_num":4,"L_den":5,"R_num":2,"R_den":4,"correct_side":1,"subjID":"sarah isabella zamboni vincos 14","gender":"1","school":"4","age":"10"},{"start_time":1552313219861,"click_time":1552313220486,"finger_time":1552313219905,"fix_duration":754.2527175644148,"trial":46,"RT":44,"MT":581,"sideResp":1,"stimulus":[],"xmouse":[803,799,793,785,779,775,771,771,770,770,770,768,767,766,765,761,749,736,720,702,698,694,686,680,665,645,591,569,548,531,521,512],"ymouse":[492,481,466,450,438,430,422,421,419,416,414,403,397,387,373,359,322,293,259,230,215,202,186,179,169,161,138,128,116,107,100,89],"timestamp_mouse":[4,24,44,65,85,104,124,145,164,184,205,224,244,263,284,305,324,344,364,384,404,424,444,465,484,505,524,544,564,584,605,625],"xSR":741.5,"ySR":469.95,"xT1":424.9,"yT1":0,"xT2":1058.1,"yT2":0,"toosoon":0,"cond_shown":"Incongruent","ratio_trial":100,"L_num":6,"L_den":10,"R_num":13,"R_den":26,"correct_side":1,"subjID":"sarah isabella zamboni vincos 14","gender":"1","school":"4","age":"10"},{"start_time":1552313223824,"click_time":1552313224925,"finger_time":1552313224305,"fix_duration":636.2561090549591,"trial":47,"RT":481,"MT":620,"sideResp":1,"stimulus":[],"xmouse":[803,803,803,803,803,803,803,803,802,802,802,802,802,802,802,802,802,802,802,799,793,787,784,784,786,788,792,796,797,785,762,721,669,555,509,499,497,497,497,497,497,497,497,495,493,493,493,493,493,493,493,493,492,490,473,469],"ymouse":[562,562,562,562,562,562,562,562,563,563,562,561,559,556,552,551,550,549,547,543,535,526,513,501,459,435,406,368,296,264,240,213,194,173,165,163,160,155,150,146,144,144,144,144,144,144,144,144,144,144,144,144,143,137,109,97],"timestamp_mouse":[12,27,42,60,81,102,121,142,160,181,202,220,241,261,281,302,320,342,361,382,402,422,441,460,481,501,521,541,562,581,602,622,642,662,681,701,720,741,762,781,802,821,842,861,881,902,922,941,961,982,1001,1021,1041,1062,1081,1101],"xSR":741.5,"ySR":469.95,"xT1":424.9,"yT1":0,"xT2":1058.1,"yT2":0,"toosoon":0,"cond_shown":"Incongruent","ratio_trial":300,"L_num":4,"L_den":5,"R_num":6,"R_den":12,"correct_side":1,"subjID":"sarah isabella zamboni vincos 14","gender":"1","school":"4","age":"10"},{"start_time":1552313228703,"click_time":1552313230245,"finger_time":1552313229485,"fix_duration":1175.4254496644323,"trial":48,"RT":782,"MT":760,"sideResp":2,"stimulus":[],"xmouse":[815,815,815,815,815,815,815,814,814,814,813,813,813,813,813,812,812,812,811,811,809,809,808,807,806,805,805,804,804,804,803,802,801,801,801,800,800,806,818,834,855,856,857,858,862,868,883,890,893,893,894,894,895,897,900,908,914,920,932,941,961,975,988,1000,1006,1014,1019,1025,1027,1029,1031,1033,1034,1036,1037,1046,1056,1062],"ymouse":[513,513,513,513,513,513,513,513,513,513,513,513,513,513,513,513,513,513,513,513,513,513,513,513,512,512,512,511,511,511,510,509,507,507,507,506,503,493,481,466,442,437,434,428,416,403,375,358,349,341,328,325,323,322,320,311,300,286,259,236,194,168,144,121,103,78,70,63,61,59,59,59,59,59,59,60,61,61],"timestamp_mouse":[10,22,43,62,81,102,122,142,163,183,201,221,242,263,283,302,322,343,362,383,402,422,441,462,483,503,523,541,563,582,601,623,643,662,681,703,723,743,762,782,802,821,842,863,883,902,922,942,963,982,1003,1022,1042,1062,1083,1103,1121,1142,1162,1183,1203,1221,1242,1263,1283,1303,1323,1343,1361,1383,1402,1423,1442,1463,1483,1503,1522,1541],"xSR":741.5,"ySR":469.95,"xT1":424.9,"yT1":0,"xT2":1058.1,"yT2":0,"toosoon":0,"cond_shown":"Incongruent","ratio_trial":100,"L_num":8,"L_den":16,"R_num":6,"R_den":10,"correct_side":2,"subjID":"sarah isabella zamboni vincos 14","gender":"1","school":"4","age":"10"},{"start_time":1552313232463,"click_time":1552313235764,"finger_time":1552313235225,"fix_duration":636.945346557673,"trial":49,"RT":2762,"MT":539,"sideResp":1,"stimulus":[],"xmouse":[794,794,794,794,794,794,794,794,794,794,794,794,794,794,794,794,794,794,794,794,794,794,794,794,794,794,794,794,794,794,794,794,794,794,794,794,794,794,794,794,794,794,794,794,794,794,794,794,794,794,794,794,794,794,794,794,794,794,794,794,794,794,794,794,794,794,794,794,794,794,794,794,794,794,794,794,794,794,794,794,794,794,794,794,794,794,794,794,794,794,794,794,794,794,794,794,794,794,794,794,794,794,794,794,794,794,794,794,794,794,794,794,794,794,794,794,794,794,794,794,794,794,794,794,794,794,793,792,791,789,786,782,780,778,776,774,769,767,756,748,736,725,713,680,661,641,626,601,571,556,542,528,517,498,491,482,470,461,459,465,471,480,490,509,515,520],"ymouse":[518,518,518,518,518,518,518,518,518,518,518,519,519,519,519,519,519,519,519,519,519,519,519,519,519,519,519,519,519,519,519,519,519,519,519,519,519,519,519,519,519,519,519,519,519,519,519,519,519,519,519,519,519,519,519,519,519,519,519,519,519,519,519,519,519,519,519,519,519,519,519,519,519,519,519,519,519,519,519,519,519,519,519,519,519,519,519,519,519,519,519,519,519,519,519,519,519,519,519,519,519,519,519,519,519,519,519,519,519,519,519,519,519,519,519,519,519,519,519,519,519,519,519,519,519,519,519,519,519,519,519,516,513,507,502,496,487,483,466,457,446,437,426,404,387,367,347,314,271,253,235,220,210,196,191,184,176,169,162,157,156,151,148,130,116,97],"timestamp_mouse":[1,22,44,61,81,102,122,142,161,182,202,223,243,261,282,302,323,342,362,382,402,423,443,462,482,503,523,542,562,582,601,622,643,662,682,703,723,742,762,782,802,822,842,862,883,903,921,942,961,982,1002,1023,1041,1063,1083,1103,1123,1142,1163,1181,1203,1223,1242,1263,1282,1303,1323,1343,1361,1383,1402,1423,1441,1463,1483,1502,1523,1541,1562,1582,1602,1621,1642,1663,1681,1703,1722,1742,1763,1783,1801,1823,1843,1863,1881,1903,1922,1942,1963,1983,2001,2022,2043,2062,2083,2103,2122,2143,2163,2181,2203,2223,2241,2263,2283,2302,2323,2343,2361,2382,2403,2423,2442,2463,2483,2501,2523,2543,2563,2582,2602,2623,2642,2662,2682,2703,2723,2741,2762,2783,2802,2822,2842,2862,2882,2903,2922,2942,2962,2983,3002,3023,3043,3061,3082,3103,3122,3143,3162,3182,3202,3223,3242,3262,3282,3301],"xSR":741.5,"ySR":469.95,"xT1":424.9,"yT1":0,"xT2":1058.1,"yT2":0,"toosoon":0,"cond_shown":"Congruent","ratio_trial":100,"L_num":2,"L_den":5,"R_num":6,"R_den":12,"correct_side":2,"subjID":"sarah isabella zamboni vincos 14","gender":"1","school":"4","age":"10"},{"start_time":1552313238027,"click_time":1552313239286,"finger_time":1552313238705,"fix_duration":1120.0041363765176,"trial":50,"RT":678,"MT":581,"sideResp":2,"stimulus":[],"xmouse":[807,807,807,807,807,807,807,807,807,807,807,807,807,807,807,807,807,807,807,807,807,807,807,807,807,807,807,807,807,806,805,805,805,805,807,814,824,847,862,886,894,903,911,920,940,948,960,967,975,986,990,994,998,1003,1007,1014,1021,1027,1034,1045,1051,1057,1062],"ymouse":[499,499,499,499,499,499,499,499,499,499,499,499,499,499,499,499,499,499,499,499,499,499,499,499,499,499,499,499,499,498,487,482,476,468,442,421,399,358,332,295,280,266,251,238,210,198,178,165,156,139,133,128,123,118,112,103,96,90,85,76,72,67,63],"timestamp_mouse":[17,38,58,78,98,118,138,158,179,197,218,239,257,279,298,318,339,357,379,398,419,437,458,478,498,519,539,559,578,598,619,639,659,678,700,718,739,758,779,799,817,838,859,878,899,918,939,959,979,999,1018,1038,1059,1078,1098,1118,1139,1159,1179,1199,1217,1238,1259],"xSR":741.5,"ySR":469.95,"xT1":424.9,"yT1":0,"xT2":1058.1,"yT2":0,"toosoon":0,"cond_shown":"Congruent","ratio_trial":200,"L_num":3,"L_den":12,"R_num":9,"R_den":20,"correct_side":2,"subjID":"sarah isabella zamboni vincos 14","gender":"1","school":"4","age":"10"},{"start_time":1552313241087,"click_time":1552313243167,"finger_time":1552313242526,"fix_duration":1059.7655302607122,"trial":51,"RT":1439,"MT":641,"sideResp":2,"stimulus":[],"xmouse":[807,806,804,804,803,803,803,802,802,801,799,798,798,797,796,795,789,785,781,779,777,777,776,775,775,775,775,775,775,774,774,774,774,774,773,773,773,773,773,773,773,773,773,773,775,777,781,782,784,785,786,789,789,789,789,789,789,789,786,782,781,781,781,781,780,780,777,774,770,766,762,759,752,751,750,749,748,746,744,742,739,739,739,743,746,753,788,809,833,858,879,898,933,943,946,946,950,966,982,993,1006,1019,1051,1063],"ymouse":[529,528,527,527,527,527,527,527,527,527,527,527,527,527,527,527,524,524,524,523,523,523,522,522,522,522,522,522,522,521,521,521,521,521,521,521,521,521,521,521,521,521,521,521,521,521,521,521,521,521,521,521,521,521,521,521,521,520,520,519,519,519,519,519,519,519,516,510,499,488,474,461,436,432,429,427,426,426,426,426,426,431,441,444,447,452,460,460,454,444,433,417,337,289,247,216,184,141,120,104,87,74,45,32],"timestamp_mouse":[18,38,58,78,97,118,138,159,178,199,219,239,258,279,298,318,339,359,378,399,419,439,457,478,498,517,539,558,579,598,618,638,657,679,699,718,739,758,777,799,819,839,858,879,898,918,939,959,979,999,1018,1039,1059,1078,1097,1118,1138,1159,1179,1198,1218,1238,1258,1278,1298,1318,1339,1358,1379,1398,1418,1439,1458,1479,1498,1519,1538,1559,1579,1598,1617,1637,1657,1678,1698,1719,1740,1758,1777,1798,1818,1839,1857,1878,1898,1919,1938,1959,1979,1998,2019,2038,2058,2079],"xSR":741.5,"ySR":469.95,"xT1":424.9,"yT1":0,"xT2":1058.1,"yT2":0,"toosoon":0,"cond_shown":"Incongruent","ratio_trial":100,"L_num":9,"L_den":18,"R_num":6,"R_den":10,"correct_side":2,"subjID":"sarah isabella zamboni vincos 14","gender":"1","school":"4","age":"10"},{"start_time":1552313246582,"click_time":1552313247505,"finger_time":1552313246945,"fix_duration":735.8188860272223,"trial":52,"RT":363,"MT":560,"sideResp":2,"stimulus":[],"xmouse":[794,794,794,794,794,794,794,794,794,794,795,795,795,796,796,797,797,798,798,796,794,791,790,791,797,807,809,813,827,835,844,860,874,898,910,930,948,965,998,1015,1028,1036,1043,1052,1055,1058,1062],"ymouse":[520,520,520,520,517,510,506,503,503,503,502,502,502,502,497,490,482,471,451,441,429,414,397,353,330,293,273,253,226,215,205,193,181,158,144,123,111,102,90,85,78,72,65,59,58,58,61],"timestamp_mouse":[9,23,43,64,83,103,124,144,164,184,204,223,244,264,284,304,323,343,363,382,403,423,443,464,483,503,523,544,563,582,603,623,643,664,684,703,724,743,764,783,803,824,843,864,882,903,923],"xSR":741.5,"ySR":469.95,"xT1":424.9,"yT1":0,"xT2":1058.1,"yT2":0,"toosoon":0,"cond_shown":"Congruent","ratio_trial":100,"L_num":8,"L_den":16,"R_num":2,"R_den":5,"correct_side":1,"subjID":"sarah isabella zamboni vincos 14","gender":"1","school":"4","age":"10"},{"start_time":1552313250085,"click_time":1552313250825,"finger_time":1552313250446,"fix_duration":1418.3219489243254,"trial":53,"RT":361,"MT":379,"sideResp":1,"stimulus":[],"xmouse":[795,795,795,796,796,796,796,796,796,796,796,796,796,796,796,795,794,791,782,768,756,745,730,704,690,682,675,671,667,650,639,627,618,603,573,556,535,512],"ymouse":[519,517,517,510,509,508,506,504,503,502,502,501,501,499,499,497,496,490,464,435,416,399,384,366,362,360,358,355,349,325,312,296,279,255,200,169,125,83],"timestamp_mouse":[1,33,41,61,80,100,119,140,161,180,200,221,239,261,281,300,321,341,361,380,401,420,441,461,480,501,521,540,561,580,600,621,640,660,680,700,721,740],"xSR":741.5,"ySR":469.95,"xT1":424.9,"yT1":0,"xT2":1058.1,"yT2":0,"toosoon":0,"cond_shown":"Incongruent","ratio_trial":300,"L_num":13,"L_den":26,"R_num":12,"R_den":15,"correct_side":2,"subjID":"sarah isabella zamboni vincos 14","gender":"1","school":"4","age":"10"},{"start_time":1552313252838,"click_time":1552313254765,"finger_time":1552313253665,"fix_duration":250,"trial":54,"RT":827,"MT":1100,"sideResp":2,"stimulus":[],"xmouse":[766,770,770,770,771,771,771,771,771,772,772,773,776,778,780,783,785,786,786,786,786,787,787,787,787,787,787,787,787,787,787,787,787,789,789,790,791,792,794,797,800,805,805,805,805,805,810,811,811,811,811,811,811,812,812,812,814,814,814,814,814,814,817,818,820,822,834,844,853,864,878,878,878,878,878,878,878,878,878,878,878,878,878,878,878,878,878,878,878,878,878,878,1142,1142,1142,1142,1142],"ymouse":[533,533,533,533,533,533,533,533,533,533,533,533,533,532,532,532,532,532,531,530,530,529,528,528,527,527,527,527,527,527,527,527,527,524,522,521,517,515,510,502,490,460,438,410,387,369,340,333,330,330,330,330,332,333,334,334,334,334,334,334,334,335,337,341,344,346,324,264,180,94,27,27,27,27,27,27,27,27,27,27,27,27,27,27,27,27,27,27,27,27,27,27,0,0,0,0,1],"timestamp_mouse":[7,27,48,68,87,108,127,147,168,187,207,227,248,268,287,307,327,347,368,387,408,428,447,467,487,508,526,547,568,587,608,627,648,668,687,707,727,748,767,786,808,827,847,868,888,907,927,947,967,988,1008,1027,1047,1066,1088,1108,1127,1148,1167,1187,1208,1228,1247,1268,1287,1306,1328,1348,1367,1387,1407,1427,1447,1467,1487,1507,1528,1547,1567,1588,1607,1627,1648,1667,1687,1707,1728,1748,1768,1788,1808,1827,1848,1868,1888,1908,1927],"xSR":741.5,"ySR":469.95,"xT1":424.9,"yT1":0,"xT2":1058.1,"yT2":0,"toosoon":0,"cond_shown":"Incongruent","ratio_trial":300,"L_num":13,"L_den":26,"R_num":12,"R_den":15,"correct_side":2,"subjID":"sarah isabella zamboni vincos 14","gender":"1","school":"4","age":"10"},{"start_time":1552313256518,"click_time":1552313258026,"finger_time":1552313257165,"fix_duration":550.0721698454115,"trial":55,"RT":647,"MT":861,"sideResp":1,"stimulus":[],"xmouse":[818,818,818,818,818,818,818,818,818,817,817,817,817,817,817,817,817,817,817,817,816,816,816,816,816,816,815,814,809,801,787,760,714,702,700,699,699,699,699,697,692,687,671,661,646,639,631,609,594,581,570,560,554,551,555,560,563,566,566,566,565,560,554,527,516,509,504,495,492,490,489,489,489,489,493,494],"ymouse":[540,540,540,540,540,538,537,537,537,536,536,536,536,536,536,536,536,536,536,536,535,535,535,535,533,531,530,526,521,513,502,488,467,459,456,454,452,449,443,439,431,423,408,397,375,364,347,310,288,269,248,228,206,160,147,138,130,123,123,122,122,122,125,129,129,129,129,126,124,122,118,116,114,107,101,99],"timestamp_mouse":[9,37,48,66,87,107,128,148,168,187,208,227,247,268,288,308,326,347,366,388,407,427,446,468,488,508,527,547,568,587,608,628,647,666,686,707,727,748,768,786,807,827,849,866,887,908,927,948,967,987,1007,1027,1048,1067,1088,1107,1128,1148,1167,1187,1208,1227,1248,1267,1287,1307,1327,1348,1367,1387,1408,1427,1447,1468,1487,1508],"xSR":741.5,"ySR":469.95,"xT1":424.9,"yT1":0,"xT2":1058.1,"yT2":0,"toosoon":0,"cond_shown":"Incongruent","ratio_trial":200,"L_num":3,"L_den":10,"R_num":1,"R_den":2,"correct_side":2,"subjID":"sarah isabella zamboni vincos 14","gender":"1","school":"4","age":"10"},{"start_time":1552313266437,"click_time":1552313267206,"finger_time":1552313267026,"fix_duration":250,"trial":56,"RT":589,"MT":180,"sideResp":2,"stimulus":[],"xmouse":[792,792,792,792,792,792,792,792,792,792,792,792,792,792,792,792,792,792,792,792,793,794,794,797,797,799,802,813,820,829,838,848,882,921,951,982,1012,1040,1076],"ymouse":[538,538,538,538,538,538,538,538,538,538,538,538,538,538,538,538,538,538,536,536,535,533,533,527,527,523,518,495,478,460,440,420,354,286,239,193,140,83,3],"timestamp_mouse":[13,38,49,68,89,108,129,149,168,188,209,229,249,269,289,309,328,349,368,388,409,428,449,483,488,508,528,549,568,589,609,628,650,667,688,708,729,749,769],"xSR":741.5,"ySR":469.95,"xT1":424.9,"yT1":0,"xT2":1058.1,"yT2":0,"toosoon":0,"cond_shown":"Incongruent","ratio_trial":300,"L_num":13,"L_den":26,"R_num":12,"R_den":15,"correct_side":2,"subjID":"sarah isabella zamboni vincos 14","gender":"1","school":"4","age":"10"},{"start_time":1552313268177,"click_time":1552313269305,"finger_time":1552313268886,"fix_duration":250,"trial":57,"RT":709,"MT":419,"sideResp":2,"stimulus":[],"xmouse":[802,802,802,803,803,803,803,803,803,803,803,803,803,803,803,803,803,803,803,803,803,803,803,803,803,803,803,802,802,802,802,802,802,802,803,804,815,828,851,881,906,961,972,982,986,992,992,992,992,992,992,994,999,1009,1021,1054,1068],"ymouse":[493,493,493,493,493,493,493,494,494,494,494,494,494,494,494,494,494,494,494,494,494,494,495,495,495,495,495,495,495,494,491,488,484,478,472,464,409,358,284,219,160,71,54,41,34,26,26,26,26,26,26,27,31,37,44,57,61],"timestamp_mouse":[9,28,47,68,88,109,127,148,169,189,209,229,249,268,288,307,327,348,368,389,407,429,448,469,489,508,529,549,569,589,609,629,649,669,688,709,728,749,768,789,808,827,849,868,888,910,928,949,968,988,1009,1028,1048,1068,1088,1110,1127],"xSR":741.5,"ySR":469.95,"xT1":424.9,"yT1":0,"xT2":1058.1,"yT2":0,"toosoon":0,"cond_shown":"Incongruent","ratio_trial":300,"L_num":13,"L_den":26,"R_num":12,"R_den":15,"correct_side":2,"subjID":"sarah isabella zamboni vincos 14","gender":"1","school":"4","age":"10"},{"start_time":1552313270573,"click_time":1552313271485,"finger_time":1552313271005,"fix_duration":346.164664786072,"trial":58,"RT":432,"MT":480,"sideResp":2,"stimulus":[],"xmouse":[811,811,811,811,811,811,811,811,811,811,811,811,811,811,811,811,811,812,818,826,837,866,887,914,943,987,1031,1045,1056,1064,1067,1072,1075,1080,1090,1094,1100,1100,1100,1100,1100,1100,1101,1103,1106,1111],"ymouse":[516,514,513,513,512,512,512,512,512,512,512,512,511,511,511,510,508,505,496,486,473,434,406,372,326,269,212,197,185,174,166,153,147,137,127,123,118,117,117,117,117,117,116,114,108,99],"timestamp_mouse":[12,33,52,73,92,111,133,152,173,193,213,233,252,272,291,313,332,352,373,392,412,432,452,472,491,512,532,553,572,592,612,632,652,672,691,712,732,753,773,793,812,833,852,872,892,911],"xSR":741.5,"ySR":469.95,"xT1":424.9,"yT1":0,"xT2":1058.1,"yT2":0,"toosoon":0,"cond_shown":"Incongruent","ratio_trial":300,"L_num":13,"L_den":26,"R_num":12,"R_den":15,"correct_side":2,"subjID":"sarah isabella zamboni vincos 14","gender":"1","school":"4","age":"10"},{"start_time":1552313274031,"click_time":1552313275006,"finger_time":1552313274485,"fix_duration":1264.2005533765239,"trial":59,"RT":454,"MT":521,"sideResp":2,"stimulus":[],"xmouse":[799,799,799,799,799,799,799,799,799,799,799,799,799,799,799,799,799,799,799,805,809,826,844,869,938,965,979,987,1003,1010,1017,1018,1018,1018,1018,1018,1017,1017,1018,1020,1026,1031,1034,1041,1044,1050,1054,1059,1071],"ymouse":[510,510,510,510,510,510,510,510,510,510,510,510,510,510,510,510,510,510,510,502,497,478,460,429,353,318,293,269,227,210,187,180,177,175,175,175,175,174,166,163,153,146,140,125,120,112,107,101,94],"timestamp_mouse":[20,36,54,75,95,115,135,154,173,195,215,235,254,274,295,313,335,355,374,395,414,434,454,474,495,514,534,554,576,594,614,634,653,674,695,715,734,755,774,793,814,835,855,875,894,914,935,955,975],"xSR":741.5,"ySR":469.95,"xT1":424.9,"yT1":0,"xT2":1058.1,"yT2":0,"toosoon":0,"cond_shown":"Incongruent","ratio_trial":100,"L_num":3,"L_den":6,"R_num":4,"R_den":10,"correct_side":1,"subjID":"sarah isabella zamboni vincos 14","gender":"1","school":"4","age":"10"},{"start_time":1552313276117,"click_time":1552313277325,"finger_time":1552313276505,"fix_duration":250,"trial":60,"RT":388,"MT":820,"sideResp":1,"stimulus":[],"xmouse":[789,789,789,789,789,789,789,789,789,786,784,781,780,779,776,767,762,754,742,725,695,681,668,653,626,608,595,585,574,563,540,534,531,530,539,547,556,567,581,617,640,658,674,681,683,671,651,608,542,468,347,325,321,321,321,321,321,321,321,321,473],"ymouse":[536,536,536,536,536,536,536,536,536,536,536,536,536,536,536,538,538,539,539,539,539,536,532,525,500,471,449,427,405,385,343,326,314,306,289,282,279,277,276,275,274,272,269,265,262,242,224,196,160,119,51,31,13,7,7,7,7,7,7,7,1],"timestamp_mouse":[9,39,49,67,88,109,127,149,168,189,208,228,249,269,288,308,329,349,368,388,408,429,448,468,490,508,529,547,568,588,608,628,649,668,690,707,729,748,768,790,808,829,848,868,888,908,928,948,968,987,1008,1029,1049,1067,1087,1107,1128,1148,1169,1189,1208],"xSR":741.5,"ySR":469.95,"xT1":424.9,"yT1":0,"xT2":1058.1,"yT2":0,"toosoon":0,"cond_shown":"Incongruent","ratio_trial":300,"L_num":1,"L_den":2,"R_num":2,"R_den":10,"correct_side":1,"subjID":"sarah isabella zamboni vincos 14","gender":"1","school":"4","age":"10"},{"start_time":1552313278879,"click_time":1552313279566,"finger_time":1552313279226,"fix_duration":391.10658908641835,"trial":61,"RT":347,"MT":340,"sideResp":1,"stimulus":[],"xmouse":[786,786,785,782,779,778,777,777,777,776,776,774,772,769,765,751,744,700,686,673,662,654,633,622,612,602,590,568,554,532,518,502,471,450,428],"ymouse":[524,524,524,524,524,524,524,524,524,524,524,524,524,522,519,511,507,485,478,471,465,458,440,428,415,400,377,334,301,268,244,211,147,106,64],"timestamp_mouse":[10,26,45,66,87,107,125,147,166,187,206,227,246,267,286,306,327,347,367,386,406,426,446,467,487,507,526,545,566,586,607,627,646,667,687],"xSR":741.5,"ySR":469.95,"xT1":424.9,"yT1":0,"xT2":1058.1,"yT2":0,"toosoon":0,"cond_shown":"Incongruent","ratio_trial":100,"L_num":10,"L_den":25,"R_num":9,"R_den":18,"correct_side":2,"subjID":"sarah isabella zamboni vincos 14","gender":"1","school":"4","age":"10"},{"start_time":1552313282166,"click_time":1552313283045,"finger_time":1552313282625,"fix_duration":1480.5508947315348,"trial":62,"RT":459,"MT":420,"sideResp":2,"stimulus":[],"xmouse":[792,792,793,794,795,796,796,796,796,796,796,796,796,796,796,796,796,796,796,798,802,807,813,825,826,826,821,813,807,807,812,816,819,829,838,844,848,855,857,865,872,902,1020,1062],"ymouse":[491,491,495,501,504,507,507,507,507,507,507,507,507,507,507,507,507,507,507,500,490,476,453,393,349,291,235,180,124,108,94,90,85,75,69,65,62,60