[{"start_time":1552313604333,"click_time":1552313610957,"finger_time":1552313604338,"fix_duration":613.104443120972,"trial":0,"RT":5,"MT":6619,"sideResp":2,"stimulus":"img/250/equaldotsize/L/5_Ratio_250_L_24_R_6.png","xmouse":[792,792,792,792,792,792,792,792,792,792,792,792,792,792,792,792,792,792,792,792,792,792,792,792,792,792,792,792,792,792,792,792,792,792,792,792,792,792,792,792,792,792,792,792,792,792,792,792,792,792,792,792,792,792,792,792,792,792,792,792,792,792,792,792,792,792,792,792,792,792,792,792,792,792,792,792,792,792,792,792,792,792,792,792,792,792,792,792,792,792,792,792,792,792,792,792,792,792,792,792,792,792,792,792,792,792,792,792,792,792,792,792,792,792,792,792,792,792,792,792,792,792,792,792,792,792,792,792,792,792,792,792,792,792,792,792,792,792,792,792,792,792,792,792,792,792,792,792,792,792,792,792,789,783,776,776,775,774,770,761,759,758,760,761,763,771,774,777,778,778,779,779,780,782,783,783,783,783,784,784,784,784,784,784,784,784,785,785,785,785,785,785,785,785,785,785,785,785,785,785,785,785,785,785,785,785,785,785,785,785,785,785,785,785,785,785,785,785,785,785,786,787,788,789,789,789,789,789,789,789,789,789,789,789,789,789,789,789,789,789,789,789,789,789,789,789,789,789,789,789,789,789,789,789,789,789,789,789,789,789,789,789,789,789,787,787,787,787,787,787,787,787,787,787,787,787,787,787,787,787,787,787,786,786,786,786,786,786,786,786,786,786,786,786,786,786,786,786,787,790,799,819,845,880,918,957,975,985,992,997,1010,1036,1056,1078,1098,1118,1118,1118,1116,1115,1115,1115,1115,1116,1116,1116,1116,1116,1116,1116,1119,1124],"ymouse":[565,565,565,565,565,565,565,565,565,565,565,565,565,565,565,565,565,565,565,565,565,565,565,565,565,565,565,565,565,565,565,565,565,565,565,565,565,565,565,565,565,565,565,565,565,565,565,565,565,565,565,565,565,565,565,565,565,565,565,565,565,565,565,565,565,565,565,565,565,565,565,565,565,565,565,565,565,565,565,565,565,565,565,565,565,565,565,565,565,565,565,565,565,565,565,565,565,565,565,565,565,565,565,565,565,565,565,565,565,565,565,565,565,565,565,565,565,565,565,565,565,565,565,565,565,565,565,565,565,565,565,565,565,565,565,565,565,565,565,565,565,565,565,565,565,565,565,565,565,565,565,565,565,568,576,578,580,582,588,599,605,609,613,615,617,620,621,622,625,630,631,631,631,631,631,631,631,631,631,631,631,631,631,631,631,631,631,631,631,631,631,631,631,631,631,631,631,631,631,631,631,631,631,631,631,631,631,631,631,631,631,631,631,631,631,631,631,631,631,631,631,630,628,627,625,624,623,623,622,621,621,621,621,621,621,621,621,621,621,621,621,621,621,621,621,621,621,621,621,621,621,621,621,621,621,621,621,621,621,621,621,621,621,621,622,622,622,622,622,622,622,622,622,622,622,622,622,622,622,622,622,623,625,625,625,625,625,625,625,625,625,625,625,625,625,625,625,625,621,617,597,573,547,506,461,415,395,381,371,360,337,307,283,262,237,190,174,163,153,150,149,148,145,143,141,136,135,134,130,120,108,96],"timestamp_mouse":[5,22,42,63,83,104,124,143,163,183,203,223,242,262,282,304,324,343,364,383,403,423,443,463,483,504,523,543,563,583,603,624,644,663,683,703,723,744,764,783,803,823,842,863,884,904,924,943,962,983,1002,1024,1043,1064,1083,1103,1123,1144,1163,1183,1202,1223,1243,1263,1284,1304,1324,1343,1362,1383,1402,1423,1443,1463,1483,1504,1523,1543,1564,1584,1604,1623,1642,1663,1683,1702,1723,1744,1764,1783,1803,1822,1843,1862,1884,1902,1923,1943,1963,1983,2002,2023,2044,2064,2084,2103,2123,2143,2164,2184,2203,2223,2243,2263,2283,2303,2323,2343,2364,2384,2404,2424,2443,2464,2483,2502,2523,2543,2562,2582,2603,2623,2643,2662,2683,2703,2722,2744,2764,2784,2803,2822,2843,2863,2883,2902,2924,2944,2963,2983,3003,3023,3042,3062,3084,3103,3123,3143,3162,3182,3203,3224,3242,3263,3282,3302,3323,3343,3362,3382,3403,3423,3442,3463,3483,3504,3523,3544,3562,3582,3603,3622,3642,3663,3683,3702,3723,3743,3763,3783,3803,3822,3844,3864,3882,3903,3923,3944,3963,3983,4003,4023,4043,4063,4082,4103,4122,4142,4162,4184,4204,4223,4242,4263,4283,4304,4322,4344,4363,4384,4402,4423,4442,4462,4484,4504,4522,4543,4564,4584,4603,4623,4642,4664,4684,4702,4723,4744,4762,4782,4802,4823,4843,4864,4882,4903,4922,4942,4963,4982,5003,5024,5043,5062,5084,5102,5124,5144,5162,5183,5203,5222,5242,5264,5283,5303,5324,5344,5362,5382,5402,5423,5442,5463,5484,5503,5523,5543,5564,5583,5603,5623,5643,5663,5684,5703,5723,5743,5764,5784,5803,5823,5843,5862,5882,5904,5923,5942,5963,5983,6003,6022,6043,6063,6083,6103,6124,6143,6164,6184,6204,6223,6244,6263,6283,6304,6324,6344,6364,6384,6403,6423,6443,6463,6484,6504,6523,6543,6564,6584,6603,6623],"xSR":741.5,"ySR":501.8,"xT1":424.9,"yT1":0,"xT2":1058.1,"yT2":0,"toosoon":0,"cond_shown":"equaldotsize","ratio_trial":250,"smaller_num":"6","larger_num":"24","correct_side":1,"subjID":"sarahzamboni14","gender":"1","age":"10","school":"4","test":{"fix_dur":[250,1500],"timestim":300,"targets_dim":[100,100],"targets_relative_coord":[0.3,0.7],"size_stim":[880,420],"start_dim":[100,100],"size_start":[300,300],"size_fix":60,"samplingrate":20,"img_types":["equaldotsize","equaldotanddens","randomdotsizeEA"],"ratios":[250,500,750,900],"rep_conds":9,"nTrials":120,"trials_to_rest":500,"Trials_order":[84,77,70,54,17,11,46,40,93,59,69,108,95,22,35,14,67,39,26,106,21,19,41,52,63,12,74,103,104,48,42,82,8,38,16,73,86,34,43,32,20,23,85,60,90,76,44,1,50,96,28,115,71,2,24,10,78,64,87,5,51,47,49,100,97,31,112,118,55,119,102,13,30,116,61,58,83,25,27,53,4,57,33,66,65,113,81,36,88,105,68,107,94,7,3,0,15,56,109,9,99,75,111,72,114,37,110,45,101,80,6,91,62,79,98,18,117,92,89,29],"cond_shown":["equaldotsize","randomdotsizeEA","equaldotanddens","equaldotsize","randomdotsizeEA","randomdotsizeEA","equaldotanddens","equaldotanddens","equaldotsize","randomdotsizeEA","equaldotsize","equaldotsize","randomdotsizeEA","equaldotanddens","randomdotsizeEA","randomdotsizeEA","equaldotanddens","equaldotsize","randomdotsizeEA","equaldotanddens","equaldotsize","equaldotanddens","randomdotsizeEA","equaldotanddens","equaldotsize","equaldotsize","randomdotsizeEA","equaldotanddens","randomdotsizeEA","equaldotsize","equaldotsize","equaldotanddens","randomdotsizeEA","randomdotsizeEA","equaldotanddens","equaldotanddens","randomdotsizeEA","equaldotanddens","equaldotanddens","randomdotsizeEA","randomdotsizeEA","randomdotsizeEA","equaldotanddens","equaldotsize","equaldotsize","equaldotanddens","randomdotsizeEA","equaldotanddens","randomdotsizeEA","equaldotsize","equaldotanddens","equaldotanddens","randomdotsizeEA","randomdotsizeEA","equaldotsize","equaldotanddens","equaldotsize","equaldotanddens","equaldotsize","randomdotsizeEA","equaldotsize","randomdotsizeEA","equaldotanddens","equaldotanddens","equaldotanddens","equaldotanddens","equaldotanddens","equaldotanddens","equaldotanddens","randomdotsizeEA","equaldotsize","equaldotanddens","equaldotsize","randomdotsizeEA","equaldotanddens","equaldotanddens","randomdotsizeEA","equaldotanddens","equaldotsize","randomdotsizeEA","equaldotanddens","equaldotsize","equaldotsize","equaldotsize","randomdotsizeEA","randomdotsizeEA","equaldotsize","equaldotsize","equaldotanddens","equaldotsize","randomdotsizeEA","randomdotsizeEA","equaldotanddens","equaldotanddens","equaldotsize","equaldotsize","equaldotsize","randomdotsizeEA","equaldotanddens","equaldotsize","equaldotsize","equaldotsize","equaldotsize","equaldotsize","equaldotsize","equaldotanddens","randomdotsizeEA","equaldotsize","randomdotsizeEA","randomdotsizeEA","equaldotsize","equaldotanddens","randomdotsizeEA","equaldotanddens","randomdotsizeEA","equaldotsize","equaldotsize","randomdotsizeEA","randomdotsizeEA","randomdotsizeEA"],"ratio_trial":[250,500,900,750,500,900,900,500,900,900,900,250,900,900,900,250,750,500,250,900,900,750,500,500,500,250,250,750,750,250,750,900,750,250,500,250,250,900,750,750,750,900,250,250,750,500,750,250,250,250,500,750,900,250,250,900,750,500,500,500,500,900,250,500,250,750,500,900,750,900,750,250,750,750,250,900,900,250,500,500,500,900,900,750,500,500,900,250,500,900,750,900,900,750,500,250,500,750,250,900,500,500,500,250,750,250,250,900,500,750,750,750,250,750,250,750,900,750,500,500],"smaller_num":["6","5","9","15","10","18","18","6","9","18","9","3","9","9","9","3","6","5","3","18","18","15","6","3","1","1","6","18","15","3","15","18","15","1","10","4","3","18","18","3","15","9","1","2","6","9","3","2","2","1","6","3","18","2","6","9","6","9","10","10","5","18","3","3","3","15","9","9","3","18","6","3","3","3","6","9","18","2","6","9","2","9","18","6","9","3","18","3","4","9","3","18","9","18","1","2","3","6","4","18","4","10","6","3","3","2","3","18","2","3","9","3","3","12","3","15","9","3","3","9"],"larger_num":["24","10","10","20","20","20","20","12","10","20","10","12","10","10","10","12","8","10","12","20","20","20","12","6","2","4","24","24","20","12","20","20","20","4","20","16","12","20","24","4","20","10","4","8","8","18","4","8","8","4","12","4","20","8","24","10","8","18","20","20","10","20","12","6","12","20","18","10","4","20","8","12","4","4","24","10","20","8","12","18","4","10","20","8","18","6","20","12","8","10","4","20","10","24","2","8","6","8","16","20","8","20","12","12","4","8","12","20","4","4","12","4","12","16","12","20","10","4","6","18"],"correct_side":[1,1,2,2,2,1,1,1,1,1,2,2,2,2,2,2,1,2,2,2,1,1,1,2,2,2,1,1,2,1,2,2,2,2,2,1,1,2,1,1,2,1,2,2,1,2,1,1,1,2,1,2,2,1,1,2,1,2,2,2,2,1,2,2,2,1,2,1,1,1,1,1,1,1,1,2,1,1,1,2,2,1,1,1,1,2,1,2,1,2,1,1,1,1,2,1,2,2,1,1,1,2,1,1,2,1,1,1,1,2,2,1,1,2,2,1,2,1,2,2],"img_shown":["img/250/equaldotsize/L/5_Ratio_250_L_24_R_6.png","img/500/randomdotsizeEA/L/7_Ratio_500_L_10_R_5.png","img/900/equaldotanddens/R/6_Ratio_900_L_9_R_10.png","img/750/equaldotsize/R/3_Ratio_750_L_15_R_20.png","img/500/randomdotsizeEA/R/3_Ratio_500_L_10_R_20.png","img/900/randomdotsizeEA/L/2_Ratio_900_L_20_R_18.png","img/900/equaldotanddens/L/2_Ratio_900_L_20_R_18.png","img/500/equaldotanddens/L/13_Ratio_500_L_12_R_6.png","img/900/equaldotsize/L/1_Ratio_900_L_10_R_9.png","img/900/randomdotsizeEA/L/4_Ratio_900_L_20_R_18.png","img/900/equaldotsize/R/15_Ratio_900_L_9_R_10.png","img/250/equaldotsize/R/9_Ratio_250_L_3_R_12.png","img/900/randomdotsizeEA/R/3_Ratio_900_L_9_R_10.png","img/900/equaldotanddens/R/6_Ratio_900_L_9_R_10.png","img/900/randomdotsizeEA/R/15_Ratio_900_L_9_R_10.png","img/250/randomdotsizeEA/R/9_Ratio_250_L_3_R_12.png","img/750/equaldotanddens/L/14_Ratio_750_L_8_R_6.png","img/500/equaldotsize/R/14_Ratio_500_L_5_R_10.png","img/250/randomdotsizeEA/R/4_Ratio_250_L_3_R_12.png","img/900/equaldotanddens/R/9_Ratio_900_L_18_R_20.png","img/900/equaldotsize/L/4_Ratio_900_L_20_R_18.png","img/750/equaldotanddens/L/1_Ratio_750_L_20_R_15.png","img/500/randomdotsizeEA/L/13_Ratio_500_L_12_R_6.png","img/500/equaldotanddens/R/2_Ratio_500_L_3_R_6.png","img/500/equaldotsize/R/15_Ratio_500_L_1_R_2.png","img/250/equaldotsize/R/8_Ratio_250_L_1_R_4.png","img/250/randomdotsizeEA/L/5_Ratio_250_L_24_R_6.png","img/750/equaldotanddens/L/6_Ratio_750_L_24_R_18.png","img/750/randomdotsizeEA/R/4_Ratio_750_L_15_R_20.png","img/250/equaldotsize/L/14_Ratio_250_L_12_R_3.png","img/750/equaldotsize/R/4_Ratio_750_L_15_R_20.png","img/900/equaldotanddens/R/13_Ratio_900_L_18_R_20.png","img/750/randomdotsizeEA/R/4_Ratio_750_L_15_R_20.png","img/250/randomdotsizeEA/R/8_Ratio_250_L_1_R_4.png","img/500/equaldotanddens/R/3_Ratio_500_L_10_R_20.png","img/250/equaldotanddens/L/2_Ratio_250_L_16_R_4.png","img/250/randomdotsizeEA/L/15_Ratio_250_L_12_R_3.png","img/900/equaldotanddens/R/12_Ratio_900_L_18_R_20.png","img/750/equaldotanddens/L/6_Ratio_750_L_24_R_18.png","img/750/randomdotsizeEA/L/9_Ratio_750_L_4_R_3.png","img/750/randomdotsizeEA/R/4_Ratio_750_L_15_R_20.png","img/900/randomdotsizeEA/L/1_Ratio_900_L_10_R_9.png","img/250/equaldotanddens/R/8_Ratio_250_L_1_R_4.png","img/250/equaldotsize/R/13_Ratio_250_L_2_R_8.png","img/750/equaldotsize/L/14_Ratio_750_L_8_R_6.png","img/500/equaldotanddens/R/1_Ratio_500_L_9_R_18.png","img/750/randomdotsizeEA/L/10_Ratio_750_L_4_R_3.png","img/250/equaldotanddens/L/3_Ratio_250_L_8_R_2.png","img/250/randomdotsizeEA/L/3_Ratio_250_L_8_R_2.png","img/250/equaldotsize/R/8_Ratio_250_L_1_R_4.png","img/500/equaldotanddens/L/11_Ratio_500_L_12_R_6.png","img/750/equaldotanddens/R/12_Ratio_750_L_3_R_4.png","img/900/randomdotsizeEA/R/14_Ratio_900_L_18_R_20.png","img/250/randomdotsizeEA/L/7_Ratio_250_L_8_R_2.png","img/250/equaldotsize/L/5_Ratio_250_L_24_R_6.png","img/900/equaldotanddens/R/7_Ratio_900_L_9_R_10.png","img/750/equaldotsize/L/13_Ratio_750_L_8_R_6.png","img/500/equaldotanddens/R/1_Ratio_500_L_9_R_18.png","img/500/equaldotsize/R/3_Ratio_500_L_10_R_20.png","img/500/randomdotsizeEA/R/3_Ratio_500_L_10_R_20.png","img/500/equaldotsize/R/14_Ratio_500_L_5_R_10.png","img/900/randomdotsizeEA/L/2_Ratio_900_L_20_R_18.png","img/250/equaldotanddens/R/9_Ratio_250_L_3_R_12.png","img/500/equaldotanddens/R/2_Ratio_500_L_3_R_6.png","img/250/equaldotanddens/R/4_Ratio_250_L_3_R_12.png","img/750/equaldotanddens/L/1_Ratio_750_L_20_R_15.png","img/500/equaldotanddens/R/6_Ratio_500_L_9_R_18.png","img/900/equaldotanddens/L/1_Ratio_900_L_10_R_9.png","img/750/equaldotanddens/L/9_Ratio_750_L_4_R_3.png","img/900/randomdotsizeEA/L/10_Ratio_900_L_20_R_18.png","img/750/equaldotsize/L/13_Ratio_750_L_8_R_6.png","img/250/equaldotanddens/L/14_Ratio_250_L_12_R_3.png","img/750/equaldotsize/L/10_Ratio_750_L_4_R_3.png","img/750/randomdotsizeEA/L/9_Ratio_750_L_4_R_3.png","img/250/equaldotanddens/L/5_Ratio_250_L_24_R_6.png","img/900/equaldotanddens/R/6_Ratio_900_L_9_R_10.png","img/900/randomdotsizeEA/L/10_Ratio_900_L_20_R_18.png","img/250/equaldotanddens/L/1_Ratio_250_L_8_R_2.png","img/500/equaldotsize/L/11_Ratio_500_L_12_R_6.png","img/500/randomdotsizeEA/R/6_Ratio_500_L_9_R_18.png","img/500/equaldotanddens/R/9_Ratio_500_L_2_R_4.png","img/900/equaldotsize/L/1_Ratio_900_L_10_R_9.png","img/900/equaldotsize/L/2_Ratio_900_L_20_R_18.png","img/750/equaldotsize/L/13_Ratio_750_L_8_R_6.png","img/500/randomdotsizeEA/L/4_Ratio_500_L_18_R_9.png","img/500/randomdotsizeEA/R/2_Ratio_500_L_3_R_6.png","img/900/equaldotsize/L/2_Ratio_900_L_20_R_18.png","img/250/equaldotsize/R/9_Ratio_250_L_3_R_12.png","img/500/equaldotanddens/L/8_Ratio_500_L_8_R_4.png","img/900/equaldotsize/R/6_Ratio_900_L_9_R_10.png","img/750/randomdotsizeEA/L/8_Ratio_750_L_4_R_3.png","img/900/randomdotsizeEA/L/8_Ratio_900_L_20_R_18.png","img/900/equaldotanddens/L/1_Ratio_900_L_10_R_9.png","img/750/equaldotanddens/L/6_Ratio_750_L_24_R_18.png","img/500/equaldotsize/R/12_Ratio_500_L_1_R_2.png","img/250/equaldotsize/L/7_Ratio_250_L_8_R_2.png","img/500/equaldotsize/R/2_Ratio_500_L_3_R_6.png","img/750/randomdotsizeEA/R/2_Ratio_750_L_6_R_8.png","img/250/equaldotanddens/L/2_Ratio_250_L_16_R_4.png","img/900/equaldotsize/L/8_Ratio_900_L_20_R_18.png","img/500/equaldotsize/L/8_Ratio_500_L_8_R_4.png","img/500/equaldotsize/R/3_Ratio_500_L_10_R_20.png","img/500/equaldotsize/L/11_Ratio_500_L_12_R_6.png","img/250/equaldotsize/L/15_Ratio_250_L_12_R_3.png","img/750/equaldotsize/R/12_Ratio_750_L_3_R_4.png","img/250/equaldotanddens/L/1_Ratio_250_L_8_R_2.png","img/250/randomdotsizeEA/L/15_Ratio_250_L_12_R_3.png","img/900/equaldotsize/L/8_Ratio_900_L_20_R_18.png","img/500/randomdotsizeEA/L/5_Ratio_500_L_4_R_2.png","img/750/randomdotsizeEA/R/12_Ratio_750_L_3_R_4.png","img/750/equaldotsize/R/15_Ratio_750_L_9_R_12.png","img/750/equaldotanddens/L/8_Ratio_750_L_4_R_3.png","img/250/randomdotsizeEA/L/14_Ratio_250_L_12_R_3.png","img/750/equaldotanddens/R/11_Ratio_750_L_12_R_16.png","img/250/randomdotsizeEA/R/4_Ratio_250_L_3_R_12.png","img/750/equaldotsize/L/1_Ratio_750_L_20_R_15.png","img/900/equaldotsize/R/6_Ratio_900_L_9_R_10.png","img/750/randomdotsizeEA/L/9_Ratio_750_L_4_R_3.png","img/500/randomdotsizeEA/R/2_Ratio_500_L_3_R_6.png","img/500/randomdotsizeEA/R/1_Ratio_500_L_9_R_18.png"],"Rat0":[["12_Ratio_0_L_9_R_0.png","13_Ratio_0_L_6_R_0.png","5_Ratio_0_L_2_R_0.png","6_Ratio_0_L_4_R_0.png","8_Ratio_0_L_6_R_0.png"],["1_Ratio_0_L_0_R_17.png","10_Ratio_0_L_0_R_22.png","11_Ratio_0_L_0_R_1.png","14_Ratio_0_L_0_R_24.png","15_Ratio_0_L_0_R_4.png","2_Ratio_0_L_0_R_5.png","3_Ratio_0_L_0_R_17.png","4_Ratio_0_L_0_R_7.png","7_Ratio_0_L_0_R_19.png","9_Ratio_0_L_0_R_15.png"]],"Rat250":[["1_Ratio_250_L_8_R_2.png","14_Ratio_250_L_12_R_3.png","15_Ratio_250_L_12_R_3.png","2_Ratio_250_L_16_R_4.png","3_Ratio_250_L_8_R_2.png","5_Ratio_250_L_24_R_6.png","7_Ratio_250_L_8_R_2.png"],["10_Ratio_250_L_4_R_16.png","11_Ratio_250_L_3_R_12.png","12_Ratio_250_L_5_R_20.png","13_Ratio_250_L_2_R_8.png","4_Ratio_250_L_3_R_12.png","6_Ratio_250_L_6_R_24.png","8_Ratio_250_L_1_R_4.png","9_Ratio_250_L_3_R_12.png"]],"Rat500":[["10_Ratio_500_L_4_R_2.png","11_Ratio_500_L_12_R_6.png","13_Ratio_500_L_12_R_6.png","4_Ratio_500_L_18_R_9.png","5_Ratio_500_L_4_R_2.png","7_Ratio_500_L_10_R_5.png","8_Ratio_500_L_8_R_4.png"],["1_Ratio_500_L_9_R_18.png","12_Ratio_500_L_1_R_2.png","14_Ratio_500_L_5_R_10.png","15_Ratio_500_L_1_R_2.png","2_Ratio_500_L_3_R_6.png","3_Ratio_500_L_10_R_20.png","6_Ratio_500_L_9_R_18.png","9_Ratio_500_L_2_R_4.png"]],"Rat750":[["1_Ratio_750_L_20_R_15.png","10_Ratio_750_L_4_R_3.png","13_Ratio_750_L_8_R_6.png","14_Ratio_750_L_8_R_6.png","6_Ratio_750_L_24_R_18.png","8_Ratio_750_L_4_R_3.png","9_Ratio_750_L_4_R_3.png"],["11_Ratio_750_L_12_R_16.png","12_Ratio_750_L_3_R_4.png","15_Ratio_750_L_9_R_12.png","2_Ratio_750_L_6_R_8.png","3_Ratio_750_L_15_R_20.png","4_Ratio_750_L_15_R_20.png","5_Ratio_750_L_15_R_20.png","7_Ratio_750_L_3_R_4.png"]],"Rat900":[["1_Ratio_900_L_10_R_9.png","10_Ratio_900_L_20_R_18.png","2_Ratio_900_L_20_R_18.png","4_Ratio_900_L_20_R_18.png","8_Ratio_900_L_20_R_18.png"],["11_Ratio_900_L_18_R_20.png","12_Ratio_900_L_18_R_20.png","13_Ratio_900_L_18_R_20.png","14_Ratio_900_L_18_R_20.png","15_Ratio_900_L_9_R_10.png","3_Ratio_900_L_9_R_10.png","5_Ratio_900_L_9_R_10.png","6_Ratio_900_L_9_R_10.png","7_Ratio_900_L_9_R_10.png","9_Ratio_900_L_18_R_20.png"]],"Rat1000":[["10_Ratio_1000_L_16_R_16.png","11_Ratio_1000_L_6_R_6.png","12_Ratio_1000_L_14_R_14.png","13_Ratio_1000_L_20_R_20.png","15_Ratio_1000_L_15_R_15.png","2_Ratio_1000_L_17_R_17.png","4_Ratio_1000_L_9_R_9.png","5_Ratio_1000_L_6_R_6.png","6_Ratio_1000_L_19_R_19.png","8_Ratio_1000_L_14_R_14.png","9_Ratio_1000_L_25_R_25.png"],["1_Ratio_1000_L_1_R_1.png","14_Ratio_1000_L_17_R_17.png","3_Ratio_1000_L_17_R_17.png","7_Ratio_1000_L_6_R_6.png"]]}},{"start_time":1552313612787,"click_time":1552313614096,"finger_time":1552313613616,"fix_duration":949.1158988369443,"trial":1,"RT":829,"MT":480,"sideResp":1,"stimulus":"img/500/randomdotsizeEA/L/7_Ratio_500_L_10_R_5.png","xmouse":[775,775,775,775,775,775,775,775,775,775,774,774,774,774,774,774,774,774,774,774,774,774,774,774,774,774,774,774,774,774,774,774,774,774,774,774,774,777,785,795,812,829,876,908,937,964,1020,1098,1117,1130,1139,1142,1143,1141,1138,1137,1135,1129,1117,1089,1037,963,883,670,573,486],"ymouse":[628,628,628,628,628,628,628,628,628,628,628,628,628,628,628,628,628,628,628,628,628,628,628,628,628,628,628,628,628,628,628,628,628,628,628,628,628,621,611,597,581,558,494,454,425,400,349,294,274,257,241,231,219,214,208,205,203,201,201,201,201,197,181,121,94,69],"timestamp_mouse":[10,41,50,69,90,111,130,150,169,190,210,230,250,270,290,310,329,350,370,389,410,430,449,470,490,510,530,549,569,590,609,630,650,669,690,709,729,749,769,790,810,829,849,869,889,910,929,949,970,989,1009,1029,1050,1069,1089,1109,1131,1149,1170,1189,1211,1230,1249,1270,1290,1309],"xSR":741.5,"ySR":573.95,"xT1":424.9,"yT1":0,"xT2":1058.1,"yT2":0,"toosoon":0,"cond_shown":"randomdotsizeEA","ratio_trial":500,"smaller_num":"5","larger_num":"10","correct_side":1,"subjID":"sarahzamboni14","gender":"1","age":"10","school":"4"},{"start_time":1552313615658,"click_time":1552313616696,"finger_time":1552313616157,"fix_duration":298.5666960090304,"trial":2,"RT":499,"MT":539,"sideResp":2,"stimulus":"img/900/equaldotanddens/R/6_Ratio_900_L_9_R_10.png","xmouse":[779,779,779,779,779,779,779,779,779,779,779,779,779,779,779,779,779,779,779,780,780,782,787,800,806,809,810,812,821,831,840,854,885,933,957,976,991,1004,1026,1034,1041,1050,1064,1078,1082,1082,1081,1078,1075,1076,1082,1094],"ymouse":[609,609,609,610,610,610,611,611,611,611,611,611,611,611,611,611,611,611,611,612,612,609,604,582,565,552,538,527,508,495,478,459,427,359,326,303,286,276,262,254,243,231,210,184,169,154,145,136,121,114,104,89],"timestamp_mouse":[19,42,58,79,99,118,139,159,180,199,219,238,258,279,299,319,340,359,379,398,418,438,459,478,499,518,539,558,578,598,618,638,658,679,699,718,738,759,778,798,818,839,858,878,898,919,938,959,978,998,1018,1038],"xSR":741.5,"ySR":573.95,"xT1":424.9,"yT1":0,"xT2":1058.1,"yT2":0,"toosoon":0,"cond_shown":"equaldotanddens","ratio_trial":900,"smaller_num":"9","larger_num":"10","correct_side":2,"subjID":"sarahzamboni14","gender":"1","age":"10","school":"4"},{"start_time":1552313618179,"click_time":1552313619076,"finger_time":1552313618737,"fix_duration":641.123949358581,"trial":3,"RT":558,"MT":339,"sideResp":1,"stimulus":"img/750/equaldotsize/R/3_Ratio_750_L_15_R_20.png","xmouse":[798,798,798,795,793,792,792,792,792,792,792,792,792,792,792,792,792,792,792,792,792,792,792,792,792,792,794,805,813,817,820,824,825,817,801,761,719,630,600,578,567,558,551,535,524],"ymouse":[617,618,618,619,620,620,620,620,620,620,620,620,620,620,620,620,620,620,620,620,620,620,620,620,620,615,604,568,549,531,514,498,473,460,444,422,400,360,341,322,303,275,233,141,94],"timestamp_mouse":[17,41,57,78,98,117,138,158,178,198,217,238,259,278,297,317,337,358,377,398,417,437,457,478,497,518,537,558,577,597,617,638,658,677,697,717,738,759,778,798,817,838,858,877,897],"xSR":741.5,"ySR":573.95,"xT1":424.9,"yT1":0,"xT2":1058.1,"yT2":0,"toosoon":0,"cond_shown":"equaldotsize","ratio_trial":750,"smaller_num":"15","larger_num":"20","correct_side":2,"subjID":"sarahzamboni14","gender":"1","age":"10","school":"4"},{"start_time":1552313621317,"click_time":1552313622256,"finger_time":1552313621937,"fix_duration":1078.2154628152873,"trial":4,"RT":620,"MT":319,"sideResp":2,"stimulus":"img/500/randomdotsizeEA/R/3_Ratio_500_L_10_R_20.png","xmouse":[796,796,796,796,796,796,796,796,796,797,797,797,797,797,797,797,797,797,797,797,797,797,797,797,797,797,797,802,809,819,833,852,883,896,908,922,944,1022,1057,1082,1099,1110,1122,1124,1126,1132,1139,1154],"ymouse":[609,609,609,609,609,609,609,609,609,611,611,611,611,611,611,611,611,611,611,611,611,611,611,611,611,611,611,611,605,595,583,568,540,526,505,479,435,309,260,222,192,172,146,139,131,122,112,87],"timestamp_mouse":[1,19,39,60,79,99,120,140,160,179,200,220,240,259,280,299,320,339,360,380,399,420,439,460,481,501,521,539,559,579,600,620,639,660,679,699,720,739,759,779,799,819,839,859,881,899,919,939],"xSR":741.5,"ySR":573.95,"xT1":424.9,"yT1":0,"xT2":1058.1,"yT2":0,"toosoon":0,"cond_shown":"randomdotsizeEA","ratio_trial":500,"smaller_num":"10","larger_num":"20","correct_side":2,"subjID":"sarahzamboni14","gender":"1","age":"10","school":"4"},{"start_time":1552313624382,"click_time":1552313625636,"finger_time":1552313625036,"fix_duration":843.9667709510572,"trial":5,"RT":654,"MT":600,"sideResp":1,"stimulus":"img/900/randomdotsizeEA/L/2_Ratio_900_L_20_R_18.png","xmouse":[785,785,785,786,787,787,787,787,787,787,787,787,787,787,787,787,787,787,787,787,787,788,788,788,788,788,788,788,780,775,768,758,739,719,707,690,668,646,603,589,578,569,559,537,524,511,501,495,490,490,490,490,488,486,486,486,486,486,485,485,484,483,479],"ymouse":[659,659,659,659,659,659,659,659,659,659,659,659,659,659,659,659,659,659,659,659,659,659,659,658,656,655,652,650,633,621,604,583,540,442,379,324,287,261,240,233,227,219,205,171,151,134,122,118,115,115,115,114,112,111,111,111,111,111,110,108,105,101,90],"timestamp_mouse":[16,40,56,75,95,115,136,155,175,195,215,234,255,275,294,314,335,354,374,395,414,434,455,475,494,514,535,555,574,594,615,635,654,674,695,714,735,754,774,794,815,835,855,874,895,915,935,955,974,995,1015,1035,1054,1074,1094,1115,1135,1154,1174,1194,1214,1234,1254],"xSR":741.5,"ySR":573.95,"xT1":424.9,"yT1":0,"xT2":1058.1,"yT2":0,"toosoon":0,"cond_shown":"randomdotsizeEA","ratio_trial":900,"smaller_num":"18","larger_num":"20","correct_side":1,"subjID":"sarahzamboni14","gender":"1","age":"10","school":"4"},{"start_time":1552313629268,"click_time":1552313630137,"finger_time":1552313629757,"fix_duration":849.6230742006243,"trial":6,"RT":489,"MT":380,"sideResp":1,"stimulus":"img/900/equaldotanddens/L/2_Ratio_900_L_20_R_18.png","xmouse":[788,788,788,788,788,788,788,788,788,788,788,788,788,788,788,788,788,788,788,788,785,778,770,759,738,731,714,706,703,705,722,726,722,697,613,572,559,553,552,552,552,549,540,524],"ymouse":[645,645,645,645,645,645,645,645,645,645,645,645,645,645,645,645,645,645,645,645,641,634,623,613,590,579,551,527,499,473,417,374,324,252,115,69,59,58,58,58,58,56,53,50],"timestamp_mouse":[9,41,48,69,88,108,128,149,168,188,209,230,250,268,289,308,328,348,369,388,408,430,448,469,489,508,529,548,569,589,609,628,648,668,690,708,728,749,768,790,809,830,849,869],"xSR":741.5,"ySR":573.95,"xT1":424.9,"yT1":0,"xT2":1058.1,"yT2":0,"toosoon":0,"cond_shown":"equaldotanddens","ratio_trial":900,"smaller_num":"18","larger_num":"20","correct_side":1,"subjID":"sarahzamboni14","gender":"1","age":"10","school":"4"},{"start_time":1552313631398,"click_time":1552313632397,"finger_time":1552313631976,"fix_duration":580.4556791494687,"trial":7,"RT":578,"MT":421,"sideResp":1,"stimulus":"img/500/equaldotanddens/L/13_Ratio_500_L_12_R_6.png","xmouse":[781,780,779,776,776,776,776,776,776,776,776,776,776,776,776,776,776,776,776,776,776,776,774,771,769,766,762,753,723,682,648,612,571,530,515,505,501,501,521,527,530,531,531,531,531,531,530,527,502,477],"ymouse":[646,643,641,637,636,635,635,635,635,635,635,635,635,635,635,635,635,635,635,635,635,634,632,629,627,622,613,597,554,496,455,408,358,303,279,259,242,230,200,190,182,175,173,172,170,167,163,155,110,79],"timestamp_mouse":[22,38,60,78,99,119,138,158,178,198,218,239,260,279,299,318,339,358,378,398,418,439,459,479,498,518,538,559,578,599,620,639,659,678,700,718,738,759,779,798,818,839,859,879,899,920,940,959,978,998],"xSR":741.5,"ySR":573.95,"xT1":424.9,"yT1":0,"xT2":1058.1,"yT2":0,"toosoon":0,"cond_shown":"equaldotanddens","ratio_trial":500,"smaller_num":"6","larger_num":"12","correct_side":1,"subjID":"sarahzamboni14","gender":"1","age":"10","school":"4"},{"start_time":1552313635420,"click_time":1552313636896,"finger_time":1552313636196,"fix_duration":840.0637890066998,"trial":8,"RT":776,"MT":700,"sideResp":2,"stimulus":"img/900/equaldotsize/L/1_Ratio_900_L_10_R_9.png","xmouse":[800,800,800,800,800,800,800,800,800,800,800,800,800,800,800,800,800,800,800,800,800,800,800,800,800,800,800,800,800,800,800,800,800,800,800,802,807,819,844,866,889,915,940,981,993,1007,1020,1030,1063,1077,1091,1100,1106,1123,1137,1151,1163,1183,1222,1238,1249,1253,1254,1248,1236,1225,1210,1191,1156,1145,1133,1127,1125,1123],"ymouse":[635,635,635,635,635,635,635,635,635,635,635,635,635,635,635,635,635,635,635,635,635,635,635,635,635,635,634,633,632,630,629,628,628,628,627,624,620,609,589,573,558,538,518,485,477,467,456,446,407,383,356,321,289,232,211,187,172,139,70,44,25,12,9,10,22,38,55,74,103,111,115,115,115,95],"timestamp_mouse":[16,38,57,76,98,117,136,157,176,197,217,237,256,277,297,317,337,356,377,397,417,437,456,477,497,516,538,556,578,596,616,637,658,677,696,716,737,758,776,797,816,837,858,877,897,916,936,957,976,997,1017,1037,1058,1076,1096,1116,1136,1157,1176,1197,1216,1237,1256,1276,1296,1316,1336,1356,1376,1396,1416,1438,1457,1476],"xSR":741.5,"ySR":573.95,"xT1":424.9,"yT1":0,"xT2":1058.1,"yT2":0,"toosoon":0,"cond_shown":"equaldotsize","ratio_trial":900,"smaller_num":"9","larger_num":"10","correct_side":1,"subjID":"sarahzamboni14","gender":"1","age":"10","school":"4"},{"start_time":1552313638814,"click_time":1552313639937,"finger_time":1552313639477,"fix_duration":1195.81882964511,"trial":9,"RT":663,"MT":460,"sideResp":1,"stimulus":"img/900/randomdotsizeEA/L/4_Ratio_900_L_20_R_18.png","xmouse":[814,814,814,814,815,815,815,815,815,815,815,815,815,815,815,815,815,815,815,815,815,815,815,815,815,815,815,815,815,809,794,786,777,767,755,745,734,725,717,686,671,657,640,634,628,626,623,620,619,615,610,607,598,581,558,542,520],"ymouse":[615,613,612,612,611,611,611,611,611,611,611,611,611,611,611,611,611,611,611,611,611,611,611,611,611,611,611,610,608,604,593,585,574,558,526,486,433,373,324,245,221,201,176,163,144,136,130,125,121,119,118,117,114,107,98,93,86],"timestamp_mouse":[10,22,49,63,83,102,124,142,163,183,203,222,242,262,282,302,323,343,362,382,402,423,442,463,484,503,522,543,562,583,603,623,642,663,682,703,723,744,763,783,802,823,842,863,882,903,922,942,964,983,1002,1023,1043,1063,1083,1104,1123],"xSR":741.5,"ySR":573.95,"xT1":424.9,"yT1":0,"xT2":1058.1,"yT2":0,"toosoon":0,"cond_shown":"randomdotsizeEA","ratio_trial":900,"smaller_num":"18","larger_num":"20","correct_side":1,"subjID":"sarahzamboni14","gender":"1","age":"10","school":"4"},{"start_time":1552313641328,"click_time":1552313642297,"finger_time":1552313642056,"fix_duration":250,"trial":10,"RT":728,"MT":241,"sideResp":2,"stimulus":"img/900/equaldotsize/R/15_Ratio_900_L_9_R_10.png","xmouse":[788,788,789,792,793,795,796,796,797,797,797,797,797,797,798,799,799,799,800,800,800,800,800,800,800,800,801,801,801,802,802,802,804,812,824,837,853,872,897,966,1014,1051,1075,1087,1097,1097,1103,1105,1110],"ymouse":[599,600,600,602,602,603,604,604,605,605,605,605,605,605,607,607,608,608,609,609,609,609,609,609,609,609,610,610,610,611,611,611,611,606,590,576,559,539,510,385,305,222,179,152,122,122,109,105,95],"timestamp_mouse":[9,28,50,70,89,109,128,149,170,189,209,228,249,268,289,308,329,349,368,389,408,429,449,469,488,508,530,548,570,590,608,628,649,669,688,708,728,749,768,788,809,829,849,868,889,908,929,948,969],"xSR":741.5,"ySR":573.95,"xT1":424.9,"yT1":0,"xT2":1058.1,"yT2":0,"toosoon":0,"cond_shown":"equaldotsize","ratio_trial":900,"smaller_num":"9","larger_num":"10","correct_side":2,"subjID":"sarahzamboni14","gender":"1","age":"10","school":"4"},{"start_time":1552313644697,"click_time":1552313645617,"finger_time":1552313645157,"fix_duration":878.6014278060842,"trial":11,"RT":460,"MT":460,"sideResp":2,"stimulus":"img/250/equaldotsize/R/9_Ratio_250_L_3_R_12.png","xmouse":[789,789,789,789,789,789,789,789,789,789,789,789,789,789,789,789,789,789,790,790,790,790,794,800,807,828,836,849,860,870,894,909,924,947,978,1026,1038,1044,1048,1052,1058,1061,1066,1072,1077,1085],"ymouse":[624,624,624,624,624,624,624,624,624,624,624,624,624,624,624,624,624,622,620,615,596,579,556,529,506,451,434,418,401,385,348,328,305,270,229,159,142,133,127,121,114,111,107,103,100,98],"timestamp_mouse":[20,43,60,80,100,121,140,160,180,200,219,239,260,280,300,319,340,360,379,400,420,441,460,479,499,519,540,559,580,599,620,639,660,679,699,719,739,760,781,800,820,840,859,879,900,919],"xSR":741.5,"ySR":573.95,"xT1":424.9,"yT1":0,"xT2":1058.1,"yT2":0,"toosoon":0,"cond_shown":"equaldotsize","ratio_trial":250,"smaller_num":"3","larger_num":"12","correct_side":2,"subjID":"sarahzamboni14","gender":"1","age":"10","school":"4"},{"start_time":1552313646828,"click_time":1552313648498,"finger_time":1552313647277,"fix_duration":250,"trial":12,"RT":449,"MT":1221,"sideResp":2,"stimulus":"img/900/randomdotsizeEA/R/3_Ratio_900_L_9_R_10.png","xmouse":[761,764,764,766,766,766,766,766,767,769,770,772,773,773,774,774,774,774,774,773,769,764,753,738,704,692,678,665,652,625,612,600,589,575,552,545,542,541,541,540,538,534,532,527,515,507,494,490,480,473,473,473,474,486,517,534,557,575,594,600,603,608,620,635,668,679,683,684,684,685,693,708,728,758,830,871,907,936,977,1012,1030,1048,1074,1099],"ymouse":[617,616,616,615,615,615,615,615,615,615,616,618,619,620,621,621,621,621,621,615,602,588,566,543,492,463,430,385,349,283,246,212,188,162,126,115,110,107,106,106,106,108,110,111,111,111,109,108,106,104,104,104,104,108,119,123,126,128,131,133,134,138,147,156,174,179,183,184,184,184,184,185,185,185,185,185,185,179,167,151,140,127,112,99],"timestamp_mouse":[11,39,49,68,88,108,129,148,168,188,209,229,249,269,290,308,329,349,369,388,408,429,449,469,489,508,528,549,569,588,608,628,648,668,688,708,728,749,769,789,809,829,848,868,888,909,928,949,970,989,1008,1029,1048,1069,1088,1108,1129,1149,1169,1188,1208,1228,1249,1269,1288,1308,1330,1348,1368,1388,1408,1428,1448,1469,1488,1508,1529,1548,1568,1588,1609,1628,1649,1670],"xSR":741.5,"ySR":573.95,"xT1":424.9,"yT1":0,"xT2":1058.1,"yT2":0,"toosoon":0,"cond_shown":"randomdotsizeEA","ratio_trial":900,"smaller_num":"9","larger_num":"10","correct_side":2,"subjID":"sarahzamboni14","gender":"1","age":"10","school":"4"},{"start_time":1552313651561,"click_time":1552313652957,"finger_time":1552313652317,"fix_duration":1004.7663379693993,"trial":13,"RT":756,"MT":640,"sideResp":2,"stimulus":"img/900/equaldotanddens/R/6_Ratio_900_L_9_R_10.png","xmouse":[780,780,780,781,781,781,782,782,783,783,785,785,786,786,786,787,787,788,788,788,788,788,788,788,788,788,788,789,789,789,789,789,789,791,793,799,809,834,859,867,903,936,975,990,1002,1017,1029,1070,1122,1143,1200,1228,1245,1247,1246,1243,1240,1234,1206,1195,1183,1175,1169,1164,1163,1163,1163,1163,1159,1154],"ymouse":[631,631,631,632,632,632,633,633,636,636,637,637,639,639,639,640,640,640,640,640,640,640,640,640,640,640,640,640,638,635,633,631,626,623,615,606,595,566,538,528,489,464,413,390,370,346,322,251,170,143,61,6,0,0,0,0,0,0,24,37,50,57,63,66,66,66,66,66,66,66],"timestamp_mouse":[15,39,56,76,96,115,136,156,176,195,216,236,255,276,295,315,335,355,375,396,416,435,456,475,496,516,536,556,575,596,616,635,656,675,697,716,735,756,775,795,816,836,857,875,896,916,936,956,975,995,1015,1036,1056,1076,1095,1116,1135,1156,1175,1196,1216,1235,1256,1275,1295,1316,1336,1355,1376,1396],"xSR":741.5,"ySR":573.95,"xT1":424.9,"yT1":0,"xT2":1058.1,"yT2":0,"toosoon":0,"cond_shown":"equaldotanddens","ratio_trial":900,"smaller_num":"9","larger_num":"10","correct_side":2,"subjID":"sarahzamboni14","gender":"1","age":"10","school":"4"},{"start_time":1552313655236,"click_time":1552313656057,"finger_time":1552313655717,"fix_duration":1397.445429090033,"trial":14,"RT":481,"MT":340,"sideResp":2,"stimulus":"img/900/randomdotsizeEA/R/15_Ratio_900_L_9_R_10.png","xmouse":[819,819,819,819,819,819,819,819,819,819,817,815,813,811,806,800,798,796,795,794,792,791,790,789,788,791,799,812,826,843,890,916,941,967,978,1002,1006,1013,1020,1029,1052,1068],"ymouse":[634,634,633,633,633,633,633,633,632,631,627,625,624,622,620,616,615,614,613,612,610,608,604,591,556,491,465,431,400,364,297,264,234,194,180,144,136,128,119,110,89,79],"timestamp_mouse":[12,25,41,60,80,100,120,140,161,182,200,220,240,261,281,301,320,340,360,382,400,421,441,461,481,500,521,541,562,581,600,621,641,661,681,700,721,741,760,780,800,820],"xSR":741.5,"ySR":573.95,"xT1":424.9,"yT1":0,"xT2":1058.1,"yT2":0,"toosoon":0,"cond_shown":"randomdotsizeEA","ratio_trial":900,"smaller_num":"9","larger_num":"10","correct_side":2,"subjID":"sarahzamboni14","gender":"1","age":"10","school":"4"},{"start_time":1552313657769,"click_time":1552313658737,"finger_time":1552313658317,"fix_duration":608.2386617520455,"trial":15,"RT":548,"MT":420,"sideResp":2,"stimulus":"img/250/randomdotsizeEA/R/9_Ratio_250_L_3_R_12.png","xmouse":[787,787,787,787,787,787,787,787,787,787,787,787,787,787,787,787,787,787,787,787,787,787,787,787,790,799,817,833,851,879,889,895,897,898,898,898,907,915,934,943,954,967,980,1006,1020,1032,1050,1062,1080],"ymouse":[630,630,630,630,630,630,630,630,630,630,630,630,630,630,630,630,630,630,630,630,630,630,630,630,622,607,582,557,534,495,478,463,448,413,386,377,346,332,299,285,272,256,239,201,183,163,135,116,86],"timestamp_mouse":[10,37,48,67,88,107,128,148,167,188,209,227,249,267,288,308,328,348,368,387,407,428,448,468,488,507,528,548,568,588,608,627,647,668,687,708,728,748,768,787,807,829,848,868,887,907,927,947,968],"xSR":741.5,"ySR":573.95,"xT1":424.9,"yT1":0,"xT2":1058.1,"yT2":0,"toosoon":0,"cond_shown":"randomdotsizeEA","ratio_trial":250,"smaller_num":"3","larger_num":"12","correct_side":2,"subjID":"sarahzamboni14","gender":"1","age":"10","school":"4"},{"start_time":1552313661386,"click_time":1552313662278,"finger_time":1552313661777,"fix_duration":1267.1102857757219,"trial":16,"RT":391,"MT":501,"sideResp":1,"stimulus":"img/750/equaldotanddens/L/14_Ratio_750_L_8_R_6.png","xmouse":[792,792,792,792,792,792,793,794,794,794,794,795,795,796,798,801,805,807,814,819,823,824,826,820,809,795,778,757,713,696,684,676,663,652,646,637,626,616,593,582,567,550,534,498,486],"ymouse":[617,617,617,617,617,617,617,617,617,617,617,617,617,617,615,612,608,603,584,567,547,526,490,466,451,438,426,414,382,363,343,321,281,251,235,222,206,196,177,169,160,148,133,100,89],"timestamp_mouse":[13,36,51,71,91,111,130,151,170,192,210,230,251,270,291,310,332,350,371,391,410,430,452,470,491,510,530,550,571,590,610,630,652,671,690,710,731,750,771,791,810,831,851,871,891],"xSR":741.5,"ySR":573.95,"xT1":424.9,"yT1":0,"xT2":1058.1,"yT2":0,"toosoon":0,"cond_shown":"equaldotanddens","ratio_trial":750,"smaller_num":"6","larger_num":"8","correct_side":1,"subjID":"sarahzamboni14","gender":"1","age":"10","school":"4"},{"start_time":1552313663618,"click_time":1552313664716,"finger_time":1552313664056,"fix_duration":479.4977780132695,"trial":17,"RT":438,"MT":660,"sideResp":2,"stimulus":"img/500/equaldotsize/R/14_Ratio_500_L_5_R_10.png","xmouse":[779,779,780,780,780,780,780,780,780,780,780,782,783,785,788,792,796,798,800,804,809,845,860,873,883,887,888,888,888,888,890,904,917,934,948,961,979,986,993,997,1001,1009,1013,1016,1020,1024,1026,1027,1027,1029,1038,1051,1054,1057,1060],"ymouse":[620,620,621,621,621,621,621,621,621,621,621,621,621,621,620,616,607,603,600,597,592,558,540,519,501,490,475,470,462,452,430,379,347,300,260,231,196,184,176,169,162,145,134,127,119,114,110,109,109,106,99,89,87,84,82],"timestamp_mouse":[20,39,60,79,99,118,138,158,178,198,219,238,258,279,299,320,338,358,378,399,418,438,458,478,499,519,539,559,578,599,618,638,659,678,699,719,738,758,779,798,820,839,860,879,899,919,938,960,978,998,1019,1038,1060,1079,1098],"xSR":741.5,"ySR":573.95,"xT1":424.9,"yT1":0,"xT2":1058.1,"yT2":0,"toosoon":0,"cond_shown":"equaldotsize","ratio_trial":500,"smaller_num":"5","larger_num":"10","correct_side":2,"subjID":"sarahzamboni14","gender":"1","age":"10","school":"4"},{"start_time":1552313666423,"click_time":1552313667156,"finger_time":1552313666856,"fix_duration":566.3612922003314,"trial":18,"RT":433,"MT":300,"sideResp":2,"stimulus":"img/250/randomdotsizeEA/R/4_Ratio_250_L_3_R_12.png","xmouse":[774,774,774,774,774,774,774,774,774,774,774,774,774,773,773,773,772,770,768,766,762,761,762,772,783,802,851,888,926,973,1033,1077,1096,1109,1121,1133,1152],"ymouse":[636,637,639,640,640,640,640,640,640,640,640,640,640,641,641,641,635,627,615,609,588,571,562,550,536,517,470,432,391,337,263,210,186,168,153,134,96],"timestamp_mouse":[14,34,53,73,93,115,134,153,175,193,214,234,254,274,293,313,333,353,374,394,413,433,454,473,493,514,533,553,575,594,614,633,653,675,694,714,733],"xSR":741.5,"ySR":573.95,"xT1":424.9,"yT1":0,"xT2":1058.1,"yT2":0,"toosoon":0,"cond_shown":"randomdotsizeEA","ratio_trial":250,"smaller_num":"3","larger_num":"12","correct_side":2,"subjID":"sarahzamboni14","gender":"1","age":"10","school":"4"},{"start_time":1552313668349,"click_time":1552313669066,"finger_time":1552313668817,"fix_duration":250,"trial":19,"RT":468,"MT":249,"sideResp":1,"stimulus":"img/900/equaldotanddens/R/9_Ratio_900_L_18_R_20.png","xmouse":[767,767,767,767,767,767,767,767,767,767,767,767,767,767,767,767,767,767,767,767,765,762,757,740,723,690,674,661,647,631,606,589,573,538,520],"ymouse":[632,632,632,632,632,632,632,632,632,632,632,632,632,630,629,626,624,622,619,616,604,596,580,553,526,488,470,451,427,385,260,198,138,54,15],"timestamp_mouse":[7,41,49,68,87,108,128,149,168,187,207,227,248,268,287,308,329,347,368,387,408,428,448,468,487,507,527,547,567,588,608,627,647,667,717],"xSR":741.5,"ySR":573.95,"xT1":424.9,"yT1":0,"xT2":1058.1,"yT2":0,"toosoon":0,"cond_shown":"equaldotanddens","ratio_trial":900,"smaller_num":"18","larger_num":"20","correct_side":2,"subjID":"sarahzamboni14","gender":"1","age":"10","school":"4"},{"start_time":1552313670268,"click_time":1552313672317,"finger_time":1552313670779,"fix_duration":250,"trial":20,"RT":511,"MT":1538,"sideResp":1,"stimulus":"img/900/equaldotsize/L/4_Ratio_900_L_20_R_18.png","xmouse":[821,821,821,821,821,821,821,821,821,821,821,821,821,821,821,821,821,821,821,821,823,826,827,829,831,845,852,862,869,881,900,913,927,937,954,969,974,979,986,992,1009,1016,1020,1022,1023,1029,1034,1038,1043,1044,1047,1047,1047,1047,1047,1047,1047,1044,1042,1042,1042,1042,1042,1042,1042,1042,1042,1042,1044,1045,1047,1048,1050,1053,1055,1059,1059,1059,1042,1013,907,860,818,791,766,721,708,694,677,652,609,599,594,587,583,577,575,574,571,568,554,539,518],"ymouse":[630,630,630,630,630,630,630,630,630,630,630,630,630,630,630,630,630,630,630,630,630,624,619,603,590,521,492,459,434,408,372,351,329,314,292,268,258,253,244,236,219,209,203,195,188,169,163,153,144,138,132,131,131,131,131,132,138,142,145,145,145,145,145,145,145,144,142,140,137,136,130,128,125,119,117,110,110,110,118,136,185,194,196,182,163,115,100,86,75,65,54,53,53,55,60,70,75,77,79,81,81,81,76],"timestamp_mouse":[11,35,48,68,88,108,129,148,170,189,210,229,250,269,290,309,330,350,369,389,410,430,449,469,490,511,529,549,569,590,610,629,650,670,690,709,729,749,770,790,811,829,849,870,889,909,930,949,969,990,1009,1031,1050,1070,1090,1109,1130,1149,1170,1190,1210,1230,1250,1269,1291,1309,1330,1349,1370,1389,1409,1429,1449,1469,1489,1509,1530,1549,1569,1589,1609,1631,1649,1669,1691,1709,1730,1749,1770,1789,1810,1829,1849,1869,1890,1909,1930,1949,1969,1989,2009,2031,2049],"xSR":741.5,"ySR":573.95,"xT1":424.9,"yT1":0,"xT2":1058.1,"yT2":0,"toosoon":0,"cond_shown":"equaldotsize","ratio_trial":900,"smaller_num":"18","larger_num":"20","correct_side":1,"subjID":"sarahzamboni14","gender":"1","age":"10","school":"4"},{"start_time":1552313674453,"click_time":1552313675477,"finger_time":1552313675017,"fix_duration":1174.8585735483125,"trial":21,"RT":564,"MT":460,"sideResp":1,"stimulus":"img/750/equaldotanddens/L/1_Ratio_750_L_20_R_15.png","xmouse":[807,807,807,807,807,807,806,805,804,801,799,797,796,796,796,796,796,796,796,796,796,796,796,796,796,794,781,759,728,706,684,660,619,610,611,611,602,594,586,576,569,551,545,542,538,535,533,532,530,529,525,510],"ymouse":[612,612,612,612,612,612,614,616,619,623,627,628,629,629,629,629,629,629,629,629,629,629,629,629,629,630,626,614,598,583,563,533,431,362,336,260,205,187,174,164,157,137,124,111,100,96,95,95,95,96,96,94],"timestamp_mouse":[4,42,44,64,85,104,124,145,165,184,204,224,245,265,284,304,325,345,364,385,405,425,444,464,484,505,524,544,564,585,605,624,644,664,685,705,724,744,764,784,806,825,844,865,885,904,925,944,965,984,1005,1024],"xSR":741.5,"ySR":573.95,"xT1":424.9,"yT1":0,"xT2":1058.1,"yT2":0,"toosoon":0,"cond_shown":"equaldotanddens","ratio_trial":750,"smaller_num":"15","larger_num":"20","correct_side":1,"subjID":"sarahzamboni14","gender":"1","age":"10","school":"4"},{"start_time":1552313678247,"click_time":1552313679078,"finger_time":1552313678758,"fix_duration":268.30758328973724,"trial":22,"RT":511,"MT":320,"sideResp":1,"stimulus":"img/500/randomdotsizeEA/L/13_Ratio_500_L_12_R_6.png","xmouse":[790,790,790,790,790,790,791,791,791,791,791,791,791,791,791,791,791,791,791,791,791,791,789,785,773,756,726,714,705,693,684,679,678,671,646,628,601,541,522,505,493,477],"ymouse":[614,615,615,615,615,615,616,616,616,616,616,616,616,616,616,616,616,616,616,616,616,615,607,596,579,562,533,514,495,470,446,422,366,341,283,254,219,164,145,122,100,74],"timestamp_mouse":[11,31,51,71,91,111,131,152,171,191,210,230,251,270,290,310,330,352,371,390,410,431,450,470,491,511,532,550,571,590,610,631,652,671,691,711,731,750,771,791,810,831],"xSR":741.5,"ySR":573.95,"xT1":424.9,"yT1":0,"xT2":1058.1,"yT2":0,"toosoon":0,"cond_shown":"randomdotsizeEA","ratio_trial":500,"smaller_num":"6","larger_num":"12","correct_side":1,"subjID":"sarahzamboni14","gender":"1","age":"10","school":"4"},{"start_time":1552313680487,"click_time":1552313682018,"finger_time":1552313680997,"fix_duration":488.7366324532076,"trial":23,"RT":510,"MT":1021,"sideResp":2,"stimulus":"img/500/equaldotanddens/R/2_Ratio_500_L_3_R_6.png","xmouse":[811,811,811,811,811,811,811,811,811,811,811,811,811,811,811,811,811,811,811,811,811,811,811,811,813,822,833,842,852,863,908,937,957,979,1002,1030,1041,1050,1055,1062,1074,1081,1087,1092,1094,1094,1094,1094,1094,1094,1094,1094,1092,1087,1079,1064,1060,1060,1059,1059,1065,1067,1068,1070,1072,1077,1078,1079,1079,1080,1081,1082,1082,1082,1085,1086,1091],"ymouse":[622,622,622,622,622,622,622,622,622,622,622,622,622,622,622,622,622,622,622,622,621,619,617,612,603,573,554,531,511,484,391,345,304,267,239,209,199,192,184,167,138,122,110,103,101,101,100,100,101,102,111,116,128,147,168,195,200,200,196,180,145,131,121,112,109,103,102,102,102,102,104,104,104,104,104,100,84],"timestamp_mouse":[16,43,50,70,90,111,130,150,171,190,210,231,250,270,291,311,330,350,370,390,411,432,451,470,491,510,530,550,571,591,610,630,650,670,691,711,730,750,771,791,810,830,850,871,890,912,931,951,971,990,1010,1032,1051,1071,1090,1110,1132,1151,1170,1190,1211,1230,1250,1270,1291,1310,1330,1350,1370,1391,1410,1430,1451,1471,1491,1510,1531],"xSR":741.5,"ySR":573.95,"xT1":424.9,"yT1":0,"xT2":1058.1,"yT2":0,"toosoon":0,"cond_shown":"equaldotanddens","ratio_trial":500,"smaller_num":"3","larger_num":"6","correct_side":2,"subjID":"sarahzamboni14","gender":"1","age":"10","school":"4"},{"start_time":1552313684201,"click_time":1552313685238,"finger_time":1552313684938,"fix_duration":1342.3666849723609,"trial":24,"RT":737,"MT":300,"sideResp":2,"stimulus":"img/500/equaldotsize/R/15_Ratio_500_L_1_R_2.png","xmouse":[776,776,776,776,776,776,776,776,777,778,778,778,778,778,778,778,778,778,778,778,778,778,778,778,778,778,778,778,778,778,779,779,779,779,784,788,797,807,822,848,857,881,900,924,982,1005,1017,1026,1031,1033,1042,1059],"ymouse":[653,653,653,653,653,653,653,653,649,648,648,647,645,645,645,645,645,645,645,645,645,645,645,645,645,644,644,644,644,644,643,641,637,631,604,582,557,529,498,424,402,327,262,189,39,0,0,0,0,0,5,11],"timestamp_mouse":[16,37,56,76,96,118,136,156,176,197,217,237,256,277,297,316,337,356,377,396,417,437,457,477,496,516,537,556,577,597,617,637,657,676,697,716,737,757,777,797,816,837,857,877,897,917,936,956,977,997,1016,1036],"xSR":741.5,"ySR":573.95,"xT1":424.9,"yT1":0,"xT2":1058.1,"yT2":0,"toosoon":0,"cond_shown":"equaldotsize","ratio_trial":500,"smaller_num":"1","larger_num":"2","correct_side":2,"subjID":"sarahzamboni14","gender":"1","age":"10","school":"4"},{"start_time":1552313686707,"click_time":1552313687718,"finger_time":1552313687237,"fix_duration":587.1416010917208,"trial":25,"RT":530,"MT":481,"sideResp":2,"stimulus":"img/250/equaldotsize/R/8_Ratio_250_L_1_R_4.png","xmouse":[807,807,807,806,806,804,803,803,803,803,803,803,802,801,801,801,801,801,799,798,793,790,787,787,785,786,792,803,816,835,865,882,902,920,932,954,964,974,988,1019,1030,1035,1037,1037,1037,1037,1037,1042,1049,1057,1073],"ymouse":[636,636,636,635,634,633,632,632,632,632,632,632,632,632,632,632,632,632,631,628,614,610,606,604,603,588,572,551,519,478,406,375,342,306,272,199,178,159,142,85,64,43,25,17,15,15,15,22,33,48,74],"timestamp_mouse":[10,36,50,71,90,111,130,151,170,190,211,230,250,271,291,311,331,350,370,390,411,431,452,471,490,510,530,550,571,591,610,631,650,671,690,710,731,750,770,792,812,830,850,870,891,910,931,951,970,990,1011],"xSR":741.5,"ySR":573.95,"xT1":424.9,"yT1":0,"xT2":1058.1,"yT2":0,"toosoon":0,"cond_shown":"equaldotsize","ratio_trial":250,"smaller_num":"1","larger_num":"4","correct_side":2,"subjID":"sarahzamboni14","gender":"1","age":"10","school":"4"},{"start_time":1552313691868,"click_time":1552313692697,"finger_time":1552313692417,"fix_duration":1448.1019445318873,"trial":26,"RT":549,"MT":280,"sideResp":1,"stimulus":"img/250/randomdotsizeEA/L/5_Ratio_250_L_24_R_6.png","xmouse":[793,793,793,793,793,793,793,793,793,793,793,793,793,793,793,793,793,793,793,793,793,793,793,791,789,783,770,751,740,732,725,722,713,707,692,672,641,583,559,535,525,514],"ymouse":[618,618,618,618,618,618,618,618,618,618,618,618,618,618,618,618,618,618,618,618,618,617,615,611,609,603,593,570,554,537,519,501,446,415,373,325,288,219,186,143,113,70],"timestamp_mouse":[9,33,50,69,89,110,131,150,170,190,209,229,249,270,290,309,329,350,370,391,410,430,449,469,490,510,529,549,569,589,609,630,650,669,689,710,730,749,769,790,810,829],"xSR":741.5,"ySR":573.95,"xT1":424.9,"yT1":0,"xT2":1058.1,"yT2":0,"toosoon":0,"cond_shown":"randomdotsizeEA","ratio_trial":250,"smaller_num":"6","larger_num":"24","correct_side":1,"subjID":"sarahzamboni14","gender":"1","age":"10","school":"4"},{"start_time":1552313694441,"click_time":1552313695557,"finger_time":1552313694937,"fix_duration":601.1198836307523,"trial":27,"RT":496,"MT":620,"sideResp":1,"stimulus":"img/750/equaldotanddens/L/6_Ratio_750_L_24_R_18.png","xmouse":[800,800,800,800,800,800,800,800,800,800,800,800,800,800,800,800,800,801,801,803,803,803,803,803,792,786,776,763,740,730,721,715,711,706,697,680,665,647,627,584,566,553,541,526,522,522,521,521,521,521,520,519,516,508,502,495],"ymouse":[602,602,602,602,602,602,602,602,602,602,602,602,602,602,602,602,602,601,600,597,593,589,583,576,553,543,533,517,486,463,434,408,368,314,241,201,181,171,162,144,137,131,127,125,126,128,129,129,129,129,128,125,119,108,100,91],"timestamp_mouse":[16,42,56,77,96,117,136,157,176,197,217,237,256,277,297,317,336,356,377,397,416,436,456,476,496,516,537,557,577,596,617,636,656,676,696,717,736,757,776,797,817,836,857,878,896,916,937,957,976,996,1016,1036,1056,1078,1096,1116],"xSR":741.5,"ySR":573.95,"xT1":424.9,"yT1":0,"xT2":1058.1,"yT2":0,"toosoon":0,"cond_shown":"equaldotanddens","ratio_trial":750,"smaller_num":"18","larger_num":"24","correct_side":1,"subjID":"sarahzamboni14","gender":"1","age":"10","school":"4"},{"start_time":1552313696511,"click_time":1552313697437,"finger_time":1552313696978,"fix_duration":250,"trial":28,"RT":467,"MT":459,"sideResp":1,"stimulus":"img/750/randomdotsizeEA/R/4_Ratio_750_L_15_R_20.png","xmouse":[813,813,812,812,812,812,812,812,812,812,812,812,812,812,812,811,811,811,809,809,808,806,803,799,790,777,734,701,668,626,580,507,489,475,464,454,429,414,401,395,393,394,397,401,411,423,437],"ymouse":[629,628,627,627,627,627,627,627,627,627,627,627,627,627,627,625,624,621,617,613,608,592,580,566,547,528,476,445,413,380,343,275,256,237,219,198,151,127,104,85,72,60,60,60,68,73,76],"timestamp_mouse":[6,27,55,67,87,106,126,146,166,187,207,226,246,266,287,308,326,346,366,386,407,427,447,467,487,507,526,546,566,587,606,627,646,667,686,707,726,747,766,786,808,826,846,866,886,906,926],"xSR":741.5,"ySR":573.95,"xT1":424.9,"yT1":0,"xT2":1058.1,"yT2":0,"toosoon":0,"cond_shown":"randomdotsizeEA","ratio_trial":750,"smaller_num":"15","larger_num":"20","correct_side":2,"subjID":"sarahzamboni14","gender":"1","age":"10","school":"4"},{"start_time":1552313699162,"click_time":1552313700137,"finger_time":1552313699657,"fix_duration":583.6622733017093,"trial":29,"RT":495,"MT":480,"sideResp":1,"stimulus":"img/250/equaldotsize/L/14_Ratio_250_L_12_R_3.png","xmouse":[811,811,811,811,811,810,810,810,810,810,810,810,810,810,810,810,810,810,810,810,810,809,809,804,795,776,748,738,707,697,686,679,676,671,667,659,647,626,606,556,536,521,508,483,473,468,460,458,458],"ymouse":[591,591,591,591,591,591,591,591,591,591,591,591,591,591,591,591,591,591,591,591,591,591,590,575,560,536,498,485,433,411,389,364,343,300,282,263,247,225,214,193,184,176,165,146,134,126,111,103,94],"timestamp_mouse":[15,37,56,75,96,116,137,155,175,195,216,235,256,275,296,315,336,355,376,396,415,436,456,476,495,515,535,555,575,595,615,636,656,676,696,716,736,755,775,796,815,836,855,875,897,915,935,956,975],"xSR":741.5,"ySR":573.95,"xT1":424.9,"yT1":0,"xT2":1058.1,"yT2":0,"toosoon":0,"cond_shown":"equaldotsize","ratio_trial":250,"smaller_num":"3","larger_num":"12","correct_side":1,"subjID":"sarahzamboni14","gender":"1","age":"10","school":"4"},{"start_time":1552313701439,"click_time":1552313702338,"finger_time":1552313701938,"fix_duration":500.829612006896,"trial":30,"RT":499,"MT":400,"sideResp":2,"stimulus":"img/750/equaldotsize/R/4_Ratio_750_L_15_R_20.png","xmouse":[776,780,780,782,782,782,782,782,782,782,782,782,782,782,782,782,783,784,785,785,790,793,799,810,822,844,855,871,888,914,928,956,975,989,1003,1024,1029,1031,1035,1036,1042,1044,1050,1054,1060],"ymouse":[630,633,633,633,633,633,633,633,633,633,633,633,633,633,633,633,633,631,629,626,614,606,595,578,555,507,485,462,440,407,388,352,323,297,273,233,219,201,183,166,127,122,102,91,79],"timestamp_mouse":[27,51,59,79,99,119,139,159,178,198,220,238,258,279,299,319,338,358,379,398,418,439,459,478,499,518,539,559,578,599,618,639,659,679,699,718,740,758,778,798,818,838,859,878,899],"xSR":741.5,"ySR":573.95,"xT1":424.9,"yT1":0,"xT2":1058.1,"yT2":0,"toosoon":0,"cond_shown":"equaldotsize","ratio_trial":750,"smaller_num":"15","larger_num":"20","correct_side":2,"subjID":"sarahzamboni14","gender":"1","age":"10","school":"4"},{"start_time":1552313704043,"click_time":1552313704858,"finger_time":1552313704417,"fix_duration":783.8150917971842,"trial":31,"RT":374,"MT":441,"sideResp":2,"stimulus":"img/900/equaldotanddens/R/13_Ratio_900_L_18_R_20.png","xmouse":[803,803,803,803,803,803,803,803,803,804,804,804,804,804,802,794,786,774,764,750,733,727,726,726,731,741,741,741,739,734,732,741,758,779,812,906,954,1008,1042,1070,1131],"ymouse":[619,618,618,618,618,617,617,617,616,616,615,615,614,611,609,598,588,575,563,549,524,503,484,460,436,396,374,354,332,313,287,280,270,257,237,192,172,147,128,112,71],"timestamp_mouse":[21,42,54,74,94,114,135,154,174,195,214,235,254,274,294,314,335,354,374,395,414,435,456,475,495,515,535,554,575,595,614,635,654,674,694,715,735,754,774,794,815],"xSR":741.5,"ySR":573.95,"xT1":424.9,"yT1":0,"xT2":1058.1,"yT2":0,"toosoon":0,"cond_shown":"equaldotanddens","ratio_trial":900,"smaller_num":"18","larger_num":"20","correct_side":2,"subjID":"sarahzamboni14","gender":"1","age":"10","school":"4"},{"start_time":1552313706967,"click_time":1552313707857,"finger_time":1552313707457,"fix_duration":1408.737324746332,"trial":32,"RT":490,"MT":400,"sideResp":1,"stimulus":"img/750/randomdotsizeEA/R/4_Ratio_750_L_15_R_20.png","xmouse":[790,794,794,796,796,796,796,796,796,796,796,796,796,797,799,800,802,803,805,806,807,807,808,808,800,790,770,749,728,703,692,683,674,665,633,601,567,538,519,502,500,499,497,495,492],"ymouse":[617,618,618,619,619,619,619,619,619,619,619,619,619,618,616,613,609,605,600,590,585,583,580,576,557,537,509,476,437,366,331,298,271,238,199,182,169,161,153,143,138,133,120,113,98],"timestamp_mouse":[14,39,51,70,91,111,131,152,170,191,210,230,250,270,290,310,330,350,370,391,410,431,450,471,490,511,530,550,570,591,611,631,651,670,690,710,730,751,770,790,810,831,850,870,890],"xSR":741.5,"ySR":573.95,"xT1":424.9,"yT1":0,"xT2":1058.1,"yT2":0,"toosoon":0,"cond_shown":"randomdotsizeEA","ratio_trial":750,"smaller_num":"15","larger_num":"20","correct_side":2,"subjID":"sarahzamboni14","gender":"1","age":"10","school":"4"},{"start_time":1552313709010,"click_time":1552313710098,"finger_time":1552313709557,"fix_duration":250,"trial":33,"RT":547,"MT":541,"sideResp":2,"stimulus":"img/250/randomdotsizeEA/R/8_Ratio_250_L_1_R_4.png","xmouse":[793,793,793,793,793,793,793,793,793,793,793,793,793,793,793,793,793,793,793,793,793,793,794,798,799,803,809,822,833,838,852,860,881,891,900,906,911,920,925,931,945,955,970,973,976,980,985,989,1009,1015,1030,1037,1050,1057,1060],"ymouse":[624,624,624,624,624,624,624,624,624,624,624,624,624,624,624,624,624,624,624,624,624,623,616,607,599,587,574,543,519,509,477,450,398,375,357,344,333,311,301,290,271,255,232,225,219,209,199,188,153,145,119,105,83,76,72],"timestamp_mouse":[12,27,47,67,87,108,127,147,167,187,208,228,248,268,287,308,327,347,368,388,408,428,447,467,487,508,528,547,567,588,609,627,648,669,687,707,727,747,768,788,807,827,847,867,887,908,928,948,967,988,1008,1028,1047,1068,1088],"xSR":741.5,"ySR":573.95,"xT1":424.9,"yT1":0,"xT2":1058.1,"yT2":0,"toosoon":0,"cond_shown":"randomdotsizeEA","ratio_trial":250,"smaller_num":"1","larger_num":"4","correct_side":2,"subjID":"sarahzamboni14","gender":"1","age":"10","school":"4"},{"start_time":1552313711409,"click_time":1552313712177,"finger_time":1552313711877,"fix_duration":529.8817807877324,"trial":34,"RT":468,"MT":300,"sideResp":2,"stimulus":"img/500/equaldotanddens/R/3_Ratio_500_L_10_R_20.png","xmouse":[788,788,788,788,788,788,788,788,788,788,788,788,788,788,788,788,788,788,788,789,791,793,808,815,829,841,849,863,870,882,893,903,912,942,965,992,1020,1038,1089],"ymouse":[622,622,622,622,622,622,622,622,622,622,622,622,622,622,622,622,622,622,621,619,615,610,583,557,511,465,426,364,341,301,275,254,237,194,165,131,92,67,10],"timestamp_mouse":[8,40,49,68,88,109,130,148,169,189,210,229,249,269,289,309,328,349,368,388,408,428,449,468,488,509,528,550,568,589,609,629,648,668,688,708,728,748,768],"xSR":741.5,"ySR":573.95,"xT1":424.9,"yT1":0,"xT2":1058.1,"yT2":0,"toosoon":0,"cond_shown":"equaldotanddens","ratio_trial":500,"smaller_num":"10","larger_num":"20","correct_side":2,"subjID":"sarahzamboni14","gender":"1","age":"10","school":"4"},{"start_time":1552313715798,"click_time":1552313716457,"finger_time":1552313716339,"fix_duration":1057.6804431876676,"trial":35,"RT":541,"MT":118,"sideResp":1,"stimulus":"img/250/equaldotanddens/L/2_Ratio_250_L_16_R_4.png","xmouse":[782,782,782,782,782,782,782,782,782,782,783,784,784,784,784,784,784,784,784,784,784,784,784,784,779,774,766,751,733,661,630,597,556,498],"ymouse":[648,648,648,648,648,648,648,648,648,648,647,645,645,645,645,645,645,645,645,645,645,645,645,644,635,618,590,536,476,313,255,194,129,53],"timestamp_mouse":[1,19,44,59,79,100,120,140,160,179,200,220,240,260,279,300,319,341,360,379,400,419,440,461,479,499,520,541,560,579,600,619,640,659],"xSR":741.5,"ySR":573.95,"xT1":424.9,"yT1":0,"xT2":1058.1,"yT2":0,"toosoon":0,"cond_shown":"equaldotanddens","ratio_trial":250,"smaller_num":"4","larger_num":"16","correct_side":1,"subjID":"sarahzamboni14","gender":"1","age":"10","school":"4"},{"start_time":1552313720357,"click_time":1552313721297,"finger_time":1552313720777,"fix_duration":1277.7125452393022,"trial":36,"RT":420,"MT":520,"sideResp":1,"stimulus":"img/250/randomdotsizeEA/L/15_Ratio_250_L_12_R_3.png","xmouse":[773,773,773,773,773,773,773,773,773,773,773,773,773,773,772,772,772,771,768,762,752,741,716,709,702,694,674,665,649,631,617,591,578,568,558,551,545,540,539,537,534,531,519,508,503,496,489,485],"ymouse":[620,620,620,620,620,620,620,620,620,620,620,620,620,620,618,616,616,611,605,597,584,573,539,526,512,494,448,426,389,341,310,262,242,224,211,204,200,194,188,181,173,164,147,134,125,113,101,95],"timestamp_mouse":[13,29,42,61,80,101,121,140,161,182,200,221,241,261,281,300,320,341,360,381,400,420,440,460,481,500,521,540,561,580,601,621,640,661,681,700,721,742,760,780,800,820,841,861,880,900,922,940],"xSR":741.5,"ySR":573.95,"xT1":424.9,"yT1":0,"xT2":1058.1,"yT2":0,"toosoon":0,"cond_shown":"randomdotsizeEA","ratio_trial":250,"smaller_num":"3","larger_num":"12","correct_side":1,"subjID":"sarahzamboni14","gender":"1","age":"10","school":"4"},{"start_time":1552313722641,"click_time":1552313723537,"finger_time":1552313723097,"fix_duration":523.1696279660122,"trial":37,"RT":456,"MT":440,"sideResp":2,"stimulus":"img/900/equaldotanddens/R/12_Ratio_900_L_18_R_20.png","xmouse":[822,822,822,822,822,822,822,822,822,822,822,822,822,822,822,822,821,820,820,820,820,820,815,808,803,800,797,797,797,802,812,824,866,888,912,933,957,994,1010,1026,1040,1051,1068,1072,1075],"ymouse":[624,624,624,624,624,624,624,624,624,624,624,624,624,624,624,624,625,623,619,616,611,603,562,542,526,512,498,461,441,421,401,381,323,298,272,252,227,184,170,156,145,134,109,103,99],"timestamp_mouse":[16,40,57,77,97,116,136,157,176,197,217,236,256,277,296,316,336,356,377,397,417,437,456,476,497,517,537,557,576,597,616,637,656,676,696,717,737,756,777,796,817,836,857,876,896],"xSR":741.5,"ySR":573.95,"xT1":424.9,"yT1":0,"xT2":1058.1,"yT2":0,"toosoon":0,"cond_shown":"equaldotanddens","ratio_trial":900,"smaller_num":"18","larger_num":"20","correct_side":2,"subjID":"sarahzamboni14","gender":"1","age":"10","school":"4"},{"start_time":1552313724912,"click_time":1552313725497,"finger_time":1552313725297,"fix_duration":593.4567866392405,"trial":38,"RT":385,"MT":200,"sideResp":1,"stimulus":"img/750/equaldotanddens/L/6_Ratio_750_L_24_R_18.png","xmouse":[803,803,803,803,803,803,803,803,803,803,802,802,801,801,799,799,796,793,791,786,780,768,740,691,597,578,567,556,546,496],"ymouse":[614,614,614,614,614,614,614,614,614,614,614,614,611,609,602,598,594,586,579,539,493,411,311,204,84,71,64,59,52,29],"timestamp_mouse":[18,42,46,65,85,105,126,145,166,185,205,226,245,266,285,306,326,346,365,385,405,425,445,465,485,506,526,546,566,585],"xSR":741.5,"ySR":573.95,"xT1":424.9,"yT1":0,"xT2":1058.1,"yT2":0,"toosoon":0,"cond_shown":"equaldotanddens","ratio_trial":750,"smaller_num":"18","larger_num":"24","correct_side":1,"subjID":"sarahzamboni14","gender":"1","age":"10","school":"4"},{"start_time":1552313727240,"click_time":1552313728078,"finger_time":1552313727618,"fix_duration":542.1263653685829,"trial":39,"RT":378,"MT":460,"sideResp":2,"stimulus":"img/750/randomdotsizeEA/L/9_Ratio_750_L_4_R_3.png","xmouse":[801,801,801,801,801,801,801,801,801,801,801,801,799,798,796,794,793,790,790,790,791,796,806,817,834,852,876,922,946,972,984,1001,1022,1028,1031,1034,1036,1045,1052,1055,1057,1059],"ymouse":[611,611,611,611,611,611,611,611,611,611,611,611,608,606,602,599,592,575,560,543,516,493,440,399,349,306,256,153,92,30,1,0,0,0,0,0,0,4,13,18,24,27],"timestamp_mouse":[17,40,57,78,98,117,137,157,178,198,218,238,258,279,298,318,337,359,378,398,418,438,457,478,497,518,539,558,577,598,617,638,659,678,697,717,738,757,777,797,817,838],"xSR":741.5,"ySR":573.95,"xT1":424.9,"yT1":0,"xT2":1058.1,"yT2":0,"toosoon":0,"cond_shown":"randomdotsizeEA","ratio_trial":750,"smaller_num":"3","larger_num":"4","correct_side":1,"subjID":"sarahzamboni14","gender":"1","age":"10","school":"4"},{"start_time":1552313729641,"click_time":1552313731258,"finger_time":1552313730077,"fix_duration":541.9606084720441,"trial":40,"RT":436,"MT":1181,"sideResp":1,"stimulus":"img/750/randomdotsizeEA/R/4_Ratio_750_L_15_R_20.png","xmouse":[785,785,785,785,785,785,785,785,785,785,785,785,785,785,785,785,785,782,779,772,763,754,751,748,748,748,748,738,697,673,659,648,637,621,611,600,583,576,575,579,592,610,638,743,792,843,879,914,946,956,963,967,971,979,985,988,989,989,989,986,984,982,981,981,981,981,980,980,989,990,992,993,993,993,991,985,964,919,688,585,492],"ymouse":[623,623,623,623,623,623,623,623,623,623,623,623,621,620,619,617,616,608,600,589,574,560,550,522,505,482,457,408,308,275,258,247,238,218,204,188,172,164,161,161,161,163,166,175,175,173,161,141,125,122,119,119,117,112,110,109,109,109,109,109,112,114,115,115,115,115,115,115,111,110,109,109,109,109,109,107,103,90,49,33,20],"timestamp_mouse":[21,36,57,76,96,116,137,157,178,196,217,236,257,276,297,317,336,357,377,396,417,436,456,477,496,517,536,556,577,597,616,636,656,677,696,716,737,757,777,796,817,837,857,876,897,918,938,957,978,997,1017,1037,1058,1078,1097,1117,1137,1157,1178,1197,1216,1237,1257,1277,1296,1317,1338,1357,1378,1397,1418,1437,1457,1478,1497,1517,1538,1557,1577,1596,1617],"xSR":741.5,"ySR":573.95,"xT1":424.9,"yT1":0,"xT2":1058.1,"yT2":0,"toosoon":0,"cond_shown":"randomdotsizeEA","ratio_trial":750,"smaller_num":"15","larger_num":"20","correct_side":2,"subjID":"sarahzamboni14","gender":"1","age":"10","school":"4"},{"start_time":1552313734307,"click_time":1552313735720,"finger_time":1552313734478,"fix_duration":527.0562704517395,"trial":41,"RT":171,"MT":1242,"sideResp":2,"stimulus":"img/900/randomdotsizeEA/L/1_Ratio_900_L_10_R_9.png","xmouse":[769,769,769,768,767,765,764,762,760,759,757,756,756,756,754,752,751,750,749,747,721,715,715,714,711,708,708,708,711,716,737,755,776,809,872,989,1048,1095,1132,1165,1193,1201,1202,1205,1208,1211,1212,1213,1213,1209,1189,1171,1166,1155,1152,1151,1151,1149,1148,1145,1142,1142,1142,1142,1142,1142,1142,1142,1142,1142,1131],"ymouse":[611,611,611,611,610,600,591,579,571,564,557,557,557,557,557,566,569,570,571,571,556,551,549,549,544,521,504,490,474,456,419,396,377,332,249,81,6,0,0,0,0,0,1,4,7,12,15,20,26,41,80,104,109,118,120,120,120,120,119,118,116,116,116,115,114,112,109,109,108,105,92],"timestamp_mouse":[11,43,51,71,91,111,132,151,171,191,210,231,252,272,291,311,332,351,371,392,412,431,452,472,492,511,532,551,571,590,611,632,652,671,691,711,731,751,772,791,812,830,851,872,892,913,931,951,971,992,1014,1030,1051,1071,1091,1111,1132,1151,1171,1192,1212,1232,1251,1272,1291,1310,1332,1351,1371,1391,1413],"xSR":741.5,"ySR":573.95,"xT1":424.9,"yT1":0,"xT2":1058.1,"yT2":0,"toosoon":0,"cond_shown":"randomdotsizeEA","ratio_trial":900,"smaller_num":"9","larger_num":"10","correct_side":1,"subjID":"sarahzamboni14","gender":"1","age":"10","school":"4"},{"start_time":1552313738519,"click_time":1552313739819,"finger_time":1552313739338,"fix_duration":317.3064922529226,"trial":42,"RT":819,"MT":481,"sideResp":2,"stimulus":"img/250/equaldotanddens/R/8_Ratio_250_L_1_R_4.png","xmouse":[781,781,781,781,781,781,781,780,780,779,779,779,779,779,777,776,776,776,776,776,776,776,776,776,776,776,776,776,776,776,776,776,776,777,778,784,787,792,801,812,821,863,885,910,929,940,953,960,965,971,981,987,994,998,1003,1005,1013,1019,1025,1033,1041,1064,1071,1077,1080,1081],"ymouse":[649,649,649,649,649,649,649,650,650,651,651,651,651,651,651,652,652,652,653,654,654,654,654,654,654,655,656,657,658,658,658,658,658,658,658,654,650,642,628,612,589,497,449,399,365,339,291,268,248,230,211,199,193,191,190,189,185,181,177,171,166,143,131,116,105,96],"timestamp_mouse":[1,19,39,59,79,100,118,140,160,180,198,218,240,258,279,299,319,340,358,379,400,420,439,460,478,499,520,540,559,578,599,618,639,659,680,700,719,740,760,779,798,819,839,860,879,898,920,940,960,980,1000,1019,1039,1059,1079,1099,1120,1140,1159,1179,1200,1220,1239,1260,1278,1300],"xSR":741.5,"ySR":573.95,"xT1":424.9,"yT1":0,"xT2":1058.1,"yT2":0,"toosoon":0,"cond_shown":"equaldotanddens","ratio_trial":250,"smaller_num":"1","larger_num":"4","correct_side":2,"subjID":"sarahzamboni14","gender":"1","age":"10","school":"4"},{"start_time":1552313746107,"click_time":1552313750238,"finger_time":1552313749559,"fix_duration":1186.4913357688597,"trial":43,"RT":3452,"MT":679,"sideResp":1,"stimulus":"img/250/equaldotsize/R/13_Ratio_250_L_2_R_8.png","xmouse":[759,759,759,759,759,759,759,759,759,759,759,759,759,759,759,759,759,759,759,759,759,759,759,759,759,759,759,759,759,759,759,759,759,759,759,759,759,759,759,759,759,759,759,759,759,759,759,759,759,759,758,758,757,757,757,757,758,758,761,762,765,768,768,768,768,768,768,768,768,768,768,768,768,768,768,768,770,770,770,773,773,774,774,774,774,774,774,774,774,774,774,774,774,773,773,773,773,773,773,773,773,773,773,774,774,774,774,774,778,787,800,809,811,811,811,811,811,811,811,811,811,812,813,813,813,813,813,813,813,813,813,813,813,813,813,813,812,812,812,812,812,810,810,809,809,809,809,809,809,809,808,808,808,808,808,808,808,808,808,808,808,808,808,808,808,807,805,805,804,803,800,798,797,797,797,797,796,796,796,796,796,796,795,793,793,793,792,790,790,790,790,789,775,759,737,717,696,630,607,590,577,566,554,545,536,531,524],"ymouse":[636,636,636,636,636,636,636,636,636,636,636,636,636,636,636,636,636,636,636,636,636,636,636,636,636,636,636,636,636,636,636,636,636,636,636,636,636,636,636,636,636,636,636,636,636,636,636,636,636,636,636,636,636,636,636,636,636,636,637,638,639,641,641,641,641,641,641,641,641,641,641,641,641,641,641,641,640,640,640,639,637,634,634,634,634,634,634,633,633,633,632,631,631,631,631,630,629,629,629,629,628,627,623,620,617,614,613,613,607,603,596,589,587,584,584,584,584,584,584,584,584,583,583,584,584,584,585,586,586,586,587,588,590,593,595,597,598,598,598,600,602,603,605,606,607,608,610,611,611,611,613,613,613,613,613,613,613,613,613,613,613,613,613,613,613,612,607,603,598,591,584,577,553,541,529,521,512,511,511,511,511,511,511,512,514,519,523,529,529,529,530,529,502,470,407,329,238,25,0,0,0,0,0,0,0,0,1],"timestamp_mouse":[13,35,52,72,92,111,132,150,172,192,212,232,251,271,291,311,332,351,371,391,411,432,452,472,491,512,531,552,572,591,612,632,652,671,692,711,731,751,772,792,812,832,851,871,892,910,931,952,970,990,1011,1031,1052,1071,1092,1111,1130,1151,1172,1192,1211,1231,1252,1271,1290,1310,1331,1352,1372,1392,1411,1432,1451,1471,1491,1512,1532,1551,1571,1592,1611,1631,1651,1672,1692,1711,1731,1752,1772,1791,1812,1831,1851,1870,1892,1910,1931,1951,1972,1991,2012,2031,2052,2072,2091,2111,2130,2151,2172,2190,2211,2231,2251,2272,2291,2312,2331,2351,2371,2392,2412,2430,2452,2471,2492,2511,2531,2551,2572,2592,2611,2631,2652,2671,2692,2711,2731,2751,2771,2792,2811,2832,2851,2872,2892,2912,2932,2952,2972,2992,3011,3032,3051,3071,3091,3111,3132,3151,3172,3191,3211,3231,3252,3271,3291,3312,3333,3351,3372,3391,3411,3432,3452,3472,3491,3511,3532,3551,3571,3590,3611,3631,3652,3672,3691,3711,3731,3752,3771,3790,3812,3832,3852,3871,3892,3911,3931,3951,3972,3992,4012,4032,4052,4072,4091,4112,4131],"xSR":741.5,"ySR":573.95,"xT1":424.9,"yT1":0,"xT2":1058.1,"yT2":0,"toosoon":0,"cond_shown":"equaldotsize","ratio_trial":250,"smaller_num":"2","larger_num":"8","correct_side":2,"subjID":"sarahzamboni14","gender":"1","age":"10","school":"4"},{"start_time":1552313752364,"click_time":1552313753278,"finger_time":1552313752858,"fix_duration":1105.0804768788555,"trial":44,"RT":494,"MT":420,"sideResp":1,"stimulus":"img/750/equaldotsize/L/14_Ratio_750_L_8_R_6.png","xmouse":[807,807,807,807,807,807,807,807,807,807,807,807,807,807,807,807,806,806,806,806,806,807,808,812,815,816,816,817,820,822,822,816,803,797,794,780,770,756,734,669,637,610,575,556,541,510],"ymouse":[623,623,623,623,623,623,623,623,623,623,623,623,623,623,623,623,622,619,617,611,608,602,597,585,568,563,558,553,545,526,512,495,474,464,459,442,430,410,368,239,181,136,92,79,69,52],"timestamp_mouse":[17,43,53,74,95,115,135,155,174,195,213,234,255,274,295,314,335,354,375,394,414,433,454,475,494,513,534,555,574,595,614,635,654,675,694,714,734,755,773,794,814,834,854,875,893,913],"xSR":741.5,"ySR":573.95,"xT1":424.9,"yT1":0,"xT2":1058.1,"yT2":0,"toosoon":0,"cond_shown":"equaldotsize","ratio_trial":750,"smaller_num":"6","larger_num":"8","correct_side":1,"subjID":"sarahzamboni14","gender":"1","age":"10","school":"4"},{"start_time":1552313754493,"click_time":1552313755259,"finger_time":1552313754919,"fix_duration":372.0056332665199,"trial":45,"RT":426,"MT":340,"sideResp":2,"stimulus":"img/500/equaldotanddens/R/1_Ratio_500_L_9_R_18.png","xmouse":[790,789,789,789,789,788,788,788,788,788,788,788,788,788,788,788,788,788,782,778,771,764,757,749,746,743,743,743,743,747,753,760,773,823,865,934,980,1023,1073],"ymouse":[603,603,605,605,605,607,607,607,608,608,608,608,608,608,608,608,608,608,601,591,574,552,528,472,455,433,422,415,398,385,372,355,332,249,198,135,103,77,54],"timestamp_mouse":[9,25,47,66,84,105,126,146,166,186,206,225,245,265,285,305,325,346,366,386,406,426,445,466,485,505,526,545,566,585,605,625,645,665,685,705,725,746,766],"xSR":741.5,"ySR":573.95,"xT1":424.9,"yT1":0,"xT2":1058.1,"yT2":0,"toosoon":0,"cond_shown":"equaldotanddens","ratio_trial":500,"smaller_num":"9","larger_num":"18","correct_side":2,"subjID":"sarahzamboni14","gender":"1","age":"10","school":"4"},{"start_time":1552313757840,"click_time":1552313758678,"finger_time":1552313758319,"fix_duration":378.6590918929618,"trial":46,"RT":479,"MT":359,"sideResp":2,"stimulus":"img/750/randomdotsizeEA/L/10_Ratio_750_L_4_R_3.png","xmouse":[794,794,794,794,794,794,794,794,794,794,794,794,794,794,794,793,792,791,790,790,788,787,786,786,786,787,808,821,836,856,882,936,961,986,1000,1017,1034,1044,1053,1064,1081,1110],"ymouse":[623,622,622,622,622,622,622,622,622,622,622,622,622,621,621,619,617,614,613,608,598,590,578,566,550,536,485,459,427,390,349,256,222,194,180,165,152,143,133,121,103,71],"timestamp_mouse":[27,38,59,79,99,119,138,158,179,199,218,238,258,279,298,319,338,358,379,399,419,438,459,479,499,518,539,558,578,598,618,639,658,678,697,718,738,758,778,798,817,838],"xSR":741.5,"ySR":573.95,"xT1":424.9,"yT1":0,"xT2":1058.1,"yT2":0,"toosoon":0,"cond_shown":"randomdotsizeEA","ratio_trial":750,"smaller_num":"3","larger_num":"4","correct_side":1,"subjID":"sarahzamboni14","gender":"1","age":"10","school":"4"},{"start_time":1552313759651,"click_time":1552313760578,"finger_time":1552313760178,"fix_duration":250,"trial":47,"RT":527,"MT":400,"sideResp":1,"stimulus":"img/250/equaldotanddens/L/3_Ratio_250_L_8_R_2.png","xmouse":[802,802,802,802,802,802,802,802,802,802,802,802,802,802,802,802,801,801,801,801,800,794,789,777,765,747,734,731,727,721,714,683,665,640,627,613,592,580,572,562,552,539,533,525,523,514,501],"ymouse":[634,634,634,634,634,634,634,634,634,634,634,634,634,633,632,632,631,631,630,629,628,621,617,608,596,575,550,527,499,464,422,351,325,303,293,284,262,247,236,223,208,185,174,152,144,115,74],"timestamp_mouse":[7,42,47,67,88,108,128,146,168,188,207,228,247,268,287,308,327,347,367,388,408,428,448,467,488,507,527,548,567,588,607,627,648,667,687,708,727,748,767,787,807,828,847,868,887,908,927],"xSR":741.5,"ySR":573.95,"xT1":424.9,"yT1":0,"xT2":1058.1,"yT2":0,"toosoon":0,"cond_shown":"equaldotanddens","ratio_trial":250,"smaller_num":"2","larger_num":"8","correct_side":1,"subjID":"sarahzamboni14","gender":"1","age":"10","school":"4"},{"start_time":1552313763330,"click_time":1552313764278,"finger_time":1552313763778,"fix_duration":650.9859066954342,"trial":48,"RT":448,"MT":500,"sideResp":1,"stimulus":"img/250/randomdotsizeEA/L/3_Ratio_250_L_8_R_2.png","xmouse":[779,779,779,779,779,778,778,778,777,777,777,777,777,776,776,776,776,776,774,773,766,752,733,663,624,602,587,579,581,599,617,624,619,609,599,590,578,557,545,534,527,522,514,511,510,509,509,509],"ymouse":[637,637,637,637,637,637,637,637,637,637,637,637,637,636,636,636,636,636,635,635,626,610,588,511,465,439,412,362,336,281,238,212,183,173,170,166,162,158,153,148,144,143,137,131,126,116,102,87],"timestamp_mouse":[8,28,54,68,89,108,128,148,168,189,208,229,248,269,289,308,327,348,368,389,408,429,448,468,488,509,529,549,568,588,609,629,648,667,688,709,728,749,768,789,807,828,849,868,888,909,928,948],"xSR":741.5,"ySR":573.95,"xT1":424.9,"yT1":0,"xT2":1058.1,"yT2":0,"toosoon":0,"cond_shown":"randomdotsizeEA","ratio_trial":250,"smaller_num":"2","larger_num":"8","correct_side":1,"subjID":"sarahzamboni14","gender":"1","age":"10","school":"4"},{"start_time":1552313766627,"click_time":1552313767799,"finger_time":1552313767079,"fix_duration":1345.3145002821414,"trial":49,"RT":452,"MT":720,"sideResp":2,"stimulus":"img/250/equaldotsize/R/8_Ratio_250_L_1_R_4.png","xmouse":[813,813,813,813,813,813,813,813,813,813,813,813,812,811,810,809,807,806,805,805,805,805,814,832,842,852,860,869,886,896,908,919,936,952,959,964,964,964,969,974,980,983,989,1001,1006,1008,1010,1016,1029,1036,1042,1046,1048,1053,1054,1055,1056,1057,1060],"ymouse":[595,595,595,595,595,595,595,595,595,595,595,595,595,595,593,592,590,589,588,586,583,576,560,528,510,492,478,466,445,433,421,407,382,350,332,309,290,271,244,231,218,207,194,167,154,140,126,115,94,87,83,81,80,80,80,80,80,80,82],"timestamp_mouse":[13,33,51,70,90,110,130,152,172,192,212,230,252,272,291,310,332,352,372,391,411,431,452,470,491,511,532,551,572,591,611,631,652,671,691,711,731,751,771,792,812,832,851,871,891,911,931,951,971,992,1012,1030,1052,1071,1091,1111,1132,1151,1172],"xSR":741.5,"ySR":573.95,"xT1":424.9,"yT1":0,"xT2":1058.1,"yT2":0,"toosoon":0,"cond_shown":"equaldotsize","ratio_trial":250,"smaller_num":"1","larger_num":"4","correct_side":2,"subjID":"sarahzamboni14","gender":"1","age":"10","school":"4"},{"start_time":1552313770816,"click_time":1552313771978,"finger_time":1552313771398,"fix_duration":816.6178579898299,"trial":50,"RT":582,"MT":580,"sideResp":1,"stimulus":"img/500/equaldotanddens/L/11_Ratio_500_L_12_R_6.png","xmouse":[773,773,773,773,772,772,772,772,772,772,772,772,772,772,772,772,772,772,772,772,772,772,772,772,769,767,762,761,756,749,743,732,721,706,664,643,621,597,574,542,531,521,519,514,505,504,503,503,502,502,502,501,498,495,491,488,488,488,487],"ymouse":[630,630,630,631,632,632,633,633,634,634,635,636,636,636,636,636,636,636,636,636,636,636,636,635,630,626,619,613,601,570,547,502,468,423,347,326,312,303,297,289,284,272,268,244,210,199,188,179,170,149,137,128,118,111,108,105,103,100,97],"timestamp_mouse":[5,28,42,62,82,103,122,143,163,182,202,223,242,262,283,302,322,343,362,383,403,423,442,462,482,502,523,541,561,582,602,622,642,663,682,702,723,743,763,782,803,822,841,862,882,902,922,943,962,982,1001,1022,1043,1062,1082,1102,1123,1142,1162],"xSR":741.5,"ySR":573.95,"xT1":424.9,"yT1":0,"xT2":1058.1,"yT2":0,"toosoon":0,"cond_shown":"equaldotanddens","ratio_trial":500,"smaller_num":"6","larger_num":"12","correct_side":1,"subjID":"sarahzamboni14","gender":"1","age":"10","school":"4"},{"start_time":1552313774584,"click_time":1552313775419,"finger_time":1552313775018,"fix_duration":1483.1155004961868,"trial":51,"RT":434,"MT":401,"sideResp":2,"stimulus":"img/750/equaldotanddens/R/12_Ratio_750_L_3_R_4.png","xmouse":[779,779,779,779,779,779,779,779,779,779,779,779,779,779,779,779,779,779,781,782,793,809,825,840,857,872,895,904,914,923,945,961,972,979,987,999,1018,1029,1040,1052,1061,1086],"ymouse":[621,621,621,621,621,621,621,621,621,621,621,621,621,621,621,620,617,613,608,602,581,560,539,520,501,484,448,435,418,404,365,335,316,301,286,267,227,202,175,149,126,73],"timestamp_mouse":[14,41,54,74,93,114,135,155,174,194,215,233,255,275,295,315,334,355,375,393,415,434,455,474,494,514,534,554,574,594,615,634,654,674,694,714,734,755,774,794,814,835],"xSR":741.5,"ySR":573.95,"xT1":424.9,"yT1":0,"xT2":1058.1,"yT2":0,"toosoon":0,"cond_shown":"equaldotanddens","ratio_trial":750,"smaller_num":"3","larger_num":"4","correct_side":2,"subjID":"sarahzamboni14","gender":"1","age":"10","school":"4"},{"start_time":1552313778290,"click_time":1552313779538,"finger_time":1552313778739,"fix_duration":749.5603179506973,"trial":52,"RT":449,"MT":799,"sideResp":2,"stimulus":"img/900/randomdotsizeEA/R/14_Ratio_900_L_18_R_20.png","xmouse":[788,788,788,788,788,788,788,788,788,788,788,788,788,788,788,788,788,786,784,782,776,770,766,763,761,761,756,755,752,748,743,732,729,724,718,711,693,685,676,668,662,654,654,657,674,726,823,859,903,953,976,1051,1089,1140,1149,1176,1190,1191,1190,1185,1177,1159,1138],"ymouse":[618,618,618,618,618,618,618,618,618,618,618,618,618,618,618,618,618,617,614,608,599,582,573,565,561,554,527,515,501,487,473,450,443,435,427,417,389,377,363,351,342,326,322,317,308,291,260,248,225,201,182,154,143,124,120,97,62,43,23,5,0,0,4],"timestamp_mouse":[10,39,49,68,88,109,129,148,168,187,209,228,247,267,288,308,327,348,368,388,409,428,449,468,487,508,528,547,568,588,608,629,648,669,687,708,728,747,768,789,808,828,849,867,888,909,928,948,968,988,1007,1028,1048,1068,1088,1109,1127,1149,1168,1188,1208,1229,1248],"xSR":741.5,"ySR":573.95,"xT1":424.9,"yT1":0,"xT2":1058.1,"yT2":0,"toosoon":0,"cond_shown":"randomdotsizeEA","ratio_trial":900,"smaller_num":"18","larger_num":"20","correct_side":2,"subjID":"sarahzamboni14","gender":"1","age":"10","school":"4"},{"start_time":1552313780752,"click_time":1552313781858,"finger_time":1552313781159,"fix_duration":250,"trial":53,"RT":407,"MT":699,"sideResp":1,"stimulus":"img/250/randomdotsizeEA/L/7_Ratio_250_L_8_R_2.png","xmouse":[822,822,822,821,821,820,820,820,820,820,820,820,819,818,816,816,815,813,810,803,798,791,784,769,759,751,742,738,733,717,712,704,691,659,639,620,604,589,577,546,533,518,504,484,476,474,470,468,467,467,467,467,467,467,468,470],"ymouse":[606,606,606,606,606,605,605,605,605,605,605,604,604,603,601,600,599,597,593,580,572,560,545,511,491,472,454,438,418,374,356,334,309,257,240,224,212,201,191,163,152,141,134,126,121,120,118,116,115,111,110,109,108,107,103,97],"timestamp_mouse":[9,39,47,66,87,106,126,145,165,185,205,226,246,266,286,305,326,346,366,387,407,426,446,467,486,506,526,547,567,586,606,626,647,667,685,706,726,747,766,786,806,826,847,867,886,906,927,946,966,985,1005,1027,1046,1067,1087,1106],"xSR":741.5,"ySR":573.95,"xT1":424.9,"yT1":0,"xT2":1058.1,"yT2":0,"toosoon":0,"cond_shown":"randomdotsizeEA","ratio_trial":250,"smaller_num":"2","larger_num":"8","correct_side":1,"subjID":"sarahzamboni14","gender":"1","age":"10","school":"4"},{"start_time":1552313783486,"click_time":1552313784279,"finger_time":1552313783938,"fix_duration":606.2280890889766,"trial":54,"RT":452,"MT":341,"sideResp":1,"stimulus":"img/250/equaldotsize/L/5_Ratio_250_L_24_R_6.png","xmouse":[815,815,815,815,815,815,815,815,815,815,815,815,815,815,815,815,815,815,815,815,812,802,758,734,714,702,689,673,666,658,646,632,602,586,569,556,543,501,478,455],"ymouse":[618,618,618,618,618,618,618,618,618,618,618,618,618,618,618,618,618,618,616,615,606,591,539,510,484,463,440,386,350,307,261,200,164,153,144,140,136,112,102,95],"timestamp_mouse":[13,34,52,73,92,112,133,152,173,191,212,232,252,272,293,312,332,351,372,392,412,432,452,473,491,512,532,552,573,592,612,632,653,672,692,713,733,753,773,793],"xSR":741.5,"ySR":573.95,"xT1":424.9,"yT1":0,"xT2":1058.1,"yT2":0,"toosoon":0,"cond_shown":"equaldotsize","ratio_trial":250,"smaller_num":"6","larger_num":"24","correct_side":1,"subjID":"sarahzamboni14","gender":"1","age":"10","school":"4"},{"start_time":1552313785292,"click_time":1552313786219,"finger_time":1552313785697,"fix_duration":250,"trial":55,"RT":405,"MT":522,"sideResp":2,"stimulus":"img/900/equaldotanddens/R/7_Ratio_900_L_9_R_10.png","xmouse":[789,789,789,789,789,789,789,789,789,788,788,788,787,786,786,786,786,784,784,784,784,784,785,786,786,787,788,789,791,793,797,803,820,832,844,867,895,938,946,956,966,980,1002,1016,1033,1050,1068],"ymouse":[627,627,627,627,627,627,627,627,627,625,625,624,619,616,613,609,603,589,580,574,565,562,551,545,542,540,538,534,530,525,513,501,465,441,413,379,343,291,279,263,248,223,181,160,134,107,83],"timestamp_mouse":[6,25,46,66,87,107,126,147,166,187,206,226,246,267,287,307,325,346,367,387,405,426,446,467,486,507,527,546,567,586,606,626,646,667,686,706,726,747,766,786,807,826,846,866,886,907,927],"xSR":741.5,"ySR":573.95,"xT1":424.9,"yT1":0,"xT2":1058.1,"yT2":0,"toosoon":0,"cond_shown":"equaldotanddens","ratio_trial":900,"smaller_num":"9","larger_num":"10","correct_side":2,"subjID":"sarahzamboni14","gender":"1","age":"10","school":"4"},{"start_time":1552313788614,"click_time":1552313789839,"finger_time":1552313789058,"fix_duration":1475.5171056012591,"trial":56,"RT":444,"MT":781,"sideResp":2,"stimulus":"img/750/equaldotsize/L/13_Ratio_750_L_8_R_6.png","xmouse":[806,806,805,805,805,805,805,805,805,805,804,804,803,802,800,800,800,799,798,795,793,783,776,768,748,735,723,707,699,693,684,670,665,663,662,663,674,692,725,782,851,993,1093,1139,1166,1186,1201,1217,1223,1224,1224,1224,1223,1222,1220,1216,1209,1188,1176,1170,1163,1152],"ymouse":[620,620,619,619,619,619,619,619,619,619,618,618,617,617,616,616,616,615,612,608,602,580,562,548,519,502,483,437,409,385,360,325,305,300,291,287,280,278,278,278,275,254,228,208,191,173,155,120,100,87,73,54,49,48,48,48,52,60,63,64,65,65],"timestamp_mouse":[4,24,45,65,84,105,123,144,165,185,203,225,244,265,284,303,325,344,364,384,404,424,444,465,483,505,524,545,564,585,604,624,643,664,685,704,724,743,764,785,804,825,844,865,884,904,923,944,964,985,1005,1025,1044,1064,1085,1104,1124,1145,1164,1185,1204,1225],"xSR":741.5,"ySR":573.95,"xT1":424.9,"yT1":0,"xT2":1058.1,"yT2":0,"toosoon":0,"cond_shown":"equaldotsize","ratio_trial":750,"smaller_num":"6","larger_num":"8","correct_side":1,"subjID":"sarahzamboni14","gender":"1","age":"10","school":"4"},{"start_time":1552313791631,"click_time":1552313792519,"finger_time":1552313792098,"fix_duration":952.1839312903635,"trial":57,"RT":467,"MT":421,"sideResp":2,"stimulus":"img/500/equaldotanddens/R/1_Ratio_500_L_9_R_18.png","xmouse":[810,810,810,810,810,809,809,809,809,809,809,809,809,809,808,808,808,808,808,808,803,803,803,803,810,821,827,832,838,847,885,907,933,961,994,1052,1076,1094,1105,1120,1135,1140,1144,1147],"ymouse":[607,609,610,611,612,613,613,613,613,613,613,613,613,613,614,614,614,614,612,609,587,580,573,567,558,545,538,532,523,512,466,439,411,383,353,288,256,229,208,181,146,130,113,95],"timestamp_mouse":[30,48,67,88,108,128,147,167,187,208,227,247,267,288,307,328,348,369,388,407,427,447,467,488,507,528,548,569,588,608,627,647,667,688,707,728,748,767,788,808,827,848,867,888],"xSR":741.5,"ySR":573.95,"xT1":424.9,"yT1":0,"xT2":1058.1,"yT2":0,"toosoon":0,"cond_shown":"equaldotanddens","ratio_trial":500,"smaller_num":"9","larger_num":"18","correct_side":2,"subjID":"sarahzamboni14","gender":"1","age":"10","school":"4"},{"start_time":1552313793990,"click_time":1552313794939,"finger_time":1552313794379,"fix_duration":349.57129716427227,"trial":58,"RT":389,"MT":560,"sideResp":2,"stimulus":"img/500/equaldotsize/R/3_Ratio_500_L_10_R_20.png","xmouse":[769,768,768,768,767,767,766,766,766,766,766,765,765,765,763,760,758,753,743,740,737,736,735,735,735,734,733,732,726,721,712,704,696,663,646,629,618,613,611,619,640,670,739,865,936,997,1046,1076],"ymouse":[658,656,655,655,653,651,650,650,650,650,650,649,648,644,639,630,624,614,595,589,585,582,579,576,574,572,568,562,541,521,495,455,415,317,286,262,248,242,241,244,245,245,237,183,134,84,38,5],"timestamp_mouse":[11,28,48,68,89,109,129,149,169,188,208,229,248,268,288,309,328,348,368,389,409,429,448,468,488,508,529,548,568,588,608,629,649,668,689,709,728,748,768,788,808,830,849,868,889,909,928,949],"xSR":741.5,"ySR":573.95,"xT1":424.9,"yT1":0,"xT2":1058.1,"yT2":0,"toosoon":0,"cond_shown":"equaldotsize","ratio_trial":500,"smaller_num":"10","larger_num":"20","correct_side":2,"subjID":"sarahzamboni14","gender":"1","age":"10","school":"4"},{"start_time":1552313796970,"click_time":1552313797719,"finger_time":1552313797399,"fix_duration":1289.7783405265475,"trial":59,"RT":429,"MT":320,"sideResp":2,"stimulus":"img/500/randomdotsizeEA/R/3_Ratio_500_L_10_R_20.png","xmouse":[798,798,798,797,797,797,796,796,796,796,795,795,795,794,794,794,793,793,792,788,781,776,768,762,756,747,744,741,740,738,744,765,800,846,913,1012,1039,1059],"ymouse":[603,603,603,601,601,601,601,601,601,600,600,599,599,598,598,598,598,597,596,590,574,561,543,524,507,479,467,456,444,413,397,361,325,274,207,91,66,46],"timestamp_mouse":[12,38,48,69,88,108,130,149,169,188,209,228,249,270,288,308,328,349,369,388,408,429,448,468,488,509,528,548,569,589,608,628,648,669,688,708,729,749],"xSR":741.5,"ySR":573.95,"xT1":424.9,"yT1":0,"xT2":1058.1,"yT2":0,"toosoon":0,"cond_shown":"randomdotsizeEA","ratio_trial":500,"smaller_num":"10","larger_num":"20","correct_side":2,"subjID":"sarahzamboni14","gender":"1","age":"10","school":"4"},{"start_time":1552313800420,"click_time":1552313801278,"finger_time":1552313801019,"fix_duration":1300.1575877359578,"trial":60,"RT":599,"MT":259,"sideResp":2,"stimulus":"img/500/equaldotsize/R/14_Ratio_500_L_5_R_10.png","xmouse":[797,797,797,797,797,797,796,796,796,796,796,796,796,796,796,796,796,796,796,796,796,796,796,796,796,796,796,799,803,810,820,838,883,912,935,960,988,1020,1034,1049,1063,1079,1116],"ymouse":[602,602,602,602,602,602,601,601,601,601,601,601,601,601,601,601,602,602,602,602,602,602,602,602,602,602,602,593,581,560,538,503,426,387,353,320,286,236,215,195,174,148,88],"timestamp_mouse":[18,39,59,78,98,119,138,158,178,198,218,238,258,279,298,318,338,358,378,399,420,438,458,478,498,519,539,558,578,599,619,638,659,679,698,718,738,759,779,798,818,839,858],"xSR":741.5,"ySR":573.95,"xT1":424.9,"yT1":0,"xT2":1058.1,"yT2":0,"toosoon":0,"cond_shown":"equaldotsize","ratio_trial":500,"smaller_num":"5","larger_num":"10","correct_side":2,"subjID":"sarahzamboni14","gender":"1","age":"10","school":"4"},{"start_time":1552313803061,"click_time":1552313803778,"finger_time":1552313803498,"fix_duration":641.1181254554375,"trial":61,"RT":437,"MT":280,"sideResp":1,"stimulus":"img/900/randomdotsizeEA/L/2_Ratio_900_L_20_R_18.png","xmouse":[800,800,800,800,800,800,800,800,800,800,800,800,800,800,800,801,802,803,805,807,810,817,823,825,826,826,821,817,808,793,716,662,613,555,520,470],"ymouse":[632,632,632,632,632,632,632,632,632,632,632,632,632,632,631,630,628,624,618,608,593,553,517,493,474,450,441,435,427,414,368,334,290,217,166,90],"timestamp_mouse":[17,38,57,78,97,118,137,157,178,198,218,237,258,277,298,317,338,357,377,398,417,437,457,477,498,518,538,557,578,599,617,638,658,677,697,717],"xSR":741.5,"ySR":573.95,"xT1":424.9,"yT1":0,"xT2":1058.1,"yT2":0,"toosoon":0,"cond_shown":"randomdotsizeEA","ratio_trial":900,"smaller_num":"18","larger_num":"20","correct_side":1,"subjID":"sarahzamboni14","gender":"1","age":"10","school":"4"},{"start_time":1552313805213,"click_time":1552313806239,"finger_time":1552313805678,"fix_duration":591.254323068462,"trial":62,"RT":465,"MT":561,"sideResp":2,"stimulus":"img/250/equaldotanddens/R/9_Ratio_250_L_3_R_12.png","xmouse":[780,780,780,780,780,781,781,780,780,780,780,780,780,780,779,779,779,779,779,779,779,779,779,793,824,838,880,901,920,944,950,951,953,956,960,964,972,975,980,996,1004,1013,1021,1026,1033,1036,1039,1043,1049,1053,1056,1059],"ymouse":[610,610,610,610,610,610,610,609,609,609,609,609,609,609,608,608,608,607,606,605,601,598,591,548,479,462,401,378,360,338,326,318,308,285,267,248,224,213,200,172,160,148,141,134,122,115,110,102,90,84,80,76],"timestamp_mouse":[10,25,45,65,85,105,126,146,165,186,205,226,246,266,285,305,326,346,366,385,405,426,446,465,485,506,525,545,566,586,605,626,646,665,686,706,725,746,765,786,805,826,847,865,886,906,926,945,966,986,1006,1026],"xSR":741.5,"ySR":573.95,"xT1":424.9,"yT1":0,"xT2":1058.1,"yT2":0,"toosoon":0,"cond_shown":"equaldotanddens","ratio_trial":250,"smaller_num":"3","larger_num":"12","correct_side":2,"subjID":"sarahzamboni14","gender":"1","age":"10","school":"4"},{"start_time":1552313808150,"click_time":1552313809499,"finger_time":1552313808579,"fix_duration":829.7790019693276,"trial":63,"RT":429,"MT":920,"sideResp":2,"stimulus":"img/500/equaldotanddens/R/2_Ratio_500_L_3_R_6.png","xmouse":[794,794,794,795,795,795,795,796,796,796,796,796,796,796,797,797,797,798,800,803,806,824,835,854,871,890,904,937,949,968,993,1013,1047,1059,1065,1068,1068,1068,1068,1068,1068,1068,1068,1068,1069,1070,1071,1071,1071,1071,1072,1074,1079,1080,1081,1083,1084,1084,1085,1085,1085,1085,1085,1085,1085,1085,1087,1092],"ymouse":[631,631,630,629,629,629,628,627,627,627,627,626,626,624,623,622,621,615,609,603,595,562,537,509,480,449,423,364,341,300,255,207,144,128,121,118,118,118,118,118,118,118,118,118,119,121,126,126,126,126,127,125,117,115,113,109,109,106,105,105,105,105,105,105,105,105,100,85],"timestamp_mouse":[9,33,48,68,89,109,128,148,168,190,208,228,249,269,289,309,328,348,369,388,408,429,448,468,488,508,528,548,568,588,609,629,649,669,688,708,729,748,768,788,809,828,848,868,889,909,929,948,968,988,1009,1028,1049,1068,1089,1108,1128,1150,1168,1189,1208,1228,1250,1269,1288,1309,1329,1348],"xSR":741.5,"ySR":573.95,"xT1":424.9,"yT1":0,"xT2":1058.1,"yT2":0,"toosoon":0,"cond_shown":"equaldotanddens","ratio_trial":500,"smaller_num":"3","larger_num":"6","correct_side":2,"subjID":"sarahzamboni14","gender":"1","age":"10","school":"4"},{"start_time":1552313811122,"click_time":1552313811839,"finger_time":1552313811459,"fix_duration":1041.9415258694812,"trial":64,"RT":337,"MT":380,"sideResp":2,"stimulus":"img/250/equaldotanddens/R/4_Ratio_250_L_3_R_12.png","xmouse":[806,806,806,806,806,806,806,806,806,806,806,806,806,809,812,817,821,829,851,861,872,880,891,927,948,964,981,1002,1022,1031,1043,1057,1072,1104,1121,1134],"ymouse":[601,602,602,602,602,602,602,602,602,602,602,602,602,601,594,581,573,545,502,479,454,433,412,364,341,326,308,285,256,241,221,202,181,135,113,93],"timestamp_mouse":[17,38,57,77,96,117,136,156,176,197,216,236,257,276,297,317,337,357,376,398,416,437,456,477,496,517,536,557,576,597,617,637,656,677,696,716],"xSR":741.5,"ySR":573.95,"xT1":424.9,"yT1":0,"xT2":1058.1,"yT2":0,"toosoon":0,"cond_shown":"equaldotanddens","ratio_trial":250,"smaller_num":"3","larger_num":"12","correct_side":2,"subjID":"sarahzamboni14","gender":"1","age":"10","school":"4"},{"start_time":1552313813290,"click_time":1552313814158,"finger_time":1552313813598,"fix_duration":490.82787675253394,"trial":65,"RT":308,"MT":560,"sideResp":1,"stimulus":"img/750/equaldotanddens/L/1_Ratio_750_L_20_R_15.png","xmouse":[808,808,808,808,808,808,808,808,808,808,808,808,808,810,813,827,838,851,869,893,945,969,991,1005,1015,1017,1018,1018,1014,995,954,931,900,869,843,775,739,685,655,624,575,553,535,520],"ymouse":[603,603,603,603,603,603,603,603,603,603,603,603,603,598,592,562,535,504,461,410,338,305,268,247,232,221,214,214,213,213,211,205,196,187,176,154,138,116,102,91,77,72,67,64],"timestamp_mouse":[12,40,48,69,89,108,129,149,168,189,209,229,249,269,289,308,328,348,368,388,409,429,448,469,488,508,528,548,568,588,608,629,649,668,689,708,729,748,768,789,808,828,848,868],"xSR":741.5,"ySR":573.95,"xT1":424.9,"yT1":0,"xT2":1058.1,"yT2":0,"toosoon":0,"cond_shown":"equaldotanddens","ratio_trial":750,"smaller_num":"15","larger_num":"20","correct_side":1,"subjID":"sarahzamboni14","gender":"1","age":"10","school":"4"},{"start_time":1552313816771,"click_time":1552313817718,"finger_time":1552313817419,"fix_duration":250,"trial":66,"RT":648,"MT":299,"sideResp":2,"stimulus":"img/500/equaldotanddens/R/6_Ratio_500_L_9_R_18.png","xmouse":[815,815,815,815,815,815,815,815,815,815,815,815,815,815,815,815,815,815,815,815,815,815,815,815,815,815,815,816,818,820,824,829,849,881,908,941,1011,1029,1044,1055,1065,1080,1087,1091,1096,1101,1112,1118],"ymouse":[644,644,644,644,644,644,644,644,644,644,644,644,644,644,643,643,643,643,643,643,643,642,642,641,641,641,640,637,635,629,620,606,559,500,452,401,300,264,242,224,208,180,163,155,145,134,108,97],"timestamp_mouse":[29,45,48,68,87,108,129,148,168,187,207,227,247,268,287,307,328,347,367,388,408,428,448,468,489,507,527,548,567,587,608,628,648,668,688,707,728,747,767,787,807,828,847,867,887,907,928,947],"xSR":741.5,"ySR":573.95,"xT1":424.9,"yT1":0,"xT2":1058.1,"yT2":0,"toosoon":0,"cond_shown":"equaldotanddens","ratio_trial":500,"smaller_num":"9","larger_num":"18","correct_side":2,"subjID":"sarahzamboni14","gender":"1","age":"10","school":"4"},{"start_time":1552313818870,"click_time":1552313820318,"finger_time":1552313819419,"fix_duration":250,"trial":67,"RT":549,"MT":899,"sideResp":1,"stimulus":"img/900/equaldotanddens/L/1_Ratio_900_L_10_R_9.png","xmouse":[800,800,800,800,800,799,798,798,798,796,796,795,795,794,793,793,792,792,791,790,790,790,789,788,788,788,788,791,795,803,811,825,831,833,836,837,839,837,823,804,770,666,594,535,479,435,395,331,319,314,308,303,299,299,299,299,299,299,301,308,319,333,350,353,354,355,360,367,373,382,394,418,434],"ymouse":[626,626,626,626,626,626,626,626,624,622,622,620,619,618,617,617,616,615,613,612,611,605,601,597,593,589,586,566,556,543,529,507,497,492,488,482,474,446,425,400,364,290,249,213,182,160,142,116,109,103,96,89,82,82,82,82,82,82,81,81,81,81,81,81,81,81,81,79,78,77,75,70,68],"timestamp_mouse":[9,28,62,69,88,108,129,150,168,189,208,228,249,268,290,308,328,349,368,389,409,430,449,468,489,508,528,549,569,590,609,629,648,668,689,709,728,749,769,789,808,829,848,869,889,909,928,949,969,989,1009,1028,1048,1068,1088,1109,1128,1148,1169,1188,1208,1228,1249,1269,1289,1308,1328,1348,1368,1388,1409,1429,1448],"xSR":741.5,"ySR":573.95,"xT1":424.9,"yT1":0,"xT2":1058.1,"yT2":0,"toosoon":0,"cond_shown":"equaldotanddens","ratio_trial":900,"smaller_num":"9","larger_num":"10","correct_side":1,"subjID":"sarahzamboni14","gender":"1","age":"10","school":"4"},{"start_time":1552313822667,"click_time":1552313824138,"finger_time":1552313823098,"fix_duration":1466.5127841679323,"trial":68,"RT":431,"MT":1040,"sideResp":1,"stimulus":"img/750/equaldotanddens/L/9_Ratio_750_L_4_R_3.png","xmouse":[809,809,809,809,809,809,809,809,809,809,809,809,809,811,812,812,812,813,815,820,827,834,855,865,878,889,898,907,908,908,903,897,868,839,827,770,711,614,555,502,451,404,344,332,331,331,331,334,347,352,357,363,368,380,390,398,405,411,411,411,411,414,416,430,436,438,439,441,443,448,455,462,476,481],"ymouse":[621,621,621,621,621,621,621,621,621,621,621,621,621,619,618,616,613,610,599,589,576,563,523,502,472,452,434,407,397,392,386,384,383,383,383,375,364,330,296,251,208,172,132,124,122,121,120,119,114,110,106,99,92,83,78,73,70,66,66,66,66,67,77,102,109,111,112,113,113,113,112,111,105,97],"timestamp_mouse":[13,36,51,71,91,111,132,152,172,191,212,231,251,271,292,311,332,351,372,392,411,431,452,471,491,512,532,551,571,592,612,632,652,671,692,711,732,752,772,791,812,831,852,871,891,912,931,952,971,991,1011,1032,1052,1071,1092,1112,1132,1151,1171,1191,1212,1231,1252,1272,1292,1312,1332,1351,1371,1392,1412,1431,1452,1471],"xSR":741.5,"ySR":573.95,"xT1":424.9,"yT1":0,"xT2":1058.1,"yT2":0,"toosoon":0,"cond_shown":"equaldotanddens","ratio_trial":750,"smaller_num":"3","larger_num":"4","correct_side":1,"subjID":"sarahzamboni14","gender":"1","age":"10","school":"4"},{"start_time":1552313825260,"click_time":1552313826280,"finger_time":1552313825719,"fix_duration":360.33955641356465,"trial":69,"RT":459,"MT":561,"sideResp":1,"stimulus":"img/900/randomdotsizeEA/L/10_Ratio_900_L_20_R_18.png","xmouse":[778,778,778,777,777,777,777,777,777,777,777,777,777,777,777,776,776,775,773,770,767,762,738,703,673,646,621,601,563,544,525,512,495,491,490,488,486,486,485,485,485,485,485,485,485,485,485,485,483,482,482],"ymouse":[639,639,639,636,636,636,636,636,636,636,636,636,636,636,636,634,633,631,629,625,621,615,588,540,501,460,417,371,300,273,254,240,218,211,198,186,172,165,153,148,146,144,143,143,143,143,142,141,131,112,81],"timestamp_mouse":[20,45,59,78,98,118,138,159,178,199,219,239,258,279,298,318,339,359,379,399,419,438,459,478,499,519,539,559,578,599,618,639,660,678,700,719,739,758,779,798,819,839,859,878,899,919,938,959,978,999,1020],"xSR":741.5,"ySR":573.95,"xT1":424.9,"yT1":0,"xT2":1058.1,"yT2":0,"toosoon":0,"cond_shown":"randomdotsizeEA","ratio_trial":900,"smaller_num":"18","larger_num":"20","correct_side":1,"subjID":"sarahzamboni14","gender":"1","age":"10","school":"4"},{"start_time":1552313828260,"click_time":1552313829418,"finger_time":1552313828839,"fix_duration":618.2144312490719,"trial":70,"RT":579,"MT":579,"sideResp":1,"stimulus":"img/750/equaldotsize/L/13_Ratio_750_L_8_R_6.png","xmouse":[781,781,781,781,781,781,781,781,781,781,781,781,781,781,781,781,780,779,778,775,774,773,773,773,773,770,766,759,751,740,732,723,716,707,706,705,700,688,673,644,633,624,617,607,594,588,583,578,573,565,562,555,548,538,528,525,525,525,524],"ymouse":[640,640,640,640,640,640,640,640,640,640,640,640,640,640,640,640,639,637,636,632,631,629,628,625,616,607,595,582,578,563,551,539,525,495,449,429,406,379,356,321,311,303,294,283,260,247,230,209,180,117,93,76,65,58,58,58,58,58,59],"timestamp_mouse":[1,20,41,58,78,98,118,138,158,178,198,218,240,258,279,299,319,339,359,378,398,419,438,459,478,498,519,539,559,579,599,619,638,658,678,699,718,739,759,778,799,819,838,859,878,898,918,939,958,979,998,1019,1039,1059,1078,1098,1118,1139,1158],"xSR":741.5,"ySR":573.95,"xT1":424.9,"yT1":0,"xT2":1058.1,"yT2":0,"toosoon":0,"cond_shown":"equaldotsize","ratio_trial":750,"smaller_num":"6","larger_num":"8","correct_side":1,"subjID":"sarahzamboni14","gender":"1","age":"10","school":"4"},{"start_time":1552313830970,"click_time":1552313832099,"finger_time":1552313831338,"fix_duration":250,"trial":71,"RT":368,"MT":761,"sideResp":1,"stimulus":"img/250/equaldotanddens/L/14_Ratio_250_L_12_R_3.png","xmouse":[802,802,802,802,802,802,802,802,802,802,802,802,803,803,805,807,810,811,814,815,815,813,805,785,766,760,745,733,710,703,693,684,675,666,650,644,629,622,604,599,595,589,584,576,571,569,565,561,557,548,544,538,534,517,505,482,468],"ymouse":[603,603,603,603,603,603,603,603,603,603,603,603,603,602