[{"start_time":1552074714739,"click_time":1552074718319,"finger_time":1552074717119,"fix_duration":1375.3928631550964,"trial":0,"RT":2380,"MT":1200,"sideResp":2,"stimulus":"img/750/equaldotanddens/L/10_Ratio_750_L_4_R_3.png","xmouse":[794,794,794,794,794,794,794,794,794,794,794,794,794,794,794,794,794,794,794,794,794,794,794,794,794,794,794,794,794,794,794,794,794,794,794,794,794,794,794,794,794,794,794,794,794,794,794,794,794,794,794,794,794,794,794,794,794,794,794,794,794,794,794,794,794,794,794,794,794,794,794,794,794,794,794,794,794,794,794,794,794,794,794,794,794,794,794,803,804,804,804,804,805,805,805,805,805,806,806,806,806,806,806,812,820,821,822,822,822,822,822,822,822,822,820,817,787,766,744,716,707,704,704,704,704,704,704,704,704,704,704,704,720,728,737,743,749,759,761,762,765,769,777,781,788,795,834,859,888,917,951,974,1039,1067,1094,1116,1149,1160,1167,1173,1180,1186,1189,1189,1189,1189,1188,1186,1186,1185,1185,1185,1180,1176,1173,1169,1162,1160,1159,1155],"ymouse":[540,540,540,540,540,540,540,540,540,540,540,540,540,540,540,540,540,540,540,540,540,540,540,540,540,540,540,540,540,540,540,540,540,540,540,540,540,540,540,540,540,540,540,540,540,540,540,540,540,540,540,540,540,540,540,540,540,540,540,540,540,540,540,540,540,540,540,540,540,540,540,540,540,540,540,540,540,540,540,540,540,540,540,540,540,540,540,534,534,534,534,534,533,533,533,533,533,532,532,532,532,532,532,527,521,519,518,518,518,518,518,518,518,518,517,517,515,515,515,515,515,515,515,515,515,515,515,515,515,515,515,515,513,511,510,510,508,506,506,506,506,507,508,508,508,508,492,479,463,447,423,407,359,339,316,291,257,241,225,209,185,167,131,116,104,96,89,86,84,84,84,84,84,83,82,82,80,80,80,79],"timestamp_mouse":[10,20,48,61,80,100,120,140,160,181,200,221,240,261,280,300,321,340,360,381,400,421,441,461,480,500,520,540,560,581,600,620,641,660,681,701,721,740,761,781,800,821,841,861,880,901,921,940,960,981,1001,1021,1041,1061,1080,1101,1120,1141,1161,1181,1200,1221,1240,1260,1281,1300,1321,1340,1361,1381,1401,1421,1440,1461,1482,1501,1521,1540,1561,1580,1601,1621,1640,1660,1680,1700,1720,1740,1760,1781,1800,1820,1841,1862,1880,1900,1920,1940,1961,1981,2001,2021,2040,2060,2081,2100,2121,2140,2161,2180,2201,2221,2241,2261,2280,2301,2321,2340,2361,2380,2401,2420,2440,2461,2482,2500,2520,2540,2560,2581,2601,2620,2640,2660,2680,2700,2720,2740,2761,2780,2801,2822,2841,2860,2881,2900,2921,2940,2960,2980,3001,3020,3040,3060,3080,3100,3122,3141,3162,3180,3200,3220,3240,3260,3280,3300,3321,3340,3360,3380,3402,3420,3441,3460,3480,3500,3522,3540,3561,3580],"xSR":741.5,"ySR":501.8,"xT1":424.9,"yT1":0,"xT2":1058.1,"yT2":0,"toosoon":0,"cond_shown":"equaldotanddens","ratio_trial":750,"smaller_num":"3","larger_num":"4","correct_side":1,"subjID":"sarahpeña21","gender":"1","age":"9","school":"4","test":{"fix_dur":[250,1500],"timestim":300,"targets_dim":[100,100],"targets_relative_coord":[0.3,0.7],"size_stim":[880,420],"start_dim":[100,100],"size_start":[300,300],"size_fix":60,"samplingrate":20,"img_types":["equaldotsize","equaldotanddens","randomdotsizeEA"],"ratios":[250,500,750,900],"rep_conds":9,"nTrials":120,"trials_to_rest":500,"Trials_order":[91,9,74,27,53,94,39,96,15,49,102,20,57,85,7,59,113,100,6,76,21,103,47,116,63,45,107,16,81,61,109,117,93,22,10,11,36,62,114,51,98,8,112,110,41,77,18,25,78,106,92,73,38,83,52,31,0,99,105,40,4,48,26,68,56,55,42,87,75,50,104,5,108,17,23,14,34,80,46,2,24,29,33,35,32,65,90,19,111,58,89,88,13,95,101,118,97,54,44,71,86,70,64,66,119,115,37,84,12,43,67,72,30,69,79,1,82,60,28,3],"cond_shown":["equaldotanddens","equaldotsize","randomdotsizeEA","equaldotsize","randomdotsizeEA","equaldotanddens","equaldotsize","equaldotsize","equaldotsize","equaldotanddens","equaldotsize","randomdotsizeEA","equaldotsize","equaldotanddens","equaldotanddens","randomdotsizeEA","randomdotsizeEA","equaldotanddens","equaldotsize","equaldotanddens","equaldotsize","equaldotanddens","randomdotsizeEA","randomdotsizeEA","equaldotsize","equaldotsize","randomdotsizeEA","equaldotanddens","equaldotsize","equaldotanddens","equaldotanddens","equaldotsize","equaldotsize","equaldotanddens","equaldotanddens","randomdotsizeEA","equaldotsize","randomdotsizeEA","equaldotsize","equaldotsize","randomdotsizeEA","randomdotsizeEA","equaldotanddens","randomdotsizeEA","randomdotsizeEA","randomdotsizeEA","equaldotsize","equaldotanddens","equaldotsize","equaldotanddens","randomdotsizeEA","equaldotanddens","randomdotsizeEA","randomdotsizeEA","equaldotanddens","equaldotanddens","equaldotsize","equaldotsize","equaldotsize","equaldotanddens","equaldotanddens","equaldotsize","randomdotsizeEA","randomdotsizeEA","randomdotsizeEA","equaldotanddens","equaldotsize","equaldotsize","equaldotsize","randomdotsizeEA","randomdotsizeEA","randomdotsizeEA","equaldotsize","randomdotsizeEA","randomdotsizeEA","randomdotsizeEA","equaldotanddens","randomdotsizeEA","equaldotanddens","randomdotsizeEA","equaldotsize","randomdotsizeEA","equaldotsize","randomdotsizeEA","randomdotsizeEA","randomdotsizeEA","equaldotsize","equaldotanddens","equaldotsize","equaldotanddens","randomdotsizeEA","equaldotanddens","equaldotanddens","randomdotsizeEA","randomdotsizeEA","equaldotanddens","equaldotanddens","equaldotsize","randomdotsizeEA","randomdotsizeEA","randomdotsizeEA","equaldotanddens","equaldotanddens","equaldotsize","randomdotsizeEA","equaldotanddens","equaldotanddens","equaldotsize","equaldotsize","equaldotanddens","equaldotanddens","equaldotsize","equaldotsize","equaldotsize","equaldotanddens","equaldotanddens","equaldotanddens","equaldotsize","equaldotanddens","equaldotsize"],"ratio_trial":[750,900,250,500,500,900,500,250,500,250,750,750,900,250,750,900,500,500,750,500,900,750,900,750,500,900,900,500,900,250,250,900,900,900,900,900,250,250,750,500,250,750,500,250,500,500,750,250,750,900,750,250,250,900,500,750,250,500,900,500,500,250,250,750,750,750,750,500,500,250,750,500,250,500,900,250,900,750,900,250,250,500,900,900,750,500,750,750,500,900,500,500,250,900,500,900,250,750,750,900,250,900,500,750,900,750,250,250,250,750,750,250,750,900,750,250,900,250,500,500],"smaller_num":["3","18","3","9","3","18","4","2","6","3","6","9","9","1","15","18","1","9","6","6","18","15","18","3","9","9","18","6","18","3","2","18","18","18","9","9","3","2","3","2","2","15","1","2","1","1","15","2","6","9","18","1","4","18","1","18","2","2","18","5","5","3","4","15","15","3","3","4","2","2","3","3","5","10","18","3","9","6","18","1","6","4","18","18","3","9","12","18","6","18","4","5","3","18","10","18","1","3","9","18","4","18","5","15","18","3","2","2","2","6","3","1","3","9","15","2","18","3","5","5"],"larger_num":["4","20","12","18","6","20","8","8","12","12","8","12","10","4","20","20","2","18","8","12","20","20","20","4","18","10","20","12","20","12","8","20","20","20","10","10","12","8","4","4","8","20","2","8","2","2","20","8","8","10","24","4","16","20","2","24","8","4","20","10","10","12","16","20","20","4","4","8","4","8","4","6","20","20","20","12","10","8","20","4","24","8","20","20","4","18","16","24","12","20","8","10","12","20","20","20","4","4","12","20","16","20","10","20","20","4","8","8","8","8","4","4","4","10","20","8","20","12","10","10"],"correct_side":[1,1,1,2,2,1,1,1,1,2,1,2,2,2,2,1,2,1,1,1,1,2,1,1,1,2,1,1,2,2,2,2,1,2,1,2,2,1,1,2,2,2,2,2,2,2,2,1,1,2,1,2,1,1,2,1,1,2,2,2,1,2,1,1,1,2,1,1,1,1,1,2,2,2,2,2,1,1,1,2,2,1,2,2,1,1,2,1,1,1,1,1,1,1,2,1,2,1,2,1,2,2,1,2,1,2,1,1,1,2,2,2,2,2,2,2,2,2,1,2],"img_shown":["img/750/equaldotanddens/L/10_Ratio_750_L_4_R_3.png","img/900/equaldotsize/L/2_Ratio_900_L_20_R_18.png","img/250/randomdotsizeEA/L/15_Ratio_250_L_12_R_3.png","img/500/equaldotsize/R/6_Ratio_500_L_9_R_18.png","img/500/randomdotsizeEA/R/2_Ratio_500_L_3_R_6.png","img/900/equaldotanddens/L/10_Ratio_900_L_20_R_18.png","img/500/equaldotsize/L/8_Ratio_500_L_8_R_4.png","img/250/equaldotsize/L/7_Ratio_250_L_8_R_2.png","img/500/equaldotsize/L/11_Ratio_500_L_12_R_6.png","img/250/equaldotanddens/R/4_Ratio_250_L_3_R_12.png","img/750/equaldotsize/L/14_Ratio_750_L_8_R_6.png","img/750/randomdotsizeEA/R/15_Ratio_750_L_9_R_12.png","img/900/equaldotsize/R/15_Ratio_900_L_9_R_10.png","img/250/equaldotanddens/R/8_Ratio_250_L_1_R_4.png","img/750/equaldotanddens/R/4_Ratio_750_L_15_R_20.png","img/900/randomdotsizeEA/L/4_Ratio_900_L_20_R_18.png","img/500/randomdotsizeEA/R/15_Ratio_500_L_1_R_2.png","img/500/equaldotanddens/L/4_Ratio_500_L_18_R_9.png","img/750/equaldotsize/L/14_Ratio_750_L_8_R_6.png","img/500/equaldotanddens/L/11_Ratio_500_L_12_R_6.png","img/900/equaldotsize/L/2_Ratio_900_L_20_R_18.png","img/750/equaldotanddens/R/3_Ratio_750_L_15_R_20.png","img/900/randomdotsizeEA/L/8_Ratio_900_L_20_R_18.png","img/750/randomdotsizeEA/L/9_Ratio_750_L_4_R_3.png","img/500/equaldotsize/L/4_Ratio_500_L_18_R_9.png","img/900/equaldotsize/R/7_Ratio_900_L_9_R_10.png","img/900/randomdotsizeEA/L/8_Ratio_900_L_20_R_18.png","img/500/equaldotanddens/L/11_Ratio_500_L_12_R_6.png","img/900/equaldotsize/R/9_Ratio_900_L_18_R_20.png","img/250/equaldotanddens/R/4_Ratio_250_L_3_R_12.png","img/250/equaldotanddens/R/13_Ratio_250_L_2_R_8.png","img/900/equaldotsize/R/14_Ratio_900_L_18_R_20.png","img/900/equaldotsize/L/8_Ratio_900_L_20_R_18.png","img/900/equaldotanddens/R/11_Ratio_900_L_18_R_20.png","img/900/equaldotanddens/L/1_Ratio_900_L_10_R_9.png","img/900/randomdotsizeEA/R/3_Ratio_900_L_9_R_10.png","img/250/equaldotsize/R/9_Ratio_250_L_3_R_12.png","img/250/randomdotsizeEA/L/3_Ratio_250_L_8_R_2.png","img/750/equaldotsize/L/8_Ratio_750_L_4_R_3.png","img/500/equaldotsize/R/9_Ratio_500_L_2_R_4.png","img/250/randomdotsizeEA/R/13_Ratio_250_L_2_R_8.png","img/750/randomdotsizeEA/R/4_Ratio_750_L_15_R_20.png","img/500/equaldotanddens/R/12_Ratio_500_L_1_R_2.png","img/250/randomdotsizeEA/R/13_Ratio_250_L_2_R_8.png","img/500/randomdotsizeEA/R/12_Ratio_500_L_1_R_2.png","img/500/randomdotsizeEA/R/12_Ratio_500_L_1_R_2.png","img/750/equaldotsize/R/5_Ratio_750_L_15_R_20.png","img/250/equaldotanddens/L/7_Ratio_250_L_8_R_2.png","img/750/equaldotsize/L/14_Ratio_750_L_8_R_6.png","img/900/equaldotanddens/R/5_Ratio_900_L_9_R_10.png","img/750/randomdotsizeEA/L/6_Ratio_750_L_24_R_18.png","img/250/equaldotanddens/R/8_Ratio_250_L_1_R_4.png","img/250/randomdotsizeEA/L/2_Ratio_250_L_16_R_4.png","img/900/randomdotsizeEA/L/10_Ratio_900_L_20_R_18.png","img/500/equaldotanddens/R/12_Ratio_500_L_1_R_2.png","img/750/equaldotanddens/L/6_Ratio_750_L_24_R_18.png","img/250/equaldotsize/L/7_Ratio_250_L_8_R_2.png","img/500/equaldotsize/R/9_Ratio_500_L_2_R_4.png","img/900/equaldotsize/R/12_Ratio_900_L_18_R_20.png","img/500/equaldotanddens/R/14_Ratio_500_L_5_R_10.png","img/500/equaldotanddens/L/7_Ratio_500_L_10_R_5.png","img/250/equaldotsize/R/11_Ratio_250_L_3_R_12.png","img/250/randomdotsizeEA/L/2_Ratio_250_L_16_R_4.png","img/750/randomdotsizeEA/L/1_Ratio_750_L_20_R_15.png","img/750/randomdotsizeEA/L/1_Ratio_750_L_20_R_15.png","img/750/equaldotanddens/R/12_Ratio_750_L_3_R_4.png","img/750/equaldotsize/L/10_Ratio_750_L_4_R_3.png","img/500/equaldotsize/L/8_Ratio_500_L_8_R_4.png","img/500/equaldotsize/L/10_Ratio_500_L_4_R_2.png","img/250/randomdotsizeEA/L/1_Ratio_250_L_8_R_2.png","img/750/randomdotsizeEA/L/8_Ratio_750_L_4_R_3.png","img/500/randomdotsizeEA/R/2_Ratio_500_L_3_R_6.png","img/250/equaldotsize/R/12_Ratio_250_L_5_R_20.png","img/500/randomdotsizeEA/R/3_Ratio_500_L_10_R_20.png","img/900/randomdotsizeEA/R/11_Ratio_900_L_18_R_20.png","img/250/randomdotsizeEA/R/11_Ratio_250_L_3_R_12.png","img/900/equaldotanddens/L/1_Ratio_900_L_10_R_9.png","img/750/randomdotsizeEA/L/13_Ratio_750_L_8_R_6.png","img/900/equaldotanddens/L/8_Ratio_900_L_20_R_18.png","img/250/randomdotsizeEA/R/8_Ratio_250_L_1_R_4.png","img/250/equaldotsize/R/6_Ratio_250_L_6_R_24.png","img/500/randomdotsizeEA/L/8_Ratio_500_L_8_R_4.png","img/900/equaldotsize/R/9_Ratio_900_L_18_R_20.png","img/900/randomdotsizeEA/R/11_Ratio_900_L_18_R_20.png","img/750/randomdotsizeEA/L/10_Ratio_750_L_4_R_3.png","img/500/randomdotsizeEA/L/4_Ratio_500_L_18_R_9.png","img/750/equaldotsize/R/11_Ratio_750_L_12_R_16.png","img/750/equaldotanddens/L/6_Ratio_750_L_24_R_18.png","img/500/equaldotsize/L/13_Ratio_500_L_12_R_6.png","img/900/equaldotanddens/L/10_Ratio_900_L_20_R_18.png","img/500/randomdotsizeEA/L/8_Ratio_500_L_8_R_4.png","img/500/equaldotanddens/L/7_Ratio_500_L_10_R_5.png","img/250/equaldotanddens/L/15_Ratio_250_L_12_R_3.png","img/900/randomdotsizeEA/L/8_Ratio_900_L_20_R_18.png","img/500/randomdotsizeEA/R/3_Ratio_500_L_10_R_20.png","img/900/equaldotanddens/L/8_Ratio_900_L_20_R_18.png","img/250/equaldotanddens/R/8_Ratio_250_L_1_R_4.png","img/750/equaldotsize/L/9_Ratio_750_L_4_R_3.png","img/750/randomdotsizeEA/R/15_Ratio_750_L_9_R_12.png","img/900/randomdotsizeEA/L/2_Ratio_900_L_20_R_18.png","img/250/randomdotsizeEA/R/10_Ratio_250_L_4_R_16.png","img/900/equaldotanddens/R/11_Ratio_900_L_18_R_20.png","img/500/equaldotanddens/L/7_Ratio_500_L_10_R_5.png","img/750/equaldotsize/R/4_Ratio_750_L_15_R_20.png","img/900/randomdotsizeEA/L/10_Ratio_900_L_20_R_18.png","img/750/equaldotanddens/R/12_Ratio_750_L_3_R_4.png","img/250/equaldotanddens/L/3_Ratio_250_L_8_R_2.png","img/250/equaldotsize/L/1_Ratio_250_L_8_R_2.png","img/250/equaldotsize/L/3_Ratio_250_L_8_R_2.png","img/750/equaldotanddens/R/2_Ratio_750_L_6_R_8.png","img/750/equaldotanddens/R/12_Ratio_750_L_3_R_4.png","img/250/equaldotsize/R/8_Ratio_250_L_1_R_4.png","img/750/equaldotsize/R/7_Ratio_750_L_3_R_4.png","img/900/equaldotsize/R/6_Ratio_900_L_9_R_10.png","img/750/equaldotanddens/R/3_Ratio_750_L_15_R_20.png","img/250/equaldotanddens/R/13_Ratio_250_L_2_R_8.png","img/900/equaldotanddens/R/12_Ratio_900_L_18_R_20.png","img/250/equaldotsize/R/4_Ratio_250_L_3_R_12.png","img/500/equaldotanddens/L/7_Ratio_500_L_10_R_5.png","img/500/equaldotsize/R/14_Ratio_500_L_5_R_10.png"],"Rat0":[["12_Ratio_0_L_9_R_0.png","13_Ratio_0_L_6_R_0.png","5_Ratio_0_L_2_R_0.png","6_Ratio_0_L_4_R_0.png","8_Ratio_0_L_6_R_0.png"],["1_Ratio_0_L_0_R_17.png","10_Ratio_0_L_0_R_22.png","11_Ratio_0_L_0_R_1.png","14_Ratio_0_L_0_R_24.png","15_Ratio_0_L_0_R_4.png","2_Ratio_0_L_0_R_5.png","3_Ratio_0_L_0_R_17.png","4_Ratio_0_L_0_R_7.png","7_Ratio_0_L_0_R_19.png","9_Ratio_0_L_0_R_15.png"]],"Rat250":[["1_Ratio_250_L_8_R_2.png","14_Ratio_250_L_12_R_3.png","15_Ratio_250_L_12_R_3.png","2_Ratio_250_L_16_R_4.png","3_Ratio_250_L_8_R_2.png","5_Ratio_250_L_24_R_6.png","7_Ratio_250_L_8_R_2.png"],["10_Ratio_250_L_4_R_16.png","11_Ratio_250_L_3_R_12.png","12_Ratio_250_L_5_R_20.png","13_Ratio_250_L_2_R_8.png","4_Ratio_250_L_3_R_12.png","6_Ratio_250_L_6_R_24.png","8_Ratio_250_L_1_R_4.png","9_Ratio_250_L_3_R_12.png"]],"Rat500":[["10_Ratio_500_L_4_R_2.png","11_Ratio_500_L_12_R_6.png","13_Ratio_500_L_12_R_6.png","4_Ratio_500_L_18_R_9.png","5_Ratio_500_L_4_R_2.png","7_Ratio_500_L_10_R_5.png","8_Ratio_500_L_8_R_4.png"],["1_Ratio_500_L_9_R_18.png","12_Ratio_500_L_1_R_2.png","14_Ratio_500_L_5_R_10.png","15_Ratio_500_L_1_R_2.png","2_Ratio_500_L_3_R_6.png","3_Ratio_500_L_10_R_20.png","6_Ratio_500_L_9_R_18.png","9_Ratio_500_L_2_R_4.png"]],"Rat750":[["1_Ratio_750_L_20_R_15.png","10_Ratio_750_L_4_R_3.png","13_Ratio_750_L_8_R_6.png","14_Ratio_750_L_8_R_6.png","6_Ratio_750_L_24_R_18.png","8_Ratio_750_L_4_R_3.png","9_Ratio_750_L_4_R_3.png"],["11_Ratio_750_L_12_R_16.png","12_Ratio_750_L_3_R_4.png","15_Ratio_750_L_9_R_12.png","2_Ratio_750_L_6_R_8.png","3_Ratio_750_L_15_R_20.png","4_Ratio_750_L_15_R_20.png","5_Ratio_750_L_15_R_20.png","7_Ratio_750_L_3_R_4.png"]],"Rat900":[["1_Ratio_900_L_10_R_9.png","10_Ratio_900_L_20_R_18.png","2_Ratio_900_L_20_R_18.png","4_Ratio_900_L_20_R_18.png","8_Ratio_900_L_20_R_18.png"],["11_Ratio_900_L_18_R_20.png","12_Ratio_900_L_18_R_20.png","13_Ratio_900_L_18_R_20.png","14_Ratio_900_L_18_R_20.png","15_Ratio_900_L_9_R_10.png","3_Ratio_900_L_9_R_10.png","5_Ratio_900_L_9_R_10.png","6_Ratio_900_L_9_R_10.png","7_Ratio_900_L_9_R_10.png","9_Ratio_900_L_18_R_20.png"]],"Rat1000":[["10_Ratio_1000_L_16_R_16.png","11_Ratio_1000_L_6_R_6.png","12_Ratio_1000_L_14_R_14.png","13_Ratio_1000_L_20_R_20.png","15_Ratio_1000_L_15_R_15.png","2_Ratio_1000_L_17_R_17.png","4_Ratio_1000_L_9_R_9.png","5_Ratio_1000_L_6_R_6.png","6_Ratio_1000_L_19_R_19.png","8_Ratio_1000_L_14_R_14.png","9_Ratio_1000_L_25_R_25.png"],["1_Ratio_1000_L_1_R_1.png","14_Ratio_1000_L_17_R_17.png","3_Ratio_1000_L_17_R_17.png","7_Ratio_1000_L_6_R_6.png"]]}},{"start_time":1552074719737,"click_time":1552074721301,"finger_time":1552074720660,"fix_duration":255.81166817031408,"trial":1,"RT":923,"MT":641,"sideResp":1,"stimulus":"img/900/equaldotsize/L/2_Ratio_900_L_20_R_18.png","xmouse":[783,783,783,783,783,783,783,783,783,783,783,783,783,783,783,783,783,783,783,783,783,783,783,783,783,783,783,783,783,783,783,783,783,783,783,783,783,783,783,783,783,783,782,783,783,779,771,755,746,736,726,721,716,715,714,713,711,705,702,694,686,675,648,631,614,597,582,557,550,548,548,548,548,548,546,545,543,531,515],"ymouse":[552,552,552,552,552,552,552,552,552,552,552,552,552,552,552,552,552,552,552,552,552,552,552,552,552,552,552,552,552,552,552,552,552,552,552,552,552,552,552,552,552,552,551,532,512,481,451,402,381,359,335,322,311,308,304,301,296,284,276,258,243,222,177,152,132,117,105,86,81,80,80,80,80,80,80,79,78,72,66],"timestamp_mouse":[11,22,42,63,82,103,122,142,162,183,202,222,242,262,282,302,322,343,364,382,403,422,442,462,483,502,522,542,563,583,602,622,642,663,682,702,723,742,763,782,803,823,842,862,882,903,923,943,963,983,1003,1023,1042,1062,1083,1102,1122,1142,1162,1182,1202,1223,1242,1262,1282,1302,1323,1342,1362,1383,1402,1422,1443,1462,1482,1502,1522,1542,1564],"xSR":741.5,"ySR":469.95,"xT1":424.9,"yT1":0,"xT2":1058.1,"yT2":0,"toosoon":0,"cond_shown":"equaldotsize","ratio_trial":900,"smaller_num":"18","larger_num":"20","correct_side":1,"subjID":"sarahpeña21","gender":"1","age":"9","school":"4"},{"start_time":1552074723377,"click_time":1552074724759,"finger_time":1552074724280,"fix_duration":1096.3408607303538,"trial":2,"RT":903,"MT":479,"sideResp":1,"stimulus":"img/250/randomdotsizeEA/L/15_Ratio_250_L_12_R_3.png","xmouse":[773,773,773,773,773,773,773,773,773,773,773,773,773,773,773,773,773,773,773,773,773,773,773,773,773,773,773,773,773,773,773,773,773,773,773,773,773,773,773,773,773,773,773,773,775,776,751,707,657,612,550,550,550,550,550,550,550,550,550,550,550,550,550,550,550,550,550,550,443,442],"ymouse":[538,538,538,538,538,538,538,538,538,538,538,538,538,538,538,538,538,538,538,538,538,538,538,538,538,538,538,538,538,538,538,538,538,538,538,538,538,538,538,538,538,538,538,538,531,422,320,215,129,66,0,0,0,0,0,0,0,0,0,0,0,0,0,0,0,0,0,0,0,6],"timestamp_mouse":[13,37,42,62,84,102,122,143,163,182,202,223,242,262,283,302,323,343,363,383,402,423,443,463,482,503,522,542,563,583,603,624,642,662,682,703,722,742,763,783,803,822,843,863,882,903,922,942,963,982,1003,1022,1043,1062,1083,1102,1123,1142,1163,1183,1203,1223,1242,1263,1283,1303,1322,1342,1363,1382],"xSR":741.5,"ySR":469.95,"xT1":424.9,"yT1":0,"xT2":1058.1,"yT2":0,"toosoon":0,"cond_shown":"randomdotsizeEA","ratio_trial":250,"smaller_num":"3","larger_num":"12","correct_side":1,"subjID":"sarahpeña21","gender":"1","age":"9","school":"4"},{"start_time":1552074727719,"click_time":1552074728800,"finger_time":1552074728399,"fix_duration":737.4912370682368,"trial":3,"RT":680,"MT":401,"sideResp":2,"stimulus":"img/500/equaldotsize/R/6_Ratio_500_L_9_R_18.png","xmouse":[806,806,806,806,806,806,806,806,806,806,806,806,806,806,806,806,806,806,806,806,806,806,806,806,806,806,806,806,806,806,806,806,811,817,851,872,898,939,963,1014,1036,1052,1065,1074,1088,1103,1115,1126,1136,1144,1148,1152,1152,1152,1149],"ymouse":[492,492,492,492,492,492,492,492,492,492,492,492,492,492,492,492,492,492,492,492,492,492,492,492,492,492,492,492,492,492,492,492,491,488,471,461,445,421,404,375,363,355,350,346,337,326,311,287,257,195,168,145,128,113,89],"timestamp_mouse":[2,21,40,60,81,100,120,141,161,181,200,221,240,261,281,301,321,341,360,380,400,421,441,460,481,500,521,540,560,581,600,620,640,660,680,700,721,740,760,781,800,820,840,860,880,901,920,941,960,980,1000,1021,1040,1060,1081],"xSR":741.5,"ySR":469.95,"xT1":424.9,"yT1":0,"xT2":1058.1,"yT2":0,"toosoon":0,"cond_shown":"equaldotsize","ratio_trial":500,"smaller_num":"9","larger_num":"18","correct_side":2,"subjID":"sarahpeña21","gender":"1","age":"9","school":"4"},{"start_time":1552074731399,"click_time":1552074732419,"finger_time":1552074732139,"fix_duration":1478.6332062996776,"trial":4,"RT":740,"MT":280,"sideResp":2,"stimulus":"img/500/randomdotsizeEA/R/2_Ratio_500_L_3_R_6.png","xmouse":[789,789,789,789,789,789,790,790,790,790,790,790,790,790,790,790,790,790,790,790,790,790,790,790,790,790,792,797,800,802,805,807,809,814,817,833,833,855,869,885,926,949,963,976,987,1018,1033,1047,1060,1074,1125,1145],"ymouse":[510,510,510,510,510,510,510,510,510,510,510,510,510,510,510,510,510,510,510,510,510,510,510,510,510,510,508,506,505,504,502,501,500,498,496,488,488,474,466,453,407,374,357,338,322,290,271,255,237,218,121,87],"timestamp_mouse":[9,21,41,61,80,100,121,140,161,180,200,221,240,260,280,300,321,341,360,380,400,420,440,460,480,500,520,541,561,580,600,622,640,661,680,700,720,740,760,780,801,820,841,860,880,901,920,940,960,981,1001,1020],"xSR":741.5,"ySR":469.95,"xT1":424.9,"yT1":0,"xT2":1058.1,"yT2":0,"toosoon":0,"cond_shown":"randomdotsizeEA","ratio_trial":500,"smaller_num":"3","larger_num":"6","correct_side":2,"subjID":"sarahpeña21","gender":"1","age":"9","school":"4"},{"start_time":1552074734948,"click_time":1552074736039,"finger_time":1552074735660,"fix_duration":1427.046676664393,"trial":5,"RT":712,"MT":379,"sideResp":1,"stimulus":"img/900/equaldotanddens/L/10_Ratio_900_L_20_R_18.png","xmouse":[788,788,798,800,800,800,800,800,800,800,800,800,800,800,800,800,800,800,800,800,800,800,800,800,800,800,800,800,800,800,800,800,800,800,801,802,799,790,772,767,765,758,748,710,681,653,634,624,621,621,617,608,585,540,517],"ymouse":[506,506,503,502,502,502,502,502,502,502,502,502,502,502,502,502,502,502,502,502,502,502,502,502,502,502,502,502,502,502,502,502,502,502,498,465,427,401,373,366,361,344,327,268,229,197,173,160,149,143,130,111,75,29,14],"timestamp_mouse":[14,37,52,71,92,111,132,151,172,192,212,232,252,272,291,311,332,352,372,391,412,432,451,472,491,512,531,551,571,591,611,631,651,672,691,712,731,751,771,791,811,831,851,871,891,911,932,951,971,992,1012,1031,1051,1071,1091],"xSR":741.5,"ySR":469.95,"xT1":424.9,"yT1":0,"xT2":1058.1,"yT2":0,"toosoon":0,"cond_shown":"equaldotanddens","ratio_trial":900,"smaller_num":"18","larger_num":"20","correct_side":1,"subjID":"sarahpeña21","gender":"1","age":"9","school":"4"},{"start_time":1552074737526,"click_time":1552074739179,"finger_time":1552074737859,"fix_duration":546.1065752164544,"trial":6,"RT":333,"MT":1320,"sideResp":1,"stimulus":"img/500/equaldotsize/L/8_Ratio_500_L_8_R_4.png","xmouse":[788,789,794,794,805,808,809,810,811,812,812,812,814,818,829,839,849,862,873,891,900,909,915,920,928,936,942,953,962,984,998,1017,1028,1035,1046,1048,1049,1049,1050,1050,1050,1050,1050,1050,1054,1057,1059,1061,1062,1062,1062,1062,1043,976,749,629,540,482,448,388,356,340,336,334,334,333,333,333,334,346,350,353,354,354,354,356,357,361,368,387,405,421,439],"ymouse":[500,500,499,499,492,491,490,489,489,489,489,489,488,485,478,473,466,457,447,427,417,408,403,400,393,387,381,371,360,331,310,277,254,238,212,207,205,203,202,202,202,202,200,198,192,185,179,172,170,168,168,167,167,167,165,161,151,140,123,89,74,69,66,66,66,65,65,65,63,54,52,51,50,50,50,50,50,49,48,48,48,49,54],"timestamp_mouse":[14,33,59,73,93,113,134,153,173,193,214,233,254,274,293,313,333,353,373,393,413,433,454,473,493,513,534,554,574,593,614,633,653,674,694,714,734,753,775,793,814,833,854,874,893,913,933,954,973,993,1013,1033,1054,1073,1093,1113,1134,1153,1174,1193,1214,1233,1253,1274,1293,1314,1334,1353,1374,1393,1413,1433,1454,1474,1493,1514,1533,1554,1574,1594,1613,1633,1653],"xSR":741.5,"ySR":469.95,"xT1":424.9,"yT1":0,"xT2":1058.1,"yT2":0,"toosoon":0,"cond_shown":"equaldotsize","ratio_trial":500,"smaller_num":"4","larger_num":"8","correct_side":1,"subjID":"sarahpeña21","gender":"1","age":"9","school":"4"},{"start_time":1552074740171,"click_time":1552074740940,"finger_time":1552074740820,"fix_duration":250,"trial":7,"RT":649,"MT":120,"sideResp":1,"stimulus":"img/250/equaldotsize/L/7_Ratio_250_L_8_R_2.png","xmouse":[839,839,839,839,839,839,839,839,839,839,839,839,839,839,839,839,839,839,839,839,839,839,839,838,838,837,836,834,831,826,820,804,784,711,674,632,600,537,516],"ymouse":[559,559,559,559,559,559,559,559,559,559,559,559,559,559,559,559,559,559,559,559,559,559,554,551,548,545,543,535,527,515,501,480,456,372,320,253,200,86,51],"timestamp_mouse":[10,29,48,69,88,109,128,148,168,189,209,228,248,269,289,309,328,348,369,388,408,429,448,468,488,508,528,549,569,588,608,628,649,668,689,708,729,749,768],"xSR":741.5,"ySR":469.95,"xT1":424.9,"yT1":0,"xT2":1058.1,"yT2":0,"toosoon":0,"cond_shown":"equaldotsize","ratio_trial":250,"smaller_num":"2","larger_num":"8","correct_side":1,"subjID":"sarahpeña21","gender":"1","age":"9","school":"4"},{"start_time":1552074743165,"click_time":1552074744421,"finger_time":1552074743759,"fix_duration":1083.2399593565347,"trial":8,"RT":594,"MT":662,"sideResp":1,"stimulus":"img/500/equaldotsize/L/11_Ratio_500_L_12_R_6.png","xmouse":[806,806,806,806,806,806,806,806,806,806,806,806,806,806,806,806,806,806,806,806,806,806,806,806,806,806,806,806,806,806,804,794,758,744,732,722,719,711,703,697,693,688,682,668,660,650,640,600,580,563,552,548,546,545,544,544,544,544,544,544,544,543,512],"ymouse":[529,529,529,529,529,529,529,529,529,529,529,529,529,529,529,529,529,529,529,529,529,529,529,529,529,529,529,509,488,461,427,394,313,287,266,241,234,216,199,189,182,174,163,146,136,125,116,94,84,72,64,58,53,50,48,48,48,48,48,48,48,48,44],"timestamp_mouse":[14,39,54,76,94,115,135,154,174,195,215,234,254,274,295,315,334,356,375,394,415,435,454,475,495,514,535,556,574,594,615,634,656,674,694,714,734,754,774,794,815,834,854,874,895,914,935,956,974,994,1014,1034,1054,1074,1094,1115,1134,1154,1174,1195,1214,1234,1256],"xSR":741.5,"ySR":469.95,"xT1":424.9,"yT1":0,"xT2":1058.1,"yT2":0,"toosoon":0,"cond_shown":"equaldotsize","ratio_trial":500,"smaller_num":"6","larger_num":"12","correct_side":1,"subjID":"sarahpeña21","gender":"1","age":"9","school":"4"},{"start_time":1552074748438,"click_time":1552074749640,"finger_time":1552074749060,"fix_duration":1096.502747086207,"trial":9,"RT":622,"MT":580,"sideResp":2,"stimulus":"img/250/equaldotanddens/R/4_Ratio_250_L_3_R_12.png","xmouse":[797,797,797,797,797,797,797,797,797,797,797,797,797,797,797,797,797,800,805,815,825,827,828,828,830,830,830,830,831,831,832,845,855,868,881,908,933,959,984,1005,1021,1022,1022,1022,1022,1022,1022,1022,1022,1022,1022,1023,1029,1035,1041,1053,1057,1063,1070,1074,1083],"ymouse":[551,551,551,551,551,551,551,551,551,551,551,551,551,551,551,551,551,546,542,536,528,526,525,524,522,522,522,522,522,522,520,498,481,458,433,379,324,263,201,159,128,124,124,124,124,124,124,124,124,124,124,122,121,118,116,113,111,108,103,101,95],"timestamp_mouse":[11,36,41,61,81,101,121,142,161,182,201,221,242,261,282,301,322,342,361,381,401,421,441,461,481,501,522,541,561,582,601,622,641,662,681,702,721,741,761,782,802,821,841,861,881,902,922,942,961,981,1002,1021,1041,1061,1081,1102,1121,1141,1161,1181,1202],"xSR":741.5,"ySR":469.95,"xT1":424.9,"yT1":0,"xT2":1058.1,"yT2":0,"toosoon":0,"cond_shown":"equaldotanddens","ratio_trial":250,"smaller_num":"3","larger_num":"12","correct_side":2,"subjID":"sarahpeña21","gender":"1","age":"9","school":"4"},{"start_time":1552074751240,"click_time":1552074752499,"finger_time":1552074752039,"fix_duration":739.5059532586249,"trial":10,"RT":799,"MT":460,"sideResp":1,"stimulus":"img/750/equaldotsize/L/14_Ratio_750_L_8_R_6.png","xmouse":[793,807,811,815,815,820,822,822,822,822,822,822,822,822,822,822,822,822,822,822,822,822,822,822,822,822,822,822,822,822,822,822,822,822,822,822,822,822,822,818,799,762,745,732,718,706,678,664,651,642,635,629,625,617,603,568,548,533,518,516,512,511,511,511],"ymouse":[532,531,530,527,527,524,523,523,523,523,523,523,523,523,523,523,523,523,523,523,523,523,523,523,523,523,523,523,523,523,523,523,523,523,523,523,523,522,517,492,455,405,385,368,348,329,290,273,260,252,246,239,231,221,204,168,151,139,127,125,116,106,101,97],"timestamp_mouse":[1,20,39,67,79,99,119,139,160,179,200,220,239,259,279,300,320,339,359,379,400,420,439,459,480,500,520,540,559,580,600,620,639,660,680,701,720,739,759,780,799,821,839,860,879,900,919,939,959,980,1001,1020,1039,1059,1079,1101,1119,1140,1159,1179,1200,1220,1239,1259],"xSR":741.5,"ySR":469.95,"xT1":424.9,"yT1":0,"xT2":1058.1,"yT2":0,"toosoon":0,"cond_shown":"equaldotsize","ratio_trial":750,"smaller_num":"6","larger_num":"8","correct_side":1,"subjID":"sarahpeña21","gender":"1","age":"9","school":"4"},{"start_time":1552074753974,"click_time":1552074755320,"finger_time":1552074754660,"fix_duration":414.88293082206087,"trial":11,"RT":686,"MT":660,"sideResp":2,"stimulus":"img/750/randomdotsizeEA/R/15_Ratio_750_L_9_R_12.png","xmouse":[757,757,757,757,757,757,757,757,757,757,757,757,757,757,757,757,757,757,757,759,770,783,787,787,787,787,787,787,787,787,787,791,801,816,854,879,904,920,930,942,952,960,967,976,994,1000,1007,1014,1018,1024,1024,1024,1025,1025,1025,1025,1027,1031,1034,1036,1039,1042,1043,1043,1046,1050,1056,1065],"ymouse":[506,506,506,506,506,506,506,506,506,506,506,506,506,506,506,506,506,506,507,508,511,515,515,515,515,515,515,515,515,515,515,515,507,496,457,419,374,339,314,277,253,236,219,203,169,152,137,121,109,97,96,96,95,95,95,95,93,91,90,88,86,85,83,83,81,79,76,69],"timestamp_mouse":[14,35,45,65,86,105,126,147,166,187,205,226,246,266,287,305,326,346,366,385,405,425,446,467,486,505,526,545,565,585,606,625,646,666,686,705,726,746,765,786,805,825,847,866,885,905,927,946,966,985,1005,1025,1046,1066,1085,1105,1125,1146,1165,1185,1205,1225,1245,1265,1285,1305,1325,1345],"xSR":741.5,"ySR":469.95,"xT1":424.9,"yT1":0,"xT2":1058.1,"yT2":0,"toosoon":0,"cond_shown":"randomdotsizeEA","ratio_trial":750,"smaller_num":"9","larger_num":"12","correct_side":2,"subjID":"sarahpeña21","gender":"1","age":"9","school":"4"},{"start_time":1552074757654,"click_time":1552074758861,"finger_time":1552074758279,"fix_duration":1373.7998883365938,"trial":12,"RT":625,"MT":582,"sideResp":1,"stimulus":"img/900/equaldotsize/R/15_Ratio_900_L_9_R_10.png","xmouse":[787,787,787,787,787,787,787,787,787,787,787,787,787,787,787,787,787,787,788,789,793,794,794,795,795,796,796,796,796,796,796,796,787,775,760,740,727,722,715,708,687,675,663,648,632,614,565,546,536,528,524,523,523,523,522,521,521,521,521,521,521],"ymouse":[531,531,531,531,531,531,531,531,531,531,531,531,531,531,531,531,531,531,529,527,522,519,517,516,515,513,511,508,505,501,481,451,414,375,342,301,284,276,266,254,223,209,195,181,171,161,136,128,124,120,118,118,117,117,116,116,116,115,112,109,98],"timestamp_mouse":[10,26,48,67,86,105,125,145,165,185,205,225,245,265,285,305,326,346,365,385,406,427,446,465,486,505,526,545,566,585,605,625,646,666,686,706,725,746,765,785,806,825,846,866,885,905,925,945,966,985,1006,1025,1046,1067,1085,1106,1126,1145,1166,1186,1206],"xSR":741.5,"ySR":469.95,"xT1":424.9,"yT1":0,"xT2":1058.1,"yT2":0,"toosoon":0,"cond_shown":"equaldotsize","ratio_trial":900,"smaller_num":"9","larger_num":"10","correct_side":2,"subjID":"sarahpeña21","gender":"1","age":"9","school":"4"},{"start_time":1552074761087,"click_time":1552074762380,"finger_time":1552074761699,"fix_duration":924.1492494484969,"trial":13,"RT":612,"MT":681,"sideResp":2,"stimulus":"img/250/equaldotanddens/R/8_Ratio_250_L_1_R_4.png","xmouse":[791,791,791,791,791,791,791,791,791,791,791,791,791,791,791,791,791,791,791,791,791,793,795,795,796,798,803,809,817,838,852,873,883,925,1013,1047,1074,1092,1110,1131,1139,1142,1149,1154,1159,1161,1162,1163,1166,1170,1170,1164,1161,1159,1157,1155,1152,1149,1146,1143,1141,1141,1138,1133,1124],"ymouse":[536,536,536,536,536,536,536,536,536,536,536,536,536,536,536,536,536,536,536,536,532,530,528,527,526,524,521,516,512,501,496,484,479,453,404,384,370,361,352,337,327,323,313,306,298,296,293,290,279,228,207,190,183,178,170,159,147,138,129,122,119,118,112,105,92],"timestamp_mouse":[14,34,52,72,92,112,132,153,173,193,212,233,254,273,293,312,332,352,373,393,412,432,453,472,492,512,533,552,574,592,612,632,652,673,693,712,733,753,772,792,812,832,853,872,893,912,932,952,972,992,1013,1032,1052,1072,1093,1112,1132,1152,1174,1192,1213,1233,1252,1273,1292],"xSR":741.5,"ySR":469.95,"xT1":424.9,"yT1":0,"xT2":1058.1,"yT2":0,"toosoon":0,"cond_shown":"equaldotanddens","ratio_trial":250,"smaller_num":"1","larger_num":"4","correct_side":2,"subjID":"sarahpeña21","gender":"1","age":"9","school":"4"},{"start_time":1552074764474,"click_time":1552074766260,"finger_time":1552074765279,"fix_duration":813.4374598371676,"trial":14,"RT":805,"MT":981,"sideResp":2,"stimulus":"img/750/equaldotanddens/R/4_Ratio_750_L_15_R_20.png","xmouse":[806,806,806,806,806,806,806,806,806,806,806,806,806,806,806,806,806,806,806,806,806,806,806,806,806,806,806,806,806,806,806,806,806,806,806,806,806,806,806,806,787,773,768,766,762,750,741,735,733,733,733,733,733,733,733,738,753,771,795,845,951,1001,1020,1030,1038,1052,1056,1062,1069,1076,1092,1100,1102,1103,1103,1103,1103,1103,1103,1103,1103,1103,1103,1103,1103,1103,1103,1103,1103,1103],"ymouse":[514,514,514,514,514,514,514,514,514,514,514,514,514,514,514,514,514,514,514,514,514,514,514,514,514,514,514,514,514,514,514,514,514,514,514,514,514,514,514,504,462,442,433,428,419,389,376,365,363,363,363,363,363,363,363,358,350,339,325,290,218,182,169,160,155,144,141,137,133,129,115,107,103,101,100,100,100,100,100,100,100,100,100,100,100,100,100,100,100,98],"timestamp_mouse":[13,35,46,66,85,106,126,145,166,187,207,226,245,265,287,306,326,345,365,386,406,426,445,465,485,505,525,546,565,586,606,625,646,665,685,705,725,746,765,785,805,825,845,866,886,906,925,947,966,985,1006,1025,1045,1065,1086,1106,1125,1146,1165,1186,1206,1225,1245,1266,1286,1306,1325,1346,1365,1386,1406,1425,1445,1466,1486,1506,1526,1546,1567,1585,1606,1625,1646,1666,1685,1705,1726,1747,1766,1786],"xSR":741.5,"ySR":469.95,"xT1":424.9,"yT1":0,"xT2":1058.1,"yT2":0,"toosoon":0,"cond_shown":"equaldotanddens","ratio_trial":750,"smaller_num":"15","larger_num":"20","correct_side":2,"subjID":"sarahpeña21","gender":"1","age":"9","school":"4"},{"start_time":1552074768686,"click_time":1552074770539,"finger_time":1552074769599,"fix_duration":945.1024016498342,"trial":15,"RT":913,"MT":940,"sideResp":1,"stimulus":"img/900/randomdotsizeEA/L/4_Ratio_900_L_20_R_18.png","xmouse":[783,783,783,783,783,783,783,783,783,783,783,783,783,783,783,783,783,783,783,783,783,783,783,783,783,783,783,783,783,783,783,783,783,783,783,784,788,789,789,790,790,790,790,790,790,790,790,790,790,790,788,784,780,773,762,758,755,752,746,738,714,696,680,664,645,635,629,620,613,601,593,591,591,591,591,590,587,582,575,564,546,538,533,532,532,532,530,530,528,527,526,526,524],"ymouse":[527,527,527,527,527,527,527,527,527,527,527,527,527,527,527,527,527,527,527,527,527,527,527,527,527,527,527,527,527,527,527,527,527,527,527,524,495,485,484,481,481,481,480,476,471,458,448,435,421,397,370,358,349,340,328,324,321,318,312,300,267,247,227,209,184,171,162,151,142,128,122,122,121,121,121,121,121,119,118,113,104,100,98,97,97,97,96,96,94,92,90,89,85],"timestamp_mouse":[14,42,54,74,94,113,133,154,174,194,213,235,253,273,295,313,333,353,373,395,413,434,454,473,494,513,533,553,573,594,613,633,653,673,694,713,735,753,774,794,813,833,854,874,894,913,933,953,973,993,1013,1033,1054,1073,1095,1113,1133,1154,1173,1193,1213,1233,1255,1274,1295,1314,1334,1355,1375,1395,1413,1434,1454,1474,1495,1513,1533,1553,1574,1593,1613,1633,1654,1674,1695,1713,1733,1753,1773,1795,1820,1833,1853],"xSR":741.5,"ySR":469.95,"xT1":424.9,"yT1":0,"xT2":1058.1,"yT2":0,"toosoon":0,"cond_shown":"randomdotsizeEA","ratio_trial":900,"smaller_num":"18","larger_num":"20","correct_side":1,"subjID":"sarahpeña21","gender":"1","age":"9","school":"4"},{"start_time":1552074774781,"click_time":1552074777101,"finger_time":1552074775600,"fix_duration":899.3047488944252,"trial":16,"RT":819,"MT":1501,"sideResp":2,"stimulus":"img/500/randomdotsizeEA/R/15_Ratio_500_L_1_R_2.png","xmouse":[767,767,767,767,767,767,767,767,767,767,767,767,767,767,767,767,767,767,767,767,767,767,767,767,767,767,767,767,767,767,767,767,767,767,767,781,790,803,816,833,852,877,886,899,912,932,941,948,951,951,951,951,951,951,953,964,974,983,987,988,989,989,989,989,989,991,994,997,1000,1003,1007,1015,1016,1017,1017,1017,1018,1021,1024,1027,1038,1046,1050,1054,1056,1057,1057,1057,1057,1057,1057,1057,1057,1055,1054,1053,1050,1050,1050,1050,1060,1067,1072,1077,1080,1082,1082,1083,1083,1083,1083,1083,1083,1084,1086,1091],"ymouse":[518,518,519,519,519,519,519,519,519,519,519,519,519,519,519,519,519,519,519,519,519,519,519,519,519,519,519,519,519,519,519,519,519,519,519,512,506,497,486,473,457,432,420,402,383,335,312,292,280,278,278,278,278,278,276,261,247,234,228,225,224,224,224,224,224,219,212,206,197,190,180,163,160,159,159,158,156,152,148,143,121,104,86,68,60,58,58,58,58,58,58,58,59,62,66,69,79,85,91,99,105,105,105,105,105,104,104,103,103,103,103,103,103,103,103,99],"timestamp_mouse":[19,42,59,79,99,118,138,159,179,199,218,240,258,279,299,320,338,358,380,399,418,438,460,479,499,518,539,559,578,599,618,639,659,679,698,719,738,759,778,798,818,839,858,879,898,919,938,958,979,999,1019,1039,1058,1078,1098,1119,1138,1158,1179,1199,1219,1239,1259,1278,1298,1319,1338,1359,1379,1399,1419,1439,1458,1478,1499,1519,1538,1559,1579,1599,1619,1638,1658,1679,1698,1719,1739,1759,1779,1799,1819,1839,1858,1878,1898,1918,1938,1958,1978,1998,2019,2038,2058,2079,2098,2119,2139,2158,2179,2198,2219,2238,2258,2278,2298,2320],"xSR":741.5,"ySR":469.95,"xT1":424.9,"yT1":0,"xT2":1058.1,"yT2":0,"toosoon":0,"cond_shown":"randomdotsizeEA","ratio_trial":500,"smaller_num":"1","larger_num":"2","correct_side":2,"subjID":"sarahpeña21","gender":"1","age":"9","school":"4"},{"start_time":1552074778918,"click_time":1552074780059,"finger_time":1552074779760,"fix_duration":716.6705966452656,"trial":17,"RT":842,"MT":299,"sideResp":1,"stimulus":"img/500/equaldotanddens/L/4_Ratio_500_L_18_R_9.png","xmouse":[774,778,778,778,778,778,778,778,778,778,778,778,778,778,778,778,778,778,778,778,778,778,778,778,778,778,783,788,793,801,803,804,805,806,806,806,806,806,806,806,806,802,797,782,773,744,716,672,625,579,508,487,472,471,468,467,467,466],"ymouse":[514,513,512,512,512,512,512,512,512,512,512,512,512,512,512,512,512,512,512,512,512,512,512,512,512,512,508,505,501,492,490,487,486,485,484,484,484,484,484,484,482,476,468,451,440,400,361,312,249,190,124,110,102,101,101,100,100,98],"timestamp_mouse":[10,22,48,62,83,102,122,142,162,182,202,221,242,262,282,301,322,342,362,381,401,422,441,463,482,501,521,541,562,583,601,621,641,662,682,702,722,742,761,782,801,823,842,861,881,901,921,942,961,981,1001,1022,1041,1062,1081,1101,1121,1141],"xSR":741.5,"ySR":469.95,"xT1":424.9,"yT1":0,"xT2":1058.1,"yT2":0,"toosoon":0,"cond_shown":"equaldotanddens","ratio_trial":500,"smaller_num":"9","larger_num":"18","correct_side":1,"subjID":"sarahpeña21","gender":"1","age":"9","school":"4"},{"start_time":1552074782039,"click_time":1552074783420,"finger_time":1552074782740,"fix_duration":577.0001122503727,"trial":18,"RT":701,"MT":680,"sideResp":2,"stimulus":"img/750/equaldotsize/L/14_Ratio_750_L_8_R_6.png","xmouse":[773,773,773,773,773,773,773,773,773,774,774,775,777,780,788,788,788,788,789,790,790,792,798,800,809,813,814,814,814,814,814,814,814,816,837,897,944,980,996,1009,1011,1011,1012,1012,1012,1012,1012,1012,1012,1012,1012,1003,986,974,966,960,960,960,960,961,979,997,1016,1033,1052,1059,1067,1075,1083,1098],"ymouse":[531,531,531,531,531,531,531,531,531,531,531,531,531,531,532,532,532,532,532,532,532,532,529,527,521,518,517,517,517,517,517,517,517,516,500,449,415,389,377,364,359,358,355,350,343,341,341,341,341,341,337,315,288,266,250,240,240,240,240,237,220,202,185,172,155,146,134,120,106,74],"timestamp_mouse":[9,36,41,60,80,101,120,142,161,180,200,221,240,261,280,301,320,341,362,380,400,420,441,460,480,502,521,541,561,580,600,621,640,660,680,701,720,741,760,781,801,821,841,860,881,900,920,941,960,981,1000,1021,1040,1060,1080,1100,1120,1141,1160,1180,1200,1222,1241,1260,1281,1300,1320,1341,1360,1381],"xSR":741.5,"ySR":469.95,"xT1":424.9,"yT1":0,"xT2":1058.1,"yT2":0,"toosoon":0,"cond_shown":"equaldotsize","ratio_trial":750,"smaller_num":"6","larger_num":"8","correct_side":1,"subjID":"sarahpeña21","gender":"1","age":"9","school":"4"},{"start_time":1552074786472,"click_time":1552074787520,"finger_time":1552074787159,"fix_duration":450.74804710094116,"trial":19,"RT":687,"MT":361,"sideResp":1,"stimulus":"img/500/equaldotanddens/L/11_Ratio_500_L_12_R_6.png","xmouse":[807,807,807,807,807,807,807,807,807,807,807,807,807,807,807,807,807,807,807,807,807,807,807,807,807,807,807,807,807,807,807,807,807,801,784,761,745,724,717,711,702,683,668,641,628,618,607,583,571,554,540,525,521],"ymouse":[529,529,529,529,529,529,529,529,529,529,529,529,529,529,529,529,529,529,529,529,529,529,529,529,529,529,529,529,529,529,529,529,529,487,435,390,365,336,327,317,306,284,268,241,225,210,189,147,126,105,87,70,65],"timestamp_mouse":[13,35,47,67,88,107,127,148,168,188,207,227,248,267,287,307,328,347,369,387,408,427,447,468,488,509,528,547,567,588,607,629,647,668,687,708,728,749,767,787,807,828,847,867,887,907,927,949,967,987,1008,1029,1048],"xSR":741.5,"ySR":469.95,"xT1":424.9,"yT1":0,"xT2":1058.1,"yT2":0,"toosoon":0,"cond_shown":"equaldotanddens","ratio_trial":500,"smaller_num":"6","larger_num":"12","correct_side":1,"subjID":"sarahpeña21","gender":"1","age":"9","school":"4"},{"start_time":1552074789225,"click_time":1552074790540,"finger_time":1552074789979,"fix_duration":702.000743344383,"trial":20,"RT":754,"MT":561,"sideResp":2,"stimulus":"img/900/equaldotsize/L/2_Ratio_900_L_20_R_18.png","xmouse":[761,761,761,761,761,761,762,762,762,762,762,762,762,762,762,762,762,762,762,762,762,762,762,762,762,762,762,762,762,762,762,762,763,771,777,794,808,823,839,852,882,899,930,963,1002,1043,1054,1059,1062,1062,1063,1064,1066,1069,1070,1072,1073,1073,1074,1074,1074,1074,1074,1076,1077,1081],"ymouse":[495,495,495,495,496,500,502,503,503,503,503,503,503,503,503,503,503,503,503,503,503,503,503,503,503,503,503,503,503,503,503,503,503,501,498,484,474,463,451,441,415,401,372,337,291,232,212,199,192,190,187,184,178,173,169,161,157,153,148,141,131,126,119,114,109,98],"timestamp_mouse":[15,35,54,74,94,114,134,155,175,194,214,234,254,274,294,315,335,355,374,395,414,435,454,475,495,514,535,554,574,594,614,634,654,674,694,714,734,754,775,794,814,835,854,875,895,914,934,954,974,994,1014,1034,1054,1076,1095,1115,1134,1154,1174,1195,1214,1235,1254,1275,1294,1314],"xSR":741.5,"ySR":469.95,"xT1":424.9,"yT1":0,"xT2":1058.1,"yT2":0,"toosoon":0,"cond_shown":"equaldotsize","ratio_trial":900,"smaller_num":"18","larger_num":"20","correct_side":1,"subjID":"sarahpeña21","gender":"1","age":"9","school":"4"},{"start_time":1552074794825,"click_time":1552074796341,"finger_time":1552074795759,"fix_duration":1124.3384360266248,"trial":21,"RT":934,"MT":582,"sideResp":1,"stimulus":"img/750/equaldotanddens/R/3_Ratio_750_L_15_R_20.png","xmouse":[810,810,810,810,810,810,810,810,810,810,810,810,810,810,810,810,810,810,810,810,810,810,810,810,809,803,802,801,801,800,799,799,799,798,798,795,794,794,793,793,793,791,791,790,790,789,788,787,785,784,780,767,754,738,718,694,655,641,627,614,598,593,590,588,586,581,579,575,572,565,561,548,545,539,532,517],"ymouse":[537,537,537,537,537,537,537,537,537,537,537,537,537,537,537,537,537,537,537,537,537,537,536,531,527,513,509,507,506,504,503,501,500,498,496,491,490,488,488,487,487,484,483,480,478,471,463,449,438,428,411,379,360,341,323,306,275,262,246,228,206,198,193,186,180,162,154,142,131,116,107,92,91,87,83,74],"timestamp_mouse":[15,35,55,75,94,114,134,155,174,194,215,234,254,275,295,315,335,355,375,394,415,434,454,474,494,516,535,554,574,595,615,634,654,675,694,716,734,754,774,794,814,834,856,876,894,915,934,955,975,994,1014,1034,1054,1074,1094,1114,1134,1154,1175,1195,1216,1234,1254,1275,1294,1316,1335,1355,1374,1395,1414,1441,1454,1474,1495,1516],"xSR":741.5,"ySR":469.95,"xT1":424.9,"yT1":0,"xT2":1058.1,"yT2":0,"toosoon":0,"cond_shown":"equaldotanddens","ratio_trial":750,"smaller_num":"15","larger_num":"20","correct_side":2,"subjID":"sarahpeña21","gender":"1","age":"9","school":"4"},{"start_time":1552074797687,"click_time":1552074799041,"finger_time":1552074798500,"fix_duration":426.1124400005344,"trial":22,"RT":813,"MT":541,"sideResp":2,"stimulus":"img/900/randomdotsizeEA/L/8_Ratio_900_L_20_R_18.png","xmouse":[824,824,824,824,824,825,830,834,836,836,836,836,836,836,836,836,836,836,836,836,835,831,822,811,811,811,811,811,811,811,811,811,811,811,811,811,811,813,829,839,849,854,860,876,889,895,904,914,933,941,949,958,966,979,984,993,1000,1004,1012,1014,1015,1016,1017,1021,1028,1036,1049,1064],"ymouse":[547,547,547,547,547,547,544,542,540,540,540,540,539,539,539,539,539,539,539,539,539,539,539,539,539,539,539,539,539,539,539,539,539,539,539,539,539,531,507,492,477,467,456,431,410,400,383,364,329,311,296,284,272,252,243,224,211,202,188,184,181,180,178,169,152,134,103,72],"timestamp_mouse":[12,32,52,72,93,112,132,152,172,192,214,234,252,272,292,312,333,354,372,393,412,432,453,472,492,512,534,553,573,593,612,632,653,672,693,712,732,752,773,792,813,832,853,873,892,912,933,953,972,992,1013,1032,1054,1073,1093,1112,1132,1152,1173,1192,1213,1232,1253,1272,1293,1312,1332,1354],"xSR":741.5,"ySR":469.95,"xT1":424.9,"yT1":0,"xT2":1058.1,"yT2":0,"toosoon":0,"cond_shown":"randomdotsizeEA","ratio_trial":900,"smaller_num":"18","larger_num":"20","correct_side":1,"subjID":"sarahpeña21","gender":"1","age":"9","school":"4"},{"start_time":1552074801639,"click_time":1552074803099,"finger_time":1552074802699,"fix_duration":1136.4486003397863,"trial":23,"RT":1060,"MT":400,"sideResp":1,"stimulus":"img/750/randomdotsizeEA/L/9_Ratio_750_L_4_R_3.png","xmouse":[802,802,802,802,802,802,802,802,802,802,802,803,804,804,806,806,806,806,806,806,806,806,806,806,806,806,806,806,806,806,806,806,806,806,806,806,806,806,806,806,806,806,808,816,822,823,823,823,823,823,823,823,810,773,702,624,488,471,468,467,467,466,464,463,461,460,460,460,460,462,466,477,485,496],"ymouse":[541,541,541,541,541,541,541,541,541,541,541,541,539,538,534,533,533,533,533,533,533,533,533,533,533,533,533,533,533,533,533,533,533,533,533,533,533,533,533,533,533,532,529,524,521,520,519,519,519,519,518,514,493,450,384,315,192,177,171,168,164,157,151,146,140,136,134,133,130,128,123,112,102,90],"timestamp_mouse":[10,20,50,60,81,100,121,140,160,181,200,221,240,261,281,300,320,341,361,380,400,420,441,460,480,501,521,540,561,580,600,621,641,660,681,701,721,741,761,781,802,821,840,861,880,901,921,940,961,980,1000,1021,1041,1060,1081,1102,1121,1140,1161,1181,1201,1222,1240,1261,1280,1302,1321,1340,1361,1380,1401,1421,1440,1460],"xSR":741.5,"ySR":469.95,"xT1":424.9,"yT1":0,"xT2":1058.1,"yT2":0,"toosoon":0,"cond_shown":"randomdotsizeEA","ratio_trial":750,"smaller_num":"3","larger_num":"4","correct_side":1,"subjID":"sarahpeña21","gender":"1","age":"9","school":"4"},{"start_time":1552074805491,"click_time":1552074807579,"finger_time":1552074806340,"fix_duration":1330.2970674833948,"trial":24,"RT":849,"MT":1239,"sideResp":1,"stimulus":"img/500/equaldotsize/L/4_Ratio_500_L_18_R_9.png","xmouse":[804,804,804,804,804,804,804,804,804,804,804,804,804,804,804,804,804,804,804,804,804,804,804,804,804,804,804,804,804,804,804,804,804,804,804,804,804,804,805,820,833,839,846,853,861,862,862,862,862,860,853,844,831,812,736,667,593,496,406,221,93,93,93,93,93,93,93,93,93,93,93,93,93,93,93,93,93,93,93,173,189,194,198,205,225,239,250,259,271,284,289,290,290,290,296,302,311,324,334,341,342,343,348,362,470],"ymouse":[526,526,526,526,526,526,526,526,526,526,526,526,526,526,526,526,526,526,526,526,526,526,526,526,526,526,526,526,526,526,526,526,526,526,526,526,526,526,525,503,485,477,466,454,437,434,430,427,426,418,403,388,370,351,300,264,223,182,141,61,9,9,9,9,9,9,9,9,9,9,9,9,9,9,9,9,9,9,9,2,7,9,10,12,17,24,28,34,40,46,47,47,47,47,47,47,47,47,47,47,47,47,47,48,60],"timestamp_mouse":[9,30,49,69,89,109,128,149,169,189,209,228,248,269,289,309,329,348,368,390,408,428,449,470,488,509,528,548,568,589,610,630,650,669,689,709,729,748,768,788,809,828,849,868,889,909,928,948,969,989,1008,1028,1050,1068,1088,1108,1128,1149,1169,1189,1208,1228,1248,1269,1289,1309,1328,1349,1368,1389,1408,1428,1449,1468,1489,1508,1528,1548,1569,1589,1609,1628,1649,1668,1688,1708,1728,1748,1769,1789,1809,1829,1849,1868,1889,1908,1928,1948,1969,1988,2008,2029,2049,2069,2088],"xSR":741.5,"ySR":469.95,"xT1":424.9,"yT1":0,"xT2":1058.1,"yT2":0,"toosoon":0,"cond_shown":"equaldotsize","ratio_trial":500,"smaller_num":"9","larger_num":"18","correct_side":1,"subjID":"sarahpeña21","gender":"1","age":"9","school":"4"},{"start_time":1552074810143,"click_time":1552074811421,"finger_time":1552074810900,"fix_duration":862.6850893096495,"trial":25,"RT":757,"MT":521,"sideResp":2,"stimulus":"img/900/equaldotsize/R/7_Ratio_900_L_9_R_10.png","xmouse":[832,832,832,832,832,832,832,832,832,832,832,832,832,832,832,832,832,832,832,832,830,826,826,825,825,825,825,825,825,825,825,825,825,825,825,825,825,827,834,845,858,891,904,912,918,924,949,967,984,1002,1017,1043,1054,1067,1080,1091,1106,1110,1113,1114,1117,1119,1119,1118],"ymouse":[522,522,522,522,522,522,522,522,522,522,522,522,522,522,522,522,522,522,522,522,522,522,522,522,522,522,522,522,522,522,522,522,522,522,522,522,493,465,443,421,401,364,353,347,340,331,306,295,282,269,258,233,222,207,194,180,167,162,157,152,144,119,108,99],"timestamp_mouse":[16,37,57,77,97,117,136,156,176,196,216,237,257,276,297,318,337,357,376,398,416,436,456,476,497,516,537,557,576,597,616,637,657,676,697,716,737,757,776,796,817,837,856,876,896,918,937,956,976,997,1016,1037,1056,1077,1096,1116,1136,1157,1176,1196,1216,1236,1256,1278],"xSR":741.5,"ySR":469.95,"xT1":424.9,"yT1":0,"xT2":1058.1,"yT2":0,"toosoon":0,"cond_shown":"equaldotsize","ratio_trial":900,"smaller_num":"9","larger_num":"10","correct_side":2,"subjID":"sarahpeña21","gender":"1","age":"9","school":"4"},{"start_time":1552074812808,"click_time":1552074815141,"finger_time":1552074814160,"fix_duration":508.73174998617276,"trial":26,"RT":1352,"MT":981,"sideResp":1,"stimulus":"img/900/randomdotsizeEA/L/8_Ratio_900_L_20_R_18.png","xmouse":[801,802,802,803,803,803,803,803,803,803,803,803,803,803,803,803,803,803,803,803,803,804,804,807,809,809,809,809,809,809,809,809,809,809,809,809,809,809,809,809,809,809,809,809,809,809,809,809,809,809,809,809,809,809,809,809,809,809,809,809,809,809,810,810,810,810,803,798,784,759,743,717,709,685,660,652,645,639,634,625,622,622,619,616,607,604,600,597,594,593,593,593,593,593,593,593,593,593,593,593,592,590,586,579,566,560,554,549,546,541,539,537,537,537,536,531,519],"ymouse":[518,518,518,517,517,517,517,517,517,517,517,517,517,517,517,517,517,517,517,517,517,517,517,516,514,514,514,514,514,514,514,514,514,514,514,514,514,514,514,514,514,514,514,514,514,514,514,514,514,514,514,514,514,514,514,514,514,514,514,514,514,514,514,514,508,493,473,451,422,365,335,292,281,248,217,206,193,182,172,150,142,138,129,118,88,81,74,69,64,63,63,63,63,63,63,63,63,63,63,63,63,63,63,63,63,63,63,63,63,63,63,63,63,63,63,63,63],"timestamp_mouse":[16,38,52,71,91,111,131,152,171,191,212,232,251,272,292,312,332,352,371,392,412,432,452,471,492,512,532,552,572,591,611,632,651,671,692,712,731,751,772,791,811,832,853,873,892,912,931,952,973,993,1011,1031,1051,1071,1092,1112,1132,1151,1171,1191,1211,1233,1252,1271,1292,1311,1331,1352,1371,1391,1412,1431,1451,1471,1491,1511,1531,1551,1572,1591,1612,1631,1651,1671,1691,1711,1732,1752,1772,1792,1811,1831,1851,1872,1891,1912,1932,1951,1971,1991,2011,2031,2052,2071,2091,2111,2132,2152,2172,2191,2212,2232,2251,2272,2291,2311,2332],"xSR":741.5,"ySR":469.95,"xT1":424.9,"yT1":0,"xT2":1058.1,"yT2":0,"toosoon":0,"cond_shown":"randomdotsizeEA","ratio_trial":900,"smaller_num":"18","larger_num":"20","correct_side":1,"subjID":"sarahpeña21","gender":"1","age":"9","school":"4"},{"start_time":1552074816880,"click_time":1552074818900,"finger_time":1552074817719,"fix_duration":257.528709785398,"trial":27,"RT":839,"MT":1181,"sideResp":1,"stimulus":"img/500/equaldotanddens/L/11_Ratio_500_L_12_R_6.png","xmouse":[766,766,766,766,766,766,766,765,765,765,765,765,765,765,765,765,765,765,765,765,765,765,765,765,765,765,765,765,765,765,765,765,765,765,765,765,765,765,765,765,765,762,755,746,737,728,709,703,699,697,697,694,693,692,690,686,680,674,671,666,661,649,643,636,631,628,620,608,599,592,584,562,555,547,540,535,532,532,532,532,531,531,531,531,531,531,531,531,531,531,531,531,531,531,531,530,529,528,527,527,525,523],"ymouse":[509,509,510,511,512,513,515,516,516,517,517,517,517,517,517,518,518,518,518,518,518,518,518,518,518,518,518,518,518,518,518,518,518,518,518,518,518,518,518,518,518,489,467,443,426,412,378,368,360,355,352,339,331,322,311,297,275,258,245,232,221,198,191,181,174,169,156,140,132,125,117,101,96,90,85,80,78,78,78,78,77,77,77,77,77,77,77,77,77,77,77,77,77,76,76,75,73,70,69,68,66,63],"timestamp_mouse":[1,19,40,60,80,100,119,140,159,180,199,219,239,260,281,300,319,340,359,379,401,420,440,459,479,499,519,539,560,580,601,619,639,660,679,700,719,740,760,779,799,820,839,859,879,899,920,939,960,980,999,1019,1039,1061,1079,1100,1120,1140,1159,1179,1200,1220,1239,1260,1279,1300,1319,1339,1359,1380,1399,1420,1439,1459,1479,1500,1520,1540,1561,1579,1600,1619,1640,1659,1680,1699,1719,1740,1760,1779,1799,1819,1840,1860,1880,1901,1919,1939,1959,1980,1999,2020],"xSR":741.5,"ySR":469.95,"xT1":424.9,"yT1":0,"xT2":1058.1,"yT2":0,"toosoon":0,"cond_shown":"equaldotanddens","ratio_trial":500,"smaller_num":"6","larger_num":"12","correct_side":1,"subjID":"sarahpeña21","gender":"1","age":"9","school":"4"},{"start_time":1552074821761,"click_time":1552074823140,"finger_time":1552074822420,"fix_duration":1459.8613707543323,"trial":28,"RT":659,"MT":720,"sideResp":2,"stimulus":"img/900/equaldotsize/R/9_Ratio_900_L_18_R_20.png","xmouse":[804,804,804,804,804,804,804,804,804,804,804,804,804,804,804,804,804,804,804,804,815,828,834,834,834,834,834,834,834,834,834,835,868,888,906,923,944,951,955,958,959,962,968,975,983,990,1001,1007,1009,1013,1014,1016,1023,1027,1031,1033,1037,1039,1041,1048,1051,1057,1063,1064,1064,1064,1064,1064,1065],"ymouse":[512,512,512,512,512,512,512,512,512,512,512,512,512,512,512,512,512,512,512,512,504,495,490,490,490,490,490,490,490,490,490,489,456,434,414,394,363,353,346,341,338,334,323,312,298,286,265,255,253,245,241,236,220,211,202,193,178,170,161,140,130,117,103,102,102,101,100,100,99],"timestamp_mouse":[20,47,59,78,98,118,138,158,178,199,219,240,259,278,299,318,338,358,378,398,419,439,459,479,499,518,539,558,578,599,618,638,659,678,699,718,740,759,778,799,819,838,858,878,900,918,940,959,978,998,1018,1038,1058,1078,1099,1119,1140,1158,1179,1198,1218,1238,1259,1279,1298,1318,1339,1360,1379],"xSR":741.5,"ySR":469.95,"xT1":424.9,"yT1":0,"xT2":1058.1,"yT2":0,"toosoon":0,"cond_shown":"equaldotsize","ratio_trial":900,"smaller_num":"18","larger_num":"20","correct_side":2,"subjID":"sarahpeña21","gender":"1","age":"9","school":"4"},{"start_time":1552074824911,"click_time":1552074826341,"finger_time":1552074825579,"fix_duration":250,"trial":29,"RT":668,"MT":762,"sideResp":2,"stimulus":"img/250/equaldotanddens/R/4_Ratio_250_L_3_R_12.png","xmouse":[778,778,778,778,778,778,778,778,778,778,778,778,778,778,778,778,778,778,778,778,778,778,778,778,778,777,776,776,776,776,776,781,789,801,815,851,871,893,909,925,954,959,969,982,998,1033,1050,1062,1069,1074,1075,1075,1075,1075,1076,1077,1077,1077,1078,1079,1082,1084,1086,1087,1089,1091,1091,1092,1092,1093,1096,1103],"ymouse":[504,504,504,504,504,504,504,504,504,504,504,504,504,504,504,504,504,504,504,504,504,504,504,504,504,501,499,498,497,496,495,484,478,468,458,433,417,402,388,375,357,353,347,340,331,308,295,283,271,258,254,253,253,253,252,250,247,244,240,235,214,193,180,168,156,146,143,139,136,130,110,81],"timestamp_mouse":[12,38,49,68,89,109,128,148,168,188,209,228,248,269,290,308,328,348,369,388,408,429,450,469,488,508,529,548,568,588,608,628,649,668,689,708,728,749,768,788,808,828,848,869,889,908,928,950,968,988,1008,1029,1048,1069,1088,1108,1128,1148,1168,1188,1209,1229,1248,1268,1288,1308,1328,1348,1368,1388,1408,1430],"xSR":741.5,"ySR":469.95,"xT1":424.9,"yT1":0,"xT2":1058.1,"yT2":0,"toosoon":0,"cond_shown":"equaldotanddens","ratio_trial":250,"smaller_num":"3","larger_num":"12","correct_side":2,"subjID":"sarahpeña21","gender":"1","age":"9","school":"4"},{"start_time":1552074828722,"click_time":1552074829840,"finger_time":1552074829240,"fix_duration":1001.8585868352634,"trial":30,"RT":518,"MT":600,"sideResp":2,"stimulus":"img/250/equaldotanddens/R/13_Ratio_250_L_2_R_8.png","xmouse":[770,770,770,770,770,770,770,770,770,770,770,770,770,770,770,770,770,770,770,770,770,788,809,823,838,845,850,858,868,903,923,947,976,995,1002,1015,1023,1025,1028,1029,1029,1029,1030,1032,1035,1042,1046,1051,1051,1055,1060,1063,1066,1070,1073,1079],"ymouse":[517,517,517,517,517,517,517,517,517,517,517,517,517,517,517,517,517,517,517,517,517,507,495,487,478,474,469,460,447,405,381,348,307,268,254,223,204,199,193,191,191,190,189,185,181,172,165,159,157,150,139,134,127,119,112,95],"timestamp_mouse":[17,38,57,79,98,118,137,157,178,197,219,237,258,278,298,317,338,358,378,399,419,437,457,477,498,518,537,558,578,598,617,637,657,677,697,717,737,758,778,798,817,837,857,877,899,917,938,958,979,997,1017,1037,1057,1077,1097,1117],"xSR":741.5,"ySR":469.95,"xT1":424.9,"yT1":0,"xT2":1058.1,"yT2":0,"toosoon":0,"cond_shown":"equaldotanddens","ratio_trial":250,"smaller_num":"2","larger_num":"8","correct_side":2,"subjID":"sarahpeña21","gender":"1","age":"9","school":"4"},{"start_time":1552074844054,"click_time":1552074845779,"finger_time":1552074844780,"fix_duration":933.8878138108013,"trial":31,"RT":726,"MT":999,"sideResp":1,"stimulus":"img/900/equaldotsize/R/14_Ratio_900_L_18_R_20.png","xmouse":[776,776,776,776,776,776,776,776,776,776,776,776,776,776,776,776,776,776,776,776,776,776,776,776,776,776,776,776,776,776,776,776,776,773,771,767,755,749,742,739,736,734,731,728,725,715,701,678,644,594,459,388,327,284,262,252,252,252,252,252,252,252,252,252,252,252,252,252,252,252,252,252,253,260,264,276,283,290,298,304,312,314,317,323,332,388,447],"ymouse":[522,522,522,522,522,522,522,522,522,522,522,522,522,522,522,522,522,522,522,522,522,522,522,522,522,522,522,522,522,522,522,522,522,500,489,473,434,412,389,373,349,340,332,323,317,302,290,276,257,229,157,123,101,81,69,61,61,61,61,61,61,61,61,61,61,61,61,61,61,61,60,60,60,56,52,38,32,27,21,18,14,12,12,11,11,19,36],"timestamp_mouse":[10,40,46,65,85,105,126,146,167,186,205,225,245,266,287,307,325,346,367,386,405,426,445,465,486,505,527,546,565,586,605,627,645,665,687,706,726,745,766,785,806,825,845,865,885,906,925,945,966,985,1007,1025,1046,1065,1085,1106,1125,1145,1165,1186,1206,1226,1245,1266,1285,1306,1326,1345,1365,1385,1407,1425,1446,1465,1486,1506,1525,1545,1565,1585,1606,1625,1645,1666,1686,1706,1725],"xSR":741.5,"ySR":469.95,"xT1":424.9,"yT1":0,"xT2":1058.1,"yT2":0,"toosoon":0,"cond_shown":"equaldotsize","ratio_trial":900,"smaller_num":"18","larger_num":"20","correct_side":2,"subjID":"sarahpeña21","gender":"1","age":"9","school":"4"},{"start_time":1552074847339,"click_time":1552074853060,"finger_time":1552074847919,"fix_duration":477.8474799740624,"trial":32,"RT":580,"MT":5141,"sideResp":2,"stimulus":"img/900/equaldotsize/L/8_Ratio_900_L_20_R_18.png","xmouse":[774,774,774,774,774,774,774,774,774,774,774,774,774,774,774,774,774,774,774,774,774,774,774,774,774,774,774,774,774,773,773,773,775,776,778,790,841,863,882,899,942,1012,1214,1214,1214,1214,1214,1214,1214,1214,1214,1214,1214,1214,1214,1214,1214,1214,1214,1214,1214,1214,1214,1214,1214,1214,1214,1214,1214,1214,1214,1214,1214,1214,1214,1214,1214,1214,1214,1214,1214,1214,1214,1214,1214,1214,1214,1214,1214,1214,1214,1214,1214,1214,1214,1214,1214,1214,1214,1214,1214,1214,1214,1214,1214,1214,1214,1214,1214,1214,1214,1214,1214,1214,1214,1214,1214,1214,1214,1214,1214,1214,1214,1214,1214,1214,1214,1214,1214,1214,1214,1214,1214,1214,1214,1214,1214,1214,1214,1214,1214,1214,1214,1214,1214,1214,1214,1214,1214,1214,1214,1214,1214,1214,1214,1214,1214,1214,1214,1214,1214,1214,1214,1214,1214,1214,1214,1298,1239,1211,1192,1185,1180,1178,1176,1170,1159,1105,1086,1071,1063,1062,1053,1048,1042,1036,1031,1006,992,976,958,929,869,839,811,787,772,765,755,749,743,739,738,738,738,739,741,745,747,749,751,754,762,765,768,769,770,770,770,770,770,770,770,770,770,770,770,770,770,770,770,770,770,770,770,770,770,770,770,770,770,770,772,778,788,797,802,817,841,858,874,891,923,939,959,993,1034,1101,1137,1155,1172,1187,1197,1207,1209,1211,1213,1216,1224,1226,1227,1227,1227,1227,1227,1225,1220,1198,1187,1180,1178,1178,1178,1172,1164,1160,1155],"ymouse":[565,565,565,565,565,565,565,565,565,565,565,565,565,565,565,565,565,565,565,565,565,565,565,565,565,565,565,565,565,576,616,637,640,640,640,634,610,601,595,594,596,617,701,701,701,701,701,701,701,701,701,701,701,701,701,701,701,701,701,701,701,701,701,701,701,701,701,701,701,701,701,701,701,701,701,701,701,701,701,701,701,701,701,701,701,701,701,701,701,701,701,701,701,701,701,701,701,701,701,701,701,701,701,701,701,701,701,701,701,701,701,701,701,701,701,701,701,701,701,701,701,701,701,701,701,701,701,701,701,701,701,701,701,701,701,701,701,701,701,701,701,701,701,701,701,701,701,701,701,701,701,701,701,701,701,701,701,701,701,701,701,701,701,701,701,701,701,650,569,543,530,525,522,521,519,515,507,475,467,464,464,464,466,467,471,474,475,481,482,482,482,476,468,463,460,460,460,460,465,470,477,484,494,500,504,507,511,516,517,518,519,520,521,521,522,522,522,522,522,522,522,522,522,522,522,522,522,522,522,522,522,522,522,522,522,522,522,522,522,522,522,522,522,521,519,516,515,509,500,493,485,476,453,436,418,390,361,317,284,264,244,223,203,180,171,164,158,150,133,130,128,126,123,121,118,109,95,51,39,32,30,30,30,30,31,32,33],"timestamp_mouse":[10,33,40,60,82,101,121,142,160,181,200,221,240,261,281,300,322,340,360,380,401,420,440,460,480,501,522,541,561,580,602,621,641,660,681,700,722,740,761,781,801,821,840,861,881,900,925,940,961,980,1001,1020,1041,1060,1080,1101,1121,1140,1160,1180,1200,1220,1240,1260,1280,1301,1320,1341,1361,1380,1401,1420,1440,1461,1481,1501,1520,1541,1562,1582,1601,1621,1641,1660,1680,1701,1720,1740,1761,1780,1801,1821,1840,1861,1881,1901,1921,1940,1960,1981,2000,2021,2040,2060,2081,2101,2120,2141,2161,2180,2200,2220,2240,2260,2281,2300,2321,2340,2362,2380,2401,2421,2440,2461,2481,2502,2521,2540,2560,2581,2600,2620,2640,2660,2681,2700,2722,2740,2761,2780,2801,2821,2840,2860,2881,2900,2921,2940,2960,2981,3001,3021,3040,3061,3080,3100,3121,3141,3161,3181,3201,3221,3241,3261,3281,3301,3320,3341,3361,3380,3400,3421,3441,3460,3481,3500,3520,3540,3561,3581,3600,3620,3640,3660,3680,3701,3721,3740,3760,3780,3800,3820,3840,3861,3880,3901,3921,3940,3960,3980,4002,4020,4040,4061,4082,4100,4120,4140,4161,4181,4201,4220,4240,4260,4280,4302,4320,4340,4360,4380,4401,4421,4441,4462,4480,4501,4520,4540,4562,4581,4600,4621,4640,4660,4681,4702,4721,4740,4761,4780,4800,4820,4841,4861,4881,4900,4920,4941,4960,4980,5001,5020,5040,5061,5080,5100,5122,5140,5162,5180,5201,5221,5240,5261,5280,5300,5320,5340,5361,5380,5400,5421,5441,5460,5480,5501,5520,5540,5561,5580,5600,5620,5641,5661,5680,5700,5721],"xSR":741.5,"ySR":469.95,"xT1":424.9,"yT1":0,"xT2":1058.1,"yT2":0,"toosoon":0,"cond_shown":"equaldotsize","ratio_trial":900,"smaller_num":"18","larger_num":"20","correct_side":1,"subjID":"sarahpeña21","gender":"1","age":"9","school":"4"},{"start_time":1552074854551,"click_time":1552074855781,"finger_time":1552074855340,"fix_duration":449.00384706434227,"trial":33,"RT":789,"MT":441,"sideResp":2,"stimulus":"img/900/equaldotanddens/R/11_Ratio_900_L_18_R_20.png","xmouse":[751,751,751,751,751,751,751,751,751,751,751,751,751,751,751,751,751,751,751,751,751,751,751,751,751,751,751,751,751,751,751,751,751,751,751,751,759,771,785,801,822,855,945,986,1056,1079,1142,1156,1168,1179,1197,1245,1245,1245,1245,1245,1245,1245,1245,1210,1178,1132],"ymouse":[525,525,525,525,525,525,525,525,525,525,525,525,525,525,525,525,525,525,525,525,525,525,525,525,525,525,525,525,525,525,525,525,525,525,525,525,509,493,475,458,436,400,307,261,194,173,120,107,97,86,66,15,15,15,15,15,15,15,15,11,28,47],"timestamp_mouse":[12,43,49,68,89,109,129,149,168,188,208,229,249,269,289,308,328,348,368,388,408,428,449,469,488,508,529,550,569,590,608,629,649,668,688,709,729,748,768,789,809,828,848,868,888,908,930,948,968,988,1008,1030,1048,1068,1089,1108,1129,1148,1168,1188,1209,1229],"xSR":741.5,"ySR":469.95,"xT1":424.9,"yT1":0,"xT2":1058.1,"yT2":0,"toosoon":0,"cond_shown":"equaldotanddens","ratio_trial":900,"smaller_num":"18","larger_num":"20","correct_side":2,"subjID":"sarahpeña21","gender":"1","age":"9","school":"4"},{"start_time":1552074857986,"click_time":1552074859439,"finger_time":1552074859020,"fix_duration":943.5781958611578,"trial":34,"RT":1034,"MT":419,"sideResp":1,"stimulus":"img/900/equaldotanddens/L/1_Ratio_900_L_10_R_9.png","xmouse":[790,790,790,790,790,790,790,790,790,790,790,790,790,790,790,790,790,790,790,790,790,790,790,790,790,790,790,790,790,790,790,790,790,790,790,790,790,790,790,790,790,790,790,790,790,790,790,790,790,789,784,776,756,738,715,692,686,683,680,680,678,673,669,663,656,633,616,601,584,568,536,533,520],"ymouse":[507,507,507,507,507,507,507,507,507,507,507,507,507,507,507,507,507,507,507,507,507,507,507,507,507,507,507,507,507,507,507,507,507,507,507,507,507,507,507,507,507,507,507,507,507,507,507,507,507,507,489,462,384,326,277,224,211,203,198,197,191,184,179,172,164,149,139,132,124,118,105,104,98],"timestamp_mouse":[13,37,54,73,94,114,133,153,174,193,214,234,253,273,294,313,333,354,373,393,415,433,453,473,493,513,534,554,574,593,613,633,654,673,695,713,733,754,773,794,814,833,854,874,894,914,934,953,975,994,1013,1034,1053,1073,1093,1113,1133,1154,1174,1193,1213,1233,1253,1273,1293,1313,1333,1353,1373,1394,1414,1435,1453],"xSR":741.5,"ySR":469.95,"xT1":424.9,"yT1":0,"xT2":1058.1,"yT2":0,"toosoon":0,"cond_shown":"equaldotanddens","ratio_trial":900,"smaller_num":"9","larger_num":"10","correct_side":1,"subjID":"sarahpeña21","gender":"1","age":"9","school":"4"},{"start_time":1552074860915,"click_time":1552074883780,"finger_time":1552074880940,"fix_duration":354.8161656251927,"trial":35,"RT":20025,"MT":2840,"sideResp":2,"stimulus":"img/900/randomdotsizeEA/R/3_Ratio_900_L_9_R_10.png","xmouse":[782,784,787,789,790,790,790,790,790,790,790,790,790,790,790,790,790,790,790,790,790,790,790,790,790,790,790,790,790,790,790,790,790,790,790,790,790,790,790,790,789,789,789,789,789,787,786,786,786,786,786,786,786,786,786,786,786,786,786,786,786,786,786,786,786,786,786,786,786,786,786,786,786,786,786,786,786,786,786,786,786,786,786,786,786,786,786,786,786,786,786,786,786,786,786,786,786,786,786,786,786,786,786,786,786,786,786,786,786,786,786,786,786,786,786,786,786,786,786,786,786,786,786,786,786,786,786,786,786,786,786,786,786,786,786,786,786,786,786,786,786,786,786,786,786,786,786,786,786,786,786,786,786,786,786,786,786,786,786,786,786,786,786,786,786,786,786,786,786,786,786,786,786,786,786,786,786,786,786,786,786,786,786,786,786,786,786,786,786,786,786,786,786,786,786,786,786,786,786,786,786,786,786,786,786,786,786,786,786,786,786,786,786,786,786,786,786,786,786,786,786,786,786,786,786,786,786,786,786,786,786,786,786,786,786,786,786,786,786,786,786,786,786,786,786,786,786,786,786,786,786,786,786,786,786,786,786,786,786,786,786,786,786,786,786,786,786,786,786,786,786,786,786,786,786,786,786,786,786,786,786,786,786,786,786,786,786,786,786,786,786,786,786,786,786,786,786,786,786,786,786,786,786,786,786,786,786,786,786,786,786,786,786,786,786,786,786,786,786,786,786,786,786,786,786,786,786,786,786,786,786,786,786,786,786,786,786,786,786,786,786,786,786,786,786,786,786,786,786,786,786,786,786,786,786,786,786,786,786,786,786,786,786,786,786,786,786,786,786,786,786,786,786,786,786,786,786,786,786,786,786,786,786,786,786,786,786,786,786,786,786,786,786,786,786,786,786,786,786,786,786,786,786,786,786,786,786,786,786,786,786,786,786,786,786,786,786,786,786,786,786,786,786,786,786,786,786,786,786,786,786,786,786,786,786,786,786,786,786,786,786,786,786,786,786,786,786,786,786,786,786,786,786,786,786,786,786,786,786,786,786,786,786,786,786,786,786,786,786,786,786,786,786,786,786,786,786,786,786,786,786,786,786,786,786,786,786,786,786,786,786,786,786,786,786,786,786,786,786,786,786,786,786,786,786,786,786,786,786,786,786,786,786,786,786,786,786,786,786,786,786,786,786,786,786,786,786,786,786,786,786,786,786,786,786,786,786,786,786,786,786,786,786,786,786,786,786,786,786,786,786,786,786,786,786,786,786,786,786,786,786,786,786,786,786,786,786,786,786,786,786,786,786,786,786,786,786,786,786,786,786,786,786,786,786,786,786,786,786,786,786,786,786,786,786,786,786,786,786,786,786,786,786,786,786,786,786,786,786,786,786,786,786,786,786,786,786,786,786,786,786,786,786,786,786,786,786,786,786,786,786,786,786,786,786,786,786,786,786,786,786,786,786,786,786,786,786,786,786,786,786,786,786,786,786,786,786,786,786,786,786,786,786,786,786,786,786,786,786,786,786,786,786,786,786,786,786,786,786,786,786,786,786,786,786,786,786,786,786,786,786,786,786,786,786,786,786,786,786,786,786,786,786,786,786,786,786,786,786,786,786,786,786,786,786,786,786,786,786,786,786,786,786,786,786,786,786,786,786,786,786,786,786,786,786,786,786,786,786,786,786,786,786,786,786,786,786,786,786,786,786,786,786,786,786,786,786,786,786,786,786,786,786,786,786,786,786,786,786,786,786,786,786,786,786,786,786,786,786,786,786,786,786,786,786,786,786,786,786,786,786,786,786,786,786,786,786,786,786,786,786,786,786,786,786,786,786,786,786,786,786,786,786,786,786,786,786,786,786,786,786,786,786,786,786,786,786,786,786,786,786,786,786,786,786,786,786,786,786,786,786,786,786,786,786,786,786,786,786,786,786,786,786,786,786,786,786,786,786,786,786,786,786,786,786,786,786,786,786,786,786,786,786,786,786,786,786,786,786,786,786,786,786,786,786,786,786,786,786,786,786,786,786,786,786,786,786,786,786,786,786,786,786,786,786,786,786,786,786,786,786,786,786,786,786,786,786,786,786,786,786,786,786,786,786,786,786,786,786,786,786,786,786,786,786,786,786,786,786,786,786,786,786,786,786,786,786,786,786,786,786,786,786,786,786,786,786,786,786,786,786,786,786,786,786,786,786,786,786,786,786,786,786,786,786,786,786,786,786,786,786,786,786,786,786,786,786,786,786,786,786,786,786,786,786,786,786,786,786,786,784,755,749,749,749,749,749,749,749,748,748,748,748,748,747,748,752,759,762,766,773,779,794,802,804,804,805,805,805,805,807,816,822,825,827,829,832,840,840,840,840,837,824,820,811,802,793,775,770,766,765,765,765,765,765,765,765,765,765,765,765,765,765,765,765,765,765,765,765,765,765,765,766,767,769,770,770,770,770,770,770,768,766,766,766,766,766,766,766,766,766,768,774,783,794,802,806,815,820,824,829,829,829,829,829,829,829,829,839,860,883,904,930,939,950,956,961,965,967,968,968,968,971,973,975,976,979,990,991,992,994,1000,1014,1021,1028,1041,1053,1064,1070,1074,1077,1080,1084,1086],"ymouse":[531,529,528,527,525,525,525,525,525,525,525,525,525,525,525,525,525,525,525,525,525,525,525,525,525,525,525,525,525,525,525,525,525,525,525,525,525,525,525,525,526,526,526,526,526,538,542,542,542,542,542,542,542,542,542,542,542,542,542,542,542,542,542,542,542,542,542,542,542,542,542,542,542,542,542,542,542,542,542,542,542,542,542,542,542,542,542,542,542,542,542,542,542,542,542,542,542,542,542,542,542,542,542,542,542,542,542,542,542,542,542,542,542,542,542,542,542,542,542,542,542,542,542,542,542,542,542,542,542,542,542,542,542,542,542,542,542,542,542,542,542,542,542,542,542,542,542,542,542,542,542,542,542,542,542,542,542,542,542,542,542,542,542,542,542,542,542,542,542,542,542,542,542,542,542,542,542,542,542,542,542,542,542,542,542,542,542,542,542,542,542,542,542,542,542,542,542,542,542,542,542,542,542,542,542,542,542,542,542,542,542,542,542,542,542,542,542,542,542,542,542,542,542,542,542,542,542,542,542,542,542,542,542,542,542,542,542,542,542,542,542,542,542,542,542,542,542,542,542,542,542,542,542,542,542,542,542,542,542,542,542,542,542,542,542,542,542,542,542,542,542,542,542,542,542,542,542,542,542,542,542,542,542,542,542,542,542,542,542,542,542,542,542,542,542,542,542,542,542,542,542,542,542,542,542,542,542,542,542,542,542,542,542,542,542,542,542,542,542,542,542,542,542,542,542,542,542,542,542,542,542,542,542,542,542,542,542,542,542,542,542,542,542,542,542,542,542,542,542,542,542,542,542,542,542,542,542,542,542,542,542,542,542,542,542,542,542,542,542,542,542,542,542,542,542,542,542,542,542,542,542,542,542,542,542,542,542,542,542,542,542,542,542,542,542,542,542,542,542,542,542,542,542,542,542,542,542,542,542,542,542,542,542,542,542,542,542,542,542,542,542,542,542,542,542,542,542,542,542,542,542,542,542,542,542,542,542,542,542,542,542,542,542,542,542,542,542,542,542,542,542,542,542,542,542,542,542,542,542,542,542,542,542,542,542,542,542,542,542,542,542,542,542,542,542,542,542,542,542,542,542,542,542,542,542,542,542,542,542,542,542,542,542,542,542,542,542,542,542,542,542,542,542,542,542,542,542,542,542,542,542,542,542,542,542,542,542,542,542,542,542,542,542,542,542,542,542,542,542,542,542,542,542,542,542,542,542,542,542,542,542,542,542,542,542,542,542,542,542,542,542,542,542,542,542,542,542,542,542,542,542,542,542,542,542,542,542,542,542,542,542,542,542,542,542,542,542,542,542,542,542,542,542,542,542,542,542,542,542,542,542,542,542,542,542,542,542,542,542,542,542,542,542,542,542,542,542,542,542,542,542,542,542,542,542,542,542,542,542,542,542,542,542,542,542,542,542,542,542,542,542,542,542,542,542,542,542,542,542,542,542,542,542,542,542,542,542,542,542,542,542,542,542,542,542,542,542,542,542,542,542,542,542,542,542,542,542,542,542,542,542,542,542,542,542,542,542,542,542,542,542,542,542,542,542,542,542,542,542,542,542,542,542,542,542,542,542,542,542,542,542,542,542,542,542,542,542,542,542,542,542,542,542,542,542,542,542,542,542,542,542,542,542,542,542,542,542,542,542,542,542,542,542,542,542,542,542,542,542,542,542,542,542,542,542,542,542,542,542,542,542,542,542,542,542,542,542,542,542,542,542,542,542,542,542,542,542,542,542,542,542,542,542,542,542,542,542,542,542,542,542,542,542,542,542,542,542,542,542,542,542,542,542,542,542,542,542,542,542,542,542,542,542,542,542,542,542,542,542,542,542,542,542,542,542,542,542,542,542,542,542,542,542,542,542,542,542,542,542,542,542,542,542,542,542,542,542,542,542,542,542,542,542,542,542,542,542,542,542,542,542,542,542,542,542,542,542,542,542,542,542,542,542,542,542,542,542,542,542,542,542,542,542,542,542,542,542,542,542,542,542,542,542,542,542,542,542,542,542,542,542,542,542,542,542,542,542,542,542,542,542,542,542,542,542,542,542,542,542,542,542,542,542,542,542,542,542,542,542,542,542,542,542,542,542,542,542,542,542,542,542,542,542,542,542,542,542,542,542,542,542,542,542,542,542,542,542,542,542,542,542,542,542,542,542,542,542,542,542,542,542,542,542,542,542,542,542,542,542,542,542,542,542,542,542,542,542,542,542,542,542,542,542,542,542,542,542,542,542,542,542,542,542,542,542,542,542,542,542,543,550,616,626,627,627,627,627,627,627,627,627,627,627,627,627,626,624,619,618,616,612,608,600,595,594,594,593,593,593,593,592,586,581,577,575,572,566,557,553,547,542,535,517,513,509,507,505,501,500,498,498,498,498,498,498,498,498,498,498,498,498,498,498,498,498,498,498,498,498,498,498,498,501,504,509,512,513,515,516,516,518,520,523,524,526,530,532,532,533,533,533,534,534,534,534,533,531,526,523,520,518,518,518,518,518,518,518,518,513,499,483,466,444,435,414,399,384,370,356,345,340,334,316,301,288,279,262,241,239,236,228,214,186,177,167,153,142,128,119,114,109,106,102,98],"timestamp_mouse":[13,24,45,65,85,104,124,144,165,184,205,224,245,264,284,305,326,345,364,384,405,424,444,464,484,504,524,545,564,585,606,624,644,665,684,704,725,746,764,784,805,825,844,864,884,904,925,944,964,984,1005,1025,1046,1064,1084,1105,1125,1144,1165,1184,1204,1225,1245,1264,1285,1306,1325,1345,1365,1384,1405,1424,1444,1464,1485,1505,1525,1545,1565,1585,1606,1624,1645,1665,1684,1705,1725,1745,1764,1785,1805,1824,1845,1864,1884,1904,1925,1944,1964,1984,2005,2026,2044,2065,2085,2105,2125,2146,2165,2185,2205,2224,2245,2264,2285,2304,2325,2345,2364,2384,2404,2425,2445,2465,2485,2504,2524,2544,2564,2585,2604,2625,2645,2665,2685,2705,2724,2745,2764,2784,2805,2825,2845,2866,2885,2904,2925,2945,2964,2985,3004,3025,3044,3065,3085,3104,3125,3144,3165,3185,3205,3224,3245,3264,3285,3305,3324,3344,3364,3384,3404,3425,3444,3466,3485,3504,3525,3545,3565,3584,3605,3625,3645,3664,3685,3705,3724,3745,3765,3785,3804,3824,3844,3864,3884,3904,3926,3945,3965,3985,4004,4024,4046,4065,4084,4104,4125,4144,4166,4186,4205,4224,4245,4264,4286,4306,4324,4344,4365,4384,4404,4425,4446,4465,4485,4505,4526,4544,4565,4585,4605,4625,4644,4665,4684,4705,4724,4744,4765,4786,4806,4825,4845,4865,4884,4905,4925,4945,4964,4985,5004,5024,5045,5065,5084,5104,5124,5145,5165,5184,5205,5224,5246,5265,5284,5304,5325,5345,5365,5384,5405,5424,5445,5466,5484,5506,5525,5545,5564,5586,5605,5624,5644,5664,5685,5704,5725,5745,5764,5785,5805,5824,5845,5866,5885,5905,5924,5946,5965,5984,6005,6024,6045,6065,6085,6105,6125,6144,6166,6185,6204,6225,6245,6266,6284,6304,6325,6345,6365,6386,6404,6425,6445,6464,6484,6504,6524,6546,6565,6584,6604,6625,6645,6664,6686,6704,6725,6745,6765,6784,6804,6825,6846,6864,6884,6905,6925,6946,6965,6985,7005,7024,7044,7066,7085,7104,7125,7144,7164,7185,7205,7225,7245,7264,7284,7304,7324,7345,7364,7384,7404,7424,7446,7465,7484,7505,7524,7544,7565,7584,7605,7626,7645,7665,7685,7705,7724,7745,7764,7784,7804,7825,7844,7865,7884,7904,7925,7946,7965,7984,8004,8025,8045,8065,8084,8104,8125,8145,8165,8185,8204,8225,8246,8264,8285,8304,8325,8344,8364,8384,8404,8425,8445,8466,8485,8504,8524,8544,8564,8584,8605,8624,8644,8665,8685,8704,8724,8748,8765,8786,8804,8824,8845,8865,8885,8904,8924,8945,8965,8985,9004,9026,9045,9065,9085,9104,9126,9144,9165,9185,9204,9224,9245,9264,9286,9305,9324,9345,9365,9384,9404,9426,9444,9465,9485,9504,9526,9545,9564,9584,9604,9624,9644,9664,9685,9705,9725,9745,9765,9785,9804,9826,9845,9865,9885,9905,9925,9944,9964,9985,10004,10025,10045,10064,10084,10104,10125,10145,10165,10186,10205,10225,10245,10266,10284,10305,10325,10344,10364,10384,10404,10424,10444,10465,10484,10505,10525,10544,10565,10585,10604,10625,10644,10665,10684,10704,10725,10745,10766,10785,10805,10825,10845,10866,10884,10905,10925,10944,10965,10984,11005,11025,11045,11065,11086,11105,11124,11144,11166,11185,11205,11224,11245,11265,11285,11304,11326,11345,11365,11384,11405,11424,11445,11464,11484,11505,11525,11546,11564,11585,11604,11625,11645,11664,11684,11704,11725,11745,11764,11785,11804,11825,11844,11865,11884,11904,11925,11945,11964,11986,12006,12025,12045,12064,12085,12104,12124,12144,12164,12184,12205,12225,12244,12264,12285,12306,12324,12345,12365,12384,12405,12424,12445,12465,12485,12504,12525,12544,12565,12584,12605,12625,12646,12664,12684,12705,12724,12745,12764,12785,12805,12825,12844,12864,12885,12905,12925,12944,12964,12984,13004,13025,13044,13065,13085,13105,13125,13144,13165,13184,13204,13224,13244,13264,13284,13305,13324,13346,13365,13385,13406,13425,13444,13464,13485,13506,13525,13545,13564,13586,13605,13626,13645,13665,13684,13705,13725,13744,13765,13785,13804,13824,13846,13864,13884,13904,13925,13945,13965,13984,14004,14025,14044,14066,14085,14104,14125,14146,14165,14185,14205,14226,14245,14264,14284,14304,14324,14344,14364,14384,14406,14425,14445,14464,14485,14504,14524,14544,14564,14584,14604,14625,14644,14664,14685,14705,14726,14745,14764,14784,14804,14826,14845,14865,14884,14905,14924,14944,14965,14985,15004,15025,15045,15065,15085,15104,15125,15145,15164,15184,15204,15226,15245,15265,15284,15304,15325,15345,15364,15385,15405,15424,15445,15464,15484,15504,15525,15544,15565,15584,15604,15624,15644,15664,15684,15704,15725,15744,15764,15785,15805,15825,15845,15864,15885,15904,15924,15945,15966,15986,16005,16024,16045,16064,16086,16104,16125,16144,16165,16184,16205,16224,16244,16266,16285,16304,16324,16345,16364,16385,16405,16425,16444,16464,16485,16505,16524,16544,16564,16584,16605,16624,16646,16664,16685,16705,16724,16745,16764,16785,16806,16824,16845,16865,16885,16905,16924,16946,16964,16985,17004,17025,17044,17065,17085,17106,17125,17146,17166,17185,17205,17224,17244,17265,17284,17306,17324,17346,17364,17384,17404,17425,17444,17465,17485,17505,17525,17546,17565,17585,17604,17624,17645,17666,17686,17704,17724,17744,17764,17785,17804,17825,17844,17865,17884,17904,17924,17945,17965,17986,18004,18025,18045,18066,18085,18104,18124,18145,18166,18185,18204,18224,18245,18264,18284,18304,18325,18345,18364,18384,18405,18424,18445,18466,18484,18505,18524,18546,18566,18585,18604,18625,18645,18664,18685,18704,18724,18746,18766,18785,18805,18824,18844,18864,18885,18904,18925,18946,18965,18985,19004,19025,19046,19064,19086,19106,19125,19145,19165,19184,19206,19225,19244,19265,19286,19305,19326,19346,19365,19386,19405,19425,19446,19466,19484,19505,19525,19544,19566,19584,19604,19625,19645,19664,19685,19706,19725,19745,19765,19784,19804,19825,19846,19866,19885,19904,19925,19946,19966,19984,20005,20025,20044,20066,20085,20105,20126,20144,20164,20185,20205,20225,20246,20265,20284,20306,20325,20346,20364,20384,20404,20424,20444,20464,20485,20505,20525,20546,20564,20585,20604,20626,20644,20666,20685,20706,20724,20744,20764,20785,20805,20825,20844,20865,20884,20905,20926,20945,20965,20985,21004,21026,21045,21064,21085,21105,21126,21146,21166,21184,21205,21225,21245,21266,21285,21304,21325,21346,21365,21386,21405,21426,21444,21465,21484,21505,21524,21545,21565,21586,21604,21626,21644,21664,21685,21704,21725,21745,21765,21785,21804,21826,21844,21865,21885,21905,21924,21944,21964,21986,22006,22025,22044,22066,22086,22105,22125,22146,22165,22184,22204,22224,22244,22264,22284,22305,22325,22345,22364,22384,22405,22425,22444,22465,22484,22505,22525,22545,22565,22584,22605,22625,22644,22665,22685,22705,22724,22744,22765,22784,22804,22825,22844,22865],"xSR":741.5,"ySR":469.95,"xT1":424.9,"yT1":0,"xT2":1058.1,"yT2":0,"toosoon":0,"cond_shown":"randomdotsizeEA","ratio_trial":900,"smaller_num":"9","larger_num":"10","correct_side":2,"subjID":"sarahpeña21","gender":"1","age":"9","school":"4"},{"start_time":1552074885232,"click_time":1552074886580,"finger_time":1552074885860,"fix_duration":250,"trial":36,"RT":628,"MT":720,"sideResp":2,"stimulus":"img/250/equaldotsize/R/9_Ratio_250_L_3_R_12.png","xmouse":[781,781,781,781,781,781,781,781,781,781,781,781,781,781,781,781,781,782,782,782,782,782,782,782,782,782,782,782,791,804,817,841,852,863,883,902,934,945,955,960,965,970,973,974,976,977,978,978,978,978,978,978,978,981,991,1003,1033,1052,1055,1056,1056,1056,1057,1057,1058,1058,1058,1059],"ymouse":[556,552,545,543,542,541,539,539,539,539,539,539,539,539,538,538,536,535,534,533,533,533,533,533,533,533,533,529,516,496,479,433,393,352,299,249,182,159,136,123,112,94,86,80,76,72,72,72,72,72,72,72,71,70,65,60,45,36,35,34,34,34,34,34,33,33,33,33],"timestamp_mouse":[7,27,50,68,89,108,127,149,168,187,207,228,247,269,288,308,328,348,368,388,409,428,448,469,489,509,529,548,567,588,608,628,648,667,687,707,727,748,767,788,807,828,847,868,887,909,927,949,969,987,1008,1027,1047,1069,1087,1108,1128,1147,1167,1187,1207,1228,1247,1269,1288,1308,1328,1348],"xSR":741.5,"ySR":469.95,"xT1":424.9,"yT1":0,"xT2":1058.1,"yT2":0,"toosoon":0,"cond_shown":"equaldotsize","ratio_trial":250,"smaller_num":"3","larger_num":"12","correct_side":2,"subjID":"sarahpeña21","gender":"1","age":"9","school":"4"},{"start_time":1552074899824,"click_time":1552074900700,"finger_time":1552074900639,"fix_duration":702.3478935083315,"trial":37,"RT":815,"MT":61,"sideResp":1,"stimulus":"img/250/randomdotsizeEA/L/3_Ratio_250_L_8_R_2.png","xmouse":[798,798,798,798,798,798,798,798,798,798,798,798,798,798,798,798,798,798,798,798,798,798,798,798,798,798,798,798,798,798,798,798,798,798,798,798,798,798,798,790,737,684,617,502],"ymouse":[521,521,521,521,521,521,521,521,521,521,521,521,521,521,521,521,521,521,521,521,521,521,521,521,521,521,521,521,521,521,521,521,521,521,521,521,521,521,521,492,375,281,184,41],"timestamp_mouse":[16,38,57,77,97,115,136,157,175,196,216,235,255,276,296,317,336,356,376,397,416,436,457,477,497,516,536,557,576,596,616,635,657,675,695,715,736,756,775,796,815,836,855,875],"xSR":741.5,"ySR":469.95,"xT1":424.9,"yT1":0,"xT2":1058.1,"yT2":0,"toosoon":0,"cond_shown":"randomdotsizeEA","ratio_trial":250,"smaller_num":"2","larger_num":"8","correct_side":1,"subjID":"sarahpeña21","gender":"1","age":"9","school":"4"},{"start_time":1552074902958,"click_time":1552074903741,"finger_time":1552074903680,"fix_duration":1096.0966386495315,"trial":38,"RT":722,"MT":61,"sideResp":1,"stimulus":"img/750/equaldotsize/L/8_Ratio_750_L_4_R_3.png","xmouse":[782,782,782,782,782,782,782,782,782,782,782,782,782,782,782,782,782,782,782,782,782,782,782,782,782,782,782,782,782,782,782,782,782,782,782,782,778,662,568,449],"ymouse":[515,515,515,515,515,515,515,515,515,515,515,515,515,515,515,515,515,515,515,515,515,515,515,515,515,515,515,515,515,515,515,515,515,515,515,507,463,247,149,36],"timestamp_mouse":[13,22,41,62,81,102,122,141,161,182,202,221,242,261,282,301,322,341,362,381,402,422,442,462,483,501,522,541,562,582,602,622,642,663,683,703,722,742,761,783],"xSR":741.5,"ySR":469.95,"xT1":424.9,"yT1":0,"xT2":1058.1,"yT2":0,"toosoon":0,"cond_shown":"equaldotsize","ratio_trial":750,"smaller_num":"3","larger_num":"4","correct_side":1,"subjID":"sarahpeña21","gender":"1","age":"9","school":"4"},{"start_time":1552074905821,"click_time":1552074907819,"finger_time":1552074906400,"fix_duration":699.7770189560954,"trial":39,"RT":579,"MT":1419,"sideResp":2,"stimulus":"img/500/equaldotsize/R/9_Ratio_500_L_2_R_4.png","xmouse":[806,806,806,806,806,806,806,806,806,806,806,806,806,806,806,806,806,806,806,806,806,806,806,806,806,806,806,809,813,865,898,930,954,978,1014,1025,1032,1034,1036,1043,1046,1051,1058,1063,1077,1080,1083,1084,1084,1084,1085,1085,1085,1087,1089,1090,1090,1091,1091,1091,1091,1091,1091,1091,1091,1091,1091,1091,1091,1091,1091,1091,1091,1091,1091,1091,1091,1091,1091,1091,1091,1091,1091,1091,1091,1091,1091,1091,1091,1091,1091,1091,1091,1091,1091,1089,1089,1089,1089,1085,1081],"ymouse":[528,528,528,528,528,528,528,528,528,528,528,528,528,528,528,528,528,528,528,528,528,528,528,528,528,528,528,528,527,487,457,419,388,363,334,328,326,324,323,318,314,307,298,289,257,250,240,231,231,231,216,206,196,185,170,168,168,166,166,166,166,166,166,166,166,166,166,166,166,166,166,166,163,160,157,157,157,157,157,157,157,157,157,157,157,157,157,157,157,157,157,157,157,157,157,154,152,152,152,133,99],"timestamp_mouse":[1,19,43,59,78,99,119,140,159,178,198,219,239,258,278,299,318,339,358,378,398,420,438,459,478,498,519,538,560,579,598,618,638,658,679,699,719,738,759,779,798,818,839,858,879,898,919,938,958,979,999,1019,1039,1058,1080,1099,1120,1139,1160,1179,1199,1219,1238,1258,1280,1300,1319,1338,1358,1378,1399,1418,1439,1460,1479,1498,1518,1538,1558,1580,1600,1620,1640,1658,1678,1699,1718,1738,1758,1780,1800,1819,1839,1859,1878,1898,1919,1939,1959,1980,1998],"xSR":741.5,"ySR":469.95,"xT1":424.9,"yT1":0,"xT2":1058.1,"yT2":0,"toosoon":0,"cond_shown":"equaldotsize","ratio_trial":500,"smaller_num":"2","larger_num":"4","correct_side":2,"subjID":"sarahpeña21","gender":"1","age":"9","school":"4"},{"start_time":1552074911156,"click_time":1552074912359,"finger_time":1552074911820,"fix_duration":293.4207223516323,"trial":40,"RT":664,"MT":539,"sideResp":2,"stimulus":"img/250/randomdotsizeEA/R/13_Ratio_250_L_2_R_8.png","xmouse":[778,778,779,779,781,782,782,782,782,782,782,782,782,782,782,782,782,782,782,782,782,782,782,782,784,785,786,786,789,791,792,796,804,831,845,857,865,869,876,880,883,885,889,900,904,909,914,918,922,922,922,923,923,938,955,974,994,1017,1066,1101,1123],"ymouse":[534,534,533,533,532,531,531,531,531,531,531,531,531,531,531,531,531,531,531,531,531,531,531,531,527,525,522,520,515,511,509,502,486,447,423,399,373,346,301,272,251,232,216,184,169,155,144,136,130,130,130,130,130,126,124,122,118,116,110,103,96],"timestamp_mouse":[14,23,44,64,83,103,125,144,164,183,204,224,245,263,284,303,324,343,365,384,404,424,443,465,483,505,523,543,563,583,605,624,643,664,683,703,723,744,763,783,803,824,844,863,883,904,923,943,964,984,1004,1023,1044,1063,1084,1104,1124,1144,1163,1184,1203],"xSR":741.5,"ySR":469.95,"xT1":424.9,"yT1":0,"xT2":1058.1,"yT2":0,"toosoon":0,"cond_shown":"randomdotsizeEA","ratio_trial":250,"smaller_num":"2","larger_num":"8","correct_side":2,"subjID":"sarahpeña21","gender":"1","age":"9","school":"4"},{"start_time":1552074916507,"click_time":1552074917779,"finger_time":1552074917340,"fix_duration":1205.3443459121013,"trial":41,"RT":833,"MT":439,"sideResp":1,"stimulus":"img/750/randomdotsizeEA/R/4_Ratio_750_L_15_R_20.png","xmouse":[820,820,820,820,820,820,820,820,820,820,820,820,820,820,820,820,820,820,820,820,820,820,820,820,820,820,820,820,820,820,820,820,820,820,820,820,820,820,820,820,820,809,798,784,769,739,723,709,694,674,660,632,614,588,561,526,517,514,513,513,510,491,472,456],"ymouse":[545,545,545,545,545,545,545,545,545,545,545,545,545,545,545,545,545,545,545,545,545,545,545,545,545,545,545,545,545,545,545,545,545,545,545,545,545,545,545,540,506,458,439,419,402,376,368,359,352,340,333,312,297,276,254,215,204,201,200,198,193,154,122,93],"timestamp_mouse":[14,35,54,74,94,114,132,152,173,193,213,233,252,272,292,312,332,354,373,392,412,432,452,474,492,512,534,553,573,593,614,632,652,673,693,713,732,752,773,792,813,833,852,872,892,914,932,954,973,993,1013,1032,1053,1072,1092,1115,1132,1154,1173,1192,1212,1232,1252,1272],"xSR":741.5,"ySR":469.95,"xT1":424.9,"yT1":0,"xT2":1058.1,"yT2":0,"toosoon":0,"cond_shown":"randomdotsizeEA","ratio_trial":750,"smaller_num":"15","larger_num":"20","correct_side":2,"subjID":"sarahpeña21","gender":"1","age":"9","school":"4"},{"start_time":1552074919489,"click_time":1552074920780,"finger_time":1552074920199,"fix_duration":267.72805821219083,"trial":42,"RT":710,"MT":581,"sideResp":2,"stimulus":"img/500/equaldotanddens/R/12_Ratio_500_L_1_R_2.png","xmouse":[787,787,787,787,787,787,787,787,787,787,787,787,787,787,787,787,787,787,787,787,787,787,787,787,787,787,787,787,787,787,787,787,796,811,826,845,870,918,954,972,982,989,1000,1005,1011,1017,1022,1029,1031,1032,1033,1033,1033,1034,1035,1038,1041,1043,1043,1044,1044,1045,1053,1056,1061],"ymouse":[530,530,530,530,530,530,530,530,530,530,530,530,530,530,530,530,530,530,530,530,530,530,530,530,530,530,530,530,530,530,530,529,522,510,492,469,441,385,341,322,310,299,272,258,244,229,218,202,196,195,194,194,193,189,184,179,174,168,167,166,165,154,107,78,42],"timestamp_mouse":[12,37,50,71,92,112,131,151,171,191,212,231,250,272,292,311,331,352,372,391,411,431,452,471,491,512,531,551,571,591,612,631,651,671,690,710,730,751,770,790,811,830,850,870,891,911,930,951,971,990,1011,1031,1051,1070,1092,1111,1131,1150,1171,1191,1210,1230,1250,1270,1290],"xSR":741.5,"ySR":469.95,"xT1":424.9,"yT1":0,"xT2":1058.1,"yT2":0,"toosoon":0,"cond_shown":"equaldotanddens","ratio_trial":500,"smaller_num":"1","larger_num":"2","correct_side":2,"subjID":"sarahpeña21","gender":"1","age":"9","school":"4"},{"start_time":1552074924587,"click_time":1552074925840,"finger_time":1552074925199,"fix_duration":845.0160162427156,"trial":43,"RT":612,"MT":641,"sideResp":2,"stimulus":"img/250/randomdotsizeEA/R/13_Ratio_250_L_2_R_8.png","xmouse":[764,764,764,764,764,765,767,768,768,769,770,770,772,773,774,775,777,778,780,780,781,784,786,790,792,794,797,800,808,813,818,823,830,842,848,854,861,867,878,884,889,892,897,901,905,908,913,920,924,930,937,947,952,960,963,966,968,971,981,987,1007,1056,1115],"ymouse":[549,549,548,548,548,548,547,546,546,545,545,544,544,543,541,540,539,537,536,534,531,526,524,516,513,508,503,498,483,471,461,450,434,411,401,389,377,365,339,326,312,301,287,274,266,257,248,234,226,214,202,183,174,157,152,146,142,137,122,116,103,78,55],"timestamp_mouse":[16,33,53,73,93,112,133,152,172,192,212,233,253,272,293,313,333,353,372,393,413,433,453,473,493,513,532,552,573,593,612,633,654,673,693,712,732,754,772,793,813,833,852,872,893,912,933,954,972,992,1012,1032,1052,1072,1093,1113,1132,1152,1172,1193,1213,1233,1253],"xSR":741.5,"ySR":469.95,"xT1":424.9,"yT1":0,"xT2":1058.1,"yT2":0,"toosoon":0,"cond_shown":"randomdotsizeEA","ratio_trial":250,"smaller_num":"2","larger_num":"8","correct_side":2,"subjID":"sarahpeña21","gender":"1","age":"9","school":"4"},{"start_time":1552074929827,"click_time":1552074931340,"finger_time":1552074930599,"fix_duration":866.9037208002177,"trial":44,"RT":772,"MT":741,"sideResp":2,"stimulus":"img/500/randomdotsizeEA/R/12_Ratio_500_L_1_R_2.png","xmouse":[792,792,792,792,792,792,792,792,792,792,792,792,792,792,792,792,792,792,792,792,792,792,792,792,792,792,792,792,792,792,792,792,792,792,792,792,794,819,844,872,900,979,1021,1042,1054,1060,1065,1067,1069,1074,1078,1087,1089,1092,1095,1096,1096,1098,1098,1100,1102,1105,1107,1109,1110,1113,1113,1113,1114,1115,1115,1119,1122,1124,1124,1124],"ymouse":[549,549,549,549,549,549,549,549,549,549,549,549,549,549,549,549,549,549,549,549,549,549,549,549,549,549,549,549,549,549,549,549,549,549,549,549,542,518,501,480,454,364,313,276,258,247,238,235,231,224,218,205,200,195,189,186,186,183,182,179,178,174,171,167,162,153,145,143,140,137,132,121,112,105,100,94],"timestamp_mouse":[13,40,52,73,93,112,132,154,173,193,212,232,252,273,292,313,333,354,373,392,413,432,453,473,493,513,532,553,574,592,612,633,653,673,694,713,732,753,772,793,813,833,852,873,892,914,939,954,972,993,1013,1033,1052,1073,1092,1112,1132,1152,1172,1193,1213,1233,1252,1273,1292,1312,1332,1352,1372,1392,1413,1433,1452,1472,1494,1513],"xSR":741.5,"ySR":469.95,"xT1":424.9,"yT1":0,"xT2":1058.1,"yT2":0,"toosoon":0,"cond_shown":"randomdotsizeEA","ratio_trial":500,"smaller_num":"1","larger_num":"2","correct_side":2,"subjID":"sarahpeña21","gender":"1","age":"9","school":"4"},{"start_time":1552074934887,"click_time":1552074936320,"finger_time":1552074935579,"fix_duration":526.5456521346902,"trial":45,"RT":692,"MT":741,"sideResp":2,"stimulus":"img/500/randomdotsizeEA/R/12_Ratio_500_L_1_R_2.png","xmouse":[779,779,779,779,779,779,779,779,779,779,779,779,779,779,779,779,779,779,779,779,779,779,779,779,779,779,779,779,779,779,779,779,780,790,838,861,891,911,928,949,966,969,989,1007,1041,1069,1091,1113,1125,1135,1135,1136,1137,1137,1137,1137,1137,1137,1137,1136,1135,1135,1135,1135,1135,1135,1135,1135,1135,1134,1133,1133],"ymouse":[504,504,504,504,504,504,504,504,504,504,504,504,504,504,504,504,504,504,504,504,504,504,504,504,504,504,504,504,504,504,504,504,501,489,439,412,385,366,352,335,320,317,299,282,249,226,210,197,189,181,180,179,177,177,172,169,167,164,158,148,144,141,141,140,140,139,139,137,134,115,102,81],"timestamp_mouse":[14,34,52,73,93,112,133,153,173,192,214,234,253,274,292,312,333,353,372,393,412,433,452,474,493,513,533,552,572,593,613,633,653,672,692,712,732,752,774,792,814,832,853,872,892,913,933,952,973,992,1013,1032,1052,1072,1092,1113,1132,1152,1172,1192,1212,1232,1253,1273,1293,1312,1332,1352,1373,1392,1413,1433],"xSR":741.5,"ySR":469.95,"xT1":424.9,"yT1":0,"xT2":1058.1,"yT2":0,"toosoon":0,"cond_shown":"randomdotsizeEA","ratio_trial":500,"smaller_num":"1","larger_num":"2","correct_side":2,"subjID":"sarahpeña21","gender":"1","age":"9","school":"4"},{"start_time":1552074938103,"click_time":1552074939239,"finger_time":1552074938759,"fix_duration":622.538264388248,"trial":46,"RT":656,"MT":480,"sideResp":2,"stimulus":"img/750/equaldotsize/R/5_Ratio_750_L_15_R_20.png","xmouse":[809,809,809,809,809,809,809,809,809,809,809,809,809,809,809,809,809,809,809,809,809,809,809,809,809,809,809,809,809,809,809,809,809,811,813,819,826,830,843,857,865,876,886,894,908,913,918,923,944,956,967,978,987,1029,1056,1084,1111],"ymouse":[542,542,542,542,542,542,542,542,542,542,542,542,542,542,542,542,542,542,542,542,542,542,542,542,542,542,542,542,542,527,498,472,456,427,407,384,363,348,318,286,265,247,231,217,195,187,181,174,154,144,138,131,125,111,107,103,99],"timestamp_mouse":[22,45,57,77,97,116,136,157,176,197,218,236,257,276,297,317,338,356,377,398,418,437,458,477,496,516,538,558,576,598,617,638,656,677,696,716,736,758,777,797,816,837,856,876,897,917,936,957,977,997,1016,1037,1058,1077,1098,1116,1136],"xSR":741.5,"ySR":469.95,"xT1":424.9,"yT1":0,"xT2":1058.1,"yT2":0,"toosoon":0,"cond_shown":"equaldotsize","ratio_trial":750,"smaller_num":"15","larger_num":"20","correct_side":2,"subjID":"sarahpeña21","gender":"1","age":"9","school":"4"},{"start_time":1552074941531,"click_time":1552074943420,"finger_time":1552074942300,"fix_duration":1189.9253676852543,"trial":47,"RT":769,"MT":1120,"sideResp":1,"stimulus":"img/250/equaldotanddens/L/7_Ratio_250_L_8_R_2.png","xmouse":[778,778,778,778,778,778,778,778,778,778,778,778,778,778,778,778,778,778,778,778,778,778,778,778,778,778,778,778,778,778,778,778,778,778,777,775,773,753,725,666,588,496,322,259,230,217,216,216,216,216,216,216,218,220,221,224,229,234,245,251,262,277,293,339,357,373,377,379,381,381,381,381,381,383,388,396,402,410,412,412,413,413,413,413,413,413,414,415,415,415,415,416,418,422,427],"ymouse":[502,502,502,502,502,502,502,502,502,502,502,502,502,502,502,502,502,502,502,502,502,502,502,502,502,502,502,502,502,502,502,502,502,502,503,502,498,479,464,436,403,366,291,263,249,241,239,238,234,223,209,201,197,192,189,186,181,178,172,167,160,149,139,101,87,73,70,69,67,67,67,67,67,66,63,58,55,49,48,47,47,47,47,47,47,47,47,47,47,47,47,47,48,52,55],"timestamp_mouse":[10,42,50,69,89,108,129,150,169,190,210,229,249,270,290,309,329,350,370,389,409,428,450,469,490,509,529,549,570,589,610,630,649,668,690,708,729,750,769,789,810,828,851,868,888,908,929,950,969,990,1010,1029,1048,1068,1089,1109,1129,1150,1168,1188,1208,1230,1249,1269,1290,1308,1328,1349,1369,1390,1409,1430,1449,1468,1488,1509,1529,1550,1568,1589,1609,1629,1648,1668,1689,1710,1730,1751,1768,1788,1808,1828,1849,1868,1888],"xSR":741.5,"ySR":469.95,"xT1":424.9,"yT1":0,"xT2":1058.1,"yT2":0,"toosoon":0,"cond_shown":"equaldotanddens","ratio_trial":250,"smaller_num":"2","larger_num":"8","correct_side":1,"subjID":"sarahpeña21","gender":"1","age":"9","school":"4"},{"start_time":1552074947172,"click_time":1552074949180,"finger_time":1552074948080,"fix_duration":1311.6417025506062,"trial":48,"RT":908,"MT":1100,"sideResp":1,"stimulus":"img/750/equaldotsize/L/14_Ratio_750_L_8_R_6.png","xmouse":[791,791,791,791,791,791,791,791,791,791,791,791,791,791,791,791,791,791,791,791,791,791,791,791,791,791,791,791,791,791,791,791,791,791,791,791,791,791,791,791,791,791,791,791,791,790,780,779,778,777,776,774,770,765,761,754,738,723,703,674,640,495,433,389,381,381,381,381,381,381,381,381,382,384,385,386,388,388,389,389,389,390,391,391,392,394,397,398,399,400,402,405,406,407,407,409,413,416,420,424,427],"ymouse":[513,513,513,513,513,513,513,513,513,513,513,513,513,513,513,513,513,513,513,513,513,513,513,513,513,513,513,513,513,513,513,513,513,513,513,513,513,513,513,513,513,513,512,498,474,458,430,422,418,416,412,400,389,379,373,362,341,329,314,297,276,186,136,102,93,93,91,91,90,90,89,86,85,83,82,80,78,77,77,75,75,75,74,74,74,72,71,71,70,69,69,67,67,67,67,66,66,66,66,66,66],"timestamp_mouse":[13,28,47,68,88,107,127,148,168,188,209,228,249,268,288,307,328,349,368,388,407,428,448,469,489,507,527,549,569,587,608,627,649,668,688,707,727,748,769,789,807,828,848,868,889,908,928,949,968,988,1009,1027,1048,1067,1088,1108,1128,1149,1169,1189,1209,1229,1249,1268,1288,1308,1328,1349,1367,1387,1409,1428,1447,1469,1488,1509,1529,1547,1568,1588,1608,1627,1647,1667,1689,1708,1728,1748,1767,1788,1807,1829,1849,1868,1888,1907,1927,1947,1968,1989,2008],"xSR":741.5,"ySR":469.95,"xT1":424.9,"yT1":0,"xT2":1058.1,"yT2":0,"toosoon":0,"cond_shown":"equaldotsize","ratio_trial":750,"smaller_num":"6","larger_num":"8","correct_side":1,"subjID":"sarahpeña21","gender":"1","age":"9","school":"4"},{"