[{"start_time":1552073966805,"click_time":1552073969829,"finger_time":1552073969087,"fix_duration":673.2712646059192,"trial":0,"RT":2282,"MT":742,"sideResp":2,"stimulus":[],"xmouse":[815,815,815,815,815,815,815,815,815,815,815,815,815,815,815,815,815,815,815,815,815,815,815,815,815,815,815,815,815,815,815,815,815,815,815,815,815,815,815,815,815,815,815,815,815,815,815,815,815,815,815,815,815,815,815,815,815,815,815,815,815,815,815,815,815,815,815,815,815,815,815,815,815,815,815,815,815,815,814,814,814,814,814,814,814,814,814,814,814,814,814,814,814,814,814,814,814,814,814,814,814,814,814,814,814,814,814,814,814,814,814,814,814,832,880,1142,1266,1357,1438,1517,1580,1580,1580,1580,1580,1580,1580,1580,1580,1580,1580,1580,1580,1580,1580,1580,1580,1580,1580,1580,1580,1580,1580,1580,1580,1580,1580,1580,1580,1039,1052,1061],"ymouse":[527,527,527,527,527,527,527,527,527,527,527,527,527,527,527,527,527,527,527,527,527,527,527,527,527,527,527,527,527,527,527,527,527,527,527,527,527,527,527,527,527,527,527,527,527,527,527,527,527,527,527,527,527,527,527,527,527,527,527,527,527,527,527,527,527,527,527,527,527,527,527,527,527,527,527,527,527,527,527,527,527,527,527,527,527,527,527,527,527,527,527,527,527,527,527,527,527,527,527,527,527,527,527,527,527,527,527,527,527,527,527,527,527,516,488,340,261,186,117,59,2,2,2,2,2,2,2,2,2,2,2,2,2,2,2,2,2,2,2,2,2,2,2,2,2,2,2,2,2,19,60,85],"timestamp_mouse":[10,41,41,62,81,102,122,142,162,182,201,221,243,263,282,301,321,343,363,382,401,421,441,463,483,501,522,541,562,583,601,621,642,663,681,701,722,743,761,782,801,821,843,863,882,901,921,942,961,982,1001,1022,1041,1061,1083,1102,1121,1143,1162,1181,1202,1221,1242,1261,1282,1301,1322,1342,1362,1382,1401,1422,1442,1461,1483,1502,1522,1543,1562,1581,1602,1623,1641,1662,1682,1701,1722,1742,1762,1781,1801,1822,1842,1862,1882,1902,1921,1942,1961,1981,2002,2021,2043,2062,2081,2102,2121,2142,2163,2181,2202,2222,2241,2261,2282,2303,2321,2342,2361,2381,2402,2422,2442,2462,2482,2503,2522,2542,2563,2583,2602,2622,2641,2662,2682,2702,2722,2743,2763,2782,2801,2822,2843,2863,2882,2902,2923,2942,2962,2983,3004,3023],"xSR":741.5,"ySR":469.95,"xT1":424.9,"yT1":0,"xT2":1058.1,"yT2":0,"toosoon":0,"cond_shown":"Congruent","ratio_trial":100,"L_num":2,"L_den":5,"R_num":11,"R_den":22,"correct_side":2,"subjID":"sarahpeñavargas21","gender":"1","age":"9","school":"4","test":{"fix_dur":[250,1500],"timestim":1000,"targets_dim":[100,100],"targets_relative_coord":[0.3,0.7],"size_stim":[880,420],"start_dim":[100,100],"size_start":[300,300],"size_fix":60,"samplingrate":20,"img_types":["Congruent","Incongruent"],"ratios":[100,200,300],"rep_conds":19,"nTrials":120,"trials_to_rest":500,"Trials_order":[90,11,5,107,55,69,13,32,22,8,2,10,111,46,38,29,78,110,88,30,37,64,50,27,112,33,74,117,65,6,76,70,34,56,44,49,12,14,115,100,116,91,99,104,23,85,19,0,35,36,60,21,68,31,105,39,109,66,96,114,73,71,48,7,79,52,102,9,47,83,42,53,1,98,97,80,20,89,103,58,28,108,63,59,92,54,41,61,87,15,95,67,77,4,26,51,119,16,101,106,86,81,62,25,43,57,18,24,17,40,113,45,75,84,93,3,94,72,82,118],"cond_shown":["Congruent","Incongruent","Incongruent","Incongruent","Incongruent","Incongruent","Incongruent","Congruent","Congruent","Congruent","Congruent","Congruent","Incongruent","Congruent","Congruent","Incongruent","Congruent","Congruent","Congruent","Congruent","Incongruent","Congruent","Congruent","Incongruent","Congruent","Incongruent","Congruent","Incongruent","Incongruent","Congruent","Congruent","Congruent","Congruent","Congruent","Congruent","Incongruent","Congruent","Congruent","Incongruent","Congruent","Congruent","Incongruent","Incongruent","Congruent","Incongruent","Incongruent","Incongruent","Congruent","Incongruent","Congruent","Congruent","Incongruent","Congruent","Incongruent","Incongruent","Incongruent","Incongruent","Congruent","Congruent","Congruent","Incongruent","Incongruent","Congruent","Incongruent","Incongruent","Congruent","Congruent","Incongruent","Incongruent","Incongruent","Congruent","Incongruent","Incongruent","Congruent","Incongruent","Congruent","Congruent","Incongruent","Incongruent","Congruent","Congruent","Congruent","Incongruent","Incongruent","Congruent","Congruent","Incongruent","Incongruent","Incongruent","Incongruent","Incongruent","Incongruent","Incongruent","Congruent","Congruent","Incongruent","Incongruent","Congruent","Incongruent","Congruent","Congruent","Incongruent","Congruent","Incongruent","Incongruent","Incongruent","Congruent","Congruent","Incongruent","Congruent","Incongruent","Incongruent","Incongruent","Congruent","Incongruent","Incongruent","Congruent","Congruent","Congruent","Congruent"],"ratio_trial":[100,300,300,300,100,200,100,200,300,200,200,300,200,300,200,300,100,200,300,100,100,300,200,200,300,200,200,200,300,100,300,300,300,200,200,100,100,200,100,300,200,100,200,200,300,100,100,100,300,100,100,200,200,100,200,200,100,100,100,100,100,300,100,100,100,300,100,200,300,300,100,300,100,200,100,200,200,300,100,300,300,100,200,300,200,100,300,100,200,200,300,100,300,300,200,200,300,300,300,300,200,200,200,100,100,200,100,100,300,300,300,200,200,100,200,200,300,100,300,300],"left_num":[2,13,4,4,8,1,3,12,4,20,4,5,4,24,8,4,3,3,5,8,9,18,21,14,3,1,5,4,3,7,5,2,11,6,3,8,3,8,12,20,1,9,14,16,4,10,13,6,4,3,1,9,21,11,14,7,3,7,6,2,9,8,4,2,13,4,3,4,13,4,1,13,17,4,6,3,6,13,3,12,24,11,4,2,16,2,7,13,4,3,4,12,8,11,14,1,13,1,4,20,5,6,8,11,13,4,6,6,4,4,13,7,4,4,4,1,4,11,2,1],"right_num":[11,12,8,2,1,3,4,6,1,9,3,6,1,8,3,2,4,9,6,2,14,9,2,6,2,2,14,14,4,9,6,12,4,11,11,1,2,3,9,13,21,13,6,12,2,9,6,15,8,2,18,8,2,9,6,8,4,9,5,6,6,9,15,8,6,13,4,1,12,2,3,12,10,3,3,14,3,12,7,2,8,4,14,6,9,6,8,6,14,1,2,9,14,1,6,2,12,7,2,9,14,3,2,9,12,6,15,15,2,2,12,4,6,6,14,3,2,6,10,11],"left_den":[5,26,5,20,20,2,6,20,10,25,8,25,30,30,15,20,20,12,25,16,15,20,30,30,6,3,10,6,6,14,25,10,22,20,10,20,6,15,24,25,2,15,30,20,20,25,26,12,5,6,2,15,30,22,30,10,6,14,20,5,18,10,10,4,26,20,20,30,26,20,2,26,30,10,12,10,15,26,9,24,30,22,6,4,30,5,10,26,6,10,20,24,10,22,28,3,26,20,20,25,10,20,15,22,26,5,12,12,20,5,26,15,5,8,6,2,5,22,20,5],"right_den":[22,15,16,4,2,10,10,15,10,15,10,12,3,16,9,4,16,20,12,5,28,15,4,9,10,15,20,30,20,15,12,24,20,22,22,2,5,9,15,26,30,26,9,20,4,18,10,25,16,5,30,10,4,15,9,16,10,15,25,12,10,18,30,20,10,26,16,3,15,4,5,15,15,15,5,28,15,15,30,10,16,10,30,30,27,12,20,10,30,2,4,15,28,5,20,15,15,20,4,18,20,6,6,15,20,10,25,25,4,4,15,6,10,10,30,10,4,15,25,22],"correct_side":[2,2,1,2,2,1,1,1,1,1,1,2,2,1,1,2,2,2,2,1,1,1,1,2,1,1,2,1,1,2,2,2,1,2,2,2,1,1,2,1,2,1,2,1,2,2,2,2,1,1,2,2,1,2,2,1,1,2,1,2,2,1,2,1,2,2,2,2,2,2,2,2,2,1,2,2,1,2,1,1,1,1,1,1,1,2,1,2,1,2,2,2,1,1,1,1,2,2,2,1,2,2,1,2,2,1,2,2,2,1,2,2,1,2,1,1,1,1,2,2],"img_shown":["img2/100/Congruent/R/C_Dist_100_LN_2_LD_5_RN_11_RD_22_1.png","img2/300/Incongruent/R/I_Dist_300_LN_13_LD_26_RN_12_RD_15_1.png","img2/300/Incongruent/L/I_Dist_300_LN_4_LD_5_RN_8_RD_16_0.png","img2/300/Incongruent/R/I_Dist_300_LN_4_LD_20_RN_2_RD_4_1.png","img2/100/Incongruent/R/I_Dist_100_LN_8_LD_20_RN_1_RD_2_1.png","img2/200/Incongruent/L/I_Dist_200_LN_1_LD_2_RN_3_RD_10_0.png","img2/100/Incongruent/L/I_Dist_100_LN_3_LD_6_RN_4_RD_10_0.png","img2/200/Congruent/L/C_Dist_200_LN_12_LD_20_RN_6_RD_15_0.png","img2/300/Congruent/L/C_Dist_300_LN_4_LD_10_RN_1_RD_10_0.png","img2/200/Congruent/L/C_Dist_200_LN_20_LD_25_RN_9_RD_15_0.png","img2/200/Congruent/L/C_Dist_200_LN_4_LD_8_RN_3_RD_10_0.png","img2/300/Congruent/R/C_Dist_300_LN_5_LD_25_RN_6_RD_12_1.png","img2/200/Incongruent/R/I_Dist_200_LN_4_LD_30_RN_1_RD_3_1.png","img2/300/Congruent/L/C_Dist_300_LN_24_LD_30_RN_8_RD_16_0.png","img2/200/Congruent/L/C_Dist_200_LN_8_LD_15_RN_3_RD_9_0.png","img2/300/Incongruent/R/I_Dist_300_LN_4_LD_20_RN_2_RD_4_1.png","img2/100/Congruent/R/C_Dist_100_LN_3_LD_20_RN_4_RD_16_1.png","img2/200/Congruent/R/C_Dist_200_LN_3_LD_12_RN_9_RD_20_1.png","img2/300/Congruent/R/C_Dist_300_LN_5_LD_25_RN_6_RD_12_1.png","img2/100/Congruent/L/C_Dist_100_LN_8_LD_16_RN_2_RD_5_0.png","img2/100/Incongruent/L/I_Dist_100_LN_9_LD_15_RN_14_RD_28_0.png","img2/300/Congruent/L/C_Dist_300_LN_18_LD_20_RN_9_RD_15_0.png","img2/200/Congruent/L/C_Dist_200_LN_21_LD_30_RN_2_RD_4_0.png","img2/200/Incongruent/R/I_Dist_200_LN_14_LD_30_RN_6_RD_9_1.png","img2/300/Congruent/L/C_Dist_300_LN_3_LD_6_RN_2_RD_10_0.png","img2/200/Incongruent/L/I_Dist_200_LN_1_LD_3_RN_2_RD_15_0.png","img2/200/Congruent/R/C_Dist_200_LN_5_LD_10_RN_14_RD_20_1.png","img2/200/Incongruent/L/I_Dist_200_LN_4_LD_6_RN_14_RD_30_0.png","img2/300/Incongruent/L/I_Dist_300_LN_3_LD_6_RN_4_RD_20_0.png","img2/100/Congruent/R/C_Dist_100_LN_7_LD_14_RN_9_RD_15_1.png","img2/300/Congruent/R/C_Dist_300_LN_5_LD_25_RN_6_RD_12_1.png","img2/300/Congruent/R/C_Dist_300_LN_2_LD_10_RN_12_RD_24_1.png","img2/300/Congruent/L/C_Dist_300_LN_11_LD_22_RN_4_RD_20_0.png","img2/200/Congruent/R/C_Dist_200_LN_6_LD_20_RN_11_RD_22_1.png","img2/200/Congruent/R/C_Dist_200_LN_3_LD_10_RN_11_RD_22_1.png","img2/100/Incongruent/R/I_Dist_100_LN_8_LD_20_RN_1_RD_2_1.png","img2/100/Congruent/L/C_Dist_100_LN_3_LD_6_RN_2_RD_5_0.png","img2/200/Congruent/L/C_Dist_200_LN_8_LD_15_RN_3_RD_9_0.png","img2/100/Incongruent/R/I_Dist_100_LN_12_LD_24_RN_9_RD_15_1.png","img2/300/Congruent/L/C_Dist_300_LN_20_LD_25_RN_13_RD_26_0.png","img2/200/Congruent/R/C_Dist_200_LN_1_LD_2_RN_21_RD_30_1.png","img2/100/Incongruent/L/I_Dist_100_LN_9_LD_15_RN_13_RD_26_0.png","img2/200/Incongruent/R/I_Dist_200_LN_14_LD_30_RN_6_RD_9_1.png","img2/200/Congruent/L/C_Dist_200_LN_16_LD_20_RN_12_RD_20_0.png","img2/300/Incongruent/R/I_Dist_300_LN_4_LD_20_RN_2_RD_4_1.png","img2/100/Incongruent/R/I_Dist_100_LN_10_LD_25_RN_9_RD_18_1.png","img2/100/Incongruent/R/I_Dist_100_LN_13_LD_26_RN_6_RD_10_1.png","img2/100/Congruent/R/C_Dist_100_LN_6_LD_12_RN_15_RD_25_1.png","img2/300/Incongruent/L/I_Dist_300_LN_4_LD_5_RN_8_RD_16_0.png","img2/100/Congruent/L/C_Dist_100_LN_3_LD_6_RN_2_RD_5_0.png","img2/100/Congruent/R/C_Dist_100_LN_1_LD_2_RN_18_RD_30_1.png","img2/200/Incongruent/R/I_Dist_200_LN_9_LD_15_RN_8_RD_10_1.png","img2/200/Congruent/L/C_Dist_200_LN_21_LD_30_RN_2_RD_4_0.png","img2/100/Incongruent/R/I_Dist_100_LN_11_LD_22_RN_9_RD_15_1.png","img2/200/Incongruent/R/I_Dist_200_LN_14_LD_30_RN_6_RD_9_1.png","img2/200/Incongruent/L/I_Dist_200_LN_7_LD_10_RN_8_RD_16_0.png","img2/100/Incongruent/L/I_Dist_100_LN_3_LD_6_RN_4_RD_10_0.png","img2/100/Congruent/R/C_Dist_100_LN_7_LD_14_RN_9_RD_15_1.png","img2/100/Congruent/L/C_Dist_100_LN_6_LD_20_RN_5_RD_25_0.png","img2/100/Congruent/R/C_Dist_100_LN_2_LD_5_RN_6_RD_12_1.png","img2/100/Incongruent/R/I_Dist_100_LN_9_LD_18_RN_6_RD_10_1.png","img2/300/Incongruent/L/I_Dist_300_LN_8_LD_10_RN_9_RD_18_0.png","img2/100/Congruent/R/C_Dist_100_LN_4_LD_10_RN_15_RD_30_1.png","img2/100/Incongruent/L/I_Dist_100_LN_2_LD_4_RN_8_RD_20_0.png","img2/100/Incongruent/R/I_Dist_100_LN_13_LD_26_RN_6_RD_10_1.png","img2/300/Congruent/R/C_Dist_300_LN_4_LD_20_RN_13_RD_26_1.png","img2/100/Congruent/R/C_Dist_100_LN_3_LD_20_RN_4_RD_16_1.png","img2/200/Incongruent/R/I_Dist_200_LN_4_LD_30_RN_1_RD_3_1.png","img2/300/Incongruent/R/I_Dist_300_LN_13_LD_26_RN_12_RD_15_1.png","img2/300/Incongruent/R/I_Dist_300_LN_4_LD_20_RN_2_RD_4_1.png","img2/100/Congruent/R/C_Dist_100_LN_1_LD_2_RN_3_RD_5_1.png","img2/300/Incongruent/R/I_Dist_300_LN_13_LD_26_RN_12_RD_15_1.png","img2/100/Incongruent/R/I_Dist_100_LN_17_LD_30_RN_10_RD_15_1.png","img2/200/Congruent/L/C_Dist_200_LN_4_LD_10_RN_3_RD_15_0.png","img2/100/Incongruent/R/I_Dist_100_LN_6_LD_12_RN_3_RD_5_1.png","img2/200/Congruent/R/C_Dist_200_LN_3_LD_10_RN_14_RD_28_1.png","img2/200/Congruent/L/C_Dist_200_LN_6_LD_15_RN_3_RD_15_0.png","img2/300/Incongruent/R/I_Dist_300_LN_13_LD_26_RN_12_RD_15_1.png","img2/100/Incongruent/L/I_Dist_100_LN_3_LD_9_RN_7_RD_30_0.png","img2/300/Congruent/L/C_Dist_300_LN_12_LD_24_RN_2_RD_10_0.png","img2/300/Congruent/L/C_Dist_300_LN_24_LD_30_RN_8_RD_16_0.png","img2/100/Congruent/L/C_Dist_100_LN_11_LD_22_RN_4_RD_10_0.png","img2/200/Incongruent/L/I_Dist_200_LN_4_LD_6_RN_14_RD_30_0.png","img2/300/Incongruent/L/I_Dist_300_LN_2_LD_4_RN_6_RD_30_0.png","img2/200/Congruent/L/C_Dist_200_LN_16_LD_30_RN_9_RD_27_0.png","img2/100/Congruent/R/C_Dist_100_LN_2_LD_5_RN_6_RD_12_1.png","img2/300/Incongruent/L/I_Dist_300_LN_7_LD_10_RN_8_RD_20_0.png","img2/100/Incongruent/R/I_Dist_100_LN_13_LD_26_RN_6_RD_10_1.png","img2/200/Incongruent/L/I_Dist_200_LN_4_LD_6_RN_14_RD_30_0.png","img2/200/Incongruent/R/I_Dist_200_LN_3_LD_10_RN_1_RD_2_1.png","img2/300/Incongruent/R/I_Dist_300_LN_4_LD_20_RN_2_RD_4_1.png","img2/100/Incongruent/R/I_Dist_100_LN_12_LD_24_RN_9_RD_15_1.png","img2/300/Incongruent/L/I_Dist_300_LN_8_LD_10_RN_14_RD_28_0.png","img2/300/Congruent/L/C_Dist_300_LN_11_LD_22_RN_1_RD_5_0.png","img2/200/Congruent/L/C_Dist_200_LN_14_LD_28_RN_6_RD_20_0.png","img2/200/Incongruent/L/I_Dist_200_LN_1_LD_3_RN_2_RD_15_0.png","img2/300/Incongruent/R/I_Dist_300_LN_13_LD_26_RN_12_RD_15_1.png","img2/300/Congruent/R/C_Dist_300_LN_1_LD_20_RN_7_RD_20_1.png","img2/300/Incongruent/R/I_Dist_300_LN_4_LD_20_RN_2_RD_4_1.png","img2/300/Congruent/L/C_Dist_300_LN_20_LD_25_RN_9_RD_18_0.png","img2/200/Congruent/R/C_Dist_200_LN_5_LD_10_RN_14_RD_20_1.png","img2/200/Incongruent/R/I_Dist_200_LN_6_LD_20_RN_3_RD_6_1.png","img2/200/Congruent/L/C_Dist_200_LN_8_LD_15_RN_2_RD_6_0.png","img2/100/Incongruent/R/I_Dist_100_LN_11_LD_22_RN_9_RD_15_1.png","img2/100/Incongruent/R/I_Dist_100_LN_13_LD_26_RN_12_RD_20_1.png","img2/200/Incongruent/L/I_Dist_200_LN_4_LD_5_RN_6_RD_10_0.png","img2/100/Congruent/R/C_Dist_100_LN_6_LD_12_RN_15_RD_25_1.png","img2/100/Congruent/R/C_Dist_100_LN_6_LD_12_RN_15_RD_25_1.png","img2/300/Incongruent/R/I_Dist_300_LN_4_LD_20_RN_2_RD_4_1.png","img2/300/Congruent/L/C_Dist_300_LN_4_LD_5_RN_2_RD_4_0.png","img2/300/Incongruent/R/I_Dist_300_LN_13_LD_26_RN_12_RD_15_1.png","img2/200/Incongruent/R/I_Dist_200_LN_7_LD_15_RN_4_RD_6_1.png","img2/200/Incongruent/L/I_Dist_200_LN_4_LD_5_RN_6_RD_10_0.png","img2/100/Congruent/R/C_Dist_100_LN_4_LD_8_RN_6_RD_10_1.png","img2/200/Incongruent/L/I_Dist_200_LN_4_LD_6_RN_14_RD_30_0.png","img2/200/Incongruent/L/I_Dist_200_LN_1_LD_2_RN_3_RD_10_0.png","img2/300/Congruent/L/C_Dist_300_LN_4_LD_5_RN_2_RD_4_0.png","img2/100/Congruent/L/C_Dist_100_LN_11_LD_22_RN_6_RD_15_0.png","img2/300/Congruent/R/C_Dist_300_LN_2_LD_20_RN_10_RD_25_1.png","img2/300/Congruent/R/C_Dist_300_LN_1_LD_5_RN_11_RD_22_1.png"],"dist100_C":[["C_Dist_100_LN_10_LD_25_RN_3_RD_10_0.png","C_Dist_100_LN_11_LD_22_RN_4_RD_10_0.png","C_Dist_100_LN_11_LD_22_RN_6_RD_15_0.png","C_Dist_100_LN_15_LD_25_RN_13_RD_26_0.png","C_Dist_100_LN_3_LD_6_RN_2_RD_5_0.png","C_Dist_100_LN_6_LD_20_RN_5_RD_25_0.png","C_Dist_100_LN_8_LD_16_RN_2_RD_5_0.png","C_Dist_100_LN_9_LD_15_RN_8_RD_16_0.png"],["C_Dist_100_LN_1_LD_2_RN_18_RD_30_1.png","C_Dist_100_LN_1_LD_2_RN_3_RD_5_1.png","C_Dist_100_LN_12_LD_30_RN_13_RD_26_1.png","C_Dist_100_LN_2_LD_5_RN_11_RD_22_1.png","C_Dist_100_LN_2_LD_5_RN_6_RD_12_1.png","C_Dist_100_LN_3_LD_20_RN_4_RD_16_1.png","C_Dist_100_LN_4_LD_10_RN_15_RD_30_1.png","C_Dist_100_LN_4_LD_8_RN_6_RD_10_1.png","C_Dist_100_LN_6_LD_12_RN_15_RD_25_1.png","C_Dist_100_LN_7_LD_14_RN_15_RD_25_1.png","C_Dist_100_LN_7_LD_14_RN_9_RD_15_1.png"]],"dist100_I":[["I_Dist_100_LN_1_LD_2_RN_8_RD_20_0.png","I_Dist_100_LN_2_LD_4_RN_6_RD_15_0.png","I_Dist_100_LN_2_LD_4_RN_8_RD_20_0.png","I_Dist_100_LN_3_LD_5_RN_11_RD_22_0.png","I_Dist_100_LN_3_LD_5_RN_8_RD_16_0.png","I_Dist_100_LN_3_LD_6_RN_4_RD_10_0.png","I_Dist_100_LN_3_LD_9_RN_7_RD_30_0.png","I_Dist_100_LN_4_LD_8_RN_8_RD_20_0.png","I_Dist_100_LN_6_LD_10_RN_11_RD_22_0.png","I_Dist_100_LN_6_LD_10_RN_13_RD_26_0.png","I_Dist_100_LN_6_LD_10_RN_7_RD_14_0.png","I_Dist_100_LN_9_LD_10_RN_20_RD_25_0.png","I_Dist_100_LN_9_LD_15_RN_13_RD_26_0.png","I_Dist_100_LN_9_LD_15_RN_14_RD_28_0.png"],["I_Dist_100_LN_10_LD_25_RN_8_RD_16_1.png","I_Dist_100_LN_10_LD_25_RN_9_RD_18_1.png","I_Dist_100_LN_11_LD_22_RN_9_RD_15_1.png","I_Dist_100_LN_12_LD_24_RN_9_RD_15_1.png","I_Dist_100_LN_12_LD_30_RN_2_RD_4_1.png","I_Dist_100_LN_13_LD_26_RN_12_RD_20_1.png","I_Dist_100_LN_13_LD_26_RN_6_RD_10_1.png","I_Dist_100_LN_17_LD_30_RN_10_RD_15_1.png","I_Dist_100_LN_6_LD_12_RN_3_RD_5_1.png","I_Dist_100_LN_8_LD_16_RN_6_RD_10_1.png","I_Dist_100_LN_8_LD_20_RN_1_RD_2_1.png","I_Dist_100_LN_9_LD_18_RN_6_RD_10_1.png"]],"dist100_S":[["E_Dist_100_LN_2_LD_12_RN_2_RD_30_0.png","E_Dist_100_LN_6_LD_10_RN_6_RD_12_0.png"],["E_Dist_100_LN_6_LD_12_RN_6_RD_10_1.png"]],"dist200_C":[["C_Dist_200_LN_11_LD_22_RN_3_RD_10_0.png","C_Dist_200_LN_12_LD_15_RN_6_RD_10_0.png","C_Dist_200_LN_12_LD_20_RN_6_RD_15_0.png","C_Dist_200_LN_14_LD_28_RN_6_RD_20_0.png","C_Dist_200_LN_15_LD_25_RN_4_RD_10_0.png","C_Dist_200_LN_16_LD_20_RN_12_RD_20_0.png","C_Dist_200_LN_16_LD_30_RN_9_RD_27_0.png","C_Dist_200_LN_20_LD_25_RN_9_RD_15_0.png","C_Dist_200_LN_21_LD_30_RN_2_RD_4_0.png","C_Dist_200_LN_4_LD_10_RN_3_RD_15_0.png","C_Dist_200_LN_4_LD_8_RN_3_RD_10_0.png","C_Dist_200_LN_6_LD_15_RN_3_RD_15_0.png","C_Dist_200_LN_7_LD_21_RN_2_RD_15_0.png","C_Dist_200_LN_8_LD_15_RN_2_RD_6_0.png","C_Dist_200_LN_8_LD_15_RN_3_RD_9_0.png","C_Dist_200_LN_8_LD_15_RN_7_RD_21_0.png","C_Dist_200_LN_9_LD_20_RN_4_RD_16_0.png"],["C_Dist_200_LN_1_LD_2_RN_21_RD_30_1.png","C_Dist_200_LN_13_LD_26_RN_14_RD_20_1.png","C_Dist_200_LN_3_LD_10_RN_11_RD_22_1.png","C_Dist_200_LN_3_LD_10_RN_14_RD_28_1.png","C_Dist_200_LN_3_LD_10_RN_7_RD_14_1.png","C_Dist_200_LN_3_LD_12_RN_9_RD_20_1.png","C_Dist_200_LN_3_LD_6_RN_14_RD_20_1.png","C_Dist_200_LN_5_LD_10_RN_14_RD_20_1.png","C_Dist_200_LN_6_LD_12_RN_7_RD_10_1.png","C_Dist_200_LN_6_LD_20_RN_11_RD_22_1.png","C_Dist_200_LN_7_LD_15_RN_18_RD_27_1.png","C_Dist_200_LN_9_LD_30_RN_13_RD_26_1.png"]],"dist200_I":[["I_Dist_200_LN_1_LD_2_RN_3_RD_10_0.png","I_Dist_200_LN_1_LD_3_RN_2_RD_15_0.png","I_Dist_200_LN_3_LD_4_RN_11_RD_20_0.png","I_Dist_200_LN_4_LD_5_RN_6_RD_10_0.png","I_Dist_200_LN_4_LD_6_RN_14_RD_30_0.png","I_Dist_200_LN_7_LD_10_RN_12_RD_24_0.png","I_Dist_200_LN_7_LD_10_RN_14_RD_28_0.png","I_Dist_200_LN_7_LD_10_RN_8_RD_16_0.png"],["I_Dist_200_LN_11_LD_20_RN_3_RD_4_1.png","I_Dist_200_LN_14_LD_30_RN_12_RD_18_1.png","I_Dist_200_LN_14_LD_30_RN_6_RD_9_1.png","I_Dist_200_LN_3_LD_10_RN_1_RD_2_1.png","I_Dist_200_LN_4_LD_30_RN_1_RD_3_1.png","I_Dist_200_LN_6_LD_20_RN_3_RD_6_1.png","I_Dist_200_LN_7_LD_15_RN_4_RD_6_1.png","I_Dist_200_LN_7_LD_15_RN_6_RD_9_1.png","I_Dist_200_LN_9_LD_15_RN_8_RD_10_1.png"]],"dist200_S":[["E_Dist_200_LN_3_LD_6_RN_3_RD_10_0.png"],["E_Dist_200_LN_3_LD_10_RN_3_RD_6_1.png"]],"dist300_C":[["C_Dist_300_LN_11_LD_22_RN_1_RD_5_0.png","C_Dist_300_LN_11_LD_22_RN_2_RD_10_0.png","C_Dist_300_LN_11_LD_22_RN_4_RD_20_0.png","C_Dist_300_LN_12_LD_24_RN_2_RD_10_0.png","C_Dist_300_LN_18_LD_20_RN_9_RD_15_0.png","C_Dist_300_LN_20_LD_25_RN_13_RD_26_0.png","C_Dist_300_LN_20_LD_25_RN_14_RD_28_0.png","C_Dist_300_LN_20_LD_25_RN_5_RD_10_0.png","C_Dist_300_LN_20_LD_25_RN_8_RD_16_0.png","C_Dist_300_LN_20_LD_25_RN_9_RD_18_0.png","C_Dist_300_LN_24_LD_30_RN_2_RD_4_0.png","C_Dist_300_LN_24_LD_30_RN_8_RD_16_0.png","C_Dist_300_LN_3_LD_6_RN_2_RD_10_0.png","C_Dist_300_LN_4_LD_10_RN_1_RD_10_0.png","C_Dist_300_LN_4_LD_5_RN_2_RD_4_0.png","C_Dist_300_LN_8_LD_16_RN_1_RD_5_0.png","C_Dist_300_LN_9_LD_10_RN_3_RD_5_0.png"],["C_Dist_300_LN_1_LD_20_RN_7_RD_20_1.png","C_Dist_300_LN_1_LD_3_RN_19_RD_30_1.png","C_Dist_300_LN_1_LD_30_RN_8_RD_24_1.png","C_Dist_300_LN_1_LD_5_RN_11_RD_22_1.png","C_Dist_300_LN_1_LD_5_RN_3_RD_6_1.png","C_Dist_300_LN_1_LD_5_RN_6_RD_12_1.png","C_Dist_300_LN_2_LD_10_RN_12_RD_24_1.png","C_Dist_300_LN_2_LD_20_RN_10_RD_25_1.png","C_Dist_300_LN_3_LD_12_RN_11_RD_20_1.png","C_Dist_300_LN_3_LD_6_RN_4_RD_5_1.png","C_Dist_300_LN_4_LD_20_RN_13_RD_26_1.png","C_Dist_300_LN_5_LD_25_RN_6_RD_12_1.png","C_Dist_300_LN_5_LD_25_RN_7_RD_14_1.png","C_Dist_300_LN_7_LD_14_RN_20_RD_25_1.png","C_Dist_300_LN_8_LD_15_RN_10_RD_12_1.png"]],"dist300_I":[["I_Dist_300_LN_1_LD_2_RN_2_RD_10_0.png","I_Dist_300_LN_1_LD_2_RN_3_RD_15_0.png","I_Dist_300_LN_2_LD_4_RN_6_RD_30_0.png","I_Dist_300_LN_3_LD_6_RN_4_RD_20_0.png","I_Dist_300_LN_4_LD_5_RN_6_RD_12_0.png","I_Dist_300_LN_4_LD_5_RN_8_RD_16_0.png","I_Dist_300_LN_7_LD_10_RN_8_RD_20_0.png","I_Dist_300_LN_8_LD_10_RN_14_RD_28_0.png","I_Dist_300_LN_8_LD_10_RN_9_RD_18_0.png"],["I_Dist_300_LN_13_LD_26_RN_12_RD_15_1.png","I_Dist_300_LN_4_LD_20_RN_2_RD_4_1.png"]],"dist300_S":[["E_Dist_300_LN_9_LD_12_RN_9_RD_20_0.png"],["E_Dist_300_LN_18_LD_30_RN_18_RD_20_1.png","E_Dist_300_LN_3_LD_10_RN_3_RD_5_1.png","E_Dist_300_LN_9_LD_20_RN_9_RD_12_1.png"]],"dist500_C":[["C_Dist_500_LN_10_LD_13_RN_7_RD_26_0.png","C_Dist_500_LN_10_LD_15_RN_4_RD_24_0.png","C_Dist_500_LN_12_LD_16_RN_3_RD_12_0.png","C_Dist_500_LN_12_LD_18_RN_4_RD_24_0.png","C_Dist_500_LN_15_LD_18_RN_5_RD_15_0.png","C_Dist_500_LN_15_LD_20_RN_1_RD_4_0.png","C_Dist_500_LN_18_LD_27_RN_1_RD_6_0.png","C_Dist_500_LN_20_LD_24_RN_1_RD_3_0.png","C_Dist_500_LN_20_LD_24_RN_3_RD_9_0.png","C_Dist_500_LN_20_LD_24_RN_7_RD_21_0.png","C_Dist_500_LN_20_LD_28_RN_3_RD_14_0.png","C_Dist_500_LN_21_LD_28_RN_6_RD_24_0.png","C_Dist_500_LN_22_LD_28_RN_2_RD_7_0.png","C_Dist_500_LN_25_LD_30_RN_9_RD_27_0.png","C_Dist_500_LN_4_LD_6_RN_1_RD_6_0.png","C_Dist_500_LN_5_LD_6_RN_2_RD_6_0.png","C_Dist_500_LN_6_LD_9_RN_1_RD_6_0.png","C_Dist_500_LN_7_LD_10_RN_1_RD_5_0.png","C_Dist_500_LN_8_LD_12_RN_1_RD_6_0.png","C_Dist_500_LN_8_LD_12_RN_4_RD_24_0.png"],["C_Dist_500_LN_1_LD_4_RN_12_RD_16_1.png","C_Dist_500_LN_1_LD_4_RN_9_RD_12_1.png","C_Dist_500_LN_1_LD_9_RN_11_RD_18_1.png","C_Dist_500_LN_10_LD_24_RN_22_RD_24_1.png","C_Dist_500_LN_2_LD_12_RN_10_RD_15_1.png","C_Dist_500_LN_2_LD_12_RN_12_RD_18_1.png","C_Dist_500_LN_2_LD_12_RN_4_RD_6_1.png","C_Dist_500_LN_2_LD_24_RN_7_RD_12_1.png","C_Dist_500_LN_2_LD_5_RN_18_RD_20_1.png","C_Dist_500_LN_2_LD_5_RN_9_RD_10_1.png","C_Dist_500_LN_2_LD_8_RN_12_RD_16_1.png","C_Dist_500_LN_2_LD_8_RN_21_RD_28_1.png","C_Dist_500_LN_3_LD_10_RN_4_RD_5_1.png","C_Dist_500_LN_3_LD_12_RN_15_RD_20_1.png","C_Dist_500_LN_3_LD_30_RN_6_RD_10_1.png","C_Dist_500_LN_3_LD_8_RN_14_RD_16_1.png","C_Dist_500_LN_4_LD_16_RN_15_RD_20_1.png","C_Dist_500_LN_4_LD_24_RN_12_RD_18_1.png","C_Dist_500_LN_5_LD_14_RN_6_RD_7_1.png","C_Dist_500_LN_7_LD_21_RN_20_RD_24_1.png","C_Dist_500_LN_7_LD_28_RN_12_RD_16_1.png","C_Dist_500_LN_7_LD_28_RN_9_RD_12_1.png","C_Dist_500_LN_9_LD_27_RN_20_RD_24_1.png"]],"dist500_I":[["I_Dist_500_LN_2_LD_3_RN_4_RD_24_0.png","I_Dist_500_LN_5_LD_6_RN_6_RD_18_0.png","I_Dist_500_LN_7_LD_8_RN_9_RD_24_0.png"],["I_Dist_500_LN_7_LD_21_RN_5_RD_6_1.png"]],"dist500_S":[["E_Dist_500_LN_6_LD_8_RN_6_RD_24_0.png"],["E_Dist_500_LN_2_LD_12_RN_2_RD_3_1.png","E_Dist_500_LN_6_LD_24_RN_6_RD_8_1.png"]]}},{"start_time":1552073972367,"click_time":1552073973227,"finger_time":1552073972786,"fix_duration":499.80661045883124,"trial":1,"RT":419,"MT":441,"sideResp":1,"stimulus":[],"xmouse":[793,793,793,793,793,793,793,793,793,793,793,793,793,793,793,793,796,801,819,830,841,853,863,876,880,882,884,884,880,871,857,838,817,788,783,783,783,783,782,770,734,673,595,481],"ymouse":[530,530,530,530,530,530,530,530,530,530,530,530,530,530,530,530,526,520,504,493,483,472,462,450,446,439,425,406,367,349,333,319,307,293,291,291,291,291,290,270,223,166,115,46],"timestamp_mouse":[1,19,39,59,80,101,119,140,161,179,201,219,239,261,279,299,320,339,359,379,400,419,440,459,479,499,520,539,559,580,599,621,640,660,680,700,719,739,760,781,800,820,840,859],"xSR":741.5,"ySR":469.95,"xT1":424.9,"yT1":0,"xT2":1058.1,"yT2":0,"toosoon":0,"cond_shown":"Incongruent","ratio_trial":300,"L_num":13,"L_den":26,"R_num":12,"R_den":15,"correct_side":2,"subjID":"sarahpeñavargas21","gender":"1","school":"4","age":"9"},{"start_time":1552073978632,"click_time":1552073979846,"finger_time":1552073979227,"fix_duration":1404.9848525716388,"trial":2,"RT":595,"MT":619,"sideResp":2,"stimulus":[],"xmouse":[800,800,800,800,800,800,800,800,800,800,800,800,800,800,800,800,800,800,800,800,800,800,800,800,800,800,801,819,833,849,849,850,850,850,850,850,852,854,862,865,879,888,898,911,932,971,994,1005,1015,1027,1054,1069,1084,1099,1112,1135,1141,1142,1142,1142,1142],"ymouse":[534,534,534,534,534,534,534,534,534,534,534,534,534,534,534,534,534,534,534,534,534,534,534,534,534,534,532,511,495,482,481,480,480,480,480,479,477,474,465,460,446,438,430,416,386,329,306,296,285,270,239,225,211,197,181,137,116,111,105,101,96],"timestamp_mouse":[25,38,55,74,95,115,135,155,174,194,214,234,255,276,296,314,335,356,376,395,415,434,454,475,494,516,535,554,574,595,614,636,654,675,694,714,734,754,774,794,814,834,854,874,895,914,935,955,975,994,1015,1035,1055,1076,1095,1114,1135,1154,1175,1196,1214],"xSR":741.5,"ySR":469.95,"xT1":424.9,"yT1":0,"xT2":1058.1,"yT2":0,"toosoon":0,"cond_shown":"Incongruent","ratio_trial":300,"L_num":4,"L_den":5,"R_num":8,"R_den":16,"correct_side":1,"subjID":"sarahpeñavargas21","gender":"1","school":"4","age":"9"},{"start_time":1552073984360,"click_time":1552073986347,"finger_time":1552073985188,"fix_duration":813.0608362403624,"trial":3,"RT":828,"MT":1159,"sideResp":2,"stimulus":[],"xmouse":[798,798,798,798,798,798,798,798,798,798,798,798,798,798,798,798,798,798,798,798,798,798,798,798,798,798,798,798,798,798,798,798,798,798,798,798,798,798,800,814,826,833,836,836,837,838,839,843,847,866,880,895,919,950,1057,1100,1133,1162,1183,1195,1202,1208,1213,1214,1215,1215,1215,1215,1215,1215,1215,1215,1215,1215,1215,1215,1215,1215,1215,1215,1215,1215,1215,1215,1215,1215,1215,1215,1214,1208,1186,1178,1177,1176,1176,1176,1175,1171,1163,1152],"ymouse":[529,529,529,529,529,529,529,529,529,529,529,529,529,529,529,529,529,529,529,529,529,529,529,529,529,529,529,529,529,529,529,529,529,529,529,529,529,527,523,497,481,469,463,463,460,456,448,440,434,421,417,413,410,399,295,232,183,149,116,85,66,45,34,29,27,27,27,27,27,27,27,27,27,27,27,27,27,27,27,27,27,27,27,27,27,27,27,26,26,26,26,26,26,26,26,26,26,26,29,33],"timestamp_mouse":[14,31,47,66,86,107,128,147,167,188,207,227,247,268,287,306,327,348,367,386,408,427,446,466,486,507,527,546,567,586,608,626,646,667,687,708,727,746,767,786,807,828,847,866,887,906,927,948,967,987,1006,1027,1047,1068,1087,1106,1126,1146,1167,1187,1206,1226,1247,1268,1287,1306,1326,1347,1367,1387,1407,1427,1447,1466,1487,1507,1527,1547,1568,1588,1607,1627,1647,1667,1687,1707,1727,1746,1767,1787,1807,1827,1847,1867,1887,1907,1927,1948,1966,1987],"xSR":741.5,"ySR":469.95,"xT1":424.9,"yT1":0,"xT2":1058.1,"yT2":0,"toosoon":0,"cond_shown":"Incongruent","ratio_trial":300,"L_num":4,"L_den":20,"R_num":2,"R_den":4,"correct_side":2,"subjID":"sarahpeñavargas21","gender":"1","school":"4","age":"9"},{"start_time":1552073994242,"click_time":1552073995808,"finger_time":1552073994906,"fix_duration":953.8139385501316,"trial":4,"RT":664,"MT":902,"sideResp":2,"stimulus":[],"xmouse":[791,791,791,791,791,791,791,791,791,791,791,791,791,791,791,791,791,791,791,791,791,791,791,791,791,791,791,791,791,791,791,792,790,770,749,729,715,704,703,702,702,702,702,702,702,702,702,702,702,702,699,687,684,681,681,681,681,681,681,681,681,721,743,765,786,813,861,883,900,925,936,942,943,947,955,973,1023,1050,1074],"ymouse":[503,503,503,503,503,503,503,503,503,503,503,503,503,503,503,503,503,503,503,503,503,503,503,503,503,503,503,503,503,503,503,503,479,419,365,320,287,255,248,248,247,247,247,247,247,247,247,247,247,246,235,210,203,200,198,198,198,198,198,198,196,175,163,153,141,127,103,94,88,81,77,76,75,74,72,69,61,56,54],"timestamp_mouse":[9,25,46,66,86,104,124,145,164,185,205,225,244,265,284,305,325,345,365,386,404,425,445,465,484,506,525,546,564,585,604,624,645,664,684,706,725,745,766,785,804,824,845,865,885,904,925,944,965,985,1006,1025,1044,1065,1084,1105,1124,1145,1164,1184,1205,1225,1244,1264,1285,1305,1326,1344,1364,1384,1405,1426,1444,1465,1485,1504,1525,1544,1565],"xSR":741.5,"ySR":469.95,"xT1":424.9,"yT1":0,"xT2":1058.1,"yT2":0,"toosoon":0,"cond_shown":"Incongruent","ratio_trial":100,"L_num":8,"L_den":20,"R_num":1,"R_den":2,"correct_side":2,"subjID":"sarahpeñavargas21","gender":"1","school":"4","age":"9"},{"start_time":1552074001275,"click_time":1552074003248,"finger_time":1552074002868,"fix_duration":1286.5204138571612,"trial":5,"RT":1593,"MT":380,"sideResp":2,"stimulus":[],"xmouse":[787,787,787,787,787,787,787,787,787,787,787,787,787,787,787,787,787,787,787,787,787,787,787,787,787,787,787,787,787,787,787,787,787,787,787,787,787,787,787,787,787,787,787,787,787,787,787,787,787,787,787,787,787,787,787,787,787,787,787,787,787,787,787,787,787,787,787,787,787,787,787,787,787,787,787,787,787,799,829,883,970,990,1004,1014,1027,1052,1070,1089,1103,1114,1123,1125,1126,1127,1127,1127,1126,1124,1121],"ymouse":[523,523,523,523,523,523,523,523,523,523,523,523,523,523,523,523,523,523,523,523,523,523,523,523,523,523,523,523,523,523,523,523,523,523,523,523,523,523,523,523,523,523,523,523,523,523,523,523,523,523,523,523,523,523,523,523,523,523,523,523,523,523,523,523,523,523,523,523,523,523,523,523,523,523,523,523,523,518,501,476,419,402,387,373,355,319,294,267,247,228,211,205,200,189,166,138,124,105,88],"timestamp_mouse":[12,37,52,72,92,112,133,152,173,193,212,233,252,272,293,312,333,353,372,393,412,432,453,473,492,512,532,553,573,592,612,632,653,673,693,712,733,753,773,792,812,833,852,874,893,912,933,953,973,993,1012,1032,1052,1073,1092,1112,1133,1152,1173,1193,1212,1233,1253,1273,1293,1312,1333,1352,1372,1392,1412,1432,1452,1473,1493,1512,1533,1552,1573,1593,1613,1632,1653,1672,1692,1713,1732,1753,1773,1794,1812,1832,1852,1872,1892,1913,1932,1952,1973],"xSR":741.5,"ySR":469.95,"xT1":424.9,"yT1":0,"xT2":1058.1,"yT2":0,"toosoon":0,"cond_shown":"Incongruent","ratio_trial":200,"L_num":1,"L_den":2,"R_num":3,"R_den":10,"correct_side":1,"subjID":"sarahpeñavargas21","gender":"1","school":"4","age":"9"},{"start_time":1552074013028,"click_time":1552074016969,"finger_time":1552074014709,"fix_duration":1138.407844146204,"trial":6,"RT":1681,"MT":2260,"sideResp":1,"stimulus":[],"xmouse":[807,807,807,807,807,807,807,807,807,807,807,807,807,807,807,807,807,807,807,807,807,807,807,807,807,807,807,807,807,807,807,807,807,807,807,807,807,807,807,807,807,807,807,807,807,807,807,807,807,807,807,807,807,807,807,807,807,807,807,807,807,807,807,807,807,807,807,807,807,807,807,807,807,807,807,807,807,807,807,807,807,809,813,843,862,887,919,945,961,1004,1013,1023,1027,1028,1023,1015,1006,1002,998,997,996,996,996,996,1003,1004,1006,1006,1007,1007,1007,1007,1007,1007,1007,1007,1007,1007,1007,1007,1007,1006,986,945,940,940,940,940,940,939,939,939,939,939,911,890,843,759,650,343,80,0,0,0,0,0,0,0,0,34,85,136,166,166,166,166,166,166,166,166,166,166,166,166,166,166,166,166,166,166,166,166,166,166,166,166,166,166,166,166,166,166,166,166,166,166,166,166,166,610,601,594,583,571,540,525,514],"ymouse":[496,496,496,496,496,496,496,496,496,496,496,496,496,496,496,496,496,496,496,496,496,496,496,496,496,496,496,496,496,496,496,496,496,496,496,496,496,496,496,496,496,496,496,496,496,496,496,496,496,496,496,496,496,496,496,496,496,496,496,496,496,496,496,496,496,496,496,496,496,496,496,496,496,496,496,496,496,496,496,496,496,495,494,481,470,456,439,422,410,373,359,335,320,288,270,253,239,231,225,216,213,211,211,209,206,205,204,203,201,201,201,201,201,201,201,201,201,201,201,201,201,201,207,221,226,226,226,226,226,226,226,226,226,226,228,235,248,261,277,267,227,196,168,147,137,137,137,136,130,95,56,25,3,3,3,3,3,3,3,3,3,3,3,3,3,3,3,3,3,3,3,3,3,3,3,3,3,3,3,3,3,3,3,3,3,3,3,3,3,8,17,25,33,37,51,57,61],"timestamp_mouse":[37,39,60,80,100,119,139,160,180,201,219,239,259,280,299,320,339,359,379,400,420,439,459,479,500,519,539,559,580,599,619,639,659,680,700,719,739,759,779,800,821,841,860,879,900,919,940,961,981,999,1019,1039,1060,1080,1100,1120,1139,1160,1181,1200,1220,1239,1260,1280,1300,1320,1340,1359,1380,1399,1420,1439,1459,1480,1500,1520,1540,1559,1580,1599,1619,1639,1660,1680,1699,1720,1739,1759,1779,1799,1819,1840,1860,1881,1899,1919,1940,1959,1979,2000,2019,2039,2060,2081,2100,2119,2139,2159,2181,2199,2219,2239,2260,2279,2299,2320,2339,2360,2380,2399,2420,2439,2459,2481,2499,2520,2539,2560,2579,2600,2619,2640,2660,2680,2700,2720,2740,2759,2780,2799,2820,2840,2859,2880,2900,2919,2939,2960,2980,2999,3021,3039,3059,3081,3101,3119,3139,3159,3180,3200,3220,3239,3259,3279,3299,3319,3340,3360,3379,3399,3419,3439,3459,3480,3500,3520,3540,3560,3580,3600,3620,3640,3659,3680,3699,3719,3740,3760,3779,3800,3819,3840,3859,3880,3899,3919,3940],"xSR":741.5,"ySR":469.95,"xT1":424.9,"yT1":0,"xT2":1058.1,"yT2":0,"toosoon":0,"cond_shown":"Incongruent","ratio_trial":100,"L_num":3,"L_den":6,"R_num":4,"R_den":10,"correct_side":1,"subjID":"sarahpeñavargas21","gender":"1","school":"4","age":"9"},{"start_time":1552074022879,"click_time":1552074024808,"finger_time":1552074024247,"fix_duration":250,"trial":7,"RT":1368,"MT":561,"sideResp":1,"stimulus":[],"xmouse":[796,796,796,796,796,795,794,786,781,777,773,769,765,761,760,760,760,760,760,760,760,760,760,760,760,760,760,760,760,760,760,760,760,760,760,760,760,760,760,760,760,760,760,760,760,760,760,760,760,760,760,760,760,759,758,755,752,750,750,749,749,749,749,749,749,749,749,748,733,719,684,650,639,633,635,636,636,636,635,629,626,622,616,611,609,609,609,606,598,590,587,583,582,575,565,535,521],"ymouse":[534,534,534,534,534,534,534,538,541,546,549,552,556,559,559,559,559,559,559,559,559,559,559,559,559,559,559,559,559,559,559,559,559,559,559,559,559,559,559,559,559,559,559,559,559,559,559,559,559,559,559,559,559,559,559,554,549,546,546,545,545,545,545,545,545,543,542,538,496,461,402,355,347,344,341,340,340,334,325,306,278,252,234,225,219,213,199,177,152,135,126,116,111,99,79,29,7],"timestamp_mouse":[9,43,48,68,89,108,129,149,169,188,209,229,249,268,289,308,329,348,368,388,408,429,449,469,489,510,528,549,570,589,609,628,648,669,688,709,729,749,768,789,808,828,848,868,888,908,928,949,969,989,1008,1028,1049,1068,1089,1108,1128,1150,1168,1189,1208,1229,1249,1268,1289,1308,1328,1348,1368,1388,1410,1428,1448,1468,1489,1508,1528,1550,1568,1588,1608,1629,1648,1668,1688,1708,1728,1750,1768,1789,1808,1828,1848,1868,1888,1908,1929],"xSR":741.5,"ySR":469.95,"xT1":424.9,"yT1":0,"xT2":1058.1,"yT2":0,"toosoon":0,"cond_shown":"Congruent","ratio_trial":200,"L_num":12,"L_den":20,"R_num":6,"R_den":15,"correct_side":1,"subjID":"sarahpeñavargas21","gender":"1","school":"4","age":"9"},{"start_time":1552074028665,"click_time":1552074030967,"finger_time":1552074030228,"fix_duration":856.1016511666147,"trial":8,"RT":1563,"MT":739,"sideResp":1,"stimulus":[],"xmouse":[786,786,786,786,786,786,786,786,786,786,786,786,786,786,786,786,786,786,786,786,786,786,786,786,786,786,786,786,786,786,786,786,786,786,786,786,786,786,786,786,786,786,786,786,786,786,786,786,786,786,786,786,786,786,786,786,786,786,786,786,786,786,786,786,786,786,786,786,786,786,786,786,786,786,786,786,786,786,778,758,748,740,731,726,724,719,717,716,715,712,710,709,708,708,708,707,706,691,656,591,492,479,479,479,479,479,479,479,479,479,479,479,479,478,478,480],"ymouse":[530,530,530,530,530,530,530,530,530,530,530,530,530,530,530,530,530,530,530,530,530,530,530,530,530,530,530,530,530,530,530,530,529,516,511,511,510,510,510,510,510,510,510,510,510,510,510,510,510,510,510,510,510,510,510,510,510,510,510,510,510,510,510,510,510,510,510,510,510,510,510,510,510,510,510,510,500,479,409,281,248,228,206,194,182,154,143,139,137,132,130,130,129,129,129,129,129,129,129,129,129,129,129,129,129,129,129,129,129,129,129,129,129,128,124,94],"timestamp_mouse":[10,23,42,62,82,102,122,143,164,182,202,222,243,262,282,303,324,342,363,382,403,424,443,462,482,502,522,542,563,583,603,622,643,664,682,703,722,743,762,783,802,823,842,862,882,903,922,943,963,982,1002,1023,1043,1062,1082,1102,1123,1143,1162,1183,1203,1222,1242,1264,1283,1302,1322,1343,1362,1382,1403,1422,1443,1462,1482,1502,1522,1542,1563,1584,1603,1622,1642,1663,1683,1702,1723,1742,1762,1784,1802,1823,1843,1863,1883,1902,1923,1943,1963,1982,2003,2023,2043,2063,2083,2102,2122,2142,2162,2183,2202,2223,2243,2263,2283,2302],"xSR":741.5,"ySR":469.95,"xT1":424.9,"yT1":0,"xT2":1058.1,"yT2":0,"toosoon":0,"cond_shown":"Congruent","ratio_trial":300,"L_num":4,"L_den":10,"R_num":1,"R_den":10,"correct_side":1,"subjID":"sarahpeñavargas21","gender":"1","school":"4","age":"9"},{"start_time":1552074036005,"click_time":1552074037487,"finger_time":1552074037068,"fix_duration":995.3831624253447,"trial":9,"RT":1063,"MT":419,"sideResp":1,"stimulus":[],"xmouse":[806,806,806,806,806,806,806,806,806,806,806,806,806,806,806,806,806,806,806,806,806,806,806,806,806,806,806,806,806,806,806,806,806,806,806,806,806,806,806,806,806,806,806,806,806,806,806,806,806,806,806,806,806,753,716,701,691,684,682,702,736,771,794,836,836,836,836,836,836,836,836,836,836,529,458],"ymouse":[502,502,502,502,502,502,502,502,502,502,502,502,502,502,502,502,502,502,502,502,502,502,502,502,502,502,502,502,502,502,502,502,502,502,502,502,502,502,502,502,502,502,502,502,502,502,502,502,502,502,502,502,502,373,323,308,292,281,252,199,125,74,48,1,1,1,1,1,1,1,1,1,1,1,22],"timestamp_mouse":[11,23,45,62,82,102,122,142,162,182,203,223,243,263,283,302,322,343,362,383,402,423,443,463,482,502,523,543,562,582,602,623,642,663,682,703,722,742,762,782,803,822,843,862,883,903,924,943,962,983,1002,1023,1043,1063,1083,1102,1123,1143,1162,1183,1203,1223,1243,1262,1282,1303,1322,1343,1363,1382,1402,1423,1442,1463,1482],"xSR":741.5,"ySR":469.95,"xT1":424.9,"yT1":0,"xT2":1058.1,"yT2":0,"toosoon":0,"cond_shown":"Congruent","ratio_trial":200,"L_num":20,"L_den":25,"R_num":9,"R_den":15,"correct_side":1,"subjID":"sarahpeñavargas21","gender":"1","school":"4","age":"9"},{"start_time":1552074044758,"click_time":1552074047067,"finger_time":1552074045107,"fix_duration":1369.955209694282,"trial":10,"RT":349,"MT":1960,"sideResp":1,"stimulus":[],"xmouse":[794,794,794,794,794,794,794,794,794,793,792,789,788,786,786,785,785,784,782,774,768,741,732,726,724,724,724,724,724,724,724,724,725,735,754,773,796,813,816,817,818,818,814,803,784,760,716,700,696,696,696,696,696,696,695,693,691,691,691,691,691,690,690,697,707,740,800,900,900,900,900,900,900,900,900,900,900,900,900,900,900,405,271,225,201,182,168,164,159,155,153,153,153,153,153,153,153,162,182,224,249,268,298,311,319,324,326,326,328,329,332,359,381,402,421,432],"ymouse":[509,509,509,512,517,523,530,541,545,548,550,557,561,563,565,566,567,570,571,587,597,674,699,712,715,715,715,715,715,715,715,715,707,685,652,608,573,536,530,523,521,519,514,503,490,477,447,436,433,432,432,432,430,427,424,418,417,417,417,417,416,395,376,358,339,261,167,31,31,31,31,31,31,31,31,31,31,31,31,31,31,33,85,105,116,125,128,130,132,134,136,137,137,137,137,137,137,135,128,116,106,98,83,77,73,70,69,69,69,69,69,75,79,82,84,84],"timestamp_mouse":[13,48,49,69,90,109,129,150,170,190,209,229,250,269,289,309,329,349,369,389,409,429,449,469,490,509,529,550,569,590,609,630,649,669,689,709,730,749,770,789,810,829,849,870,889,909,929,949,969,990,1009,1029,1049,1070,1089,1110,1130,1149,1169,1190,1209,1229,1249,1270,1289,1310,1330,1350,1370,1390,1410,1429,1450,1470,1489,1510,1529,1551,1570,1590,1610,1630,1650,1671,1691,1710,1730,1749,1769,1789,1809,1830,1849,1870,1890,1909,1929,1950,1970,1989,2009,2030,2049,2070,2089,2109,2130,2150,2169,2189,2209,2229,2249,2270,2289,2309],"xSR":741.5,"ySR":469.95,"xT1":424.9,"yT1":0,"xT2":1058.1,"yT2":0,"toosoon":0,"cond_shown":"Congruent","ratio_trial":200,"L_num":4,"L_den":8,"R_num":3,"R_den":10,"correct_side":1,"subjID":"sarahpeñavargas21","gender":"1","school":"4","age":"9"},{"start_time":1552074057293,"click_time":1552074059208,"finger_time":1552074057907,"fix_duration":724.8374011287378,"trial":11,"RT":614,"MT":1301,"sideResp":2,"stimulus":[],"xmouse":[810,810,810,810,810,811,814,816,820,825,830,832,832,833,834,835,835,835,835,835,835,835,835,835,835,835,835,836,838,840,843,844,845,845,845,845,845,845,845,845,845,845,845,845,845,845,845,845,845,845,834,820,809,804,802,802,802,807,836,888,1091,1199,1293,1339,1351,1351,1352,1352,1351,1346,1335,1329,1325,1324,1324,1324,1310,1295,1281,1267,1256,1244,1242,1240,1240,1240,1240,1240,1240,1240,1239,1216,1198,1178,1164,1149],"ymouse":[514,514,514,514,514,514,516,517,520,524,528,530,531,532,533,533,533,533,533,533,533,533,533,533,533,533,533,533,533,533,531,530,530,530,530,530,530,530,530,530,530,530,530,530,530,530,530,530,530,530,536,543,548,551,552,552,552,534,460,381,208,155,118,100,93,92,92,91,83,73,50,43,39,39,39,39,46,52,59,64,69,77,79,80,80,80,80,80,80,80,80,70,64,58,54,50],"timestamp_mouse":[15,35,54,75,95,115,134,155,174,194,215,235,255,274,294,314,335,355,374,394,414,434,456,474,495,515,535,555,574,594,614,634,654,674,695,714,734,755,775,794,815,834,854,875,894,915,934,955,974,995,1017,1035,1054,1074,1094,1115,1135,1154,1176,1195,1216,1234,1255,1274,1295,1316,1334,1354,1374,1394,1415,1434,1455,1474,1494,1514,1534,1554,1574,1595,1615,1634,1654,1674,1694,1715,1735,1754,1775,1794,1815,1834,1854,1874,1895,1914],"xSR":741.5,"ySR":469.95,"xT1":424.9,"yT1":0,"xT2":1058.1,"yT2":0,"toosoon":0,"cond_shown":"Congruent","ratio_trial":300,"L_num":5,"L_den":25,"R_num":6,"R_den":12,"correct_side":2,"subjID":"sarahpeñavargas21","gender":"1","school":"4","age":"9"},{"start_time":1552074061739,"click_time":1552074063968,"finger_time":1552074063327,"fix_duration":250,"trial":12,"RT":1588,"MT":641,"sideResp":1,"stimulus":[],"xmouse":[785,785,785,785,785,785,785,785,785,785,785,785,785,785,785,785,785,785,785,785,785,785,785,785,785,785,785,785,785,785,785,785,785,785,785,785,785,785,785,785,785,785,785,785,785,785,785,785,785,785,785,785,785,785,785,785,785,785,785,785,785,785,785,785,785,785,785,785,785,785,785,785,785,785,785,785,785,785,783,782,782,782,767,750,725,725,725,725,725,725,725,725,725,725,725,725,725,725,725,551,547,544,538,533,529,529,529,529,529,528,526,523],"ymouse":[493,493,493,493,493,493,493,493,493,493,493,493,493,493,493,493,493,493,493,493,493,493,493,493,493,493,493,493,493,493,493,493,493,493,493,493,493,493,493,493,493,493,493,493,493,493,493,493,493,493,493,493,493,493,493,493,493,493,493,493,493,493,493,493,493,493,493,493,493,493,493,493,493,493,493,493,493,493,494,465,405,304,201,103,16,16,16,16,16,16,16,16,16,16,16,16,16,16,16,0,4,7,13,15,17,17,17,17,17,18,20,23],"timestamp_mouse":[13,40,48,68,88,107,129,148,169,188,208,228,248,269,288,307,329,349,369,388,409,429,448,468,488,508,528,548,569,588,608,629,649,669,688,708,729,748,768,788,808,828,849,869,888,908,929,948,969,988,1008,1028,1047,1069,1088,1108,1129,1149,1167,1188,1209,1228,1248,1269,1288,1309,1329,1349,1369,1388,1408,1428,1449,1468,1488,1508,1528,1548,1569,1588,1607,1628,1648,1668,1688,1708,1728,1749,1768,1788,1809,1828,1849,1869,1888,1909,1928,1948,1969,1989,2009,2029,2049,2068,2089,2109,2128,2147,2168,2189,2207,2228],"xSR":741.5,"ySR":469.95,"xT1":424.9,"yT1":0,"xT2":1058.1,"yT2":0,"toosoon":0,"cond_shown":"Incongruent","ratio_trial":200,"L_num":4,"L_den":30,"R_num":1,"R_den":3,"correct_side":2,"subjID":"sarahpeñavargas21","gender":"1","school":"4","age":"9"},{"start_time":1552074071854,"click_time":1552074073688,"finger_time":1552074072908,"fix_duration":1105.3100486487663,"trial":13,"RT":1054,"MT":780,"sideResp":1,"stimulus":[],"xmouse":[781,781,781,781,781,781,781,781,781,781,781,781,781,781,781,781,781,781,781,781,781,781,781,781,781,781,781,781,781,781,781,781,781,781,781,781,781,781,781,781,781,781,781,781,781,781,781,781,781,781,781,779,760,733,703,632,601,570,551,526,523,521,521,521,520,519,519,519,519,519,519,519,519,518,523,526,528,530,533,540,540,540,540,540,540,540,540,540,540,535,526,517],"ymouse":[507,507,507,507,507,507,507,507,507,507,507,507,507,507,507,507,507,507,507,507,507,507,507,507,507,507,507,507,507,507,507,507,507,507,507,507,507,507,507,507,507,507,507,507,507,507,507,507,507,507,507,494,440,383,325,223,182,146,130,115,112,111,111,111,111,111,111,111,111,111,111,111,111,111,106,103,97,91,84,73,73,73,73,73,73,73,73,73,73,73,73,75],"timestamp_mouse":[14,40,53,73,92,113,134,153,172,193,214,241,252,274,293,313,334,353,373,393,413,433,453,473,493,514,533,554,573,593,613,634,653,673,694,714,733,754,772,793,813,833,856,873,893,914,933,953,974,993,1013,1033,1054,1073,1094,1113,1133,1154,1173,1194,1213,1233,1254,1273,1294,1313,1333,1353,1374,1394,1413,1434,1454,1473,1493,1513,1533,1554,1573,1593,1613,1633,1653,1674,1694,1714,1733,1753,1773,1794,1813,1833],"xSR":741.5,"ySR":469.95,"xT1":424.9,"yT1":0,"xT2":1058.1,"yT2":0,"toosoon":0,"cond_shown":"Congruent","ratio_trial":300,"L_num":24,"L_den":30,"R_num":8,"R_den":16,"correct_side":1,"subjID":"sarahpeñavargas21","gender":"1","school":"4","age":"9"},{"start_time":1552074080301,"click_time":1552074082068,"finger_time":1552074081707,"fix_duration":250,"trial":14,"RT":1406,"MT":361,"sideResp":1,"stimulus":[],"xmouse":[787,787,787,787,787,787,787,787,787,787,787,787,787,787,787,787,787,787,787,787,787,787,787,787,787,787,787,787,787,787,787,787,787,787,787,787,787,787,787,787,787,787,787,787,787,787,787,787,787,787,787,787,787,787,787,787,787,787,787,787,787,787,787,787,787,787,787,787,786,788,795,800,800,800,786,769,763,730,710,710,710,710,710,710,710,710,710,710,473],"ymouse":[535,535,535,535,535,535,535,535,535,535,535,535,535,535,535,535,535,535,535,535,535,535,535,535,535,535,535,535,535,535,535,535,535,535,535,535,535,535,535,535,535,535,535,535,535,535,535,535,535,535,535,535,535,535,535,535,535,535,535,535,535,535,535,535,535,535,535,535,529,474,420,381,352,317,221,146,122,38,3,3,3,3,3,3,3,3,3,3,1],"timestamp_mouse":[9,41,47,67,86,106,127,146,166,187,207,226,247,266,287,306,327,346,366,386,406,426,447,466,487,507,527,546,566,585,607,627,646,667,686,707,726,747,766,786,805,826,847,867,886,907,927,946,966,987,1006,1027,1046,1066,1087,1106,1126,1147,1166,1185,1207,1226,1246,1266,1286,1307,1326,1346,1366,1386,1406,1427,1446,1466,1486,1506,1527,1547,1565,1587,1606,1627,1647,1667,1686,1706,1727,1747,1767],"xSR":741.5,"ySR":469.95,"xT1":424.9,"yT1":0,"xT2":1058.1,"yT2":0,"toosoon":0,"cond_shown":"Congruent","ratio_trial":200,"L_num":8,"L_den":15,"R_num":3,"R_den":9,"correct_side":1,"subjID":"sarahpeñavargas21","gender":"1","school":"4","age":"9"},{"start_time":1552074085638,"click_time":1552074087927,"finger_time":1552074087267,"fix_duration":250,"trial":15,"RT":1629,"MT":660,"sideResp":2,"stimulus":[],"xmouse":[771,771,771,771,771,771,771,771,771,771,771,771,771,771,771,771,771,772,773,773,773,774,774,774,774,774,774,774,774,774,774,774,774,774,774,774,774,774,774,774,774,774,774,774,774,774,774,774,774,774,774,774,774,774,774,774,774,774,774,774,774,774,774,774,774,774,774,774,774,774,774,774,774,774,774,774,776,783,800,817,840,863,896,909,923,938,950,966,971,973,974,974,974,975,975,976,979,993,1005,1022,1041,1059,1090,1095,1098,1101,1102,1102,1102,1102,1102,1102,1102,1102,1097],"ymouse":[530,530,530,530,530,530,530,530,530,530,530,530,530,530,530,530,530,532,536,538,539,540,540,540,540,540,540,540,540,540,540,540,540,540,540,540,540,540,540,540,540,540,540,540,540,540,540,540,540,540,540,540,540,540,540,540,540,540,540,540,540,540,540,540,540,540,540,540,540,540,540,540,540,540,540,540,540,535,524,513,500,487,461,445,426,405,384,332,305,277,247,225,200,192,187,183,177,170,166,164,162,160,154,151,147,141,136,132,132,132,132,131,116,107,98],"timestamp_mouse":[19,30,49,69,89,109,129,149,169,190,210,228,250,270,289,310,329,349,370,390,409,429,449,469,489,509,529,549,570,590,610,629,648,669,690,709,729,750,770,790,810,830,850,869,889,910,929,949,969,989,1009,1029,1049,1070,1089,1110,1129,1149,1169,1190,1209,1229,1249,1269,1290,1310,1330,1349,1369,1389,1409,1429,1449,1469,1490,1510,1529,1549,1570,1590,1609,1629,1650,1669,1689,1709,1729,1749,1769,1789,1809,1829,1849,1869,1889,1909,1929,1949,1970,1989,2009,2029,2049,2069,2090,2110,2130,2149,2169,2189,2209,2229,2249,2269,2288],"xSR":741.5,"ySR":469.95,"xT1":424.9,"yT1":0,"xT2":1058.1,"yT2":0,"toosoon":0,"cond_shown":"Incongruent","ratio_trial":300,"L_num":4,"L_den":20,"R_num":2,"R_den":4,"correct_side":2,"subjID":"sarahpeñavargas21","gender":"1","school":"4","age":"9"},{"start_time":1552074089538,"click_time":1552074092028,"finger_time":1552074091687,"fix_duration":250,"trial":16,"RT":2149,"MT":341,"sideResp":2,"stimulus":[],"xmouse":[812,812,812,812,812,812,812,812,812,812,812,812,812,811,811,811,811,810,810,810,810,810,810,810,810,810,810,810,810,810,810,810,810,810,810,810,810,810,810,810,810,810,810,810,810,810,810,810,810,810,810,810,810,810,810,810,810,810,810,810,810,810,810,810,810,810,810,810,810,810,810,810,810,810,810,810,810,810,810,810,810,810,810,810,810,810,810,810,810,810,810,810,810,810,810,810,810,810,810,810,810,810,810,810,810,811,825,875,960,973,977,978,984,989,998,1011,1027,1044,1060,1067,1072,1078,1085,1101,1106],"ymouse":[537,537,537,537,537,537,537,537,537,537,537,537,536,534,531,530,528,524,522,520,519,517,513,513,513,513,512,512,512,512,512,512,512,512,512,512,512,512,512,512,512,512,512,512,512,512,512,512,512,512,512,512,512,512,512,512,512,512,512,512,512,512,512,512,512,512,512,512,512,512,512,512,512,512,512,512,512,512,512,512,512,512,512,512,512,512,512,512,512,512,512,512,512,512,512,512,512,512,512,512,512,512,512,512,512,506,483,412,310,296,292,290,281,273,260,245,227,211,192,177,164,148,131,103,87],"timestamp_mouse":[11,29,49,69,89,109,130,149,170,190,210,230,249,270,290,309,329,349,368,390,409,430,449,470,490,510,529,550,570,589,610,628,649,670,689,710,730,749,770,789,809,830,850,869,890,909,930,949,968,989,1010,1029,1049,1069,1089,1109,1130,1150,1170,1189,1211,1229,1250,1269,1289,1309,1330,1349,1370,1389,1409,1430,1450,1470,1489,1509,1530,1549,1569,1589,1609,1629,1650,1669,1689,1709,1729,1749,1769,1789,1810,1828,1849,1868,1889,1909,1929,1950,1970,1989,2010,2030,2050,2069,2089,2109,2129,2149,2169,2190,2209,2229,2251,2269,2290,2309,2330,2349,2368,2389,2409,2429,2450,2470,2490],"xSR":741.5,"ySR":469.95,"xT1":424.9,"yT1":0,"xT2":1058.1,"yT2":0,"toosoon":0,"cond_shown":"Congruent","ratio_trial":100,"L_num":3,"L_den":20,"R_num":4,"R_den":16,"correct_side":2,"subjID":"sarahpeñavargas21","gender":"1","school":"4","age":"9"},{"start_time":1552074094717,"click_time":1552074096167,"finger_time":1552074095787,"fix_duration":1268.0800898251368,"trial":17,"RT":1070,"MT":380,"sideResp":2,"stimulus":[],"xmouse":[788,788,788,788,788,788,788,788,788,788,788,788,788,788,788,788,788,788,788,788,788,788,788,788,788,788,788,788,788,788,788,788,788,788,788,788,788,788,789,805,813,821,827,830,830,830,830,830,830,830,831,833,841,853,892,922,952,982,1012,1061,1069,1073,1075,1075,1075,1075,1075,1075,1075,1075,1075,1073,1072],"ymouse":[533,533,533,533,533,533,533,533,533,533,533,533,533,533,533,533,533,533,533,533,533,533,533,533,533,533,533,533,533,533,533,533,533,533,533,533,533,533,534,527,521,517,513,511,511,511,511,511,511,511,511,510,509,504,488,473,447,415,379,300,277,256,235,217,179,159,137,122,114,106,104,101,97],"timestamp_mouse":[10,31,50,70,90,110,130,150,170,190,210,230,250,270,290,310,330,350,370,390,410,430,450,470,490,511,530,551,570,590,611,631,649,671,690,711,730,750,770,790,811,830,849,870,891,911,931,950,970,990,1010,1031,1051,1070,1090,1111,1130,1151,1171,1191,1211,1230,1251,1270,1290,1310,1330,1350,1370,1390,1411,1430,1450],"xSR":741.5,"ySR":469.95,"xT1":424.9,"yT1":0,"xT2":1058.1,"yT2":0,"toosoon":0,"cond_shown":"Congruent","ratio_trial":200,"L_num":3,"L_den":12,"R_num":9,"R_den":20,"correct_side":2,"subjID":"sarahpeñavargas21","gender":"1","school":"4","age":"9"},{"start_time":1552074102116,"click_time":1552074103688,"finger_time":1552074103067,"fix_duration":787.7081307305227,"trial":18,"RT":951,"MT":621,"sideResp":2,"stimulus":[],"xmouse":[794,794,794,794,794,794,794,794,794,794,794,794,794,794,794,794,794,794,794,794,794,794,794,794,794,794,794,794,794,794,794,794,794,794,794,794,794,794,794,794,794,798,803,814,823,838,840,844,846,847,847,848,848,849,851,858,865,872,879,888,907,913,918,923,927,946,965,976,987,995,1003,1006,1009,1013,1021,1037,1051,1058,1063],"ymouse":[528,528,528,528,528,528,528,528,528,528,528,528,528,528,528,528,528,528,528,528,528,528,528,528,528,528,528,528,528,528,528,528,528,528,528,528,528,528,528,528,528,519,513,501,490,473,472,469,466,465,465,465,465,464,464,459,456,452,447,441,429,425,422,419,416,402,385,371,354,336,303,289,272,253,226,170,123,99,82],"timestamp_mouse":[13,44,51,71,92,111,131,152,172,191,212,231,250,272,292,312,331,351,372,392,412,430,451,471,492,510,532,552,572,591,612,632,651,670,691,712,731,752,771,791,812,831,852,872,891,910,931,951,972,991,1013,1031,1052,1071,1091,1110,1131,1151,1171,1192,1211,1231,1251,1271,1292,1311,1332,1352,1372,1392,1410,1431,1451,1471,1493,1510,1532,1552,1572],"xSR":741.5,"ySR":469.95,"xT1":424.9,"yT1":0,"xT2":1058.1,"yT2":0,"toosoon":0,"cond_shown":"Congruent","ratio_trial":300,"L_num":5,"L_den":25,"R_num":6,"R_den":12,"correct_side":2,"subjID":"sarahpeñavargas21","gender":"1","school":"4","age":"9"},{"start_time":1552074108459,"click_time":1552074110447,"finger_time":1552074109968,"fix_duration":250,"trial":19,"RT":1509,"MT":479,"sideResp":1,"stimulus":[],"xmouse":[774,774,774,774,774,774,774,774,774,774,774,774,774,774,774,774,774,774,774,774,774,774,774,774,774,774,774,774,774,774,774,774,774,774,774,774,774,774,774,774,774,774,774,774,774,774,774,774,774,774,774,774,774,774,774,774,774,774,774,774,774,774,774,774,774,774,774,774,774,774,774,771,768,766,764,762,754,746,728,719,710,700,691,681,661,650,642,630,611,601,590,581,573,560,557,552,549,542,525,521],"ymouse":[515,515,515,515,515,515,515,515,515,515,515,515,515,515,515,515,515,515,515,515,515,515,515,515,515,515,515,515,515,515,515,515,515,515,515,515,515,515,515,515,515,515,515,515,515,515,515,515,515,515,515,515,515,515,515,515,515,515,515,515,515,515,515,515,515,515,515,515,515,515,515,507,502,492,474,449,384,332,235,202,179,159,145,133,114,105,101,99,99,99,99,99,100,104,105,107,107,107,102,99],"timestamp_mouse":[13,34,49,68,89,109,128,149,168,189,209,229,248,269,289,308,329,349,369,389,409,429,448,468,489,509,528,547,569,588,609,629,647,668,688,709,728,749,769,788,807,829,849,869,888,908,929,948,969,989,1008,1028,1048,1068,1088,1109,1128,1148,1169,1188,1208,1229,1248,1269,1288,1309,1329,1349,1368,1388,1408,1428,1449,1469,1487,1509,1528,1548,1570,1588,1608,1629,1649,1667,1687,1709,1728,1748,1770,1788,1808,1828,1849,1870,1887,1908,1928,1949,1969,1988],"xSR":741.5,"ySR":469.95,"xT1":424.9,"yT1":0,"xT2":1058.1,"yT2":0,"toosoon":0,"cond_shown":"Congruent","ratio_trial":100,"L_num":8,"L_den":16,"R_num":2,"R_den":5,"correct_side":1,"subjID":"sarahpeñavargas21","gender":"1","school":"4","age":"9"},{"start_time":1552074116449,"click_time":1552074118249,"finger_time":1552074117866,"fix_duration":600.1556242194537,"trial":20,"RT":1417,"MT":383,"sideResp":2,"stimulus":[],"xmouse":[775,775,775,775,775,775,775,775,775,775,775,775,775,775,775,775,775,775,775,775,775,775,775,775,775,775,775,775,775,775,775,775,775,775,775,775,775,776,777,784,790,794,801,804,805,805,805,805,805,805,805,805,805,805,805,805,805,805,805,805,805,805,805,805,805,805,805,805,805,808,841,917,984,1039,1108,1123,1134,1143,1150,1159,1162,1163,1163,1163,1162,1157,1149,1131,1112,1064],"ymouse":[495,495,495,495,495,495,495,495,495,495,495,495,495,495,495,495,495,495,495,495,495,495,495,495,495,495,495,495,495,495,495,495,495,495,495,495,495,495,494,491,487,485,481,479,478,478,478,478,478,478,478,478,478,478,478,478,478,478,478,478,478,478,478,478,478,478,478,478,478,475,454,391,337,296,244,227,206,181,163,138,130,121,115,112,110,107,103,101,101,99],"timestamp_mouse":[35,38,59,78,98,118,139,158,179,198,219,239,258,278,299,317,339,359,377,399,419,438,458,479,498,518,539,559,578,598,618,639,659,679,699,719,738,758,778,798,818,837,859,879,899,918,938,957,979,998,1018,1038,1058,1079,1098,1119,1138,1158,1179,1197,1218,1239,1258,1278,1299,1319,1339,1358,1379,1399,1417,1438,1458,1478,1499,1518,1537,1557,1579,1599,1618,1639,1659,1678,1699,1717,1739,1758,1779,1799],"xSR":741.5,"ySR":469.95,"xT1":424.9,"yT1":0,"xT2":1058.1,"yT2":0,"toosoon":0,"cond_shown":"Incongruent","ratio_trial":100,"L_num":9,"L_den":15,"R_num":14,"R_den":28,"correct_side":1,"subjID":"sarahpeñavargas21","gender":"1","school":"4","age":"9"},{"start_time":1552074127296,"click_time":1552074128988,"finger_time":1552074128407,"fix_duration":685.0819342113411,"trial":21,"RT":1111,"MT":581,"sideResp":1,"stimulus":[],"xmouse":[773,773,773,773,773,773,773,773,773,773,773,773,773,773,773,773,773,773,773,773,773,773,773,773,773,773,773,773,773,773,773,773,773,773,773,773,773,773,773,773,773,773,773,773,773,773,773,773,773,773,773,773,772,772,761,754,740,732,726,724,724,724,724,724,722,720,702,679,655,616,603,595,593,592,591,589,587,586,584,578,573,566,556,545,519],"ymouse":[518,518,518,518,518,518,518,518,518,518,518,518,518,518,518,518,518,518,518,518,518,518,518,518,518,518,518,518,518,518,518,518,518,518,518,518,518,518,518,518,518,518,518,518,518,518,518,518,518,518,518,518,515,509,471,452,421,408,398,388,385,380,375,370,341,331,283,237,207,158,149,147,147,147,147,146,145,144,143,138,135,130,122,113,92],"timestamp_mouse":[11,32,52,71,91,111,131,152,171,192,212,231,252,272,291,311,331,352,372,392,411,432,452,471,492,512,531,551,571,592,611,631,652,671,691,711,731,752,771,791,812,832,851,872,891,911,930,952,972,992,1011,1032,1051,1072,1091,1111,1131,1151,1171,1191,1211,1231,1251,1271,1291,1311,1331,1351,1372,1391,1411,1431,1451,1472,1490,1511,1531,1551,1572,1591,1612,1631,1652,1672,1691],"xSR":741.5,"ySR":469.95,"xT1":424.9,"yT1":0,"xT2":1058.1,"yT2":0,"toosoon":0,"cond_shown":"Congruent","ratio_trial":300,"L_num":18,"L_den":20,"R_num":9,"R_den":15,"correct_side":1,"subjID":"sarahpeñavargas21","gender":"1","school":"4","age":"9"},{"start_time":1552074133920,"click_time":1552074135367,"finger_time":1552074134688,"fix_duration":250,"trial":22,"RT":768,"MT":679,"sideResp":1,"stimulus":[],"xmouse":[756,756,756,761,770,771,771,771,771,771,771,771,772,776,777,779,779,779,779,779,779,779,779,779,779,779,779,779,779,779,779,779,779,779,771,760,754,746,712,681,654,630,623,621,620,626,629,632,636,636,631,627,611,574,553,536,521,510,501,497,496,496,496,496,496,496,496,496,496,496,496,496,496],"ymouse":[534,534,534,532,523,521,521,521,521,521,521,521,520,516,514,513,512,512,512,512,512,512,512,512,512,512,512,512,512,512,512,512,512,512,512,512,512,510,495,483,475,471,471,471,471,462,448,426,346,310,267,254,215,172,155,144,131,122,113,107,107,107,107,107,107,107,107,107,107,107,107,102,85],"timestamp_mouse":[10,27,47,68,86,108,127,147,168,188,207,228,247,268,287,308,328,348,367,388,408,428,448,468,487,507,528,548,567,588,608,627,647,668,687,708,728,748,768,787,807,827,847,867,888,907,928,948,968,987,1007,1027,1048,1068,1088,1107,1128,1148,1167,1187,1208,1227,1247,1268,1287,1307,1327,1347,1368,1387,1408,1428,1446],"xSR":741.5,"ySR":469.95,"xT1":424.9,"yT1":0,"xT2":1058.1,"yT2":0,"toosoon":0,"cond_shown":"Congruent","ratio_trial":200,"L_num":21,"L_den":30,"R_num":2,"R_den":4,"correct_side":1,"subjID":"sarahpeñavargas21","gender":"1","school":"4","age":"9"},{"start_time":1552074137320,"click_time":1552074138588,"finger_time":1552074138388,"fix_duration":250,"trial":23,"RT":1068,"MT":200,"sideResp":2,"stimulus":[],"xmouse":[772,772,772,773,777,777,779,779,780,782,783,784,784,784,784,784,784,784,784,784,784,784,784,784,784,784,784,784,784,784,784,784,784,784,784,784,784,784,784,784,784,784,784,784,784,784,786,788,790,798,802,811,829,853,934,974,1002,1029,1055,1097,1105,1108,1113,1116],"ymouse":[545,545,545,545,543,542,542,541,541,540,539,539,539,539,539,539,539,539,539,539,539,539,539,539,539,539,539,539,539,539,539,539,539,539,539,539,539,539,539,539,539,539,539,539,539,539,531,529,524,513,508,498,480,459,398,366,337,297,260,171,142,124,108,95],"timestamp_mouse":[13,37,48,68,88,108,127,147,167,188,207,227,247,267,288,308,327,347,367,387,411,427,448,467,487,507,528,547,567,588,608,628,648,668,687,708,728,747,768,787,807,828,847,868,888,907,927,948,967,987,1007,1027,1047,1068,1087,1108,1127,1148,1167,1187,1209,1227,1248,1268],"xSR":741.5,"ySR":469.95,"xT1":424.9,"yT1":0,"xT2":1058.1,"yT2":0,"toosoon":0,"cond_shown":"Incongruent","ratio_trial":200,"L_num":14,"L_den":30,"R_num":6,"R_den":9,"correct_side":2,"subjID":"sarahpeñavargas21","gender":"1","school":"4","age":"9"},{"start_time":1552074141114,"click_time":1552074142667,"finger_time":1552074142167,"fix_duration":1145.5889709428445,"trial":24,"RT":1053,"MT":500,"sideResp":1,"stimulus":[],"xmouse":[792,792,792,792,792,792,792,792,792,792,792,792,792,792,792,792,792,792,792,792,792,792,792,792,792,792,792,792,792,792,792,792,792,792,792,792,792,792,792,792,792,792,792,792,792,792,792,792,792,792,792,788,770,738,696,620,596,584,579,573,570,568,566,566,564,564,564,564,564,564,561,557,554,551,542,536,527,516],"ymouse":[508,508,508,508,508,508,508,508,508,508,508,508,508,508,508,508,508,508,508,508,508,508,508,508,508,508,508,508,508,508,508,508,508,508,508,508,508,508,508,508,508,508,508,508,508,508,508,508,508,508,508,498,462,411,351,260,240,229,219,202,193,184,181,179,175,173,170,164,159,154,142,135,128,121,106,96,80,64],"timestamp_mouse":[13,44,53,74,93,113,134,153,173,193,214,233,253,273,293,314,334,354,374,393,413,433,454,474,493,513,533,554,574,594,613,634,654,674,694,714,733,753,773,793,813,833,854,874,893,914,934,954,973,993,1013,1033,1053,1074,1093,1113,1133,1153,1173,1194,1213,1233,1254,1274,1295,1313,1333,1353,1373,1394,1413,1433,1454,1473,1493,1513,1533,1553],"xSR":741.5,"ySR":469.95,"xT1":424.9,"yT1":0,"xT2":1058.1,"yT2":0,"toosoon":0,"cond_shown":"Congruent","ratio_trial":300,"L_num":3,"L_den":6,"R_num":2,"R_den":10,"correct_side":1,"subjID":"sarahpeñavargas21","gender":"1","school":"4","age":"9"},{"start_time":1552074144459,"click_time":1552074146708,"finger_time":1552074146307,"fix_duration":250,"trial":25,"RT":1848,"MT":401,"sideResp":2,"stimulus":[],"xmouse":[772,772,772,772,772,772,772,772,772,772,772,772,772,772,772,772,772,772,772,772,772,772,772,772,772,772,772,772,772,772,772,772,772,772,772,772,772,772,772,772,772,772,773,773,773,773,773,773,773,773,773,773,773,773,773,773,773,773,773,773,773,773,773,773,773,773,773,773,773,773,773,773,773,773,773,773,773,773,773,773,773,773,773,773,773,773,773,773,773,773,791,815,840,893,916,946,966,982,1016,1049,1071,1084,1095,1107,1112,1114,1116,1117,1121,1123,1125,1125,1125],"ymouse":[514,514,514,514,514,514,514,514,514,514,514,514,514,514,514,514,514,514,514,514,514,514,514,514,514,514,514,514,514,514,514,514,514,514,514,514,514,514,514,514,514,514,513,513,513,513,513,513,513,513,513,513,513,513,513,513,513,513,513,513,513,513,513,513,513,513,513,513,513,513,513,513,513,513,513,513,513,513,513,513,513,513,513,513,513,513,513,513,513,513,501,487,469,429,411,385,367,352,320,277,248,232,215,190,180,172,168,163,147,130,117,108,98],"timestamp_mouse":[12,34,48,68,88,108,128,149,167,188,209,228,249,268,288,309,328,349,368,389,408,428,448,469,488,509,528,548,568,588,609,628,649,668,688,708,728,749,768,789,809,828,848,868,889,908,929,949,969,989,1008,1028,1048,1068,1088,1108,1129,1148,1169,1188,1208,1229,1249,1268,1289,1309,1328,1348,1368,1389,1408,1428,1449,1469,1489,1509,1529,1548,1569,1589,1607,1629,1649,1668,1688,1708,1729,1748,1769,1789,1809,1828,1848,1868,1889,1908,1929,1948,1968,1988,2008,2028,2049,2068,2089,2108,2129,2149,2168,2188,2208,2228,2249],"xSR":741.5,"ySR":469.95,"xT1":424.9,"yT1":0,"xT2":1058.1,"yT2":0,"toosoon":0,"cond_shown":"Incongruent","ratio_trial":200,"L_num":1,"L_den":3,"R_num":2,"R_den":15,"correct_side":1,"subjID":"sarahpeñavargas21","gender":"1","school":"4","age":"9"},{"start_time":1552074154780,"click_time":1552074156167,"finger_time":1552074155747,"fix_duration":250,"trial":26,"RT":967,"MT":420,"sideResp":2,"stimulus":[],"xmouse":[822,820,820,812,810,810,810,810,810,810,810,810,810,810,810,810,810,810,810,810,810,810,810,810,810,810,810,810,810,810,810,810,810,810,810,810,810,810,810,810,810,810,810,810,810,810,810,809,823,837,850,857,862,868,874,882,889,895,914,923,934,945,961,982,992,1002,1012,1021,1049,1063],"ymouse":[506,506,506,506,506,506,506,506,506,506,506,506,506,506,506,506,506,506,506,506,506,506,506,506,506,506,506,506,506,506,506,506,506,506,506,506,506,506,506,506,506,506,506,506,506,506,506,506,453,409,380,364,358,346,335,323,312,304,280,267,252,237,220,193,179,165,150,135,94,71],"timestamp_mouse":[13,38,48,66,87,107,128,148,168,188,207,228,247,268,287,308,328,348,367,387,407,427,447,468,487,508,527,547,568,588,608,627,647,668,687,708,727,747,767,788,807,828,848,868,888,907,927,948,967,987,1007,1027,1048,1067,1088,1108,1127,1148,1167,1188,1207,1228,1248,1267,1287,1308,1328,1348,1367,1387],"xSR":741.5,"ySR":469.95,"xT1":424.9,"yT1":0,"xT2":1058.1,"yT2":0,"toosoon":0,"cond_shown":"Congruent","ratio_trial":200,"L_num":5,"L_den":10,"R_num":14,"R_den":20,"correct_side":2,"subjID":"sarahpeñavargas21","gender":"1","school":"4","age":"9"},{"start_time":1552074158454,"click_time":1552074160527,"finger_time":1552074160248,"fix_duration":805.6640096996736,"trial":27,"RT":1794,"MT":279,"sideResp":1,"stimulus":[],"xmouse":[763,763,763,763,763,763,763,763,763,763,763,763,763,763,763,763,763,763,763,763,763,763,763,763,763,763,763,769,774,778,778,778,778,778,778,778,778,778,778,778,782,786,792,792,792,792,792,792,792,792,792,792,792,792,792,792,792,792,792,792,792,792,792,792,792,792,792,792,792,792,792,792,792,792,792,792,792,792,792,792,792,794,798,799,799,799,798,793,785,753,727,701,668,655,649,641,640,636,626,594,548,530,496,461],"ymouse":[516,516,516,516,516,516,516,516,516,516,516,516,516,516,516,516,516,516,516,516,516,516,516,516,516,516,516,514,511,509,509,509,509,509,509,509,509,509,509,509,507,504,501,501,501,501,501,501,501,501,501,501,501,501,501,501,501,501,501,501,501,501,501,501,501,501,501,501,501,501,501,501,501,501,501,501,501,501,501,501,501,499,496,495,494,493,491,486,476,436,391,348,283,262,246,231,227,221,207,170,135,126,106,90],"timestamp_mouse":[13,35,53,74,93,113,133,154,173,193,213,233,254,273,293,313,334,354,374,393,413,433,454,473,493,513,533,553,574,593,614,634,653,673,694,713,734,754,774,793,813,834,854,874,893,913,933,954,973,993,1013,1033,1053,1073,1094,1113,1133,1152,1173,1193,1213,1234,1254,1273,1293,1314,1333,1354,1373,1393,1414,1433,1454,1474,1493,1514,1534,1553,1573,1593,1614,1634,1654,1673,1693,1714,1734,1753,1774,1794,1813,1834,1853,1873,1894,1914,1933,1953,1974,1994,2013,2033,2053,2073],"xSR":741.5,"ySR":469.95,"xT1":424.9,"yT1":0,"xT2":1058.1,"yT2":0,"toosoon":0,"cond_shown":"Incongruent","ratio_trial":200,"L_num":4,"L_den":6,"R_num":14,"R_den":30,"correct_side":1,"subjID":"sarahpeñavargas21","gender":"1","school":"4","age":"9"},{"start_time":1552074163409,"click_time":1552074164887,"finger_time":1552074164447,"fix_duration":959.3950897014738,"trial":28,"RT":1038,"MT":440,"sideResp":1,"stimulus":[],"xmouse":[802,802,802,802,802,802,802,802,802,802,802,802,802,802,802,802,802,802,802,802,802,802,802,802,802,802,802,802,802,802,802,802,802,802,802,802,802,802,802,802,802,802,802,802,802,802,802,803,798,787,774,760,733,723,715,707,697,675,666,661,656,651,644,639,633,626,618,594,579,563,544,529,498,491],"ymouse":[521,521,521,521,521,521,521,521,521,521,521,521,521,521,521,521,521,521,521,521,521,521,521,521,521,521,521,521,521,521,521,521,521,521,521,521,521,521,521,521,521,521,521,521,521,521,521,520,505,489,474,457,420,406,387,368,346,305,290,279,267,257,232,221,210,200,189,172,165,155,146,135,110,96],"timestamp_mouse":[18,46,58,78,98,118,138,159,179,199,219,238,259,279,298,318,339,357,378,399,418,439,458,478,498,518,538,559,578,599,618,638,659,678,699,717,738,759,779,798,818,839,859,878,899,919,939,959,978,998,1019,1038,1058,1077,1098,1118,1138,1158,1179,1198,1218,1238,1258,1279,1299,1318,1339,1359,1378,1399,1418,1438,1458,1478],"xSR":741.5,"ySR":469.95,"xT1":424.9,"yT1":0,"xT2":1058.1,"yT2":0,"toosoon":0,"cond_shown":"Incongruent","ratio_trial":300,"L_num":3,"L_den":6,"R_num":4,"R_den":20,"correct_side":1,"subjID":"sarahpeñavargas21","gender":"1","school":"4","age":"9"},{"start_time":1552074169628,"click_time":1552074171347,"finger_time":1552074170747,"fix_duration":917.4411378214749,"trial":29,"RT":1119,"MT":600,"sideResp":2,"stimulus":[],"xmouse":[826,826,826,826,826,826,826,826,826,826,826,826,826,826,826,826,826,826,826,826,826,826,826,826,826,826,826,826,826,826,826,826,826,826,826,826,826,826,826,826,826,826,826,826,826,826,826,826,826,826,826,826,826,826,826,834,845,867,957,992,1009,1015,1022,1025,1026,1027,1029,1031,1031,1031,1031,1031,1031,1031,1031,1031,1031,1031,1038,1044,1046,1048,1050,1057,1060,1064,1068],"ymouse":[519,519,519,519,519,519,519,519,519,519,519,519,519,519,519,519,519,519,519,519,519,519,519,519,519,519,519,519,519,519,519,519,519,519,519,519,519,519,519,519,519,519,519,519,519,519,519,519,519,519,519,519,519,519,519,516,515,510,478,454,438,426,406,395,383,372,362,341,328,321,317,316,314,314,314,314,314,312,285,258,240,224,206,169,143,116,89],"timestamp_mouse":[1,21,39,60,80,99,119,140,160,179,199,219,239,260,280,299,319,340,360,380,399,420,439,460,480,500,519,540,560,580,600,620,640,660,680,699,719,740,759,779,800,819,839,859,880,899,919,940,959,980,999,1020,1039,1060,1080,1099,1119,1140,1159,1179,1199,1219,1241,1259,1279,1299,1320,1341,1359,1380,1399,1419,1441,1459,1479,1498,1519,1539,1559,1579,1599,1619,1639,1659,1680,1700,1719],"xSR":741.5,"ySR":469.95,"xT1":424.9,"yT1":0,"xT2":1058.1,"yT2":0,"toosoon":0,"cond_shown":"Congruent","ratio_trial":100,"L_num":7,"L_den":14,"R_num":9,"R_den":15,"correct_side":2,"subjID":"sarahpeñavargas21","gender":"1","school":"4","age":"9"},{"start_time":1552074177384,"click_time":1552074182367,"finger_time":1552074180688,"fix_duration":334.34053149140794,"trial":30,"RT":3304,"MT":1679,"sideResp":1,"stimulus":[],"xmouse":[814,814,814,814,814,814,814,814,814,814,814,814,814,814,814,814,814,814,814,814,814,814,814,814,814,814,814,814,814,814,814,814,814,814,814,814,814,814,814,814,814,814,814,814,814,814,814,814,814,814,814,814,814,814,814,814,814,814,814,814,814,814,814,814,814,814,814,814,814,814,814,814,814,814,814,814,814,814,814,814,814,814,814,814,814,814,814,814,814,814,814,814,814,814,814,814,814,814,814,814,814,814,814,814,814,814,814,814,814,814,814,814,814,814,814,814,814,814,814,814,814,814,814,814,814,814,814,814,814,814,814,814,814,814,814,814,814,814,814,814,814,814,814,814,814,814,814,814,814,814,814,814,814,814,814,814,814,814,814,814,814,814,814,820,833,864,898,900,900,900,900,900,900,900,900,900,897,892,886,879,870,851,843,835,829,825,811,806,799,795,793,791,790,790,790,790,790,790,790,790,790,790,789,788,787,786,785,783,783,783,782,782,782,781,781,780,779,779,779,778,778,778,778,778,778,778,778,778,778,778,779,786,797,805,808,798,720,677,669,669,669,669,669,669,665,651,586,564,524,465],"ymouse":[531,531,531,531,531,531,531,531,531,531,531,531,531,531,531,531,531,531,531,531,531,531,531,531,531,531,531,531,531,531,531,531,531,531,531,531,531,531,531,531,531,531,531,531,531,531,531,531,531,531,531,531,531,531,531,531,531,531,531,531,531,531,531,531,531,531,531,531,531,531,531,531,531,531,531,531,531,531,531,531,531,531,531,531,531,531,531,531,531,531,531,531,531,531,531,531,531,531,531,531,531,531,531,531,531,531,531,531,531,531,531,531,531,531,531,531,531,531,531,531,531,531,531,531,531,531,531,531,531,531,531,531,531,531,531,531,531,531,531,531,531,531,531,531,531,531,531,531,531,531,531,531,531,531,531,531,531,531,531,531,531,531,531,531,531,525,512,506,500,496,494,494,494,494,494,494,494,494,495,497,498,501,502,503,503,503,503,503,503,503,503,504,504,504,504,504,504,504,504,504,504,504,505,505,506,506,507,509,510,510,510,510,511,512,512,513,513,514,514,514,514,514,515,515,515,515,515,515,515,516,516,514,507,493,473,438,343,303,291,289,289,288,286,282,270,254,214,179,104,5],"timestamp_mouse":[13,39,43,63,84,104,123,143,164,183,204,223,244,264,284,303,324,344,364,384,403,423,444,464,483,503,523,543,563,584,603,624,643,664,683,702,723,743,764,784,803,823,844,863,884,904,923,944,964,983,1002,1023,1044,1063,1084,1104,1124,1143,1163,1182,1204,1224,1244,1263,1284,1304,1323,1344,1364,1384,1404,1423,1444,1464,1483,1504,1523,1544,1564,1584,1603,1623,1644,1663,1683,1704,1723,1744,1764,1783,1803,1824,1844,1863,1883,1904,1923,1943,1963,1983,2003,2023,2044,2063,2084,2103,2123,2144,2164,2184,2204,2223,2244,2264,2284,2303,2323,2344,2365,2384,2403,2423,2444,2464,2483,2504,2523,2543,2564,2584,2604,2627,2643,2664,2683,2703,2723,2743,2763,2783,2803,2823,2842,2862,2882,2904,2923,2943,2964,2985,3003,3023,3043,3063,3083,3104,3123,3144,3163,3184,3204,3224,3243,3263,3284,3304,3323,3344,3363,3384,3404,3423,3444,3464,3484,3503,3523,3543,3564,3583,3604,3623,3643,3663,3684,3704,3723,3744,3763,3784,3804,3823,3844,3864,3883,3904,3924,3943,3963,3983,4004,4024,4044,4063,4083,4103,4123,4142,4164,4183,4204,4224,4244,4263,4283,4303,4324,4342,4363,4383,4403,4424,4444,4463,4484,4503,4524,4544,4564,4583,4603,4623,4643,4664,4684,4704,4723,4743,4763,4783,4804,4823,4843,4863,4883,4904,4924,4943,4963,4983],"xSR":741.5,"ySR":469.95,"xT1":424.9,"yT1":0,"xT2":1058.1,"yT2":0,"toosoon":0,"cond_shown":"Congruent","ratio_trial":300,"L_num":5,"L_den":25,"R_num":6,"R_den":12,"correct_side":2,"subjID":"sarahpeñavargas21","gender":"1","school":"4","age":"9"},{"start_time":1552074183992,"click_time":1552074186127,"finger_time":1552074184507,"fix_duration":303.28467469381513,"trial":31,"RT":515,"MT":1620,"sideResp":1,"stimulus":[],"xmouse":[795,795,795,795,795,795,795,795,795,795,795,795,795,795,795,795,795,795,797,803,826,829,832,837,839,842,843,846,849,853,863,870,884,902,935,1006,1029,1043,1051,1062,1077,1081,1085,1089,1097,1102,1104,1104,1105,1105,1106,1106,1106,1106,1106,1106,1106,1106,1106,1106,1106,1106,1106,1106,1106,1106,1106,1106,1106,1106,1106,1106,1106,1106,1106,1089,1047,989,925,872,814,799,790,787,787,785,785,781,773,755,735,695,677,663,646,633,627,624,621,619,611,607,597,586,571,551,504],"ymouse":[516,516,516,516,516,516,516,516,516,516,516,516,516,516,516,516,516,516,516,512,497,495,493,490,488,486,485,482,479,477,470,464,452,437,413,344,313,293,277,260,232,224,217,208,190,173,168,165,162,158,150,143,136,128,123,115,112,110,110,110,109,109,109,109,109,109,109,109,109,109,109,109,109,109,109,106,100,89,75,65,56,54,52,52,52,52,52,52,52,52,52,50,50,50,50,50,50,50,50,50,50,50,50,50,50,50,50],"timestamp_mouse":[14,39,56,75,96,115,135,156,176,195,215,235,256,276,296,315,335,356,376,396,415,435,455,476,495,515,535,555,575,596,615,635,655,676,695,715,735,755,776,795,816,835,855,875,895,916,935,955,975,996,1015,1035,1055,1076,1095,1115,1136,1155,1176,1195,1215,1235,1256,1276,1295,1315,1336,1355,1375,1396,1416,1436,1455,1475,1496,1516,1535,1555,1575,1595,1615,1634,1655,1675,1695,1715,1736,1755,1776,1795,1816,1835,1855,1875,1896,1916,1935,1955,1974,1996,2015,2035,2055,2075,2096,2116,2135],"xSR":741.5,"ySR":469.95,"xT1":424.9,"yT1":0,"xT2":1058.1,"yT2":0,"toosoon":0,"cond_shown":"Congruent","ratio_trial":300,"L_num":2,"L_den":10,"R_num":12,"R_den":24,"correct_side":2,"subjID":"sarahpeñavargas21","gender":"1","school":"4","age":"9"},{"start_time":1552074195495,"click_time":1552074197208,"finger_time":1552074196208,"fix_duration":1305.5644920908046,"trial":32,"RT":713,"MT":1000,"sideResp":1,"stimulus":[],"xmouse":[798,798,798,798,798,798,798,798,798,798,798,798,798,798,798,798,798,798,798,798,798,798,806,828,829,835,837,837,837,837,837,837,837,837,838,842,856,863,869,873,874,875,872,867,854,844,824,814,804,794,786,779,761,746,731,711,678,666,657,652,648,646,646,646,645,645,643,630,612,590,567,550,530,527,526,526,526,526,526,526,526,526,524,520,514,506],"ymouse":[522,522,522,522,522,522,522,522,522,522,522,522,522,522,522,522,522,522,522,522,522,522,522,521,521,521,520,520,520,520,520,520,520,520,520,518,506,497,484,472,460,431,421,408,390,378,359,351,346,339,334,331,324,317,310,301,286,280,275,271,267,264,264,264,264,264,260,245,227,208,177,156,133,128,127,127,127,127,127,127,127,127,124,117,108,93],"timestamp_mouse":[13,42,52,72,93,114,133,153,172,192,212,232,253,273,292,312,333,352,372,393,413,433,454,472,493,512,533,553,573,592,612,633,652,672,692,713,733,752,772,793,812,834,852,873,892,913,933,952,972,992,1012,1032,1052,1073,1092,1112,1133,1152,1173,1192,1213,1233,1253,1273,1293,1313,1333,1353,1372,1392,1413,1432,1452,1473,1493,1512,1533,1553,1573,1593,1613,1632,1652,1674,1692,1713],"xSR":741.5,"ySR":469.95,"xT1":424.9,"yT1":0,"xT2":1058.1,"yT2":0,"toosoon":0,"cond_shown":"Congruent","ratio_trial":300,"L_num":11,"L_den":22,"R_num":4,"R_den":20,"correct_side":1,"subjID":"sarahpeñavargas21","gender":"1","school":"4","age":"9"},{"start_time":1552074202901,"click_time":1552074205467,"finger_time":1552074204688,"fix_duration":1252.0682484997747,"trial":33,"RT":1787,"MT":779,"sideResp":2,"stimulus":[],"xmouse":[776,776,776,776,776,776,776,776,776,776,776,776,776,776,776,776,776,776,776,776,776,776,776,776,776,776,776,776,776,776,776,776,776,776,776,776,776,776,776,776,776,776,776,776,776,776,776,776,776,776,776,776,776,776,776,776,776,776,776,776,776,776,776,776,776,776,776,776,776,776,776,776,776,776,776,776,776,776,776,776,776,776,776,776,776,776,776,776,785,798,831,849,861,865,868,871,878,901,915,915,915,915,915,915,915,915,915,915,915,915,915,915,915,915,915,915,915,915,915,915,915,915,915,915,915,915,915,915,1066],"ymouse":[509,509,509,509,509,509,509,509,509,509,509,509,509,509,509,509,509,509,509,509,509,509,509,509,509,509,509,509,509,509,509,509,509,509,509,509,509,509,509,509,509,509,509,509,509,509,509,509,509,509,509,509,509,509,509,509,509,509,509,509,509,509,509,509,509,509,509,509,509,509,509,509,509,509,509,509,509,509,509,509,509,509,509,509,509,509,509,509,479,440,314,241,159,134,114,92,72,25,2,2,2,2,2,2,2,2,2,2,2,2,2,2,2,2,2,2,2,2,2,2,2,2,2,2,2,2,2,2,14],"timestamp_mouse":[14,27,46,66,86,106,127,146,166,187,207,226,246,266,286,306,327,346,366,387,408,427,446,466,487,507,526,547,567,587,607,626,646,667,687,706,726,746,766,788,806,826,846,867,887,907,926,947,967,986,1006,1027,1047,1066,1088,1107,1126,1147,1168,1186,1207,1226,1247,1267,1286,1306,1326,1347,1366,1387,1406,1428,1447,1467,1487,1507,1526,1546,1567,1586,1607,1627,1647,1667,1687,1706,1727,1746,1768,1787,1806,1826,1847,1866,1886,1907,1927,1948,1966,1987,2007,2026,2047,2067,2086,2107,2126,2146,2167,2186,2207,2227,2247,2266,2287,2306,2327,2347,2366,2386,2407,2427,2447,2466,2486,2506,2526,2547,2566],"xSR":741.5,"ySR":469.95,"xT1":424.9,"yT1":0,"xT2":1058.1,"yT2":0,"toosoon":0,"cond_shown":"Congruent","ratio_trial":200,"L_num":6,"L_den":20,"R_num":11,"R_den":22,"correct_side":2,"subjID":"sarahpeñavargas21","gender":"1","school":"4","age":"9"},{"start_time":1552074208519,"click_time":1552074210068,"finger_time":1552074209547,"fix_duration":250,"trial":34,"RT":1028,"MT":521,"sideResp":2,"stimulus":[],"xmouse":[776,776,776,776,776,776,776,776,776,776,776,776,776,776,776,776,776,776,776,776,776,776,776,776,776,776,776,776,776,776,776,776,776,776,776,776,776,776,776,776,776,776,776,776,776,776,776,776,776,788,808,845,909,939,959,977,993,1024,1035,1043,1048,1053,1065,1067,1070,1073,1075,1077,1079,1080,1080,1080,1065,1061,1058,1057,1057,1071],"ymouse":[520,520,520,520,520,520,520,520,520,520,520,520,520,520,520,520,520,520,520,520,520,520,520,520,520,520,520,520,520,520,520,520,520,520,520,520,520,520,520,520,520,520,520,520,520,520,520,520,520,507,492,461,406,381,363,348,332,300,288,278,272,265,253,250,246,242,240,235,227,214,205,193,153,131,106,75,48,22],"timestamp_mouse":[13,34,48,69,88,108,128,149,168,189,210,229,249,268,289,309,329,350,368,390,410,429,448,468,489,508,529,548,569,588,608,628,648,669,689,709,728,748,769,789,809,828,849,869,888,908,928,948,968,988,1009,1028,1048,1068,1090,1108,1128,1149,1168,1188,1209,1229,1249,1268,1289,1308,1328,1348,1369,1388,1408,1429,1448,1468,1489,1509,1528,1549],"xSR":741.5,"ySR":469.95,"xT1":424.9,"yT1":0,"xT2":1058.1,"yT2":0,"toosoon":0,"cond_shown":"Congruent","ratio_trial":200,"L_num":3,"L_den":10,"R_num":11,"R_den":22,"correct_side":2,"subjID":"sarahpeñavargas21","gender":"1","school":"4","age":"9"},{"start_time":1552074213070,"click_time":1552074214707,"finger_time":1552074213868,"fix_duration":542.9531942367593,"trial":35,"RT":798,"MT":839,"sideResp":1,"stimulus":[],"xmouse":[825,825,825,825,825,825,825,825,825,825,825,825,825,825,825,825,825,825,825,825,825,825,825,825,825,825,825,825,825,825,825,825,825,825,825,824,822,815,805,796,770,754,740,728,707,701,695,684,678,671,655,648,641,636,629,629,629,629,629,629,629,629,629,629,629,629,629,629,629,629,629,629,629,629,629,629,627,620,600,576,533,522],"ymouse":[512,512,512,512,512,512,512,512,512,512,512,512,512,512,512,512,512,512,512,512,512,512,512,512,512,512,512,512,512,512,512,512,512,512,512,512,510,498,479,460,415,391,370,350,317,304,291,264,243,220,171,149,128,111,91,90,90,90,90,90,90,90,90,90,90,90,90,90,90,90,90,90,90,90,90,90,89,86,81,75,60,55],"timestamp_mouse":[28,42,57,78,98,117,137,158,178,197,217,238,257,277,298,317,337,357,378,398,417,437,458,478,498,517,538,557,577,598,618,638,657,677,698,717,737,757,778,798,817,837,857,878,899,917,938,957,977,997,1017,1037,1058,1077,1099,1117,1138,1158,1177,1197,1217,1237,1258,1277,1297,1318,1337,1358,1377,1398,1417,1439,1458,1477,1497,1518,1537,1557,1577,1598,1618,1637],"xSR":741.5,"ySR":469.95,"xT1":424.9,"yT1":0,"xT2":1058.1,"yT2":0,"toosoon":0,"cond_shown":"Incongruent","ratio_trial":100,"L_num":8,"L_den":20,"R_num":1,"R_den":2,"correct_side":2,"subjID":"sarahpeñavargas21","gender":"1","school":"4","age":"9"},{"start_time":1552074229917,"click_time":1552074232627,"finger_time":1552074231268,"fix_duration":1407.8941435778186,"trial":36,"RT":1351,"MT":1359,"sideResp":1,"stimulus":[],"xmouse":[781,781,781,781,781,781,781,781,781,781,781,781,781,781,781,781,781,781,781,781,781,781,781,781,781,781,781,781,781,781,781,781,781,781,781,781,781,781,781,781,781,781,781,781,781,781,781,781,781,781,781,781,781,781,781,781,781,781,781,781,781,781,781,781,781,781,752,688,616,436,354,282,218,159,34,0,0,0,0,0,0,0,0,0,0,0,0,0,0,0,0,0,0,0,0,0,0,0,0,0,0,0,0,0,0,0,0,0,0,0,0,0,0,0,0,0,0,0,0,0,0,0,0,0,0,526,527,527,527,526,526,526,525,525,525,524],"ymouse":[509,509,509,509,509,509,509,509,509,509,509,509,509,509,509,509,509,509,509,509,509,509,509,509,509,509,509,509,509,509,509,509,509,509,509,509,509,509,509,509,509,509,509,509,509,509,509,509,509,509,509,509,509,509,509,509,509,509,509,509,509,509,509,509,509,509,509,504,486,426,398,373,347,322,263,216,164,97,62,17,5,5,5,5,5,5,5,5,5,5,5,5,5,5,5,5,5,5,5,5,5,5,5,5,5,5,5,5,5,5,5,5,5,5,5,5,5,5,5,5,5,5,5,5,5,1,4,5,7,8,8,8,8,8,8,10],"timestamp_mouse":[13,42,51,71,90,111,131,151,170,191,210,230,251,270,291,311,332,351,370,391,410,431,450,470,491,510,531,550,571,591,612,631,651,670,691,711,730,751,770,790,811,831,850,871,891,910,931,951,970,990,1010,1030,1051,1071,1090,1110,1131,1150,1171,1191,1210,1230,1251,1270,1291,1311,1331,1351,1371,1392,1410,1431,1450,1471,1492,1510,1530,1550,1570,1591,1610,1631,1650,1671,1690,1710,1730,1750,1770,1792,1811,1830,1850,1870,1891,1911,1931,1951,1970,1991,2010,2030,2051,2070,2092,2110,2130,2151,2171,2191,2211,2230,2250,2270,2290,2311,2331,2351,2371,2392,2410,2431,2450,2471,2490,2510,2530,2550,2572,2593,2611,2630,2650,2670,2691,2710],"xSR":741.5,"ySR":469.95,"xT1":424.9,"yT1":0,"xT2":1058.1,"yT2":0,"toosoon":0,"cond_shown":"Congruent","ratio_trial":100,"L_num":3,"L_den":6,"R_num":2,"R_den":5,"correct_side":1,"subjID":"sarahpeñavargas21","gender":"1","school":"4","age":"9"},{"start_time":1552074237153,"click_time":1552074238847,"finger_time":1552074238588,"fix_duration":884.9128307121742,"trial":37,"RT":1435,"MT":259,"sideResp":1,"stimulus":[],"xmouse":[749,749,749,749,749,749,749,749,749,749,749,749,749,749,749,749,749,749,749,749,749,749,749,749,749,749,749,749,749,749,749,749,749,749,749,749,749,749,749,749,749,749,749,749,749,749,749,749,749,749,749,749,749,749,749,749,749,749,749,749,749,749,749,749,749,749,749,749,753,755,758,761,764,769,769,769,767,765,742,721,684,604,559,526,499],"ymouse":[543,543,543,543,543,543,543,543,543,543,543,543,543,543,543,543,543,543,543,543,543,543,543,543,543,543,543,543,543,543,543,543,543,543,543,543,543,543,543,543,543,543,543,543,543,543,543,543,543,543,543,543,543,543,543,543,543,543,543,543,543,543,543,543,543,543,543,539,516,494,473,439,421,381,365,354,350,341,305,279,240,171,136,106,70],"timestamp_mouse":[15,38,55,74,95,116,135,155,174,194,214,234,254,274,294,315,335,355,374,395,414,434,455,474,495,515,536,555,574,594,615,634,654,675,694,714,734,755,774,794,814,834,855,874,896,915,935,954,975,995,1014,1035,1055,1075,1095,1115,1134,1155,1174,1195,1216,1234,1254,1275,1295,1314,1334,1354,1375,1395,1415,1435,1455,1475,1494,1515,1534,1555,1576,1594,1615,1635,1655,1674,1694],"xSR":741.5,"ySR":469.95,"xT1":424.9,"yT1":0,"xT2":1058.1,"yT2":0,"toosoon":0,"cond_shown":"Congruent","ratio_trial":200,"L_num":8,"L_den":15,"R_num":3,"R_den":9,"correct_side":1,"subjID":"sarahpeñavargas21","gender":"1","school":"4","age":"9"},{"start_time":1552074242441,"click_time":1552074244687,"finger_time":1552074244247,"fix_duration":250,"trial":38,"RT":1806,"MT":440,"sideResp":2,"stimulus":[],"xmouse":[772,772,772,772,772,772,772,772,772,772,772,772,772,772,772,772,772,772,772,772,772,772,772,772,772,772,772,772,772,772,772,772,772,772,772,772,772,772,772,772,772,772,772,772,772,772,772,772,772,772,772,772,772,772,772,772,772,772,772,772,772,772,772,772,772,772,772,772,772,772,772,772,772,772,772,772,772,772,772,772,772,772,772,772,772,772,772,772,809,838,926,955,979,1001,1031,1097,1117,1128,1135,1138,1140,1144,1145,1145,1145,1145,1145,1144,1144,1141,1124,1118,1116],"ymouse":[530,530,530,530,530,530,530,530,530,530,530,530,530,530,530,530,530,530,530,530,530,530,530,530,530,530,530,530,530,530,530,530,530,530,530,530,530,530,530,530,530,530,530,530,530,530,530,530,530,530,530,530,530,530,530,530,530,530,530,530,530,530,530,530,530,530,530,530,530,530,530,530,530,530,530,530,530,530,530,530,530,530,530,530,530,530,530,530,500,483,432,415,402,387,365,309,292,282,276,273,271,267,266,266,266,253,242,228,215,196,131,102,85],"timestamp_mouse":[13,38,47,66,86,106,127,146,166,187,206,227,247,266,287,307,326,346,367,386,406,427,446,467,486,508,527,547,567,586,606,626,647,666,686,707,727,747,766,786,806,827,847,866,886,906,926,947,967,986,1007,1026,1046,1067,1086,1106,1126,1147,1167,1186,1208,1227,1247,1267,1286,1306,1326,1346,1366,1386,1406,1426,1447,1467,1486,1507,1526,1547,1566,1586,1606,1626,1646,1667,1687,1706,1726,1748,1766,1786,1806,1827,1846,1867,1887,1906,1927,1946,1966,1986,2006,2027,2046,2066,2086,2106,2127,2146,2166,2186,2206,2226,2246],"xSR":741.5,"ySR":469.95,"xT1":424.9,"yT1":0,"xT2":1058.1,"yT2":0,"toosoon":0,"cond_shown":"Incongruent","ratio_trial":100,"L_num":12,"L_den":24,"R_num":9,"R_den":15,"correct_side":2,"subjID":"sarahpeñavargas21","gender":"1","school":"4","age":"9"},{"start_time":1552074247669,"click_time":1552074249109,"finger_time":1552074248467,"fix_duration":1359.811108130987,"trial":39,"RT":798,"MT":642,"sideResp":1,"stimulus":[],"xmouse":[791,791,791,791,791,791,791,791,791,791,791,791,791,791,791,791,791,791,791,791,791,791,791,791,791,791,791,791,791,791,791,791,791,791,791,791,801,810,835,895,914,928,930,927,916,903,877,865,818,798,779,753,740,711,692,675,655,633,611,580,566,561,560,553,551,546,542,540,537,531,529,524],"ymouse":[527,527,527,527,527,527,527,527,527,527,527,527,527,527,527,527,527,527,527,527,527,527,527,527,527,527,527,527,527,527,527,527,527,527,527,527,522,516,501,461,448,434,427,394,376,358,336,329,310,305,299,293,289,278,272,266,260,254,248,237,229,225,215,171,151,135,125,118,113,105,102,99],"timestamp_mouse":[18,38,58,78,98,118,139,159,178,198,218,239,258,278,298,318,338,358,379,399,418,439,459,478,499,519,539,559,578,599,618,638,659,678,699,719,738,759,778,798,818,838,858,880,898,919,939,958,980,998,1018,1038,1059,1079,1098,1118,1139,1158,1178,1198,1219,1238,1258,1279,1298,1319,1339,1358,1379,1398,1418,1439],"xSR":741.5,"ySR":469.95,"xT1":424.9,"yT1":0,"xT2":1058.1,"yT2":0,"toosoon":0,"cond_shown":"Congruent","ratio_trial":300,"L_num":20,"L_den":25,"R_num":13,"R_den":26,"correct_side":1,"subjID":"sarahpeñavargas21","gender":"1","school":"4","age":"9"},{"start_time":1552074252346,"click_time":1552074253307,"finger_time":1552074252967,"fix_duration":1255.1973123413443,"trial":40,"RT":621,"MT":340,"sideResp":2,"stimulus":[],"xmouse":[762,762,762,762,762,762,762,762,762,762,762,762,762,762,762,762,762,762,762,762,762,762,762,762,762,762,763,771,795,817,839,871,888,907,929,945,977,987,998,1011,1017,1027,1030,1034,1037,1042,1052,1058,1061],"ymouse":[507,507,507,507,507,507,507,507,507,507,507,507,507,507,507,507,507,507,507,507,507,507,507,507,507,507,507,505,491,481,473,455,444,429,409,394,344,318,282,238,189,125,104,89,77,65,37,28,23],"timestamp_mouse":[11,35,42,61,82,102,121,141,161,182,202,221,241,261,281,301,322,342,362,381,403,421,441,462,481,502,521,541,562,581,602,621,642,661,682,701,721,742,762,781,802,821,841,861,881,901,921,941,961],"xSR":741.5,"ySR":469.95,"xT1":424.9,"yT1":0,"xT2":1058.1,"yT2":0,"toosoon":0,"cond_shown":"Congruent","ratio_trial":200,"L_num":1,"L_den":2,"R_num":21,"R_den":30,"correct_side":2,"subjID":"sarahpeñavargas21","gender":"1","school":"4","age":"9"},{"start_time":1552074254998,"click_time":1552074256907,"finger_time":1552074256028,"fix_duration":268.899156578561,"trial":41,"RT":1030,"MT":879,"sideResp":1,"stimulus":[],"xmouse":[798,798,798,798,798,798,798,798,798,798,798,798,798,798,798,798,798,798,798,798,798,798,798,798,798,798,798,798,798,798,798,798,798,798,798,798,798,798,798,798,798,798,798,795,786,774,768,767,766,766,774,792,797,800,800,798,795,790,785,774,768,762,753,747,745,745,743,742,737,734,731,725,721,717,717,717,717,717,707,692,671,637,617,600,590,590,590,590,590,587,579,570,561,550,527,520],"ymouse":[509,509,509,509,509,509,509,509,509,509,509,509,509,509,509,509,509,509,509,509,509,509,509,509,509,509,509,509,509,509,509,509,509,509,509,509,509,509,509,509,509,509,509,510,513,516,518,518,518,518,499,427,386,331,307,289,270,255,238,208,193,178,162,148,143,136,131,127,118,113,110,102,99,96,95,95,95,95,94,92,89,83,80,76,74,74,74,74,74,74,74,74,74,73,69,67],"timestamp_mouse":[13,35,49,69,90,110,130,149,169,190,209,230,249,269,290,309,329,349,370,389,410,430,449,469,489,510,530,550,570,590,610,630,649,670,690,710,729,750,769,789,809,829,849,870,889,909,929,950,969,990,1009,1030,1050,1071,1089,1109,1129,1150,1169,1189,1209,1230,1250,1270,1289,1310,1329,1348,1370,1389,1409,1430,1450,1470,1489,1509,1529,1549,1570,1589,1610,1630,1650,1669,1689,1709,1729,1749,1769,1790,1808,1830,1849,1870,1889,1909],"xSR":741.5,"ySR":469.95,"xT1":424.9,"yT1":0,"xT2":1058.1,"yT2":0,"toosoon":0,"cond_shown":"Incongruent","ratio_trial":100,"L_num":9,"L_den":15,"R_num":13,"R_den":26,"correct_side":1,"subjID":"sarahpeñavargas21","gender":"1","school":"4","age":"9"},{"start_time":1552074260618,"click_time":1552074262187,"finger_time":1552074261648,"fix_duration":648.2447793271775,"trial":42,"RT":1030,"MT":539,"sideResp":2,"stimulus":[],"xmouse":[798,798,798,798,798,798,798,798,798,798,798,798,798,798,798,798,798,798,798,798,798,798,798,798,798,798,798,798,798,798,798,798,798,798,798,798,798,798,798,798,798,798,798,798,798,798,798,798,807,827,841,852,861,868,886,895,906,912,926,935,943,957,973,989,1021,1041,1057,1068,1076,1076,1076,1076,1076,1076,1075,1075,1075,1075,1075],"ymouse":[541,541,541,541,541,541,541,541,541,541,541,541,541,541,541,541,541,541,541,541,541,541,541,541,541,541,541,541,541,541,541,541,541,541,541,541,541,541,541,541,541,541,541,541,541,541,541,541,536,525,516,510,504,499,488,481,474,469,459,453,447,433,418,399,349,310,270,229,173,160,147,136,131,119,113,109,105,101,90],"timestamp_mouse":[12,38,49,69,89,110,129,150,170,189,210,230,249,269,288,310,330,350,370,390,409,430,450,470,490,510,530,549,568,590,610,628,649,669,689,710,730,749,769,789,809,830,849,870,890,909,929,949,970,990,1009,1030,1049,1069,1089,1109,1130,1149,1169,1190,1209,1230,1249,1269,1289,1309,1329,1349,1369,1389,1410,1429,1450,1470,1490,1509,1529,1550,1569],"xSR":741.5,"ySR":469.95,"xT1":424.9,"yT1":0,"xT2":1058.1,"yT2":0,"toosoon":0,"cond_shown":"Incongruent","ratio_trial":200,"L_num":14,"L_den":30,"R_num":6,"R_den":9,"correct_side":2,"subjID":"sarahpeñavargas21","gender":"1","school":"4","age":"9"},{"start_time":1552074264983,"click_time":1552074266887,"finger_time":1552074266087,"fix_duration":1293.623774220052,"trial":43,"RT":1104,"MT":800,"sideResp":1,"stimulus":[],"xmouse":[764,764,764,764,764,764,764,764,764,764,763,768,768,768,768,768,768,768,769,769,769,769,769,769,769,769,769,769,769,769,769,769,769,769,769,769,769,769,769,769,769,769,769,769,769,769,769,769,769,769,769,772,774,776,777,777,775,770,764,758,752,737,730,723,715,709,692,677,665,649,617,603,594,589,587,587,587,586,585,582,576,558,550,544,541,540,540,540,540,540,540,540,540,540,537,523],"ymouse":[534,534,534,534,534,534,534,534,534,534,533,529,529,529,529,529,529,529,529,529,529,529,529,529,529,529,529,529,529,529,529,529,529,529,529,529,529,529,529,529,529,529,529,529,529,529,529,529,529,529,529,520,502,486,470,450,399,377,355,335,317,283,266,250,235,220,190,172,160,149,126,117,109,106,103,103,103,100,91,83,74,58,53,51,51,50,50,50,50,50,50,50,50,50,50,50],"timestamp_mouse":[10,25,47,65,84,105,125,144,164,184,204,224,245,265,285,304,324,344,364,384,405,424,445,465,485,505,524,545,565,585,605,624,644,664,685,705,725,744,765,784,805,825,845,865,885,904,925,945,965,984,1004,1025,1044,1064,1084,1104,1123,1144,1164,1185,1205,1224,1244,1264,1284,1306,1323,1344,1364,1385,1408,1424,1444,1464,1485,1505,1524,1544,1564,1585,1604,1624,1645,1664,1684,1705,1724,1744,1765,1785,1804,1824,1844,1864,1884,1904],"xSR":741.5,"ySR":469.95,"xT1":424.9,"yT1":0,"xT2":1058.1,"yT2":0,"toosoon":0,"cond_shown":"Congruent","ratio_trial":200,"L_num":16,"L_den":20,"R_num":12,"R_den":20,"correct_side":1,"subjID":"sarahpeñavargas21","gender":"1","school":"4","age":"9"},{"start_time":1552074268858,"click_time":1552074270848,"finger_time":1552074269947,"fix_duration":250,"trial":44,"RT":1089,"MT":901,"sideResp":2,"stimulus":[],"xmouse":[779,779,779,779,779,779,779,779,779,779,779,779,779,779,779,779,779,779,779,779,779,779,779,779,779,779,779,779,779,779,779,779,779,779,779,779,779,779,779,779,779,779,779,779,779,779,779,779,779,779,779,784,819,835,850,864,875,900,918,944,972,1003,1042,1048,1052,1053,1053,1053,1053,1049,1045,1042,1039,1039,1039,1039,1039,1039,1039,1039,1039,1039,1039,1039,1039,1039,1039,1039,1039,1040,1041,1041,1041,1041,1041,1042,1045,1052,1057,1062],"ymouse":[507,507,507,507,507,507,507,507,507,507,507,507,507,507,507,507,507,507,507,507,507,507,507,507,507,507,507,507,507,507,507,507,507,507,507,507,507,507,507,507,507,507,507,507,507,507,507,507,507,507,507,507,483,473,461,451,437,404,382,350,324,293,236,216,197,183,168,139,125,110,97,87,79,78,78,78,78,78,78,78,78,78,78,78,78,78,78,78,77,75,75,75,75,75,75,74,72,68,65,63],"timestamp_mouse":[13,37,50,69,89,109,129,149,169,189,209,229,249,269,289,309,330,350,368,389,409,429,449,469,489,509,529,549,570,589,610,628,649,669,689,709,729,750,768,790,809,828,849,869,890,909,929,949,970,990,1009,1030,1049,1070,1089,1110,1130,1149,1169,1189,1210,1229,1249,1270,1289,1309,1329,1349,1370,1389,1409,1430,1449,1469,1489,1510,1529,1549,1570,1589,1610,1629,1649,1669,1690,1710,1729,1749,1769,1790,1810,1829,1849,1870,1889,1909,1929,1949,1970,1989],"xSR":741.5,"ySR":469.95,"xT1":424.9,"yT1":0,"xT2":1058.1,"yT2":0,"toosoon":0,"cond_shown":"Incongruent","ratio_trial":300,"L_num":4,"L_den":20,"R_num":2,"R_den":4,"correct_side":2,"subjID":"sarahpeñavargas21","gender":"1","school":"4","age":"9"},{"start_time":1552074272599,"click_time":1552074274248,"finger_time":1552074273568,"fix_duration":470.62890301786985,"trial":45,"RT":969,"MT":680,"sideResp":2,"stimulus":[],"xmouse":[804,804,804,804,804,804,804,804,804,804,804,804,804,804,804,804,804,804,804,804,804,804,804,804,804,804,804,804,804,804,804,804,804,804,804,804,804,804,804,804,804,804,804,818,826,833,835,837,839,845,854,861,869,881,893,921,944,971,999,1023,1074,1094,1115,1139,1150,1160,1174,1178,1179,1181,1181,1182,1182,1182,1182,1182,1182,1182,1182,1181,1176,1164,1151],"ymouse":[514,514,514,514,514,514,514,514,514,514,514,514,514,514,514,514,514,514,514,514,514,514,514,514,514,514,514,514,514,514,514,514,514,514,514,514,514,514,514,514,514,514,513,499,491,484,478,474,469,459,441,429,418,396,375,333,305,277,249,228,184,166,150,129,112,96,69,62,55,51,48,43,42,42,42,42,41,41,41,41,39,34,30],"timestamp_mouse":[10,40,48,68,89,108,128,149,169,189,208,229,248,269,288,308,329,348,369,389,408,429,449,468,487,509,528,548,569,588,608,629,649,669,689,708,728,748,768,788,808,828,848,868,887,908,929,948,969,988,1010,1028,1048,1069,1089,1110,1128,1148,1168,1189,1210,1228,1248,1269,1288,1309,1327,1348,1368,1387,1408,1428,1448,1468,1489,1509,1529,1549,1567,1588,1608,1628,1648],"xSR":741.5,"ySR":469.95,"xT1":424.9,"yT1":0,"xT2":1058.1,"yT2":0,"toosoon":0,"cond_shown":"Incongruent","ratio_trial":100,"L_num":10,"L_den":25,"R_num":9,"R_den":18,"correct_side":2,"subjID":"sarahpeñavargas21","gender":"1","school":"4","age":"9"},{"start_time":1552074276356,"click_time":1552074277927,"finger_time":1552074277307,"fix_duration":887.4921560525656,"trial":46,"RT":951,"MT":620,"sideResp":2,"stimulus":[],"xmouse":[762,762,762,762,762,762,762,762,762,762,762,762,762,762,762,762,762,762,762,762,762,762,762,762,762,762,762,762,762,762,762,762,766,790,804,812,816,817,818,818,818,818,818,818,818,822,828,834,848,855,863,872,885,920,936,964,1011,1047,1084,1092,1095,1096,1099,1113,1119,1123,1127,1129,1131,1131,1131,1131,1131,1127,1125,1124,1123,1121,1117],"ymouse":[545,545,545,545,545,545,545,545,545,545,545,545,545,545,545,545,545,545,545,545,545,545,545,545,545,545,545,545,545,545,545,545,544,518,501,490,484,483,482,482,482,482,482,482,482,478,474,469,461,456,449,442,430,399,384,356,322,296,270,264,261,259,253,229,218,209,198,185,161,150,143,136,131,123,119,117,114,110,97],"timestamp_mouse":[20,46,52,71,91,112,132,150,172,192,211,231,252,271,291,311,332,351,372,392,411,432,451,472,491,511,532,551,572,591,612,632,652,672,691,712,731,751,771,791,811,831,852,872,892,912,931,951,971,992,1012,1032,1052,1070,1092,1112,1132,1151,1172,1192,1211,1231,1251,1271,1291,1311,1331,1350,1371,1391,1411,1431,1452,1471,1491,1511,1532,1550,1571],"xSR":741.5,"ySR":469.95,"xT1":424.9,"yT1":0,"xT2":1058.1,"yT2":0,"toosoon":0,"cond_shown":"Incongruent","ratio_trial":100,"L_num":13,"L_den":26,"R_num":6,"R_den":10,"correct_side":2,"subjID":"sarahpeñavargas21","gender":"1","school":"4","age":"9"},{"start_time":1552074279280,"click_time":1552074280448,"finger_time":1552074280027,"fix_duration":250,"trial":47,"RT":747,"MT":421,"sideResp":2,"stimulus":[],"xmouse":[760,760,760,760,760,760,760,760,760,760,760,760,760,760,760,760,760,760,760,760,760,760,760,760,760,760,760,760,760,760,760,760,760,761,769,808,834,867,875,887,902,916,938,948,958,976,983,1041,1059,1079,1090,1096,1101,1103,1105,1105,1105,1105,1105],"ymouse":[521,521,521,521,521,521,521,521,521,521,521,521,521,521,521,521,521,521,521,521,521,521,521,521,521,521,521,521,521,521,521,521,521,521,515,493,478,458,454,446,435,425,406,397,387,371,359,268,236,204,185,172,154,145,133,125,114,100,95],"timestamp_mouse":[12,35,47,68,87,108,127,146,166,188,208,228,247,266,288,308,327,347,367,387,407,428,447,467,487,507,528,547,567,586,607,627,646,667,687,707,728,747,767,788,807,828,847,867,887,907,928,947,968,987,1007,1027,1047,1068,1087,1108,1128,1147,1168],"xSR":741.5,"ySR":469.95,"xT1":424.9,"yT1":0,"xT2":1058.1,"yT2":0,"toosoon":0,"cond_shown":"Congruent","ratio_trial":100,"L_num":6,"L_den":12,"R_num":15,"R_den":25,"correct_side":2,"subjID":"sarahpeñavargas21","gender":"1","school":"4","age":"9"},{"start_time":1552074282027,"click_time":1552074283587,"finger_time":1552074283268,"fix_duration":297.6201525891936,"trial":48,"RT":1241,"MT":319,"sideResp":1,"stimulus":[],"xmouse":[779,779,779,779,779,779,779,779,779,779,779,779,779,779,779,779,779,779,779,779,779,779,779,779,779,779,779,779,779,779,779,779,779,779,779,779,779,779,779,779,779,779,779,779,779,779,779,779,779,779,779,779,779,779,779,779,779,779,779,779,774,760,732,703,670,629,609,602,596,590,583,565,559,553,544,536,526,525,524],"ymouse":[514,514,514,514,514,514,514,514,514,514,514,514,514,514,514,514,514,514,514,514,514,514,514,514,514,514,514,514,514,514,514,514,514,514,514,514,514,514,514,514,514,514,514,514,514,514,514,514,514,514,514,514,514,514,514,514,514,514,514,514,5