[{"start_time":1552328235332,"click_time":1552328242063,"finger_time":1552328235342,"fix_duration":1183.2762171777158,"trial":0,"RT":10,"MT":6721,"sideResp":2,"stimulus":"img/500/randomdotsizeEA/L/8_Ratio_500_L_8_R_4.png","xmouse":[784,784,784,784,784,784,784,784,784,784,784,784,784,784,784,784,784,784,785,786,786,786,786,786,786,786,786,786,786,787,787,787,787,787,787,787,787,787,787,786,785,785,785,785,785,785,785,785,785,785,785,785,786,787,790,797,800,802,804,805,805,803,802,801,800,797,796,794,793,792,791,791,790,789,788,785,784,784,784,784,784,784,784,784,784,784,784,784,784,784,784,784,784,782,781,780,780,780,779,778,778,777,776,775,774,772,771,770,770,770,770,770,770,770,770,770,770,770,770,770,770,770,770,770,770,770,770,770,770,770,770,770,770,770,770,770,770,770,770,770,770,770,770,770,770,770,770,770,770,770,770,770,770,770,770,770,770,770,770,773,773,773,773,776,777,779,780,781,782,783,784,784,784,784,784,784,784,784,784,784,784,784,784,786,787,787,787,787,785,784,783,783,783,782,782,781,781,781,781,781,781,781,780,780,780,780,780,780,780,780,780,780,780,780,780,780,780,780,780,780,780,780,778,777,777,777,777,777,777,777,777,777,777,777,777,777,777,777,777,777,777,777,777,777,777,777,777,777,777,777,777,777,777,777,777,777,777,777,777,777,777,777,777,777,777,777,777,777,777,777,777,777,777,777,777,777,777,777,777,776,776,776,776,777,777,778,778,778,779,782,784,784,784,784,784,784,784,784,784,784,784,784,784,784,784,784,784,784,786,795,809,816,823,834,850,872,885,898,914,930,961,974,986,995,1005,1016,1021,1026,1031,1039,1051,1057,1061,1065,1071,1080,1088],"ymouse":[494,494,494,494,494,494,494,494,494,494,494,494,494,494,494,494,494,494,494,494,494,494,494,494,494,494,494,494,494,494,494,494,494,494,494,496,501,506,515,521,528,530,532,536,541,551,553,556,559,563,574,580,585,592,609,619,622,624,627,627,628,630,632,633,633,636,636,637,638,638,639,639,639,640,640,640,641,641,641,641,641,641,641,641,641,641,641,641,641,641,641,641,641,641,641,641,641,641,640,640,639,636,635,634,632,630,629,628,627,627,627,627,627,627,627,627,627,627,627,627,627,627,627,627,627,627,627,627,627,627,627,627,627,627,627,627,627,627,627,627,627,627,627,627,627,627,627,627,627,627,627,627,627,627,627,627,627,627,627,625,624,624,624,624,624,624,624,624,624,623,622,622,622,622,622,622,622,622,622,622,622,622,622,622,622,622,622,622,622,622,622,622,622,622,622,622,622,622,622,622,622,622,622,622,622,622,622,622,622,622,622,622,622,622,622,622,622,622,622,622,622,622,622,622,622,622,622,622,622,622,622,622,622,622,622,622,622,622,622,622,622,622,622,622,622,622,622,622,622,622,622,622,622,622,622,622,622,622,622,622,622,622,622,622,622,622,622,622,622,622,622,622,622,622,622,622,622,622,622,622,621,620,619,618,617,617,617,617,614,609,607,607,607,607,607,607,607,607,607,607,607,607,607,607,607,607,607,607,601,584,558,546,534,514,486,452,433,412,386,357,311,292,274,259,240,220,211,203,192,183,165,155,144,135,123,101,84],"timestamp_mouse":[10,29,51,70,90,110,129,150,170,189,210,230,250,271,291,310,331,351,371,390,411,430,449,470,490,510,530,550,570,589,610,630,651,671,690,711,729,750,769,789,809,829,850,870,889,909,930,949,970,991,1010,1030,1050,1069,1089,1110,1131,1151,1169,1190,1210,1231,1249,1270,1290,1309,1330,1350,1371,1390,1410,1429,1450,1470,1491,1509,1530,1549,1570,1589,1611,1629,1649,1669,1689,1711,1731,1749,1769,1789,1810,1829,1849,1870,1889,1910,1929,1950,1970,1991,2009,2029,2050,2071,2090,2110,2131,2150,2171,2190,2210,2231,2249,2271,2290,2311,2331,2351,2370,2390,2410,2431,2450,2471,2491,2510,2531,2550,2571,2591,2609,2631,2651,2670,2689,2711,2730,2749,2771,2791,2811,2830,2850,2870,2891,2911,2931,2949,2970,2989,3010,3031,3051,3070,3091,3110,3130,3149,3169,3189,3210,3230,3250,3271,3290,3309,3330,3351,3370,3389,3410,3431,3450,3469,3490,3510,3530,3551,3569,3589,3610,3631,3649,3671,3691,3710,3729,3751,3771,3791,3811,3829,3849,3869,3890,3910,3930,3951,3970,3990,4011,4029,4049,4070,4091,4110,4131,4149,4169,4190,4211,4230,4251,4270,4291,4310,4329,4351,4369,4391,4410,4430,4449,4470,4491,4511,4530,4551,4569,4590,4611,4629,4649,4671,4689,4711,4730,4750,4769,4791,4810,4829,4849,4870,4889,4911,4931,4949,4971,4990,5011,5031,5050,5070,5091,5110,5131,5149,5171,5189,5210,5231,5249,5271,5290,5310,5331,5350,5369,5391,5411,5429,5450,5471,5491,5511,5530,5551,5570,5590,5609,5630,5650,5669,5689,5710,5730,5750,5770,5789,5810,5829,5851,5870,5889,5910,5929,5949,5970,5990,6010,6029,6049,6069,6089,6111,6130,6151,6170,6190,6209,6230,6250,6271,6291,6310,6331,6350,6370,6390,6409,6430,6451,6470,6490,6510,6530,6550,6570,6589,6610,6630,6650,6670,6689,6709,6731],"xSR":741.5,"ySR":469.95,"xT1":424.9,"yT1":0,"xT2":1058.1,"yT2":0,"toosoon":0,"cond_shown":"randomdotsizeEA","ratio_trial":500,"smaller_num":"4","larger_num":"8","correct_side":1,"subjID":"SarahLaiton27","gender":"1","age":"9","school":"4","test":{"fix_dur":[250,1500],"timestim":300,"targets_dim":[100,100],"targets_relative_coord":[0.3,0.7],"size_stim":[880,420],"start_dim":[100,100],"size_start":[300,300],"size_fix":60,"samplingrate":20,"img_types":["equaldotsize","equaldotanddens","randomdotsizeEA"],"ratios":[250,500,750,900],"rep_conds":9,"nTrials":120,"trials_to_rest":500,"Trials_order":[89,43,100,39,66,14,72,91,74,60,27,4,80,51,13,86,44,35,85,11,41,103,29,95,114,17,47,116,42,21,90,76,61,18,54,53,105,111,73,30,59,58,65,55,64,81,108,93,2,57,102,26,84,52,32,56,69,119,92,33,75,110,20,71,19,46,3,48,16,97,25,45,22,0,67,37,15,38,40,117,28,113,79,77,101,63,115,87,107,12,99,31,98,24,62,83,1,49,112,23,7,8,36,6,104,70,88,5,10,34,82,78,109,68,106,9,96,118,94,50],"cond_shown":["randomdotsizeEA","equaldotanddens","equaldotanddens","equaldotsize","equaldotsize","randomdotsizeEA","equaldotsize","equaldotanddens","randomdotsizeEA","equaldotsize","equaldotsize","equaldotanddens","randomdotsizeEA","equaldotsize","equaldotanddens","randomdotsizeEA","randomdotsizeEA","randomdotsizeEA","equaldotanddens","randomdotsizeEA","randomdotsizeEA","equaldotanddens","randomdotsizeEA","randomdotsizeEA","equaldotsize","randomdotsizeEA","randomdotsizeEA","randomdotsizeEA","equaldotsize","equaldotsize","equaldotsize","equaldotanddens","equaldotanddens","equaldotsize","equaldotsize","randomdotsizeEA","equaldotsize","equaldotsize","equaldotanddens","equaldotsize","randomdotsizeEA","equaldotanddens","randomdotsizeEA","equaldotanddens","equaldotanddens","equaldotsize","equaldotsize","equaldotsize","randomdotsizeEA","equaldotsize","equaldotsize","randomdotsizeEA","equaldotsize","equaldotanddens","randomdotsizeEA","randomdotsizeEA","equaldotsize","randomdotsizeEA","randomdotsizeEA","equaldotsize","equaldotsize","randomdotsizeEA","randomdotsizeEA","randomdotsizeEA","equaldotanddens","equaldotanddens","equaldotsize","equaldotsize","equaldotanddens","equaldotanddens","equaldotanddens","equaldotsize","equaldotanddens","equaldotsize","equaldotanddens","equaldotanddens","equaldotsize","randomdotsizeEA","equaldotanddens","equaldotsize","equaldotanddens","randomdotsizeEA","equaldotanddens","randomdotsizeEA","randomdotsizeEA","equaldotsize","equaldotanddens","equaldotsize","randomdotsizeEA","equaldotsize","equaldotsize","equaldotanddens","randomdotsizeEA","equaldotsize","randomdotsizeEA","randomdotsizeEA","equaldotanddens","equaldotanddens","equaldotanddens","randomdotsizeEA","equaldotanddens","randomdotsizeEA","equaldotsize","equaldotsize","randomdotsizeEA","equaldotanddens","equaldotanddens","randomdotsizeEA","equaldotanddens","equaldotanddens","equaldotanddens","equaldotsize","equaldotanddens","randomdotsizeEA","equaldotanddens","equaldotsize","equaldotsize","equaldotanddens","equaldotanddens","randomdotsizeEA"],"ratio_trial":[500,750,500,500,750,250,250,750,250,250,500,500,750,500,250,250,750,900,250,900,500,750,500,900,750,500,900,750,750,900,750,500,250,750,750,500,900,500,250,750,900,900,500,750,500,900,250,900,250,900,750,250,250,500,750,750,900,900,750,900,500,250,750,900,750,900,500,250,500,250,250,900,900,250,750,250,500,250,500,900,500,500,750,500,500,500,750,500,900,250,500,750,250,250,250,900,250,250,500,900,750,750,250,750,750,900,500,500,900,900,900,750,250,750,900,900,250,900,900,250],"smaller_num":["4","3","1","5","6","3","4","12","3","3","4","2","15","6","2","2","3","18","2","9","9","3","9","9","3","9","18","6","18","18","18","6","6","18","6","9","9","9","2","6","18","9","2","3","5","9","3","9","3","18","3","2","2","4","15","6","9","18","6","18","5","1","15","18","3","9","6","4","9","2","4","18","18","6","15","3","5","6","6","9","9","2","12","6","3","5","9","9","18","2","9","3","2","4","6","9","3","4","3","9","9","15","2","9","15","18","2","2","18","18","18","3","4","6","9","18","3","18","9","4"],"larger_num":["8","4","2","10","8","12","16","16","12","12","8","4","20","12","8","8","4","20","8","10","18","4","18","10","4","18","20","8","24","20","24","12","24","24","8","18","10","18","8","8","20","10","4","4","10","10","12","10","12","20","4","8","8","8","20","8","10","20","8","20","10","4","20","20","4","10","12","16","18","8","16","20","20","24","20","12","10","24","12","10","18","4","16","12","6","10","12","18","20","8","18","4","8","16","24","10","12","16","6","10","12","20","8","12","20","20","4","4","20","20","20","4","16","8","10","20","12","20","10","16"],"correct_side":[1,2,2,1,1,1,2,2,2,1,1,2,2,1,1,1,1,1,1,2,2,1,1,2,2,2,1,2,1,2,1,1,1,1,2,2,2,2,2,1,1,1,1,1,1,1,2,2,2,1,2,1,2,1,2,2,1,2,1,2,2,2,2,1,1,2,1,2,2,1,1,1,1,1,1,2,1,2,1,1,2,1,2,1,2,2,2,2,1,1,1,2,2,1,1,2,2,1,2,2,2,2,1,2,2,1,2,1,1,1,2,1,1,2,1,1,1,1,2,2],"img_shown":["img/500/randomdotsizeEA/L/8_Ratio_500_L_8_R_4.png","img/750/equaldotanddens/R/12_Ratio_750_L_3_R_4.png","img/500/equaldotanddens/R/12_Ratio_500_L_1_R_2.png","img/500/equaldotsize/L/7_Ratio_500_L_10_R_5.png","img/750/equaldotsize/L/14_Ratio_750_L_8_R_6.png","img/250/randomdotsizeEA/L/14_Ratio_250_L_12_R_3.png","img/250/equaldotsize/R/10_Ratio_250_L_4_R_16.png","img/750/equaldotanddens/R/11_Ratio_750_L_12_R_16.png","img/250/randomdotsizeEA/R/9_Ratio_250_L_3_R_12.png","img/250/equaldotsize/L/14_Ratio_250_L_12_R_3.png","img/500/equaldotsize/L/8_Ratio_500_L_8_R_4.png","img/500/equaldotanddens/R/9_Ratio_500_L_2_R_4.png","img/750/randomdotsizeEA/R/5_Ratio_750_L_15_R_20.png","img/500/equaldotsize/L/11_Ratio_500_L_12_R_6.png","img/250/equaldotanddens/L/7_Ratio_250_L_8_R_2.png","img/250/randomdotsizeEA/L/1_Ratio_250_L_8_R_2.png","img/750/randomdotsizeEA/L/8_Ratio_750_L_4_R_3.png","img/900/randomdotsizeEA/L/4_Ratio_900_L_20_R_18.png","img/250/equaldotanddens/L/1_Ratio_250_L_8_R_2.png","img/900/randomdotsizeEA/R/15_Ratio_900_L_9_R_10.png","img/500/randomdotsizeEA/R/6_Ratio_500_L_9_R_18.png","img/750/equaldotanddens/L/8_Ratio_750_L_4_R_3.png","img/500/randomdotsizeEA/L/4_Ratio_500_L_18_R_9.png","img/900/randomdotsizeEA/R/15_Ratio_900_L_9_R_10.png","img/750/equaldotsize/R/7_Ratio_750_L_3_R_4.png","img/500/randomdotsizeEA/R/1_Ratio_500_L_9_R_18.png","img/900/randomdotsizeEA/L/8_Ratio_900_L_20_R_18.png","img/750/randomdotsizeEA/R/2_Ratio_750_L_6_R_8.png","img/750/equaldotsize/L/6_Ratio_750_L_24_R_18.png","img/900/equaldotsize/R/14_Ratio_900_L_18_R_20.png","img/750/equaldotsize/L/6_Ratio_750_L_24_R_18.png","img/500/equaldotanddens/L/13_Ratio_500_L_12_R_6.png","img/250/equaldotanddens/L/5_Ratio_250_L_24_R_6.png","img/750/equaldotsize/L/6_Ratio_750_L_24_R_18.png","img/750/equaldotsize/R/2_Ratio_750_L_6_R_8.png","img/500/randomdotsizeEA/R/6_Ratio_500_L_9_R_18.png","img/900/equaldotsize/R/15_Ratio_900_L_9_R_10.png","img/500/equaldotsize/R/6_Ratio_500_L_9_R_18.png","img/250/equaldotanddens/R/13_Ratio_250_L_2_R_8.png","img/750/equaldotsize/L/14_Ratio_750_L_8_R_6.png","img/900/randomdotsizeEA/L/2_Ratio_900_L_20_R_18.png","img/900/equaldotanddens/L/1_Ratio_900_L_10_R_9.png","img/500/randomdotsizeEA/L/5_Ratio_500_L_4_R_2.png","img/750/equaldotanddens/L/8_Ratio_750_L_4_R_3.png","img/500/equaldotanddens/L/7_Ratio_500_L_10_R_5.png","img/900/equaldotsize/L/1_Ratio_900_L_10_R_9.png","img/250/equaldotsize/R/4_Ratio_250_L_3_R_12.png","img/900/equaldotsize/R/5_Ratio_900_L_9_R_10.png","img/250/randomdotsizeEA/R/9_Ratio_250_L_3_R_12.png","img/900/equaldotsize/L/10_Ratio_900_L_20_R_18.png","img/750/equaldotsize/R/12_Ratio_750_L_3_R_4.png","img/250/randomdotsizeEA/L/7_Ratio_250_L_8_R_2.png","img/250/equaldotsize/R/13_Ratio_250_L_2_R_8.png","img/500/equaldotanddens/L/8_Ratio_500_L_8_R_4.png","img/750/randomdotsizeEA/R/3_Ratio_750_L_15_R_20.png","img/750/randomdotsizeEA/R/2_Ratio_750_L_6_R_8.png","img/900/equaldotsize/L/1_Ratio_900_L_10_R_9.png","img/900/randomdotsizeEA/R/12_Ratio_900_L_18_R_20.png","img/750/randomdotsizeEA/L/13_Ratio_750_L_8_R_6.png","img/900/equaldotsize/R/9_Ratio_900_L_18_R_20.png","img/500/equaldotsize/R/14_Ratio_500_L_5_R_10.png","img/250/randomdotsizeEA/R/8_Ratio_250_L_1_R_4.png","img/750/randomdotsizeEA/R/3_Ratio_750_L_15_R_20.png","img/900/randomdotsizeEA/L/2_Ratio_900_L_20_R_18.png","img/750/equaldotanddens/L/10_Ratio_750_L_4_R_3.png","img/900/equaldotanddens/R/5_Ratio_900_L_9_R_10.png","img/500/equaldotsize/L/13_Ratio_500_L_12_R_6.png","img/250/equaldotsize/R/10_Ratio_250_L_4_R_16.png","img/500/equaldotanddens/R/1_Ratio_500_L_9_R_18.png","img/250/equaldotanddens/L/1_Ratio_250_L_8_R_2.png","img/250/equaldotanddens/L/2_Ratio_250_L_16_R_4.png","img/900/equaldotsize/L/4_Ratio_900_L_20_R_18.png","img/900/equaldotanddens/L/8_Ratio_900_L_20_R_18.png","img/250/equaldotsize/L/5_Ratio_250_L_24_R_6.png","img/750/equaldotanddens/L/1_Ratio_750_L_20_R_15.png","img/250/equaldotanddens/R/9_Ratio_250_L_3_R_12.png","img/500/equaldotsize/L/7_Ratio_500_L_10_R_5.png","img/250/randomdotsizeEA/R/6_Ratio_250_L_6_R_24.png","img/500/equaldotanddens/L/13_Ratio_500_L_12_R_6.png","img/900/equaldotsize/L/1_Ratio_900_L_10_R_9.png","img/500/equaldotanddens/R/1_Ratio_500_L_9_R_18.png","img/500/randomdotsizeEA/L/10_Ratio_500_L_4_R_2.png","img/750/equaldotanddens/R/11_Ratio_750_L_12_R_16.png","img/500/randomdotsizeEA/L/11_Ratio_500_L_12_R_6.png","img/500/randomdotsizeEA/R/2_Ratio_500_L_3_R_6.png","img/500/equaldotsize/R/14_Ratio_500_L_5_R_10.png","img/750/equaldotanddens/R/15_Ratio_750_L_9_R_12.png","img/500/equaldotsize/R/6_Ratio_500_L_9_R_18.png","img/900/randomdotsizeEA/L/10_Ratio_900_L_20_R_18.png","img/250/equaldotsize/L/3_Ratio_250_L_8_R_2.png","img/500/equaldotsize/L/4_Ratio_500_L_18_R_9.png","img/750/equaldotanddens/R/7_Ratio_750_L_3_R_4.png","img/250/randomdotsizeEA/R/13_Ratio_250_L_2_R_8.png","img/250/equaldotsize/L/2_Ratio_250_L_16_R_4.png","img/250/randomdotsizeEA/L/5_Ratio_250_L_24_R_6.png","img/900/randomdotsizeEA/R/6_Ratio_900_L_9_R_10.png","img/250/equaldotanddens/R/9_Ratio_250_L_3_R_12.png","img/250/equaldotanddens/L/2_Ratio_250_L_16_R_4.png","img/500/equaldotanddens/R/2_Ratio_500_L_3_R_6.png","img/900/randomdotsizeEA/R/3_Ratio_900_L_9_R_10.png","img/750/equaldotanddens/R/15_Ratio_750_L_9_R_12.png","img/750/randomdotsizeEA/R/5_Ratio_750_L_15_R_20.png","img/250/equaldotsize/L/3_Ratio_250_L_8_R_2.png","img/750/equaldotsize/R/15_Ratio_750_L_9_R_12.png","img/750/randomdotsizeEA/R/5_Ratio_750_L_15_R_20.png","img/900/equaldotanddens/L/4_Ratio_900_L_20_R_18.png","img/500/equaldotanddens/R/9_Ratio_500_L_2_R_4.png","img/500/randomdotsizeEA/L/10_Ratio_500_L_4_R_2.png","img/900/equaldotanddens/L/4_Ratio_900_L_20_R_18.png","img/900/equaldotanddens/L/2_Ratio_900_L_20_R_18.png","img/900/equaldotanddens/R/11_Ratio_900_L_18_R_20.png","img/750/equaldotsize/L/10_Ratio_750_L_4_R_3.png","img/250/equaldotanddens/L/2_Ratio_250_L_16_R_4.png","img/750/randomdotsizeEA/R/2_Ratio_750_L_6_R_8.png","img/900/equaldotanddens/L/1_Ratio_900_L_10_R_9.png","img/900/equaldotsize/L/10_Ratio_900_L_20_R_18.png","img/250/equaldotsize/L/14_Ratio_250_L_12_R_3.png","img/900/equaldotanddens/L/4_Ratio_900_L_20_R_18.png","img/900/equaldotanddens/R/5_Ratio_900_L_9_R_10.png","img/250/randomdotsizeEA/R/10_Ratio_250_L_4_R_16.png"],"Rat0":[["12_Ratio_0_L_9_R_0.png","13_Ratio_0_L_6_R_0.png","5_Ratio_0_L_2_R_0.png","6_Ratio_0_L_4_R_0.png","8_Ratio_0_L_6_R_0.png"],["1_Ratio_0_L_0_R_17.png","10_Ratio_0_L_0_R_22.png","11_Ratio_0_L_0_R_1.png","14_Ratio_0_L_0_R_24.png","15_Ratio_0_L_0_R_4.png","2_Ratio_0_L_0_R_5.png","3_Ratio_0_L_0_R_17.png","4_Ratio_0_L_0_R_7.png","7_Ratio_0_L_0_R_19.png","9_Ratio_0_L_0_R_15.png"]],"Rat250":[["1_Ratio_250_L_8_R_2.png","14_Ratio_250_L_12_R_3.png","15_Ratio_250_L_12_R_3.png","2_Ratio_250_L_16_R_4.png","3_Ratio_250_L_8_R_2.png","5_Ratio_250_L_24_R_6.png","7_Ratio_250_L_8_R_2.png"],["10_Ratio_250_L_4_R_16.png","11_Ratio_250_L_3_R_12.png","12_Ratio_250_L_5_R_20.png","13_Ratio_250_L_2_R_8.png","4_Ratio_250_L_3_R_12.png","6_Ratio_250_L_6_R_24.png","8_Ratio_250_L_1_R_4.png","9_Ratio_250_L_3_R_12.png"]],"Rat500":[["10_Ratio_500_L_4_R_2.png","11_Ratio_500_L_12_R_6.png","13_Ratio_500_L_12_R_6.png","4_Ratio_500_L_18_R_9.png","5_Ratio_500_L_4_R_2.png","7_Ratio_500_L_10_R_5.png","8_Ratio_500_L_8_R_4.png"],["1_Ratio_500_L_9_R_18.png","12_Ratio_500_L_1_R_2.png","14_Ratio_500_L_5_R_10.png","15_Ratio_500_L_1_R_2.png","2_Ratio_500_L_3_R_6.png","3_Ratio_500_L_10_R_20.png","6_Ratio_500_L_9_R_18.png","9_Ratio_500_L_2_R_4.png"]],"Rat750":[["1_Ratio_750_L_20_R_15.png","10_Ratio_750_L_4_R_3.png","13_Ratio_750_L_8_R_6.png","14_Ratio_750_L_8_R_6.png","6_Ratio_750_L_24_R_18.png","8_Ratio_750_L_4_R_3.png","9_Ratio_750_L_4_R_3.png"],["11_Ratio_750_L_12_R_16.png","12_Ratio_750_L_3_R_4.png","15_Ratio_750_L_9_R_12.png","2_Ratio_750_L_6_R_8.png","3_Ratio_750_L_15_R_20.png","4_Ratio_750_L_15_R_20.png","5_Ratio_750_L_15_R_20.png","7_Ratio_750_L_3_R_4.png"]],"Rat900":[["1_Ratio_900_L_10_R_9.png","10_Ratio_900_L_20_R_18.png","2_Ratio_900_L_20_R_18.png","4_Ratio_900_L_20_R_18.png","8_Ratio_900_L_20_R_18.png"],["11_Ratio_900_L_18_R_20.png","12_Ratio_900_L_18_R_20.png","13_Ratio_900_L_18_R_20.png","14_Ratio_900_L_18_R_20.png","15_Ratio_900_L_9_R_10.png","3_Ratio_900_L_9_R_10.png","5_Ratio_900_L_9_R_10.png","6_Ratio_900_L_9_R_10.png","7_Ratio_900_L_9_R_10.png","9_Ratio_900_L_18_R_20.png"]],"Rat1000":[["10_Ratio_1000_L_16_R_16.png","11_Ratio_1000_L_6_R_6.png","12_Ratio_1000_L_14_R_14.png","13_Ratio_1000_L_20_R_20.png","15_Ratio_1000_L_15_R_15.png","2_Ratio_1000_L_17_R_17.png","4_Ratio_1000_L_9_R_9.png","5_Ratio_1000_L_6_R_6.png","6_Ratio_1000_L_19_R_19.png","8_Ratio_1000_L_14_R_14.png","9_Ratio_1000_L_25_R_25.png"],["1_Ratio_1000_L_1_R_1.png","14_Ratio_1000_L_17_R_17.png","3_Ratio_1000_L_17_R_17.png","7_Ratio_1000_L_6_R_6.png"]]}},{"start_time":1552328244166,"click_time":1552328245942,"finger_time":1552328245642,"fix_duration":1382.266434043579,"trial":1,"RT":1476,"MT":300,"sideResp":2,"stimulus":"img/750/equaldotanddens/R/12_Ratio_750_L_3_R_4.png","xmouse":[785,785,785,785,785,785,785,785,785,785,785,785,785,785,785,785,785,785,785,785,785,785,786,787,787,787,787,787,787,787,787,787,787,787,787,787,787,787,787,787,787,787,787,787,787,787,787,787,787,787,787,787,787,787,787,787,787,787,787,787,787,789,789,789,789,789,789,790,790,791,792,794,798,820,836,851,870,888,927,950,974,1005,1049,1082,1094,1101,1109,1115,1123],"ymouse":[603,603,603,598,596,595,594,594,594,594,594,594,594,594,594,594,594,594,594,594,594,594,594,595,596,596,596,596,596,596,596,596,596,596,596,596,596,596,596,596,596,596,596,596,596,596,596,596,596,596,596,596,596,596,596,596,596,596,596,596,596,596,596,595,595,595,594,593,592,589,587,582,577,541,521,505,486,468,426,395,355,304,236,191,177,163,144,108,18],"timestamp_mouse":[29,36,55,76,96,115,136,157,177,196,217,236,256,275,296,317,335,356,377,395,417,437,456,476,497,515,537,555,577,597,617,636,657,676,697,716,736,756,777,795,817,836,856,877,896,915,937,956,975,996,1016,1037,1057,1076,1097,1115,1136,1155,1175,1197,1215,1235,1255,1276,1296,1315,1335,1355,1376,1397,1416,1435,1457,1475,1497,1516,1536,1555,1576,1596,1617,1635,1656,1676,1695,1715,1737,1756,1775],"xSR":741.5,"ySR":573.95,"xT1":424.9,"yT1":0,"xT2":1058.1,"yT2":0,"toosoon":0,"cond_shown":"equaldotanddens","ratio_trial":750,"smaller_num":"3","larger_num":"4","correct_side":2,"subjID":"SarahLaiton27","gender":"1","age":"9","school":"4"},{"start_time":1552328246953,"click_time":1552328247902,"finger_time":1552328247802,"fix_duration":250,"trial":2,"RT":849,"MT":100,"sideResp":2,"stimulus":"img/500/equaldotanddens/R/12_Ratio_500_L_1_R_2.png","xmouse":[769,770,771,771,771,771,771,771,771,771,771,771,771,771,771,771,771,771,771,771,771,771,771,769,769,768,768,768,768,768,768,768,768,768,768,768,768,768,768,769,779,794,820,884,979,1021,1051,1077],"ymouse":[646,645,644,644,643,643,643,643,643,643,643,643,643,643,643,643,643,643,643,643,643,643,641,640,640,639,639,639,639,639,639,639,639,639,639,639,639,639,638,627,609,574,522,422,277,197,127,63],"timestamp_mouse":[11,35,50,70,90,108,130,149,170,188,210,230,250,270,290,309,328,350,369,388,410,429,449,470,490,510,529,548,570,589,609,629,648,669,689,708,730,749,768,789,810,829,849,868,888,910,929,948],"xSR":741.5,"ySR":573.95,"xT1":424.9,"yT1":0,"xT2":1058.1,"yT2":0,"toosoon":0,"cond_shown":"equaldotanddens","ratio_trial":500,"smaller_num":"1","larger_num":"2","correct_side":2,"subjID":"SarahLaiton27","gender":"1","age":"9","school":"4"},{"start_time":1552328249154,"click_time":1552328250463,"finger_time":1552328249922,"fix_duration":250,"trial":3,"RT":768,"MT":541,"sideResp":1,"stimulus":"img/500/equaldotsize/L/7_Ratio_500_L_10_R_5.png","xmouse":[801,801,801,801,801,801,801,801,801,801,801,801,801,801,801,801,801,801,801,801,801,801,801,801,801,801,801,801,801,801,801,801,801,800,791,784,771,752,728,662,639,624,614,602,590,583,576,570,567,555,551,548,543,534,517,509,504,497,491,484,483,480,478,476,475,475],"ymouse":[598,598,598,598,598,598,598,598,598,598,598,598,598,598,598,598,598,598,598,598,598,598,598,598,598,598,598,598,598,598,598,598,598,598,598,596,588,578,560,507,488,467,448,423,393,378,360,343,329,298,285,272,262,248,224,213,204,194,186,175,170,159,148,136,106,92],"timestamp_mouse":[8,29,48,69,88,107,128,147,167,187,207,227,247,268,289,308,328,348,368,388,408,429,449,468,489,508,529,549,567,587,607,629,647,668,688,708,729,748,768,787,809,828,848,867,887,909,927,948,967,987,1007,1027,1047,1067,1088,1109,1127,1148,1168,1188,1207,1229,1249,1268,1288,1308],"xSR":741.5,"ySR":573.95,"xT1":424.9,"yT1":0,"xT2":1058.1,"yT2":0,"toosoon":0,"cond_shown":"equaldotsize","ratio_trial":500,"smaller_num":"5","larger_num":"10","correct_side":1,"subjID":"SarahLaiton27","gender":"1","age":"9","school":"4"},{"start_time":1552328252161,"click_time":1552328254302,"finger_time":1552328253642,"fix_duration":957.9977481062309,"trial":4,"RT":1481,"MT":660,"sideResp":1,"stimulus":"img/750/equaldotsize/L/14_Ratio_750_L_8_R_6.png","xmouse":[775,775,775,775,775,775,775,775,775,775,775,775,775,775,775,775,775,775,775,775,775,775,775,775,775,775,775,775,775,775,775,775,775,775,775,775,775,775,775,775,775,775,775,775,775,775,775,775,775,775,775,775,775,775,775,775,775,775,775,775,775,775,775,775,775,775,775,775,774,772,771,769,764,761,730,705,670,648,633,624,613,610,606,595,574,564,555,547,541,535,533,528,520,518,504,496,490,486,483,480,478,476,472,468,467,466,466,464],"ymouse":[592,592,592,592,592,592,592,592,592,592,592,592,592,592,592,592,592,592,592,592,592,592,592,592,592,592,592,592,592,592,592,592,592,592,592,592,592,592,592,592,592,592,592,592,592,592,592,592,592,592,592,592,592,592,592,592,592,592,592,592,592,592,592,592,592,592,592,592,592,591,590,590,584,580,545,515,472,448,437,431,421,417,412,401,377,362,346,329,310,290,282,274,260,255,219,209,200,194,189,179,172,161,144,126,116,110,102,91],"timestamp_mouse":[10,21,41,62,81,100,122,140,160,181,202,222,241,260,282,301,321,342,362,380,401,422,441,462,481,502,522,542,561,581,602,622,641,661,681,702,722,741,760,782,801,820,840,861,882,902,922,940,962,982,1001,1021,1040,1062,1082,1102,1121,1142,1160,1182,1201,1220,1242,1261,1282,1302,1320,1340,1362,1380,1401,1420,1441,1462,1481,1502,1520,1541,1560,1580,1601,1620,1641,1660,1680,1701,1720,1740,1760,1780,1800,1821,1840,1861,1880,1902,1921,1941,1961,1981,2001,2022,2041,2060,2081,2100,2121,2141],"xSR":741.5,"ySR":573.95,"xT1":424.9,"yT1":0,"xT2":1058.1,"yT2":0,"toosoon":0,"cond_shown":"equaldotsize","ratio_trial":750,"smaller_num":"6","larger_num":"8","correct_side":1,"subjID":"SarahLaiton27","gender":"1","age":"9","school":"4"},{"start_time":1552328256555,"click_time":1552328258062,"finger_time":1552328257782,"fix_duration":1231.3374965923854,"trial":5,"RT":1227,"MT":280,"sideResp":1,"stimulus":"img/250/randomdotsizeEA/L/14_Ratio_250_L_12_R_3.png","xmouse":[768,768,768,768,768,768,768,768,768,768,768,768,768,768,768,768,768,768,768,768,768,768,768,768,768,768,768,768,768,768,768,768,768,768,768,768,768,768,768,768,768,768,768,768,768,768,768,768,768,768,768,768,768,768,768,768,768,768,768,763,757,748,735,718,671,652,635,614,587,538,518,500,488,478,476,479],"ymouse":[589,589,589,589,589,589,589,589,589,589,589,589,589,589,589,589,589,589,589,589,589,589,589,589,589,589,589,589,589,589,589,589,589,589,589,589,589,589,589,589,589,589,589,589,589,589,589,589,589,589,589,589,589,589,589,589,589,589,588,584,577,563,545,525,480,464,445,415,370,261,218,186,165,143,111,77],"timestamp_mouse":[8,26,47,66,88,106,127,147,168,187,207,227,248,268,286,308,326,347,366,388,407,426,447,467,487,508,527,547,566,587,607,627,648,667,688,707,727,747,767,787,808,828,847,867,888,908,926,946,966,987,1008,1028,1047,1067,1088,1107,1126,1147,1167,1186,1208,1227,1247,1268,1287,1307,1327,1347,1366,1386,1408,1427,1447,1466,1487,1507],"xSR":741.5,"ySR":573.95,"xT1":424.9,"yT1":0,"xT2":1058.1,"yT2":0,"toosoon":0,"cond_shown":"randomdotsizeEA","ratio_trial":250,"smaller_num":"3","larger_num":"12","correct_side":1,"subjID":"SarahLaiton27","gender":"1","age":"9","school":"4"},{"start_time":1552328259945,"click_time":1552328261123,"finger_time":1552328260822,"fix_duration":881.2426155681795,"trial":6,"RT":877,"MT":301,"sideResp":2,"stimulus":"img/250/equaldotsize/R/10_Ratio_250_L_4_R_16.png","xmouse":[760,759,759,759,759,759,759,759,759,759,759,759,759,759,759,759,759,759,759,759,759,759,759,759,759,759,759,759,759,759,759,759,758,758,758,758,758,758,758,759,762,765,775,789,825,844,868,907,942,984,993,1000,1009,1021,1058,1070,1080,1087,1092],"ymouse":[603,603,603,603,603,603,603,603,603,603,603,603,603,603,603,603,603,603,603,603,603,603,603,603,603,603,603,603,603,603,603,603,602,601,601,601,601,601,601,599,595,591,579,566,538,524,502,463,418,349,324,301,279,258,200,178,148,109,73],"timestamp_mouse":[18,38,57,77,98,117,137,157,177,197,217,237,257,278,298,318,338,356,376,397,417,436,458,478,496,516,538,557,577,598,618,636,656,676,697,717,737,756,778,796,817,837,857,877,897,918,937,956,977,996,1016,1037,1058,1077,1097,1117,1136,1158,1178],"xSR":741.5,"ySR":573.95,"xT1":424.9,"yT1":0,"xT2":1058.1,"yT2":0,"toosoon":0,"cond_shown":"equaldotsize","ratio_trial":250,"smaller_num":"4","larger_num":"16","correct_side":2,"subjID":"SarahLaiton27","gender":"1","age":"9","school":"4"},{"start_time":1552328262741,"click_time":1552328264142,"finger_time":1552328263522,"fix_duration":696.8331094945988,"trial":7,"RT":781,"MT":620,"sideResp":2,"stimulus":"img/750/equaldotanddens/R/11_Ratio_750_L_12_R_16.png","xmouse":[789,789,789,789,789,789,789,789,789,789,789,789,789,789,789,789,789,789,789,789,789,789,789,789,789,789,789,789,789,789,789,789,789,789,789,789,791,795,803,815,854,867,879,885,890,902,908,918,937,955,979,983,984,985,985,992,997,1003,1009,1012,1016,1017,1020,1024,1029,1044,1047,1050,1053,1058,1069],"ymouse":[611,611,611,611,611,611,611,611,611,611,611,611,611,611,611,611,611,611,611,611,611,611,611,611,611,611,611,611,611,611,611,611,611,611,611,611,611,606,594,573,510,486,458,434,415,373,349,321,277,234,181,169,163,157,150,122,112,104,100,99,98,96,94,91,87,79,79,79,78,76,73],"timestamp_mouse":[9,21,42,62,82,101,122,142,160,180,201,221,242,260,281,301,321,341,361,380,402,422,442,461,480,502,522,542,561,581,601,622,641,661,682,701,722,741,761,781,801,822,842,860,880,900,922,941,961,981,1000,1020,1041,1062,1082,1100,1122,1141,1161,1182,1201,1220,1240,1261,1282,1301,1322,1341,1360,1380,1400],"xSR":741.5,"ySR":573.95,"xT1":424.9,"yT1":0,"xT2":1058.1,"yT2":0,"toosoon":0,"cond_shown":"equaldotanddens","ratio_trial":750,"smaller_num":"12","larger_num":"16","correct_side":2,"subjID":"SarahLaiton27","gender":"1","age":"9","school":"4"},{"start_time":1552328265294,"click_time":1552328271423,"finger_time":1552328269122,"fix_duration":250,"trial":8,"RT":3828,"MT":2301,"sideResp":2,"stimulus":"img/250/randomdotsizeEA/R/9_Ratio_250_L_3_R_12.png","xmouse":[797,797,797,797,797,797,796,794,794,793,793,793,791,788,786,783,777,767,765,764,764,764,764,764,764,764,764,764,764,763,763,763,763,763,763,763,763,763,764,764,764,764,764,764,764,764,764,764,764,764,764,764,764,764,764,764,763,757,757,757,757,757,757,757,757,757,757,757,757,757,757,757,757,757,757,757,757,757,757,757,757,757,757,757,757,757,757,757,757,757,757,757,757,757,757,757,757,757,757,757,757,757,757,757,757,757,757,757,757,757,757,758,763,766,769,771,775,776,776,776,776,776,776,776,776,776,776,776,776,776,776,776,776,776,776,776,776,776,776,776,776,776,776,776,776,776,776,776,776,776,776,776,776,776,776,776,776,776,776,776,776,776,776,776,776,776,776,776,776,776,776,776,776,776,776,776,776,776,776,776,776,776,776,776,776,776,776,776,776,773,744,582,66,0,0,0,0,0,0,0,0,0,0,0,0,0,0,0,0,0,0,0,0,0,0,16,44,106,133,153,166,178,197,203,210,223,244,304,340,378,417,454,487,487,487,487,487,487,487,644,644,644,646,655,667,678,702,749,781,805,824,837,846,846,845,837,819,805,804,803,803,803,803,802,802,802,803,804,805,812,825,836,859,865,872,886,901,930,943,956,970,984,995,1015,1022,1032,1045,1073,1091,1108,1123,1139,1162,1164,1164,1164,1164,1161,1159,1157,1156,1155,1155,1152,1138,1131,1111],"ymouse":[590,590,590,590,590,590,590,589,588,588,588,588,587,585,584,583,583,583,583,583,583,583,583,583,583,583,583,583,583,583,583,583,583,583,583,583,583,583,584,584,584,585,586,586,586,586,586,586,586,586,586,586,586,586,586,588,588,592,592,592,592,592,592,592,592,592,592,592,592,592,592,592,592,592,592,592,592,592,592,592,592,592,592,592,592,592,592,592,592,592,592,592,592,592,592,592,592,592,592,592,592,592,592,592,592,592,592,592,592,593,594,594,596,598,600,601,602,603,603,603,603,603,603,603,603,603,603,603,603,603,603,603,603,603,603,603,603,603,603,603,603,603,603,603,603,603,603,603,603,603,603,603,603,603,603,603,603,603,603,603,603,603,603,603,603,603,603,603,603,603,603,603,603,603,603,603,603,603,603,603,603,603,603,603,603,603,603,603,603,599,579,462,31,0,0,0,0,0,0,0,0,0,0,0,0,0,0,0,0,0,0,0,0,0,0,6,17,48,75,111,150,199,289,343,392,448,501,609,668,735,794,840,872,872,872,872,872,872,872,879,862,845,813,795,780,769,751,722,704,692,683,678,675,673,666,657,642,632,632,631,631,631,630,629,626,623,619,614,610,602,586,568,531,507,466,412,358,284,257,233,216,201,189,176,171,167,164,159,156,152,150,148,140,140,140,139,133,127,123,119,118,117,116,113,106,103,92],"timestamp_mouse":[9,32,47,68,88,107,127,148,168,189,207,229,247,268,288,309,328,347,368,388,408,429,447,469,488,508,529,548,568,589,609,628,647,669,689,708,729,749,768,787,808,828,848,869,888,908,927,948,968,989,1007,1028,1047,1068,1088,1108,1128,1147,1169,1189,1208,1228,1247,1268,1289,1308,1328,1349,1368,1389,1408,1427,1448,1469,1488,1509,1528,1547,1568,1588,1608,1628,1649,1668,1687,1708,1728,1749,1768,1789,1807,1828,1847,1869,1889,1907,1928,1948,1969,1988,2007,2029,2048,2069,2089,2108,2127,2149,2169,2188,2208,2228,2248,2267,2288,2307,2328,2348,2367,2388,2409,2428,2448,2469,2488,2509,2527,2547,2568,2589,2608,2629,2647,2668,2689,2708,2729,2749,2769,2789,2808,2828,2849,2868,2887,2908,2929,2948,2969,2988,3009,3028,3049,3068,3089,3108,3128,3147,3167,3187,3209,3227,3248,3269,3287,3309,3328,3349,3367,3388,3408,3429,3448,3467,3488,3509,3528,3549,3567,3588,3609,3629,3648,3669,3689,3708,3728,3748,3769,3788,3809,3828,3847,3868,3887,3908,3927,3948,3969,3988,4008,4028,4048,4068,4087,4108,4128,4148,4168,4188,4207,4229,4248,4269,4289,4309,4328,4349,4368,4388,4408,4428,4449,4467,4488,4509,4528,4547,4567,4589,4608,4628,4649,4667,4687,4708,4728,4747,4769,4788,4809,4829,4848,4869,4888,4909,4928,4947,4967,4988,5008,5028,5047,5067,5089,5108,5128,5147,5168,5189,5209,5228,5248,5267,5288,5308,5328,5347,5369,5387,5408,5429,5447,5467,5488,5509,5527,5547,5568,5588,5607,5628,5647,5668,5689,5708,5728,5747,5767,5788,5808,5827,5848,5869,5888,5909,5928,5947,5969,5988,6008,6028,6048,6069,6088,6109,6129],"xSR":741.5,"ySR":573.95,"xT1":424.9,"yT1":0,"xT2":1058.1,"yT2":0,"toosoon":0,"cond_shown":"randomdotsizeEA","ratio_trial":250,"smaller_num":"3","larger_num":"12","correct_side":2,"subjID":"SarahLaiton27","gender":"1","age":"9","school":"4"},{"start_time":1552328275073,"click_time":1552328276103,"finger_time":1552328275089,"fix_duration":1269.5605005833163,"trial":9,"RT":16,"MT":1014,"sideResp":1,"stimulus":"img/250/equaldotsize/L/14_Ratio_250_L_12_R_3.png","xmouse":[726,720,719,718,717,717,717,717,717,717,718,719,719,721,721,721,722,725,728,728,729,730,730,730,730,730,730,730,730,730,731,731,733,734,734,730,723,710,695,690,684,677,672,663,655,648,635,631,615,583,551,524],"ymouse":[597,594,594,593,593,593,593,593,593,593,593,593,593,593,593,593,593,593,594,594,594,595,595,595,595,595,595,595,595,591,583,573,556,509,487,464,443,411,375,360,345,331,318,297,275,250,211,197,159,114,88,71],"timestamp_mouse":[16,32,50,69,90,109,128,149,169,190,209,229,249,268,289,310,329,350,368,389,409,429,449,470,490,509,529,550,569,590,609,630,649,670,689,709,730,749,770,791,811,830,850,870,889,910,930,950,969,989,1011,1030],"xSR":741.5,"ySR":573.95,"xT1":424.9,"yT1":0,"xT2":1058.1,"yT2":0,"toosoon":0,"cond_shown":"equaldotsize","ratio_trial":250,"smaller_num":"3","larger_num":"12","correct_side":1,"subjID":"SarahLaiton27","gender":"1","age":"9","school":"4"},{"start_time":1552328277395,"click_time":1552328278842,"finger_time":1552328278363,"fix_duration":250,"trial":10,"RT":968,"MT":479,"sideResp":1,"stimulus":"img/500/equaldotsize/L/8_Ratio_500_L_8_R_4.png","xmouse":[789,789,789,789,789,789,789,789,789,789,789,789,789,789,789,789,789,789,789,789,789,789,789,789,789,789,789,789,789,789,789,789,789,789,789,789,789,789,789,789,789,789,789,789,789,789,789,785,771,757,740,727,709,707,705,701,696,686,681,675,665,658,649,642,633,624,613,579,561,544,534,522,502],"ymouse":[641,641,641,641,641,641,641,641,641,641,641,641,641,641,641,641,641,641,641,641,641,641,641,641,641,641,641,641,641,641,641,641,641,641,641,641,641,641,641,641,641,641,641,641,641,641,636,615,573,516,466,427,365,350,334,315,298,274,265,251,232,221,208,199,188,175,161,131,121,115,110,104,96],"timestamp_mouse":[13,34,48,67,88,109,128,148,169,187,209,227,248,268,288,307,329,349,368,387,408,428,449,469,488,507,529,548,568,587,608,627,648,668,687,708,728,749,769,788,808,827,849,868,888,909,927,947,968,987,1008,1028,1047,1068,1088,1107,1128,1147,1167,1189,1207,1227,1247,1268,1288,1308,1328,1347,1368,1389,1408,1429,1447],"xSR":741.5,"ySR":573.95,"xT1":424.9,"yT1":0,"xT2":1058.1,"yT2":0,"toosoon":0,"cond_shown":"equaldotsize","ratio_trial":500,"smaller_num":"4","larger_num":"8","correct_side":1,"subjID":"SarahLaiton27","gender":"1","age":"9","school":"4"},{"start_time":1552328282282,"click_time":1552328283462,"finger_time":1552328282964,"fix_duration":1438.0317093746496,"trial":11,"RT":682,"MT":498,"sideResp":2,"stimulus":"img/500/equaldotanddens/R/9_Ratio_500_L_2_R_4.png","xmouse":[770,770,770,770,770,770,770,770,770,770,770,770,770,770,770,770,770,770,770,770,770,770,770,770,770,770,770,770,770,770,772,775,781,804,817,831,847,873,901,912,922,932,941,965,975,983,988,994,1012,1018,1023,1030,1034,1038,1042,1046,1048,1051,1057,1068],"ymouse":[602,602,602,602,602,602,602,602,602,602,602,602,602,602,602,602,602,602,602,602,602,602,602,602,602,602,602,602,602,602,601,599,595,583,572,560,544,514,475,461,446,430,412,366,343,325,312,297,253,240,223,204,185,157,146,136,132,126,114,93],"timestamp_mouse":[10,20,41,61,80,100,121,140,161,181,202,220,242,262,281,301,322,342,361,381,401,421,441,462,480,502,521,541,561,581,601,621,641,662,682,701,721,740,760,782,801,820,841,860,880,900,921,941,961,982,1000,1022,1042,1061,1081,1100,1120,1141,1160,1180],"xSR":741.5,"ySR":573.95,"xT1":424.9,"yT1":0,"xT2":1058.1,"yT2":0,"toosoon":0,"cond_shown":"equaldotanddens","ratio_trial":500,"smaller_num":"2","larger_num":"4","correct_side":2,"subjID":"SarahLaiton27","gender":"1","age":"9","school":"4"},{"start_time":1552328285035,"click_time":1552328286764,"finger_time":1552328286123,"fix_duration":250,"trial":12,"RT":1088,"MT":641,"sideResp":2,"stimulus":"img/750/randomdotsizeEA/R/5_Ratio_750_L_15_R_20.png","xmouse":[780,780,780,780,780,780,780,780,780,780,780,780,780,780,780,780,780,780,780,780,780,780,780,780,780,780,780,780,780,780,780,780,780,780,780,780,780,780,780,780,780,780,780,780,780,780,780,780,780,780,780,780,781,785,795,820,832,841,849,851,859,862,866,869,872,877,881,885,891,898,927,941,956,971,981,1004,1015,1020,1028,1037,1040,1041,1042,1044,1048,1056,1060],"ymouse":[606,606,606,606,606,606,606,606,606,606,606,606,606,606,606,606,606,606,606,606,606,606,606,606,606,606,606,606,606,606,606,606,606,606,606,606,606,606,606,606,606,606,606,606,606,606,606,606,606,606,606,606,595,586,563,517,495,473,441,431,382,368,355,347,338,318,305,293,281,269,233,218,203,189,179,153,141,134,122,109,104,102,100,97,92,82,80],"timestamp_mouse":[9,35,47,68,87,109,129,149,168,187,209,228,247,269,289,309,327,349,367,387,409,428,448,468,487,509,527,548,567,588,608,628,647,668,689,708,728,748,767,788,809,828,849,867,888,908,929,947,968,988,1008,1027,1047,1068,1088,1108,1127,1147,1169,1187,1208,1229,1249,1268,1287,1307,1328,1348,1368,1389,1407,1428,1447,1467,1489,1507,1527,1547,1569,1588,1607,1629,1648,1669,1689,1707,1728],"xSR":741.5,"ySR":573.95,"xT1":424.9,"yT1":0,"xT2":1058.1,"yT2":0,"toosoon":0,"cond_shown":"randomdotsizeEA","ratio_trial":750,"smaller_num":"15","larger_num":"20","correct_side":2,"subjID":"SarahLaiton27","gender":"1","age":"9","school":"4"},{"start_time":1552328288862,"click_time":1552328290043,"finger_time":1552328288943,"fix_duration":1236.9722443784735,"trial":13,"RT":81,"MT":1100,"sideResp":1,"stimulus":"img/500/equaldotsize/L/11_Ratio_500_L_12_R_6.png","xmouse":[745,744,744,742,741,741,741,741,741,741,740,739,739,739,739,739,739,739,739,739,739,739,739,739,739,739,739,739,739,737,731,716,691,653,548,497,450,408,361,334,318,310,304,300,299,299,300,302,304,306,309,311,314,319,335,350,368,386,409,432],"ymouse":[583,583,583,582,582,582,582,582,582,582,581,581,581,581,581,581,581,581,581,581,581,581,581,581,581,581,581,581,581,575,558,534,498,450,327,270,209,149,69,13,0,0,0,0,0,0,0,0,0,0,0,0,0,0,3,7,13,17,25,32],"timestamp_mouse":[2,31,41,62,81,101,121,141,161,181,202,221,240,261,281,301,322,342,361,382,401,421,441,460,481,502,520,541,561,581,601,621,641,662,681,701,721,741,761,781,800,820,841,860,881,902,921,941,961,980,1000,1020,1041,1060,1081,1100,1120,1141,1161,1180],"xSR":741.5,"ySR":573.95,"xT1":424.9,"yT1":0,"xT2":1058.1,"yT2":0,"toosoon":0,"cond_shown":"equaldotsize","ratio_trial":500,"smaller_num":"6","larger_num":"12","correct_side":1,"subjID":"SarahLaiton27","gender":"1","age":"9","school":"4"},{"start_time":1552328291544,"click_time":1552328293143,"finger_time":1552328292243,"fix_duration":380.6670778245549,"trial":14,"RT":699,"MT":900,"sideResp":1,"stimulus":"img/250/equaldotanddens/L/7_Ratio_250_L_8_R_2.png","xmouse":[803,803,803,803,803,803,803,803,803,803,803,803,803,803,803,803,803,803,803,803,803,803,803,803,803,803,803,803,803,803,802,800,789,769,752,750,747,744,739,730,726,723,718,710,692,679,666,652,638,604,588,574,561,544,525,519,513,509,506,504,504,504,504,504,504,505,505,504,498,487,481,475,468,456,452,451,451,451,451,456],"ymouse":[625,625,624,624,624,624,624,624,624,624,624,624,624,624,624,624,624,624,624,624,624,624,624,624,624,624,624,624,624,624,624,624,608,577,543,534,529,524,517,507,503,498,493,489,474,457,438,417,396,360,347,334,323,304,282,274,265,257,252,245,242,239,235,227,205,191,179,167,156,142,138,134,128,119,111,109,107,105,100,89],"timestamp_mouse":[18,39,59,78,99,119,140,159,180,200,218,239,260,279,299,318,340,358,379,398,419,439,458,480,499,519,539,560,580,598,618,639,659,679,699,719,739,759,780,799,818,839,859,878,898,920,939,959,979,999,1019,1039,1059,1079,1099,1120,1139,1158,1178,1198,1218,1239,1259,1279,1299,1320,1338,1360,1379,1398,1418,1439,1459,1480,1498,1518,1538,1559,1578,1598],"xSR":741.5,"ySR":573.95,"xT1":424.9,"yT1":0,"xT2":1058.1,"yT2":0,"toosoon":0,"cond_shown":"equaldotanddens","ratio_trial":250,"smaller_num":"2","larger_num":"8","correct_side":1,"subjID":"SarahLaiton27","gender":"1","age":"9","school":"4"},{"start_time":1552328295307,"click_time":1552328296924,"finger_time":1552328296142,"fix_duration":1062.0172889933892,"trial":15,"RT":835,"MT":782,"sideResp":1,"stimulus":"img/250/randomdotsizeEA/L/1_Ratio_250_L_8_R_2.png","xmouse":[765,765,765,765,765,765,765,765,765,765,765,765,765,765,765,765,765,765,765,765,765,765,765,765,765,765,765,765,765,765,765,765,765,765,765,765,765,765,761,758,750,726,711,695,683,672,663,659,656,652,647,643,643,643,644,646,646,646,644,638,627,596,590,588,585,583,577,574,570,568,565,561,555,552,549,542,536,527,518,507,494],"ymouse":[646,646,646,646,646,646,646,646,646,646,646,646,646,646,646,646,646,646,646,646,646,646,646,646,646,646,646,646,646,646,646,646,646,646,646,646,646,646,646,646,646,629,615,598,577,543,500,476,451,425,389,329,305,285,267,251,215,205,194,185,177,163,160,158,156,155,152,151,149,148,146,143,141,139,137,135,129,121,114,106,97],"timestamp_mouse":[16,37,56,77,96,116,137,156,176,196,217,236,255,276,296,316,336,356,377,397,416,437,456,477,496,516,536,556,576,596,616,637,656,676,697,715,737,755,775,795,817,835,856,875,896,915,935,957,977,997,1016,1035,1057,1075,1096,1116,1136,1157,1176,1196,1215,1235,1255,1277,1297,1315,1335,1357,1376,1395,1415,1435,1456,1475,1497,1515,1536,1556,1575,1596,1617],"xSR":741.5,"ySR":573.95,"xT1":424.9,"yT1":0,"xT2":1058.1,"yT2":0,"toosoon":0,"cond_shown":"randomdotsizeEA","ratio_trial":250,"smaller_num":"2","larger_num":"8","correct_side":1,"subjID":"SarahLaiton27","gender":"1","age":"9","school":"4"},{"start_time":1552328299177,"click_time":1552328300603,"finger_time":1552328300243,"fix_duration":1091.4327464634653,"trial":16,"RT":1066,"MT":360,"sideResp":1,"stimulus":"img/750/randomdotsizeEA/L/8_Ratio_750_L_4_R_3.png","xmouse":[745,745,745,745,745,745,745,745,745,745,745,745,745,745,745,745,745,745,760,771,779,784,786,786,786,786,786,786,786,786,786,786,786,786,786,786,786,786,786,786,786,786,786,786,786,786,786,786,786,786,786,787,785,762,742,721,701,685,646,630,612,599,585,562,556,548,543,540,533,527,525,523],"ymouse":[578,578,578,578,578,578,578,578,578,578,578,578,578,578,578,578,578,579,595,603,609,612,613,613,613,613,613,613,613,613,613,613,613,613,613,613,613,613,613,613,613,613,613,613,613,613,613,613,613,613,613,610,602,525,479,426,380,326,229,187,144,109,79,37,29,21,17,16,13,11,10,10],"timestamp_mouse":[13,37,46,66,86,107,126,145,166,187,206,225,246,266,286,307,326,345,365,387,406,427,446,465,487,507,526,546,565,585,607,626,646,666,685,705,726,745,767,787,806,825,846,865,887,907,925,946,966,987,1005,1026,1046,1066,1086,1107,1127,1146,1166,1185,1206,1226,1245,1266,1287,1306,1326,1347,1366,1385,1405,1426],"xSR":741.5,"ySR":573.95,"xT1":424.9,"yT1":0,"xT2":1058.1,"yT2":0,"toosoon":0,"cond_shown":"randomdotsizeEA","ratio_trial":750,"smaller_num":"3","larger_num":"4","correct_side":1,"subjID":"SarahLaiton27","gender":"1","age":"9","school":"4"},{"start_time":1552328303075,"click_time":1552328304464,"finger_time":1552328303863,"fix_duration":250,"trial":17,"RT":788,"MT":601,"sideResp":1,"stimulus":"img/900/randomdotsizeEA/L/4_Ratio_900_L_20_R_18.png","xmouse":[791,791,791,791,791,791,791,791,791,791,791,791,791,791,791,791,791,791,791,791,791,791,791,791,791,791,791,791,791,791,791,791,791,791,791,791,789,784,746,727,713,705,701,693,690,686,681,670,650,644,635,623,607,574,559,546,535,530,521,520,518,515,511,504,501,499,493,484,464,451],"ymouse":[614,614,614,614,614,614,614,614,614,614,614,614,614,614,614,614,614,614,614,614,614,614,614,614,614,614,614,614,614,614,614,614,614,614,614,614,612,610,589,574,562,551,540,516,501,481,452,413,355,341,324,303,283,255,245,236,227,221,209,207,206,203,200,189,182,169,153,130,100,85],"timestamp_mouse":[12,31,48,67,88,107,129,149,167,189,208,227,248,267,289,309,327,348,369,388,407,427,449,468,488,509,528,547,567,589,607,627,647,667,689,707,727,748,768,788,807,827,848,867,887,907,928,947,968,989,1008,1029,1049,1069,1088,1107,1128,1147,1168,1188,1207,1228,1249,1267,1288,1307,1328,1348,1367,1388],"xSR":741.5,"ySR":573.95,"xT1":424.9,"yT1":0,"xT2":1058.1,"yT2":0,"toosoon":0,"cond_shown":"randomdotsizeEA","ratio_trial":900,"smaller_num":"18","larger_num":"20","correct_side":1,"subjID":"SarahLaiton27","gender":"1","age":"9","school":"4"},{"start_time":1552328305775,"click_time":1552328306724,"finger_time":1552328306402,"fix_duration":250,"trial":18,"RT":627,"MT":322,"sideResp":1,"stimulus":"img/250/equaldotanddens/L/1_Ratio_250_L_8_R_2.png","xmouse":[752,752,752,752,752,752,752,752,752,752,752,752,752,752,752,752,752,752,752,752,752,752,752,752,752,752,752,752,752,752,748,717,644,523,469,428,410,402,391,388,387,387,390,398,403,410,423,441],"ymouse":[641,641,641,641,641,641,641,641,641,641,641,641,641,641,641,641,641,641,641,641,641,641,641,641,641,641,641,641,641,640,620,545,407,245,174,114,76,51,4,0,0,0,0,0,0,0,0,1],"timestamp_mouse":[19,38,47,68,87,108,127,147,168,189,207,228,249,268,288,308,328,349,368,388,409,427,448,467,487,507,529,548,569,587,608,627,648,667,689,708,728,747,767,789,807,827,847,869,887,908,928,949],"xSR":741.5,"ySR":573.95,"xT1":424.9,"yT1":0,"xT2":1058.1,"yT2":0,"toosoon":0,"cond_shown":"equaldotanddens","ratio_trial":250,"smaller_num":"2","larger_num":"8","correct_side":1,"subjID":"SarahLaiton27","gender":"1","age":"9","school":"4"},{"start_time":1552328308707,"click_time":1552328310364,"finger_time":1552328309624,"fix_duration":863.113520972205,"trial":19,"RT":917,"MT":740,"sideResp":2,"stimulus":"img/900/randomdotsizeEA/R/15_Ratio_900_L_9_R_10.png","xmouse":[793,793,793,793,793,793,793,793,793,793,793,793,793,793,793,793,793,793,793,793,793,793,793,793,793,793,793,793,793,793,793,793,793,793,793,793,793,793,793,793,797,801,802,802,805,810,822,831,838,846,854,877,887,898,907,924,951,966,979,990,998,1005,1007,1013,1019,1028,1035,1038,1041,1042,1045,1051,1053,1057,1060,1065,1070,1071,1071,1072,1074,1082,1085],"ymouse":[644,644,644,644,644,644,644,644,644,644,644,644,644,644,644,644,644,644,644,644,644,644,644,644,644,644,644,644,644,644,644,644,644,644,644,644,644,644,627,617,607,594,590,587,580,566,536,516,499,482,465,433,419,404,389,360,309,278,257,240,229,218,213,203,194,188,181,178,173,170,163,154,148,141,133,125,119,119,118,116,112,101,95],"timestamp_mouse":[16,36,56,77,95,116,135,157,176,197,216,235,257,276,297,316,336,357,375,397,416,436,456,476,495,516,535,557,577,596,617,637,656,676,697,716,736,757,777,796,815,835,857,875,896,917,935,956,975,995,1015,1035,1055,1076,1096,1116,1136,1156,1176,1196,1217,1235,1256,1276,1297,1316,1336,1357,1376,1397,1416,1436,1455,1475,1496,1516,1536,1556,1575,1595,1615,1636,1656],"xSR":741.5,"ySR":573.95,"xT1":424.9,"yT1":0,"xT2":1058.1,"yT2":0,"toosoon":0,"cond_shown":"randomdotsizeEA","ratio_trial":900,"smaller_num":"9","larger_num":"10","correct_side":2,"subjID":"SarahLaiton27","gender":"1","age":"9","school":"4"},{"start_time":1552328314391,"click_time":1552328316044,"finger_time":1552328315504,"fix_duration":965.5167668765954,"trial":20,"RT":1113,"MT":540,"sideResp":2,"stimulus":"img/500/randomdotsizeEA/R/6_Ratio_500_L_9_R_18.png","xmouse":[797,797,797,797,797,797,797,797,797,797,797,797,797,797,797,797,797,797,797,797,797,797,797,797,797,797,797,797,797,797,797,797,797,797,797,797,797,797,797,797,797,797,797,797,797,797,797,797,797,797,797,796,774,759,747,738,737,737,736,742,762,795,898,925,942,956,970,1004,1016,1018,1018,1020,1028,1029,1029,1030,1030,1034,1039,1044,1055,1059,1068],"ymouse":[641,641,641,641,641,641,641,641,641,641,641,641,641,641,641,641,641,641,641,641,641,641,641,641,641,641,641,641,641,641,641,641,641,641,641,641,641,641,641,641,641,641,641,641,641,641,641,641,641,641,641,641,635,632,630,628,628,628,627,608,562,501,372,345,323,303,279,183,127,90,66,46,21,19,17,14,13,7,2,0,0,0,3],"timestamp_mouse":[14,36,53,71,92,113,131,152,173,192,212,232,253,271,291,312,331,351,372,391,411,433,452,472,492,511,531,553,571,591,612,633,652,672,692,713,732,753,771,792,812,832,853,871,892,911,932,953,972,992,1012,1033,1051,1072,1092,1113,1131,1151,1171,1191,1213,1232,1251,1271,1292,1313,1332,1352,1372,1392,1412,1431,1452,1472,1492,1512,1532,1551,1571,1592,1612,1631,1653],"xSR":741.5,"ySR":573.95,"xT1":424.9,"yT1":0,"xT2":1058.1,"yT2":0,"toosoon":0,"cond_shown":"randomdotsizeEA","ratio_trial":500,"smaller_num":"9","larger_num":"18","correct_side":2,"subjID":"SarahLaiton27","gender":"1","age":"9","school":"4"},{"start_time":1552328323037,"click_time":1552328324383,"finger_time":1552328324163,"fix_duration":1294.027686676357,"trial":21,"RT":1126,"MT":220,"sideResp":1,"stimulus":"img/750/equaldotanddens/L/8_Ratio_750_L_4_R_3.png","xmouse":[793,793,793,793,793,793,793,793,793,793,793,793,793,793,793,793,793,793,793,793,793,793,793,793,793,793,793,793,793,793,793,793,793,793,793,793,793,793,793,793,793,793,793,793,793,793,793,793,793,793,793,793,793,793,789,777,756,727,660,609,557,548,544,541,539,530,521,514],"ymouse":[609,609,609,609,609,609,609,609,609,609,609,609,609,609,609,609,609,609,609,609,609,609,609,609,609,609,609,609,609,609,609,609,609,609,609,609,609,609,609,609,609,609,609,609,609,609,609,609,609,609,609,609,609,609,608,599,562,485,363,289,197,175,161,152,141,118,103,91],"timestamp_mouse":[13,34,45,65,85,106,127,147,165,186,207,227,245,267,287,307,326,347,366,386,406,427,446,465,485,506,527,546,566,587,606,626,647,665,686,706,727,746,767,786,805,827,845,866,887,906,927,947,965,987,1006,1025,1047,1067,1085,1105,1126,1146,1165,1186,1206,1226,1246,1266,1286,1305,1327,1345],"xSR":741.5,"ySR":573.95,"xT1":424.9,"yT1":0,"xT2":1058.1,"yT2":0,"toosoon":0,"cond_shown":"equaldotanddens","ratio_trial":750,"smaller_num":"3","larger_num":"4","correct_side":1,"subjID":"SarahLaiton27","gender":"1","age":"9","school":"4"},{"start_time":1552328326941,"click_time":1552328328782,"finger_time":1552328328142,"fix_duration":1437.2094802868262,"trial":22,"RT":1201,"MT":640,"sideResp":1,"stimulus":"img/500/randomdotsizeEA/L/4_Ratio_500_L_18_R_9.png","xmouse":[755,755,755,755,755,755,755,755,755,755,755,755,755,755,755,755,755,755,755,755,755,755,755,755,755,755,755,755,755,755,755,755,755,755,755,755,755,755,755,755,755,755,755,755,755,755,755,755,755,755,755,755,755,755,755,755,755,755,755,754,741,733,728,727,727,727,727,727,727,727,727,723,718,706,693,665,658,648,648,642,601,582,566,533,501,463,453,448,445,444,444,444,444],"ymouse":[588,588,588,588,588,588,588,588,588,588,588,588,588,588,588,588,588,588,588,588,588,588,588,588,588,588,588,588,588,588,588,588,588,588,588,588,588,588,588,588,588,588,588,588,588,588,588,588,588,588,588,588,588,588,588,588,588,588,588,588,579,567,563,561,561,561,561,561,561,561,561,554,542,517,496,445,416,348,256,160,41,16,0,0,0,0,0,0,0,0,0,0,3],"timestamp_mouse":[20,30,42,62,83,101,121,143,163,183,202,221,243,262,282,301,323,341,363,381,403,422,442,461,482,503,522,542,563,583,603,621,641,662,681,701,721,743,775,783,802,823,841,862,882,902,921,941,961,981,1001,1021,1043,1061,1082,1101,1121,1142,1162,1182,1201,1221,1242,1263,1282,1303,1322,1342,1362,1381,1402,1422,1443,1462,1482,1501,1523,1542,1563,1583,1602,1621,1642,1662,1682,1702,1722,1742,1763,1782,1802,1821,1841],"xSR":741.5,"ySR":573.95,"xT1":424.9,"yT1":0,"xT2":1058.1,"yT2":0,"toosoon":0,"cond_shown":"randomdotsizeEA","ratio_trial":500,"smaller_num":"9","larger_num":"18","correct_side":1,"subjID":"SarahLaiton27","gender":"1","age":"9","school":"4"},{"start_time":1552328330174,"click_time":1552328331463,"finger_time":1552328330964,"fix_duration":349.7645385537094,"trial":23,"RT":790,"MT":499,"sideResp":2,"stimulus":"img/900/randomdotsizeEA/R/15_Ratio_900_L_9_R_10.png","xmouse":[782,782,782,782,782,782,782,782,782,782,782,782,782,782,782,782,782,782,782,782,782,782,782,782,782,782,782,782,782,782,782,782,782,783,783,784,790,803,819,855,867,881,892,926,959,993,1016,1029,1039,1039,1039,1039,1043,1050,1053,1054,1054,1055,1057,1061,1064,1066,1066,1069,1073],"ymouse":[624,624,624,624,624,624,624,624,624,624,624,624,624,624,624,624,624,624,624,624,624,624,624,624,624,624,624,624,624,624,624,624,624,624,624,624,619,606,594,566,554,533,515,453,392,345,321,309,299,290,270,249,213,160,144,136,130,127,123,117,113,111,110,104,98],"timestamp_mouse":[12,30,48,69,90,109,128,149,168,189,208,228,248,270,289,310,328,349,370,389,408,428,450,470,489,508,529,548,570,590,609,628,648,669,689,709,729,749,768,790,810,829,848,868,890,909,930,948,968,988,1010,1029,1048,1068,1089,1109,1129,1150,1168,1189,1210,1228,1249,1268,1289],"xSR":741.5,"ySR":573.95,"xT1":424.9,"yT1":0,"xT2":1058.1,"yT2":0,"toosoon":0,"cond_shown":"randomdotsizeEA","ratio_trial":900,"smaller_num":"9","larger_num":"10","correct_side":2,"subjID":"SarahLaiton27","gender":"1","age":"9","school":"4"},{"start_time":1552328373962,"click_time":1552328375184,"finger_time":1552328374644,"fix_duration":875.2238198539931,"trial":24,"RT":682,"MT":540,"sideResp":2,"stimulus":"img/750/equaldotsize/R/7_Ratio_750_L_3_R_4.png","xmouse":[769,769,769,769,769,769,769,769,769,769,769,769,769,769,769,769,769,769,769,769,769,769,769,769,769,769,769,769,769,769,768,771,785,807,844,851,860,869,883,887,890,895,904,916,936,941,945,948,952,952,952,952,956,961,1005,1022,1038,1051,1059,1070,1072,1072],"ymouse":[642,642,642,642,642,642,642,642,642,642,642,642,642,642,642,642,642,642,642,642,642,642,642,642,642,642,642,642,642,642,641,637,618,597,568,561,554,543,524,518,512,503,490,470,423,406,391,382,375,371,365,351,331,309,227,204,182,160,142,113,101,89],"timestamp_mouse":[11,21,41,62,83,102,123,142,162,181,202,223,243,261,281,302,321,342,362,381,403,423,443,463,482,503,522,541,563,583,601,621,642,662,682,701,722,742,762,781,802,821,842,862,883,902,922,942,963,982,1002,1022,1043,1062,1081,1101,1121,1141,1162,1181,1201,1222],"xSR":741.5,"ySR":573.95,"xT1":424.9,"yT1":0,"xT2":1058.1,"yT2":0,"toosoon":0,"cond_shown":"equaldotsize","ratio_trial":750,"smaller_num":"3","larger_num":"4","correct_side":2,"subjID":"SarahLaiton27","gender":"1","age":"9","school":"4"},{"start_time":1552328376429,"click_time":1552328377763,"finger_time":1552328377324,"fix_duration":583.7326888765483,"trial":25,"RT":895,"MT":439,"sideResp":2,"stimulus":"img/500/randomdotsizeEA/R/1_Ratio_500_L_9_R_18.png","xmouse":[801,801,801,801,801,801,801,801,801,801,801,801,801,801,801,801,801,801,801,801,801,801,801,801,801,801,801,801,801,801,801,801,801,801,801,801,801,801,801,801,801,801,801,803,856,905,955,999,1025,1045,1061,1083,1113,1140,1155,1175,1180,1182,1182,1181,1178,1177,1176,1176,1170,1163,1151],"ymouse":[631,631,631,631,631,631,631,631,631,631,631,631,631,631,631,631,631,631,631,631,631,631,631,631,631,631,631,631,631,631,631,631,631,631,631,631,631,631,631,631,631,631,631,624,527,442,371,330,313,295,272,236,192,155,135,99,83,72,65,49,45,42,40,39,37,37,42],"timestamp_mouse":[14,35,55,74,94,114,136,156,176,195,214,234,255,274,295,314,336,355,375,394,416,435,455,474,496,514,535,555,575,596,615,635,655,675,695,715,734,756,774,794,815,836,855,874,895,914,935,955,975,996,1015,1035,1056,1076,1095,1114,1134,1154,1175,1196,1214,1234,1255,1274,1296,1315,1334],"xSR":741.5,"ySR":573.95,"xT1":424.9,"yT1":0,"xT2":1058.1,"yT2":0,"toosoon":0,"cond_shown":"randomdotsizeEA","ratio_trial":500,"smaller_num":"9","larger_num":"18","correct_side":2,"subjID":"SarahLaiton27","gender":"1","age":"9","school":"4"},{"start_time":1552328380402,"click_time":1552328381665,"finger_time":1552328381105,"fix_duration":1378.0821770967905,"trial":26,"RT":703,"MT":560,"sideResp":2,"stimulus":"img/900/randomdotsizeEA/L/8_Ratio_900_L_20_R_18.png","xmouse":[791,791,791,791,791,791,791,791,791,791,791,791,791,791,791,791,791,791,791,791,791,791,791,791,791,791,791,791,791,791,794,799,800,802,809,820,831,853,863,875,886,906,923,935,945,957,977,985,992,994,994,1005,1015,1032,1043,1052,1058,1064,1067,1069,1071,1075,1085,1086],"ymouse":[600,600,600,600,600,600,600,600,600,600,600,600,600,600,600,600,600,600,600,600,600,600,600,600,600,600,600,600,600,600,601,603,603,603,590,572,551,508,483,459,432,387,350,326,301,273,225,212,206,203,200,186,176,164,156,149,145,135,129,124,119,113,101,98],"timestamp_mouse":[10,22,41,61,81,103,122,143,162,183,201,223,242,261,282,301,321,341,362,381,403,422,442,462,481,502,522,541,562,583,602,622,641,661,682,703,721,742,762,783,801,823,841,862,881,902,923,941,963,983,1002,1023,1041,1063,1081,1102,1122,1142,1161,1182,1202,1221,1242,1262],"xSR":741.5,"ySR":573.95,"xT1":424.9,"yT1":0,"xT2":1058.1,"yT2":0,"toosoon":0,"cond_shown":"randomdotsizeEA","ratio_trial":900,"smaller_num":"18","larger_num":"20","correct_side":1,"subjID":"SarahLaiton27","gender":"1","age":"9","school":"4"},{"start_time":1552328384096,"click_time":1552328386223,"finger_time":1552328385184,"fix_duration":971.7729409235101,"trial":27,"RT":1088,"MT":1039,"sideResp":1,"stimulus":"img/750/randomdotsizeEA/R/2_Ratio_750_L_6_R_8.png","xmouse":[795,795,795,795,795,795,795,795,795,795,795,795,795,796,797,799,806,810,812,813,814,814,814,814,814,815,815,815,815,815,815,815,815,815,815,815,815,815,815,816,816,816,816,816,816,816,816,816,810,791,772,758,757,754,749,745,737,725,717,712,704,683,675,670,665,660,643,633,617,609,603,596,564,544,519,482,451,379,359,341,330,324,321,321,321,323,332,343,348,354,359,362,370,373,377,382,390,400,405,410,413,417,421,422,422,423,426],"ymouse":[639,639,639,639,639,639,639,639,639,639,639,639,639,640,640,641,641,641,641,641,641,641,641,641,641,640,640,640,640,640,638,636,630,629,628,628,628,628,628,627,627,627,627,627,627,627,627,627,627,627,627,624,617,598,566,537,509,464,426,389,346,287,276,271,269,267,262,259,254,251,247,242,223,211,192,162,131,46,25,6,0,0,0,0,0,0,0,0,0,0,0,0,0,0,0,1,2,5,7,9,10,11,12,13,13,13,15],"timestamp_mouse":[9,38,47,69,88,108,127,147,169,188,208,228,249,267,287,307,329,348,367,387,409,428,448,467,487,508,529,548,568,587,607,628,647,668,688,708,729,747,768,788,808,828,849,868,887,908,927,947,967,987,1009,1028,1048,1068,1088,1108,1127,1147,1168,1187,1209,1229,1248,1268,1287,1307,1329,1347,1367,1387,1408,1427,1447,1467,1488,1509,1529,1547,1569,1587,1608,1629,1648,1667,1687,1709,1728,1748,1769,1787,1808,1827,1848,1868,1888,1907,1927,1947,1968,1988,2008,2027,2049,2067,2088,2108,2127],"xSR":741.5,"ySR":573.95,"xT1":424.9,"yT1":0,"xT2":1058.1,"yT2":0,"toosoon":0,"cond_shown":"randomdotsizeEA","ratio_trial":750,"smaller_num":"6","larger_num":"8","correct_side":2,"subjID":"SarahLaiton27","gender":"1","age":"9","school":"4"},{"start_time":1552328387496,"click_time":1552328388684,"finger_time":1552328388304,"fix_duration":250,"trial":28,"RT":808,"MT":380,"sideResp":1,"stimulus":"img/750/equaldotsize/L/6_Ratio_750_L_24_R_18.png","xmouse":[763,763,763,763,763,763,763,763,763,763,763,763,763,763,763,763,763,763,763,763,763,763,763,763,763,763,763,763,763,763,763,763,763,763,763,763,763,759,752,743,725,704,659,640,626,605,599,564,552,540,529,521,505,497,487,475,459,445,444,444],"ymouse":[654,654,654,654,654,654,654,654,654,654,654,654,654,654,654,654,654,654,654,654,654,654,654,654,654,654,654,654,654,654,654,654,654,654,654,654,654,652,635,612,581,546,482,459,439,410,399,337,309,282,257,237,212,198,182,159,131,106,100,94],"timestamp_mouse":[13,34,47,67,89,108,128,148,168,188,207,228,249,268,288,307,327,347,368,387,407,428,448,468,489,509,527,548,568,588,607,629,648,668,687,708,727,747,767,788,808,828,848,869,888,908,928,947,969,988,1009,1027,1048,1069,1087,1107,1127,1147,1168,1188],"xSR":741.5,"ySR":573.95,"xT1":424.9,"yT1":0,"xT2":1058.1,"yT2":0,"toosoon":0,"cond_shown":"equaldotsize","ratio_trial":750,"smaller_num":"18","larger_num":"24","correct_side":1,"subjID":"SarahLaiton27","gender":"1","age":"9","school":"4"},{"start_time":1552328389917,"click_time":1552328391243,"finger_time":1552328390663,"fix_duration":250,"trial":29,"RT":746,"MT":580,"sideResp":2,"stimulus":"img/900/equaldotsize/R/14_Ratio_900_L_18_R_20.png","xmouse":[786,786,786,786,786,786,786,786,786,786,786,786,786,786,786,786,786,786,786,786,786,786,786,786,786,786,786,786,786,786,786,792,797,802,808,815,818,819,825,830,840,862,872,884,893,906,924,932,939,943,949,959,965,970,977,982,991,997,1007,1022,1040,1080,1092,1099,1105,1114,1127],"ymouse":[621,621,621,621,621,621,621,621,621,621,621,621,621,621,621,621,621,621,621,621,621,621,621,621,621,621,621,621,621,620,620,617,613,608,602,591,577,569,557,548,534,495,469,435,400,354,308,292,280,268,253,225,217,211,208,205,200,195,188,177,164,141,133,128,122,109,86],"timestamp_mouse":[13,36,46,66,87,107,127,146,166,188,207,226,246,268,286,307,326,347,368,388,407,426,446,467,488,508,526,547,566,587,607,626,647,667,687,707,726,746,767,788,807,828,848,867,887,906,926,948,966,988,1007,1027,1046,1068,1087,1106,1126,1147,1166,1187,1207,1228,1248,1267,1287,1307,1326],"xSR":741.5,"ySR":573.95,"xT1":424.9,"yT1":0,"xT2":1058.1,"yT2":0,"toosoon":0,"cond_shown":"equaldotsize","ratio_trial":900,"smaller_num":"18","larger_num":"20","correct_side":2,"subjID":"SarahLaiton27","gender":"1","age":"9","school":"4"},{"start_time":1552328393024,"click_time":1552328394143,"finger_time":1552328393743,"fix_duration":879.0935967445786,"trial":30,"RT":719,"MT":400,"sideResp":1,"stimulus":"img/750/equaldotsize/L/6_Ratio_750_L_24_R_18.png","xmouse":[789,788,788,788,788,788,788,787,787,787,787,787,787,787,787,787,787,787,787,787,787,787,787,787,787,787,787,787,787,787,787,787,786,780,774,768,732,707,676,649,622,559,538,521,510,508,506,504,504,504,504,507,507,507,499,486,444],"ymouse":[629,629,629,629,629,630,630,631,631,631,631,631,631,631,631,631,631,631,631,631,631,632,632,632,632,632,632,632,632,632,632,632,629,615,599,586,557,546,533,523,511,480,467,455,449,447,442,431,414,385,374,319,288,258,221,177,85],"timestamp_mouse":[1,31,39,59,79,101,120,139,160,181,199,220,240,261,279,300,320,340,360,379,399,419,439,460,480,500,520,539,560,579,599,620,640,660,679,699,719,740,760,781,799,819,839,859,881,900,919,939,960,981,999,1019,1040,1059,1080,1100,1119],"xSR":741.5,"ySR":573.95,"xT1":424.9,"yT1":0,"xT2":1058.1,"yT2":0,"toosoon":0,"cond_shown":"equaldotsize","ratio_trial":750,"smaller_num":"18","larger_num":"24","correct_side":1,"subjID":"SarahLaiton27","gender":"1","age":"9","school":"4"},{"start_time":1552328395689,"click_time":1552328396603,"finger_time":1552328396303,"fix_duration":444.5873788567528,"trial":31,"RT":614,"MT":300,"sideResp":1,"stimulus":"img/500/equaldotanddens/L/13_Ratio_500_L_12_R_6.png","xmouse":[769,769,769,768,768,768,768,767,767,767,767,767,766,766,766,766,766,766,766,766,766,766,765,765,765,765,765,762,759,751,740,727,701,688,671,648,607,571,558,544,532,521,506,497,484,465],"ymouse":[599,599,598,598,597,597,597,597,597,596,596,596,594,593,593,593,593,593,593,593,593,593,593,593,593,592,592,591,588,580,571,560,528,504,468,412,326,254,223,198,178,163,138,127,109,86],"timestamp_mouse":[15,38,54,75,94,116,135,155,174,194,215,235,256,275,294,315,334,355,374,395,415,434,455,475,496,514,534,554,574,595,614,635,654,674,694,714,734,754,775,794,814,834,854,874,896,914],"xSR":741.5,"ySR":573.95,"xT1":424.9,"yT1":0,"xT2":1058.1,"yT2":0,"toosoon":0,"cond_shown":"equaldotanddens","ratio_trial":500,"smaller_num":"6","larger_num":"12","correct_side":1,"subjID":"SarahLaiton27","gender":"1","age":"9","school":"4"},{"start_time":1552328398800,"click_time":1552328399904,"finger_time":1552328398885,"fix_duration":1235.428165078909,"trial":32,"RT":85,"MT":1019,"sideResp":1,"stimulus":"img/250/equaldotanddens/L/5_Ratio_250_L_24_R_6.png","xmouse":[807,807,807,810,810,812,812,812,812,812,812,812,812,812,812,812,812,812,812,812,812,812,812,812,812,812,812,812,808,798,772,758,688,670,654,637,621,596,585,579,570,565,557,556,555,554,552,550,546,541,536,525,509,503,498,493],"ymouse":[581,581,580,574,573,571,571,571,571,571,571,571,571,571,571,571,571,571,571,571,571,571,571,571,571,571,571,566,556,538,477,446,335,310,291,274,261,245,239,235,230,226,215,211,210,208,205,192,181,171,160,147,125,115,103,95],"timestamp_mouse":[10,23,43,64,85,105,123,143,164,183,203,225,243,264,284,304,323,343,364,383,404,424,444,464,484,503,524,544,564,583,604,624,643,664,684,704,724,743,764,784,804,825,844,864,883,904,924,943,963,984,1003,1025,1044,1065,1083,1104],"xSR":741.5,"ySR":573.95,"xT1":424.9,"yT1":0,"xT2":1058.1,"yT2":0,"toosoon":0,"cond_shown":"equaldotanddens","ratio_trial":250,"smaller_num":"6","larger_num":"24","correct_side":1,"subjID":"SarahLaiton27","gender":"1","age":"9","school":"4"},{"start_time":1552328401112,"click_time":1552328402243,"finger_time":1552328401904,"fix_duration":346.44442198117895,"trial":33,"RT":792,"MT":339,"sideResp":1,"stimulus":"img/750/equaldotsize/L/6_Ratio_750_L_24_R_18.png","xmouse":[811,811,811,811,811,811,811,811,811,811,810,810,808,808,808,808,808,808,808,808,807,807,807,807,807,807,807,807,807,807,807,807,807,807,806,803,785,770,756,740,727,714,710,708,701,685,662,641,619,592,563,532,528,526,524,521,510],"ymouse":[641,641,641,641,641,641,641,641,640,640,640,639,639,639,639,639,639,639,639,639,639,639,639,639,639,639,639,639,639,639,639,639,639,639,639,638,632,628,624,619,615,609,602,579,525,425,333,282,234,186,149,122,118,113,108,105,99],"timestamp_mouse":[12,31,52,72,91,111,132,151,172,193,212,231,252,272,291,311,333,353,373,392,412,431,453,471,491,512,531,551,573,591,613,631,653,671,693,713,731,753,772,792,812,831,851,872,892,911,931,951,971,991,1011,1032,1051,1072,1092,1111,1131],"xSR":741.5,"ySR":573.95,"xT1":424.9,"yT1":0,"xT2":1058.1,"yT2":0,"toosoon":0,"cond_shown":"equaldotsize","ratio_trial":750,"smaller_num":"18","larger_num":"24","correct_side":1,"subjID":"SarahLaiton27","gender":"1","age":"9","school":"4"},{"start_time":1552328403504,"click_time":1552328404545,"finger_time":1552328404144,"fix_duration":259.29321748125875,"trial":34,"RT":640,"MT":401,"sideResp":2,"stimulus":"img/750/equaldotsize/R/2_Ratio_750_L_6_R_8.png","xmouse":[769,768,767,767,767,767,767,767,767,767,767,767,767,767,767,767,767,767,767,767,767,767,767,767,767,767,767,767,767,769,772,782,814,835,858,871,881,897,913,932,948,969,1006,1019,1028,1034,1044,1067,1072,1074,1074,1075,1087],"ymouse":[598,599,601,604,604,604,604,604,604,604,604,604,604,604,604,604,604,604,604,604,604,604,604,604,604,604,604,604,604,603,597,581,523,477,411,355,290,211,171,139,110,75,23,10,1,0,0,0,0,0,0,0,21],"timestamp_mouse":[1,21,39,59,80,100,119,140,161,181,201,219,240,261,281,300,319,340,359,380,401,421,440,460,481,500,520,540,560,580,600,619,640,659,680,699,721,739,760,780,800,820,839,859,879,900,919,939,959,980,1000,1020,1041],"xSR":741.5,"ySR":573.95,"xT1":424.9,"yT1":0,"xT2":1058.1,"yT2":0,"toosoon":0,"cond_shown":"equaldotsize","ratio_trial":750,"smaller_num":"6","larger_num":"8","correct_side":2,"subjID":"SarahLaiton27","gender":"1","age":"9","school":"4"},{"start_time":1552328405517,"click_time":1552328406765,"finger_time":1552328406185,"fix_duration":250,"trial":35,"RT":668,"MT":580,"sideResp":2,"stimulus":"img/500/randomdotsizeEA/R/6_Ratio_500_L_9_R_18.png","xmouse":[789,788,786,786,785,785,785,785,783,783,783,783,783,783,782,782,782,782,782,782,782,782,782,782,782,782,781,781,780,780,780,780,784,791,798,803,818,822,828,836,847,872,894,917,942,969,987,991,996,1003,1011,1017,1021,1023,1026,1028,1031,1033,1034,1036,1041,1054,1061],"ymouse":[637,636,635,635,634,634,634,634,633,633,633,633,632,632,632,632,632,632,632,632,632,632,632,632,632,632,632,631,627,623,618,609,581,562,541,522,457,434,405,378,342,248,192,142,100,63,42,38,33,27,23,18,17,17,17,17,18,20,21,22,26,35,39],"timestamp_mouse":[9,26,46,68,87,106,126,147,167,187,207,227,247,266,286,307,327,347,367,388,408,427,447,467,486,506,527,548,566,587,607,626,647,668,687,706,726,747,768,787,806,826,846,867,886,907,926,946,967,987,1006,1026,1048,1067,1087,1107,1127,1147,1166,1188,1207,1226,1248],"xSR":741.5,"ySR":573.95,"xT1":424.9,"yT1":0,"xT2":1058.1,"yT2":0,"toosoon":0,"cond_shown":"randomdotsizeEA","ratio_trial":500,"smaller_num":"9","larger_num":"18","correct_side":2,"subjID":"SarahLaiton27","gender":"1","age":"9","school":"4"},{"start_time":1552328408936,"click_time":1552328410145,"finger_time":1552328409564,"fix_duration":849.5070392566815,"trial":36,"RT":628,"MT":581,"sideResp":2,"stimulus":"img/900/equaldotsize/R/15_Ratio_900_L_9_R_10.png","xmouse":[795,795,795,795,795,795,795,795,791,779,760,758,758,758,758,758,758,758,758,758,758,758,758,758,758,757,757,758,761,763,768,776,790,819,858,882,890,900,912,929,951,959,964,971,974,980,985,992,999,1007,1019,1021,1023,1024,1027,1036,1042,1047,1052,1056,1069],"ymouse":[625,625,625,625,625,625,625,627,629,633,638,638,638,638,638,638,638,638,638,638,638,638,638,638,638,636,633,631,626,620,592,559,474,361,200,68,13,0,0,0,0,0,0,0,0,0,0,3,7,16,35,39,41,42,44,47,51,55,58,60,66],"timestamp_mouse":[13,33,47,68,87,109,129,148,168,188,208,229,247,267,288,309,328,348,368,389,408,429,447,467,487,507,529,548,569,588,607,628,649,667,687,708,727,748,768,787,808,828,849,868,887,908,927,947,968,988,1007,1029,1048,1067,1087,1107,1128,1148,1167,1188,1209],"xSR":741.5,"ySR":573.95,"xT1":424.9,"yT1":0,"xT2":1058.1,"yT2":0,"toosoon":0,"cond_shown":"equaldotsize","ratio_trial":900,"smaller_num":"9","larger_num":"10","correct_side":2,"subjID":"SarahLaiton27","gender":"1","age":"9","school":"4"},{"start_time":1552328412265,"click_time":1552328413345,"finger_time":1552328412843,"fix_duration":1279.783356251978,"trial":37,"RT":578,"MT":502,"sideResp":2,"stimulus":"img/500/equaldotsize/R/6_Ratio_500_L_9_R_18.png","xmouse":[786,784,783,782,782,782,782,782,780,779,778,776,775,773,772,771,770,770,770,770,770,770,771,774,774,776,777,779,788,793,799,810,822,843,855,869,895,909,933,943,951,959,965,981,990,1001,1009,1014,1017,1022,1033,1043,1050,1062],"ymouse":[627,627,627,626,626,626,626,626,625,624,624,622,622,621,619,617,615,613,610,609,608,607,605,598,594,591,587,580,560,549,534,515,491,441,409,363,288,258,218,202,184,166,152,129,121,115,111,108,107,105,101,96,95,93],"timestamp_mouse":[19,39,59,78,98,119,140,158,178,199,219,239,258,280,298,319,339,359,378,399,419,439,458,479,498,518,539,559,578,598,619,638,660,678,698,719,739,760,778,799,818,838,859,878,898,918,939,960,978,999,1018,1039,1060,1079],"xSR":741.5,"ySR":573.95,"xT1":424.9,"yT1":0,"xT2":1058.1,"yT2":0,"toosoon":0,"cond_shown":"equaldotsize","ratio_trial":500,"smaller_num":"9","larger_num":"18","correct_side":2,"subjID":"SarahLaiton27","gender":"1","age":"9","school":"4"},{"start_time":1552328416728,"click_time":1552328417665,"finger_time":1552328417424,"fix_duration":283.1646442363983,"trial":38,"RT":696,"MT":241,"sideResp":2,"stimulus":"img/250/equaldotanddens/R/13_Ratio_250_L_2_R_8.png","xmouse":[801,801,801,801,801,801,801,801,801,801,801,801,801,801,801,801,801,799,797,797,797,797,797,797,797,797,797,797,797,797,797,800,814,827,861,928,961,990,1017,1035,1045,1048,1050,1055,1055,1059,1061],"ymouse":[642,642,642,642,642,642,642,642,642,642,642,642,642,642,642,642,641,639,636,636,636,636,636,636,636,636,636,636,636,636,636,628,606,582,530,432,381,330,273,230,193,184,175,161,155,111,91],"timestamp_mouse":[15,35,56,76,96,116,136,156,177,197,216,235,256,276,296,315,337,356,376,397,415,435,456,475,495,517,535,556,577,595,616,635,656,676,696,715,736,755,776,795,816,836,856,876,896,915,936],"xSR":741.5,"ySR":573.95,"xT1":424.9,"yT1":0,"xT2":1058.1,"yT2":0,"toosoon":0,"cond_shown":"equaldotanddens","ratio_trial":250,"smaller_num":"2","larger_num":"8","correct_side":2,"subjID":"SarahLaiton27","gender":"1","age":"9","school":"4"},{"start_time":1552328422436,"click_time":1552328423624,"finger_time":1552328423044,"fix_duration":1349.3844926983404,"trial":39,"RT":608,"MT":580,"sideResp":1,"stimulus":"img/750/equaldotsize/L/14_Ratio_750_L_8_R_6.png","xmouse":[753,753,753,752,750,749,748,748,748,748,748,748,748,748,748,748,748,748,748,748,753,756,759,761,763,763,763,763,763,758,727,702,662,624,576,506,478,451,424,392,329,314,306,304,304,304,304,307,320,329,343,351,360,370,374,387,396,408,414,425],"ymouse":[632,632,632,631,628,627,625,625,624,624,624,624,624,624,624,624,624,624,624,622,614,610,606,603,601,599,598,596,592,576,527,496,455,421,380,313,268,196,98,1,0,0,0,0,0,0,0,0,3,5,9,13,17,24,29,41,48,56,61,69],"timestamp_mouse":[13,29,47,67,87,108,128,148,167,189,207,227,249,267,287,307,329,349,369,387,409,427,447,468,487,507,529,547,568,588,608,628,648,668,689,707,729,748,767,787,808,828,848,867,887,909,929,947,967,987,1008,1027,1048,1067,1088,1108,1128,1147,1168,1188],"xSR":741.5,"ySR":573.95,"xT1":424.9,"yT1":0,"xT2":1058.1,"yT2":0,"toosoon":0,"cond_shown":"equaldotsize","ratio_trial":750,"smaller_num":"6","larger_num":"8","correct_side":1,"subjID":"SarahLaiton27","gender":"1","age":"9","school":"4"},{"start_time":1552328424952,"click_time":1552328426164,"finger_time":1552328425743,"fix_duration":408.5302037099401,"trial":40,"RT":791,"MT":421,"sideResp":2,"stimulus":"img/900/randomdotsizeEA/L/2_Ratio_900_L_20_R_18.png","xmouse":[807,807,807,807,807,807,807,806,805,805,805,805,804,804,804,804,804,804,804,804,804,804,804,804,804,804,804,804,804,804,804,804,804,804,804,805,807,814,821,855,881,913,937,959,976,978,980,985,989,999,1006,1013,1024,1028,1043,1049,1060,1074,1094,1121,1127],"ymouse":[637,637,637,637,637,637,637,636,635,635,635,635,634,634,634,634,633,631,630,630,630,630,629,629,629,629,629,629,629,629,629,629,629,629,627,621,614,599,581,527,495,458,426,392,342,319,304,294,284,260,245,233,215,210,195,189,177,161,137,106,96],"timestamp_mouse":[15,38,52,73,92,112,132,152,172,192,213,231,251,273,292,312,332,353,373,402,412,432,452,472,493,513,532,551,573,591,611,632,652,671,691,712,733,753,771,791,812,833,852,873,891,912,931,951,972,991,1013,1033,1052,1071,1091,1111,1131,1151,1172,1191,1212],"xSR":741.5,"ySR":573.95,"xT1":424.9,"yT1":0,"xT2":1058.1,"yT2":0,"toosoon":0,"cond_shown":"randomdotsizeEA","ratio_trial":900,"smaller_num":"18","larger_num":"20","correct_side":1,"subjID":"SarahLaiton27","gender":"1","age":"9","school":"4"},{"start_time":1552328427758,"click_time":1552328428903,"finger_time":1552328427963,"fix_duration":771.835349699777,"trial":41,"RT":205,"MT":940,"sideResp":2,"stimulus":"img/900/equaldotanddens/L/1_Ratio_900_L_10_R_9.png","xmouse":[768,768,768,768,769,770,771,772,772,773,774,774,774,776,776,776,776,776,776,777,777,777,777,777,777,777,777,777,778,783,787,793,801,810,828,842,857,871,885,909,920,928,935,945,970,984,994,1004,1010,1025,1033,1043,1051,1063,1076,1084,1091,1093],"ymouse":[615,615,615,615,610,604,599,593,587,575,569,563,556,550,548,547,547,546,545,543,542,541,540,539,534,533,532,531,529,523,517,506,491,467,426,403,382,363,346,314,297,287,277,264,240,225,212,197,185,166,158,150,144,133,118,109,102,99],"timestamp_mouse":[13,31,45,66,85,106,126,147,166,185,205,226,247,267,286,305,326,345,366,386,407,425,445,467,485,505,525,545,566,585,605,626,645,666,685,706,726,745,765,785,806,825,845,866,885,906,926,946,965,985,1005,1025,1045,1066,1085,1107,1125,1145],"xSR":741.5,"ySR":573.95,"xT1":424.9,"yT1":0,"xT2":1058.1,"yT2":0,"toosoon":0,"cond_shown":"equaldotanddens","ratio_trial":900,"smaller_num":"9","larger_num":"10","correct_side":1,"subjID":"SarahLaiton27","gender":"1","age":"9","school":"4"},{"start_time":1552328435570,"click_time":1552328436683,"finger_time":1552328436263,"fix_duration":1004.8209125615164,"trial":42,"RT":693,"MT":420,"sideResp":1,"stimulus":"img/500/randomdotsizeEA/L/5_Ratio_500_L_4_R_2.png","xmouse":[755,755,755,755,755,754,754,754,754,754,754,753,752,751,751,751,751,751,751,751,750,750,750,750,750,750,750,750,750,750,750,750,750,747,733,712,684,635,493,430,390,366,349,318,306,300,299,299,314,326,339,352,374,406,417,425],"ymouse":[640,640,640,640,640,640,640,640,640,639,639,638,636,634,634,634,634,634,634,634,634,634,634,634,634,634,634,633,633,633,633,632,630,608,582,548,504,441,303,244,203,160,118,38,20,9,1,0,0,0,0,0,0,3,6,9],"timestamp_mouse":[15,34,54,73,93,113,133,153,173,194,213,234,254,273,294,314,333,353,374,393,413,434,453,474,493,513,534,553,573,593,614,633,654,673,693,713,733,753,774,793,813,834,854,873,893,913,934,953,975,994,1013,1034,1054,1073,1094,1113],"xSR":741.5,"ySR":573.95,"xT1":424.9,"yT1":0,"xT2":1058.1,"yT2":0,"toosoon":0,"cond_shown":"randomdotsizeEA","ratio_trial":500,"smaller_num":"2","larger_num":"4","correct_side":1,"subjID":"SarahLaiton27","gender":"1","age":"9","school":"4"},{"start_time":1552328442141,"click_time":1552328447403,"finger_time":1552328444664,"fix_duration":1476.243596616859,"trial":43,"RT":2523,"MT":2739,"sideResp":1,"stimulus":"img/750/equaldotanddens/L/8_Ratio_750_L_4_R_3.png","xmouse":[770,770,770,770,770,770,770,770,770,770,770,770,770,770,770,770,770,770,770,770,770,769,769,769,769,769,769,769,769,769,769,769,769,768,768,768,768,768,768,768,768,768,768,768,768,768,768,768,768,768,768,768,768,768,768,768,768,768,768,769,770,771,771,771,771,771,771,771,771,771,771,771,771,771,771,771,771,771,771,772,772,772,772,772,772,772,772,772,772,772,772,772,771,771,772,772,772,772,772,772,772,772,772,772,772,772,772,772,772,772,772,772,772,772,772,772,772,772,772,772,772,772,772,771,770,765,763,758,755,751,740,731,722,716,703,683,676,670,666,662,658,658,658,658,654,645,636,620,604,586,560,556,555,555,555,553,552,549,547,543,537,535,532,529,527,522,521,521,521,521,521,521,521,521,521,521,519,518,517,517,517,516,516,516,516,516,516,516,516,517,518,518,518,518,518,518,518,518,518,518,518,518,518,518,517,516,516,516,516,516,516,516,516,516,516,516,516,516,516,516,516,516,516,516,515,515,515,515,515,515,515,515,515,515,515,515,515,515,515,515,515,515,515,515,515,515,515,515,515,515,515,515,515,515,515,515,515,515,515,515,515,515,515,515],"ymouse":[616,616,616,616,616,616,616,616,616,616,616,616,616,616,616,616,616,614,613,612,609,609,609,609,608,608,608,608,608,607,607,606,606,606,605,605,605,605,605,605,604,604,604,603,603,603,603,602,602,602,601,601,601,601,601,601,601,601,600,600,600,599,599,599,599,599,599,599,599,599,599,599,599,599,599,599,599,599,599,599,599,599,599,599,599,599,599,599,599,599,599,599,599,599,600,600,600,600,600,600,600,600,600,600,600,600,600,600,600,600,600,600,600,600,600,600,600,600,600,600,600,600,599,597,590,575,562,544,524,501,434,392,363,337,304,268,254,244,237,230,226,226,226,226,221,215,210,201,194,186,175,172,171,171,171,169,165,160,156,151,143,141,137,132,128,122,120,120,120,120,120,120,120,120,120,118,115,114,113,113,113,112,112,112,112,112,112,112,112,111,110,109,109,109,108,108,108,106,106,105,105,105,105,104,103,103,103,103,103,103,103,103,103,103,103,103,103,103,103,103,103,103,103,103,102,102,102,102,102,102,102,102,101,101,101,101,101,101,101,101,101,101,101,101,101,101,101,101,101,101,101,101,101,101,101,101,101,101,101,101,101,101,100,99],"timestamp_mouse":[10,33,42,62,82,103,122,142,162,183,203,223,243,263,283,303,322,343,363,384,402,423,442,463,483,502,522,542,562,583,602,622,642,663,683,703,723,743,762,784,802,822,843,863,883,903,922,943,962,983,1002,1023,1042,1062,1083,1103,1123,1142,1163,1182,1203,1222,1244,1263,1282,1303,1323,1342,1362,1383,1403,1423,1442,1463,1483,1503,1522,1543,1563,1582,1602,1623,1643,1663,1682,1703,1722,1742,1763,1782,1803,1822,1843,1862,1882,1903,1923,1944,1962,1982,2003,2024,2042,2063,2083,2103,2122,2142,2163,2183,2203,2222,2242,2263,2282,2302,2322,2343,2363,2383,2404,2423,2442,2462,2483,2502,2523,2543,2563,2583,2603,2624,2642,2663,2683,2702,2724,2742,2763,2782,2802,2822,2843,2862,2883,2902,2923,2942,2963,2984,3003,3023,3043,3062,3082,3102,3123,3142,3162,3183,3202,3223,3243,3262,3283,3303,3322,3343,3363,3383,3403,3423,3442,3462,3483,3502,3522,3542,3563,3583,3603,3622,3642,3662,3683,3703,3723,3742,3762,3782,3802,3822,3842,3863,3882,3903,3923,3942,3962,3982,4002,4023,4043,4062,4082,4103,4122,4143,4163,4183,4202,4222,4242,4262,4282,4303,4322,4342,4363,4382,4402,4422,4442,4462,4482,4503,4522,4543,4562,4583,4602,4622,4642,4662,4683,4702,4723,4742,4762,4782,4804,4822,4842,4862,4882,4902,4923,4943,4962,4983,5002,5022,5043,5063,5082,5102,5122,5142,5162,5183,5203,5222,5242,5262],"xSR":741.5,"ySR":573.95,"xT1":424.9,"yT1":0,"xT2":1058.1,"yT2":0,"toosoon":0,"cond_shown":"equaldotanddens","ratio_trial":750,"smaller_num":"3","larger_num":"4","correct_side":1,"subjID":"SarahLaiton27","gender":"1","age":"9","school":"4"},{"start_time":1552328452625,"click_time":1552328454043,"finger_time":1552328453404,"fix_duration":958.7318132206221,"trial":44,"RT":779,"MT":639,"sideResp":1,"stimulus":"img/500/equaldotanddens/L/7_Ratio_500_L_10_R_5.png","xmouse":[787,787,787,787,787,787,787,787,787,787,787,787,787,787,787,787,787,787,787,787,787,787,787,787,787,787,787,787,787,785,778,773,771,770,768,767,759,752,732,705,630,608,587,565,546,514,503,497,494,494,492,492,492,492,492,494,494,494,495,496,500,501,502,503,506,507,508,508,508,508,507],"ymouse":[613,613,613,613,613,613,613,613,613,613,613,613,613,613,613,613,613,613,613,613,613,613,613,613,613,613,613,613,613,613,613,615,616,616,616,616,612,607,592,573,511,482,450,408,376,315,288,266,249,234,214,209,205,203,199,193,191,189,184,182,166,161,157,152,132,124,117,114,109,103,98],"timestamp_mouse":[19,39,59,78,98,118,139,159,178,199,218,238,258,278,299,319,338,359,379,399,419,438,458,479,498,520,539,558,579,598,620,638,659,679,699,720,738,759,779,798,818,839,858,879,900,919,938,958,979,999,1018,1039,1058,1078,1098,1119,1139,1160,1178,1199,1218,1238,1258,1279,1300,1319,1339,1359,1380,1398,1418],"xSR":741.5,"ySR":573.95,"xT1":424.9,"yT1":0,"xT2":1058.1,"yT2":0,"toosoon":0,"cond_shown":"equaldotanddens","ratio_trial":500,"smaller_num":"5","larger_num":"10","correct_side":1,"subjID":"SarahLaiton27","gender":"1","age":"9","school":"4"},{"start_time":1552328472048,"click_time":1552328473103,"finger_time":1552328472743,"fix_duration":1242.8866234630082,"trial":45,"RT":695,"MT":360,"sideResp":1,"stimulus":"img/900/equaldotsize/L/1_Ratio_900_L_10_R_9.png","xmouse":[780,780,781,781,781,781,781,781,781,781,781,781,781,781,781,781,781,781,781,781,781,781,781,781,781,781,783,785,789,792,793,794,794,795,795,794,787,776,761,727,725,726,737,753,779,786,786,780,767,673,614,555,508],"ymouse":[606,607,607,607,607,607,607,607,607,607,607,607,607,607,607,607,607,607,607,607,607,607,607,607,607,607,607,605,600,596,595,592,588,582,560,543,518,480,433,349,328,307,282,256,210,193,175,160,140,77,54,39,30],"timestamp_mouse":[15,37,56,75,96,115,135,156,175,196,215,235,255,276,295,316,336,356,375,395,416,435,455,475,496,516,535,555,576,595,615,635,656,676,695,716,736,755,776,795,816,835,856,875,896,916,936,955,975,995,1016,1035,1055],"xSR":741.5,"ySR":573.95,"xT1":424.9,"yT1":0,"xT2":1058.1,"yT2":0,"toosoon":0,"cond_shown":"equaldotsize","ratio_trial":900,"smaller_num":"9","larger_num":"10","correct_side":1,"subjID":"SarahLaiton27","gender":"1","age":"9","school":"4"},{"start_time":1552328474395,"click_time":1552328475564,"finger_time":1552328475143,"fix_duration":250,"trial":46,"RT":748,"MT":421,"sideResp":2,"stimulus":"img/250/equaldotsize/R/4_Ratio_250_L_3_R_12.png","xmouse":[748,748,748,748,748,748,748,750,751,753,755,755,755,755,755,755,755,756,758,758,758,758,758,759,759,759,759,759,759,759,759,759,760,765,773,784,794,818,833,855,897,946,1047,1079,1110,1138,1156,1171,1173,1175,1176,1177,1177,1175,1172,1170,1161,1156,1150],"ymouse":[646,646,646,646,646,643,639,625,623,621,620,620,620,620,620,620,620,620,620,620,620,620,620,620,620,620,621,622,622,622,622,622,623,618,609,591,577,545,527,501,453,405,311,283,254,227,205,177,172,165,156,138,122,116,113,110,106,103,99],"timestamp_mouse":[10,37,48,69,89,109,128,148,169,188,208,229,249,268,289,309,328,348,368,388,408,428,448,468,488,508,528,549,568,589,610,628,649,669,688,709,728,748,769,789,808,828,848,869,888,908,929,949,968,988,1008,1028,1048,1068,1088,1109,1129,1148,1169],"xSR":741.5,"ySR":573.95,"xT1":424.9,"yT1":0,"xT2":1058.1,"yT2":0,"toosoon":0,"cond_shown":"equaldotsize","ratio_trial":250,"smaller_num":"3","larger_num":"12","correct_side":2,"subjID":"SarahLaiton27","gender":"1","age":"9","school":"4"},{"start_time":1552328481284,"click_time":1552328482064,"finger_time":1552328481443,"fix_duration":420.9451062405036,"trial":47,"RT":159,"MT":621,"sideResp":1,"stimulus":"img/900/equaldotsize/R/5_Ratio_900_L_9_R_10.png","xmouse":[749,748,747,745,743,742,742,741,740,740,739,737,736,736,736,736,736,736,735,735,735,735,735,735,733,733,729,721,714,703,693,668,654,634,607,568,554,493,478],"ymouse":[617,617,617,617,617,617,617,617,617,617,617,616,616,616,616,616,616,616,616,616,616,616,615,615,614,613,606,592,579,562,544,496,464,425,380,311,280,131,94],"timestamp_mouse":[20,40,59,79,99,120,139,159,179,199,219,239,259,279,300,320,339,359,380,399,420,440,459,480,499,520,540,559,579,599,619,640,660,680,700,719,739,760,779],"xSR":741.5,"ySR":573.95,"xT1":424.9,"yT1":0,"xT2":1058.1,"yT2":0,"toosoon":0,"cond_shown":"equaldotsize","ratio_trial":900,"smaller_num":"9","larger_num":"10","correct_side":2,"subjID":"SarahLaiton27","gender":"1","age":"9","school":"4"},{"start_time":1552328485615,"click_time":1552328486824,"finger_time":1552328486243,"fix_duration":250,"trial":48,"RT":628,"MT":581,"sideResp":2,"stimulus":"img/250/randomdotsizeEA/R/9_Ratio_250_L_3_R_12.png","xmouse":[761,761,761,761,761,761,761,761,761,761,761,761,761,761,761,761,761,761,761,761,761,761,761,761,761,761,761,761,761,761,761,764,776,802,839,879,936,957,979,983,991,996,998,998,999,1001,1003,1004,1004,1006,1010,1023,1031,1036,1041,1042,1042,1044,1051,1054,1064],"ymouse":[585,585,585,585,585,585,585,585,585,585,585,585,585,585,585,585,585,585,585,585,585,585,585,585,585,585,585,585,585,585,585,568,532,473,418,377,310,272,218,202,164,131,121,115,107,97,88,87,87,86,85,80,77,75,73,73,73,72,65,62,57],"timestamp_mouse":[12,37,48,68,89,108,128,149,168,188,209,229,249,269,288,308,329,348,370,389,409,428,449,469,488,508,529,548,569,588,609,628,649,668,689,708,729,748,768,789,809,828,849,868,889,908,928,949,969,990,1008,1028,1048,1068,1088,1108,1129,1149,1169,1188,1209],"xSR":741.5,"ySR":573.95,"xT1":424.9,"yT1":0,"xT2":1058.1,"yT2":0,"toosoon":0,"cond_shown":"randomdotsizeEA","ratio_trial":250,"smaller_num":"3","larger_num":"12","correct_side":2,"subjID":"SarahLaiton27","gender":"1","age":"9","school":"4"},{"start_time":1552328489102,"click_time":1552328490204,"finger_time":1552328489904,"fix_duration":1158.1811258243067,"trial":49,"RT":802,"MT":300,"sideResp":1,"stimulus":"img/900/equaldotsize/L/10_Ratio_900_L_20_R_18.png","xmouse":[826,826,824,823,823,823,822,820,817,815,814,814,814,814,814,814,813,811,811,810,810,809,809,809,809,809,809,809,809,809,809,809,809,809,809,809,809,806,796,781,754,723,655,630,611,594,578,529,512,498,488,481,474,473,472,472],"ymouse":[600,600,600,600,600,600,600,601,602,603,603,603,603,603,603,603,603,603,603,603,603,603,603,603,603,603,603,603,603,603,603,603,603,603,603,603,603,603,595,575,527,452,315,280,260,244,232,189,167,150,133,121,109,106,104,96],"timestamp_mouse":[2,22,42,61,81,101,122,141,162,182,201,223,241,261,281,301,322,341,362,381,401,422,442,461,481,501,522,542,561,582,602,622,642,662,681,702,722,741,762,782,802,821,842,861,882,902,921,941,961,982,1001,1021,1042,1062,1081,1102],"xSR":741.5,"ySR":573.95,"xT1":424.9,"yT1":0,"xT2":1058.1,"yT2":0,"toosoon":0,"cond_shown":"equaldotsize","ratio_trial":900,"smaller_num":"18","larger_num":"20","correct_side":1,"subjID":"SarahLaiton27","gender":"1","age":"9","school":"4"},{"start_time":1552328493475,"click_time":1552328494565,"finger_time":1552328494024,"fix_duration":1489.883107675155,"trial":50,"RT":549,"MT":541,"sideResp":2,"stimulus":"img/750/equaldotsize/R/12_Ratio_750_L_3_R_4.png","xmouse":[791,791,791,791,791,791,791,791,791,791,791,791,791,791,792,792,792,792,792,792,792,792,792,793,794,797,802,818,855,881,905,929,958,1007,1026,1038,1045,1051,1056,1059,1063,1070,1077,1085,1088,1090,1092,1094,1104,1105,1105,1106,1107,1108,1108],"ymouse":[609,608,607,606,606,606,604,604,603,603,603,603,603,603,601,601,601,601,601,601,600,599,597,594,592,588,584,573,549,529,508,482,441,360,329,311,302,296,288,283,270,256,244,231,225,219,212,200,157,145,135,127,121,106,96],"timestamp_mouse":[10,28,48,68,89,108,128,148,168,188,208,228,249,268,288,308,328,348,369,388,408,428,449,468,488,509,528,549,569,590,608,628,648,668,689,709,729,749,769,788,808,829,849,869,888,908,928,948,968,988,1008,1028,1048,1069,1089],"xSR":741.5,"ySR":573.95,"xT1":424.9,"yT1":0,"xT2":1058.1,"yT2":0,"toosoon":0,"cond_shown":"equaldotsize","ratio_trial":750,"smaller_num":"3","larger_num":"4","correct_side":2,"subjID":"SarahLaiton27","gender":"1","age":"9","school":"4"},{"start_time":1552328498028,"click_time":1552328499524,"finger_time":1552328498784,"fix_duration":1261.11309895691,"trial":51,"RT":756,"MT":740,"sideResp":1,"stimulus":"img/250/randomdotsizeEA/L/7_Ratio_250_L_8_R_2.png","xmouse":[766,766,766,766,766,766,766,766,766,766,766,766,766,766,767,770,771,771,771,771,772,773,775,775,775,775,775,775,776,777,777,777,777,777,777,780,786,793,801,805,789,764,742,723,710,691,683,670,658,642,629,625,623,621,620,620,620,618,613,611,597,585,573,562,552,541,538,538,537,536,532,530,529,527,524],"ymouse":[644,644,644,644,644,644,644,644,643,643,642,640,639,637,635,629,628,628,628,628,628,626,624,624,624,624,624,624,624,622,620,620,620,620,619,603,584,561,520,439,364,307,261,210,167,103,79,56,39,24,15,13,12,11,11,11,11,11,14,15,22,24,26,26,26,26,26,26,25,25,24,24,24,24,24],"timestamp_mouse":[20,36,56,76,98,116,137,157,177,197,216,238,256,277,297,316,338,357,377,396,418,437,456,478,497,516,537,558,577,596,616,638,656,677,696,716,737,756,777,798,816,836,856,876,896,917,936,958,976,997,1016,1037,1057,1077,1098,1117,1137,1157,1176,1196,1216,1236,1256,1277,1296,1317,1337,1356,1376,1396,1418,1436,1456,1476,1496],"xSR":741.5,"ySR":573.95,"xT1":424.9,"yT1":0,"xT2":1058.1,"yT2":0,"toosoon":0,"cond_shown":"randomdotsizeEA","ratio_trial":250,"smaller_num":"2","larger_num":"8","correct_side":1,"subjID":"SarahLaiton27","gender":"1","age":"9","school":"4"},{"start_time":1552328501036,"click_time":1552328502504,"finger_time":1552328501945,"fix_duration":250,"trial":52,"RT":909,"MT":559,"sideResp":2,"stimulus":"img/250/equaldotsize/R/13_Ratio_250_L_2_R_8.png","xmouse":[778,778,778,778,778,778,778,778,778,778,778,778,778,778,778,778,778,778,778,777,775,774,774,774,774,774,774,774,774,774,774,774,774,774,774,774,774,774,774,774,779,785,795,807,820,845,861,884,914,937,978,989,1002,1014,1029,1052,1071,1087,1093,1097,1097,1097,1097,1097,1099,1099,1099,1099,1099,1099,1099,1100,1100,1100],"ymouse":[647,647,647,647,647,647,647,647,647,647,647,647,647,647,647,647,647,647,647,647,647,647,647,647,647,647,647,647,647,647,647,647,647,647,647,647,647,647,647,647,647,641,630,612,595,567,556,545,531,521,502,496,488,481,472,458,446,432,420,398,348,329,315,303,289,262,248,235,223,209,167,144,116,80],"timestamp_mouse":[12,35,50,69,89,109,129,148,168,190,208,229,249,268,289,308,328,348,369,388,409,430,448,468,489,510,528,548,568,588,610,629,648,669,689,710,728,749,769,788,808,828,849,869,889,909,930,949,969,989,1009,1029,1050,1068,1089,1109,1129,1149,1168,1188,1210,1229,1249,1268,1289,1309,1329,1349,1369,1389,1408,1428,1448,1468],"xSR":741.5,"ySR":573.95,"xT1":424.9,"yT1":0,"xT2":1058.1,"yT2":0,"toosoon":0,"cond_shown":"equaldotsize","ratio_trial":250,"smaller_num":"2","larger_num":"8","correct_side":2,"subjID":"SarahLaiton27","gender":"1","age":"9","school":"4"},{"start_time":1552328504197,"click_time":1552328506404,"finger_time":1552328505504,"fix_duration":250,"trial":53,"RT":1307,"MT":900,"sideResp":1,"stimulus":"img/500/equaldotanddens/L/8_Ratio_500_L_8_R_4.png","xmouse":[781,781,781,781,781,781,781,781,781,781,781,782,778,775,772,769,767,764,764,763,762,761,755,754,753,751,749,748,747,747,747,747,747,747,747,747,747,747,747,747,745,745,745,745,745,745,746,747,748,749,749,750,751,751,751,751,751,751,751,751,751,751,751,755,760,768,778,790,791,791,783,775,743,741,741,741,741,743,745,747,748,750,750,750,750,750,750,740,729,708,676,649,574,549,527,517,513,508,507,507,507,507,507,512,513,515,516,516,516,514,503],"ymouse":[604,604,604,604,604,604,604,604,604,604,604,605,614,619,623,626,628,629,630,630,631,632,636,637,638,640,640,640,640,640,640,640,640,640,640,640,640,640,640,640,639,635,628,625,620,615,614,612,611,611,610,608,607,607,607,607,607,607,607,607,607,607,607,600,588,573,557,543,543,543,554,565,603,605,605,605,605,597,592,587,584,581,579,578,576,571,563,532,508,468,417,381,291,258,227,206,193,170,165,165,165,165,165,166,166,166,166,158,148,131,93],"timestamp_mouse":[13,28,47,68,88,108,127,147,168,188,209,227,247,268,288,309,327,347,368,388,407,428,447,468,487,507,527,548,567,588,607,628,647,669,687,708,727,747,767,787,808,828,847,867,887,908,927,947,967,987,1008,1027,1048,1068,1088,1108,1129,1148,1168,1189,1207,1227,1248,1267,1287,1307,1328,1347,1369,1387,1408,1427,1447,1467,1487,1507,1527,1548,1568,1588,1609,1628,1647,1668,1687,1707,1727,1747,1767,1788,1807,1829,1847,1867,1887,1908,1929,1947,1967,1988,2008,2027,2047,2067,2087,2108,2128,2148,2167,2188,2207],"xSR":741.5,"ySR":573.95,"xT1":424.9,"yT1":0,"xT2":1058.1,"yT2":0,"toosoon":0,"cond_shown":"equaldotanddens","ratio_trial":500,"smaller_num":"4","larger_num":"8","correct_side":1,"subjID":"SarahLaiton27","gender":"1","age":"9","school":"4"},{"start_time":1552328509838,"click_time":1552328511106,"finger_time":1552328510545,"fix_duration":591.0546631665808,"trial":54,"RT":707,"MT":561,"sideResp":2,"stimulus":"img/750/randomdotsizeEA/R/3_Ratio_750_L_15_R_20.png","xmouse":[760,760,760,760,760,760,760,760,760,760,760,760,760,760,760,760,760,760,760,760,760,760,761,761,761,761,762,762,763,763,763,763,763,764,766,771,775,783,794,810,836,847,860,875,892,945,971,989,1006,1022,1038,1042,1043,1043,1043,1045,1046,1046,1047,1048,1050,1051,1055,1062],"ymouse":[620,620,620,620,620,620,620,620,620,620,620,620,620,620,620,620,620,620,620,620,620,620,621,621,621,621,621,621,620,618,612,606,598,588,576,543,525,507,490,465,434,419,405,387,366,308,285,269,255,233,180,157,142,136,132,117,111,109,108,104,101,100,100,97],"timestamp_mouse":[12,33,46,66,87,107,127,146,167,187,207,227,247,267,287,306,327,347,368,386,407,428,447,466,486,507,527,547,567,587,606,627,646,667,686,707,726,746,767,787,806,826,846,867,886,906,926,947,968,986,1006,1027,1046,1066,1087,1107,1127,1147,1166,1186,1207,1227,1247,1268],"xSR":741.5,"ySR":573.95,"xT1":424.9,"yT1":0,"xT2":1058.1,"yT2":0,"toosoon":0,"cond_shown":"randomdotsizeEA","ratio_trial":750,"smaller_num":"15","larger_num":"20","correct_side":2,"subjID":"SarahLaiton27","gender":"1","age":"9","school":"4"},{"start_time":1552328512430,"click_time":1552328513745,"finger_time":1552328513144,"fix_duration":543.136815454236,"trial":55,"RT":714,"MT":601,"sideResp":1,"stimulus":"img/750/randomdotsizeEA/R/2_Ratio_750_L_6_R_8.png","xmouse":[796,796,796,796,796,796,796,796,796,796,796,796,796,796,796,796,796,796,796,796,796,796,796,796,796,796,796,796,796,796,796,796,803,815,829,853,861,865,867,869,870,870,869,861,849,817,796,774,752,730,683,669,661,657,654,646,643,643,643,638,621,575,555,543,532,521],"ymouse":[609,609,609,609,609,609,609,609,609,609,609,609,609,609,609,609,609,609,609,609,609,609,609,609,609,609,609,609,609,609,609,609,607,604,600,590,585,581,579,573,562,553,540,517,489,397,344,295,248,199,85,60,43,28,13,0,0,0,0,0,5,21,27,31,34,43],"timestamp_mouse":[15,34,56,76,95,114,135,155,176,196,215,235,255,274,295,315,334,354,375,395,416,435,454,474,494,515,534,555,574,594,615,634,655,674,694,714,734,755,775,795,814,835,855,874,894,915,935,955,976,995,1016,1034,1054,1075,1094,1116,1134,1155,1175,1195,1215,1235,1254,1275,1295,1314],"xSR":741.5,"ySR":573.95,"xT1":424.9,"yT1":0,"xT2":1058.1,"yT2":0,"toosoon":0,"cond_shown":"randomdotsizeEA","ratio_trial":750,"smaller_num":"6","larger_num":"8","correct_side":2,"subjID":"SarahLaiton27","gender":"1","age":"9","school":"4"},{"start_time":1552328518290,"click_time":1552328519525,"finger_time":1552328518964,"fix_duration":323.88619239308247,"trial":56,"RT":674,"MT":561,"sideResp":1,"stimulus":"img/900/equaldotsize/L/1_Ratio_900_L_10_R_9.png","xmouse":[779,781,781,781,781,781,781,781,781,781,781,781,781,781,781,781,781,781,781,781,781,781,781,781,781,781,781,781,781,781,784,789,805,810,814,818,820,822,822,822,822,818,791,777,767,758,742,711,685,662,639,621,610,610,610,609,600,561,541,533,528,515],"ymouse":[631,631,631,631,631,631,631,631,631,631,631,631,631,631,631,631,631,631,631,631,631,631,631,631,631,631,631,631,631,631,625,617,579,562,548,529,516,493,477,454,428,386,247,198,165,143,122,93,77,62,52,45,42,42,42,42,43,63,70,72,73,77],"timestamp_mouse":[15,34,54,76,96,115,135,154,176,196,215,235,255,274,294,314,335,354,374,394,414,435,454,475,495,514,534,556,576,596,615,634,655,674,694,714,735,754,775,794,815,835,855,875,896,915,935,954,975,995,1014,1034,1054,1074,1095,1115,1134,1154,1175,1195,1215,1235],"xSR":741.5,"ySR":573.95,"xT1":424.9,"yT1":0,"xT2":1058.1,"yT2":0,"toosoon":0,"cond_shown":"equaldotsize","ratio_trial":900,"smaller_num":"9","larger_num":"10","correct_side":1,"subjID":"SarahLaiton27","gender":"1","age":"9","school":"4"},{"start_time":1552328521727,"click_time":1552328522805,"finger_time":1552328522345,"fix_duration":920.4064265543183,"trial":57,"RT":618,"MT":460,"sideResp":2,"stimulus":"img/900/randomdotsizeEA/R/12_Ratio_900_L_18_R_20.png","xmouse":[787,787,787,787,787,787,787,787,787,787,788,789,789,790,791,791,791,791,791,792,793,798,801,802,802,802,802,802,802,805,812,826,845,873,900,958,981,1000,1016,1035,1077,1102,1125,1140,1150,1155,1155,1156,1156,1156,1156,1156,1156,1156],"ymouse":[607,607,607,607,607,607,607,606,604,599,592,589,586,584,582,580,580,580,580,579,579,579,579,579,579,579,579,579,579,579,567,547,522,489,454,386,357,335,319,301,258,226,200,175,158,141,138,136,135,129,116,107,100,99],"timestamp_mouse":[19,37,58,78,98,117,138,157,177,197,218,238,258,277,298,317,337,358,379,397,417,438,457,478,498,519,538,557,578,598,618,637,658,677,698,718,738,757,777,797,817,837,858,877,898,917,938,957,977,997,1017,1037,1058,1078],"xSR":741.5,"ySR":573.95,"xT1":424.9,"yT1":0,"xT2":1058.1,"yT2":0,"toosoon":0,"cond_shown":"randomdotsizeEA","ratio_trial":900,"smaller_num":"18","larger_num":"20","correct_side":2,"subjID":"SarahLaiton27","gender":"1","age":"9","school":"4"},{"start_time":1552328546033,"click_time":1552328547044,"finger_time":1552328546704,"fix_duration":985.5625973013937,"trial":58,"RT":671,"MT":340,"sideResp":1,"stimulus":"img/750/randomdotsizeEA/L/13_Ratio_750_L_8_R_6.png","xmouse":[747,747,746,746,746,746,746,746,746,746,746,746,746,746,746,746,746,746,746,746,746,746,746,746,746,745,745,745,745,744,744,743,742,738,735,722,717,707,695,669,622,603,585,571,562,554,549,540,533,518,507],"ymouse":[625,625,625,625,625,625,625,625,625,625,625,625,625,625,625,625,625,625,625,625,624,621,620,619,617,614,613,612,611,610,606,600,595,588,580,561,555,544,536,521,486,460,430,409,391,342,291,241,189,105,25],"timestamp_mouse":[13,37,53,72,92,111,133,153,171,191,211,232,251,271,292,311,333,351,371,392,411,431,452,471,491,512,531,552,571,591,611,631,652,671,691,712,731,752,771,791,811,832,852,873,893,911,932,953,972,991,1011],"xSR":741.5,"ySR":573.95,"xT1":424.9,"yT1":0,"xT2":1058.1,"yT2":0,"toosoon":0,"cond_shown":"randomdotsizeEA","ratio_trial":750,"smaller_num":"6","larger_num":"8","correct_side":1,"subjID":"SarahLaiton27","gender":"1","age":"9","school":"4"},{"start_time":1552328549107,"click_time":1552328552084,"finger_time":1552328550444,"fix_duration":1041.3016077288496,"trial":59,"RT":1337,"MT":1640,"sideResp":2,"stimulus":"img/900/equaldotsize/R/9_Ratio_900_L_18_R_20.png","xmouse":[779,778,778,778,778,778,778,778,778,778,778,778,778,778,778,778,778,778,778,778,778,792,812,819,819,819,818,817,817,817,817,817,816,816,816,816,815,815,815,815,814,812,809,806,803,801,801,801,801,801,801,801,801,801,801,800,799,799,799,799,799,799,799,803,807,810,817,820,821,821,8