[{"start_time":1552327523927,"click_time":1552327534012,"finger_time":1552327523939,"fix_duration":831.8194981661353,"trial":0,"RT":12,"MT":10073,"sideResp":2,"stimulus":[],"xmouse":[796,796,796,796,796,796,796,796,795,795,795,795,795,795,794,793,792,791,790,790,790,790,790,790,790,790,790,790,789,789,788,788,788,788,788,786,786,786,786,786,786,786,786,787,788,788,788,788,790,791,791,791,791,792,792,792,792,792,792,792,792,792,792,792,792,791,790,788,788,787,787,787,787,787,785,785,785,785,785,785,785,785,785,785,785,785,785,785,785,785,785,785,785,785,785,785,785,785,785,785,785,785,785,785,785,785,785,784,784,785,785,785,786,786,786,786,786,786,786,786,786,786,786,786,786,786,786,786,786,786,786,786,786,786,786,785,785,784,784,783,783,783,783,783,783,783,783,783,783,783,783,783,783,783,783,783,783,783,783,783,783,783,783,783,783,783,783,783,783,783,783,783,783,783,783,783,783,783,783,783,783,783,783,783,783,783,783,783,783,783,783,783,783,783,783,783,783,783,783,783,783,783,783,783,783,783,783,783,779,778,777,776,776,776,776,776,776,776,776,776,776,776,776,776,776,776,776,776,776,776,776,776,776,776,776,776,776,776,776,776,776,776,776,776,776,776,776,776,776,776,776,776,776,776,776,776,776,776,776,776,776,776,778,790,821,854,895,930,961,991,992,992,992,992,993,994,994,994,994,994,994,993,992,984,979,977,973,969,965,965,962,957,952,941,936,931,925,921,912,907,903,897,892,877,870,860,843,831,812,802,793,787,782,780,780,780,779,779,779,779,779,779,780,781,783,783,783,783,783,783,783,783,783,783,783,783,783,783,783,783,783,783,783,783,783,783,783,783,783,783,783,783,783,783,783,783,783,783,784,784,784,785,785,785,785,785,785,785,785,785,785,785,785,785,785,785,786,787,789,790,790,790,790,790,790,790,790,790,790,790,790,790,790,790,790,790,790,790,790,790,790,790,790,790,791,799,809,822,853,896,969,1039,1099,1153,1192,1192,1192,1192,1192,1192,1192,1192,1185,1171,1151,1144,1128,1119,1103,1091,1070,1046,1021,984,974,969,963,961,961,961,960,959,955,946,915,886,868,855,842,836,818,802,791,781,780,780,782,784,788,790,790,790,790,792,793,793,793,793,793,793,793,793,793,793,793,793,793,793,793,793,793,793,793,795,803,814,832,845,855,879,889,899,907,924,935,945,962,974,987,1010,1026,1045,1061,1086,1092],"ymouse":[517,517,517,517,517,517,517,517,517,517,517,517,517,517,518,519,520,520,520,520,520,520,520,520,520,520,520,520,522,522,523,523,523,523,524,526,529,532,545,551,557,562,566,574,576,579,583,589,598,600,601,601,603,606,606,606,606,606,606,606,606,607,608,608,609,609,610,611,612,612,612,612,612,612,613,613,613,613,613,613,613,613,613,613,613,613,613,613,613,613,613,613,613,613,613,613,613,613,613,613,613,613,613,613,613,613,613,615,621,622,623,627,628,628,628,628,628,628,628,628,628,628,628,628,628,628,628,628,628,628,628,628,627,626,626,624,624,622,622,621,621,621,621,621,621,621,621,621,621,621,621,621,621,621,621,621,621,621,621,621,621,621,621,621,621,621,621,621,621,621,621,621,621,621,621,621,621,621,621,621,621,621,621,621,621,621,621,621,621,621,621,621,621,621,621,621,621,621,621,621,621,621,621,621,621,621,621,621,624,626,627,627,628,628,628,628,628,628,628,628,628,628,628,628,628,628,628,628,628,628,628,628,628,628,628,628,628,628,628,628,628,628,628,628,628,628,628,628,628,628,628,628,627,627,627,627,627,627,627,627,625,623,621,609,597,592,586,586,586,586,586,586,586,586,591,594,595,595,596,596,597,598,599,603,605,606,606,607,608,608,610,611,613,616,616,616,616,616,616,616,616,614,611,607,605,605,603,603,603,603,603,603,603,605,605,605,606,607,609,609,610,611,613,614,614,614,614,614,614,614,614,614,614,614,614,614,614,614,614,614,614,614,614,614,614,614,614,614,614,614,614,614,614,614,614,614,614,614,615,616,616,616,616,616,616,616,616,616,616,616,616,616,616,616,616,616,616,616,616,616,616,616,616,616,616,616,616,616,616,616,616,616,616,616,616,616,616,616,616,616,616,616,616,616,616,616,615,612,609,605,594,589,589,589,589,589,589,589,589,589,589,589,598,611,623,628,635,638,640,640,635,627,620,612,608,607,607,607,607,607,607,607,607,606,605,605,605,605,605,605,605,606,608,611,611,611,613,613,614,615,616,616,616,616,616,616,616,616,616,616,616,616,616,616,616,616,616,616,616,616,616,616,616,616,607,596,575,560,545,513,497,482,467,436,420,401,371,349,325,283,249,208,172,112,90],"timestamp_mouse":[12,24,42,62,83,102,123,143,163,182,202,223,243,262,283,302,323,342,362,383,403,424,443,463,483,503,523,542,562,583,603,623,643,663,682,703,722,742,762,783,802,822,842,863,883,902,922,942,962,983,1003,1023,1042,1062,1083,1102,1122,1144,1162,1183,1202,1222,1243,1262,1283,1302,1323,1343,1363,1383,1402,1423,1442,1463,1483,1503,1524,1543,1563,1584,1602,1623,1644,1663,1683,1704,1723,1743,1762,1782,1803,1822,1843,1863,1883,1903,1923,1942,1962,1982,2002,2023,2044,2062,2082,2102,2124,2142,2162,2183,2203,2222,2242,2264,2282,2303,2324,2342,2364,2383,2402,2422,2444,2462,2484,2502,2523,2542,2562,2582,2602,2623,2643,2663,2683,2703,2723,2742,2763,2784,2803,2822,2842,2862,2884,2903,2924,2942,2963,2984,3003,3023,3044,3064,3082,3103,3122,3142,3162,3182,3202,3223,3242,3264,3282,3302,3322,3344,3362,3383,3403,3423,3444,3463,3484,3504,3522,3543,3562,3583,3603,3623,3642,3663,3682,3703,3723,3742,3762,3782,3804,3822,3842,3862,3882,3903,3923,3942,3963,3982,4002,4023,4042,4062,4082,4103,4123,4143,4162,4182,4202,4222,4242,4263,4282,4303,4324,4342,4362,4384,4402,4422,4442,4462,4482,4502,4522,4543,4562,4583,4604,4623,4643,4662,4684,4703,4724,4742,4762,4783,4804,4823,4842,4864,4882,4904,4924,4944,4964,4984,5002,5022,5043,5063,5084,5103,5122,5144,5162,5184,5202,5223,5242,5262,5283,5303,5323,5342,5363,5382,5403,5424,5443,5463,5483,5503,5522,5542,5563,5582,5603,5624,5642,5663,5683,5702,5722,5744,5763,5783,5803,5823,5842,5862,5884,5903,5922,5943,5962,5983,6004,6022,6043,6062,6082,6103,6122,6142,6163,6182,6202,6223,6243,6263,6283,6302,6323,6342,6362,6384,6402,6422,6442,6463,6484,6503,6522,6543,6564,6584,6603,6622,6643,6663,6682,6703,6723,6742,6763,6784,6802,6822,6844,6864,6883,6903,6923,6944,6963,6982,7003,7022,7044,7062,7083,7103,7124,7142,7163,7182,7202,7222,7244,7263,7282,7302,7322,7342,7364,7383,7403,7423,7442,7464,7483,7502,7523,7543,7562,7582,7604,7623,7642,7663,7683,7704,7722,7742,7762,7782,7804,7823,7843,7863,7883,7903,7922,7943,7963,7983,8004,8024,8042,8063,8083,8103,8123,8142,8162,8182,8203,8223,8242,8262,8284,8303,8323,8342,8363,8383,8404,8423,8443,8462,8482,8503,8523,8542,8562,8582,8602,8623,8643,8662,8682,8703,8723,8742,8763,8782,8803,8823,8843,8862,8882,8902,8922,8943,8963,8983,9003,9023,9043,9062,9082,9103,9123,9143,9162,9183,9203,9224,9243,9263,9283,9304,9322,9343,9363,9384,9402,9422,9442,9462,9482,9502,9522,9542,9562,9583,9603,9623,9642,9663,9683,9703,9723,9743,9762,9783,9802,9823,9842,9862,9882,9902,9923,9942,9962,9983,10003,10022,10043,10063,10084],"xSR":741.5,"ySR":469.95,"xT1":424.9,"yT1":0,"xT2":1058.1,"yT2":0,"toosoon":0,"cond_shown":"Congruent","ratio_trial":300,"L_num":20,"L_den":25,"R_num":5,"R_den":10,"correct_side":1,"subjID":"SarahSofhiaLaiton27","gender":"1","age":"9","school":"4","test":{"fix_dur":[250,1500],"timestim":1000,"targets_dim":[100,100],"targets_relative_coord":[0.3,0.7],"size_stim":[880,420],"start_dim":[100,100],"size_start":[300,300],"size_fix":60,"samplingrate":20,"img_types":["Congruent","Incongruent"],"ratios":[100,200,300],"rep_conds":19,"nTrials":120,"trials_to_rest":500,"Trials_order":[82,112,96,110,67,20,113,74,84,1,53,101,18,38,50,26,2,92,13,94,35,105,89,16,116,86,69,72,107,100,5,19,76,45,34,40,87,97,81,98,10,103,52,48,43,55,111,0,29,114,109,6,28,51,3,119,30,71,118,88,68,24,54,65,8,102,79,23,64,11,70,21,80,37,14,47,9,33,117,99,12,46,115,77,62,85,78,75,32,27,39,57,42,104,7,44,63,49,41,108,83,61,58,73,36,60,66,15,59,106,90,4,93,31,56,95,22,25,17,91],"cond_shown":["Congruent","Congruent","Congruent","Congruent","Incongruent","Congruent","Incongruent","Congruent","Congruent","Incongruent","Incongruent","Incongruent","Congruent","Congruent","Congruent","Congruent","Congruent","Congruent","Incongruent","Congruent","Incongruent","Incongruent","Incongruent","Congruent","Congruent","Congruent","Incongruent","Congruent","Incongruent","Congruent","Incongruent","Incongruent","Congruent","Incongruent","Congruent","Congruent","Incongruent","Incongruent","Incongruent","Congruent","Congruent","Incongruent","Congruent","Congruent","Incongruent","Incongruent","Incongruent","Congruent","Incongruent","Congruent","Incongruent","Congruent","Congruent","Incongruent","Incongruent","Incongruent","Congruent","Incongruent","Congruent","Congruent","Congruent","Congruent","Congruent","Incongruent","Congruent","Congruent","Incongruent","Incongruent","Congruent","Incongruent","Congruent","Incongruent","Congruent","Incongruent","Congruent","Incongruent","Incongruent","Incongruent","Incongruent","Incongruent","Congruent","Congruent","Incongruent","Incongruent","Congruent","Incongruent","Congruent","Incongruent","Congruent","Incongruent","Incongruent","Incongruent","Congruent","Congruent","Incongruent","Congruent","Incongruent","Incongruent","Incongruent","Congruent","Incongruent","Incongruent","Congruent","Incongruent","Congruent","Congruent","Congruent","Incongruent","Incongruent","Congruent","Congruent","Congruent","Incongruent","Incongruent","Congruent","Incongruent","Congruent","Incongruent","Incongruent","Incongruent"],"ratio_trial":[300,300,100,200,100,200,300,200,100,100,300,300,100,200,200,200,200,200,100,300,300,200,300,300,200,200,200,100,300,300,300,100,300,200,300,300,200,100,200,200,300,100,300,100,100,100,200,100,300,100,100,100,300,200,200,300,100,300,300,300,200,100,100,300,200,100,100,300,300,300,300,200,200,100,200,300,200,200,200,200,100,300,100,300,200,100,100,200,200,200,200,200,100,200,100,200,200,100,300,100,300,100,300,100,100,100,100,200,300,300,100,300,200,100,200,300,300,100,300,100],"left_num":[20,1,1,13,17,7,4,4,7,9,1,4,12,3,9,8,7,9,6,1,2,9,3,4,3,6,7,7,4,1,4,9,11,9,4,20,7,11,7,5,7,11,2,1,1,2,14,7,7,15,11,6,1,4,7,13,12,4,11,8,15,3,7,4,1,2,3,4,12,7,8,1,20,4,3,4,6,1,11,7,8,3,6,13,6,13,2,4,4,4,11,7,3,3,4,8,3,4,13,1,7,9,18,8,3,4,3,1,4,20,3,8,1,6,21,8,24,11,4,9],"right_num":[5,3,18,14,10,18,6,3,9,6,2,2,13,14,13,3,18,13,3,11,6,8,4,2,9,7,4,9,2,6,2,13,4,8,1,5,8,9,4,14,20,9,12,3,8,8,6,15,8,13,9,15,8,14,4,12,13,6,4,1,4,2,15,8,21,11,8,2,2,8,1,3,9,8,14,2,3,3,3,14,2,11,3,12,3,12,11,6,3,6,3,14,2,11,8,7,11,8,12,18,8,14,9,1,4,15,2,2,6,8,2,1,2,3,2,9,8,9,2,14],"left_den":[25,5,2,26,30,15,5,8,14,18,2,20,30,6,30,15,15,30,12,5,4,15,6,5,12,12,15,14,20,5,20,15,22,15,10,25,10,22,15,10,14,22,10,2,2,4,30,14,10,25,22,12,30,6,15,26,30,5,22,16,25,6,14,5,2,5,5,20,24,10,16,2,25,8,6,20,20,2,20,10,16,12,12,26,15,26,5,5,10,5,20,10,6,10,8,15,4,8,26,2,10,15,20,20,20,10,6,3,5,25,6,16,3,12,30,10,30,22,20,15],"right_den":[10,6,30,20,15,27,12,10,15,10,10,4,26,20,26,9,27,26,5,22,30,10,20,4,20,10,6,15,4,12,4,26,20,10,10,10,16,15,6,20,25,15,24,5,20,20,9,25,20,26,15,25,24,30,6,15,26,12,20,5,10,5,25,16,30,22,16,4,10,20,5,10,15,20,20,4,6,10,4,28,5,20,5,15,15,20,22,10,15,10,4,28,5,22,20,21,20,20,15,30,20,28,15,2,16,30,5,15,12,16,5,5,15,5,4,18,16,15,4,28],"correct_side":[1,2,2,2,2,2,1,1,2,2,1,2,2,2,2,1,2,2,2,2,1,2,1,1,2,2,2,2,2,2,2,1,1,2,1,1,1,2,2,2,2,2,2,2,1,1,2,2,1,1,2,2,2,1,2,2,2,1,1,1,1,1,2,1,2,2,1,2,1,1,1,1,1,1,2,2,2,1,2,1,1,2,2,2,1,2,2,1,1,1,2,1,1,2,1,1,1,1,2,2,1,1,1,2,2,2,1,1,1,1,1,1,1,2,1,1,1,2,2,1],"img_shown":["img2/300/Congruent/L/C_Dist_300_LN_20_LD_25_RN_5_RD_10_0.png","img2/300/Congruent/R/C_Dist_300_LN_1_LD_5_RN_3_RD_6_1.png","img2/100/Congruent/R/C_Dist_100_LN_1_LD_2_RN_18_RD_30_1.png","img2/200/Congruent/R/C_Dist_200_LN_13_LD_26_RN_14_RD_20_1.png","img2/100/Incongruent/R/I_Dist_100_LN_17_LD_30_RN_10_RD_15_1.png","img2/200/Congruent/R/C_Dist_200_LN_7_LD_15_RN_18_RD_27_1.png","img2/300/Incongruent/L/I_Dist_300_LN_4_LD_5_RN_6_RD_12_0.png","img2/200/Congruent/L/C_Dist_200_LN_4_LD_8_RN_3_RD_10_0.png","img2/100/Congruent/R/C_Dist_100_LN_7_LD_14_RN_9_RD_15_1.png","img2/100/Incongruent/R/I_Dist_100_LN_9_LD_18_RN_6_RD_10_1.png","img2/300/Incongruent/L/I_Dist_300_LN_1_LD_2_RN_2_RD_10_0.png","img2/300/Incongruent/R/I_Dist_300_LN_4_LD_20_RN_2_RD_4_1.png","img2/100/Congruent/R/C_Dist_100_LN_12_LD_30_RN_13_RD_26_1.png","img2/200/Congruent/R/C_Dist_200_LN_3_LD_6_RN_14_RD_20_1.png","img2/200/Congruent/R/C_Dist_200_LN_9_LD_30_RN_13_RD_26_1.png","img2/200/Congruent/L/C_Dist_200_LN_8_LD_15_RN_3_RD_9_0.png","img2/200/Congruent/R/C_Dist_200_LN_7_LD_15_RN_18_RD_27_1.png","img2/200/Congruent/R/C_Dist_200_LN_9_LD_30_RN_13_RD_26_1.png","img2/100/Incongruent/R/I_Dist_100_LN_6_LD_12_RN_3_RD_5_1.png","img2/300/Congruent/R/C_Dist_300_LN_1_LD_5_RN_11_RD_22_1.png","img2/300/Incongruent/L/I_Dist_300_LN_2_LD_4_RN_6_RD_30_0.png","img2/200/Incongruent/R/I_Dist_200_LN_9_LD_15_RN_8_RD_10_1.png","img2/300/Incongruent/L/I_Dist_300_LN_3_LD_6_RN_4_RD_20_0.png","img2/300/Congruent/L/C_Dist_300_LN_4_LD_5_RN_2_RD_4_0.png","img2/200/Congruent/R/C_Dist_200_LN_3_LD_12_RN_9_RD_20_1.png","img2/200/Congruent/R/C_Dist_200_LN_6_LD_12_RN_7_RD_10_1.png","img2/200/Incongruent/R/I_Dist_200_LN_7_LD_15_RN_4_RD_6_1.png","img2/100/Congruent/R/C_Dist_100_LN_7_LD_14_RN_9_RD_15_1.png","img2/300/Incongruent/R/I_Dist_300_LN_4_LD_20_RN_2_RD_4_1.png","img2/300/Congruent/R/C_Dist_300_LN_1_LD_5_RN_6_RD_12_1.png","img2/300/Incongruent/R/I_Dist_300_LN_4_LD_20_RN_2_RD_4_1.png","img2/100/Incongruent/L/I_Dist_100_LN_9_LD_15_RN_13_RD_26_0.png","img2/300/Congruent/L/C_Dist_300_LN_11_LD_22_RN_4_RD_20_0.png","img2/200/Incongruent/R/I_Dist_200_LN_9_LD_15_RN_8_RD_10_1.png","img2/300/Congruent/L/C_Dist_300_LN_4_LD_10_RN_1_RD_10_0.png","img2/300/Congruent/L/C_Dist_300_LN_20_LD_25_RN_5_RD_10_0.png","img2/200/Incongruent/L/I_Dist_200_LN_7_LD_10_RN_8_RD_16_0.png","img2/100/Incongruent/R/I_Dist_100_LN_11_LD_22_RN_9_RD_15_1.png","img2/200/Incongruent/R/I_Dist_200_LN_7_LD_15_RN_4_RD_6_1.png","img2/200/Congruent/R/C_Dist_200_LN_5_LD_10_RN_14_RD_20_1.png","img2/300/Congruent/R/C_Dist_300_LN_7_LD_14_RN_20_RD_25_1.png","img2/100/Incongruent/R/I_Dist_100_LN_11_LD_22_RN_9_RD_15_1.png","img2/300/Congruent/R/C_Dist_300_LN_2_LD_10_RN_12_RD_24_1.png","img2/100/Congruent/R/C_Dist_100_LN_1_LD_2_RN_3_RD_5_1.png","img2/100/Incongruent/L/I_Dist_100_LN_1_LD_2_RN_8_RD_20_0.png","img2/100/Incongruent/L/I_Dist_100_LN_2_LD_4_RN_8_RD_20_0.png","img2/200/Incongruent/R/I_Dist_200_LN_14_LD_30_RN_6_RD_9_1.png","img2/100/Congruent/R/C_Dist_100_LN_7_LD_14_RN_15_RD_25_1.png","img2/300/Incongruent/L/I_Dist_300_LN_7_LD_10_RN_8_RD_20_0.png","img2/100/Congruent/L/C_Dist_100_LN_15_LD_25_RN_13_RD_26_0.png","img2/100/Incongruent/R/I_Dist_100_LN_11_LD_22_RN_9_RD_15_1.png","img2/100/Congruent/R/C_Dist_100_LN_6_LD_12_RN_15_RD_25_1.png","img2/300/Congruent/R/C_Dist_300_LN_1_LD_30_RN_8_RD_24_1.png","img2/200/Incongruent/L/I_Dist_200_LN_4_LD_6_RN_14_RD_30_0.png","img2/200/Incongruent/R/I_Dist_200_LN_7_LD_15_RN_4_RD_6_1.png","img2/300/Incongruent/R/I_Dist_300_LN_13_LD_26_RN_12_RD_15_1.png","img2/100/Congruent/R/C_Dist_100_LN_12_LD_30_RN_13_RD_26_1.png","img2/300/Incongruent/L/I_Dist_300_LN_4_LD_5_RN_6_RD_12_0.png","img2/300/Congruent/L/C_Dist_300_LN_11_LD_22_RN_4_RD_20_0.png","img2/300/Congruent/L/C_Dist_300_LN_8_LD_16_RN_1_RD_5_0.png","img2/200/Congruent/L/C_Dist_200_LN_15_LD_25_RN_4_RD_10_0.png","img2/100/Congruent/L/C_Dist_100_LN_3_LD_6_RN_2_RD_5_0.png","img2/100/Congruent/R/C_Dist_100_LN_7_LD_14_RN_15_RD_25_1.png","img2/300/Incongruent/L/I_Dist_300_LN_4_LD_5_RN_8_RD_16_0.png","img2/200/Congruent/R/C_Dist_200_LN_1_LD_2_RN_21_RD_30_1.png","img2/100/Congruent/R/C_Dist_100_LN_2_LD_5_RN_11_RD_22_1.png","img2/100/Incongruent/L/I_Dist_100_LN_3_LD_5_RN_8_RD_16_0.png","img2/300/Incongruent/R/I_Dist_300_LN_4_LD_20_RN_2_RD_4_1.png","img2/300/Congruent/L/C_Dist_300_LN_12_LD_24_RN_2_RD_10_0.png","img2/300/Incongruent/L/I_Dist_300_LN_7_LD_10_RN_8_RD_20_0.png","img2/300/Congruent/L/C_Dist_300_LN_8_LD_16_RN_1_RD_5_0.png","img2/200/Incongruent/L/I_Dist_200_LN_1_LD_2_RN_3_RD_10_0.png","img2/200/Congruent/L/C_Dist_200_LN_20_LD_25_RN_9_RD_15_0.png","img2/100/Incongruent/L/I_Dist_100_LN_4_LD_8_RN_8_RD_20_0.png","img2/200/Congruent/R/C_Dist_200_LN_3_LD_6_RN_14_RD_20_1.png","img2/300/Incongruent/R/I_Dist_300_LN_4_LD_20_RN_2_RD_4_1.png","img2/200/Incongruent/R/I_Dist_200_LN_6_LD_20_RN_3_RD_6_1.png","img2/200/Incongruent/L/I_Dist_200_LN_1_LD_2_RN_3_RD_10_0.png","img2/200/Incongruent/R/I_Dist_200_LN_11_LD_20_RN_3_RD_4_1.png","img2/200/Incongruent/L/I_Dist_200_LN_7_LD_10_RN_14_RD_28_0.png","img2/100/Congruent/L/C_Dist_100_LN_8_LD_16_RN_2_RD_5_0.png","img2/300/Congruent/R/C_Dist_300_LN_3_LD_12_RN_11_RD_20_1.png","img2/100/Incongruent/R/I_Dist_100_LN_6_LD_12_RN_3_RD_5_1.png","img2/300/Incongruent/R/I_Dist_300_LN_13_LD_26_RN_12_RD_15_1.png","img2/200/Congruent/L/C_Dist_200_LN_6_LD_15_RN_3_RD_15_0.png","img2/100/Incongruent/R/I_Dist_100_LN_13_LD_26_RN_12_RD_20_1.png","img2/100/Congruent/R/C_Dist_100_LN_2_LD_5_RN_11_RD_22_1.png","img2/200/Incongruent/L/I_Dist_200_LN_4_LD_5_RN_6_RD_10_0.png","img2/200/Congruent/L/C_Dist_200_LN_4_LD_10_RN_3_RD_15_0.png","img2/200/Incongruent/L/I_Dist_200_LN_4_LD_5_RN_6_RD_10_0.png","img2/200/Incongruent/R/I_Dist_200_LN_11_LD_20_RN_3_RD_4_1.png","img2/200/Incongruent/L/I_Dist_200_LN_7_LD_10_RN_14_RD_28_0.png","img2/100/Congruent/L/C_Dist_100_LN_3_LD_6_RN_2_RD_5_0.png","img2/200/Congruent/R/C_Dist_200_LN_3_LD_10_RN_11_RD_22_1.png","img2/100/Incongruent/L/I_Dist_100_LN_4_LD_8_RN_8_RD_20_0.png","img2/200/Congruent/L/C_Dist_200_LN_8_LD_15_RN_7_RD_21_0.png","img2/200/Incongruent/L/I_Dist_200_LN_3_LD_4_RN_11_RD_20_0.png","img2/100/Incongruent/L/I_Dist_100_LN_4_LD_8_RN_8_RD_20_0.png","img2/300/Incongruent/R/I_Dist_300_LN_13_LD_26_RN_12_RD_15_1.png","img2/100/Congruent/R/C_Dist_100_LN_1_LD_2_RN_18_RD_30_1.png","img2/300/Incongruent/L/I_Dist_300_LN_7_LD_10_RN_8_RD_20_0.png","img2/100/Incongruent/L/I_Dist_100_LN_9_LD_15_RN_14_RD_28_0.png","img2/300/Congruent/L/C_Dist_300_LN_18_LD_20_RN_9_RD_15_0.png","img2/100/Incongruent/R/I_Dist_100_LN_8_LD_20_RN_1_RD_2_1.png","img2/100/Congruent/R/C_Dist_100_LN_3_LD_20_RN_4_RD_16_1.png","img2/100/Congruent/R/C_Dist_100_LN_4_LD_10_RN_15_RD_30_1.png","img2/100/Congruent/L/C_Dist_100_LN_3_LD_6_RN_2_RD_5_0.png","img2/200/Incongruent/L/I_Dist_200_LN_1_LD_3_RN_2_RD_15_0.png","img2/300/Incongruent/L/I_Dist_300_LN_4_LD_5_RN_6_RD_12_0.png","img2/300/Congruent/L/C_Dist_300_LN_20_LD_25_RN_8_RD_16_0.png","img2/100/Congruent/L/C_Dist_100_LN_3_LD_6_RN_2_RD_5_0.png","img2/300/Congruent/L/C_Dist_300_LN_8_LD_16_RN_1_RD_5_0.png","img2/200/Incongruent/L/I_Dist_200_LN_1_LD_3_RN_2_RD_15_0.png","img2/100/Incongruent/R/I_Dist_100_LN_6_LD_12_RN_3_RD_5_1.png","img2/200/Congruent/L/C_Dist_200_LN_21_LD_30_RN_2_RD_4_0.png","img2/300/Incongruent/L/I_Dist_300_LN_8_LD_10_RN_9_RD_18_0.png","img2/300/Congruent/L/C_Dist_300_LN_24_LD_30_RN_8_RD_16_0.png","img2/100/Incongruent/R/I_Dist_100_LN_11_LD_22_RN_9_RD_15_1.png","img2/300/Incongruent/R/I_Dist_300_LN_4_LD_20_RN_2_RD_4_1.png","img2/100/Incongruent/L/I_Dist_100_LN_9_LD_15_RN_14_RD_28_0.png"],"dist100_C":[["C_Dist_100_LN_10_LD_25_RN_3_RD_10_0.png","C_Dist_100_LN_11_LD_22_RN_4_RD_10_0.png","C_Dist_100_LN_11_LD_22_RN_6_RD_15_0.png","C_Dist_100_LN_15_LD_25_RN_13_RD_26_0.png","C_Dist_100_LN_3_LD_6_RN_2_RD_5_0.png","C_Dist_100_LN_6_LD_20_RN_5_RD_25_0.png","C_Dist_100_LN_8_LD_16_RN_2_RD_5_0.png","C_Dist_100_LN_9_LD_15_RN_8_RD_16_0.png"],["C_Dist_100_LN_1_LD_2_RN_18_RD_30_1.png","C_Dist_100_LN_1_LD_2_RN_3_RD_5_1.png","C_Dist_100_LN_12_LD_30_RN_13_RD_26_1.png","C_Dist_100_LN_2_LD_5_RN_11_RD_22_1.png","C_Dist_100_LN_2_LD_5_RN_6_RD_12_1.png","C_Dist_100_LN_3_LD_20_RN_4_RD_16_1.png","C_Dist_100_LN_4_LD_10_RN_15_RD_30_1.png","C_Dist_100_LN_4_LD_8_RN_6_RD_10_1.png","C_Dist_100_LN_6_LD_12_RN_15_RD_25_1.png","C_Dist_100_LN_7_LD_14_RN_15_RD_25_1.png","C_Dist_100_LN_7_LD_14_RN_9_RD_15_1.png"]],"dist100_I":[["I_Dist_100_LN_1_LD_2_RN_8_RD_20_0.png","I_Dist_100_LN_2_LD_4_RN_6_RD_15_0.png","I_Dist_100_LN_2_LD_4_RN_8_RD_20_0.png","I_Dist_100_LN_3_LD_5_RN_11_RD_22_0.png","I_Dist_100_LN_3_LD_5_RN_8_RD_16_0.png","I_Dist_100_LN_3_LD_6_RN_4_RD_10_0.png","I_Dist_100_LN_3_LD_9_RN_7_RD_30_0.png","I_Dist_100_LN_4_LD_8_RN_8_RD_20_0.png","I_Dist_100_LN_6_LD_10_RN_11_RD_22_0.png","I_Dist_100_LN_6_LD_10_RN_13_RD_26_0.png","I_Dist_100_LN_6_LD_10_RN_7_RD_14_0.png","I_Dist_100_LN_9_LD_10_RN_20_RD_25_0.png","I_Dist_100_LN_9_LD_15_RN_13_RD_26_0.png","I_Dist_100_LN_9_LD_15_RN_14_RD_28_0.png"],["I_Dist_100_LN_10_LD_25_RN_8_RD_16_1.png","I_Dist_100_LN_10_LD_25_RN_9_RD_18_1.png","I_Dist_100_LN_11_LD_22_RN_9_RD_15_1.png","I_Dist_100_LN_12_LD_24_RN_9_RD_15_1.png","I_Dist_100_LN_12_LD_30_RN_2_RD_4_1.png","I_Dist_100_LN_13_LD_26_RN_12_RD_20_1.png","I_Dist_100_LN_13_LD_26_RN_6_RD_10_1.png","I_Dist_100_LN_17_LD_30_RN_10_RD_15_1.png","I_Dist_100_LN_6_LD_12_RN_3_RD_5_1.png","I_Dist_100_LN_8_LD_16_RN_6_RD_10_1.png","I_Dist_100_LN_8_LD_20_RN_1_RD_2_1.png","I_Dist_100_LN_9_LD_18_RN_6_RD_10_1.png"]],"dist100_S":[["E_Dist_100_LN_2_LD_12_RN_2_RD_30_0.png","E_Dist_100_LN_6_LD_10_RN_6_RD_12_0.png"],["E_Dist_100_LN_6_LD_12_RN_6_RD_10_1.png"]],"dist200_C":[["C_Dist_200_LN_11_LD_22_RN_3_RD_10_0.png","C_Dist_200_LN_12_LD_15_RN_6_RD_10_0.png","C_Dist_200_LN_12_LD_20_RN_6_RD_15_0.png","C_Dist_200_LN_14_LD_28_RN_6_RD_20_0.png","C_Dist_200_LN_15_LD_25_RN_4_RD_10_0.png","C_Dist_200_LN_16_LD_20_RN_12_RD_20_0.png","C_Dist_200_LN_16_LD_30_RN_9_RD_27_0.png","C_Dist_200_LN_20_LD_25_RN_9_RD_15_0.png","C_Dist_200_LN_21_LD_30_RN_2_RD_4_0.png","C_Dist_200_LN_4_LD_10_RN_3_RD_15_0.png","C_Dist_200_LN_4_LD_8_RN_3_RD_10_0.png","C_Dist_200_LN_6_LD_15_RN_3_RD_15_0.png","C_Dist_200_LN_7_LD_21_RN_2_RD_15_0.png","C_Dist_200_LN_8_LD_15_RN_2_RD_6_0.png","C_Dist_200_LN_8_LD_15_RN_3_RD_9_0.png","C_Dist_200_LN_8_LD_15_RN_7_RD_21_0.png","C_Dist_200_LN_9_LD_20_RN_4_RD_16_0.png"],["C_Dist_200_LN_1_LD_2_RN_21_RD_30_1.png","C_Dist_200_LN_13_LD_26_RN_14_RD_20_1.png","C_Dist_200_LN_3_LD_10_RN_11_RD_22_1.png","C_Dist_200_LN_3_LD_10_RN_14_RD_28_1.png","C_Dist_200_LN_3_LD_10_RN_7_RD_14_1.png","C_Dist_200_LN_3_LD_12_RN_9_RD_20_1.png","C_Dist_200_LN_3_LD_6_RN_14_RD_20_1.png","C_Dist_200_LN_5_LD_10_RN_14_RD_20_1.png","C_Dist_200_LN_6_LD_12_RN_7_RD_10_1.png","C_Dist_200_LN_6_LD_20_RN_11_RD_22_1.png","C_Dist_200_LN_7_LD_15_RN_18_RD_27_1.png","C_Dist_200_LN_9_LD_30_RN_13_RD_26_1.png"]],"dist200_I":[["I_Dist_200_LN_1_LD_2_RN_3_RD_10_0.png","I_Dist_200_LN_1_LD_3_RN_2_RD_15_0.png","I_Dist_200_LN_3_LD_4_RN_11_RD_20_0.png","I_Dist_200_LN_4_LD_5_RN_6_RD_10_0.png","I_Dist_200_LN_4_LD_6_RN_14_RD_30_0.png","I_Dist_200_LN_7_LD_10_RN_12_RD_24_0.png","I_Dist_200_LN_7_LD_10_RN_14_RD_28_0.png","I_Dist_200_LN_7_LD_10_RN_8_RD_16_0.png"],["I_Dist_200_LN_11_LD_20_RN_3_RD_4_1.png","I_Dist_200_LN_14_LD_30_RN_12_RD_18_1.png","I_Dist_200_LN_14_LD_30_RN_6_RD_9_1.png","I_Dist_200_LN_3_LD_10_RN_1_RD_2_1.png","I_Dist_200_LN_4_LD_30_RN_1_RD_3_1.png","I_Dist_200_LN_6_LD_20_RN_3_RD_6_1.png","I_Dist_200_LN_7_LD_15_RN_4_RD_6_1.png","I_Dist_200_LN_7_LD_15_RN_6_RD_9_1.png","I_Dist_200_LN_9_LD_15_RN_8_RD_10_1.png"]],"dist200_S":[["E_Dist_200_LN_3_LD_6_RN_3_RD_10_0.png"],["E_Dist_200_LN_3_LD_10_RN_3_RD_6_1.png"]],"dist300_C":[["C_Dist_300_LN_11_LD_22_RN_1_RD_5_0.png","C_Dist_300_LN_11_LD_22_RN_2_RD_10_0.png","C_Dist_300_LN_11_LD_22_RN_4_RD_20_0.png","C_Dist_300_LN_12_LD_24_RN_2_RD_10_0.png","C_Dist_300_LN_18_LD_20_RN_9_RD_15_0.png","C_Dist_300_LN_20_LD_25_RN_13_RD_26_0.png","C_Dist_300_LN_20_LD_25_RN_14_RD_28_0.png","C_Dist_300_LN_20_LD_25_RN_5_RD_10_0.png","C_Dist_300_LN_20_LD_25_RN_8_RD_16_0.png","C_Dist_300_LN_20_LD_25_RN_9_RD_18_0.png","C_Dist_300_LN_24_LD_30_RN_2_RD_4_0.png","C_Dist_300_LN_24_LD_30_RN_8_RD_16_0.png","C_Dist_300_LN_3_LD_6_RN_2_RD_10_0.png","C_Dist_300_LN_4_LD_10_RN_1_RD_10_0.png","C_Dist_300_LN_4_LD_5_RN_2_RD_4_0.png","C_Dist_300_LN_8_LD_16_RN_1_RD_5_0.png","C_Dist_300_LN_9_LD_10_RN_3_RD_5_0.png"],["C_Dist_300_LN_1_LD_20_RN_7_RD_20_1.png","C_Dist_300_LN_1_LD_3_RN_19_RD_30_1.png","C_Dist_300_LN_1_LD_30_RN_8_RD_24_1.png","C_Dist_300_LN_1_LD_5_RN_11_RD_22_1.png","C_Dist_300_LN_1_LD_5_RN_3_RD_6_1.png","C_Dist_300_LN_1_LD_5_RN_6_RD_12_1.png","C_Dist_300_LN_2_LD_10_RN_12_RD_24_1.png","C_Dist_300_LN_2_LD_20_RN_10_RD_25_1.png","C_Dist_300_LN_3_LD_12_RN_11_RD_20_1.png","C_Dist_300_LN_3_LD_6_RN_4_RD_5_1.png","C_Dist_300_LN_4_LD_20_RN_13_RD_26_1.png","C_Dist_300_LN_5_LD_25_RN_6_RD_12_1.png","C_Dist_300_LN_5_LD_25_RN_7_RD_14_1.png","C_Dist_300_LN_7_LD_14_RN_20_RD_25_1.png","C_Dist_300_LN_8_LD_15_RN_10_RD_12_1.png"]],"dist300_I":[["I_Dist_300_LN_1_LD_2_RN_2_RD_10_0.png","I_Dist_300_LN_1_LD_2_RN_3_RD_15_0.png","I_Dist_300_LN_2_LD_4_RN_6_RD_30_0.png","I_Dist_300_LN_3_LD_6_RN_4_RD_20_0.png","I_Dist_300_LN_4_LD_5_RN_6_RD_12_0.png","I_Dist_300_LN_4_LD_5_RN_8_RD_16_0.png","I_Dist_300_LN_7_LD_10_RN_8_RD_20_0.png","I_Dist_300_LN_8_LD_10_RN_14_RD_28_0.png","I_Dist_300_LN_8_LD_10_RN_9_RD_18_0.png"],["I_Dist_300_LN_13_LD_26_RN_12_RD_15_1.png","I_Dist_300_LN_4_LD_20_RN_2_RD_4_1.png"]],"dist300_S":[["E_Dist_300_LN_9_LD_12_RN_9_RD_20_0.png"],["E_Dist_300_LN_18_LD_30_RN_18_RD_20_1.png","E_Dist_300_LN_3_LD_10_RN_3_RD_5_1.png","E_Dist_300_LN_9_LD_20_RN_9_RD_12_1.png"]],"dist500_C":[["C_Dist_500_LN_10_LD_13_RN_7_RD_26_0.png","C_Dist_500_LN_10_LD_15_RN_4_RD_24_0.png","C_Dist_500_LN_12_LD_16_RN_3_RD_12_0.png","C_Dist_500_LN_12_LD_18_RN_4_RD_24_0.png","C_Dist_500_LN_15_LD_18_RN_5_RD_15_0.png","C_Dist_500_LN_15_LD_20_RN_1_RD_4_0.png","C_Dist_500_LN_18_LD_27_RN_1_RD_6_0.png","C_Dist_500_LN_20_LD_24_RN_1_RD_3_0.png","C_Dist_500_LN_20_LD_24_RN_3_RD_9_0.png","C_Dist_500_LN_20_LD_24_RN_7_RD_21_0.png","C_Dist_500_LN_20_LD_28_RN_3_RD_14_0.png","C_Dist_500_LN_21_LD_28_RN_6_RD_24_0.png","C_Dist_500_LN_22_LD_28_RN_2_RD_7_0.png","C_Dist_500_LN_25_LD_30_RN_9_RD_27_0.png","C_Dist_500_LN_4_LD_6_RN_1_RD_6_0.png","C_Dist_500_LN_5_LD_6_RN_2_RD_6_0.png","C_Dist_500_LN_6_LD_9_RN_1_RD_6_0.png","C_Dist_500_LN_7_LD_10_RN_1_RD_5_0.png","C_Dist_500_LN_8_LD_12_RN_1_RD_6_0.png","C_Dist_500_LN_8_LD_12_RN_4_RD_24_0.png"],["C_Dist_500_LN_1_LD_4_RN_12_RD_16_1.png","C_Dist_500_LN_1_LD_4_RN_9_RD_12_1.png","C_Dist_500_LN_1_LD_9_RN_11_RD_18_1.png","C_Dist_500_LN_10_LD_24_RN_22_RD_24_1.png","C_Dist_500_LN_2_LD_12_RN_10_RD_15_1.png","C_Dist_500_LN_2_LD_12_RN_12_RD_18_1.png","C_Dist_500_LN_2_LD_12_RN_4_RD_6_1.png","C_Dist_500_LN_2_LD_24_RN_7_RD_12_1.png","C_Dist_500_LN_2_LD_5_RN_18_RD_20_1.png","C_Dist_500_LN_2_LD_5_RN_9_RD_10_1.png","C_Dist_500_LN_2_LD_8_RN_12_RD_16_1.png","C_Dist_500_LN_2_LD_8_RN_21_RD_28_1.png","C_Dist_500_LN_3_LD_10_RN_4_RD_5_1.png","C_Dist_500_LN_3_LD_12_RN_15_RD_20_1.png","C_Dist_500_LN_3_LD_30_RN_6_RD_10_1.png","C_Dist_500_LN_3_LD_8_RN_14_RD_16_1.png","C_Dist_500_LN_4_LD_16_RN_15_RD_20_1.png","C_Dist_500_LN_4_LD_24_RN_12_RD_18_1.png","C_Dist_500_LN_5_LD_14_RN_6_RD_7_1.png","C_Dist_500_LN_7_LD_21_RN_20_RD_24_1.png","C_Dist_500_LN_7_LD_28_RN_12_RD_16_1.png","C_Dist_500_LN_7_LD_28_RN_9_RD_12_1.png","C_Dist_500_LN_9_LD_27_RN_20_RD_24_1.png"]],"dist500_I":[["I_Dist_500_LN_2_LD_3_RN_4_RD_24_0.png","I_Dist_500_LN_5_LD_6_RN_6_RD_18_0.png","I_Dist_500_LN_7_LD_8_RN_9_RD_24_0.png"],["I_Dist_500_LN_7_LD_21_RN_5_RD_6_1.png"]],"dist500_S":[["E_Dist_500_LN_6_LD_8_RN_6_RD_24_0.png"],["E_Dist_500_LN_2_LD_12_RN_2_RD_3_1.png","E_Dist_500_LN_6_LD_24_RN_6_RD_8_1.png"]]}},{"start_time":1552327538075,"click_time":1552327540710,"finger_time":1552327540130,"fix_duration":862.0678678434278,"trial":1,"RT":2055,"MT":580,"sideResp":2,"stimulus":[],"xmouse":[785,785,785,785,785,785,785,785,785,785,785,785,785,785,785,785,785,785,785,785,785,785,785,785,785,785,785,785,785,785,785,785,785,785,785,785,785,785,785,785,785,785,785,785,785,785,785,785,785,785,785,785,785,785,785,785,785,785,785,785,785,785,785,785,785,785,785,785,785,785,785,785,785,785,785,785,785,785,785,785,785,785,785,785,785,785,785,785,785,785,785,785,785,785,785,785,785,785,785,785,785,798,817,840,869,905,925,937,956,968,979,998,1007,1014,1019,1024,1024,1025,1026,1026,1030,1032,1035,1037,1039,1044,1056,1062,1074,1078,1080,1080],"ymouse":[602,602,602,602,602,602,602,602,602,602,602,602,602,602,602,602,602,602,602,602,602,602,602,602,602,602,602,602,602,602,602,602,602,602,602,602,602,602,602,602,602,602,602,602,602,602,602,602,602,602,602,602,602,602,602,602,602,602,602,602,602,602,602,602,602,602,602,602,602,602,602,602,602,602,602,602,602,602,602,602,602,602,602,602,602,602,602,602,602,602,602,602,602,602,602,602,602,602,602,602,600,588,567,541,506,456,430,408,377,356,338,297,275,257,239,218,214,213,210,207,198,194,189,185,180,168,147,138,118,110,101,99],"timestamp_mouse":[21,44,55,75,94,115,135,155,174,194,216,234,254,274,294,316,334,354,375,394,415,434,455,475,494,516,534,554,575,594,615,634,656,674,696,716,735,755,774,795,815,835,854,875,896,915,935,955,976,994,1016,1035,1054,1075,1095,1114,1134,1154,1174,1195,1214,1234,1254,1275,1294,1314,1334,1355,1375,1396,1414,1434,1456,1476,1494,1514,1536,1555,1575,1595,1615,1635,1656,1676,1695,1714,1735,1756,1775,1796,1815,1835,1856,1874,1896,1915,1935,1956,1974,1994,2016,2035,2055,2076,2094,2115,2134,2156,2175,2196,2214,2234,2255,2276,2294,2314,2334,2356,2375,2396,2415,2435,2455,2474,2494,2515,2534,2556,2575,2596,2614,2634],"xSR":741.5,"ySR":573.95,"xT1":424.9,"yT1":0,"xT2":1058.1,"yT2":0,"toosoon":0,"cond_shown":"Congruent","ratio_trial":300,"L_num":1,"L_den":5,"R_num":3,"R_den":6,"correct_side":2,"subjID":"SarahSofhiaLaiton27","gender":"1","school":"4","age":"9"},{"start_time":1552327552754,"click_time":1552327555090,"finger_time":1552327554589,"fix_duration":1263.6424307255145,"trial":2,"RT":1835,"MT":501,"sideResp":2,"stimulus":[],"xmouse":[802,802,802,802,802,802,802,802,802,802,802,802,802,802,802,802,802,802,802,802,802,802,802,802,802,802,802,802,802,802,802,802,802,802,802,802,802,802,802,802,802,802,802,802,802,803,803,803,803,803,803,803,803,803,803,803,803,803,803,803,803,803,803,803,803,803,803,803,803,803,803,804,804,804,804,804,804,804,804,804,804,804,804,804,804,804,804,804,807,811,821,848,859,875,887,900,926,937,946,952,957,966,974,992,1004,1014,1029,1035,1040,1043,1047,1053,1055,1056,1057,1057,1060],"ymouse":[602,602,602,602,602,602,602,602,602,602,602,602,602,602,602,602,602,602,602,602,602,602,602,602,602,602,602,602,602,602,602,602,602,602,602,602,602,602,602,602,602,602,602,602,602,602,602,602,602,602,602,602,602,602,602,602,602,602,602,602,602,602,602,602,602,602,602,602,602,602,603,605,606,606,607,607,609,609,609,609,609,609,609,609,609,609,609,609,608,603,593,570,559,539,525,509,471,454,438,427,414,379,352,294,243,202,138,109,86,73,62,44,42,40,40,40,39],"timestamp_mouse":[16,36,57,76,96,115,137,156,177,197,216,236,257,275,296,316,336,357,377,397,417,436,455,477,496,517,537,557,576,595,615,636,656,676,696,716,737,756,775,796,816,836,857,875,896,915,937,957,977,995,1015,1035,1055,1077,1096,1116,1137,1156,1175,1197,1215,1236,1255,1276,1297,1316,1336,1355,1375,1396,1416,1435,1456,1475,1496,1515,1536,1557,1577,1596,1617,1637,1655,1676,1696,1717,1736,1755,1776,1795,1816,1835,1856,1876,1895,1915,1936,1955,1975,1996,2016,2036,2056,2076,2096,2117,2135,2156,2175,2195,2217,2237,2256,2276,2296,2315,2336],"xSR":741.5,"ySR":573.95,"xT1":424.9,"yT1":0,"xT2":1058.1,"yT2":0,"toosoon":0,"cond_shown":"Congruent","ratio_trial":100,"L_num":1,"L_den":2,"R_num":18,"R_den":30,"correct_side":2,"subjID":"SarahSofhiaLaiton27","gender":"1","school":"4","age":"9"},{"start_time":1552327562088,"click_time":1552327565010,"finger_time":1552327564390,"fix_duration":316.0635921278008,"trial":3,"RT":2302,"MT":620,"sideResp":1,"stimulus":[],"xmouse":[812,812,812,812,812,812,812,812,812,812,812,812,812,812,812,812,812,812,812,812,812,812,812,812,811,811,811,811,811,811,811,811,811,811,811,811,811,810,810,809,809,808,808,808,808,808,808,808,808,808,808,808,808,808,808,808,808,808,808,808,808,808,808,808,808,808,808,808,808,808,808,808,808,808,808,808,808,808,808,808,808,808,808,808,808,808,807,807,806,806,806,804,804,803,803,803,803,803,803,802,802,802,802,802,802,802,802,802,802,801,798,791,787,779,758,739,735,719,713,705,704,704,703,703,696,684,673,661,651,627,612,598,584,567,544,534,530,526,523,519,518,516,513,510,507,504],"ymouse":[605,605,605,605,605,605,605,605,605,605,605,605,605,605,605,605,605,605,605,605,605,605,605,604,601,601,601,601,601,601,601,601,601,601,601,600,599,599,598,597,597,597,597,597,597,597,597,597,597,597,597,597,597,597,597,597,597,597,597,597,597,597,597,597,597,597,597,597,597,597,597,597,597,597,597,597,597,597,597,597,597,597,597,597,597,597,597,597,597,597,597,598,599,600,601,602,602,603,604,604,605,605,605,605,605,605,605,605,605,606,606,604,600,593,561,525,514,479,457,419,403,386,365,343,299,268,248,231,218,196,187,177,171,167,159,157,154,153,151,140,131,125,118,114,101,93],"timestamp_mouse":[22,42,62,82,101,121,142,163,182,201,221,242,263,282,303,321,341,363,383,403,421,441,462,482,502,521,541,563,582,601,622,641,663,683,703,721,742,763,781,802,822,843,862,883,901,922,942,963,983,1001,1021,1043,1063,1082,1101,1121,1142,1163,1183,1201,1221,1241,1263,1282,1303,1322,1342,1363,1382,1403,1421,1442,1462,1481,1502,1523,1542,1562,1583,1601,1622,1641,1662,1682,1702,1721,1742,1761,1783,1803,1822,1841,1862,1881,1902,1921,1941,1963,1981,2002,2022,2042,2062,2083,2101,2121,2142,2161,2181,2202,2222,2241,2261,2283,2302,2321,2342,2363,2382,2401,2421,2442,2462,2482,2502,2522,2541,2561,2582,2601,2621,2642,2662,2683,2702,2721,2742,2762,2781,2801,2822,2842,2861,2882,2902,2921],"xSR":741.5,"ySR":573.95,"xT1":424.9,"yT1":0,"xT2":1058.1,"yT2":0,"toosoon":0,"cond_shown":"Congruent","ratio_trial":200,"L_num":13,"L_den":26,"R_num":14,"R_den":20,"correct_side":2,"subjID":"SarahSofhiaLaiton27","gender":"1","school":"4","age":"9"},{"start_time":1552327571768,"click_time":1552327574411,"finger_time":1552327573830,"fix_duration":576.3470194512383,"trial":4,"RT":2062,"MT":581,"sideResp":2,"stimulus":[],"xmouse":[793,793,793,793,793,793,793,793,793,793,793,793,793,793,793,793,793,793,793,793,793,793,793,793,793,793,793,793,793,793,793,793,793,793,793,793,793,793,793,793,793,793,793,793,793,793,793,793,793,793,793,793,793,793,793,793,793,793,793,793,793,793,793,793,793,793,793,793,793,793,793,793,793,793,793,793,796,798,799,799,799,799,799,799,799,799,799,799,799,799,799,799,799,799,799,799,799,799,799,799,799,802,820,863,890,911,934,941,948,956,962,970,973,981,985,989,994,998,1003,1009,1014,1024,1032,1037,1042,1045,1049,1051,1054,1054,1055,1058,1061],"ymouse":[619,619,619,619,619,619,619,619,619,619,619,619,619,619,619,619,619,619,619,619,619,619,619,619,619,619,619,619,619,619,619,619,619,619,619,619,619,619,619,619,619,619,619,619,619,619,619,619,619,619,619,619,619,619,619,619,619,619,619,619,619,619,619,619,619,619,619,619,619,619,619,619,619,619,619,619,613,611,610,610,610,610,610,610,610,610,610,610,610,610,610,610,610,610,610,610,610,610,610,610,610,606,592,564,546,526,500,489,479,468,459,440,428,405,390,375,349,335,316,297,280,242,209,197,167,148,122,112,103,99,96,84,77],"timestamp_mouse":[12,36,41,62,83,103,122,142,161,181,202,221,241,263,282,303,322,343,361,383,401,421,442,463,481,501,523,541,563,582,601,622,643,663,681,702,722,743,761,782,803,823,841,862,883,901,923,941,963,982,1002,1021,1042,1063,1083,1102,1121,1143,1163,1183,1201,1222,1243,1263,1282,1302,1321,1343,1362,1382,1402,1422,1442,1463,1483,1502,1522,1542,1563,1582,1603,1622,1642,1661,1682,1702,1723,1742,1763,1782,1803,1822,1841,1863,1882,1903,1923,1942,1961,1982,2003,2022,2043,2062,2081,2101,2121,2142,2162,2183,2203,2222,2241,2263,2282,2301,2321,2341,2362,2383,2402,2421,2441,2462,2482,2502,2522,2542,2561,2581,2601,2622,2643],"xSR":741.5,"ySR":573.95,"xT1":424.9,"yT1":0,"xT2":1058.1,"yT2":0,"toosoon":0,"cond_shown":"Incongruent","ratio_trial":100,"L_num":17,"L_den":30,"R_num":10,"R_den":15,"correct_side":2,"subjID":"SarahSofhiaLaiton27","gender":"1","school":"4","age":"9"},{"start_time":1552327577394,"click_time":1552327579490,"finger_time":1552327578910,"fix_duration":462.5138072118039,"trial":5,"RT":1516,"MT":580,"sideResp":2,"stimulus":[],"xmouse":[787,787,787,786,784,783,782,782,782,781,780,778,777,775,772,772,772,772,772,772,772,772,772,772,771,771,771,771,770,769,769,769,769,769,769,769,769,769,769,769,769,769,769,769,769,769,769,769,769,769,769,769,769,769,769,769,769,769,769,769,769,769,769,769,769,769,769,769,769,769,769,769,768,769,784,793,802,815,827,875,927,959,983,999,1029,1040,1049,1055,1060,1063,1064,1064,1064,1064,1064,1064,1064,1064,1064,1064,1065,1067,1067,1067,1069],"ymouse":[627,627,627,626,624,624,623,623,623,622,621,619,618,617,615,615,615,615,615,615,615,615,615,615,615,615,615,615,615,615,615,615,615,615,615,615,615,615,615,615,615,615,615,615,615,615,615,615,615,615,615,615,615,615,615,615,615,615,615,615,615,615,615,615,615,615,615,615,615,615,615,615,613,608,580,564,545,524,505,430,359,312,272,243,191,174,157,144,133,124,122,122,121,121,121,121,121,121,119,116,113,110,106,104,98],"timestamp_mouse":[16,46,56,76,95,115,136,156,176,196,215,235,256,277,295,316,336,357,376,395,415,436,457,476,497,516,536,556,577,596,615,636,656,677,696,715,737,755,775,797,816,836,856,877,896,917,936,956,976,997,1017,1037,1056,1077,1096,1116,1137,1157,1177,1196,1217,1235,1257,1275,1295,1317,1336,1355,1377,1397,1416,1437,1457,1477,1495,1516,1535,1556,1575,1596,1616,1635,1657,1675,1695,1715,1735,1756,1776,1797,1817,1836,1855,1876,1896,1916,1935,1956,1975,1995,2015,2035,2057,2076,2095],"xSR":741.5,"ySR":573.95,"xT1":424.9,"yT1":0,"xT2":1058.1,"yT2":0,"toosoon":0,"cond_shown":"Congruent","ratio_trial":200,"L_num":7,"L_den":15,"R_num":18,"R_den":27,"correct_side":2,"subjID":"SarahSofhiaLaiton27","gender":"1","school":"4","age":"9"},{"start_time":1552327582136,"click_time":1552327584430,"finger_time":1552327584090,"fix_duration":644.4449284882038,"trial":6,"RT":1954,"MT":340,"sideResp":1,"stimulus":[],"xmouse":[773,773,773,773,773,773,773,773,773,773,774,774,775,775,775,775,775,775,775,775,775,775,775,775,775,775,775,775,775,775,775,775,775,775,775,775,775,775,775,775,775,775,775,775,775,775,775,775,775,775,775,775,775,775,775,775,775,775,775,775,775,775,775,775,775,775,775,775,775,775,775,775,775,775,775,775,775,775,775,775,775,775,775,775,775,775,775,775,775,775,775,775,775,775,775,775,774,763,755,743,728,711,670,647,627,604,595,587,574,568,560,555,540,533,519],"ymouse":[628,628,626,625,625,625,625,625,624,624,622,621,621,620,619,619,618,618,618,618,618,618,618,618,618,618,618,618,618,617,617,617,617,617,617,617,617,617,617,617,617,617,617,617,617,617,617,617,617,617,617,617,617,617,617,617,617,617,617,617,617,617,617,617,617,617,617,617,617,617,617,617,617,617,617,617,617,617,617,617,617,617,617,617,617,617,617,617,617,617,617,617,617,616,613,608,598,558,525,473,414,355,206,137,74,15,0,0,0,0,0,0,0,0,1],"timestamp_mouse":[14,36,53,73,93,114,134,155,174,194,215,235,254,274,294,314,334,354,375,395,415,434,454,474,494,515,535,555,574,593,614,635,654,673,695,714,734,754,775,794,814,833,853,875,895,914,933,953,975,993,1014,1035,1054,1074,1094,1113,1134,1153,1175,1195,1215,1234,1254,1275,1295,1314,1334,1353,1375,1395,1414,1433,1454,1475,1494,1515,1533,1554,1575,1595,1614,1633,1655,1674,1694,1715,1734,1754,1774,1793,1814,1835,1853,1874,1894,1915,1934,1954,1974,1994,2013,2034,2054,2073,2093,2114,2134,2153,2174,2194,2215,2234,2253,2273,2293],"xSR":741.5,"ySR":573.95,"xT1":424.9,"yT1":0,"xT2":1058.1,"yT2":0,"toosoon":0,"cond_shown":"Incongruent","ratio_trial":300,"L_num":4,"L_den":5,"R_num":6,"R_den":12,"correct_side":1,"subjID":"SarahSofhiaLaiton27","gender":"1","school":"4","age":"9"},{"start_time":1552327592343,"click_time":1552327594349,"finger_time":1552327593970,"fix_duration":250,"trial":7,"RT":1627,"MT":379,"sideResp":1,"stimulus":[],"xmouse":[821,821,820,820,820,820,820,820,820,820,820,820,820,820,820,820,820,820,820,820,820,820,820,820,820,820,820,820,820,820,820,820,820,820,820,820,820,820,820,820,820,820,820,820,820,820,820,820,820,820,820,820,820,820,820,820,819,819,818,817,817,817,817,817,816,816,816,816,816,816,816,816,816,816,816,816,816,816,816,810,807,799,775,760,729,708,679,625,604,582,565,551,533,522,520,513,511,509,509,508,507],"ymouse":[598,598,598,598,598,598,598,598,598,598,598,598,598,598,598,598,598,598,598,598,598,598,598,598,598,598,598,598,598,598,598,598,598,598,598,598,598,598,598,598,598,598,598,598,598,598,598,598,598,598,598,598,598,598,598,598,599,599,599,599,599,599,599,599,599,599,599,599,599,599,599,599,599,599,599,599,599,599,599,593,588,572,519,484,422,385,344,264,237,210,191,175,147,128,125,112,109,104,102,100,97],"timestamp_mouse":[11,28,47,67,86,107,127,146,168,188,208,227,247,268,288,308,327,347,368,386,407,426,446,466,487,507,526,546,567,587,606,628,646,668,688,706,727,748,767,787,807,827,847,867,887,908,927,946,967,988,1006,1026,1048,1068,1086,1108,1127,1147,1167,1187,1208,1227,1246,1267,1288,1306,1327,1348,1368,1388,1406,1427,1448,1467,1487,1507,1526,1547,1568,1587,1607,1627,1647,1667,1687,1707,1727,1747,1767,1786,1807,1827,1846,1866,1887,1906,1926,1948,1967,1987,2006],"xSR":741.5,"ySR":573.95,"xT1":424.9,"yT1":0,"xT2":1058.1,"yT2":0,"toosoon":0,"cond_shown":"Congruent","ratio_trial":200,"L_num":4,"L_den":8,"R_num":3,"R_den":10,"correct_side":1,"subjID":"SarahSofhiaLaiton27","gender":"1","school":"4","age":"9"},{"start_time":1552327598808,"click_time":1552327601009,"finger_time":1552327600390,"fix_duration":1217.2067747192518,"trial":8,"RT":1582,"MT":619,"sideResp":2,"stimulus":[],"xmouse":[798,797,797,795,793,793,792,792,791,791,791,790,790,790,790,790,790,790,790,790,790,790,790,790,790,790,790,790,789,788,787,787,787,787,787,787,787,787,787,786,786,786,786,785,785,785,785,785,785,785,785,785,785,785,785,785,785,785,785,785,785,785,785,785,785,785,785,785,785,785,785,785,785,785,785,785,785,785,785,820,833,866,886,901,918,940,950,960,968,984,995,1008,1016,1023,1032,1035,1036,1038,1038,1040,1043,1045,1048,1051,1055,1056,1057,1059,1060,1064,1065],"ymouse":[590,590,590,590,590,590,590,590,590,590,590,590,590,590,590,590,590,590,590,590,590,590,590,590,590,590,590,590,590,590,590,590,590,590,590,590,590,590,590,590,590,591,591,591,591,591,591,591,591,591,591,591,591,591,592,592,592,592,592,592,592,592,592,592,592,592,592,592,592,592,592,592,592,592,592,592,592,592,591,550,536,492,458,432,396,341,318,297,277,243,224,199,185,174,153,149,146,144,143,140,137,133,130,129,124,124,120,115,110,100,97],"timestamp_mouse":[1,31,41,61,80,102,121,141,161,182,201,221,241,262,282,301,321,341,362,382,402,422,441,462,482,502,522,542,562,581,601,621,641,662,682,701,722,742,761,781,801,822,842,863,881,901,921,942,962,981,1002,1021,1041,1061,1082,1102,1122,1142,1162,1182,1202,1221,1242,1262,1281,1302,1322,1341,1362,1381,1401,1421,1442,1462,1482,1502,1522,1541,1561,1582,1601,1621,1642,1662,1681,1701,1721,1742,1761,1781,1802,1821,1841,1862,1881,1901,1922,1940,1961,1981,2001,2021,2042,2061,2082,2101,2122,2141,2162,2182,2200],"xSR":741.5,"ySR":573.95,"xT1":424.9,"yT1":0,"xT2":1058.1,"yT2":0,"toosoon":0,"cond_shown":"Congruent","ratio_trial":100,"L_num":7,"L_den":14,"R_num":9,"R_den":15,"correct_side":2,"subjID":"SarahSofhiaLaiton27","gender":"1","school":"4","age":"9"},{"start_time":1552327603905,"click_time":1552327605769,"finger_time":1552327605610,"fix_duration":1193.4478387369456,"trial":9,"RT":1705,"MT":159,"sideResp":1,"stimulus":[],"xmouse":[787,787,787,787,787,787,787,787,787,787,787,787,787,787,787,787,787,787,787,787,787,787,787,787,787,787,787,787,787,787,787,787,787,787,787,787,787,787,787,787,787,787,787,787,787,787,787,787,787,787,787,787,787,787,787,787,787,787,787,787,787,787,787,787,787,787,787,787,787,787,787,787,787,787,787,787,787,787,787,787,787,787,786,784,774,771,759,736,719,702,619,562,505,449],"ymouse":[619,619,619,619,619,619,619,619,619,619,619,619,619,619,619,619,619,619,619,619,619,619,619,619,619,619,619,619,619,619,619,619,619,619,619,619,619,619,619,619,619,619,619,619,619,619,619,619,619,619,619,619,619,619,619,619,619,619,619,619,619,619,619,619,619,619,619,619,619,619,619,619,619,619,619,619,619,619,619,619,619,619,616,611,577,568,541,492,454,414,268,182,102,36],"timestamp_mouse":[13,33,44,65,84,104,125,145,165,184,204,224,244,265,285,305,324,344,365,384,404,424,444,464,484,505,524,545,564,584,604,625,645,664,684,705,725,745,765,784,805,824,844,864,885,904,925,944,964,985,1005,1025,1044,1064,1085,1105,1124,1145,1164,1185,1205,1225,1244,1264,1285,1305,1325,1345,1365,1384,1405,1425,1444,1464,1484,1505,1524,1544,1565,1585,1605,1624,1644,1664,1685,1705,1724,1745,1765,1784,1804,1824,1844,1864],"xSR":741.5,"ySR":573.95,"xT1":424.9,"yT1":0,"xT2":1058.1,"yT2":0,"toosoon":0,"cond_shown":"Incongruent","ratio_trial":100,"L_num":9,"L_den":18,"R_num":6,"R_den":10,"correct_side":2,"subjID":"SarahSofhiaLaiton27","gender":"1","school":"4","age":"9"},{"start_time":1552327608842,"click_time":1552327610929,"finger_time":1552327610489,"fix_duration":250,"trial":10,"RT":1647,"MT":440,"sideResp":2,"stimulus":[],"xmouse":[777,777,777,777,777,777,777,777,777,777,777,777,777,777,777,777,777,777,777,777,777,777,777,777,777,777,777,777,777,777,777,777,777,777,777,777,777,777,777,777,777,777,777,777,777,777,777,777,777,777,777,777,777,777,777,777,777,777,777,777,777,777,777,777,777,777,777,777,777,777,777,777,777,777,777,777,777,777,777,778,791,811,885,931,973,1006,1024,1057,1070,1100,1129,1153,1187,1195,1200,1201,1201,1201,1201,1201,1199,1194,1171,1161,1154],"ymouse":[595,595,595,595,595,595,595,595,595,595,595,595,595,595,595,595,595,595,595,595,595,595,595,595,595,595,595,595,595,595,595,595,595,595,595,595,595,595,595,595,595,595,595,595,595,595,595,595,595,595,595,595,595,595,595,595,595,595,595,595,595,595,595,595,595,595,595,595,595,595,595,595,595,595,595,595,595,595,595,595,591,581,537,507,474,444,424,385,366,321,280,240,171,151,140,132,129,127,123,119,117,114,103,94,87],"timestamp_mouse":[11,35,47,68,88,107,128,148,168,188,207,227,247,268,293,307,327,347,368,387,407,427,448,467,488,508,528,548,568,588,608,627,648,667,687,708,727,747,767,787,808,828,847,868,888,908,928,947,967,987,1007,1027,1047,1067,1088,1107,1128,1147,1168,1187,1207,1227,1248,1267,1287,1307,1327,1347,1367,1388,1408,1428,1447,1468,1487,1508,1527,1548,1567,1587,1607,1627,1647,1667,1687,1708,1727,1748,1768,1787,1807,1828,1847,1867,1887,1908,1928,1947,1968,1988,2008,2028,2048,2067,2087],"xSR":741.5,"ySR":573.95,"xT1":424.9,"yT1":0,"xT2":1058.1,"yT2":0,"toosoon":0,"cond_shown":"Incongruent","ratio_trial":300,"L_num":1,"L_den":2,"R_num":2,"R_den":10,"correct_side":1,"subjID":"SarahSofhiaLaiton27","gender":"1","school":"4","age":"9"},{"start_time":1552327615022,"click_time":1552327617489,"finger_time":1552327616950,"fix_duration":250,"trial":11,"RT":1928,"MT":539,"sideResp":1,"stimulus":[],"xmouse":[766,766,766,766,766,766,766,766,766,766,766,766,766,766,766,766,766,766,766,766,767,767,767,767,767,767,768,768,769,769,769,769,769,769,769,769,769,769,769,769,769,769,769,770,770,770,770,770,770,770,770,770,770,770,770,770,770,770,770,770,770,770,770,770,770,770,770,770,770,770,770,770,770,770,770,770,770,770,770,770,770,770,770,770,770,770,770,770,769,768,765,764,763,759,758,749,736,728,705,685,674,667,661,658,653,650,649,647,645,642,639,634,628,615,605,595,583,569,531,501,488,475,464,453],"ymouse":[615,615,615,615,615,615,615,615,615,615,615,615,615,615,615,615,615,615,615,615,613,610,609,605,602,599,595,593,589,588,587,587,587,587,587,587,587,587,587,587,587,587,585,583,582,582,582,582,582,582,582,582,582,582,582,582,582,582,582,582,582,582,582,582,582,582,582,582,582,582,582,582,582,582,582,586,589,590,592,594,596,599,600,602,602,602,602,602,602,598,594,592,591,588,586,581,572,564,545,530,520,511,502,494,480,473,468,465,458,450,441,429,416,384,360,336,309,279,215,175,154,134,115,98],"timestamp_mouse":[12,38,47,66,87,107,128,147,167,188,208,228,247,267,287,308,327,347,367,387,408,427,447,467,487,507,527,547,567,588,607,628,647,667,688,708,728,748,768,788,808,828,848,867,887,908,928,948,967,988,1007,1027,1048,1067,1088,1107,1127,1147,1168,1188,1207,1228,1248,1267,1287,1307,1327,1348,1368,1387,1408,1428,1447,1468,1488,1507,1527,1548,1567,1587,1607,1628,1648,1668,1687,1708,1727,1747,1768,1788,1807,1827,1847,1867,1887,1907,1928,1948,1967,1987,2007,2027,2047,2067,2087,2107,2128,2147,2167,2187,2208,2228,2248,2267,2287,2308,2328,2347,2368,2387,2407,2427,2448,2467],"xSR":741.5,"ySR":573.95,"xT1":424.9,"yT1":0,"xT2":1058.1,"yT2":0,"toosoon":0,"cond_shown":"Incongruent","ratio_trial":300,"L_num":4,"L_den":20,"R_num":2,"R_den":4,"correct_side":2,"subjID":"SarahSofhiaLaiton27","gender":"1","school":"4","age":"9"},{"start_time":1552327624118,"click_time":1552327629630,"finger_time":1552327625989,"fix_duration":1287.2108388199097,"trial":12,"RT":1871,"MT":3641,"sideResp":2,"stimulus":[],"xmouse":[804,804,804,804,804,804,804,804,804,804,804,804,804,804,804,804,804,804,804,804,804,804,804,804,804,804,804,804,804,804,804,804,804,804,804,804,804,804,804,804,804,804,804,804,804,804,804,804,804,804,804,804,804,804,804,804,804,804,804,804,804,804,804,804,804,804,804,804,804,804,804,804,804,804,804,804,804,804,804,804,804,804,804,804,804,804,804,804,804,804,806,809,816,835,852,864,873,884,901,910,923,934,947,973,984,995,1000,1002,1009,1013,1019,1027,1037,1059,1069,1075,1084,1086,1094,1098,1099,1100,1100,1100,1100,1100,1100,1100,1100,1100,1100,1100,1100,1100,1100,1100,1100,1100,1100,1100,1100,1100,1100,1100,1100,1100,1100,1100,1099,1085,1070,1059,1049,1036,1027,1014,1004,995,972,964,950,930,913,890,884,869,855,836,808,800,791,782,771,741,736,724,715,707,697,692,688,685,683,676,672,668,665,664,662,662,662,662,662,672,686,718,742,761,793,813,837,861,879,891,896,897,897,897,897,896,881,830,802,728,708,699,694,693,693,693,693,693,694,725,752,788,805,818,838,841,841,841,841,825,798,763,749,741,741,741,742,752,774,897,965,1043,1070,1085,1089,1089,1087,1080,1046,927,860,851,841,841,841,841,842,853,901,912,933,957,966,970,979,991,1005,1023,1036,1054,1059,1061],"ymouse":[612,612,612,612,612,612,612,612,612,612,612,612,612,612,612,611,608,608,608,608,608,608,608,608,608,608,608,608,608,608,608,608,607,607,607,607,607,607,607,607,607,607,607,607,607,607,607,607,607,607,607,607,607,607,607,607,607,607,607,607,607,607,607,607,607,607,607,607,607,607,607,607,607,607,607,607,607,607,607,607,607,607,607,607,607,607,607,607,607,607,602,599,589,560,538,523,510,494,461,440,418,394,369,321,302,276,262,251,233,224,214,204,193,167,154,145,133,129,118,112,109,107,107,107,107,107,107,107,107,107,107,107,107,107,107,107,107,107,107,107,107,107,107,107,107,107,107,107,106,111,117,122,126,131,135,140,144,147,155,158,162,166,170,171,172,172,172,172,172,171,169,166,163,152,150,145,141,137,133,131,129,128,127,124,123,121,120,119,119,119,119,119,119,125,129,132,132,132,132,128,125,122,120,118,118,118,118,118,118,118,122,136,144,155,158,161,163,163,163,163,163,163,164,167,167,167,167,170,178,179,179,179,179,182,188,193,197,198,198,198,200,204,205,198,190,179,175,173,172,172,172,172,172,177,179,180,181,181,181,181,183,184,184,183,179,171,168,166,162,155,144,132,124,108,103,99],"timestamp_mouse":[12,36,50,72,91,111,131,151,171,191,212,231,252,271,291,311,331,352,371,392,412,432,451,472,492,511,532,552,572,592,611,631,652,671,691,711,731,751,772,792,811,832,852,872,891,912,931,952,971,992,1011,1031,1051,1072,1092,1112,1132,1152,1172,1192,1212,1231,1251,1272,1292,1311,1331,1352,1371,1392,1413,1432,1451,1472,1492,1512,1532,1551,1572,1591,1611,1633,1651,1672,1692,1711,1731,1752,1772,1792,1811,1832,1852,1871,1891,1911,1931,1951,1971,1991,2012,2032,2051,2072,2091,2112,2131,2151,2171,2193,2211,2231,2252,2272,2291,2311,2331,2351,2371,2391,2411,2432,2451,2472,2491,2512,2532,2552,2572,2592,2612,2631,2652,2671,2692,2711,2731,2751,2771,2791,2812,2831,2851,2872,2891,2912,2931,2952,2971,2990,3012,3032,3052,3071,3091,3112,3131,3151,3172,3191,3211,3231,3252,3271,3292,3311,3331,3351,3371,3391,3412,3432,3451,3472,3492,3512,3532,3552,3571,3592,3611,3631,3651,3671,3691,3712,3731,3751,3772,3792,3811,3831,3853,3871,3891,3911,3931,3951,3971,3992,4011,4031,4052,4071,4090,4112,4131,4151,4171,4191,4224,4231,4251,4271,4292,4312,4331,4351,4371,4392,4411,4431,4452,4472,4491,4511,4531,4552,4571,4591,4612,4638,4651,4671,4691,4712,4731,4751,4772,4791,4811,4832,4852,4871,4891,4912,4931,4951,4972,4991,5011,5032,5052,5070,5091,5111,5131,5151,5172,5192,5212,5231,5256,5272,5292,5312,5332,5351,5371,5391,5412,5432,5452,5471,5491,5512],"xSR":741.5,"ySR":573.95,"xT1":424.9,"yT1":0,"xT2":1058.1,"yT2":0,"toosoon":0,"cond_shown":"Congruent","ratio_trial":100,"L_num":12,"L_den":30,"R_num":13,"R_den":26,"correct_side":2,"subjID":"SarahSofhiaLaiton27","gender":"1","school":"4","age":"9"},{"start_time":1552327642418,"click_time":1552327644890,"finger_time":1552327644209,"fix_duration":728.5156011433306,"trial":13,"RT":1791,"MT":681,"sideResp":2,"stimulus":[],"xmouse":[788,787,787,787,786,786,786,786,785,785,785,785,785,784,784,784,784,783,783,783,783,783,783,783,783,783,783,783,783,783,783,783,783,783,783,783,783,783,783,783,783,783,783,783,783,782,782,782,782,782,782,782,782,782,782,782,782,782,782,782,782,782,782,782,782,782,782,782,782,782,782,782,782,782,782,782,782,782,782,782,782,782,782,782,782,782,782,786,805,812,817,827,835,854,864,875,886,895,902,912,927,937,948,966,978,988,1002,1015,1043,1044,1050,1053,1058,1064,1065,1067,1069,1069,1072,1073,1074,1075,1077,1083],"ymouse":[622,620,620,620,619,618,617,617,617,617,617,616,616,615,615,615,615,615,615,615,615,615,615,615,615,615,615,615,615,615,615,615,615,615,615,615,615,615,615,615,615,615,615,615,614,614,614,614,614,614,614,614,614,614,614,614,614,614,614,614,613,611,609,608,608,608,608,608,608,608,608,608,608,608,608,608,608,608,608,608,608,608,608,608,608,608,604,599,582,573,568,555,543,517,501,484,467,452,404,386,360,345,326,290,272,255,236,218,178,176,168,164,158,149,146,143,141,139,133,129,127,121,115,98],"timestamp_mouse":[21,42,51,71,91,111,131,151,171,192,211,231,251,271,292,312,331,351,372,391,412,431,452,471,491,512,531,551,571,591,611,631,652,670,691,711,732,751,771,792,812,831,851,871,892,911,931,951,972,992,1012,1031,1052,1071,1091,1112,1131,1152,1171,1190,1211,1231,1251,1271,1291,1312,1331,1352,1371,1391,1412,1432,1451,1471,1492,1511,1532,1552,1572,1592,1612,1632,1652,1671,1691,1712,1731,1752,1771,1791,1811,1832,1851,1872,1891,1911,1931,1951,1971,1991,2012,2031,2052,2071,2091,2111,2131,2151,2172,2191,2212,2231,2252,2271,2291,2311,2332,2351,2371,2390,2412,2431,2451,2471],"xSR":741.5,"ySR":573.95,"xT1":424.9,"yT1":0,"xT2":1058.1,"yT2":0,"toosoon":0,"cond_shown":"Congruent","ratio_trial":200,"L_num":3,"L_den":6,"R_num":14,"R_den":20,"correct_side":2,"subjID":"SarahSofhiaLaiton27","gender":"1","school":"4","age":"9"},{"start_time":1552327651084,"click_time":1552327653729,"finger_time":1552327653010,"fix_duration":572.1599358735758,"trial":14,"RT":1926,"MT":719,"sideResp":2,"stimulus":[],"xmouse":[785,785,785,785,785,785,785,785,785,785,785,785,785,785,785,785,785,785,785,785,785,785,785,785,785,785,785,785,785,785,785,785,785,785,785,785,785,785,785,785,785,785,785,785,785,785,785,785,785,785,785,785,785,785,785,785,785,785,785,785,785,785,785,785,785,785,786,788,790,792,793,793,794,794,795,795,796,796,797,797,797,797,797,797,797,797,797,797,797,797,797,797,797,804,810,834,842,854,859,866,883,897,912,927,939,951,953,954,957,964,980,986,992,995,997,1000,1001,1002,1002,1004,1007,1009,1012,1013,1016,1020,1024,1029,1032,1041,1073,1090,1104],"ymouse":[611,611,611,611,611,611,611,611,611,611,611,611,611,611,611,611,611,611,611,611,611,611,611,611,611,611,611,611,611,611,611,611,611,611,611,611,611,611,611,611,611,611,611,611,611,611,611,611,611,611,611,611,611,611,611,611,611,611,611,611,611,611,611,611,611,611,610,610,610,611,612,612,612,613,613,613,613,617,620,620,620,620,620,620,620,620,620,620,620,620,620,620,620,616,610,581,571,554,547,537,508,488,467,444,425,404,401,397,394,386,368,359,352,345,338,330,326,323,319,316,304,298,291,288,283,271,262,255,246,228,150,105,61],"timestamp_mouse":[11,36,45,66,85,105,126,145,165,185,206,225,245,265,285,306,326,345,365,385,405,426,446,466,486,504,526,546,565,585,606,625,645,665,686,705,726,745,766,786,805,825,846,866,886,905,926,946,965,985,1005,1025,1046,1066,1086,1106,1125,1146,1166,1186,1205,1226,1246,1266,1286,1305,1326,1345,1365,1386,1406,1425,1445,1466,1485,1505,1526,1546,1567,1585,1606,1625,1645,1666,1686,1707,1726,1745,1765,1785,1805,1826,1846,1865,1886,1905,1926,1945,1966,1985,2005,2025,2046,2065,2085,2105,2125,2146,2165,2185,2205,2225,2245,2265,2285,2305,2325,2345,2366,2386,2405,2425,2445,2465,2486,2505,2525,2546,2566,2585,2605,2625,2645],"xSR":741.5,"ySR":573.95,"xT1":424.9,"yT1":0,"xT2":1058.1,"yT2":0,"toosoon":0,"cond_shown":"Congruent","ratio_trial":200,"L_num":9,"L_den":30,"R_num":13,"R_den":26,"correct_side":2,"subjID":"SarahSofhiaLaiton27","gender":"1","school":"4","age":"9"},{"start_time":1552327671714,"click_time":1552327673690,"finger_time":1552327673190,"fix_duration":882.0011095306968,"trial":15,"RT":1476,"MT":500,"sideResp":1,"stimulus":[],"xmouse":[765,765,765,765,765,765,764,763,763,763,761,761,761,760,760,759,759,759,759,759,759,759,758,756,755,754,754,754,754,753,753,752,752,752,752,752,752,752,752,752,752,752,752,752,752,752,752,752,752,752,752,752,752,752,752,752,752,752,752,752,752,752,752,752,752,752,752,752,752,752,750,747,743,729,717,705,691,677,657,648,637,623,610,584,574,563,555,546,530,522,512,505,498,493,487,484,479,477,472],"ymouse":[615,615,615,615,615,615,615,615,615,615,614,614,614,614,614,613,612,612,612,612,612,612,612,612,612,611,611,611,611,611,611,611,611,611,611,611,611,611,611,611,611,611,611,611,611,611,611,611,611,611,611,611,611,611,611,611,611,611,611,611,611,611,611,611,611,611,611,611,611,610,602,590,576,539,513,489,466,438,394,373,351,327,305,262,248,235,223,212,195,187,181,173,166,151,137,130,122,114,97],"timestamp_mouse":[17,42,56,77,97,115,136,156,177,196,216,236,256,276,296,316,335,356,376,396,416,436,456,475,497,516,536,556,576,595,617,637,655,675,696,717,737,757,777,796,816,836,857,883,896,917,936,957,976,996,1016,1035,1055,1075,1096,1116,1135,1156,1176,1196,1216,1235,1255,1276,1296,1317,1336,1357,1377,1396,1416,1437,1456,1476,1497,1516,1537,1555,1576,1596,1616,1635,1655,1677,1696,1717,1736,1756,1776,1795,1815,1836,1856,1876,1895,1916,1936,1955,1976],"xSR":741.5,"ySR":573.95,"xT1":424.9,"yT1":0,"xT2":1058.1,"yT2":0,"toosoon":0,"cond_shown":"Congruent","ratio_trial":200,"L_num":8,"L_den":15,"R_num":3,"R_den":9,"correct_side":1,"subjID":"SarahSofhiaLaiton27","gender":"1","school":"4","age":"9"},{"start_time":1552327679836,"click_time":1552327681490,"finger_time":1552327681329,"fix_duration":1423.4771445458812,"trial":16,"RT":1493,"MT":161,"sideResp":2,"stimulus":[],"xmouse":[764,764,764,764,764,764,764,764,764,764,764,764,764,764,764,764,764,764,764,764,764,764,764,764,764,764,764,764,764,764,764,764,764,764,764,764,764,764,764,764,764,765,766,767,769,772,775,776,776,776,777,778,781,781,781,781,781,781,781,780,779,778,777,777,777,777,777,777,777,777,777,777,776,781,793,809,836,907,934,971,987,1007,1062],"ymouse":[576,576,576,576,576,576,576,576,576,576,576,576,578,579,580,580,580,580,580,580,580,580,580,580,580,580,580,580,580,580,580,580,580,580,580,580,580,580,580,580,580,581,581,581,581,582,582,582,582,582,582,583,585,586,587,587,589,592,594,596,597,598,600,601,601,601,601,601,601,601,601,601,602,587,563,528,473,343,286,198,159,110,3],"timestamp_mouse":[14,33,54,74,93,114,135,153,174,194,214,234,254,274,294,315,334,354,373,394,414,434,455,474,493,514,535,555,575,595,614,634,654,674,695,715,734,754,774,793,815,835,854,874,894,914,933,953,974,994,1015,1034,1054,1075,1095,1114,1134,1154,1175,1194,1214,1234,1254,1274,1293,1315,1334,1355,1374,1393,1414,1434,1454,1474,1493,1514,1535,1554,1574,1595,1615,1635,1654],"xSR":741.5,"ySR":573.95,"xT1":424.9,"yT1":0,"xT2":1058.1,"yT2":0,"toosoon":0,"cond_shown":"Congruent","ratio_trial":200,"L_num":7,"L_den":15,"R_num":18,"R_den":27,"correct_side":2,"subjID":"SarahSofhiaLaiton27","gender":"1","school":"4","age":"9"},{"start_time":1552327684797,"click_time":1552327687310,"finger_time":1552327686650,"fix_duration":1005.694594116484,"trial":17,"RT":1853,"MT":660,"sideResp":2,"stimulus":[],"xmouse":[804,804,804,804,804,804,804,804,804,804,804,804,804,804,804,804,804,804,804,804,804,804,804,803,803,803,803,803,803,803,803,803,803,803,803,803,803,803,802,802,802,800,799,799,799,799,799,799,799,799,799,799,799,799,799,799,799,799,799,799,799,799,799,798,796,796,795,795,795,795,795,795,795,795,795,795,796,798,799,802,802,802,802,802,802,802,802,802,802,802,804,812,820,827,854,869,883,897,910,936,955,968,981,994,1012,1021,1029,1036,1040,1046,1047,1049,1049,1050,1055,1058,1061,1064,1065,1068,1069,1069,1070,1070,1071,1073],"ymouse":[598,598,598,598,598,598,598,598,598,598,598,598,598,598,598,598,598,598,598,598,598,598,598,597,597,597,597,597,597,597,597,597,597,597,597,597,597,597,597,597,597,597,597,597,597,597,597,597,597,597,597,597,597,597,597,597,597,597,597,597,597,597,597,597,598,599,599,599,599,599,599,599,599,599,600,601,604,608,611,616,616,616,616,616,616,616,616,616,616,616,608,588,571,553,505,481,455,427,409,365,331,310,286,265,229,213,200,188,179,167,164,160,158,155,147,139,131,124,119,111,110,108,107,106,101,97],"timestamp_mouse":[25,47,53,72,93,113,133,154,173,193,212,232,254,273,292,313,333,354,373,394,414,434,453,473,493,514,534,554,573,592,612,634,653,674,694,714,734,752,774,793,813,834,853,873,894,912,934,954,974,992,1013,1032,1053,1074,1093,1114,1133,1153,1174,1193,1213,1234,1254,1273,1293,1313,1333,1354,1374,1394,1412,1434,1453,1474,1493,1513,1533,1554,1574,1592,1614,1633,1654,1672,1694,1713,1733,1752,1774,1793,1813,1833,1853,1872,1893,1913,1933,1953,1972,1994,2012,2032,2052,2074,2093,2113,2132,2152,2174,2193,2213,2233,2253,2274,2293,2313,2333,2353,2372,2394,2414,2433,2453,2473,2493,2513],"xSR":741.5,"ySR":573.95,"xT1":424.9,"yT1":0,"xT2":1058.1,"yT2":0,"toosoon":0,"cond_shown":"Congruent","ratio_trial":200,"L_num":9,"L_den":30,"R_num":13,"R_den":26,"correct_side":2,"subjID":"SarahSofhiaLaiton27","gender":"1","school":"4","age":"9"},{"start_time":1552327690334,"click_time":1552327692651,"finger_time":1552327691850,"fix_duration":541.7017983259337,"trial":18,"RT":1516,"MT":801,"sideResp":1,"stimulus":[],"xmouse":[776,776,776,776,776,776,776,776,776,776,776,776,776,776,776,776,776,776,776,777,777,779,779,779,779,779,779,779,779,779,779,779,779,779,779,779,779,779,779,779,779,779,779,779,779,779,779,783,786,788,790,791,792,792,792,792,792,792,792,792,793,793,793,793,793,793,793,793,793,793,793,793,793,785,774,763,749,713,693,676,658,641,612,596,588,581,574,564,562,559,557,556,554,552,548,546,543,535,532,530,527,525,522,512,507,501,496,488,484,480,478,475,471,470,469,468],"ymouse":[617,617,617,617,617,617,617,617,617,617,617,617,617,617,617,617,617,617,617,616,616,614,614,613,612,612,612,612,612,612,612,612,612,612,612,612,612,612,612,612,612,612,612,612,612,612,612,614,616,618,621,621,621,621,621,621,621,621,621,621,622,622,622,622,622,622,622,622,622,622,622,622,620,610,588,570,547,487,455,421,392,363,315,288,274,264,254,237,232,229,227,226,223,219,210,204,196,180,175,171,167,163,160,148,144,140,137,131,129,126,123,119,113,106,100,95],"timestamp_mouse":[17,36,57,77,97,117,137,156,177,197,215,237,255,277,296,317,336,357,376,396,416,436,456,476,496,517,535,555,576,597,617,637,656,677,695,716,736,756,776,796,817,836,856,876,895,917,936,956,975,996,1016,1035,1056,1077,1097,1116,1135,1157,1177,1196,1216,1235,1257,1276,1295,1316,1337,1357,1376,1396,1416,1437,1456,1477,1496,1516,1536,1556,1576,1596,1616,1636,1656,1676,1696,1716,1736,1755,1776,1796,1816,1837,1856,1876,1897,1917,1936,1957,1976,1996,2016,2036,2055,2076,2096,2116,2136,2155,2176,2196,2217,2236,2256,2276,2296,2317],"xSR":741.5,"ySR":573.95,"xT1":424.9,"yT1":0,"xT2":1058.1,"yT2":0,"toosoon":0,"cond_shown":"Incongruent","ratio_trial":100,"L_num":6,"L_den":12,"R_num":3,"R_den":5,"correct_side":2,"subjID":"SarahSofhiaLaiton27","gender":"1","school":"4","age":"9"},{"start_time":1552327697111,"click_time":1552327701470,"finger_time":1552327697170,"fix_duration":518.4634850296787,"trial":19,"RT":59,"MT":4300,"sideResp":2,"stimulus":[],"xmouse":[788,788,788,788,788,788,788,788,788,788,788,789,789,789,789,789,789,789,789,789,789,789,789,789,789,789,789,789,789,789,789,789,789,789,789,789,789,789,789,789,789,789,789,789,789,789,789,789,789,789,789,789,789,789,789,789,789,790,790,791,793,794,796,798,800,801,801,801,801,801,801,801,801,801,801,801,801,801,801,801,801,801,801,801,801,801,801,801,800,796,796,795,794,793,790,789,788,786,784,783,782,782,781,780,773,760,754,740,734,730,730,730,730,730,730,729,728,727,726,726,726,726,726,727,732,747,780,796,806,820,822,822,822,822,820,815,811,806,805,803,802,802,802,802,802,802,805,805,805,805,805,805,805,805,805,805,805,805,805,805,805,805,805,805,805,805,805,805,805,805,805,805,805,805,805,805,805,805,805,805,805,805,804,806,818,822,831,839,847,868,877,888,902,914,946,970,985,1001,1014,1032,1036,1038,1041,1041,1041,1043,1045,1047,1050,1053,1054,1054,1055,1057,1067,1072,1076,1083,1090],"ymouse":[578,577,577,573,571,570,569,568,568,566,565,564,564,564,564,564,564,564,564,564,564,564,564,564,564,563,563,562,562,562,562,562,562,562,562,562,562,562,562,562,562,562,562,562,562,562,562,562,562,562,562,562,562,562,561,559,559,558,557,556,555,554,551,548,545,544,543,543,543,543,543,543,543,543,543,543,543,543,543,543,543,543,543,543,543,543,543,543,543,546,546,547,548,549,551,553,554,557,561,562,563,563,564,565,569,574,577,585,590,591,591,591,591,591,591,587,581,577,575,575,575,585,594,597,596,592,590,590,590,590,590,590,590,589,583,578,574,570,570,570,571,575,580,585,597,603,608,610,611,613,614,614,614,615,615,615,615,615,615,615,615,615,615,616,616,616,616,616,616,616,616,616,616,616,616,616,616,616,616,616,616,616,613,607,563,552,520,498,474,423,401,381,357,335,280,247,227,209,191,167,161,157,154,153,150,144,139,133,128,121,121,120,119,116,112,110,107,102,97],"timestamp_mouse":[1,37,40,59,78,99,119,139,159,178,198,219,240,259,280,299,320,340,359,378,399,419,439,460,480,499,519,538,559,580,599,619,639,660,679,698,719,739,760,780,799,820,839,859,879,900,920,940,960,980,999,1019,1039,1059,1079,1099,1119,1139,1159,1179,1200,1219,1239,1260,1279,1299,1319,1339,1360,1380,1400,1420,1440,1460,1479,1499,1518,1538,1560,1580,1600,1620,1640,1660,1679,1699,1719,1738,1760,1779,1800,1820,1839,1860,1878,1900,1919,1939,1959,1979,1999,2020,2039,2059,2078,2099,2118,2139,2160,2179,2200,2220,2239,2259,2279,2299,2318,2339,2360,2380,2399,2420,2439,2460,2478,2499,2518,2538,2558,2579,2600,2618,2640,2659,2679,2700,2719,2738,2759,2779,2799,2819,2839,2860,2879,2900,2919,2940,2959,2979,2999,3019,3039,3059,3080,3100,3119,3140,3160,3178,3199,3220,3238,3259,3279,3299,3320,3339,3359,3380,3400,3420,3440,3459,3478,3498,3520,3539,3559,3578,3600,3620,3639,3659,3680,3699,3718,3739,3759,3779,3799,3819,3839,3860,3878,3899,3919,3938,3959,3979,3999,4020,4039,4059,4079,4099,4119,4139,4159,4179,4199,4220,4239,4259,4281,4299,4319,4339,4359],"xSR":741.5,"ySR":573.95,"xT1":424.9,"yT1":0,"xT2":1058.1,"yT2":0,"toosoon":0,"cond_shown":"Congruent","ratio_trial":300,"L_num":1,"L_den":5,"R_num":11,"R_den":22,"correct_side":2,"subjID":"SarahSofhiaLaiton27","gender":"1","school":"4","age":"9"},{"start_time":1552327704737,"click_time":1552327708290,"finger_time":1552327706629,"fix_duration":1286.4621650693055,"trial":20,"RT":1892,"MT":1661,"sideResp":2,"stimulus":[],"xmouse":[775,775,775,775,775,775,775,775,775,775,775,775,775,775,775,775,775,775,775,775,775,775,775,775,775,775,775,775,775,775,775,775,775,775,775,775,775,775,775,775,775,775,775,775,775,775,775,775,775,775,775,775,775,775,775,775,775,775,775,775,775,775,775,775,775,775,775,775,775,775,775,775,775,775,775,775,775,775,775,775,775,775,775,775,775,775,775,775,775,775,775,776,788,802,814,825,838,867,881,899,914,930,962,969,976,983,990,1005,1012,1018,1025,1032,1041,1043,1044,1044,1045,1045,1046,1047,1047,1047,1047,1047,1048,1051,1053,1061,1062,1064,1065,1066,1068,1068,1068,1068,1069,1070,1071,1072,1072,1073,1075,1075,1075,1075,1075,1075,1075,1075,1075,1075,1075,1075,1075,1075,1075,1075,1075,1075,1075,1075,1075,1075,1075,1075,1075,1075,1075,1075,1075,1075,1075,1075,1077,1079,1079,1081],"ymouse":[616,616,616,616,616,616,616,616,616,616,616,616,616,616,616,616,616,616,616,616,616,616,616,616,616,616,616,616,616,616,616,616,616,616,616,616,616,616,616,616,616,616,616,616,616,616,616,616,616,616,616,616,616,616,616,616,616,616,616,616,616,616,616,616,616,616,616,616,616,616,616,616,616,616,616,616,616,616,616,616,616,616,616,616,616,616,616,616,616,616,616,613,596,577,560,545,525,479,456,431,408,390,340,323,310,299,290,272,263,254,241,229,213,209,207,206,205,204,200,199,197,195,190,186,180,175,167,153,147,144,141,141,138,136,136,135,134,129,126,123,121,119,114,114,114,114,114,113,113,113,113,113,113,113,113,113,113,113,113,113,113,113,113,113,113,113,113,113,113,113,113,113,113,112,105,102,101,98],"timestamp_mouse":[14,36,53,74,94,113,133,154,174,194,214,232,254,273,292,314,334,352,372,392,413,432,453,473,492,512,533,553,573,593,613,634,652,674,694,714,732,754,774,793,813,833,853,874,894,913,933,954,973,994,1013,1034,1054,1074,1092,1113,1133,1153,1174,1193,1213,1232,1254,1273,1294,1313,1333,1354,1374,1392,1413,1433,1454,1474,1493,1514,1532,1554,1573,1594,1612,1634,1653,1674,1693,1712,1734,1754,1773,1794,1813,1834,1853,1873,1892,1913,1932,1953,1973,1993,2013,2032,2053,2073,2093,2113,2133,2153,2173,2193,2213,2233,2253,2273,2293,2313,2333,2353,2374,2393,2413,2433,2452,2474,2493,2514,2533,2552,2573,2592,2613,2633,2653,2672,2694,2713,2734,2753,2772,2792,2813,2833,2853,2873,2893,2912,2932,2953,2973,2994,3013,3034,3053,3074,3092,3114,3134,3154,3174,3193,3214,3232,3253,3274,3294,3314,3332,3354,3373,3392,3412,3433,3453,3473,3492,3514,3532,3553],"xSR":741.5,"ySR":573.95,"xT1":424.9,"yT1":0,"xT2":1058.1,"yT2":0,"toosoon":0,"cond_shown":"Incongruent","ratio_trial":300,"L_num":2,"L_den":4,"R_num":6,"R_den":30,"correct_side":1,"subjID":"SarahSofhiaLaiton27","gender":"1","school":"4","age":"9"},{"start_time":1552327713063,"click_time":1552327716631,"finger_time":1552327714771,"fix_duration":250,"trial":21,"RT":1708,"MT":1860,"sideResp":2,"stimulus":[],"xmouse":[791,791,791,791,791,791,791,791,791,791,791,791,791,791,791,791,791,791,791,791,791,790,790,790,790,790,790,790,790,790,790,790,790,790,789,788,788,788,788,788,788,788,788,788,788,788,788,788,788,788,788,788,788,788,788,788,788,788,788,788,788,788,788,788,788,788,788,788,788,788,788,788,788,788,788,788,788,788,788,788,788,788,788,787,791,809,882,925,982,1010,1028,1046,1053,1058,1064,1068,1083,1086,1087,1088,1088,1088,1088,1088,1088,1088,1088,1088,1081,1074,1067,1049,1042,1032,1023,1009,968,948,922,907,889,841,813,792,777,768,748,728,716,704,698,678,665,653,641,623,586,569,553,548,547,546,547,560,578,599,648,680,756,818,896,1041,1099,1147,1169,1177,1179,1177,1167,1145,1096,873,697,497,321,167,0,0,0,0,5,50,113,221,376,546,904,1020,1066],"ymouse":[610,610,610,610,610,610,610,610,610,610,610,610,610,610,610,610,610,610,610,610,610,610,609,608,608,608,608,608,608,608,608,608,608,608,607,607,607,607,607,607,607,607,607,607,607,607,607,607,607,607,607,607,607,607,607,607,607,607,607,607,607,607,607,607,607,607,607,607,607,607,607,607,607,607,607,607,607,607,607,607,607,607,607,602,595,571,467,407,330,293,268,235,222,212,198,189,155,148,144,144,144,144,144,144,144,144,144,149,164,179,192,220,230,242,251,261,280,286,292,293,293,293,293,293,293,291,283,275,269,265,261,252,247,239,230,218,200,193,184,180,179,176,173,167,162,159,158,161,173,181,186,188,178,170,163,159,157,156,154,150,147,159,187,221,250,273,295,296,296,296,297,299,299,283,253,207,109,76,60],"timestamp_mouse":[12,41,47,67,88,106,128,147,167,188,207,228,248,268,287,307,326,346,368,388,407,427,447,466,488,506,528,548,566,587,607,627,646,667,687,707,727,746,768,786,808,828,847,866,888,907,927,946,967,987,1007,1027,1047,1068,1086,1106,1128,1148,1168,1187,1206,1228,1248,1268,1286,1307,1327,1348,1367,1387,1408,1428,1448,1467,1486,1508,1527,1548,1567,1586,1606,1628,1648,1667,1687,1708,1727,1747,1767,1786,1806,1827,1847,1867,1887,1907,1928,1946,1967,1988,2007,2027,2047,2067,2086,2107,2127,2147,2167,2187,2207,2226,2247,2267,2287,2308,2327,2347,2367,2388,2407,2427,2447,2467,2488,2508,2526,2546,2567,2587,2607,2627,2647,2667,2687,2708,2727,2747,2767,2787,2807,2827,2847,2867,2887,2906,2927,2948,2967,2988,3007,3027,3047,3067,3087,3108,3126,3148,3167,3187,3206,3227,3247,3267,3287,3306,3327,3347,3368,3387,3407,3427,3447,3467,3487,3507,3527,3548,3568],"xSR":741.5,"ySR":573.95,"xT1":424.9,"yT1":0,"xT2":1058.1,"yT2":0,"toosoon":0,"cond_shown":"Incongruent","ratio_trial":200,"L_num":9,"L_den":15,"R_num":8,"R_den":10,"correct_side":2,"subjID":"SarahSofhiaLaiton27","gender":"1","school":"4","age":"9"},{"start_time":1552327719761,"click_time":1552327721151,"finger_time":1552327720110,"fix_duration":250,"trial":22,"RT":349,"MT":1041,"sideResp":1,"stimulus":[],"xmouse":[815,815,815,815,815,815,815,815,815,815,815,815,815,814,812,809,807,805,801,795,790,783,781,778,776,772,768,768,768,768,768,768,768,768,767,765,755,746,732,714,695,660,643,640,631,622,606,601,597,595,595,595,594,592,584,573,553,549,547,546,544,543,543,543,543,541,538,534,528,517],"ymouse":[624,624,624,624,624,623,623,623,623,623,623,623,623,622,616,606,581,566,549,538,531,521,518,514,510,508,506,506,506,506,506,506,506,506,506,506,503,501,497,490,481,427,388,377,341,314,240,209,182,168,162,156,152,148,134,121,103,100,99,98,96,94,94,94,93,90,83,79,74,65],"timestamp_mouse":[8,28,49,70,88,109,129,149,169,188,210,228,249,269,289,309,329,349,369,389,408,429,450,469,490,510,529,550,569,590,610,630,649,669,689,710,729,749,770,789,809,828,849,869,889,910,929,949,969,990,1010,1029,1049,1069,1089,1109,1129,1149,1169,1189,1208,1228,1249,1269,1290,1309,1329,1348,1369,1389],"xSR":741.5,"ySR":573.95,"xT1":424.9,"yT1":0,"xT2":1058.1,"yT2":0,"toosoon":0,"cond_shown":"Incongruent","ratio_trial":300,"L_num":3,"L_den":6,"R_num":4,"R_den":20,"correct_side":1,"subjID":"SarahSofhiaLaiton27","gender":"1","school":"4","age":"9"},{"start_time":1552327723018,"click_time":1552327724851,"finger_time":1552327724450,"fix_duration":287.34097777455725,"trial":23,"RT":1432,"MT":401,"sideResp":1,"stimulus":[],"xmouse":[774,774,774,774,774,774,774,774,774,774,774,774,774,774,774,774,774,774,774,774,774,774,774,774,774,774,774,774,774,774,774,774,774,774,774,774,774,774,774,774,774,774,774,774,774,774,774,774,774,774,774,774,774,774,774,774,774,774,774,774,774,774,774,774,774,774,774,774,774,767,760,734,712,668,644,625,611,598,576,567,559,556,553,549,546,544,539,528,507,491,479,466],"ymouse":[618,618,618,620,620,620,620,620,620,620,620,620,620,620,620,620,620,620,620,620,620,620,620,620,620,620,620,620,620,620,620,620,620,620,620,620,620,620,620,620,620,620,620,620,620,620,620,620,620,620,620,620,620,620,620,620,620,620,620,620,620,620,620,620,620,620,620,620,620,616,614,602,590,560,541,523,505,485,445,425,395,375,357,327,304,280,252,215,157,126,105,84],"timestamp_mouse":[13,38,52,72,93,112,133,153,172,193,213,233,252,273,293,312,333,353,372,393,411,433,452,472,491,513,533,553,572,593,613,633,653,672,693,713,733,752,772,793,812,832,853,872,891,913,931,953,973,991,1011,1033,1052,1072,1093,1112,1132,1153,1172,1193,1213,1232,1251,1273,1293,1312,1332,1352,1372,1393,1412,1432,1453,1473,1492,1512,1532,1552,1572,1592,1612,1633,1652,1672,1692,1712,1732,1753,1772,1791,1812,1833],"xSR":741.5,"ySR":573.95,"xT1":424.9,"yT1":0,"xT2":1058.1,"yT2":0,"toosoon":0,"cond_shown":"Congruent","ratio_trial":300,"L_num":4,"L_den":5,"R_num":2,"R_den":4,"correct_side":1,"subjID":"SarahSofhiaLaiton27","gender":"1","school":"4","age":"9"},{"start_time":1552327733937,"click_time":1552327735130,"finger_time":1552327734851,"fix_duration":444.68995443505474,"trial":24,"RT":914,"MT":279,"sideResp":2,"stimulus":[],"xmouse":[776,776,776,776,776,776,776,776,776,776,776,776,776,776,776,776,776,776,776,776,776,776,776,776,776,776,776,776,776,776,776,776,776,776,776,776,776,776,776,776,776,778,787,793,800,808,813,852,897,952,1009,1046,1075,1083,1093,1095,1097,1097,1095,1092],"ymouse":[604,604,604,604,604,604,604,604,604,604,604,604,604,604,604,604,604,604,605,605,605,605,605,605,605,605,605,605,605,605,605,605,605,605,605,605,605,605,605,605,605,605,596,586,574,559,547,495,449,396,340,297,248,229,207,193,175,133,109,90],"timestamp_mouse":[15,38,52,73,92,113,133,152,173,194,214,233,253,274,294,314,333,354,373,392,414,433,453,473,494,514,532,554,574,594,614,634,654,673,694,713,734,754,772,794,813,834,853,874,894,914,933,953,972,994,1012,1033,1053,1073,1093,1114,1133,1152,1173,1193],"xSR":741.5,"ySR":573.95,"xT1":424.9,"yT1":0,"xT2":1058.1,"yT2":0,"toosoon":0,"cond_shown":"Congruent","ratio_trial":200,"L_num":3,"L_den":12,"R_num":9,"R_den":20,"correct_side":2,"subjID":"SarahSofhiaLaiton27","gender":"1","school":"4","age":"9"},{"start_time":1552327740381,"click_time":1552327742011,"finger_time":1552327741590,"fix_duration":1327.4006715962526,"trial":25,"RT":1209,"MT":421,"sideResp":1,"stimulus":[],"xmouse":[789,789,789,789,789,789,789,789,789,789,789,789,789,789,789,790,790,790,790,790,790,790,790,790,790,790,790,790,790,790,790,790,790,790,790,790,790,790,790,790,790,790,790,790,789,789,788,787,786,784,782,779,774,773,772,771,770,767,764,747,727,712,693,674,643,634,630,623,615,594,576,550,538,533,532,532,531,530,530,528,517],"ymouse":[621,621,621,621,621,621,621,621,621,621,621,621,621,621,621,621,621,621,620,620,620,620,620,620,620,620,620,620,620,620,620,620,620,620,620,620,620,620,620,620,620,620,620,620,620,620,619,619,619,619,618,617,615,615,614,614,613,609,597,556,507,472,434,393,303,273,246,204,144,28,0,0,0,0,0,0,0,0,0,0,11],"timestamp_mouse":[34,49,69,90,109,130,149,170,190,210,229,250,269,289,310,329,350,370,389,409,430,450,470,488,509,529,549,569,589,610,630,649,669,689,709,730,749,769,789,809,830,848,868,890,910,929,950,969,989,1009,1030,1050,1068,1089,1109,1129,1148,1170,1190,1209,1229,1249,1270,1289,1309,1329,1349,1369,1390,1409,1429,1449,1469,1489,1510,1528,1549,1570,1589,1609,1630],"xSR":741.5,"ySR":573.95,"xT1":424.9,"yT1":0,"xT2":1058.1,"yT2":0,"toosoon":0,"cond_shown":"Congruent","ratio_trial":200,"L_num":6,"L_den":12,"R_num":7,"R_den":10,"correct_side":2,"subjID":"SarahSofhiaLaiton27","gender":"1","school":"4","age":"9"},{"start_time":1552327744595,"click_time":1552327746331,"finger_time":1552327745969,"fix_duration":722.7006234848358,"trial":26,"RT":1374,"MT":362,"sideResp":1,"stimulus":[],"xmouse":[782,782,782,782,781,781,781,781,781,781,781,781,781,781,781,781,781,781,781,781,781,781,781,781,781,781,781,781,781,781,781,781,781,781,781,781,781,781,781,781,781,781,781,781,781,781,781,781,781,781,781,781,781,781,781,781,781,781,781,781,781,781,780,780,778,775,770,760,748,709,678,655,630,620,607,599,591,586,576,555,541,526,522,521,521,519,516],"ymouse":[619,619,619,619,618,617,616,616,616,616,616,616,616,616,616,616,616,616,616,616,616,616,616,616,616,616,616,616,616,616,616,616,616,616,616,616,616,616,616,616,616,616,616,616,616,616,616,616,616,616,616,615,615,615,615,615,614,613,613,613,613,613,612,611,608,603,597,585,567,478,397,311,224,191,138,112,88,65,43,0,0,0,0,0,0,0,1],"timestamp_mouse":[16,40,55,74,96,115,135,155,175,195,215,236,255,275,296,316,334,355,375,395,415,435,456,476,494,516,536,556,576,595,614,635,656,675,694,716,736,755,775,796,815,836,856,876,895,914,936,956,976,995,1016,1035,1054,1075,1096,1115,1136,1155,1175,1196,1215,1235,1256,1275,1295,1315,1336,1355,1374,1395,1415,1436,1456,1475,1494,1514,1536,1555,1574,1596,1616,1635,1655,1676,1695,1716,1736],"xSR":741.5,"ySR":573.95,"xT1":424.9,"yT1":0,"xT2":1058.1,"yT2":0,"toosoon":0,"cond_shown":"Incongruent","ratio_trial":200,"L_num":7,"L_den":15,"R_num":4,"R_den":6,"correct_side":2,"subjID":"SarahSofhiaLaiton27","gender":"1","school":"4","age":"9"},{"start_time":1552327748688,"click_time":1552327749930,"finger_time":1552327749471,"fix_duration":636.5675852648941,"trial":27,"RT":783,"MT":459,"sideResp":2,"stimulus":[],"xmouse":[795,795,794,792,792,792,791,791,791,791,790,788,788,787,786,785,785,785,785,785,785,785,785,785,785,785,784,784,784,784,784,784,784,784,784,784,787,791,800,803,816,827,843,868,895,939,953,960,962,963,964,964,968,975,980,994,1005,1019,1044,1059,1080,1092,1104],"ymouse":[614,614,614,614,614,614,614,613,613,613,613,613,612,611,611,611,611,611,610,610,610,610,610,610,610,610,610,610,610,610,610,610,610,610,610,608,602,593,579,570,530,489,442,395,354,310,298,289,284,279,256,241,227,218,211,196,186,175,153,140,120,108,92],"timestamp_mouse":[13,32,42,61,82,103,121,142,162,182,202,222,242,262,283,301,323,343,362,382,402,421,442,462,482,502,522,542,563,582,602,622,642,663,682,702,722,741,762,783,802,822,842,862,883,902,923,943,963,982,1002,1022,1043,1062,1082,1102,1122,1142,1162,1182,1202,1222,1242],"xSR":741.5,"ySR":573.95,"xT1":424.9,"yT1":0,"xT2":1058.1,"yT2":0,"toosoon":0,"cond_shown":"Congruent","ratio_trial":100,"L_num":7,"L_den":14,"R_num":9,"R_den":15,"correct_side":2,"subjID":"SarahSofhiaLaiton27","gender":"1","school":"4","age":"9"},{"start_time":1552327751223,"click_time":1552327752790,"finger_time":1552327752390,"fix_duration":250,"trial":28,"RT":1167,"MT":400,"sideResp":1,"stimulus":[],"xmouse":[792,792,792,792,792,792,792,792,791,791,791,791,791,789,789,788,788,788,788,788,788,788,788,788,787,787,787,787,787,787,787,787,787,787,787,787,787,787,787,787,787,787,787,787,787,787,787,787,787,787,787,787,787,786,785,781,772,756,691,653,622,618,620,628,628,628,628,628,628,628,628,627,624,609,599,585,565,541,494],"ymouse":[614,614,614,614,614,614,614,614,615,615,615,615,615,615,615,615,615,615,615,615,615,615,615,614,614,613,613,613,613,613,613,613,613,612,612,611,611,611,611,611,611,611,611,611,611,610,610,610,610,610,610,610,610,609,608,603,596,582,532,495,445,416,392,343,317,289,260,235,183,166,145,134,127,104,93,81,70,60,49],"timestamp_mouse":[12,34,47,67,87,107,128,147,167,186,207,226,247,267,287,307,328,347,366,388,408,428,447,467,487,508,528,546,567,588,608,626,647,668,687,706,727,748,768,788,808,828,848,868,886,907,928,946,966,988,1007,1028,1048,1067,1087,1107,1127,1148,1167,1187,1207,1227,1248,1267,1287,1308,1327,1347,1367,1387,1407,1428,1447,1467,1486,1507,1527,1547,1567],"xSR":741.5,"ySR":573.95,"xT1":424.9,"yT1":0,"xT2":1058.1,"yT2":0,"toosoon":0,"cond_shown":"Incongruent","ratio_trial":300,"L_num":4,"L_den":20,"R_num":2,"R_den":4,"correct_side":2,"subjID":"SarahSofhiaLaiton27","gender":"1","school":"4","age":"9"},{"start_time":1552327754958,"click_time":1552327756411,"finger_time":1552327755990,"fix_duration":1167.82802023238,"trial":29,"RT":1032,"MT":421,"sideResp":2,"stimulus":[],"xmouse":[765,765,765,765,765,765,764,764,764,764,764,764,764,764,764,764,764,764,764,764,764,764,765,765,765,766,767,768,768,769,771,775,777,779,779,779,779,780,780,780,780,780,781,783,785,788,801,808,817,825,838,884,919,960,976,985,991,991,991,993,993,1000,1012,1014,1018,1019,1019,1021,1025,1032,1039,1057,1066],"ymouse":[628,628,628,628,628,628,627,627,627,627,627,627,627,627,627,627,627,627,627,627,626,626,626,626,626,626,626,626,626,626,626,626,626,626,626,626,626,626,626,625,625,625,625,624,623,622,617,614,610,607,599,561,511,433,388,346,269,236,205,176,155,112,89,84,77,76,74,73,72,72,72,74,77],"timestamp_mouse":[13,39,53,73,91,112,132,152,172,193,212,233,253,272,293,313,331,353,372,392,412,432,451,471,493,512,533,551,572,592,613,632,653,672,692,712,733,751,771,793,813,832,851,872,893,912,931,952,973,992,1013,1032,1052,1073,1093,1112,1132,1152,1173,1191,1213,1232,1252,1272,1292,1312,1332,1352,1372,1393,1412,1431,1453],"xSR":741.5,"ySR":573.95,"xT1":424.9,"yT1":0,"xT2":1058.1,"yT2":0,"toosoon":0,"cond_shown":"Congruent","ratio_trial":300,"L_num":1,"L_den":5,"R_num":6,"R_den":12,"correct_side":2,"subjID":"SarahSofhiaLaiton27","gender":"1","school":"4","age":"9"},{"start_time":1552327758702,"click_time":1552327760790,"finger_time":1552327759350,"fix_duration":1191.0504712421364,"trial":30,"RT":648,"MT":1440,"sideResp":2,"stimulus":[],"xmouse":[791,791,791,791,791,791,791,791,791,791,791,791,791,791,791,791,791,791,791,791,791,791,791,791,791,791,791,790,790,790,790,790,789,789,789,789,789,789,789,789,789,789,789,789,789,789,789,789,789,788,788,788,788,788,787,786,786,783,777,752,725,691,668,652,640,638,637,632,629,621,621,621,621,621,621,621,621,621,627,640,647,659,670,687,722,742,779,835,891,1041,1095,1121,1138,1146,1152,1158,1161,1165,1167,1167,1167,1167,1165,1163,1158],"ymouse":[577,577,577,577,577,577,577,577,577,577,577,577,577,577,577,577,577,577,577,577,577,577,577,577,577,577,577,575,575,574,574,574,573,573,572,572,572,571,571,571,571,571,571,570,570,569,569,569,568,567,566,566,565,565,564,562,560,555,546,497,449,393,346,317,289,285,280,270,262,247,245,245,245,245,245,245,245,244,249,260,266,273,277,281,285,285,275,254,230,172,157,149,143,136,123,116,110,105,101,96,92,89,86,84,82],"timestamp_mouse":[13,36,48,69,88,108,128,149,169,189,208,228,249,269,289,309,327,349,368,388,408,428,449,469,487,508,528,548,567,587,608,628,648,668,688,709,729,749,768,789,809,828,848,869,888,909,928,948,968,989,1009,1028,1047,1068,1088,1108,1129,1149,1168,1188,1208,1228,1249,1268,1288,1309,1328,1348,1368,1388,1407,1428,1448,1468,1488,1507,1527,1549,1569,1587,1608,1628,1649,1668,1687,1708,1728,1748,1768,1787,1807,1828,1848,1867,1888,1907,1928,1949,1969,1988,2008,2028,2048,2068,2088],"xSR":741.5,"ySR":573.95,"xT1":424.9,"yT1":0,"xT2":1058.1,"yT2":0,"toosoon":0,"cond_shown":"Incongruent","ratio_trial":300,"L_num":4,"L_den":20,"R_num":2,"R_den":4,"correct_side":2,"subjID":"SarahSofhiaLaiton27","gender":"1","school":"4","age":"9"},{"start_time":1552327762043,"click_time":1552327763990,"finger_time":1552327763811,"fix_duration":250,"trial":31,"RT":1768,"MT":179,"sideResp":2,"stimulus":[],"xmouse":[794,794,794,794,794,794,794,794,794,794,794,794,794,794,794,794,794,794,794,794,794,794,794,794,794,794,794,794,794,794,794,794,794,794,794,794,794,794,794,794,794,794,794,794,794,794,794,794,794,794,794,794,794,794,795,795,795,796,796,796,796,796,796,797,799,799,800,800,800,800,800,800,800,800,800,800,800,800,800,800,800,800,800,800,801,803,805,815,825,840,879,918,988,1016,1037,1048,1054,1061],"ymouse":[608,608,608,608,608,608,608,608,608,608,608,608,608,608,608,608,608,608,608,608,608,608,608,608,608,608,608,608,608,608,608,608,608,608,608,608,608,608,608,608,608,608,608,608,608,608,608,608,608,608,608,608,608,608,608,608,608,607,607,607,607,607,607,607,606,606,605,605,604,604,604,604,603,603,603,603,603,603,603,603,603,603,603,603,601,598,596,585,572,552,482,408,239,174,126,105,92,79],"timestamp_mouse":[13,28,47,67,87,108,128,147,168,187,207,228,247,266,288,308,326,346,368,388,406,427,448,467,487,507,528,547,566,588,607,627,647,668,688,708,727,746,768,786,806,828,847,868,887,907,926,948,968,988,1008,1027,1048,1067,1087,1107,1127,1146,1168,1188,1207,1226,1248,1267,1287,1307,1328,1347,1367,1387,1407,1427,1448,1468,1488,1508,1527,1547,1567,1587,1607,1626,1648,1668,1687,1707,1728,1747,1768,1787,1807,1827,1847,1867,1887,1907,1927,1947],"xSR":741.5,"ySR":573.95,"xT1":424.9,"yT1":0,"xT2":1058.1,"yT2":0,"toosoon":0,"cond_shown":"Incongruent","ratio_trial":100,"L_num":9,"L_den":15,"R_num":13,"R_den":26,"correct_side":1,"subjID":"SarahSofhiaLaiton27","gender":"1","school":"4","age":"9"},{"start_time":1552327767100,"click_time":1552327768390,"finger_time":1552327767970,"fix_duration":267.48083609771277,"trial":32,"RT":870,"MT":420,"sideResp":1,"stimulus":[],"xmouse":[788,788,788,788,788,788,788,788,788,788,788,788,788,788,788,788,788,788,788,788,788,788,788,788,788,788,788,788,788,788,788,788,788,788,788,788,788,785,781,770,766,760,752,745,716,700,685,680,673,653,642,624,613,603,581,572,565,557,553,544,540,535,530,528,520],"ymouse":[592,592,592,592,592,592,592,592,592,592,592,592,592,592,592,592,592,592,592,592,592,592,592,592,592,592,592,592,592,592,592,592,592,592,592,592,592,592,592,589,587,583,574,557,479,427,374,351,330,270,224,184,159,137,105,92,82,74,69,63,61,59,57,56,53],"timestamp_mouse":[11,30,51,70,90,111,130,151,170,190,211,231,250,270,291,310,331,350,370,391,410,430,451,470,491,510,531,549,571,590,611,630,651,670,690,711,730,751,770,791,810,830,850,870,889,911,931,950,970,990,1010,1030,1049,1071,1089,1109,1129,1150,1171,1190,1210,1230,1249,1269,1289],"xSR":741.5,"ySR":573.95,"xT1":424.9,"yT1":0,"xT2":1058.1,"yT2":0,"toosoon":0,"cond_shown":"Congruent","ratio_trial":300,"L_num":11,"L_den":22,"R_num":4,"R_den":20,"correct_side":1,"subjID":"SarahSofhiaLaiton27","gender":"1","school":"4","age":"9"},{"start_time":1552327769661,"click_time":1552327771051,"finger_time":1552327770471,"fix_duration":250,"trial":33,"RT":810,"MT":580,"sideResp":2,"stimulus":[],"xmouse":[783,783,783,783,783,783,783,783,783,783,783,783,783,783,783,783,783,783,783,783,783,783,783,783,783,783,783,783,783,783,783,783,783,783,783,786,793,799,807,819,835,850,855,863,869,876,894,899,910,919,929,955,976,998,1014,1029,1059,1075,1098,1111,1121,1135,1137,1139,1141,1142,1136,1128,1120,1109],"ymouse":[632,632,632,632,632,632,632,632,632,632,632,632,632,632,632,632,632,632,632,632,632,632,632,632,632,632,632,632,632,632,632,632,632,631,630,627,621,614,599,583,565,547,539,527,512,494,450,431,400,383,366,335,310,289,275,263,229,208,183,173,169,164,162,160,154,144,124,114,106,95],"timestamp_mouse":[19,44,49,69,89,110,129,149,168,189,209,230,249,269,289,309,328,349,369,390,409,429,449,469,490,510,530,548,570,590,609,630,649,670,689,708,729,750,770,789,810,829,848,870,890,909,929,950,969,989,1009,1028,1050,1069,1089,1110,1129,1150,1169,1189,1209,1230,1249,1270,1290,1309,1328,1349,1369,1390],"xSR":741.5,"ySR":573.95,"xT1":424.9,"yT1":0,"xT2":1058.1,"yT2":0,"toosoon":0,"cond_shown":"Incongruent","ratio_trial":200,"L_num":9,"L_den":15,"R_num":8,"R_den":10,"correct_side":2,"subjID":"SarahSofhiaLaiton27","gender":"1","school":"4","age":"9"},{"start_time":1552327772442,"click_time":1552327773730,"finger_time":1552327773390,"fix_duration":250,"trial":34,"RT":948,"MT":340,"sideResp":1,"stimulus":[],"xmouse":[782,779,777,768,763,761,761,761,761,761,761,761,761,761,761,761,761,761,761,761,761,761,761,761,761,761,761,761,761,761,761,761,761,761,761,761,761,761,761,761,761,761,759,759,756,753,744,721,702,682,667,650,640,635,626,611,591,550,527,511,496,494,493,491,488],"ymouse":[646,642,640,634,631,629,629,629,629,629,629,629,629,629,629,629,629,629,629,629,629,629,629,629,629,629,629,629,629,629,629,629,629,629,629,629,629,629,629,629,629,629,629,629,627,627,617,543,487,455,437,423,410,399,377,347,314,264,242,223,193,176,132,112,98],"timestamp_mouse":[9,29,52,68,88,108,127,148,169,189,208,228,248,269,288,307,328,347,369,388,409,429,448,469,487,508,529,548,568,589,607,627,649,668,688,708,729,749,768,787,809,829,848,868,889,909,928,948,968,989,1009,1028,1049,1068,1088,1109,1129,1148,1168,1188,1207,1229,1248,1268,1288],"xSR":741.5,"ySR":573.95,"xT1":424.9,"yT1":0,"xT2":1058.1,"yT2":0,"toosoon":0,"cond_shown":"Congruent","ratio_trial":300,"L_num":4,"L_den":10,"R_num":1,"R_den":10,"correct_side":1,"subjID":"SarahSofhiaLaiton27","gender":"1","school":"4","age":"9"},{"start_time":1552327776622,"click_time":1552327777790,"finger_time":1552327777310,"fix_duration":390.4497088574432,"trial":35,"RT":688,"MT":480,"sideResp":1,"stimulus":[],"xmouse":[785,785,785,785,785,785,785,785,785,785,785,785,785,785,785,785,785,785,785,785,785,785,785,785,785,785,785,785,785,785,785,785,785,778,766,740,708,644,626,616,611,609,606,600,595,590,584,574,570,567,566,565,563,560,557,551,543,534,520],"ymouse":[585,585,585,585,585,585,585,585,585,585,585,585,585,585,585,585,585,585,585,585,585,585,585,585,585,585,585,585,585,585,585,585,585,581,557,504,441,332,300,281,269,258,251,226,211,197,187,162,152,146,142,140,138,131,123,111,101,91,79],"timestamp_mouse":[13,38,48,68,89,108,128,149,168,188,209,228,249,269,288,309,328,347,369,388,408,429,448,468,488,507,529,547,569,589,608,628,648,668,688,708,728,749,769,788,808,828,849,868,889,909,928,949,967,988,1008,1028,1049,1069,1089,1108,1128,1148,1167],"xSR":741.5,"ySR":573.95,"xT1":424.9,"yT1":0,"xT2":1058.1,"yT2":0,"toosoon":0,"cond_shown":"Congruent","ratio_trial":300,"L_num":20,"L_den":25,"R_num":5,"R_den":10,"correct_side":1,"subjID":"SarahSofhiaLaiton27","gender":"1","school":"4","age":"9"},{"start_time":1552327779536,"click_time":1552327781291,"finger_time":1552327780951,"fix_duration":764.3624394809638,"trial":36,"RT":1415,"MT":340,"sideResp":1,"stimulus":[],"xmouse":[760,760,760,760,760,760,760,760,760,760,760,760,760,760,760,760,760,760,760,760,760,760,760,760,760,760,760,760,760,760,760,760,760,760,760,760,760,760,760,760,763,766,774,777,779,782,787,794,798,801,801,802,802,802,802,802,802,802,802,802,802,802,802,802,802,802,802,803,798,790,782,770,734,713,686,662,654,650,648,637,620,601,568,558,549,542,534,524],"ymouse":[626,626,626,626,626,626,626,626,626,626,626,626,626,626,626,626,626,626,626,626,626,626,626,626,626,626,626,626,626,626,626,626,626,626,626,626,626,626,626,626,626,625,621,620,619,617,612,606,604,603,603,603,603,603,603,603,603,603,603,603,603,603,603,603,603,603,603,599,588,575,557,528,403,328,261,179,137,37,0,0,0,0,0,0,1,6,13,22],"timestamp_mouse":[14,38,53,74,94,114,133,154,175,194,214,233,253,275,294,314,335,354,375,393,414,435,455,474,495,514,535,553,574,595,615,635,655,675,695,715,734,755,774,795,814,834,854,874,894,913,935,953,974,994,1014,1034,1055,1074,1094,1113,1135,1155,1174,1195,1215,1235,1255,1274,1294,1314,1335,1354,1374,1394,1415,1435,1454,1474,1494,1514,1534,1555,1574,1595,1614,1635,1654,1674,1694,1713,1734,1755],"xSR":741.5,"ySR":573.95,"xT1":424.9,"yT1":0,"xT2":1058.1,"yT2":0,"toosoon":0,"cond_shown":"Incongruent","ratio_trial":200,"L_num":7,"L_den":10,"R_num":8,"R_den":16,"correct_side":1,"subjID":"SarahSofhiaLaiton27","gender":"1","school":"4","age":"9"},{"start_time":1552327785137,"click_time":1552327787870,"finger_time":1552327786530,"fix_duration":1046.9582362562396,"trial":37,"RT":1393,"MT":1340,"sideResp":1,"stimulus":[],"xmouse":[783,783,783,783,783,783,783,783,782,782,782,781,781,781,781,781,781,781,781,781,781,781,781,781,781,781,781,780,780,779,778,778,778,778,778,778,778,778,778,778,778,778,778,778,778,778,778,778,777,777,777,776,776,776,776,776,776,776,776,776,776,776,776,775,774,772,770,761,752,740,720,696,667,659,649,642,636,612,599,586,577,571,569,569,563,548,539,529,528,528,528,528,523,519,517,515,515,515,515,515,515,515,515,515,515,515,515,515,515,515,515,515,515,515,515,515,514,509,507,506,506,506,505,505,505,505,505,505,505,505,505,505,505,505,505,505,505],"ymouse":[619,619,619,619,619,619,619,619,620,620,620,620,620,620,620,620,620,620,620,620,620,620,620,620,620,620,619,618,618,617,617,617,617,617,617,617,617,617,617,617,617,617,617,617,617,617,617,616,616,616,614,614,614,614,614,614,614,614,614,614,614,614,614,613,611,610,608,595,582,558,512,470,420,405,384,366,348,305,287,271,260,254,248,243,231,208,196,185,184,184,184,184,176,168,165,160,159,159,159,159,159,159,159,159,159,157,157,157,157,157,157,157,157,157,155,152,148,139,137,136,134,134,132,132,131,130,130,128,126,124,120,117,110,107,104,101,99],"timestamp_mouse":[14,34,52,74,94,114,133,154,173,194,212,234,253,273,293,313,334,353,373,393,414,433,453,473,494,514,532,553,572,594,613,633,654,673,694,714,734,754,774,794,814,834,853,873,894,914,933,954,973,994,1013,1034,1053,1074,1094,1114,1133,1153,1174,1193,1214,1233,1254,1273,1293,1314,1333,1353,1373,1393,1413,1433,1453,1474,1493,1513,1533,1553,1573,1593,1614,1634,1653,1673,1694,1713,1733,1753,1773,1794,1813,1833,1853,1873,1893,1913,1934,1952,1974,1993,2014,2033,2053,2074,2093,2113,2134,2154,2173,2193,2212,2233,2253,2273,2293,2313,2333,2353,2373,2393,2412,2433,2453,2473,2494,2513,2533,2553,2573,2594,2613,2633,2653,2673,2694,2712,2733],"xSR":741.5,"ySR":573.95,"xT1":424.9,"yT1":0,"xT2":1058.1,"yT2":0,"toosoon":0,"cond_shown":"Incongruent","ratio_trial":100,"L_num":11,"L_den":22,"R_num":9,"R_den":15,"correct_side":2,"subjID":"SarahSofhiaLaiton27","gender":"1","school":"4","age":"9"},{"start_time":1552327791334,"click_time":1552327793090,"finger_time":1552327792290,"fix_duration":582.5481226328791,"trial":38,"RT":956,"MT":800,"sideResp":1,"stimulus":[],"xmouse":[760,760,760,760,760,760,760,760,760,760,760,760,760,760,760,760,760,760,760,760,760,760,760,760,760,760,760,760,760,760,760,760,760,760,759,758,757,756,754,753,753,751,750,750,749,746,745,741,740,738,737,734,729,725,723,720,717,715,715,714,713,711,700,672,644,609,571,503,473,444,416,384,347,343,341,340,340,340,341,349,358,370,392,410,416,420,421,425],"ymouse":[627,627,627,627,627,627,627,627,627,627,627,627,627,627,627,627,627,627,627,627,627,627,627,627,627,627,627,627,627,627,627,627,627,627,627,627,627,627,627,627,627,626,626,626,625,624,624,622,621,620,619,616,614,610,609,606,604,603,602,602,599,595,567,518,458,382,301,186,147,108,69,35,4,0,0,0,0,0,0,0,3,8,21,31,34,36,37,39],"timestamp_mouse":[16,36,56,77,97,116,135,156,177,196,216,236,257,276,297,317,337,357,376,397,416,437,456,477,496,517,536,557,576,596,617,637,657,676,696,716,736,757,777,797,816,836,856,877,896,916,937,956,975,996,1017,1037,1056,1076,1097,1117,1136,1156,1176,1196,1215,1235,1256,1276,1296,1315,1336,1356,1376,1396,1416,1436,1455,1475,1496,1516,1537,1556,1576,1596,1615,1636,1656,1676,1696,1716,1735,1756],"xSR":741.5,"ySR":573.95,"xT1":424.9,"yT1":0,"xT2":1058.1,"yT2":0,"toosoon":0,"cond_shown":"Incongruent","ratio_trial":200,"L_num":7,"L_den":15,"R_num":4,"R_den":6,"correct_side":2,"subjID":"SarahSofhiaLaiton27","gender":"1","school":"4","age":"9"},{"start_time":1552327796955,"click_time":1552327798210,"finger_time":1552327797590,"fix_duration":1203.0970707351444,"trial":39,"RT":635,"MT":620,"sideResp":2,"stimulus":[],"xmouse":[785,785,785,785,785,785,785,785,785,785,785,785,785,785,785,785,785,785,785,785,785,785,785,785,785,785,785,785,786,786,791,808,827,836,864,884,933,956,974,985,992,998,998,1000,1003,1007,1017,1022,1028,1035,1046,1063,1072,1079,1086,1090,1093,1093,1095,1096,1097,1100,1103],"ymouse":[613,613,613,613,613,613,613,613,613,613,613,613,613,613,613,613,613,613,613,613,613,613,613,613,613,612,610,607,603,598,590,555,515,489,444,416,359,332,309,291,278,261,255,246,237,228,206,194,182,172,161,149,143,139,133,131,127,126,124,122,117,108,99],"timestamp_mouse":[19,37,55,75,95,115,135,155,176,196,216,235,255,276,295,315,336,355,376,396,415,436,456,475,495,515,535,554,575,596,616,635,655,676,695,715,735,755,775,795,816,835,856,875,895,915,935,954,975,995,1015,1035,1054,1075,1095,1115,1135,1155,1176,1195,1214,1235,1255],"xSR":741.5,"ySR":573.95,"xT1":424.9,"yT1":0,"xT2":1058.1,"yT2":0,"toosoon":0,"cond_shown":"Congruent","ratio_trial":200,"L_num":5,"L_den":10,"R_num":14,"R_den":20,"correct_side":2,"subjID":"SarahSofhiaLaiton27","gender":"1","school":"4","age":"9"},{"start_time":1552327800430,"click_time":1552327801890,"finger_time":1552327801230,"fix_duration":1138.1912553147872,"trial":40,"RT":800,"MT":660,"sideResp":2,"stimulus":[],"xmouse":[786,786,786,786,786,786,786,786,786,785,785,785,785,785,785,785,785,785,785,785,786,786,786,786,787,787,787,787,787,787,787,788,789,789,790,791,791,792,795,797,800,810,815,830,846,867,896,927,963,969,974,979,988,1017,1026,1034,1045,1060,1079,1089,1093,1096,1098,1101,1101,1101,1101,1101,1101,1101,1102,1104,1108,1121],"ymouse":[628,628,628,628,628,628,628,628,628,627,627,626,626,624,624,623,622,621,617,614,612,611,610,610,609,609,609,608,608,608,608,607,606,604,602,601,599,597,586,580,573,557,550,527,509,490,468,445,416,407,393,383,366,317,297,279,258,234,200,183,174,167,162,150,145,142,137,132,121,116,112,109,104,92],"timestamp_mouse":[1,34,41,61,80,100,120,140,160,180,201,221,239,260,281,300,320,340,360,381,400,421,440,459,481,501,520,541,560,580,600,621,640,660,680,700,720,739,760,781,800,821,840,860,880,900,920,941,960,980,1000,1021,1041,1060,1080,1101,1120,1140,1160,1180,1200,1220,1241,1260,1280,1300,1320,1341,1360,1381,1399,1421,1440,1459],"xSR":741.5,"ySR":573.95,"xT1":424.9,"yT1":0,"xT2":1058.1,"yT2":0,"toosoon":0,"cond_shown":"Congruent","ratio_trial":300,"L_num":7,"L_den":14,"R_num":20,"R_den":25,"correct_side":2,"subjID":"SarahSofhiaLaiton27","gender":"1","school":"4","age":"9"},{"start_time":1552327806231,"click_time":1552327807911,"finger_time":1552327807290,"fix_duration":1257.8623845747463,"trial":41,"RT":1059,"MT":621,"sideResp":2,"stimulus":[],"xmo