[{"start_time":1552309441602,"click_time":1552309442660,"finger_time":1552309442600,"fix_duration":957.740340403686,"trial":0,"RT":998,"MT":60,"sideResp":2,"stimulus":"img/250/equaldotanddens/L/3_Ratio_250_L_8_R_2.png","xmouse":[779,779,779,779,779,779,779,779,779,779,779,779,779,779,779,779,779,779,779,779,779,779,779,779,779,779,779,779,779,779,779,779,779,779,779,779,779,779,779,779,779,779,779,779,779,779,779,779,785,828,889,954,1105,1142],"ymouse":[545,545,545,545,545,545,545,545,545,545,545,545,545,545,545,545,545,545,545,545,545,545,545,545,545,545,545,545,545,545,545,545,545,545,545,545,545,545,545,545,545,545,545,545,545,545,545,545,541,522,496,456,207,85],"timestamp_mouse":[11,19,44,58,77,99,119,138,159,177,197,218,238,257,278,298,318,339,357,378,397,419,438,458,477,498,519,537,558,578,597,618,639,658,677,697,718,739,758,779,799,819,838,857,879,899,917,938,958,977,998,1018,1039,1057],"xSR":741.5,"ySR":500.5,"xT1":424.9,"yT1":0,"xT2":1058.1,"yT2":0,"toosoon":0,"cond_shown":"equaldotanddens","ratio_trial":250,"smaller_num":"2","larger_num":"8","correct_side":1,"subjID":"sarajulianarodriguez14","gender":"1","age":"9","school":"4","test":{"fix_dur":[250,1500],"timestim":300,"targets_dim":[100,100],"targets_relative_coord":[0.3,0.7],"size_stim":[880,420],"start_dim":[100,100],"size_start":[300,300],"size_fix":60,"samplingrate":20,"img_types":["equaldotsize","equaldotanddens","randomdotsizeEA"],"ratios":[250,500,750,900],"rep_conds":9,"nTrials":120,"trials_to_rest":500,"Trials_order":[73,86,115,43,95,39,101,58,14,50,6,36,108,13,7,80,31,49,111,23,64,29,56,26,17,118,61,40,112,8,51,19,79,66,76,90,107,103,2,16,114,15,24,46,4,78,60,20,30,45,102,85,47,74,38,55,37,35,94,93,104,77,9,11,34,96,68,10,83,18,12,70,110,1,109,21,41,69,63,67,88,52,25,27,113,54,106,71,57,53,117,28,75,92,59,116,84,105,99,32,100,87,65,62,91,89,3,119,72,33,82,98,22,48,97,0,81,5,44,42],"cond_shown":["equaldotanddens","randomdotsizeEA","equaldotanddens","equaldotanddens","randomdotsizeEA","equaldotsize","randomdotsizeEA","equaldotanddens","randomdotsizeEA","randomdotsizeEA","equaldotsize","equaldotsize","equaldotsize","equaldotanddens","equaldotanddens","randomdotsizeEA","equaldotanddens","equaldotanddens","equaldotsize","randomdotsizeEA","equaldotanddens","randomdotsizeEA","randomdotsizeEA","randomdotsizeEA","randomdotsizeEA","equaldotanddens","equaldotanddens","equaldotanddens","equaldotanddens","randomdotsizeEA","equaldotsize","equaldotanddens","equaldotanddens","equaldotsize","equaldotanddens","equaldotsize","randomdotsizeEA","equaldotanddens","randomdotsizeEA","equaldotanddens","equaldotsize","equaldotsize","equaldotsize","equaldotanddens","equaldotanddens","equaldotsize","equaldotsize","randomdotsizeEA","equaldotsize","equaldotsize","equaldotsize","equaldotanddens","randomdotsizeEA","randomdotsizeEA","randomdotsizeEA","equaldotanddens","equaldotanddens","randomdotsizeEA","equaldotanddens","equaldotsize","randomdotsizeEA","randomdotsizeEA","equaldotsize","randomdotsizeEA","equaldotanddens","equaldotsize","randomdotsizeEA","equaldotanddens","randomdotsizeEA","equaldotsize","equaldotsize","equaldotanddens","randomdotsizeEA","equaldotanddens","equaldotanddens","equaldotsize","randomdotsizeEA","equaldotsize","equaldotsize","equaldotanddens","equaldotanddens","equaldotanddens","equaldotanddens","equaldotsize","randomdotsizeEA","equaldotsize","equaldotanddens","randomdotsizeEA","equaldotsize","randomdotsizeEA","equaldotsize","equaldotanddens","equaldotsize","randomdotsizeEA","randomdotsizeEA","randomdotsizeEA","equaldotsize","equaldotsize","equaldotsize","randomdotsizeEA","equaldotanddens","equaldotsize","randomdotsizeEA","randomdotsizeEA","equaldotanddens","randomdotsizeEA","equaldotsize","randomdotsizeEA","equaldotsize","equaldotsize","equaldotanddens","randomdotsizeEA","equaldotanddens","equaldotsize","equaldotanddens","equaldotsize","equaldotsize","randomdotsizeEA","randomdotsizeEA","equaldotsize"],"ratio_trial":[250,250,750,750,900,500,500,900,250,250,750,250,250,250,750,750,750,250,500,900,500,500,750,250,500,900,250,500,500,750,500,750,750,750,500,750,900,750,250,500,750,500,250,900,500,750,250,750,750,900,750,250,900,250,250,750,250,900,900,900,750,500,900,900,900,250,750,900,900,750,250,900,250,250,250,900,500,900,500,750,500,500,250,500,500,750,900,900,900,500,900,500,500,750,900,750,250,900,500,750,500,500,500,250,750,500,500,900,250,900,900,250,900,250,250,250,900,500,750,750],"smaller_num":["2","3","6","18","9","10","10","9","3","2","3","3","4","4","3","3","18","2","5","18","9","2","15","3","1","9","1","6","6","3","3","15","15","6","1","3","9","9","2","2","6","6","3","18","1","3","6","3","3","9","3","3","9","2","6","18","2","18","18","18","3","2","9","9","9","3","6","18","9","6","2","18","2","3","2","18","5","18","6","6","4","9","2","4","5","9","18","18","9","5","18","6","1","6","9","18","2","18","1","3","2","9","9","3","3","5","5","18","2","18","9","2","9","6","3","3","9","9","3","6"],"larger_num":["8","12","8","24","10","20","20","10","12","8","4","12","16","16","4","4","24","8","10","20","18","4","20","12","2","10","4","12","12","4","6","20","20","8","2","4","10","12","8","4","8","12","12","20","2","4","24","4","4","10","4","12","10","8","24","24","8","20","20","20","4","4","10","10","10","12","8","20","10","8","8","20","8","12","8","20","10","20","12","8","8","18","8","8","10","12","20","20","10","10","20","12","2","8","10","24","8","20","2","4","4","18","18","12","4","10","10","20","8","20","10","8","10","24","12","12","10","18","4","8"],"correct_side":[1,1,2,1,2,2,2,2,1,1,2,2,1,1,2,1,1,2,1,1,1,1,2,2,2,1,2,1,1,1,2,1,1,2,2,2,2,2,1,1,2,1,1,1,2,2,2,1,1,1,1,2,1,1,1,1,1,1,2,1,2,2,2,2,2,1,1,1,2,1,1,1,1,1,1,2,2,2,1,1,1,2,1,1,2,2,1,1,2,2,2,1,2,2,2,1,1,2,2,1,2,1,2,2,2,1,1,1,2,2,2,1,2,2,1,2,2,2,1,2],"img_shown":["img/250/equaldotanddens/L/3_Ratio_250_L_8_R_2.png","img/250/randomdotsizeEA/L/14_Ratio_250_L_12_R_3.png","img/750/equaldotanddens/R/2_Ratio_750_L_6_R_8.png","img/750/equaldotanddens/L/6_Ratio_750_L_24_R_18.png","img/900/randomdotsizeEA/R/5_Ratio_900_L_9_R_10.png","img/500/equaldotsize/R/3_Ratio_500_L_10_R_20.png","img/500/randomdotsizeEA/R/3_Ratio_500_L_10_R_20.png","img/900/equaldotanddens/R/5_Ratio_900_L_9_R_10.png","img/250/randomdotsizeEA/L/15_Ratio_250_L_12_R_3.png","img/250/randomdotsizeEA/L/1_Ratio_250_L_8_R_2.png","img/750/equaldotsize/R/7_Ratio_750_L_3_R_4.png","img/250/equaldotsize/R/9_Ratio_250_L_3_R_12.png","img/250/equaldotsize/L/2_Ratio_250_L_16_R_4.png","img/250/equaldotanddens/L/2_Ratio_250_L_16_R_4.png","img/750/equaldotanddens/R/12_Ratio_750_L_3_R_4.png","img/750/randomdotsizeEA/L/9_Ratio_750_L_4_R_3.png","img/750/equaldotanddens/L/6_Ratio_750_L_24_R_18.png","img/250/equaldotanddens/R/13_Ratio_250_L_2_R_8.png","img/500/equaldotsize/L/7_Ratio_500_L_10_R_5.png","img/900/randomdotsizeEA/L/2_Ratio_900_L_20_R_18.png","img/500/equaldotanddens/L/4_Ratio_500_L_18_R_9.png","img/500/randomdotsizeEA/L/10_Ratio_500_L_4_R_2.png","img/750/randomdotsizeEA/R/5_Ratio_750_L_15_R_20.png","img/250/randomdotsizeEA/R/4_Ratio_250_L_3_R_12.png","img/500/randomdotsizeEA/R/12_Ratio_500_L_1_R_2.png","img/900/equaldotanddens/L/1_Ratio_900_L_10_R_9.png","img/250/equaldotanddens/R/8_Ratio_250_L_1_R_4.png","img/500/equaldotanddens/L/11_Ratio_500_L_12_R_6.png","img/500/equaldotanddens/L/11_Ratio_500_L_12_R_6.png","img/750/randomdotsizeEA/L/10_Ratio_750_L_4_R_3.png","img/500/equaldotsize/R/2_Ratio_500_L_3_R_6.png","img/750/equaldotanddens/L/1_Ratio_750_L_20_R_15.png","img/750/equaldotanddens/L/1_Ratio_750_L_20_R_15.png","img/750/equaldotsize/R/2_Ratio_750_L_6_R_8.png","img/500/equaldotanddens/R/12_Ratio_500_L_1_R_2.png","img/750/equaldotsize/R/12_Ratio_750_L_3_R_4.png","img/900/randomdotsizeEA/R/7_Ratio_900_L_9_R_10.png","img/750/equaldotanddens/R/15_Ratio_750_L_9_R_12.png","img/250/randomdotsizeEA/L/7_Ratio_250_L_8_R_2.png","img/500/equaldotanddens/L/10_Ratio_500_L_4_R_2.png","img/750/equaldotsize/R/2_Ratio_750_L_6_R_8.png","img/500/equaldotsize/L/13_Ratio_500_L_12_R_6.png","img/250/equaldotsize/L/14_Ratio_250_L_12_R_3.png","img/900/equaldotanddens/L/8_Ratio_900_L_20_R_18.png","img/500/equaldotanddens/R/15_Ratio_500_L_1_R_2.png","img/750/equaldotsize/R/7_Ratio_750_L_3_R_4.png","img/250/equaldotsize/R/6_Ratio_250_L_6_R_24.png","img/750/randomdotsizeEA/L/10_Ratio_750_L_4_R_3.png","img/750/equaldotsize/L/9_Ratio_750_L_4_R_3.png","img/900/equaldotsize/L/1_Ratio_900_L_10_R_9.png","img/750/equaldotsize/L/9_Ratio_750_L_4_R_3.png","img/250/equaldotanddens/R/11_Ratio_250_L_3_R_12.png","img/900/randomdotsizeEA/L/1_Ratio_900_L_10_R_9.png","img/250/randomdotsizeEA/L/1_Ratio_250_L_8_R_2.png","img/250/randomdotsizeEA/L/5_Ratio_250_L_24_R_6.png","img/750/equaldotanddens/L/6_Ratio_750_L_24_R_18.png","img/250/equaldotanddens/L/1_Ratio_250_L_8_R_2.png","img/900/randomdotsizeEA/L/2_Ratio_900_L_20_R_18.png","img/900/equaldotanddens/R/13_Ratio_900_L_18_R_20.png","img/900/equaldotsize/L/4_Ratio_900_L_20_R_18.png","img/750/randomdotsizeEA/R/12_Ratio_750_L_3_R_4.png","img/500/randomdotsizeEA/R/9_Ratio_500_L_2_R_4.png","img/900/equaldotsize/R/6_Ratio_900_L_9_R_10.png","img/900/randomdotsizeEA/R/15_Ratio_900_L_9_R_10.png","img/900/equaldotanddens/R/3_Ratio_900_L_9_R_10.png","img/250/equaldotsize/L/15_Ratio_250_L_12_R_3.png","img/750/randomdotsizeEA/L/13_Ratio_750_L_8_R_6.png","img/900/equaldotanddens/L/8_Ratio_900_L_20_R_18.png","img/900/randomdotsizeEA/R/7_Ratio_900_L_9_R_10.png","img/750/equaldotsize/L/14_Ratio_750_L_8_R_6.png","img/250/equaldotsize/L/3_Ratio_250_L_8_R_2.png","img/900/equaldotanddens/L/10_Ratio_900_L_20_R_18.png","img/250/randomdotsizeEA/L/7_Ratio_250_L_8_R_2.png","img/250/equaldotanddens/L/14_Ratio_250_L_12_R_3.png","img/250/equaldotanddens/L/3_Ratio_250_L_8_R_2.png","img/900/equaldotsize/R/11_Ratio_900_L_18_R_20.png","img/500/randomdotsizeEA/R/14_Ratio_500_L_5_R_10.png","img/900/equaldotsize/R/11_Ratio_900_L_18_R_20.png","img/500/equaldotsize/L/13_Ratio_500_L_12_R_6.png","img/750/equaldotanddens/L/14_Ratio_750_L_8_R_6.png","img/500/equaldotanddens/L/8_Ratio_500_L_8_R_4.png","img/500/equaldotanddens/R/6_Ratio_500_L_9_R_18.png","img/250/equaldotanddens/L/1_Ratio_250_L_8_R_2.png","img/500/equaldotsize/L/8_Ratio_500_L_8_R_4.png","img/500/randomdotsizeEA/R/14_Ratio_500_L_5_R_10.png","img/750/equaldotsize/R/15_Ratio_750_L_9_R_12.png","img/900/equaldotanddens/L/10_Ratio_900_L_20_R_18.png","img/900/randomdotsizeEA/L/8_Ratio_900_L_20_R_18.png","img/900/equaldotsize/R/7_Ratio_900_L_9_R_10.png","img/500/randomdotsizeEA/R/14_Ratio_500_L_5_R_10.png","img/900/equaldotsize/R/11_Ratio_900_L_18_R_20.png","img/500/equaldotanddens/L/11_Ratio_500_L_12_R_6.png","img/500/equaldotsize/R/15_Ratio_500_L_1_R_2.png","img/750/randomdotsizeEA/R/2_Ratio_750_L_6_R_8.png","img/900/randomdotsizeEA/R/6_Ratio_900_L_9_R_10.png","img/750/randomdotsizeEA/L/6_Ratio_750_L_24_R_18.png","img/250/equaldotsize/L/1_Ratio_250_L_8_R_2.png","img/900/equaldotsize/R/11_Ratio_900_L_18_R_20.png","img/500/equaldotsize/R/15_Ratio_500_L_1_R_2.png","img/750/randomdotsizeEA/L/8_Ratio_750_L_4_R_3.png","img/500/equaldotanddens/R/9_Ratio_500_L_2_R_4.png","img/500/equaldotsize/L/4_Ratio_500_L_18_R_9.png","img/500/randomdotsizeEA/R/1_Ratio_500_L_9_R_18.png","img/250/randomdotsizeEA/R/9_Ratio_250_L_3_R_12.png","img/750/equaldotanddens/R/7_Ratio_750_L_3_R_4.png","img/500/randomdotsizeEA/L/7_Ratio_500_L_10_R_5.png","img/500/equaldotsize/L/7_Ratio_500_L_10_R_5.png","img/900/randomdotsizeEA/L/8_Ratio_900_L_20_R_18.png","img/250/equaldotsize/R/13_Ratio_250_L_2_R_8.png","img/900/equaldotsize/R/13_Ratio_900_L_18_R_20.png","img/900/equaldotanddens/R/3_Ratio_900_L_9_R_10.png","img/250/randomdotsizeEA/L/1_Ratio_250_L_8_R_2.png","img/900/equaldotanddens/R/5_Ratio_900_L_9_R_10.png","img/250/equaldotsize/R/6_Ratio_250_L_6_R_24.png","img/250/equaldotanddens/L/15_Ratio_250_L_12_R_3.png","img/250/equaldotsize/R/9_Ratio_250_L_3_R_12.png","img/900/equaldotsize/R/3_Ratio_900_L_9_R_10.png","img/500/randomdotsizeEA/R/1_Ratio_500_L_9_R_18.png","img/750/randomdotsizeEA/L/8_Ratio_750_L_4_R_3.png","img/750/equaldotsize/R/2_Ratio_750_L_6_R_8.png"],"Rat0":[["12_Ratio_0_L_9_R_0.png","13_Ratio_0_L_6_R_0.png","5_Ratio_0_L_2_R_0.png","6_Ratio_0_L_4_R_0.png","8_Ratio_0_L_6_R_0.png"],["1_Ratio_0_L_0_R_17.png","10_Ratio_0_L_0_R_22.png","11_Ratio_0_L_0_R_1.png","14_Ratio_0_L_0_R_24.png","15_Ratio_0_L_0_R_4.png","2_Ratio_0_L_0_R_5.png","3_Ratio_0_L_0_R_17.png","4_Ratio_0_L_0_R_7.png","7_Ratio_0_L_0_R_19.png","9_Ratio_0_L_0_R_15.png"]],"Rat250":[["1_Ratio_250_L_8_R_2.png","14_Ratio_250_L_12_R_3.png","15_Ratio_250_L_12_R_3.png","2_Ratio_250_L_16_R_4.png","3_Ratio_250_L_8_R_2.png","5_Ratio_250_L_24_R_6.png","7_Ratio_250_L_8_R_2.png"],["10_Ratio_250_L_4_R_16.png","11_Ratio_250_L_3_R_12.png","12_Ratio_250_L_5_R_20.png","13_Ratio_250_L_2_R_8.png","4_Ratio_250_L_3_R_12.png","6_Ratio_250_L_6_R_24.png","8_Ratio_250_L_1_R_4.png","9_Ratio_250_L_3_R_12.png"]],"Rat500":[["10_Ratio_500_L_4_R_2.png","11_Ratio_500_L_12_R_6.png","13_Ratio_500_L_12_R_6.png","4_Ratio_500_L_18_R_9.png","5_Ratio_500_L_4_R_2.png","7_Ratio_500_L_10_R_5.png","8_Ratio_500_L_8_R_4.png"],["1_Ratio_500_L_9_R_18.png","12_Ratio_500_L_1_R_2.png","14_Ratio_500_L_5_R_10.png","15_Ratio_500_L_1_R_2.png","2_Ratio_500_L_3_R_6.png","3_Ratio_500_L_10_R_20.png","6_Ratio_500_L_9_R_18.png","9_Ratio_500_L_2_R_4.png"]],"Rat750":[["1_Ratio_750_L_20_R_15.png","10_Ratio_750_L_4_R_3.png","13_Ratio_750_L_8_R_6.png","14_Ratio_750_L_8_R_6.png","6_Ratio_750_L_24_R_18.png","8_Ratio_750_L_4_R_3.png","9_Ratio_750_L_4_R_3.png"],["11_Ratio_750_L_12_R_16.png","12_Ratio_750_L_3_R_4.png","15_Ratio_750_L_9_R_12.png","2_Ratio_750_L_6_R_8.png","3_Ratio_750_L_15_R_20.png","4_Ratio_750_L_15_R_20.png","5_Ratio_750_L_15_R_20.png","7_Ratio_750_L_3_R_4.png"]],"Rat900":[["1_Ratio_900_L_10_R_9.png","10_Ratio_900_L_20_R_18.png","2_Ratio_900_L_20_R_18.png","4_Ratio_900_L_20_R_18.png","8_Ratio_900_L_20_R_18.png"],["11_Ratio_900_L_18_R_20.png","12_Ratio_900_L_18_R_20.png","13_Ratio_900_L_18_R_20.png","14_Ratio_900_L_18_R_20.png","15_Ratio_900_L_9_R_10.png","3_Ratio_900_L_9_R_10.png","5_Ratio_900_L_9_R_10.png","6_Ratio_900_L_9_R_10.png","7_Ratio_900_L_9_R_10.png","9_Ratio_900_L_18_R_20.png"]],"Rat1000":[["10_Ratio_1000_L_16_R_16.png","11_Ratio_1000_L_6_R_6.png","12_Ratio_1000_L_14_R_14.png","13_Ratio_1000_L_20_R_20.png","15_Ratio_1000_L_15_R_15.png","2_Ratio_1000_L_17_R_17.png","4_Ratio_1000_L_9_R_9.png","5_Ratio_1000_L_6_R_6.png","6_Ratio_1000_L_19_R_19.png","8_Ratio_1000_L_14_R_14.png","9_Ratio_1000_L_25_R_25.png"],["1_Ratio_1000_L_1_R_1.png","14_Ratio_1000_L_17_R_17.png","3_Ratio_1000_L_17_R_17.png","7_Ratio_1000_L_6_R_6.png"]]}},{"start_time":1552309445496,"click_time":1552309446860,"finger_time":1552309446360,"fix_duration":1193.7554024157864,"trial":1,"RT":864,"MT":500,"sideResp":1,"stimulus":"img/250/randomdotsizeEA/L/14_Ratio_250_L_12_R_3.png","xmouse":[751,751,751,751,751,751,751,751,751,751,751,752,752,752,752,752,752,752,752,752,752,752,752,752,752,752,752,754,754,754,754,752,749,745,745,745,745,745,745,745,745,747,748,748,743,734,721,706,674,663,657,649,646,644,641,636,633,627,621,615,614,609,603,574,560,547,536,523,504],"ymouse":[539,539,539,539,539,539,539,539,539,539,539,539,539,539,539,539,539,539,539,539,539,539,539,539,539,539,539,537,530,525,519,511,506,502,502,502,502,502,502,500,497,493,488,469,457,440,423,400,357,340,314,285,262,214,188,164,148,133,120,112,112,112,112,108,106,104,102,100,99],"timestamp_mouse":[10,23,53,63,84,104,125,144,164,185,205,224,243,264,283,304,323,344,365,384,404,423,443,465,483,504,524,543,564,584,605,624,644,664,683,705,724,744,764,784,804,825,845,864,885,903,923,943,964,984,1003,1025,1045,1063,1083,1105,1124,1143,1163,1184,1205,1224,1245,1264,1284,1305,1324,1343,1363],"xSR":741.5,"ySR":469.95,"xT1":424.9,"yT1":0,"xT2":1058.1,"yT2":0,"toosoon":0,"cond_shown":"randomdotsizeEA","ratio_trial":250,"smaller_num":"3","larger_num":"12","correct_side":1,"subjID":"sarajulianarodriguez14","gender":"1","age":"9","school":"4"},{"start_time":1552309448343,"click_time":1552309449721,"finger_time":1552309449220,"fix_duration":362.4439237745636,"trial":2,"RT":877,"MT":501,"sideResp":1,"stimulus":"img/750/equaldotanddens/R/2_Ratio_750_L_6_R_8.png","xmouse":[808,808,808,808,808,808,808,808,808,808,808,808,808,808,808,808,808,808,808,808,808,808,808,808,808,808,808,808,808,808,808,808,808,808,808,808,808,808,808,810,821,829,837,847,865,870,876,878,878,879,882,887,894,901,912,929,935,940,940,929,893,863,830,777,738,666,629,579,511],"ymouse":[559,559,559,559,559,559,559,559,559,558,557,557,557,557,556,556,556,556,556,556,556,556,556,556,556,556,556,556,556,556,556,556,556,556,556,556,556,553,552,548,534,523,513,499,476,465,447,439,434,430,417,408,396,383,363,330,314,300,284,268,241,231,221,210,197,164,143,114,79],"timestamp_mouse":[26,37,59,77,96,117,136,158,176,197,216,237,258,277,297,317,337,356,377,397,416,436,456,478,498,516,536,557,576,598,618,637,657,677,698,716,737,756,778,798,816,837,857,877,897,917,938,958,977,997,1017,1036,1056,1076,1096,1117,1136,1157,1178,1197,1218,1236,1256,1277,1296,1317,1336,1357,1378],"xSR":741.5,"ySR":469.95,"xT1":424.9,"yT1":0,"xT2":1058.1,"yT2":0,"toosoon":0,"cond_shown":"equaldotanddens","ratio_trial":750,"smaller_num":"6","larger_num":"8","correct_side":2,"subjID":"sarajulianarodriguez14","gender":"1","age":"9","school":"4"},{"start_time":1552309452195,"click_time":1552309453921,"finger_time":1552309453161,"fix_duration":1332.51394311043,"trial":3,"RT":966,"MT":760,"sideResp":1,"stimulus":"img/750/equaldotanddens/L/6_Ratio_750_L_24_R_18.png","xmouse":[806,806,806,806,806,806,806,806,806,806,806,806,806,806,806,806,806,806,806,806,806,806,806,806,806,806,806,806,806,806,806,806,806,806,806,806,806,806,806,806,807,810,812,817,828,832,837,839,842,843,844,844,844,845,845,845,844,840,824,814,798,784,768,752,714,694,678,667,656,639,631,622,617,617,613,613,613,612,610,604,595,583,571,549,509,499,492],"ymouse":[535,535,535,535,535,535,535,535,535,535,535,535,535,535,535,535,535,535,535,535,535,535,535,535,535,535,535,535,535,535,535,535,535,535,535,535,535,535,535,535,535,535,534,531,522,519,514,511,504,503,502,500,499,498,498,497,496,493,483,478,465,454,441,424,394,380,368,357,347,318,281,253,230,211,181,169,158,149,142,134,129,126,125,119,106,101,96],"timestamp_mouse":[9,38,45,65,86,104,125,144,165,186,205,225,245,266,286,305,325,345,365,385,404,424,445,464,484,505,525,545,565,585,604,624,645,666,686,706,725,745,764,784,805,825,846,864,885,906,925,945,966,984,1005,1024,1044,1065,1085,1105,1125,1146,1165,1184,1206,1226,1246,1265,1285,1305,1324,1344,1364,1384,1405,1425,1446,1465,1484,1505,1526,1545,1564,1585,1605,1625,1645,1666,1684,1705,1726],"xSR":741.5,"ySR":469.95,"xT1":424.9,"yT1":0,"xT2":1058.1,"yT2":0,"toosoon":0,"cond_shown":"equaldotanddens","ratio_trial":750,"smaller_num":"18","larger_num":"24","correct_side":1,"subjID":"sarajulianarodriguez14","gender":"1","age":"9","school":"4"},{"start_time":1552309455495,"click_time":1552309457179,"finger_time":1552309456759,"fix_duration":694.0826760406511,"trial":4,"RT":1264,"MT":420,"sideResp":1,"stimulus":"img/900/randomdotsizeEA/R/5_Ratio_900_L_9_R_10.png","xmouse":[807,807,807,807,807,807,807,807,807,807,807,807,807,807,807,807,807,807,807,807,807,807,807,807,807,807,807,807,807,807,807,807,807,807,807,807,807,807,807,807,807,807,807,807,807,807,807,807,807,807,807,807,807,806,804,800,796,792,789,783,779,771,762,744,716,702,689,677,667,654,650,646,644,641,634,626,617,609,601,586,578,571,563,550,523],"ymouse":[557,557,557,557,557,557,557,557,557,557,557,557,557,557,557,557,557,557,557,557,557,557,557,557,557,557,557,557,557,557,557,557,557,557,557,557,557,557,557,557,557,557,557,557,556,555,554,553,552,549,548,547,546,546,543,540,537,534,532,524,518,504,491,464,427,406,384,363,344,315,305,298,292,287,273,261,252,242,234,214,203,188,164,130,80],"timestamp_mouse":[9,23,48,63,84,104,124,144,163,183,204,224,243,264,283,304,324,343,363,383,404,424,444,464,483,503,523,544,564,585,604,624,644,664,684,703,723,743,764,783,803,824,844,863,883,903,924,944,964,984,1004,1023,1043,1063,1084,1104,1124,1145,1164,1183,1203,1224,1245,1264,1283,1303,1323,1344,1364,1384,1403,1423,1443,1465,1483,1503,1523,1543,1564,1584,1603,1624,1643,1663,1684],"xSR":741.5,"ySR":469.95,"xT1":424.9,"yT1":0,"xT2":1058.1,"yT2":0,"toosoon":0,"cond_shown":"randomdotsizeEA","ratio_trial":900,"smaller_num":"9","larger_num":"10","correct_side":2,"subjID":"sarajulianarodriguez14","gender":"1","age":"9","school":"4"},{"start_time":1552309458456,"click_time":1552309459880,"finger_time":1552309459279,"fix_duration":254.77243848006626,"trial":5,"RT":823,"MT":601,"sideResp":2,"stimulus":"img/500/equaldotsize/R/3_Ratio_500_L_10_R_20.png","xmouse":[796,796,796,796,796,796,796,796,796,796,796,796,796,796,796,796,796,796,796,796,796,796,796,796,796,796,796,796,796,796,796,796,796,796,796,797,805,811,816,822,827,847,860,870,883,897,906,927,941,955,972,994,1036,1055,1067,1084,1101,1104,1106,1106,1106,1106,1106,1106,1107,1107,1109,1111,1115,1122,1128,1137],"ymouse":[547,547,547,547,547,547,547,547,547,547,547,547,547,547,547,547,547,547,547,547,547,547,547,547,547,547,547,547,547,547,547,547,547,547,547,547,536,523,509,489,470,430,412,398,383,366,355,340,332,324,311,295,263,243,224,195,162,153,147,146,145,145,145,145,144,143,140,138,131,120,108,71],"timestamp_mouse":[9,39,44,62,83,103,124,143,162,184,202,222,244,263,283,302,324,343,362,384,403,422,443,462,484,503,523,542,563,582,603,622,644,663,683,702,722,743,763,782,803,823,842,862,884,902,922,943,962,983,1002,1023,1043,1063,1082,1102,1124,1142,1163,1183,1203,1223,1243,1263,1282,1302,1324,1342,1362,1383,1403,1424],"xSR":741.5,"ySR":469.95,"xT1":424.9,"yT1":0,"xT2":1058.1,"yT2":0,"toosoon":0,"cond_shown":"equaldotsize","ratio_trial":500,"smaller_num":"10","larger_num":"20","correct_side":2,"subjID":"sarajulianarodriguez14","gender":"1","age":"9","school":"4"},{"start_time":1552309462140,"click_time":1552309463020,"finger_time":1552309462698,"fix_duration":1158.8347429324651,"trial":6,"RT":558,"MT":322,"sideResp":2,"stimulus":"img/500/randomdotsizeEA/R/3_Ratio_500_L_10_R_20.png","xmouse":[808,808,808,808,808,808,808,808,808,808,808,808,808,808,808,808,808,808,808,808,808,808,809,811,813,815,816,824,830,837,848,858,874,881,900,929,955,1015,1072,1094,1112,1123,1132,1135],"ymouse":[483,483,483,483,483,483,483,483,483,483,483,483,483,483,483,483,483,483,483,483,483,483,483,482,480,478,474,462,452,437,417,398,366,349,319,271,239,199,169,153,137,122,101,92],"timestamp_mouse":[19,48,58,78,98,120,139,158,178,199,219,239,258,279,299,319,339,359,380,399,418,438,458,479,499,518,538,558,578,598,618,640,658,679,698,719,739,758,779,798,819,838,859,879],"xSR":741.5,"ySR":469.95,"xT1":424.9,"yT1":0,"xT2":1058.1,"yT2":0,"toosoon":0,"cond_shown":"randomdotsizeEA","ratio_trial":500,"smaller_num":"10","larger_num":"20","correct_side":2,"subjID":"sarajulianarodriguez14","gender":"1","age":"9","school":"4"},{"start_time":1552309465084,"click_time":1552309466079,"finger_time":1552309465698,"fix_duration":904.8974733956475,"trial":7,"RT":614,"MT":381,"sideResp":2,"stimulus":"img/900/equaldotanddens/R/5_Ratio_900_L_9_R_10.png","xmouse":[775,775,775,775,775,775,775,775,775,775,775,775,775,775,775,775,775,775,775,775,776,778,780,782,785,789,792,794,797,805,821,825,828,832,835,872,892,913,934,959,997,1010,1021,1034,1048,1089,1104,1119,1129,1134],"ymouse":[495,495,495,495,495,495,495,495,495,495,495,495,495,495,495,495,495,495,495,495,495,495,495,495,494,491,489,487,484,474,450,437,424,411,399,356,338,324,306,287,237,221,205,189,172,137,125,111,100,90],"timestamp_mouse":[14,43,54,74,94,114,135,154,174,194,214,234,254,275,295,315,335,355,375,395,414,435,454,475,494,515,536,554,575,595,614,636,654,674,695,715,734,754,775,794,815,834,854,875,894,915,935,954,975,994],"xSR":741.5,"ySR":469.95,"xT1":424.9,"yT1":0,"xT2":1058.1,"yT2":0,"toosoon":0,"cond_shown":"equaldotanddens","ratio_trial":900,"smaller_num":"9","larger_num":"10","correct_side":2,"subjID":"sarajulianarodriguez14","gender":"1","age":"9","school":"4"},{"start_time":1552309467412,"click_time":1552309468178,"finger_time":1552309467960,"fix_duration":250,"trial":8,"RT":548,"MT":218,"sideResp":1,"stimulus":"img/250/randomdotsizeEA/L/15_Ratio_250_L_12_R_3.png","xmouse":[785,785,785,785,785,785,785,785,785,785,785,785,785,785,785,785,785,785,785,785,785,785,785,785,785,784,779,766,741,686,663,646,626,594,562,547,535,528,521],"ymouse":[495,495,495,495,495,495,495,495,495,495,495,495,495,495,495,495,495,495,495,495,495,495,495,495,495,490,474,447,412,316,282,253,221,170,105,84,63,51,37],"timestamp_mouse":[9,41,47,67,86,107,126,146,167,186,208,227,247,267,287,307,327,347,367,387,407,427,447,466,486,507,527,548,566,588,606,626,647,667,687,706,726,747,766],"xSR":741.5,"ySR":469.95,"xT1":424.9,"yT1":0,"xT2":1058.1,"yT2":0,"toosoon":0,"cond_shown":"randomdotsizeEA","ratio_trial":250,"smaller_num":"3","larger_num":"12","correct_side":1,"subjID":"sarajulianarodriguez14","gender":"1","age":"9","school":"4"},{"start_time":1552309469897,"click_time":1552309470919,"finger_time":1552309470659,"fix_duration":877.1967978100528,"trial":9,"RT":762,"MT":260,"sideResp":1,"stimulus":"img/250/randomdotsizeEA/L/1_Ratio_250_L_8_R_2.png","xmouse":[769,769,769,769,769,769,769,769,769,769,769,769,769,769,769,769,769,769,769,769,769,769,769,769,769,769,769,769,769,769,769,769,769,766,764,760,753,751,748,743,737,718,702,683,667,639,603,570,546,530,515,502],"ymouse":[500,500,500,500,500,500,500,500,500,500,500,500,500,500,500,500,500,500,500,500,500,500,500,500,500,500,500,500,500,500,500,500,496,492,488,483,473,470,465,460,453,435,418,397,375,346,295,239,190,154,119,78],"timestamp_mouse":[15,26,41,61,82,101,122,141,161,181,202,223,242,261,281,302,321,341,363,382,401,422,441,463,482,502,521,541,562,582,603,622,641,661,682,701,721,741,762,782,801,821,842,862,882,902,921,942,961,981,1001,1021],"xSR":741.5,"ySR":469.95,"xT1":424.9,"yT1":0,"xT2":1058.1,"yT2":0,"toosoon":0,"cond_shown":"randomdotsizeEA","ratio_trial":250,"smaller_num":"2","larger_num":"8","correct_side":1,"subjID":"sarajulianarodriguez14","gender":"1","age":"9","school":"4"},{"start_time":1552309473758,"click_time":1552309475339,"finger_time":1552309474618,"fix_duration":416.7433071593091,"trial":10,"RT":860,"MT":721,"sideResp":2,"stimulus":"img/750/equaldotsize/R/7_Ratio_750_L_3_R_4.png","xmouse":[774,774,774,774,774,774,774,774,774,774,774,774,774,774,774,774,774,774,774,774,774,774,774,774,774,774,774,774,774,774,774,774,775,777,777,778,778,779,782,788,798,814,841,873,889,901,909,919,937,945,954,962,969,985,991,997,1002,1010,1023,1030,1039,1051,1056,1078,1083,1088,1091,1094,1097,1099,1099,1100,1101,1101,1101,1101,1101,1101,1101,1108],"ymouse":[516,516,516,516,516,516,516,516,516,516,516,516,516,516,516,516,516,516,516,516,516,516,516,516,516,516,516,516,516,516,516,514,513,511,510,509,508,508,506,504,499,492,475,450,437,422,405,398,370,353,342,327,320,298,291,284,277,268,258,251,242,226,220,183,174,164,156,152,145,141,137,134,131,131,130,128,124,119,113,88],"timestamp_mouse":[10,20,41,61,81,100,122,140,161,180,202,221,240,261,281,300,321,340,361,380,401,422,441,461,480,501,522,541,560,582,600,620,641,660,680,701,720,741,760,782,800,821,841,860,880,900,920,940,961,980,1000,1021,1041,1061,1082,1101,1121,1141,1161,1180,1201,1221,1240,1261,1280,1300,1321,1340,1360,1380,1401,1421,1441,1460,1481,1500,1521,1541,1561,1581],"xSR":741.5,"ySR":469.95,"xT1":424.9,"yT1":0,"xT2":1058.1,"yT2":0,"toosoon":0,"cond_shown":"equaldotsize","ratio_trial":750,"smaller_num":"3","larger_num":"4","correct_side":2,"subjID":"sarajulianarodriguez14","gender":"1","age":"9","school":"4"},{"start_time":1552309478621,"click_time":1552309480660,"finger_time":1552309479618,"fix_duration":781.9753689877,"trial":11,"RT":997,"MT":1042,"sideResp":2,"stimulus":"img/250/equaldotsize/R/9_Ratio_250_L_3_R_12.png","xmouse":[795,795,795,795,795,795,795,795,795,795,795,795,795,795,795,795,795,795,795,795,795,795,795,795,795,795,795,795,795,795,795,795,795,795,795,795,795,795,795,795,795,795,795,795,795,795,796,796,775,724,569,490,438,420,415,416,419,421,423,423,462,532,601,670,752,943,1072,1145,1194,1221,1263,1293,1337,1390,1485,1485,1485,1485,1485,1485,1485,1485,1485,1485,1485,1485,1485,1333,1331,1326,1318,1315,1314,1310,1305,1270,1245,1220,1202,1184,1162,1153],"ymouse":[542,542,542,542,542,542,542,542,542,542,542,542,542,542,542,542,542,542,542,542,542,542,542,542,542,542,542,542,542,542,542,542,542,542,542,542,542,542,542,542,542,542,542,542,542,542,540,526,499,457,398,374,359,351,347,343,340,339,339,339,352,394,446,504,542,549,568,578,590,592,575,549,467,335,77,77,77,77,77,77,77,77,77,77,77,77,77,21,47,66,83,86,86,86,86,72,62,52,46,36,18,12],"timestamp_mouse":[17,37,62,77,98,118,138,158,177,197,218,237,259,279,297,317,338,357,378,397,419,437,458,478,497,517,537,557,578,598,618,637,658,678,697,718,737,758,777,798,818,838,858,878,897,917,938,959,977,997,1017,1037,1058,1077,1097,1117,1139,1159,1177,1197,1217,1238,1259,1278,1297,1318,1337,1357,1378,1398,1417,1438,1458,1477,1498,1518,1537,1557,1578,1598,1617,1638,1657,1678,1697,1717,1737,1757,1778,1798,1817,1838,1857,1878,1898,1917,1937,1958,1977,1998,2017,2038],"xSR":741.5,"ySR":469.95,"xT1":424.9,"yT1":0,"xT2":1058.1,"yT2":0,"toosoon":0,"cond_shown":"equaldotsize","ratio_trial":250,"smaller_num":"3","larger_num":"12","correct_side":2,"subjID":"sarajulianarodriguez14","gender":"1","age":"9","school":"4"},{"start_time":1552309482051,"click_time":1552309483038,"finger_time":1552309482638,"fix_duration":250,"trial":12,"RT":587,"MT":400,"sideResp":1,"stimulus":"img/250/equaldotsize/L/2_Ratio_250_L_16_R_4.png","xmouse":[812,812,812,811,810,810,809,809,809,809,809,809,809,809,809,809,809,809,809,809,809,809,809,809,809,809,809,804,799,772,748,717,684,635,609,603,591,589,589,588,587,585,584,581,576,571,565,558,545,520],"ymouse":[509,509,509,513,516,516,517,517,517,517,517,517,517,517,517,517,517,517,517,517,517,517,517,517,517,517,517,509,502,465,432,390,348,281,211,175,134,110,94,72,60,45,32,25,19,19,19,19,25,37],"timestamp_mouse":[10,27,47,67,87,108,129,148,168,188,208,228,248,268,288,307,328,348,367,387,408,428,448,467,488,508,527,548,567,587,608,629,647,668,688,708,728,748,768,788,807,828,847,869,887,907,928,948,968,987],"xSR":741.5,"ySR":469.95,"xT1":424.9,"yT1":0,"xT2":1058.1,"yT2":0,"toosoon":0,"cond_shown":"equaldotsize","ratio_trial":250,"smaller_num":"4","larger_num":"16","correct_side":1,"subjID":"sarajulianarodriguez14","gender":"1","age":"9","school":"4"},{"start_time":1552309484497,"click_time":1552309485819,"finger_time":1552309485138,"fix_duration":715.0371991749099,"trial":13,"RT":641,"MT":681,"sideResp":1,"stimulus":"img/250/equaldotanddens/L/2_Ratio_250_L_16_R_4.png","xmouse":[798,798,798,798,798,798,798,798,798,798,798,799,799,800,801,801,802,803,803,803,803,804,804,804,804,804,804,804,797,786,780,761,751,733,723,709,694,631,609,600,591,585,578,575,572,569,565,557,552,547,543,542,542,542,540,540,540,540,539,539,537,537,535,533,532,529,523],"ymouse":[531,531,531,531,531,531,531,531,531,531,531,530,530,528,527,527,525,525,525,524,524,523,522,522,522,522,520,519,512,502,496,479,467,440,423,403,381,306,274,255,241,225,213,209,205,201,195,183,174,169,161,145,107,93,83,76,68,63,58,56,54,54,53,53,53,52,51],"timestamp_mouse":[11,21,43,61,81,102,121,142,161,182,201,221,242,262,281,301,321,342,362,383,402,421,441,461,481,502,521,541,562,582,603,622,641,661,681,701,723,743,761,781,802,821,843,861,881,901,921,943,961,982,1001,1022,1043,1061,1082,1102,1122,1141,1161,1181,1202,1221,1242,1262,1281,1301,1322],"xSR":741.5,"ySR":469.95,"xT1":424.9,"yT1":0,"xT2":1058.1,"yT2":0,"toosoon":0,"cond_shown":"equaldotanddens","ratio_trial":250,"smaller_num":"4","larger_num":"16","correct_side":1,"subjID":"sarajulianarodriguez14","gender":"1","age":"9","school":"4"},{"start_time":1552309488537,"click_time":1552309490258,"finger_time":1552309489378,"fix_duration":437.68528496208756,"trial":14,"RT":841,"MT":880,"sideResp":2,"stimulus":"img/750/equaldotanddens/R/12_Ratio_750_L_3_R_4.png","xmouse":[788,788,788,788,788,788,788,788,788,788,788,788,788,788,788,788,788,788,788,788,788,788,788,788,788,788,788,788,788,788,788,788,788,788,788,788,788,788,788,792,804,836,856,880,900,915,942,951,961,969,978,992,995,998,1001,1007,1020,1027,1035,1042,1045,1057,1063,1071,1079,1087,1108,1113,1117,1121,1122,1123,1124,1125,1125,1125,1126,1126,1126,1126,1126,1126,1126,1126,1126,1126,1124],"ymouse":[546,546,546,546,546,546,546,546,546,546,546,546,546,546,546,546,546,546,546,546,546,546,546,546,546,546,546,546,546,546,546,546,546,546,546,546,546,546,542,542,539,527,523,518,511,504,484,477,467,457,444,405,383,362,341,328,307,304,300,295,293,280,273,265,253,238,202,186,168,158,147,135,128,125,123,122,120,120,120,120,119,118,116,114,114,107,94],"timestamp_mouse":[9,22,43,63,81,102,121,141,161,181,202,221,242,261,281,301,322,341,361,382,403,421,441,462,483,501,522,542,561,582,602,621,643,663,682,701,721,741,761,781,801,822,841,861,882,901,921,942,961,982,1002,1021,1042,1062,1082,1101,1121,1141,1163,1181,1203,1221,1241,1261,1282,1302,1321,1342,1361,1382,1402,1421,1441,1462,1482,1502,1521,1541,1562,1582,1601,1621,1641,1662,1681,1703,1721],"xSR":741.5,"ySR":469.95,"xT1":424.9,"yT1":0,"xT2":1058.1,"yT2":0,"toosoon":0,"cond_shown":"equaldotanddens","ratio_trial":750,"smaller_num":"3","larger_num":"4","correct_side":2,"subjID":"sarajulianarodriguez14","gender":"1","age":"9","school":"4"},{"start_time":1552309492245,"click_time":1552309493278,"finger_time":1552309492758,"fix_duration":542.7401013770944,"trial":15,"RT":513,"MT":520,"sideResp":1,"stimulus":"img/750/randomdotsizeEA/L/9_Ratio_750_L_4_R_3.png","xmouse":[775,775,775,775,775,775,775,775,776,776,777,777,777,777,777,778,778,778,778,779,779,781,783,784,785,785,785,782,779,772,756,745,734,724,716,707,705,701,697,683,651,635,624,617,614,603,594,584,569,557,530,513],"ymouse":[494,494,494,494,494,494,494,494,494,494,494,494,494,494,494,494,494,494,494,494,494,493,492,488,483,464,457,449,443,425,390,373,354,338,328,315,311,302,284,251,201,183,168,158,152,128,116,106,95,88,72,63],"timestamp_mouse":[14,37,53,74,93,114,134,154,174,194,213,234,255,274,294,314,333,355,373,395,414,433,454,474,493,513,533,553,574,593,614,633,654,674,693,715,733,754,774,793,814,833,853,873,894,915,934,954,975,994,1014,1033],"xSR":741.5,"ySR":469.95,"xT1":424.9,"yT1":0,"xT2":1058.1,"yT2":0,"toosoon":0,"cond_shown":"randomdotsizeEA","ratio_trial":750,"smaller_num":"3","larger_num":"4","correct_side":1,"subjID":"sarajulianarodriguez14","gender":"1","age":"9","school":"4"},{"start_time":1552309494784,"click_time":1552309496119,"finger_time":1552309495778,"fix_duration":424.7734610165413,"trial":16,"RT":994,"MT":341,"sideResp":1,"stimulus":"img/750/equaldotanddens/L/6_Ratio_750_L_24_R_18.png","xmouse":[790,790,790,790,790,790,790,790,790,790,790,790,790,790,790,790,790,790,790,790,790,792,793,794,796,796,796,796,796,796,796,796,796,796,796,796,796,796,796,796,796,796,796,796,796,796,794,790,779,746,716,698,685,661,648,634,623,618,617,613,607,599,587,564,514,493,480],"ymouse":[523,523,523,523,523,523,523,523,523,523,523,522,522,522,522,522,522,522,522,522,522,522,521,521,520,520,520,520,520,520,520,520,520,520,520,520,520,520,520,520,520,520,520,520,520,518,514,508,494,454,424,402,381,339,318,300,288,282,279,267,248,229,205,178,126,105,85],"timestamp_mouse":[14,44,54,76,95,114,135,154,175,195,214,234,255,275,296,315,335,355,374,394,414,434,455,475,495,514,534,554,574,594,615,634,654,674,696,715,735,756,774,796,814,834,855,874,894,914,935,955,975,994,1015,1035,1055,1076,1094,1115,1134,1156,1174,1195,1215,1234,1255,1275,1294,1315,1334],"xSR":741.5,"ySR":469.95,"xT1":424.9,"yT1":0,"xT2":1058.1,"yT2":0,"toosoon":0,"cond_shown":"equaldotanddens","ratio_trial":750,"smaller_num":"18","larger_num":"24","correct_side":1,"subjID":"sarajulianarodriguez14","gender":"1","age":"9","school":"4"},{"start_time":1552309498294,"click_time":1552309499658,"finger_time":1552309498999,"fix_duration":1293.248853001068,"trial":17,"RT":705,"MT":659,"sideResp":2,"stimulus":"img/250/equaldotanddens/R/13_Ratio_250_L_2_R_8.png","xmouse":[777,777,777,777,777,777,777,777,777,777,777,777,777,777,777,776,776,777,778,778,778,778,778,778,778,778,778,778,778,779,780,781,782,784,796,819,875,946,1032,1206,1276,1313,1336,1351,1362,1365,1365,1365,1365,1365,1365,1365,1365,1365,1365,1365,1365,1365,1365,1365,1365,1365,1365,1365,1365,1186,1171,1159,1151],"ymouse":[523,522,522,522,520,519,518,517,516,515,514,513,511,510,508,504,501,497,496,495,495,495,495,495,495,495,495,495,495,495,494,493,493,491,476,458,416,362,313,209,163,130,101,67,18,7,7,7,7,7,7,7,7,7,7,7,7,7,7,7,7,7,7,7,7,5,13,19,24],"timestamp_mouse":[9,25,55,65,84,105,124,145,165,185,205,225,245,265,284,304,325,345,366,384,405,425,446,465,484,505,524,546,565,584,604,625,644,665,684,705,724,745,764,785,804,824,845,864,884,904,925,944,965,985,1004,1024,1045,1064,1085,1106,1125,1144,1164,1184,1204,1224,1244,1266,1285,1304,1324,1345,1364],"xSR":741.5,"ySR":469.95,"xT1":424.9,"yT1":0,"xT2":1058.1,"yT2":0,"toosoon":0,"cond_shown":"equaldotanddens","ratio_trial":250,"smaller_num":"2","larger_num":"8","correct_side":2,"subjID":"sarajulianarodriguez14","gender":"1","age":"9","school":"4"},{"start_time":1552309501435,"click_time":1552309502318,"finger_time":1552309502019,"fix_duration":435.9892969677768,"trial":18,"RT":584,"MT":299,"sideResp":1,"stimulus":"img/500/equaldotsize/L/7_Ratio_500_L_10_R_5.png","xmouse":[786,786,786,786,786,786,786,786,786,786,786,786,786,786,786,786,786,786,786,786,786,786,786,786,786,788,789,789,789,789,789,787,776,772,761,756,749,729,716,690,646,605,544,527,513],"ymouse":[483,483,483,483,483,483,483,483,483,483,483,483,483,483,483,483,483,483,483,483,483,483,483,483,483,482,480,477,474,469,462,455,433,423,401,393,365,318,294,246,191,135,65,43,27],"timestamp_mouse":[10,24,49,64,83,103,125,143,164,184,204,224,243,263,283,305,323,344,364,383,403,423,443,463,484,504,525,544,563,584,604,624,645,663,683,703,723,744,763,783,804,824,844,863,883],"xSR":741.5,"ySR":469.95,"xT1":424.9,"yT1":0,"xT2":1058.1,"yT2":0,"toosoon":0,"cond_shown":"equaldotsize","ratio_trial":500,"smaller_num":"5","larger_num":"10","correct_side":1,"subjID":"sarajulianarodriguez14","gender":"1","age":"9","school":"4"},{"start_time":1552309504672,"click_time":1552309505819,"finger_time":1552309505318,"fix_duration":1210.0182196787216,"trial":19,"RT":646,"MT":501,"sideResp":2,"stimulus":"img/900/randomdotsizeEA/L/2_Ratio_900_L_20_R_18.png","xmouse":[792,792,792,792,792,792,792,792,792,792,792,792,792,792,792,792,792,792,792,792,792,792,792,792,792,792,792,793,794,796,803,807,812,817,819,820,827,834,845,853,856,868,878,906,937,968,995,1002,1006,1008,1009,1016,1027,1033,1039,1044,1055,1061],"ymouse":[492,492,492,492,492,492,492,492,492,492,492,492,492,492,492,492,492,492,492,492,492,492,492,492,492,492,492,491,491,490,483,478,467,460,456,450,432,421,405,390,369,323,300,230,157,99,55,43,38,35,33,30,29,29,29,29,29,30],"timestamp_mouse":[9,26,50,67,86,108,127,147,167,187,206,227,246,267,286,306,326,347,366,387,408,427,447,466,487,506,526,546,567,587,608,627,646,666,687,707,726,747,766,787,806,826,846,866,887,907,926,947,967,986,1007,1026,1046,1067,1086,1106,1127,1147],"xSR":741.5,"ySR":469.95,"xT1":424.9,"yT1":0,"xT2":1058.1,"yT2":0,"toosoon":0,"cond_shown":"randomdotsizeEA","ratio_trial":900,"smaller_num":"18","larger_num":"20","correct_side":1,"subjID":"sarajulianarodriguez14","gender":"1","age":"9","school":"4"},{"start_time":1552309507799,"click_time":1552309508838,"finger_time":1552309508479,"fix_duration":1057.2948537732548,"trial":20,"RT":680,"MT":359,"sideResp":1,"stimulus":"img/500/equaldotanddens/L/4_Ratio_500_L_18_R_9.png","xmouse":[789,789,789,789,789,793,795,797,800,801,801,801,801,801,801,801,801,801,801,801,801,801,801,801,801,801,801,801,801,801,801,802,802,802,801,722,681,641,641,641,641,641,641,641,641,641,641,641,641,641,641,641,458],"ymouse":[532,532,532,532,532,529,525,522,519,516,516,516,516,516,516,516,516,516,516,516,516,516,516,516,516,516,516,516,516,516,516,512,505,490,437,164,67,0,0,0,0,0,0,0,0,0,0,0,0,0,0,0,9],"timestamp_mouse":[1,19,39,64,79,100,119,139,159,180,200,219,240,259,280,300,320,341,359,380,400,420,441,459,481,500,520,539,560,580,603,620,639,659,680,700,720,739,760,779,799,820,840,860,880,899,920,939,959,979,999,1019,1039],"xSR":741.5,"ySR":469.95,"xT1":424.9,"yT1":0,"xT2":1058.1,"yT2":0,"toosoon":0,"cond_shown":"equaldotanddens","ratio_trial":500,"smaller_num":"9","larger_num":"18","correct_side":1,"subjID":"sarajulianarodriguez14","gender":"1","age":"9","school":"4"},{"start_time":1552309511092,"click_time":1552309512318,"finger_time":1552309511919,"fix_duration":892.9206038732361,"trial":21,"RT":827,"MT":399,"sideResp":1,"stimulus":"img/500/randomdotsizeEA/L/10_Ratio_500_L_4_R_2.png","xmouse":[795,795,795,795,795,795,797,798,800,801,801,801,801,801,801,801,801,801,801,801,801,801,802,802,802,802,802,802,802,802,802,802,802,802,802,802,802,801,801,801,801,788,777,766,750,710,695,676,670,649,629,625,621,618,614,611,603,602,593,585,546,516],"ymouse":[510,510,510,510,510,510,509,508,507,506,506,506,506,506,506,506,506,506,506,506,506,506,506,506,507,508,510,510,510,510,510,510,510,510,510,510,506,502,493,482,470,429,404,383,355,296,276,250,242,211,184,176,173,167,161,157,142,138,129,121,83,56],"timestamp_mouse":[10,27,48,67,86,106,126,146,167,187,207,227,247,267,286,306,327,346,366,388,407,427,448,467,486,507,526,546,566,588,607,626,646,667,687,707,727,746,767,787,806,827,846,867,887,908,926,946,966,986,1008,1026,1046,1068,1086,1106,1126,1146,1167,1186,1208,1226],"xSR":741.5,"ySR":469.95,"xT1":424.9,"yT1":0,"xT2":1058.1,"yT2":0,"toosoon":0,"cond_shown":"randomdotsizeEA","ratio_trial":500,"smaller_num":"2","larger_num":"4","correct_side":1,"subjID":"sarajulianarodriguez14","gender":"1","age":"9","school":"4"},{"start_time":1552309514750,"click_time":1552309516117,"finger_time":1552309515697,"fix_duration":1469.9438522531448,"trial":22,"RT":947,"MT":420,"sideResp":1,"stimulus":"img/750/randomdotsizeEA/R/5_Ratio_750_L_15_R_20.png","xmouse":[766,766,766,766,766,766,768,769,769,769,769,769,769,769,769,769,769,769,769,769,769,769,769,769,769,770,771,771,772,772,772,772,772,770,770,769,769,769,769,769,769,769,769,770,772,774,774,775,767,737,691,635,581,542,542,542,542,542,542,542,542,542,542,542,542,542,542,495,502],"ymouse":[524,524,524,524,524,523,522,520,520,520,520,520,520,520,520,520,520,520,520,520,520,520,520,520,520,519,518,517,517,515,514,510,507,501,500,498,498,498,498,497,497,496,495,490,487,482,477,460,335,258,190,121,52,8,8,8,8,8,8,8,8,8,8,8,8,8,8,0,22],"timestamp_mouse":[11,28,53,68,88,109,128,149,169,188,209,230,248,269,288,309,328,348,368,389,410,429,449,468,488,508,528,550,568,588,609,628,648,668,689,709,728,747,766,787,808,826,847,867,888,908,928,947,968,987,1007,1028,1048,1067,1087,1107,1128,1147,1167,1187,1207,1228,1248,1268,1287,1307,1327,1348,1367],"xSR":741.5,"ySR":469.95,"xT1":424.9,"yT1":0,"xT2":1058.1,"yT2":0,"toosoon":0,"cond_shown":"randomdotsizeEA","ratio_trial":750,"smaller_num":"15","larger_num":"20","correct_side":2,"subjID":"sarajulianarodriguez14","gender":"1","age":"9","school":"4"},{"start_time":1552309518118,"click_time":1552309520218,"finger_time":1552309519738,"fix_duration":539.8289402542102,"trial":23,"RT":1620,"MT":480,"sideResp":2,"stimulus":"img/250/randomdotsizeEA/R/4_Ratio_250_L_3_R_12.png","xmouse":[766,765,765,765,765,765,765,765,765,765,765,765,765,765,765,765,765,765,765,765,765,765,765,767,770,771,772,773,773,773,774,774,775,776,794,799,801,802,804,804,804,804,804,804,804,804,804,805,805,805,805,805,806,807,808,810,811,813,813,813,813,813,813,813,813,813,813,813,813,813,813,813,813,813,813,813,813,813,816,839,863,914,929,962,987,1000,1014,1030,1046,1059,1089,1101,1118,1127,1135,1145,1146,1147,1147,1147,1147,1147,1143,1132,1112],"ymouse":[502,502,502,502,502,502,502,502,502,502,502,502,502,502,502,502,502,502,502,502,502,502,502,502,502,502,502,502,502,502,502,502,502,502,502,504,505,506,506,506,506,506,506,506,506,506,505,504,502,499,498,496,496,495,494,492,491,490,490,490,490,490,490,490,490,490,490,490,490,490,490,490,490,490,490,490,490,490,488,472,457,428,418,404,389,381,370,358,348,336,310,296,275,263,252,238,232,221,208,184,173,161,138,124,96],"timestamp_mouse":[23,40,63,80,99,119,140,160,180,200,220,239,259,279,300,320,339,360,380,400,419,440,459,480,499,520,540,558,579,599,620,638,659,679,699,720,740,759,780,800,820,838,859,880,899,919,940,959,980,999,1019,1038,1060,1080,1099,1118,1140,1160,1179,1199,1219,1239,1260,1280,1299,1319,1340,1360,1378,1398,1418,1440,1460,1478,1500,1519,1540,1560,1578,1600,1620,1639,1660,1680,1700,1719,1739,1759,1780,1800,1819,1840,1859,1879,1900,1919,1939,1960,1980,2000,2019,2039,2059,2079,2100],"xSR":741.5,"ySR":469.95,"xT1":424.9,"yT1":0,"xT2":1058.1,"yT2":0,"toosoon":0,"cond_shown":"randomdotsizeEA","ratio_trial":250,"smaller_num":"3","larger_num":"12","correct_side":2,"subjID":"sarajulianarodriguez14","gender":"1","age":"9","school":"4"},{"start_time":1552309522357,"click_time":1552309523917,"finger_time":1552309523418,"fix_duration":1218.379213286032,"trial":24,"RT":1061,"MT":499,"sideResp":2,"stimulus":"img/500/randomdotsizeEA/R/12_Ratio_500_L_1_R_2.png","xmouse":[782,782,782,782,782,782,782,782,782,782,782,782,782,782,782,782,782,782,782,782,782,782,782,782,782,782,782,782,782,782,782,782,782,782,784,785,786,787,787,787,787,787,787,787,787,789,790,791,793,799,809,820,837,865,954,1003,1050,1092,1129,1196,1218,1234,1246,1256,1266,1266,1266,1264,1261,1254,1250,1246,1242,1235,1214,1199,1178,1161,1136],"ymouse":[534,534,534,534,534,534,534,534,534,534,534,534,534,534,534,534,534,534,534,534,534,534,534,534,534,534,534,534,534,534,534,534,534,534,533,531,529,528,527,526,526,526,526,526,525,523,522,522,521,516,510,503,493,473,406,373,348,326,304,262,240,217,199,178,133,101,78,58,45,35,34,33,33,33,33,36,39,43,52],"timestamp_mouse":[6,23,45,61,81,101,120,141,160,180,200,220,241,261,281,300,320,341,361,381,400,421,440,460,480,500,520,541,560,580,600,620,641,660,680,700,720,741,761,780,800,820,840,861,881,901,920,939,960,981,1000,1021,1041,1061,1079,1101,1120,1140,1161,1180,1201,1220,1240,1261,1280,1300,1320,1340,1361,1380,1400,1421,1439,1461,1481,1500,1520,1541,1560],"xSR":741.5,"ySR":469.95,"xT1":424.9,"yT1":0,"xT2":1058.1,"yT2":0,"toosoon":0,"cond_shown":"randomdotsizeEA","ratio_trial":500,"smaller_num":"1","larger_num":"2","correct_side":2,"subjID":"sarajulianarodriguez14","gender":"1","age":"9","school":"4"},{"start_time":1552309528292,"click_time":1552309529239,"finger_time":1552309528978,"fix_duration":1354.2981426457716,"trial":25,"RT":686,"MT":261,"sideResp":1,"stimulus":"img/900/equaldotanddens/L/1_Ratio_900_L_10_R_9.png","xmouse":[770,770,770,770,770,770,770,770,770,770,770,770,770,770,770,770,770,770,770,770,770,770,770,770,770,770,770,771,771,771,771,771,765,743,723,696,674,638,627,620,611,600,582,569,549,529,516,502],"ymouse":[536,536,536,536,536,536,536,536,536,536,536,536,536,536,536,536,536,536,536,536,536,536,536,536,536,536,536,536,536,535,532,521,508,470,448,428,411,385,375,367,356,345,318,294,255,218,177,66],"timestamp_mouse":[11,26,50,65,86,105,125,145,165,186,205,226,246,264,286,305,326,345,365,386,406,426,445,466,485,505,525,545,564,586,606,626,645,665,686,706,725,746,765,785,805,826,846,865,886,905,925,947],"xSR":741.5,"ySR":469.95,"xT1":424.9,"yT1":0,"xT2":1058.1,"yT2":0,"toosoon":0,"cond_shown":"equaldotanddens","ratio_trial":900,"smaller_num":"9","larger_num":"10","correct_side":1,"subjID":"sarajulianarodriguez14","gender":"1","age":"9","school":"4"},{"start_time":1552309531629,"click_time":1552309532677,"finger_time":1552309532177,"fix_duration":250,"trial":26,"RT":548,"MT":500,"sideResp":2,"stimulus":"img/250/equaldotanddens/R/8_Ratio_250_L_1_R_4.png","xmouse":[780,780,780,780,780,780,780,780,780,780,780,780,780,780,780,780,780,780,780,780,780,783,787,794,803,811,832,854,874,904,941,1014,1054,1077,1095,1114,1155,1172,1188,1201,1201,1201,1201,1201,1201,1201,1201,1201,1201,1201,1201,1201,1130],"ymouse":[558,558,558,558,558,558,558,558,558,558,558,558,558,558,558,558,558,558,558,558,558,555,552,546,538,529,501,478,462,438,417,368,327,300,275,250,176,138,88,0,0,0,0,0,0,0,0,0,0,0,0,0,29],"timestamp_mouse":[10,40,48,68,89,109,129,148,168,189,209,229,248,268,289,308,328,347,369,389,408,428,449,468,489,509,528,548,568,588,608,627,648,668,688,708,728,748,768,788,809,828,848,868,888,908,928,949,968,988,1009,1028,1048],"xSR":741.5,"ySR":469.95,"xT1":424.9,"yT1":0,"xT2":1058.1,"yT2":0,"toosoon":0,"cond_shown":"equaldotanddens","ratio_trial":250,"smaller_num":"1","larger_num":"4","correct_side":2,"subjID":"sarajulianarodriguez14","gender":"1","age":"9","school":"4"},{"start_time":1552309536197,"click_time":1552309542317,"finger_time":1552309541778,"fix_duration":1218.6093978058416,"trial":27,"RT":5581,"MT":539,"sideResp":2,"stimulus":"img/500/equaldotanddens/L/11_Ratio_500_L_12_R_6.png","xmouse":[805,805,805,805,805,805,805,805,805,805,805,805,805,805,805,805,805,805,805,805,805,805,805,805,805,805,805,805,805,805,805,805,805,805,805,805,805,805,805,805,805,805,805,805,805,805,805,805,805,805,805,805,805,805,805,805,805,805,805,805,805,805,805,805,805,805,805,805,805,805,805,805,805,805,805,805,805,805,805,805,805,805,805,805,805,805,805,805,805,805,805,805,805,805,805,805,805,805,805,805,805,805,805,805,805,805,805,805,805,805,805,805,805,805,805,805,805,805,805,805,805,805,805,805,805,805,805,805,805,805,805,805,805,805,805,805,804,802,802,802,802,802,802,802,802,802,802,802,802,802,802,802,802,802,800,795,789,779,757,751,751,751,750,749,749,747,746,745,745,745,745,745,745,745,745,745,745,745,745,745,745,745,745,745,745,745,745,745,745,745,745,745,745,745,745,745,745,745,745,745,745,745,745,745,745,745,745,745,745,748,752,759,769,779,796,801,804,807,809,811,811,811,811,811,811,811,812,813,814,815,815,815,815,815,815,815,815,815,815,815,815,815,814,813,812,812,812,812,812,812,811,810,810,809,809,809,809,809,809,808,808,808,807,807,806,806,806,806,806,806,806,806,806,806,806,806,810,816,833,860,879,888,894,893,887,898,911,928,940,966,988,1009,1034,1076,1137,1158,1167,1175,1176,1184,1191,1195,1195,1195,1183,1168,1156],"ymouse":[545,545,545,545,545,545,545,545,545,545,545,545,545,545,545,545,545,545,545,545,545,545,545,543,541,540,539,538,538,538,538,538,538,538,538,538,538,538,538,538,538,538,538,538,538,538,537,537,537,537,537,537,537,537,537,537,537,537,537,537,537,537,537,537,537,537,537,536,536,535,535,535,535,535,535,535,535,535,535,535,535,535,535,535,535,535,535,535,535,535,535,535,535,535,535,535,535,535,535,535,535,535,535,535,535,535,535,535,535,535,535,535,535,535,535,535,535,535,535,535,535,535,535,535,535,535,535,535,535,535,535,535,535,535,535,535,535,535,534,534,534,534,534,534,534,534,534,534,534,534,534,534,534,534,531,527,524,518,507,506,506,506,506,507,507,507,507,508,508,508,508,508,508,508,508,508,508,508,508,508,508,508,508,508,508,508,508,508,508,508,508,508,508,508,508,508,508,508,508,508,508,508,508,508,508,508,508,508,508,509,511,512,515,517,518,518,518,518,518,518,518,518,518,518,518,518,518,518,516,514,514,514,513,513,513,513,513,513,513,513,513,513,513,514,515,515,515,515,515,515,515,516,517,517,517,517,517,518,518,519,519,519,520,522,522,522,522,522,522,522,523,523,523,523,523,523,523,523,523,509,494,479,443,380,294,272,252,238,230,216,209,206,202,192,181,171,165,158,151,111,96,77,65,52,45,51,54],"timestamp_mouse":[9,19,43,61,80,100,120,140,161,180,201,220,240,261,280,300,320,340,361,381,400,421,440,460,481,501,521,541,561,581,600,621,640,661,681,700,721,740,761,780,801,820,840,860,879,901,921,940,960,981,1001,1020,1039,1061,1081,1101,1120,1141,1160,1181,1200,1221,1241,1260,1281,1301,1319,1340,1360,1381,1401,1421,1441,1461,1480,1500,1520,1540,1559,1581,1601,1620,1640,1660,1681,1701,1719,1741,1760,1780,1801,1819,1841,1860,1880,1900,1921,1941,1960,1981,2001,2021,2041,2060,2081,2101,2121,2139,2160,2181,2200,2221,2241,2261,2281,2300,2320,2340,2361,2381,2401,2420,2441,2461,2481,2501,2521,2541,2560,2581,2601,2621,2640,2661,2680,2701,2721,2741,2761,2781,2801,2820,2841,2860,2881,2901,2920,2941,2960,2980,3001,3021,3040,3060,3080,3101,3121,3140,3161,3180,3200,3220,3241,3260,3281,3300,3320,3341,3361,3380,3401,3421,3441,3460,3481,3500,3521,3541,3561,3580,3601,3619,3641,3661,3679,3701,3721,3740,3761,3780,3800,3821,3840,3860,3879,3901,3921,3939,3960,3981,4001,4020,4040,4060,4081,4100,4121,4140,4161,4179,4200,4221,4241,4260,4281,4300,4320,4341,4361,4381,4400,4420,4441,4461,4479,4500,4520,4541,4561,4579,4600,4621,4639,4660,4681,4701,4721,4741,4761,4780,4800,4820,4841,4859,4881,4900,4919,4941,4959,4981,5000,5021,5041,5061,5080,5100,5119,5141,5160,5181,5200,5221,5239,5260,5281,5300,5319,5341,5360,5381,5400,5419,5441,5460,5481,5501,5520,5540,5560,5581,5600,5619,5640,5660,5680,5700,5720,5740,5761,5780,5801,5820,5840,5860,5879,5900,5920,5940,5960,5980,6000,6020,6040,6061,6080,6100,6120],"xSR":741.5,"ySR":469.95,"xT1":424.9,"yT1":0,"xT2":1058.1,"yT2":0,"toosoon":0,"cond_shown":"equaldotanddens","ratio_trial":500,"smaller_num":"6","larger_num":"12","correct_side":1,"subjID":"sarajulianarodriguez14","gender":"1","age":"9","school":"4"},{"start_time":1552309544765,"click_time":1552309545937,"finger_time":1552309545337,"fix_duration":987.7452934355459,"trial":28,"RT":572,"MT":600,"sideResp":1,"stimulus":"img/500/equaldotanddens/L/11_Ratio_500_L_12_R_6.png","xmouse":[798,798,798,798,798,798,798,798,798,798,800,800,800,800,800,800,800,800,801,801,801,801,801,801,800,799,792,783,768,712,565,476,395,395,395,395,395,395,395,395,395,395,395,254,268,299,340,356,370,374,383,388,397,410,420,427,431,434,440],"ymouse":[507,507,507,507,507,507,507,507,507,507,505,505,503,503,502,502,501,501,500,500,499,498,498,496,494,491,481,471,450,387,235,137,48,48,48,48,48,48,48,48,48,48,48,7,22,46,74,87,96,98,102,104,108,111,112,112,109,104,96],"timestamp_mouse":[19,32,52,72,93,112,133,153,173,193,213,233,252,272,293,313,332,352,372,393,413,432,452,473,492,512,532,552,572,593,613,632,652,672,692,712,732,753,773,793,812,832,852,872,891,913,932,952,972,992,1014,1032,1052,1072,1093,1114,1132,1153,1172],"xSR":741.5,"ySR":469.95,"xT1":424.9,"yT1":0,"xT2":1058.1,"yT2":0,"toosoon":0,"cond_shown":"equaldotanddens","ratio_trial":500,"smaller_num":"6","larger_num":"12","correct_side":1,"subjID":"sarajulianarodriguez14","gender":"1","age":"9","school":"4"},{"start_time":1552309547071,"click_time":1552309548358,"finger_time":1552309547938,"fix_duration":250,"trial":29,"RT":867,"MT":420,"sideResp":2,"stimulus":"img/750/randomdotsizeEA/L/10_Ratio_750_L_4_R_3.png","xmouse":[779,779,779,781,783,783,785,785,785,785,786,786,786,786,787,788,789,790,790,791,792,792,793,794,796,798,799,799,799,799,799,799,799,799,799,799,800,802,802,802,806,813,832,848,862,868,948,988,1033,1072,1115,1204,1216,1243,1251,1251,1251,1251,1251,1251,1251,1251,1251,1166,1146],"ymouse":[522,522,522,523,524,525,525,525,525,525,525,525,525,525,525,525,525,525,524,524,523,523,522,522,520,519,518,518,518,518,518,518,518,518,518,518,518,518,518,518,518,518,510,498,480,460,370,319,266,218,171,61,44,10,1,1,1,1,1,1,1,1,1,6,8],"timestamp_mouse":[9,27,45,65,86,107,126,146,165,187,206,226,245,267,285,307,326,347,367,386,406,427,446,467,486,506,526,547,567,586,607,626,647,667,686,706,726,746,767,787,807,826,847,867,886,908,926,947,966,987,1006,1025,1046,1066,1086,1106,1126,1146,1166,1186,1207,1226,1245,1266,1287],"xSR":741.5,"ySR":469.95,"xT1":424.9,"yT1":0,"xT2":1058.1,"yT2":0,"toosoon":0,"cond_shown":"randomdotsizeEA","ratio_trial":750,"smaller_num":"3","larger_num":"4","correct_side":1,"subjID":"sarajulianarodriguez14","gender":"1","age":"9","school":"4"},{"start_time":1552309554027,"click_time":1552309555717,"finger_time":1552309554757,"fix_duration":1409.0008367313421,"trial":30,"RT":730,"MT":960,"sideResp":2,"stimulus":"img/500/equaldotsize/R/2_Ratio_500_L_3_R_6.png","xmouse":[785,785,785,785,785,785,785,785,785,785,785,785,785,785,785,785,785,785,785,785,785,785,785,785,785,785,785,785,785,785,785,785,785,785,803,819,825,837,846,854,856,859,859,864,865,868,873,879,886,903,918,928,943,976,991,1004,1013,1021,1031,1035,1038,1040,1041,1041,1041,1041,1041,1041,1042,1044,1044,1045,1045,1045,1045,1047,1052,1055,1062,1066,1068,1071,1072,1074,1075],"ymouse":[503,503,503,503,503,503,503,503,503,503,503,503,503,503,503,503,503,503,503,503,503,503,503,503,503,503,503,503,503,503,503,503,503,502,486,476,469,458,443,423,412,404,398,390,388,385,380,373,366,344,327,318,305,276,263,252,241,228,212,202,196,188,182,173,165,160,156,151,144,125,118,113,113,113,113,111,110,109,106,104,102,102,101,100,99],"timestamp_mouse":[10,41,50,70,91,111,130,149,170,191,211,231,251,271,290,310,330,351,371,391,411,430,451,470,490,511,530,551,571,590,611,631,651,671,690,711,730,751,771,790,810,831,850,871,889,911,930,951,970,991,1010,1030,1050,1070,1090,1111,1131,1150,1171,1190,1210,1231,1250,1270,1289,1311,1330,1350,1369,1389,1410,1430,1450,1471,1491,1510,1531,1550,1571,1590,1611,1630,1650,1671,1690],"xSR":741.5,"ySR":469.95,"xT1":424.9,"yT1":0,"xT2":1058.1,"yT2":0,"toosoon":0,"cond_shown":"equaldotsize","ratio_trial":500,"smaller_num":"3","larger_num":"6","correct_side":2,"subjID":"sarajulianarodriguez14","gender":"1","age":"9","school":"4"},{"start_time":1552309558286,"click_time":1552309559378,"finger_time":1552309558938,"fix_duration":1107.6259830633762,"trial":31,"RT":652,"MT":440,"sideResp":1,"stimulus":"img/750/equaldotanddens/L/1_Ratio_750_L_20_R_15.png","xmouse":[762,762,762,762,762,762,762,762,762,762,762,762,762,762,763,763,763,763,763,763,763,763,763,763,763,763,766,769,770,772,772,758,733,679,619,543,400,387,385,385,385,382,382,381,381,381,395,412,430,448,462,477,480,481,481],"ymouse":[532,535,536,536,539,540,541,542,543,544,544,544,544,544,545,545,545,546,546,546,547,547,548,548,548,548,550,550,550,550,548,531,513,477,418,337,189,175,169,164,158,141,140,138,136,134,131,129,126,121,116,107,104,101,99],"timestamp_mouse":[11,32,63,72,92,112,131,151,171,191,212,230,252,272,292,312,331,352,371,392,411,430,451,471,492,511,532,550,572,591,612,631,652,671,691,711,731,750,771,792,811,830,851,871,892,911,930,952,971,991,1013,1031,1051,1071,1092],"xSR":741.5,"ySR":469.95,"xT1":424.9,"yT1":0,"xT2":1058.1,"yT2":0,"toosoon":0,"cond_shown":"equaldotanddens","ratio_trial":750,"smaller_num":"15","larger_num":"20","correct_side":1,"subjID":"sarajulianarodriguez14","gender":"1","age":"9","school":"4"},{"start_time":1552309562788,"click_time":1552309564037,"finger_time":1552309563438,"fix_duration":848.5370959114274,"trial":32,"RT":650,"MT":599,"sideResp":1,"stimulus":"img/750/equaldotanddens/L/1_Ratio_750_L_20_R_15.png","xmouse":[799,797,792,791,790,790,790,790,790,790,790,790,790,790,790,790,790,790,790,790,790,790,790,790,790,789,786,783,777,765,757,747,730,723,716,708,690,678,668,644,630,599,587,575,564,553,544,530,522,521,521,521,522,524,527,530,530,530,530,530,528,527,522],"ymouse":[518,518,517,516,516,516,516,516,516,516,516,516,516,516,516,516,516,516,516,516,516,516,516,516,516,515,513,510,506,496,491,483,472,464,456,444,421,407,395,370,355,321,305,293,279,266,251,223,200,189,175,166,134,117,102,93,76,70,65,56,51,49,41],"timestamp_mouse":[9,28,49,69,90,110,130,150,169,190,210,230,250,269,290,310,329,350,370,390,410,430,450,469,489,508,529,550,569,589,610,629,650,669,689,709,730,749,769,789,810,830,850,869,890,908,929,950,969,988,1010,1030,1050,1069,1090,1110,1130,1148,1168,1188,1209,1229,1249],"xSR":741.5,"ySR":469.95,"xT1":424.9,"yT1":0,"xT2":1058.1,"yT2":0,"toosoon":0,"cond_shown":"equaldotanddens","ratio_trial":750,"smaller_num":"15","larger_num":"20","correct_side":1,"subjID":"sarajulianarodriguez14","gender":"1","age":"9","school":"4"},{"start_time":1552309567779,"click_time":1552309578716,"finger_time":1552309573657,"fix_duration":1481.400364669806,"trial":33,"RT":5878,"MT":5059,"sideResp":2,"stimulus":"img/750/equaldotsize/R/2_Ratio_750_L_6_R_8.png","xmouse":[800,800,800,800,800,800,800,800,800,800,800,800,800,800,800,800,800,800,800,800,800,800,800,800,800,800,800,800,800,800,800,800,800,800,800,800,800,800,800,800,800,800,800,800,800,800,800,800,800,800,800,800,800,800,800,800,800,800,800,800,800,800,800,800,800,800,800,800,800,800,800,800,800,800,800,800,800,800,800,800,800,800,800,800,800,800,800,800,800,800,800,800,800,800,800,800,800,800,800,800,800,800,800,800,800,800,800,800,800,800,800,800,800,800,800,800,800,800,800,800,800,800,800,800,800,800,800,800,800,800,800,800,800,800,800,800,800,800,800,800,800,800,800,800,800,800,800,800,800,800,800,800,800,800,800,800,800,800,800,800,800,800,800,800,800,800,800,800,800,800,800,800,800,800,800,800,800,800,800,800,800,800,800,800,800,800,800,800,800,800,800,800,800,800,800,800,800,800,800,800,800,800,800,800,800,800,800,800,800,800,800,800,800,800,800,800,800,800,800,800,800,800,800,800,800,800,800,800,800,800,800,800,800,800,800,800,800,800,800,800,800,800,800,800,800,800,800,800,800,800,800,800,800,800,800,800,800,800,800,800,800,800,800,800,800,800,800,800,800,800,800,800,800,800,800,800,800,800,800,800,800,800,800,800,800,800,800,800,800,800,800,790,782,682,630,591,588,588,588,588,588,587,591,592,592,592,583,573,540,522,509,501,494,493,493,493,493,493,493,493,493,493,493,493,493,493,493,494,493,488,477,458,377,321,303,284,273,259,219,207,200,198,198,198,198,200,204,217,295,367,442,515,640,681,719,736,751,759,765,766,766,766,766,766,766,767,768,769,769,769,769,770,770,764,755,745,740,738,737,737,737,737,738,746,752,759,765,770,772,772,772,772,772,772,772,772,772,774,776,777,777,779,780,783,785,789,802,825,875,890,897,897,897,898,898,896,892,886,868,856,841,825,816,806,805,805,805,805,805,805,805,804,804,804,804,801,800,799,798,798,798,798,798,798,798,798,798,798,798,798,798,798,798,798,798,798,798,798,798,798,798,798,798,798,798,798,798,798,798,798,798,798,798,798,798,798,798,798,798,798,798,798,798,798,798,798,798,798,798,798,798,798,798,798,800,800,801,801,801,801,801,801,801,801,801,799,798,796,796,796,796,796,796,798,806,816,834,851,876,881,884,885,885,895,903,914,920,938,938,938,938,938,938,938,938,938,938,938,938,938,938,938,1039,1047,1053,1058,1061],"ymouse":[536,536,536,536,536,536,536,536,536,536,536,536,536,536,536,536,536,536,536,536,536,536,536,536,536,536,536,536,537,537,537,537,537,537,537,537,537,537,537,537,537,537,537,537,537,537,537,537,537,537,537,537,537,537,537,537,537,537,537,537,537,537,537,537,537,537,537,537,537,537,537,537,537,537,537,537,537,537,537,537,537,537,537,537,537,537,537,537,537,537,537,537,537,537,537,537,537,537,537,537,537,537,537,537,537,537,537,537,537,537,537,537,537,537,537,537,537,537,537,537,537,537,537,537,537,537,537,537,537,537,537,537,537,537,537,537,537,537,537,537,537,537,537,537,537,537,537,537,537,537,537,537,537,537,537,537,537,537,537,537,537,537,537,537,537,537,537,537,537,537,537,537,537,537,537,537,537,537,537,537,537,537,537,537,537,537,537,537,537,537,537,537,537,537,537,537,537,537,537,537,537,537,537,537,537,537,537,537,537,537,537,537,537,537,537,537,537,537,537,537,537,537,537,537,537,537,537,537,537,537,537,537,537,537,537,537,537,537,537,537,537,537,537,537,537,537,537,537,537,537,537,537,537,537,537,537,537,537,537,537,537,537,537,537,537,537,537,537,537,537,537,537,537,537,537,537,537,537,537,537,537,537,537,537,537,537,537,537,537,537,537,537,537,549,565,572,573,573,573,573,573,573,559,549,548,547,547,549,578,597,616,625,632,633,633,633,633,633,633,633,633,633,633,633,633,633,635,639,643,645,645,643,607,582,573,569,567,566,566,568,569,570,570,570,571,571,573,579,611,638,670,691,702,693,683,679,675,671,663,660,655,651,649,646,637,630,626,625,623,623,623,622,613,591,575,561,551,546,529,522,515,510,507,503,503,503,505,506,507,507,507,507,507,507,507,507,507,509,510,511,511,511,511,512,513,513,513,514,511,517,519,520,520,520,520,522,523,525,527,528,528,528,528,528,528,528,528,528,528,528,528,528,528,528,528,528,528,528,528,528,528,528,528,528,528,528,528,528,528,528,528,528,528,528,528,528,528,528,528,528,528,528,528,528,528,528,528,528,528,528,528,528,528,528,528,528,528,528,528,528,528,528,528,528,528,528,528,528,528,528,528,528,528,528,525,522,521,521,521,521,521,521,521,521,521,521,522,524,525,525,525,525,526,526,521,512,495,472,407,376,333,286,239,134,94,59,33,1,1,1,1,1,1,1,1,1,1,1,1,1,1,1,4,20,29,35,39],"timestamp_mouse":[28,41,59,78,98,118,138,157,178,198,218,238,259,279,298,318,338,358,378,398,419,439,459,479,498,519,539,557,577,599,619,638,659,679,698,719,739,757,779,798,819,837,858,879,899,919,938,959,978,999,1019,1038,1059,1079,1098,1119,1139,1159,1177,1199,1218,1238,1259,1278,1299,1319,1339,1357,1379,1399,1418,1437,1458,1478,1499,1519,1538,1558,1578,1599,1618,1639,1658,1679,1698,1719,1739,1759,1777,1798,1819,1839,1859,1878,1899,1919,1939,1958,1978,1997,2017,2038,2058,2078,2099,2119,2138,2157,2179,2199,2219,2238,2258,2278,2298,2317,2339,2358,2377,2398,2418,2439,2458,2479,2498,2518,2539,2558,2579,2598,2618,2639,2658,2678,2699,2719,2738,2758,2777,2798,2819,2837,2858,2879,2899,2918,2939,2957,2978,2999,3019,3039,3057,3079,3099,3119,3138,3158,3179,3198,3219,3238,3258,3279,3298,3319,3338,3358,3378,3398,3418,3438,3458,3478,3498,3519,3538,3558,3579,3599,3617,3637,3658,3678,3697,3719,3738,3758,3778,3799,3818,3837,3859,3878,3898,3919,3939,3958,3979,3999,4018,4038,4058,4078,4099,4118,4137,4159,4179,4198,4218,4238,4259,4279,4298,4319,4337,4357,4378,4398,4418,4439,4458,4479,4497,4518,4538,4559,4578,4600,4617,4639,4659,4679,4699,4719,4737,4758,4779,4799,4819,4839,4858,4878,4898,4919,4939,4958,4977,4998,5018,5039,5059,5078,5099,5119,5139,5158,5179,5198,5219,5238,5259,5278,5297,5319,5338,5358,5379,5399,5418,5438,5459,5478,5499,5518,5539,5557,5578,5599,5618,5638,5657,5679,5699,5719,5738,5758,5778,5799,5818,5839,5858,5878,5898,5919,5938,5958,5978,5998,6018,6039,6059,6078,6098,6119,6138,6159,6178,6198,6219,6237,6259,6277,6299,6318,6339,6359,6378,6398,6418,6438,6458,6477,6499,6519,6537,6558,6578,6598,6619,6638,6660,6678,6699,6719,6739,6758,6778,6799,6818,6838,6858,6877,6897,6918,6938,6959,6979,6999,7018,7039,7059,7078,7099,7119,7138,7158,7177,7198,7219,7238,7259,7278,7298,7318,7338,7359,7378,7398,7419,7438,7459,7477,7499,7518,7539,7558,7577,7598,7618,7639,7658,7678,7699,7717,7736,7757,7777,7798,7818,7837,7858,7877,7898,7918,7936,7956,7977,7998,8017,8038,8057,8076,8096,8117,8137,8158,8178,8196,8216,8238,8257,8277,8298,8316,8336,8356,8376,8396,8417,8438,8458,8476,8497,8517,8537,8556,8576,8598,8618,8637,8656,8678,8698,8717,8737,8757,8776,8797,8817,8838,8856,8878,8897,8917,8937,8957,8977,8997,9017,9037,9058,9078,9098,9116,9136,9157,9178,9197,9218,9236,9257,9278,9298,9316,9338,9356,9378,9397,9418,9437,9457,9477,9496,9517,9538,9557,9578,9598,9616,9638,9658,9677,9697,9717,9738,9757,9777,9797,9818,9837,9857,9878,9897,9916,9938,9958,9976,9998,10017,10036,10058,10077,10096,10117,10136,10158,10177,10197,10218,10238,10257,10277,10297,10317,10337,10357,10378,10396,10416,10438,10458,10477,10498,10517,10537,10556,10577,10597,10616,10637,10657,10677,10698,10717,10737,10758,10777,10798,10818,10836,10858,10877,10897,10916,10937],"xSR":741.5,"ySR":469.95,"xT1":424.9,"yT1":0,"xT2":1058.1,"yT2":0,"toosoon":0,"cond_shown":"equaldotsize","ratio_trial":750,"smaller_num":"6","larger_num":"8","correct_side":2,"subjID":"sarajulianarodriguez14","gender":"1","age":"9","school":"4"},{"start_time":1552309581657,"click_time":1552309583576,"finger_time":1552309582477,"fix_duration":539.8611032649909,"trial":34,"RT":820,"MT":1099,"sideResp":2,"stimulus":"img/500/equaldotanddens/R/12_Ratio_500_L_1_R_2.png","xmouse":[778,778,778,778,778,778,778,778,778,778,778,778,778,778,778,778,778,778,778,778,778,778,778,777,769,768,764,759,754,748,748,748,748,748,748,757,769,793,813,841,849,853,855,857,861,872,879,888,894,905,932,943,952,958,967,971,974,982,988,1010,1024,1037,1050,1062,1075,1092,1100,1102,1102,1102,1102,1104,1104,1104,1104,1104,1104,1104,1104,1104,1104,1104,1104,1104,1104,1104,1104,1104,1104,1104,1104,1104,1104,1104,1104,1112],"ymouse":[530,530,530,530,530,530,530,530,530,530,530,530,530,530,530,530,530,530,530,530,528,527,524,520,510,508,504,499,494,488,488,488,488,488,487,487,487,487,487,482,476,472,466,460,454,439,428,411,397,379,348,335,324,315,304,300,295,283,275,250,233,216,198,180,158,128,111,108,107,107,107,106,106,106,106,106,106,106,106,106,105,104,103,102,102,102,102,102,102,102,102,101,101,101,101,82],"timestamp_mouse":[19,39,66,78,99,119,139,159,179,200,218,240,258,280,300,320,340,358,380,398,418,439,460,479,500,520,539,560,579,600,618,639,660,679,698,719,740,759,778,799,820,839,859,880,898,918,939,959,978,999,1018,1039,1059,1078,1100,1118,1139,1160,1180,1201,1219,1238,1258,1278,1300,1318,1339,1360,1379,1400,1418,1438,1458,1479,1498,1519,1540,1560,1578,1598,1618,1638,1659,1678,1699,1720,1740,1759,1779,1799,1818,1838,1859,1878,1900,1919],"xSR":741.5,"ySR":469.95,"xT1":424.9,"yT1":0,"xT2":1058.1,"yT2":0,"toosoon":0,"cond_shown":"equaldotanddens","ratio_trial":500,"smaller_num":"1","larger_num":"2","correct_side":2,"subjID":"sarajulianarodriguez14","gender":"1","age":"9","school":"4"},{"start_time":1552309586147,"click_time":1552309587116,"finger_time":1552309586815,"fix_duration":250,"trial":35,"RT":668,"MT":301,"sideResp":1,"stimulus":"img/750/equaldotsize/R/12_Ratio_750_L_3_R_4.png","xmouse":[781,781,781,781,781,781,781,781,781,781,781,781,781,781,783,784,786,787,788,789,789,789,789,789,790,790,791,791,791,791,791,774,754,728,709,695,682,680,680,680,678,659,647,630,607,584,535,513,495],"ymouse":[567,567,567,567,567,566,566,566,566,566,566,566,564,563,561,559,556,554,552,551,550,548,548,547,546,546,545,541,539,535,530,506,491,475,463,456,442,427,407,384,343,282,261,236,210,183,137,114,97],"timestamp_mouse":[10,42,49,68,88,108,129,150,169,190,209,229,249,270,290,310,329,349,370,389,409,428,449,469,488,509,528,549,569,590,609,628,649,668,690,709,729,748,769,790,809,830,849,869,890,909,929,949,969],"xSR":741.5,"ySR":469.95,"xT1":424.9,"yT1":0,"xT2":1058.1,"yT2":0,"toosoon":0,"cond_shown":"equaldotsize","ratio_trial":750,"smaller_num":"3","larger_num":"4","correct_side":2,"subjID":"sarajulianarodriguez14","gender":"1","age":"9","school":"4"},{"start_time":1552309588432,"click_time":1552309589416,"finger_time":1552309589035,"fix_duration":255.43261668083773,"trial":36,"RT":603,"MT":381,"sideResp":2,"stimulus":"img/900/randomdotsizeEA/R/7_Ratio_900_L_9_R_10.png","xmouse":[756,756,756,756,756,756,756,756,756,756,756,755,755,755,755,755,753,752,752,750,750,750,750,749,749,753,757,768,778,788,800,821,868,885,910,926,943,960,995,1008,1021,1033,1042,1043,1043,1043,1043,1051,1054,1062],"ymouse":[529,529,529,529,529,529,529,529,529,529,529,529,528,526,526,526,526,526,526,526,526,526,526,524,521,513,506,492,481,470,457,439,400,386,365,349,335,322,296,286,275,262,243,227,217,205,188,149,126,99],"timestamp_mouse":[9,23,45,64,84,105,124,144,164,185,203,224,245,264,285,303,325,344,363,384,405,424,444,463,484,503,524,544,563,584,603,625,645,663,684,703,724,744,764,784,803,825,844,863,884,905,924,945,964,983],"xSR":741.5,"ySR":469.95,"xT1":424.9,"yT1":0,"xT2":1058.1,"yT2":0,"toosoon":0,"cond_shown":"randomdotsizeEA","ratio_trial":900,"smaller_num":"9","larger_num":"10","correct_side":2,"subjID":"sarajulianarodriguez14","gender":"1","age":"9","school":"4"},{"start_time":1552309591169,"click_time":1552309595917,"finger_time":1552309593995,"fix_duration":491.05640954972887,"trial":37,"RT":2826,"MT":1922,"sideResp":2,"stimulus":"img/750/equaldotanddens/R/15_Ratio_750_L_9_R_12.png","xmouse":[761,761,761,761,761,761,761,761,761,761,761,761,761,761,761,761,761,761,761,761,761,761,761,761,761,761,762,762,762,762,762,762,762,762,762,762,762,762,761,761,761,760,760,760,760,760,760,760,760,760,760,760,760,760,760,760,760,760,762,763,764,765,765,765,765,765,765,765,765,765,765,765,765,765,765,765,765,765,765,765,765,765,765,765,765,765,765,765,765,765,765,765,765,765,765,765,765,765,765,765,765,765,765,765,765,765,765,765,767,767,768,769,770,773,778,781,787,789,789,790,790,791,792,792,792,792,792,792,792,792,792,792,792,792,792,792,792,792,784,776,753,715,701,693,693,693,693,693,693,692,692,692,700,712,727,740,752,752,752,752,754,754,755,755,756,756,757,757,757,758,759,759,759,761,763,766,767,767,767,767,767,767,767,767,767,767,767,767,767,767,767,767,767,767,767,767,767,767,767,767,767,767,767,767,768,769,777,784,795,807,818,836,848,857,869,881,910,918,925,930,936,950,961,970,980,994,1005,1010,1014,1021,1030,1047,1054,1060,1064,1068,1069,1071],"ymouse":[526,526,526,526,526,526,526,526,526,526,526,526,526,526,526,526,526,526,526,526,526,526,526,526,526,526,525,525,524,524,524,524,524,524,524,523,523,522,520,519,518,517,517,517,517,517,517,517,517,517,516,516,516,516,515,514,513,512,510,508,506,504,504,504,504,504,504,504,504,504,504,504,504,504,504,504,504,504,504,504,504,504,504,504,504,504,504,504,504,504,504,504,504,504,504,504,504,504,504,504,504,504,504,504,504,504,504,504,502,501,501,499,498,496,493,490,486,484,483,483,483,483,482,482,482,482,482,482,482,482,482,482,482,482,482,482,482,482,483,484,487,491,492,493,493,493,493,493,493,494,494,496,496,500,504,508,512,512,512,512,512,512,512,512,512,512,512,512,512,512,512,512,512,512,512,513,513,513,513,513,513,513,513,513,513,513,513,513,513,513,513,513,513,513,513,513,513,513,513,513,513,513,513,513,513,513,509,506,498,487,479,459,445,431,415,395,327,308,294,282,271,248,232,220,204,182,166,159,155,150,144,132,124,117,111,106,103,97],"timestamp_mouse":[15,28,46,66,87,108,127,147,167,188,207,228,248,266,287,307,327,347,368,388,406,428,448,468,487,507,527,547,566,587,607,627,646,667,688,707,728,748,766,787,807,827,847,867,887,908,927,948,967,988,1007,1027,1047,1068,1087,1108,1127,1147,1167,1187,1207,1227,1248,1266,1286,1308,1326,1348,1368,1386,1408,1426,1446,1466,1488,1508,1526,1547,1568,1587,1607,1628,1647,1666,1688,1707,1727,1748,1768,1786,1807,1827,1846,1868,1886,1908,1926,1947,1968,1988,2007,2026,2047,2066,2088,2108,2126,2147,2167,2188,2207,2226,2247,2267,2287,2307,2326,2347,2368,2388,2407,2427,2446,2467,2486,2508,2526,2548,2568,2588,2607,2627,2648,2667,2686,2707,2728,2747,2768,2787,2807,2826,2848,2867,2888,2907,2927,2948,2967,2987,3007,3026,3048,3067,3086,3108,3126,3147,3168,3188,3206,3227,3248,3267,3288,3306,3327,3347,3367,3388,3408,3428,3448,3466,3487,3507,3528,3547,3567,3588,3607,3627,3646,3668,3687,3706,3727,3748,3767,3786,3808,3827,3848,3867,3886,3908,3928,3947,3966,3986,4007,4027,4048,4067,4086,4107,4127,4146,4167,4187,4206,4227,4247,4267,4288,4306,4327,4346,4366,4387,4406,4428,4448,4467,4488,4508,4527,4547,4566,4587,4606,4627,4648,4668,4687,4706,4727,4748],"xSR":741.5,"ySR":469.95,"xT1":424.9,"yT1":0,"xT2":1058.1,"yT2":0,"toosoon":0,"cond_shown":"equaldotanddens","ratio_trial":750,"smaller_num":"9","larger_num":"12","correct_side":2,"subjID":"sarajulianarodriguez14","gender":"1","age":"9","school":"4"},{"start_time":1552309597147,"click_time":1552309598215,"finger_time":1552309597777,"fix_duration":250,"trial":38,"RT":630,"MT":438,"sideResp":1,"stimulus":"img/250/randomdotsizeEA/L/7_Ratio_250_L_8_R_2.png","xmouse":[814,814,814,814,814,814,814,814,814,814,814,814,814,814,814,814,814,814,814,814,814,813,812,812,810,809,807,805,804,800,790,775,701,615,587,541,499,462,460,460,460,460,461,463,464,466,466,467,469,469,469,470,470,470],"ymouse":[543,543,543,543,543,543,543,543,543,543,543,543,543,543,543,543,543,543,543,543,543,543,541,538,534,532,530,526,520,506,483,455,375,309,286,245,208,173,167,161,156,149,141,139,136,133,133,131,128,126,124,116,109,94],"timestamp_mouse":[9,41,49,68,89,108,129,150,168,190,209,229,250,268,289,310,328,348,370,390,408,429,450,469,489,509,529,549,569,588,609,630,650,668,688,709,728,749,769,789,808,828,850,869,889,909,928,950,969,989,1008,1029,1050,1068],"xSR":741.5,"ySR":469.95,"xT1":424.9,"yT1":0,"xT2":1058.1,"yT2":0,"toosoon":0,"cond_shown":"randomdotsizeEA","ratio_trial":250,"smaller_num":"2","larger_num":"8","correct_side":1,"subjID":"sarajulianarodriguez14","gender":"1","age":"9","school":"4"},{"start_time":1552309600107,"click_time":1552309601157,"finger_time":1552309600817,"fix_duration":929.4635273895021,"trial":39,"RT":710,"MT":340,"sideResp":1,"stimulus":"img/500/equaldotanddens/L/10_Ratio_500_L_4_R_2.png","xmouse":[789,789,789,789,789,789,789,789,789,789,789,789,789,789,789,789,789,789,789,789,789,789,789,789,789,789,789,789,789,789,789,789,789,789,785,761,738,713,680,630,617,606,600,595,591,580,575,570,564,555,535,527,515],"ymouse":[519,519,519,519,519,519,519,519,519,519,519,519,519,519,519,519,519,519,519,519,519,519,519,519,519,519,519,519,519,519,519,519,519,517,512,464,414,367,325,263,246,231,219,205,193,175,160,151,138,122,95,84,70],"timestamp_mouse":[9,42,49,69,89,109,128,149,169,188,209,229,249,270,290,309,329,349,370,389,409,429,449,469,490,508,528,549,570,590,610,628,649,669,688,710,729,749,769,791,808,829,849,869,888,909,930,949,969,988,1009,1029,1050],"xSR":741.5,"ySR":469.95,"xT1":424.9,"yT1":0,"xT2":1058.1,"yT2":0,"toosoon":0,"cond_shown":"equaldotanddens","ratio_trial":500,"smaller_num":"2","larger_num":"4","correct_side":1,"subjID":"sarajulianarodriguez14","gender":"1","age":"9","school":"4"},{"start_time":1552309602188,"click_time":1552309603296,"finger_time":1552309602835,"fix_duration":289.0948657273621,"trial":40,"RT":647,"MT":461,"sideResp":2,"stimulus":"img/750/equaldotsize/R/2_Ratio_750_L_6_R_8.png","xmouse":[774,774,774,774,774,774,775,775,775,775,775,775,775,775,775,775,775,775,775,775,775,775,775,775,775,775,775,775,776,781,796,830,851,870,887,903,935,949,963,976,987,1007,1014,1020,1024,1028,1031,1031,1031,1031,1031,1035,1039,1046,1052,1059],"ymouse":[518,518,518,518,518,519,519,519,519,519,519,519,519,519,519,519,519,519,519,519,519,519,519,519,519,519,519,520,520,520,510,470,440,420,402,383,348,332,316,302,286,249,234,216,200,184,151,140,134,130,128,121,115,108,100,92],"timestamp_mouse":[12,45,47,67,87,108,128,147,169,188,208,227,249,268,287,308,329,347,369,389,409,428,447,468,488,509,529,548,568,589,608,627,647,668,687,709,728,748,767,788,808,827,849,867,887,907,928,948,968,989,1008,1027,1047,1067,1089,1108],"xSR":741.5,"ySR":469.95,"xT1":424.9,"yT1":0,"xT2":1058.1,"yT2":0,"toosoon":0,"cond_shown":"equaldotsize","ratio_trial":750,"smaller_num":"6","larger_num":"8","correct_side":2,"subjID":"sarajulianarodriguez14","gender":"1","age":"9","school":"4"},{"start_time":1552309604550,"click_time":1552309605356,"finger_time":1552309605075,"fix_duration":250,"trial":41,"RT":525,"MT":281,"sideResp":1,"stimulus":"img/500/equaldotsize/L/13_Ratio_500_L_12_R_6.png","xmouse":[798,798,798,798,798,798,798,798,798,798,798,798,798,798,798,798,798,798,798,798,798,797,795,792,782,773,762,750,743,716,701,687,682,653,637,613,591,573,542,530,514],"ymouse":[529,529,529,529,529,529,529,529,529,529,529,529,529,529,529,529,529,529,529,529,529,529,529,525,505,486,462,433,406,311,269,227,216,158,135,106,82,63,36,26,17],"timestamp_mouse":[9,27,46,66,86,106,126,146,167,187,206,226,247,266,286,305,326,347,365,385,407,426,446,466,487,505,525,546,566,586,607,627,646,666,685,706,726,746,766,786,806],"xSR":741.5,"ySR":469.95,"xT1":424.9,"yT1":0,"xT2":1058.1,"yT2":0,"toosoon":0,"cond_shown":"equaldotsize","ratio_trial":500,"smaller_num":"6","larger_num":"12","correct_side":1,"subjID":"sarajulianarodriguez14","gender":"1","age":"9","school":"4"},{"start_time":1552309608571,"click_time":1552309609336,"finger_time":1552309609197,"fix_duration":1033.634321816852,"trial":42,"RT":626,"MT":139,"sideResp":1,"stimulus":"img/250/equaldotsize/L/14_Ratio_250_L_12_R_3.png","xmouse":[782,782,782,782,782,782,782,782,782,782,782,782,782,784,784,785,787,788,792,794,799,801,803,804,804,804,804,804,802,800,792,781,743,718,692,655,596,531,470],"ymouse":[549,549,549,549,549,549,549,549,549,549,549,549,549,547,547,547,546,546,543,542,536,534,529,528,526,525,523,516,510,499,483,456,377,339,300,257,203,148,90],"timestamp_mouse":[4,26,47,65,85,104,126,145,164,185,204,225,246,265,284,305,325,344,365,385,405,424,446,464,484,505,526,546,565,584,605,626,647,664,684,705,726,745,765],"xSR":741.5,"ySR":469.95,"xT1":424.9,"yT1":0,"xT2":1058.1,"yT2":0,"toosoon":0,"cond_shown":"equaldotsize","ratio_trial":250,"smaller_num":"3","larger_num":"12","correct_side":1,"subjID":"sarajulianarodriguez14","gender":"1","age":"9","school":"4"},{"start_time":1552309612947,"click_time":1552309613836,"finger_time":1552309613636,"fix_duration":1388.7860323899843,"trial":43,"RT":689,"MT":200,"sideResp":1,"stimulus":"img/900/equaldotanddens/L/8_Ratio_900_L_20_R_18.png","xmouse":[796,796,796,796,796,796,796,796,796,796,796,796,796,796,796,796,796,796,796,796,796,796,796,796,796,796,796,796,795,792,791,787,782,769,737,717,698,682,659,621,604,587,558,527,480],"ymouse":[543,543,543,543,543,543,543,543,543,543,543,543,543,543,543,543,543,543,543,543,543,543,542,542,541,539,539,537,534,524,519,511,501,482,438,409,388,371,342,291,272,243,204,153,87],"timestamp_mouse":[10,39,48,69,88,109,130,150,170,190,209,228,250,268,290,310,330,350,368,390,410,429,449,469,490,508,529,549,569,588,610,629,648,668,689,708,729,749,769,789,808,829,849,869,889],"xSR":741.5,"ySR":469.95,"xT1":424.9,"yT1":0,"xT2":1058.1,"yT2":0,"toosoon":0,"cond_shown":"equaldotanddens","ratio_trial":900,"smaller_num":"18","larger_num":"20","correct_side":1,"subjID":"sarajulianarodriguez14","gender":"1","age":"9","school":"4"},{"start_time":1552309615109,"click_time":1552309616457,"finger_time":1552309615857,"fix_duration":250,"trial":44,"RT":748,"MT":600,"sideResp":2,"stimulus":"img/500/equaldotanddens/R/15_Ratio_500_L_1_R_2.png","xmouse":[781,781,781,781,781,781,781,781,781,782,782,782,782,782,782,782,782,782,782,782,782,782,782,782,782,782,782,782,783,783,783,783,784,788,791,797,812,820,830,849,865,903,920,934,948,961,975,1001,1028,1050,1068,1080,1093,1095,1096,1096,1096,1097,1097,1097,1097,1097,1097,1097,1097,1098,1099,1101],"ymouse":[497,497,498,498,498,498,498,499,499,500,500,500,500,500,500,500,500,500,500,500,500,500,500,500,500,500,500,500,500,500,500,500,500,499,496,491,477,468,455,433,416,382,360,340,322,306,288,258,231,213,195,177,155,152,151,151,151,149,148,145,142,139,137,135,132,118,107,50],"timestamp_mouse":[10,27,46,67,88,108,127,147,166,188,207,227,247,266,286,308,328,348,366,388,408,427,446,468,488,507,527,547,568,587,607,626,646,668,687,708,727,748,766,788,807,828,846,867,886,907,928,947,966,987,1008,1027,1048,1066,1088,1108,1127,1146,1166,1186,1208,1227,1247,1267,1287,1306,1328,1348],"xSR":741.5,"ySR":469.95,"xT1":424.9,"yT1":0,"xT2":1058.1,"yT2":0,"toosoon":0,"cond_shown":"equaldotanddens","ratio_trial":500,"smaller_num":"1","larger_num":"2","correct_side":2,"subjID":"sarajulianarodriguez14","gender":"1","age":"9","school":"4"},{"start_time":1552309618469,"click_time":1552309620216,"finger_time":1552309619415,"fix_duration":972.5685006953621,"trial":45,"RT":946,"MT":801,"sideResp":2,"stimulus":"img/750/equaldotsize/R/7_Ratio_750_L_3_R_4.png","xmouse":[785,785,785,785,785,785,785,785,785,785,785,785,785,785,785,785,785,785,785,785,785,785,785,785,785,785,785,785,785,787,790,793,799,804,815,817,818,820,820,820,820,820,821,821,823,825,829,834,840,850,856,875,910,941,977,989,997,1004,1010,1029,1046,1054,1061,1066,1082,1091,1104,1116,1131,1159,1164,1169,1173,1174,1175,1175,1175,1175,1175,1175,1175,1175,1174,1172,1167,1165,1159,1154],"ymouse":[510,510,510,510,510,510,510,510,510,510,510,510,510,510,510,510,510,510,510,510,510,510,510,510,510,510,510,510,510,509,509,509,507,505,498,496,492,487,483,478,476,475,474,474,472,472,471,469,467,457,447,422,383,344,306,286,271,258,247,224,211,203,196,190,177,171,164,155,142,99,82,71,63,59,56,56,56,56,56,56,56,56,56,56,56,56,56,56],"timestamp_mouse":[12,34,48,68,88,108,127,147,168,188,207,226,246,267,288,307,327,347,367,388,408,427,446,467,487,507,527,547,567,587,607,626,648,668,686,707,728,748,766,787,808,827,846,868,886,907,928,946,966,986,1007,1027,1048,1067,1086,1106,1127,1147,1168,1187,1207,1226,1247,1267,1287,1308,1328,1347,1366,1386,1407,1428,1447,1467,1486,1507,1527,1547,1567,1586,1606,1627,1648,1668,1687,1707,1727,1747],"xSR":741.5,"ySR":469.95,"xT1":424.9,"yT1":0,"xT2":1058.1,"yT2":0,"toosoon":0,"cond_shown":"equaldotsize","ratio_trial":750,"smaller_num":"3","larger_num":"4","correct_side":2,"subjID":"sarajulianarodriguez14","gender":"1","age":"9","school":"4"},{"start_time":1552309622396,"click_time":1552309623097,"finger_time":1552309622955,"fix_duration":1118.9893643404632,"trial":46,"RT":559,"MT":142,"sideResp":2,"stimulus":"img/250/equaldotsize/R/6_Ratio_250_L_6_R_24.png","xmouse":[787,787,787,787,787,787,787,787,787,787,787,787,787,787,787,787,787,787,787,787,787,787,787,787,787,792,800,815,855,879,907,941,980,1037,1063,1085],"ymouse":[520,520,520,520,520,520,520,520,520,521,521,521,521,521,521,521,521,521,521,521,521,521,521,521,521,513,506,491,449,415,376,332,271,170,111,62],"timestamp_mouse":[6,27,46,59,79,101,121,140,160,179,199,221,240,260,281,300,320,340,361,380,401,421,441,460,480,499,520,541,559,579,599,621,641,661,681,701],"xSR":741.5,"ySR":469.95,"xT1":424.9,"yT1":0,"xT2":1058.1,"yT2":0,"toosoon":0,"cond_shown":"equaldotsize","ratio_trial":250,"smaller_num":"6","larger_num":"24","correct_side":2,"subjID":"sarajulianarodriguez14","gender":"1","age":"9","school":"4"},{"start_time":1552309625322,"click_time":1552309626697,"finger_time":1552309625936,"fix_duration":1264.7968769558406,"trial":47,"RT":614,"MT":761,"sideResp":2,"stimulus":"img/750/randomdotsizeEA/L/10_Ratio_750_L_4_R_3.png","xmouse":[788,790,791,791,791,791,791,791,791,791,791,791,791,791,791,791,791,791,791,791,791,792,792,792,793,793,793,792,788,771,747,695,683,679,679,679,679,679,686,699,718,752,835,889,923,958,978,1016,1034,1048,1060,1082,1098,1109,1120,1131,1144,1160,1163,1165,1167,1168,1168,1168,1168,1167,1166,1161,1153],"ymouse":[503,501,499,499,499,499,499,499,499,499,499,499,499,499,499,499,499,499,499,499,499,497,497,497,496,496,496,491,484,472,459,431,424,422,422,422,422,422,421,421,425,432,449,450,438,416,395,339,306,284,261,220,193,177,161,146,133,108,98,88,81,73,71,70,68,66,65,61,59],"timestamp_mouse":[14,34,53,73,94,115,134,154,175,195,214,234,255,274,294,313,335,355,374,395,413,435,454,475,494,513,534,553,574,594,614,636,653,675,693,714,735,755,775,793,814,836,854,875,895,913,934,954,973,993,1013,1035,1054,1074,1095,1113,1134,1154,1173,1193,1214,1236,1253,1274,1294,1315,1333,1353,1375],"xSR":741.5,"ySR":469.95,"xT1":424.9,"yT1":0,"xT2":1058.1,"yT2":0,"toosoon":0,"cond_shown":"randomdotsizeEA","ratio_trial":750,"smaller_num":"3","larger_num":"4","correct_side":1,"subjID":"sarajulianarodriguez14","gender":"1","age":"9","school":"4"},{"start_time":1552309627963,"click_time":1552309628916,"finger_time":1552309628555,"fix_duration":366.7814152279659,"trial":48,"RT":592,"MT":361,"sideResp":1,"stimulus":"img/750/equaldotsize/L/9_Ratio_750_L_4_R_3.png","xmouse":[805,805,805,805,805,805,805,805,805,805,805,805,805,805,805,805,805,805,805,805,805,805,805,805,805,805,795,787,769,715,632,611,602,597,595,590,586,578,567,554,518,507,494,481,470,458,455,452],"ymouse":[547,547,547,547,547,547,547,547,547,547,547,547,547,547,547,547,547,547,547,547,547,547,547,547,547,547,540,533,520,483,425,402,387,375,361,325,308,287,264,241,192,175,156,140,125,107,103,97],"timestamp_mouse":[13,45,52,72,92,114,133,153,173,194,213,232,252,272,293,313,333,353,372,392,414,434,454,474,493,513,533,552,573,592,612,632,652,674,693,713,734,753,773,794,813,834,853,872,893,912,934,953],"xSR":741.5,"ySR":469.95,"xT1":424.9,"yT1":0,"xT2":1058.1,"yT2":0,"toosoon":0,"cond_shown":"equaldotsize","ratio_trial":750,"smaller_num":"3","larger_num":"4","correct_side":1,"subjID":"sarajulianarodriguez14","gender":"1","age":"9","school":"4"},{"start_time":1552309631980,"click_time":1552309633096,"finger_time":1552309632556,"fix_duration":823.5956712003289,"trial":49,"RT":576,"MT":540,"sideResp":1,"stimulus":"img/900/equaldotsize/L/1_Ratio_900_L_10_R_9.png","xmouse":[764,764,764,765,765,765,765,765,765,765,765,765,765,765,765,765,765,766,766,767,767,767,770,770,770,761,750,748,741,736,732,727,719,710,698,693,691,691,689,681,675,670,661,651,624,604,578,566,557,550,550,550,550,549,526,516],"ymouse":[550,549,549,548,548,548,548,548,548,548,548,548,548,548,548,548,548,547,546,546,545,543,538,530,518,496,481,477,458,424,405,384,362,338,300,286,269,253,230,198,182,165,152,136,105,89,71,63,58,54,54,54,54,54,54,53],"timestamp_mouse":[16,49,56,76,97,115,137,156,177,195,216,237,256,275,295,316,335,356,377,395,416,436,456,476,496,517,537,556,576,596,615,636,657,676,697,715,736,757,776,797,815,836,855,876,897,916,937,956,976,997,1015,1036,1055,1076,1096,1116],"xSR":741.5,"ySR":469.95,"xT1":424.9,"yT1":0,"xT2":1058.1,"yT2":0,"toosoon":0,"cond_shown":"equaldotsize","ratio_trial":900,"smaller_num":"9","larger_num":"10","correct_side":1,"subjID":"sarajulianarodriguez14","gender":"1","age":"9","school":"4"},{"start_time":1552309636808,"click_time":1552309637995,"finger_time":1552309637315,"fix_duration":1112.4443704319076,"trial":50,"RT":507,"MT":680,"sideResp":2,"stimulus":"img/750/equaldotsize/L/9_Ratio_750_L_4_R_3.png","xmouse":[796,795,795,795,795,795,795,795,795,795,795,795,795,795,795,795,795,795,795,795,795,795,797,801,820,831,844,857,870,902,921,946,967,999,1080,1098,1112,1123,1127,1132,1136,1138,1142,1147,1156,1160,1163,1164,1166,1167,1167,1168,1168,1168,1168,1168,1168,1167,1166,1153],"ymouse":[532,532,532,532,531,531,531,531,531,531,531,531,531,531,529,529,528,527,525,521,519,517,512,506,474,456,440,421,405,369,349,324,296,265,176,156,141,131,126,122,119,118,114,110,100,93,87,82,75,68,67,66,66,65,65,65,65,65,65,65],"timestamp_mouse":[19,41,47,67,86,106,126,146,166,186,208,226,247,266,286,307,326,347,367,386,407,427,448,466,486,507,528,547,568,586,606,626,646,667,686,707,726,746,767,786,806,826,846,866,887,907,926,947,967,987,1006,1027,1046,1067,1086,1106,1128,1146,1166,1186],"xSR":741.5,"ySR":469.95,"xT1":424.9,"yT1":0,"xT2":1058.1,"yT2":0,"toosoon":0,"cond_shown":"equaldotsize","ratio_trial":750,"smaller_num":"3","larger_num":"4","correct_side":1,"subjID":"sarajulianarodriguez14","gender":"1","age":"9","school":"4"},{"start_time":1552309639562,"click_time":1552309640715,"finger_time":1552309640454,"fix_duration":806.3533578130964,"trial":51,"RT":892,"MT":261,"sideResp":2,"stimulus":"img/250/equaldotanddens/R/11_Ratio_250_L_3_R_12.png","xmouse":[799,799,799,799,799,799,799,799,799,799,799,799,799,800,801,802,802,802,802,802,802,802,802,802,802,802,802,802,802,802,802,802,802,802,802,802,802,802,802,802,802,802,812,836,847,889,931,971,984,1000,1016,1050,1062,1072,1088,1097,1102,1102],"ymouse":[540,539,539,539,539,539,539,539,539,539,539,539,538,536,532,531,531,531,531,531,531,531,531,531,531,531,531,531,531,531,531,530,529,529,529,529,529,529,529,529,529,529,527,515,509,482,451,397,372,344,308,244,221,196,157,135,106,97],"timestamp_mouse":[13,33,52,74,92,112,134,152,173,192,212,233,252,273,293,313,332,352,373,393,413,433,452,472,493,513,533,553,572,594,613,633,654,672,693,712,732,752,772,792,813,833,854,873,892,912,932,953,973,993,1014,1033,1052,1073,1094,1112,1133,1153],"xSR":741.5,"ySR":469.95,"xT1":424.9,"yT1":0,"xT2":1058.1,"yT2":0,"toosoon":0,"cond_shown":"equaldotanddens","ratio_trial":250,"smaller_num":"3","larger_num":"12","correct_side":2,"subjID":"sarajulianarodriguez14","gender":"1","age":"9","school":"4"},{"start_time":1552309644400,"click_time":1552309645554,"finger_time":1552309644954,"fix_duration":1364.5703559153956,"trial":52,"RT":554,"MT":600,"sideResp":1,"stimulus":"img/900/randomdotsizeEA/L/1_Ratio_900_L_10_R_9.png","xmouse":[779,779,779,779,779,779,779,779,779,779,779,779,779,779,779,779,779,779,779,779,779,779,779,779,779,769,763,753,743,724,712,702,695,691,688,684,677,670,653,628,606,593,581,569,560,555,554,554,553,552,550,549,544,542,537,531,527,523],"ymouse":[523,523,523,523,523,523,523,523,523,523,523,523,523,523,523,523,523,523,523,523,523,523,523,521,519,489,473,456,437,397,366,349,334,317,301,270,251,230,194,133,98,82,71,64,62,60,60,60,60,60,60,60,61,61,62,62,62,62],"timestamp_mouse":[14,35,54,75,95,114,134,154,174,195,214,235,255,274,295,314,334,355,376,394,414,436,454,474,495,514,534,554,574,597,615,635,654,674,695,715,734,754,774,796,814,836,854,875,896,915,935,954,975,995,1014,1035,1055,1075,1096,1115,1135,1154],"xSR":741.5,"ySR":469.95,"xT1":424.9,"yT1":0,"xT2":1058.1,"yT2":0,"toosoon":0,"cond_shown":"randomdotsizeEA","ratio_trial":900,"smaller_num":"9","larger_num":"10","correct_side":1,"subjID":"sarajulianarodriguez14","gender":"1","age":"9","school":"4"},{"start_time":1552309647567,"click_time":1552309648894,"finger_time":1552309648316,"fix_duration":850.8674327215701,"trial":53,"RT":749,"MT":578,"sideResp":1,"stimulus":"img/250/randomdotsizeEA/L/1_Ratio_250_L_8_R_2.png","xmouse":[786,786,786,786,786,786,784,781,771,767,760,759,756,755,755,755,755,755,755,755,755,755,755,755,755,755,755,755,755,755,755,755,755,754,754,754,754,751,747,742,738,728,713,705,694,681,673,661,655,649,645,636,630,620,616,608,593,559,552,547,543,540,534,531,530,525,521],"ymouse":[517,517,517,517,516,515,513,511,503,501,498,497,496,495,495,495,495,495,495,495,495,495,495,495,495,495,495,495,495,495,495,495,495,493,490,486,481,469,460,444,429,404,369,352,329,306,286,260,246,234,224,207,198,181,176,169,161,147,142,139,135,131,119,114,105,92,76],"timestamp_mouse":[12,35,47,67,87,109,127,147,167,187,208,227,247,268,288,307,328,348,367,388,407,427,448,468,487,508,527,548,568,587,608,627,647,667,688,708,727,749,767,787,808,827,847,867,888,908,927,948,967,987,1008,1027,1047,1069,1088,1108,1129,1147,1167,1188,1207,1227,1248,1267,1288,1308,1327],"xSR":741.5,"ySR":469.95,"xT1":424.9,"yT1":0,"xT2":1058.1,"yT2":0,"toosoon":0,"cond_shown":"randomdotsizeEA","ratio_trial":250,"smaller_num":"2","larger_num":"8","correct_side":1,"subjID":"sarajulianarodriguez14","gender":"1","age":"9","school":"4"},{"start_time":1552309650954,"click_time":1552309651916,"finger_time":1552309651375,"fix_duration":818.2824159397956,"trial":54,"RT":421,"MT":541,"sideResp":2,"stimulus":"img/250/randomdotsizeEA/L/5_Ratio_250_L_24_R_6.png","xmouse":[781,781,781,781,781,781,781,781,781,781,781,781,781,781,781,781,782,785,793,797,831,898,977,1064,1165,1186,1198,1209,1228,1240,1260,1268,1276,1282,1282,1280,1269,1252,1215,1193,1161,1141,1128,1117,1110,1110,1110,1110,1110],"ymouse":[514,514,514,514,514,514,514,514,514,514,514,514,514,514,514,514,514,513,510,508,505,500,489,474,446,435,428,418,396,377,349,329,312,279,264,248,228,208,171,156,137,127,120,113,108,107,105,104,99],"timestamp_mouse":[10,21,45,61,81,100,120,140,160,180,201,220,240,260,280,301,320,341,361,382,400,421,441,460,481,501,521,540,562,581,601,620,640,662,680,700,721,740,762,780,800,820,840,860,881,901,921,941,962],"xSR":741.5,"ySR":469.95,"xT1":424.9,"yT1":0,"xT2":1058.1,"yT2":0,"toosoon":0,"cond_shown":"randomdotsizeEA","ratio_trial":250,"smaller_num":"6","larger_num":"24","correct_side":1,"subjID":"sarajulianarodriguez14","gender":"1","age":"9","school":"4"},{"start_time":1552309654663,"click_time":1552309655796,"finger_time":1552309655134,"fix_duration":1226.1451714366938,"trial":55,"RT":471,"MT":662,"sideResp":1,"stimulus":"img/750/equaldotanddens/L/6_Ratio_750_L_24_R_18.png","xmouse":[836,836,836,836,836,836,836,836,836,836,836,836,836,836,836,836,836,836,836,836,836,831,821,779,771,769,769,770,774,774,774,775,775,775,776,778,779,779,734,700,677,667,651,505,435,378,359,353,353,353,353,352,352,354,367,388,435],"ymouse":[527,527,527,527,527,527,527,527,527,527,527,527,527,527,527,527,527,527,527,527,527,521,497,402,380,377,377,375,372,369,366,363,363,363,362,360,358,352,328,308,288,265,237,143,110,94,91,91,91,91,91,88,88,76,72,70,64],"timestamp_mouse":[15,34,52,71,92,111,132,151,171,192,211,232,251,272,291,312,331,352,372,392,412,431,453,471,493,512,531,552,571,591,611,632,651,672,692,712,732,752,772,791,811,831,852,872,892,912,932,952,972,991,1012,1032,1051,1071,1092,1112,1133],"xSR":741.5,"ySR":469.95,"xT1":424.9,"yT1":0,"xT2":1058.1,"yT2":0,"toosoon":0,"cond_shown":"equaldotanddens","ratio_trial":750,"smaller_num":"18","larger_num":"24","correct_side":1,"subjID":"sarajulianarodriguez14","gender":"1","age":"9","school":"4"},{"start_time":1552309657529,"click_time":1552309658674,"finger_time":1552309658196,"fix_duration":633.7282444341739,"trial":56,"RT":667,"MT":478,"sideResp":2,"stimulus":"img/250/equaldotanddens/L/1_Ratio_250_L_8_R_2.png","xmouse":[790,789,789,787,787,787,787,786,786,784,784,784,784,784,784,784,784,784,784,784,784,784,784,784,784,784,784,784,784,785,789,792,797,801,807,826,840,869,887,911,940,949,952,958,965,980,995,1000,1011,1017,1023,1034,1037,1040,1043,1050,1055,1059],"ymouse":[487,487,487,487,487,487,487,487,487,488,489,489,489,489,489,489,489,489,489,489,489,489,489,489,489,489,489,489,489,489,486,483,476,469,459,434,417,386,368,346,316,301,291,278,262,223,190,180,152,135,116,89,83,79,77,74,72,70],"timestamp_mouse":[14,42,46,66,86,105,126,146,166,186,205,226,245,267,286,306,325,345,365,385,406,426,446,466,485,506,526,545,566,586,605,626,646,667,685,706,725,746,765,786,805,825,846,866,886,905,925,946,966,986,1006,1026,1047,1065,1086,1106,1125,1145],"xSR":741.5,"ySR":469.95,"xT1":424.9,"yT1":0,"xT2":1058.1,"yT2":0,"toosoon":0,"cond_shown":"equaldotanddens","ratio_trial":250,"smaller_num":"2","larger_num":"8","correct_side":1,"subjID":"sarajulianarodriguez14","gender":"1","age":"9","school":"4"},{"start_time":1552309659985,"click_time":1552309660776,"finger_time":1552309660654,"fix_duration":250,"trial":57,"RT":669,"MT":122,"sideResp":1,"stimulus":"img/900/randomdotsizeEA/L/2_Ratio_900_L_20_R_18.png","xmouse":[775,775,776,776,777,778,778,778,778,778,778,778,778,779,779,779,779,779,779,779,779,779,779,779,779,779,779,779,779,779,779,779,774,768,761,745,724,614,543,475],"ymouse":[522,522,520,520,518,516,516,516,516,516,516,515,515,514,514,514,514,514,514,514,514,514,514,514,514,514,514,514,514,513,510,500,471,452,434,395,351,194,111,44],"timestamp_mouse":[15,41,50,70,89,110,129,149,169,190,211,230,251,269,290,309,329,350,370,391,410,430,450,469,489,510,531,550,570,589,610,629,651,669,689,710,729,751,769,791],"xSR":741.5,"ySR":469.95,"xT1":424.9,"yT1":0,"xT2":1058.1,"yT2":0,"toosoon":0,"cond_shown":"randomdotsizeEA","ratio_trial":900,"smaller_num":"18","larger_num":"20","correct_side":1,"subjID":"sarajulianarodriguez14","gender":"1","age":"9","school":"4"},{"start_time":1552309662206,"click_time":1552309663254,"finger_time":1552309662755,"fix_duration":250,"trial":58,"RT":549,"MT":499,"sideResp":2,"stimulus":"img/900/equaldotanddens/R/13_Ratio_900_L_18_R_20.png","xmouse":[786,786,786,786,786,786,786,786,786,786,786,786,786,786,786,786,786,786,786,786,788,788,791,792,797,800,807,825,845,867,890,905,935,947,957,964,968,980,986,992,997,1004,1028,1040,1054,1067,1081,1099,1107,1113,1118,1123,1130],"ymouse":[502,502,502,502,502,501,501,500,500,500,500,500,500,500,500,500,500,500,500,500,499,498,496,495,492,489,481,459,440,419,392,372,322,300,284,271,258,235,223,213,206,199,176,166,154,144,135,121,113,108,104,100,93],"timestamp_mouse":[10,39,49,68,89,108,128,150,168,189,209,229,249,268,289,308,328,348,369,388,408,429,448,468,488,509,530,549,570,590,608,629,649,669,689,709,728,748,769,789,809,829,848,869,888,908,929,949,969,988,1009,1030,1048],"xSR":741.5,"ySR":469.95,"xT1":424.9,"yT1":0,"xT2":1058.1,"yT2":0,"toosoon":0,"cond_shown":"equaldotanddens","ratio_trial":900,"smaller_num":"18","larger_num":"20","correct_side":2,"subjID":"sarajulianarodriguez14","gender":"1","age":"9","school":"4"},{"start_time":1552309665840,"click_time":1552309666755,"finger_time":1552309666275,"fix_duration":405.60445137829026,"trial":59,"RT":435,"MT":480,"sideResp":1,"stimulus":"img/900/equaldotsize/L/4_Ratio_900_L_20_R_18.png","xmouse":[820,820,820,820,819,817,816,815,815,814,814,813,813,813,812,811,811,810,806,801,771,750,719,681,649,614,601,590,583,581,577,577,577,577,577,577,577,571,556,550,537,530,520,507,490,469],"ymouse":[511,511,511,511,511,511,511,511,511,511,511,511,511,511,511,511,510,510,507,503,476,458,434,409,391,366,355,3