[{"start_time":1552073637018,"click_time":1552073637932,"finger_time":1552073637851,"fix_duration":1343.5390313727885,"trial":0,"RT":833,"MT":81,"sideResp":2,"stimulus":[],"xmouse":[798,798,798,798,798,798,798,798,798,798,798,798,798,798,798,798,798,798,798,798,798,798,798,798,798,798,798,798,798,799,801,802,803,803,803,803,803,803,806,812,826,848,950,1012,1075,1124],"ymouse":[529,529,529,529,529,529,529,529,529,529,529,529,529,529,529,529,529,529,529,529,529,529,529,529,529,529,529,529,527,522,517,514,511,511,511,511,511,510,506,495,475,449,333,253,171,93],"timestamp_mouse":[13,42,52,73,92,112,132,153,173,193,212,233,252,272,293,312,333,353,373,392,413,432,452,473,493,513,533,553,573,593,612,632,653,672,693,712,732,752,772,793,812,833,854,874,893,913],"xSR":741.5,"ySR":500.5,"xT1":424.9,"yT1":0,"xT2":1058.1,"yT2":0,"toosoon":0,"cond_shown":"Congruent","ratio_trial":200,"L_num":13,"L_den":26,"R_num":14,"R_den":20,"correct_side":2,"subjID":"Sara Manuela Camargo Herrera 30","gender":"1","age":"9","school":"4","test":{"fix_dur":[250,1500],"timestim":1000,"targets_dim":[100,100],"targets_relative_coord":[0.3,0.7],"size_stim":[880,420],"start_dim":[100,100],"size_start":[300,300],"size_fix":60,"samplingrate":20,"img_types":["Congruent","Incongruent"],"ratios":[100,200,300],"rep_conds":19,"nTrials":120,"trials_to_rest":500,"Trials_order":[86,2,72,44,68,98,115,67,97,65,39,74,26,90,16,103,113,9,42,96,6,41,14,11,54,17,93,53,117,57,22,80,29,34,31,89,8,62,109,59,91,77,23,92,46,88,102,0,5,84,38,52,104,55,73,87,32,7,64,36,37,47,60,95,78,19,110,13,111,10,101,71,49,82,24,58,20,51,3,69,30,12,61,48,63,25,56,114,35,28,27,1,70,50,100,66,83,75,118,112,108,79,81,40,106,107,85,119,15,99,105,45,33,43,76,21,18,94,4,116],"cond_shown":["Congruent","Congruent","Congruent","Congruent","Congruent","Congruent","Incongruent","Incongruent","Incongruent","Incongruent","Incongruent","Congruent","Congruent","Congruent","Congruent","Incongruent","Incongruent","Incongruent","Congruent","Congruent","Congruent","Incongruent","Congruent","Incongruent","Congruent","Incongruent","Incongruent","Incongruent","Incongruent","Incongruent","Congruent","Congruent","Incongruent","Congruent","Incongruent","Incongruent","Congruent","Congruent","Incongruent","Incongruent","Incongruent","Incongruent","Incongruent","Congruent","Congruent","Congruent","Congruent","Congruent","Incongruent","Congruent","Congruent","Congruent","Congruent","Incongruent","Incongruent","Incongruent","Congruent","Incongruent","Congruent","Congruent","Incongruent","Incongruent","Congruent","Incongruent","Congruent","Incongruent","Congruent","Incongruent","Incongruent","Congruent","Incongruent","Incongruent","Incongruent","Congruent","Congruent","Congruent","Congruent","Incongruent","Incongruent","Incongruent","Congruent","Congruent","Incongruent","Congruent","Incongruent","Incongruent","Congruent","Congruent","Incongruent","Congruent","Incongruent","Incongruent","Congruent","Congruent","Congruent","Congruent","Incongruent","Incongruent","Congruent","Congruent","Congruent","Incongruent","Incongruent","Congruent","Congruent","Incongruent","Incongruent","Incongruent","Incongruent","Incongruent","Incongruent","Incongruent","Incongruent","Incongruent","Congruent","Incongruent","Congruent","Congruent","Congruent","Congruent"],"ratio_trial":[200,200,100,200,200,200,100,100,100,300,200,200,200,100,300,100,300,200,100,100,100,300,200,300,100,300,200,300,200,200,300,200,300,300,100,300,200,200,100,300,100,300,300,200,300,300,100,100,300,100,200,300,200,100,100,200,200,100,300,100,100,300,100,300,100,100,200,100,200,300,300,300,100,300,100,300,200,200,200,200,100,100,100,100,200,100,200,100,300,300,200,100,300,200,300,100,300,200,300,300,100,100,200,300,300,300,100,300,200,200,200,200,200,100,300,200,100,300,300,200],"left_num":[13,3,9,8,9,4,3,6,6,13,3,21,5,2,2,8,4,4,6,9,10,4,7,4,6,13,7,8,1,1,1,3,1,11,10,1,6,4,9,1,6,4,4,4,11,4,7,11,13,11,8,4,4,6,12,7,7,13,5,4,13,4,15,13,2,12,5,1,4,1,1,13,4,24,6,1,20,11,7,7,7,3,6,9,4,6,1,10,13,20,7,9,11,12,4,8,13,7,12,8,15,1,14,2,18,4,10,7,4,9,7,7,3,6,1,1,15,4,18,15],"right_num":[14,14,8,2,13,3,11,3,7,12,1,2,14,11,10,6,2,14,5,8,3,8,2,2,5,12,6,14,2,3,3,14,2,2,9,2,7,3,14,2,3,2,2,3,1,2,9,4,12,4,2,2,3,11,2,4,18,6,7,6,12,2,13,12,6,2,14,8,1,11,2,12,8,2,5,7,9,3,14,12,9,2,7,8,14,3,21,3,12,14,14,14,4,6,13,2,12,14,2,1,13,8,6,10,9,8,8,8,1,8,12,4,1,13,7,2,13,1,9,4],"left_den":[26,6,15,15,30,8,5,12,10,26,10,30,10,5,20,16,20,6,20,15,25,5,21,20,20,26,15,10,3,2,5,6,2,22,25,2,12,10,15,2,12,20,20,10,22,5,14,22,26,22,15,5,8,10,30,15,15,26,25,8,26,20,25,26,5,30,10,2,30,5,2,26,8,30,20,20,25,20,10,10,14,6,10,15,6,12,2,25,26,25,10,15,22,15,20,16,26,10,24,16,25,2,30,20,20,5,25,10,30,15,10,15,10,10,20,3,25,10,20,25],"right_den":[20,20,16,6,26,10,22,5,14,15,2,4,20,22,25,10,4,30,25,16,10,16,15,4,25,15,9,28,15,10,6,20,10,10,18,10,10,15,28,10,5,4,4,15,5,4,15,10,15,10,6,4,10,22,4,6,27,10,14,10,20,4,26,15,12,4,20,20,3,22,10,15,20,4,25,20,15,4,28,24,15,5,14,16,30,5,30,10,15,28,28,28,20,10,26,5,15,28,10,5,26,20,9,25,15,16,16,20,3,10,24,6,2,26,20,15,26,10,15,10],"correct_side":[2,2,1,1,2,1,1,2,1,2,2,1,2,2,2,2,2,1,1,1,1,1,1,2,1,2,2,1,1,1,2,2,1,1,2,1,2,1,1,1,2,2,2,1,1,1,2,1,2,1,1,1,1,1,2,2,2,2,2,2,2,2,1,2,2,2,2,1,2,2,1,2,1,1,1,2,1,2,1,1,2,1,1,1,1,2,2,1,2,1,1,1,1,1,2,1,2,1,1,1,1,1,2,2,1,1,2,1,2,2,1,2,2,1,2,1,1,1,1,1],"img_shown":["img2/200/Congruent/R/C_Dist_200_LN_13_LD_26_RN_14_RD_20_1.png","img2/200/Congruent/R/C_Dist_200_LN_3_LD_6_RN_14_RD_20_1.png","img2/100/Congruent/L/C_Dist_100_LN_9_LD_15_RN_8_RD_16_0.png","img2/200/Congruent/L/C_Dist_200_LN_8_LD_15_RN_2_RD_6_0.png","img2/200/Congruent/R/C_Dist_200_LN_9_LD_30_RN_13_RD_26_1.png","img2/200/Congruent/L/C_Dist_200_LN_4_LD_8_RN_3_RD_10_0.png","img2/100/Incongruent/L/I_Dist_100_LN_3_LD_5_RN_11_RD_22_0.png","img2/100/Incongruent/R/I_Dist_100_LN_6_LD_12_RN_3_RD_5_1.png","img2/100/Incongruent/L/I_Dist_100_LN_6_LD_10_RN_7_RD_14_0.png","img2/300/Incongruent/R/I_Dist_300_LN_13_LD_26_RN_12_RD_15_1.png","img2/200/Incongruent/R/I_Dist_200_LN_3_LD_10_RN_1_RD_2_1.png","img2/200/Congruent/L/C_Dist_200_LN_21_LD_30_RN_2_RD_4_0.png","img2/200/Congruent/R/C_Dist_200_LN_5_LD_10_RN_14_RD_20_1.png","img2/100/Congruent/R/C_Dist_100_LN_2_LD_5_RN_11_RD_22_1.png","img2/300/Congruent/R/C_Dist_300_LN_2_LD_20_RN_10_RD_25_1.png","img2/100/Incongruent/R/I_Dist_100_LN_8_LD_16_RN_6_RD_10_1.png","img2/300/Incongruent/R/I_Dist_300_LN_4_LD_20_RN_2_RD_4_1.png","img2/200/Incongruent/L/I_Dist_200_LN_4_LD_6_RN_14_RD_30_0.png","img2/100/Congruent/L/C_Dist_100_LN_6_LD_20_RN_5_RD_25_0.png","img2/100/Congruent/L/C_Dist_100_LN_9_LD_15_RN_8_RD_16_0.png","img2/100/Congruent/L/C_Dist_100_LN_10_LD_25_RN_3_RD_10_0.png","img2/300/Incongruent/L/I_Dist_300_LN_4_LD_5_RN_8_RD_16_0.png","img2/200/Congruent/L/C_Dist_200_LN_7_LD_21_RN_2_RD_15_0.png","img2/300/Incongruent/R/I_Dist_300_LN_4_LD_20_RN_2_RD_4_1.png","img2/100/Congruent/L/C_Dist_100_LN_6_LD_20_RN_5_RD_25_0.png","img2/300/Incongruent/R/I_Dist_300_LN_13_LD_26_RN_12_RD_15_1.png","img2/200/Incongruent/R/I_Dist_200_LN_7_LD_15_RN_6_RD_9_1.png","img2/300/Incongruent/L/I_Dist_300_LN_8_LD_10_RN_14_RD_28_0.png","img2/200/Incongruent/L/I_Dist_200_LN_1_LD_3_RN_2_RD_15_0.png","img2/200/Incongruent/L/I_Dist_200_LN_1_LD_2_RN_3_RD_10_0.png","img2/300/Congruent/R/C_Dist_300_LN_1_LD_5_RN_3_RD_6_1.png","img2/200/Congruent/R/C_Dist_200_LN_3_LD_6_RN_14_RD_20_1.png","img2/300/Incongruent/L/I_Dist_300_LN_1_LD_2_RN_2_RD_10_0.png","img2/300/Congruent/L/C_Dist_300_LN_11_LD_22_RN_2_RD_10_0.png","img2/100/Incongruent/R/I_Dist_100_LN_10_LD_25_RN_9_RD_18_1.png","img2/300/Incongruent/L/I_Dist_300_LN_1_LD_2_RN_2_RD_10_0.png","img2/200/Congruent/R/C_Dist_200_LN_6_LD_12_RN_7_RD_10_1.png","img2/200/Congruent/L/C_Dist_200_LN_4_LD_10_RN_3_RD_15_0.png","img2/100/Incongruent/L/I_Dist_100_LN_9_LD_15_RN_14_RD_28_0.png","img2/300/Incongruent/L/I_Dist_300_LN_1_LD_2_RN_2_RD_10_0.png","img2/100/Incongruent/R/I_Dist_100_LN_6_LD_12_RN_3_RD_5_1.png","img2/300/Incongruent/R/I_Dist_300_LN_4_LD_20_RN_2_RD_4_1.png","img2/300/Incongruent/R/I_Dist_300_LN_4_LD_20_RN_2_RD_4_1.png","img2/200/Congruent/L/C_Dist_200_LN_4_LD_10_RN_3_RD_15_0.png","img2/300/Congruent/L/C_Dist_300_LN_11_LD_22_RN_1_RD_5_0.png","img2/300/Congruent/L/C_Dist_300_LN_4_LD_5_RN_2_RD_4_0.png","img2/100/Congruent/R/C_Dist_100_LN_7_LD_14_RN_9_RD_15_1.png","img2/100/Congruent/L/C_Dist_100_LN_11_LD_22_RN_4_RD_10_0.png","img2/300/Incongruent/R/I_Dist_300_LN_13_LD_26_RN_12_RD_15_1.png","img2/100/Congruent/L/C_Dist_100_LN_11_LD_22_RN_4_RD_10_0.png","img2/200/Congruent/L/C_Dist_200_LN_8_LD_15_RN_2_RD_6_0.png","img2/300/Congruent/L/C_Dist_300_LN_4_LD_5_RN_2_RD_4_0.png","img2/200/Congruent/L/C_Dist_200_LN_4_LD_8_RN_3_RD_10_0.png","img2/100/Incongruent/L/I_Dist_100_LN_6_LD_10_RN_11_RD_22_0.png","img2/100/Incongruent/R/I_Dist_100_LN_12_LD_30_RN_2_RD_4_1.png","img2/200/Incongruent/R/I_Dist_200_LN_7_LD_15_RN_4_RD_6_1.png","img2/200/Congruent/R/C_Dist_200_LN_7_LD_15_RN_18_RD_27_1.png","img2/100/Incongruent/R/I_Dist_100_LN_13_LD_26_RN_6_RD_10_1.png","img2/300/Congruent/R/C_Dist_300_LN_5_LD_25_RN_7_RD_14_1.png","img2/100/Congruent/R/C_Dist_100_LN_4_LD_8_RN_6_RD_10_1.png","img2/100/Incongruent/R/I_Dist_100_LN_13_LD_26_RN_12_RD_20_1.png","img2/300/Incongruent/R/I_Dist_300_LN_4_LD_20_RN_2_RD_4_1.png","img2/100/Congruent/L/C_Dist_100_LN_15_LD_25_RN_13_RD_26_0.png","img2/300/Incongruent/R/I_Dist_300_LN_13_LD_26_RN_12_RD_15_1.png","img2/100/Congruent/R/C_Dist_100_LN_2_LD_5_RN_6_RD_12_1.png","img2/100/Incongruent/R/I_Dist_100_LN_12_LD_30_RN_2_RD_4_1.png","img2/200/Congruent/R/C_Dist_200_LN_5_LD_10_RN_14_RD_20_1.png","img2/100/Incongruent/L/I_Dist_100_LN_1_LD_2_RN_8_RD_20_0.png","img2/200/Incongruent/R/I_Dist_200_LN_4_LD_30_RN_1_RD_3_1.png","img2/300/Congruent/R/C_Dist_300_LN_1_LD_5_RN_11_RD_22_1.png","img2/300/Incongruent/L/I_Dist_300_LN_1_LD_2_RN_2_RD_10_0.png","img2/300/Incongruent/R/I_Dist_300_LN_13_LD_26_RN_12_RD_15_1.png","img2/100/Incongruent/L/I_Dist_100_LN_4_LD_8_RN_8_RD_20_0.png","img2/300/Congruent/L/C_Dist_300_LN_24_LD_30_RN_2_RD_4_0.png","img2/100/Congruent/L/C_Dist_100_LN_6_LD_20_RN_5_RD_25_0.png","img2/300/Congruent/R/C_Dist_300_LN_1_LD_20_RN_7_RD_20_1.png","img2/200/Congruent/L/C_Dist_200_LN_20_LD_25_RN_9_RD_15_0.png","img2/200/Incongruent/R/I_Dist_200_LN_11_LD_20_RN_3_RD_4_1.png","img2/200/Incongruent/L/I_Dist_200_LN_7_LD_10_RN_14_RD_28_0.png","img2/200/Incongruent/L/I_Dist_200_LN_7_LD_10_RN_12_RD_24_0.png","img2/100/Congruent/R/C_Dist_100_LN_7_LD_14_RN_9_RD_15_1.png","img2/100/Congruent/L/C_Dist_100_LN_3_LD_6_RN_2_RD_5_0.png","img2/100/Incongruent/L/I_Dist_100_LN_6_LD_10_RN_7_RD_14_0.png","img2/100/Congruent/L/C_Dist_100_LN_9_LD_15_RN_8_RD_16_0.png","img2/200/Incongruent/L/I_Dist_200_LN_4_LD_6_RN_14_RD_30_0.png","img2/100/Incongruent/R/I_Dist_100_LN_6_LD_12_RN_3_RD_5_1.png","img2/200/Congruent/R/C_Dist_200_LN_1_LD_2_RN_21_RD_30_1.png","img2/100/Congruent/L/C_Dist_100_LN_10_LD_25_RN_3_RD_10_0.png","img2/300/Incongruent/R/I_Dist_300_LN_13_LD_26_RN_12_RD_15_1.png","img2/300/Congruent/L/C_Dist_300_LN_20_LD_25_RN_14_RD_28_0.png","img2/200/Incongruent/L/I_Dist_200_LN_7_LD_10_RN_14_RD_28_0.png","img2/100/Incongruent/L/I_Dist_100_LN_9_LD_15_RN_14_RD_28_0.png","img2/300/Congruent/L/C_Dist_300_LN_11_LD_22_RN_4_RD_20_0.png","img2/200/Congruent/L/C_Dist_200_LN_12_LD_15_RN_6_RD_10_0.png","img2/300/Congruent/R/C_Dist_300_LN_4_LD_20_RN_13_RD_26_1.png","img2/100/Congruent/L/C_Dist_100_LN_8_LD_16_RN_2_RD_5_0.png","img2/300/Incongruent/R/I_Dist_300_LN_13_LD_26_RN_12_RD_15_1.png","img2/200/Incongruent/L/I_Dist_200_LN_7_LD_10_RN_14_RD_28_0.png","img2/300/Congruent/L/C_Dist_300_LN_12_LD_24_RN_2_RD_10_0.png","img2/300/Congruent/L/C_Dist_300_LN_8_LD_16_RN_1_RD_5_0.png","img2/100/Congruent/L/C_Dist_100_LN_15_LD_25_RN_13_RD_26_0.png","img2/100/Incongruent/L/I_Dist_100_LN_1_LD_2_RN_8_RD_20_0.png","img2/200/Incongruent/R/I_Dist_200_LN_14_LD_30_RN_6_RD_9_1.png","img2/300/Congruent/R/C_Dist_300_LN_2_LD_20_RN_10_RD_25_1.png","img2/300/Congruent/L/C_Dist_300_LN_18_LD_20_RN_9_RD_15_0.png","img2/300/Incongruent/L/I_Dist_300_LN_4_LD_5_RN_8_RD_16_0.png","img2/100/Incongruent/R/I_Dist_100_LN_10_LD_25_RN_8_RD_16_1.png","img2/300/Incongruent/L/I_Dist_300_LN_7_LD_10_RN_8_RD_20_0.png","img2/200/Incongruent/R/I_Dist_200_LN_4_LD_30_RN_1_RD_3_1.png","img2/200/Incongruent/R/I_Dist_200_LN_9_LD_15_RN_8_RD_10_1.png","img2/200/Incongruent/L/I_Dist_200_LN_7_LD_10_RN_12_RD_24_0.png","img2/200/Incongruent/R/I_Dist_200_LN_7_LD_15_RN_4_RD_6_1.png","img2/200/Incongruent/R/I_Dist_200_LN_3_LD_10_RN_1_RD_2_1.png","img2/100/Incongruent/L/I_Dist_100_LN_6_LD_10_RN_13_RD_26_0.png","img2/300/Congruent/R/C_Dist_300_LN_1_LD_20_RN_7_RD_20_1.png","img2/200/Incongruent/L/I_Dist_200_LN_1_LD_3_RN_2_RD_15_0.png","img2/100/Congruent/L/C_Dist_100_LN_15_LD_25_RN_13_RD_26_0.png","img2/300/Congruent/L/C_Dist_300_LN_4_LD_10_RN_1_RD_10_0.png","img2/300/Congruent/L/C_Dist_300_LN_18_LD_20_RN_9_RD_15_0.png","img2/200/Congruent/L/C_Dist_200_LN_15_LD_25_RN_4_RD_10_0.png"],"dist100_C":[["C_Dist_100_LN_10_LD_25_RN_3_RD_10_0.png","C_Dist_100_LN_11_LD_22_RN_4_RD_10_0.png","C_Dist_100_LN_11_LD_22_RN_6_RD_15_0.png","C_Dist_100_LN_15_LD_25_RN_13_RD_26_0.png","C_Dist_100_LN_3_LD_6_RN_2_RD_5_0.png","C_Dist_100_LN_6_LD_20_RN_5_RD_25_0.png","C_Dist_100_LN_8_LD_16_RN_2_RD_5_0.png","C_Dist_100_LN_9_LD_15_RN_8_RD_16_0.png"],["C_Dist_100_LN_1_LD_2_RN_18_RD_30_1.png","C_Dist_100_LN_1_LD_2_RN_3_RD_5_1.png","C_Dist_100_LN_12_LD_30_RN_13_RD_26_1.png","C_Dist_100_LN_2_LD_5_RN_11_RD_22_1.png","C_Dist_100_LN_2_LD_5_RN_6_RD_12_1.png","C_Dist_100_LN_3_LD_20_RN_4_RD_16_1.png","C_Dist_100_LN_4_LD_10_RN_15_RD_30_1.png","C_Dist_100_LN_4_LD_8_RN_6_RD_10_1.png","C_Dist_100_LN_6_LD_12_RN_15_RD_25_1.png","C_Dist_100_LN_7_LD_14_RN_15_RD_25_1.png","C_Dist_100_LN_7_LD_14_RN_9_RD_15_1.png"]],"dist100_I":[["I_Dist_100_LN_1_LD_2_RN_8_RD_20_0.png","I_Dist_100_LN_2_LD_4_RN_6_RD_15_0.png","I_Dist_100_LN_2_LD_4_RN_8_RD_20_0.png","I_Dist_100_LN_3_LD_5_RN_11_RD_22_0.png","I_Dist_100_LN_3_LD_5_RN_8_RD_16_0.png","I_Dist_100_LN_3_LD_6_RN_4_RD_10_0.png","I_Dist_100_LN_3_LD_9_RN_7_RD_30_0.png","I_Dist_100_LN_4_LD_8_RN_8_RD_20_0.png","I_Dist_100_LN_6_LD_10_RN_11_RD_22_0.png","I_Dist_100_LN_6_LD_10_RN_13_RD_26_0.png","I_Dist_100_LN_6_LD_10_RN_7_RD_14_0.png","I_Dist_100_LN_9_LD_10_RN_20_RD_25_0.png","I_Dist_100_LN_9_LD_15_RN_13_RD_26_0.png","I_Dist_100_LN_9_LD_15_RN_14_RD_28_0.png"],["I_Dist_100_LN_10_LD_25_RN_8_RD_16_1.png","I_Dist_100_LN_10_LD_25_RN_9_RD_18_1.png","I_Dist_100_LN_11_LD_22_RN_9_RD_15_1.png","I_Dist_100_LN_12_LD_24_RN_9_RD_15_1.png","I_Dist_100_LN_12_LD_30_RN_2_RD_4_1.png","I_Dist_100_LN_13_LD_26_RN_12_RD_20_1.png","I_Dist_100_LN_13_LD_26_RN_6_RD_10_1.png","I_Dist_100_LN_17_LD_30_RN_10_RD_15_1.png","I_Dist_100_LN_6_LD_12_RN_3_RD_5_1.png","I_Dist_100_LN_8_LD_16_RN_6_RD_10_1.png","I_Dist_100_LN_8_LD_20_RN_1_RD_2_1.png","I_Dist_100_LN_9_LD_18_RN_6_RD_10_1.png"]],"dist100_S":[["E_Dist_100_LN_2_LD_12_RN_2_RD_30_0.png","E_Dist_100_LN_6_LD_10_RN_6_RD_12_0.png"],["E_Dist_100_LN_6_LD_12_RN_6_RD_10_1.png"]],"dist200_C":[["C_Dist_200_LN_11_LD_22_RN_3_RD_10_0.png","C_Dist_200_LN_12_LD_15_RN_6_RD_10_0.png","C_Dist_200_LN_12_LD_20_RN_6_RD_15_0.png","C_Dist_200_LN_14_LD_28_RN_6_RD_20_0.png","C_Dist_200_LN_15_LD_25_RN_4_RD_10_0.png","C_Dist_200_LN_16_LD_20_RN_12_RD_20_0.png","C_Dist_200_LN_16_LD_30_RN_9_RD_27_0.png","C_Dist_200_LN_20_LD_25_RN_9_RD_15_0.png","C_Dist_200_LN_21_LD_30_RN_2_RD_4_0.png","C_Dist_200_LN_4_LD_10_RN_3_RD_15_0.png","C_Dist_200_LN_4_LD_8_RN_3_RD_10_0.png","C_Dist_200_LN_6_LD_15_RN_3_RD_15_0.png","C_Dist_200_LN_7_LD_21_RN_2_RD_15_0.png","C_Dist_200_LN_8_LD_15_RN_2_RD_6_0.png","C_Dist_200_LN_8_LD_15_RN_3_RD_9_0.png","C_Dist_200_LN_8_LD_15_RN_7_RD_21_0.png","C_Dist_200_LN_9_LD_20_RN_4_RD_16_0.png"],["C_Dist_200_LN_1_LD_2_RN_21_RD_30_1.png","C_Dist_200_LN_13_LD_26_RN_14_RD_20_1.png","C_Dist_200_LN_3_LD_10_RN_11_RD_22_1.png","C_Dist_200_LN_3_LD_10_RN_14_RD_28_1.png","C_Dist_200_LN_3_LD_10_RN_7_RD_14_1.png","C_Dist_200_LN_3_LD_12_RN_9_RD_20_1.png","C_Dist_200_LN_3_LD_6_RN_14_RD_20_1.png","C_Dist_200_LN_5_LD_10_RN_14_RD_20_1.png","C_Dist_200_LN_6_LD_12_RN_7_RD_10_1.png","C_Dist_200_LN_6_LD_20_RN_11_RD_22_1.png","C_Dist_200_LN_7_LD_15_RN_18_RD_27_1.png","C_Dist_200_LN_9_LD_30_RN_13_RD_26_1.png"]],"dist200_I":[["I_Dist_200_LN_1_LD_2_RN_3_RD_10_0.png","I_Dist_200_LN_1_LD_3_RN_2_RD_15_0.png","I_Dist_200_LN_3_LD_4_RN_11_RD_20_0.png","I_Dist_200_LN_4_LD_5_RN_6_RD_10_0.png","I_Dist_200_LN_4_LD_6_RN_14_RD_30_0.png","I_Dist_200_LN_7_LD_10_RN_12_RD_24_0.png","I_Dist_200_LN_7_LD_10_RN_14_RD_28_0.png","I_Dist_200_LN_7_LD_10_RN_8_RD_16_0.png"],["I_Dist_200_LN_11_LD_20_RN_3_RD_4_1.png","I_Dist_200_LN_14_LD_30_RN_12_RD_18_1.png","I_Dist_200_LN_14_LD_30_RN_6_RD_9_1.png","I_Dist_200_LN_3_LD_10_RN_1_RD_2_1.png","I_Dist_200_LN_4_LD_30_RN_1_RD_3_1.png","I_Dist_200_LN_6_LD_20_RN_3_RD_6_1.png","I_Dist_200_LN_7_LD_15_RN_4_RD_6_1.png","I_Dist_200_LN_7_LD_15_RN_6_RD_9_1.png","I_Dist_200_LN_9_LD_15_RN_8_RD_10_1.png"]],"dist200_S":[["E_Dist_200_LN_3_LD_6_RN_3_RD_10_0.png"],["E_Dist_200_LN_3_LD_10_RN_3_RD_6_1.png"]],"dist300_C":[["C_Dist_300_LN_11_LD_22_RN_1_RD_5_0.png","C_Dist_300_LN_11_LD_22_RN_2_RD_10_0.png","C_Dist_300_LN_11_LD_22_RN_4_RD_20_0.png","C_Dist_300_LN_12_LD_24_RN_2_RD_10_0.png","C_Dist_300_LN_18_LD_20_RN_9_RD_15_0.png","C_Dist_300_LN_20_LD_25_RN_13_RD_26_0.png","C_Dist_300_LN_20_LD_25_RN_14_RD_28_0.png","C_Dist_300_LN_20_LD_25_RN_5_RD_10_0.png","C_Dist_300_LN_20_LD_25_RN_8_RD_16_0.png","C_Dist_300_LN_20_LD_25_RN_9_RD_18_0.png","C_Dist_300_LN_24_LD_30_RN_2_RD_4_0.png","C_Dist_300_LN_24_LD_30_RN_8_RD_16_0.png","C_Dist_300_LN_3_LD_6_RN_2_RD_10_0.png","C_Dist_300_LN_4_LD_10_RN_1_RD_10_0.png","C_Dist_300_LN_4_LD_5_RN_2_RD_4_0.png","C_Dist_300_LN_8_LD_16_RN_1_RD_5_0.png","C_Dist_300_LN_9_LD_10_RN_3_RD_5_0.png"],["C_Dist_300_LN_1_LD_20_RN_7_RD_20_1.png","C_Dist_300_LN_1_LD_3_RN_19_RD_30_1.png","C_Dist_300_LN_1_LD_30_RN_8_RD_24_1.png","C_Dist_300_LN_1_LD_5_RN_11_RD_22_1.png","C_Dist_300_LN_1_LD_5_RN_3_RD_6_1.png","C_Dist_300_LN_1_LD_5_RN_6_RD_12_1.png","C_Dist_300_LN_2_LD_10_RN_12_RD_24_1.png","C_Dist_300_LN_2_LD_20_RN_10_RD_25_1.png","C_Dist_300_LN_3_LD_12_RN_11_RD_20_1.png","C_Dist_300_LN_3_LD_6_RN_4_RD_5_1.png","C_Dist_300_LN_4_LD_20_RN_13_RD_26_1.png","C_Dist_300_LN_5_LD_25_RN_6_RD_12_1.png","C_Dist_300_LN_5_LD_25_RN_7_RD_14_1.png","C_Dist_300_LN_7_LD_14_RN_20_RD_25_1.png","C_Dist_300_LN_8_LD_15_RN_10_RD_12_1.png"]],"dist300_I":[["I_Dist_300_LN_1_LD_2_RN_2_RD_10_0.png","I_Dist_300_LN_1_LD_2_RN_3_RD_15_0.png","I_Dist_300_LN_2_LD_4_RN_6_RD_30_0.png","I_Dist_300_LN_3_LD_6_RN_4_RD_20_0.png","I_Dist_300_LN_4_LD_5_RN_6_RD_12_0.png","I_Dist_300_LN_4_LD_5_RN_8_RD_16_0.png","I_Dist_300_LN_7_LD_10_RN_8_RD_20_0.png","I_Dist_300_LN_8_LD_10_RN_14_RD_28_0.png","I_Dist_300_LN_8_LD_10_RN_9_RD_18_0.png"],["I_Dist_300_LN_13_LD_26_RN_12_RD_15_1.png","I_Dist_300_LN_4_LD_20_RN_2_RD_4_1.png"]],"dist300_S":[["E_Dist_300_LN_9_LD_12_RN_9_RD_20_0.png"],["E_Dist_300_LN_18_LD_30_RN_18_RD_20_1.png","E_Dist_300_LN_3_LD_10_RN_3_RD_5_1.png","E_Dist_300_LN_9_LD_20_RN_9_RD_12_1.png"]],"dist500_C":[["C_Dist_500_LN_10_LD_13_RN_7_RD_26_0.png","C_Dist_500_LN_10_LD_15_RN_4_RD_24_0.png","C_Dist_500_LN_12_LD_16_RN_3_RD_12_0.png","C_Dist_500_LN_12_LD_18_RN_4_RD_24_0.png","C_Dist_500_LN_15_LD_18_RN_5_RD_15_0.png","C_Dist_500_LN_15_LD_20_RN_1_RD_4_0.png","C_Dist_500_LN_18_LD_27_RN_1_RD_6_0.png","C_Dist_500_LN_20_LD_24_RN_1_RD_3_0.png","C_Dist_500_LN_20_LD_24_RN_3_RD_9_0.png","C_Dist_500_LN_20_LD_24_RN_7_RD_21_0.png","C_Dist_500_LN_20_LD_28_RN_3_RD_14_0.png","C_Dist_500_LN_21_LD_28_RN_6_RD_24_0.png","C_Dist_500_LN_22_LD_28_RN_2_RD_7_0.png","C_Dist_500_LN_25_LD_30_RN_9_RD_27_0.png","C_Dist_500_LN_4_LD_6_RN_1_RD_6_0.png","C_Dist_500_LN_5_LD_6_RN_2_RD_6_0.png","C_Dist_500_LN_6_LD_9_RN_1_RD_6_0.png","C_Dist_500_LN_7_LD_10_RN_1_RD_5_0.png","C_Dist_500_LN_8_LD_12_RN_1_RD_6_0.png","C_Dist_500_LN_8_LD_12_RN_4_RD_24_0.png"],["C_Dist_500_LN_1_LD_4_RN_12_RD_16_1.png","C_Dist_500_LN_1_LD_4_RN_9_RD_12_1.png","C_Dist_500_LN_1_LD_9_RN_11_RD_18_1.png","C_Dist_500_LN_10_LD_24_RN_22_RD_24_1.png","C_Dist_500_LN_2_LD_12_RN_10_RD_15_1.png","C_Dist_500_LN_2_LD_12_RN_12_RD_18_1.png","C_Dist_500_LN_2_LD_12_RN_4_RD_6_1.png","C_Dist_500_LN_2_LD_24_RN_7_RD_12_1.png","C_Dist_500_LN_2_LD_5_RN_18_RD_20_1.png","C_Dist_500_LN_2_LD_5_RN_9_RD_10_1.png","C_Dist_500_LN_2_LD_8_RN_12_RD_16_1.png","C_Dist_500_LN_2_LD_8_RN_21_RD_28_1.png","C_Dist_500_LN_3_LD_10_RN_4_RD_5_1.png","C_Dist_500_LN_3_LD_12_RN_15_RD_20_1.png","C_Dist_500_LN_3_LD_30_RN_6_RD_10_1.png","C_Dist_500_LN_3_LD_8_RN_14_RD_16_1.png","C_Dist_500_LN_4_LD_16_RN_15_RD_20_1.png","C_Dist_500_LN_4_LD_24_RN_12_RD_18_1.png","C_Dist_500_LN_5_LD_14_RN_6_RD_7_1.png","C_Dist_500_LN_7_LD_21_RN_20_RD_24_1.png","C_Dist_500_LN_7_LD_28_RN_12_RD_16_1.png","C_Dist_500_LN_7_LD_28_RN_9_RD_12_1.png","C_Dist_500_LN_9_LD_27_RN_20_RD_24_1.png"]],"dist500_I":[["I_Dist_500_LN_2_LD_3_RN_4_RD_24_0.png","I_Dist_500_LN_5_LD_6_RN_6_RD_18_0.png","I_Dist_500_LN_7_LD_8_RN_9_RD_24_0.png"],["I_Dist_500_LN_7_LD_21_RN_5_RD_6_1.png"]],"dist500_S":[["E_Dist_500_LN_6_LD_8_RN_6_RD_24_0.png"],["E_Dist_500_LN_2_LD_12_RN_2_RD_3_1.png","E_Dist_500_LN_6_LD_24_RN_6_RD_8_1.png"]]}},{"start_time":1552073642022,"click_time":1552073642611,"finger_time":1552073642371,"fix_duration":250,"trial":1,"RT":349,"MT":240,"sideResp":1,"stimulus":[],"xmouse":[805,805,805,805,805,802,802,800,799,799,799,799,799,799,799,799,799,780,752,711,663,618,581,568,555,547,534,518,506,495],"ymouse":[514,514,514,514,514,514,515,515,516,516,516,516,516,516,516,516,516,458,383,304,226,163,120,115,112,111,109,105,101,98],"timestamp_mouse":[10,41,48,68,89,109,129,148,169,190,208,228,249,268,288,309,329,349,369,388,408,429,449,468,488,509,528,548,568,588],"xSR":741.5,"ySR":469.95,"xT1":424.9,"yT1":0,"xT2":1058.1,"yT2":0,"toosoon":0,"cond_shown":"Congruent","ratio_trial":200,"L_num":3,"L_den":6,"R_num":14,"R_den":20,"correct_side":2,"subjID":"Sara Manuela Camargo Herrera 30","gender":"1","school":"4","age":"9"},{"start_time":1552073644096,"click_time":1552073644511,"finger_time":1552073644410,"fix_duration":364.56608962202654,"trial":2,"RT":314,"MT":101,"sideResp":2,"stimulus":[],"xmouse":[785,785,785,785,785,785,785,785,785,785,785,785,785,793,826,868,905,951,1068,1110,1136],"ymouse":[525,525,525,525,525,525,525,525,525,525,525,525,524,518,482,438,386,318,179,121,81],"timestamp_mouse":[15,39,54,74,95,115,134,154,174,194,214,234,255,274,294,314,334,355,375,394,415],"xSR":741.5,"ySR":469.95,"xT1":424.9,"yT1":0,"xT2":1058.1,"yT2":0,"toosoon":0,"cond_shown":"Congruent","ratio_trial":100,"L_num":9,"L_den":15,"R_num":8,"R_den":16,"correct_side":1,"subjID":"Sara Manuela Camargo Herrera 30","gender":"1","school":"4","age":"9"},{"start_time":1552073652783,"click_time":1552073653331,"finger_time":1552073653212,"fix_duration":989.7832977950371,"trial":3,"RT":429,"MT":119,"sideResp":2,"stimulus":[],"xmouse":[817,817,817,817,817,817,817,817,817,817,817,817,817,817,817,817,817,818,819,820,834,880,947,991,1043,1059,1071,1082],"ymouse":[475,475,475,475,475,475,475,475,475,475,475,475,477,480,498,505,512,518,519,521,509,454,374,307,214,169,123,82],"timestamp_mouse":[10,28,47,67,88,107,127,147,167,188,207,227,248,268,287,308,327,347,368,388,408,429,448,467,489,507,527,547],"xSR":741.5,"ySR":469.95,"xT1":424.9,"yT1":0,"xT2":1058.1,"yT2":0,"toosoon":0,"cond_shown":"Congruent","ratio_trial":200,"L_num":8,"L_den":15,"R_num":2,"R_den":6,"correct_side":1,"subjID":"Sara Manuela Camargo Herrera 30","gender":"1","school":"4","age":"9"},{"start_time":1552073654991,"click_time":1552073655950,"finger_time":1552073655611,"fix_duration":720.2950141949858,"trial":4,"RT":620,"MT":339,"sideResp":1,"stimulus":[],"xmouse":[790,790,790,790,790,790,790,790,790,790,790,790,790,790,790,790,790,790,790,790,790,790,790,790,790,790,790,790,791,750,688,622,573,501,483,470,458,443,409,405,402,399,398,398,398,398,406,432],"ymouse":[514,514,514,514,514,514,514,514,514,514,514,514,514,514,514,514,514,514,514,514,514,514,514,514,514,514,514,514,513,486,447,393,349,255,223,199,180,162,126,116,107,97,90,86,86,86,86,89],"timestamp_mouse":[20,50,59,79,99,119,140,160,179,200,220,240,259,280,300,319,340,359,379,400,419,440,460,479,500,519,541,559,579,600,620,639,660,680,699,719,740,759,780,799,819,840,859,880,899,920,939,959],"xSR":741.5,"ySR":469.95,"xT1":424.9,"yT1":0,"xT2":1058.1,"yT2":0,"toosoon":0,"cond_shown":"Congruent","ratio_trial":200,"L_num":9,"L_den":30,"R_num":13,"R_den":26,"correct_side":2,"subjID":"Sara Manuela Camargo Herrera 30","gender":"1","school":"4","age":"9"},{"start_time":1552073657842,"click_time":1552073658830,"finger_time":1552073658210,"fix_duration":727.2608900290273,"trial":5,"RT":368,"MT":620,"sideResp":2,"stimulus":[],"xmouse":[794,794,794,794,794,794,794,794,794,794,794,794,794,794,794,796,806,818,839,861,875,888,892,897,901,907,922,933,945,954,964,978,984,989,999,1003,1023,1031,1038,1044,1047,1050,1051,1053,1054,1054,1056,1057,1058,1061],"ymouse":[530,530,530,530,530,530,530,530,530,530,530,530,530,528,527,522,502,480,448,411,385,351,340,333,328,319,304,296,289,282,275,260,250,238,214,204,153,133,114,99,91,83,82,79,78,77,77,77,77,77],"timestamp_mouse":[14,28,48,68,90,108,128,148,169,188,208,230,248,268,289,308,328,349,368,389,408,428,448,469,489,508,529,548,568,589,609,629,648,669,690,708,729,748,768,788,809,829,848,869,889,908,929,949,968,988],"xSR":741.5,"ySR":469.95,"xT1":424.9,"yT1":0,"xT2":1058.1,"yT2":0,"toosoon":0,"cond_shown":"Congruent","ratio_trial":200,"L_num":4,"L_den":8,"R_num":3,"R_den":10,"correct_side":1,"subjID":"Sara Manuela Camargo Herrera 30","gender":"1","school":"4","age":"9"},{"start_time":1552073661133,"click_time":1552073661651,"finger_time":1552073661410,"fix_duration":861.6499160379364,"trial":6,"RT":277,"MT":241,"sideResp":2,"stimulus":[],"xmouse":[801,801,804,806,807,810,810,810,810,811,812,817,825,845,878,917,951,986,994,1000,1005,1012,1020,1037,1050,1060],"ymouse":[507,507,505,503,501,500,499,499,499,498,497,490,480,457,422,376,329,246,220,203,182,151,131,105,82,64],"timestamp_mouse":[18,39,57,77,98,117,137,158,177,197,218,238,258,277,297,317,337,357,378,397,418,438,457,479,497,518],"xSR":741.5,"ySR":469.95,"xT1":424.9,"yT1":0,"xT2":1058.1,"yT2":0,"toosoon":0,"cond_shown":"Incongruent","ratio_trial":100,"L_num":3,"L_den":5,"R_num":11,"R_den":22,"correct_side":1,"subjID":"Sara Manuela Camargo Herrera 30","gender":"1","school":"4","age":"9"},{"start_time":1552073663016,"click_time":1552073663971,"finger_time":1552073663551,"fix_duration":482.7664625752628,"trial":7,"RT":535,"MT":420,"sideResp":1,"stimulus":[],"xmouse":[776,776,776,776,776,776,776,776,776,776,776,776,776,776,776,776,776,776,776,776,776,776,777,776,774,768,751,720,710,697,693,686,679,668,661,652,648,631,624,618,611,601,579,569,558,548,528,506],"ymouse":[516,516,516,516,516,516,516,516,516,516,516,516,516,516,516,516,516,516,516,516,516,516,515,507,495,475,429,359,334,314,303,291,281,266,258,250,245,224,215,205,197,185,155,141,126,113,93,71],"timestamp_mouse":[15,42,55,75,95,115,135,154,174,195,215,235,256,275,294,315,334,354,374,395,414,434,454,475,495,515,535,554,574,594,615,635,655,674,694,714,734,755,775,795,814,834,856,874,895,915,935,954],"xSR":741.5,"ySR":469.95,"xT1":424.9,"yT1":0,"xT2":1058.1,"yT2":0,"toosoon":0,"cond_shown":"Incongruent","ratio_trial":100,"L_num":6,"L_den":12,"R_num":3,"R_den":5,"correct_side":2,"subjID":"Sara Manuela Camargo Herrera 30","gender":"1","school":"4","age":"9"},{"start_time":1552073669238,"click_time":1552073671490,"finger_time":1552073669910,"fix_duration":1065.4996724684413,"trial":8,"RT":672,"MT":1580,"sideResp":1,"stimulus":[],"xmouse":[772,772,773,774,774,774,774,774,774,774,774,774,774,774,774,774,774,774,774,774,774,774,774,773,770,767,765,765,765,766,768,772,779,795,806,811,800,789,789,777,754,749,749,749,751,761,782,784,777,765,753,750,738,728,717,697,659,647,644,641,640,639,638,636,632,631,634,648,672,707,762,877,924,959,981,993,993,993,993,993,993,993,993,987,971,954,935,926,916,903,882,842,707,645,576,476,421,380,379,379,379,379,379,381,382,382,376,372,370,370,370,412,425],"ymouse":[529,529,530,530,530,530,530,530,530,530,530,530,530,530,530,530,530,530,530,530,530,530,528,527,523,515,504,498,494,490,488,482,477,468,462,458,449,447,447,442,425,407,402,387,379,345,264,227,201,182,172,171,170,167,165,164,164,167,168,170,170,172,172,174,177,180,194,209,233,264,303,381,408,429,440,444,444,444,444,444,444,444,445,445,445,445,455,470,484,495,499,499,460,405,327,193,114,42,36,36,36,36,36,34,31,31,29,29,29,29,30,36,37],"timestamp_mouse":[12,35,53,73,92,114,132,153,173,192,212,234,253,272,293,313,334,353,373,392,412,433,453,473,492,512,533,553,574,593,612,633,652,672,694,712,733,752,772,792,812,832,852,872,893,912,934,952,972,993,1012,1033,1052,1072,1092,1112,1133,1152,1172,1192,1213,1232,1252,1272,1294,1313,1333,1352,1372,1392,1413,1433,1452,1472,1493,1513,1533,1553,1573,1593,1613,1632,1652,1673,1692,1713,1733,1753,1772,1793,1813,1832,1853,1873,1892,1912,1933,1954,1972,1993,2012,2032,2053,2072,2092,2112,2133,2153,2173,2192,2213,2233,2252],"xSR":741.5,"ySR":469.95,"xT1":424.9,"yT1":0,"xT2":1058.1,"yT2":0,"toosoon":0,"cond_shown":"Incongruent","ratio_trial":100,"L_num":6,"L_den":10,"R_num":7,"R_den":14,"correct_side":1,"subjID":"Sara Manuela Camargo Herrera 30","gender":"1","school":"4","age":"9"},{"start_time":1552073673221,"click_time":1552073674090,"finger_time":1552073673491,"fix_duration":768.891846052651,"trial":9,"RT":270,"MT":599,"sideResp":1,"stimulus":[],"xmouse":[792,792,792,792,792,792,792,792,792,792,792,789,779,749,718,670,590,541,485,475,469,464,448,441,441,441,441,441,441,441,441,441,441,441,441,441,441,441,441,441,441,441,442,446],"ymouse":[505,505,505,505,505,505,505,505,505,505,502,498,487,450,408,340,238,174,119,114,112,111,106,104,103,103,103,103,103,103,103,103,103,103,103,103,103,103,103,103,103,103,101,99],"timestamp_mouse":[12,36,49,71,89,110,130,151,169,190,209,230,249,270,290,310,329,349,370,390,409,429,450,469,489,510,529,550,569,590,609,629,650,670,689,710,729,750,769,790,809,829,850,869],"xSR":741.5,"ySR":469.95,"xT1":424.9,"yT1":0,"xT2":1058.1,"yT2":0,"toosoon":0,"cond_shown":"Incongruent","ratio_trial":300,"L_num":13,"L_den":26,"R_num":12,"R_den":15,"correct_side":2,"subjID":"Sara Manuela Camargo Herrera 30","gender":"1","school":"4","age":"9"},{"start_time":1552073677844,"click_time":1552073678951,"finger_time":1552073678350,"fix_duration":250,"trial":10,"RT":506,"MT":601,"sideResp":1,"stimulus":[],"xmouse":[799,799,799,799,799,799,799,799,799,799,799,799,799,799,798,798,803,806,808,809,809,809,806,792,773,730,622,546,469,387,323,289,266,263,262,261,260,260,260,268,279,302,321,330,330,330,330,330,330,330,388,406,410,416,421,443],"ymouse":[510,510,510,510,510,510,510,510,510,510,510,510,510,510,509,509,503,499,497,493,492,490,488,484,479,464,403,350,292,232,183,149,109,99,95,91,88,78,70,57,42,15,4,1,1,1,1,1,1,1,0,10,14,19,26,50],"timestamp_mouse":[14,40,46,68,87,106,126,146,166,186,207,226,246,267,286,306,326,347,367,387,407,426,448,466,486,506,527,546,566,586,607,626,646,667,687,706,727,747,767,786,806,827,846,866,886,906,927,947,967,986,1006,1027,1046,1066,1086,1107],"xSR":741.5,"ySR":469.95,"xT1":424.9,"yT1":0,"xT2":1058.1,"yT2":0,"toosoon":0,"cond_shown":"Incongruent","ratio_trial":200,"L_num":3,"L_den":10,"R_num":1,"R_den":2,"correct_side":2,"subjID":"Sara Manuela Camargo Herrera 30","gender":"1","school":"4","age":"9"},{"start_time":1552073681113,"click_time":1552073681790,"finger_time":1552073681650,"fix_duration":1060.238862665192,"trial":11,"RT":537,"MT":140,"sideResp":1,"stimulus":[],"xmouse":[792,792,792,792,792,792,792,792,792,792,792,792,792,792,792,792,792,792,792,792,792,792,792,792,782,763,739,711,663,641,615,576,534,515],"ymouse":[541,541,541,541,541,541,541,541,541,541,541,541,541,541,541,541,541,541,541,541,541,541,541,536,521,496,460,408,294,246,198,136,64,30],"timestamp_mouse":[18,41,58,78,97,118,137,158,177,198,219,239,258,278,299,317,338,358,378,398,417,438,458,477,498,517,537,558,577,598,617,637,658,677],"xSR":741.5,"ySR":469.95,"xT1":424.9,"yT1":0,"xT2":1058.1,"yT2":0,"toosoon":0,"cond_shown":"Congruent","ratio_trial":200,"L_num":21,"L_den":30,"R_num":2,"R_den":4,"correct_side":1,"subjID":"Sara Manuela Camargo Herrera 30","gender":"1","school":"4","age":"9"},{"start_time":1552073687149,"click_time":1552073688471,"finger_time":1552073687970,"fix_duration":1277.7582654605042,"trial":12,"RT":821,"MT":501,"sideResp":2,"stimulus":[],"xmouse":[789,789,789,789,789,789,789,789,789,789,789,789,789,789,789,789,789,789,789,789,789,788,787,787,786,786,785,784,784,783,782,781,781,781,781,781,781,781,781,781,788,826,848,868,888,906,919,931,933,936,939,959,971,980,988,995,1010,1021,1033,1044,1053,1056,1056,1056,1057,1057,1062],"ymouse":[517,517,517,517,517,517,517,517,517,517,517,517,517,517,517,517,517,517,517,517,517,516,513,510,507,506,503,502,499,497,496,494,494,494,494,494,494,493,492,491,481,453,430,407,381,349,325,294,287,279,275,252,242,231,220,207,173,155,135,119,104,93,93,93,91,89,81],"timestamp_mouse":[11,21,41,61,82,101,121,141,162,181,202,223,241,262,281,302,322,342,362,381,401,421,443,462,482,501,521,542,561,581,602,622,641,662,682,701,722,741,761,782,801,821,841,861,881,901,922,941,961,981,1001,1021,1041,1061,1083,1101,1122,1143,1162,1182,1201,1221,1241,1261,1282,1301,1322],"xSR":741.5,"ySR":469.95,"xT1":424.9,"yT1":0,"xT2":1058.1,"yT2":0,"toosoon":0,"cond_shown":"Congruent","ratio_trial":200,"L_num":5,"L_den":10,"R_num":14,"R_den":20,"correct_side":2,"subjID":"Sara Manuela Camargo Herrera 30","gender":"1","school":"4","age":"9"},{"start_time":1552073689968,"click_time":1552073690731,"finger_time":1552073690590,"fix_duration":316.499703691921,"trial":13,"RT":622,"MT":141,"sideResp":2,"stimulus":[],"xmouse":[799,799,799,799,798,799,803,804,805,805,805,805,805,805,805,805,805,805,805,805,805,805,805,805,805,805,805,805,806,809,821,853,878,918,970,1057,1092,1121,1140],"ymouse":[518,521,525,525,530,532,533,533,533,533,533,533,533,533,533,533,533,533,533,533,533,533,533,533,533,533,533,533,533,533,532,505,483,449,401,280,207,132,61],"timestamp_mouse":[2,22,52,62,82,102,122,143,163,183,203,222,243,263,282,302,322,342,362,382,402,423,443,462,482,504,523,543,562,583,602,622,643,662,683,704,722,742,763],"xSR":741.5,"ySR":469.95,"xT1":424.9,"yT1":0,"xT2":1058.1,"yT2":0,"toosoon":0,"cond_shown":"Congruent","ratio_trial":100,"L_num":2,"L_den":5,"R_num":11,"R_den":22,"correct_side":2,"subjID":"Sara Manuela Camargo Herrera 30","gender":"1","school":"4","age":"9"},{"start_time":1552073692221,"click_time":1552073693090,"finger_time":1552073692570,"fix_duration":250,"trial":14,"RT":349,"MT":520,"sideResp":1,"stimulus":[],"xmouse":[791,791,791,791,791,791,791,791,791,791,791,791,791,791,791,791,789,782,778,771,765,759,753,750,748,746,741,733,729,725,721,714,704,679,660,639,610,571,559,550,543,537,531,524],"ymouse":[479,479,479,479,479,479,479,479,479,479,479,479,479,479,479,479,477,462,452,440,428,415,400,393,388,383,375,355,347,338,330,318,301,258,224,189,148,87,72,61,53,48,45,44],"timestamp_mouse":[9,37,49,69,90,108,129,150,169,190,208,228,249,270,289,309,330,349,368,389,409,430,450,468,489,509,529,549,569,588,609,629,649,670,690,708,729,749,768,789,809,829,849,869],"xSR":741.5,"ySR":469.95,"xT1":424.9,"yT1":0,"xT2":1058.1,"yT2":0,"toosoon":0,"cond_shown":"Congruent","ratio_trial":300,"L_num":2,"L_den":20,"R_num":10,"R_den":25,"correct_side":2,"subjID":"Sara Manuela Camargo Herrera 30","gender":"1","school":"4","age":"9"},{"start_time":1552073694822,"click_time":1552073695590,"finger_time":1552073695169,"fix_duration":250,"trial":15,"RT":347,"MT":421,"sideResp":2,"stimulus":[],"xmouse":[801,801,801,801,801,801,801,801,801,801,801,801,801,804,805,815,823,835,861,878,900,924,970,987,1000,1006,1013,1013,1013,1013,1013,1013,1013,1013,1013,1013,1013,1013,1063],"ymouse":[527,527,527,527,527,527,527,527,527,527,527,527,527,523,520,506,489,466,410,367,323,260,137,90,48,23,3,3,3,3,3,3,3,3,3,3,3,3,2],"timestamp_mouse":[12,35,48,69,88,108,129,149,168,188,207,229,249,268,288,309,327,347,369,388,408,428,449,468,489,508,528,549,568,589,609,628,648,669,689,708,728,748,767],"xSR":741.5,"ySR":469.95,"xT1":424.9,"yT1":0,"xT2":1058.1,"yT2":0,"toosoon":0,"cond_shown":"Incongruent","ratio_trial":100,"L_num":8,"L_den":16,"R_num":6,"R_den":10,"correct_side":2,"subjID":"Sara Manuela Camargo Herrera 30","gender":"1","school":"4","age":"9"},{"start_time":1552073697347,"click_time":1552073698010,"finger_time":1552073697631,"fix_duration":376.37763231469125,"trial":16,"RT":284,"MT":379,"sideResp":2,"stimulus":[],"xmouse":[784,786,786,787,787,789,789,790,790,790,791,795,798,803,810,821,836,873,893,916,953,994,1010,1020,1028,1035,1042,1044,1045,1046,1047,1050,1057,1060],"ymouse":[506,504,503,502,501,499,498,496,496,495,493,488,483,474,462,442,421,354,317,280,216,136,109,87,70,58,40,35,32,30,29,28,28,28],"timestamp_mouse":[13,38,43,63,83,103,123,144,162,183,203,222,243,264,284,304,323,343,364,384,403,424,442,462,483,503,523,542,563,582,603,623,644,663],"xSR":741.5,"ySR":469.95,"xT1":424.9,"yT1":0,"xT2":1058.1,"yT2":0,"toosoon":0,"cond_shown":"Incongruent","ratio_trial":300,"L_num":4,"L_den":20,"R_num":2,"R_den":4,"correct_side":2,"subjID":"Sara Manuela Camargo Herrera 30","gender":"1","school":"4","age":"9"},{"start_time":1552073702280,"click_time":1552073702951,"finger_time":1552073702870,"fix_duration":1287.8571221776776,"trial":17,"RT":590,"MT":81,"sideResp":2,"stimulus":[],"xmouse":[781,781,781,781,781,781,781,781,781,781,781,781,781,781,781,781,781,781,781,781,781,781,781,781,781,781,784,798,818,857,882,929,991,1062],"ymouse":[517,517,517,517,517,517,517,517,517,517,517,517,517,517,517,517,517,517,517,517,517,517,517,517,517,517,511,502,484,431,397,327,220,82],"timestamp_mouse":[13,37,50,71,89,110,131,151,169,191,209,229,251,271,290,309,331,351,370,391,410,430,451,471,491,510,530,550,571,590,610,630,650,671],"xSR":741.5,"ySR":469.95,"xT1":424.9,"yT1":0,"xT2":1058.1,"yT2":0,"toosoon":0,"cond_shown":"Incongruent","ratio_trial":200,"L_num":4,"L_den":6,"R_num":14,"R_den":30,"correct_side":1,"subjID":"Sara Manuela Camargo Herrera 30","gender":"1","school":"4","age":"9"},{"start_time":1552073705951,"click_time":1552073708151,"finger_time":1552073706631,"fix_duration":1299.5892009305014,"trial":18,"RT":680,"MT":1520,"sideResp":2,"stimulus":[],"xmouse":[795,795,795,795,795,795,795,795,795,795,795,795,795,795,795,795,795,795,795,795,795,795,795,795,795,795,795,795,795,795,796,804,824,855,895,946,963,981,993,1004,1012,1014,1015,1016,1018,1021,1022,1022,1023,1023,1026,1029,1032,1037,1041,1049,1051,1051,1051,1051,1051,1051,1051,1051,1051,1051,1051,1051,1050,1048,1044,1043,1040,1037,1033,1023,1020,1017,1014,1009,1004,989,981,976,970,963,962,962,962,961,961,961,961,961,961,966,969,971,971,971,971,972,975,978,985,1012,1031,1044,1056,1061],"ymouse":[511,511,511,511,511,511,511,511,511,511,511,511,511,511,511,511,511,511,511,511,511,511,511,511,511,511,511,511,511,511,509,503,491,472,448,400,375,348,323,294,271,266,262,257,252,243,240,238,236,234,224,216,204,191,177,155,148,146,146,146,146,146,146,146,146,146,147,151,153,162,177,185,193,206,221,261,286,309,328,353,367,392,404,414,423,434,436,437,439,442,443,443,443,443,441,420,405,393,385,378,372,366,355,338,315,228,171,122,76,45],"timestamp_mouse":[38,38,58,78,99,119,140,159,180,199,218,240,259,279,299,320,339,360,379,399,420,439,460,479,498,518,539,559,580,600,619,639,660,680,699,719,739,759,780,799,819,839,858,878,898,919,940,958,978,1000,1019,1038,1059,1079,1099,1120,1138,1160,1180,1200,1219,1240,1258,1279,1300,1320,1338,1358,1380,1399,1419,1439,1460,1478,1499,1519,1538,1559,1580,1600,1619,1640,1659,1678,1698,1719,1738,1759,1779,1800,1819,1839,1859,1878,1899,1919,1939,1958,1979,1998,2020,2039,2059,2079,2099,2119,2138,2159,2180,2200],"xSR":741.5,"ySR":469.95,"xT1":424.9,"yT1":0,"xT2":1058.1,"yT2":0,"toosoon":0,"cond_shown":"Congruent","ratio_trial":100,"L_num":6,"L_den":20,"R_num":5,"R_den":25,"correct_side":1,"subjID":"Sara Manuela Camargo Herrera 30","gender":"1","school":"4","age":"9"},{"start_time":1552073712696,"click_time":1552073715770,"finger_time":1552073714390,"fix_duration":744.3403040401953,"trial":19,"RT":1694,"MT":1380,"sideResp":2,"stimulus":[],"xmouse":[813,813,813,814,814,814,814,814,814,814,814,814,814,814,814,814,814,814,814,814,814,814,814,814,814,814,814,814,814,814,814,814,814,814,814,814,814,814,814,814,814,814,814,814,814,814,814,814,814,814,814,814,814,814,814,814,814,814,814,814,814,814,814,814,814,814,814,814,814,814,814,814,814,814,814,814,814,814,814,814,814,819,822,832,883,947,986,1009,1024,1024,1025,1028,1036,1061,1079,1100,1124,1155,1273,1367,1470,1570,1570,1570,1570,1570,1570,1570,1570,1570,1570,1570,1570,1570,1577,1567,1556,1547,1542,1542,1542,1542,1542,1530,1521,1515,1507,1500,1474,1456,1430,1399,1335,1270,1254,1239,1226,1214,1202,1183,1176,1172,1170,1170,1170,1169,1165,1163,1156,1131,1116,1102,1086,1066],"ymouse":[525,525,523,522,522,522,522,522,522,522,522,522,522,522,522,522,522,522,522,522,522,522,522,522,522,522,522,522,522,522,522,522,522,522,522,522,522,522,522,522,522,522,522,522,522,522,522,522,522,522,522,522,522,522,522,522,522,522,522,522,522,522,522,522,522,522,522,522,522,522,522,522,522,522,522,522,522,522,522,522,522,522,522,523,528,535,536,536,536,536,536,536,536,536,536,536,536,536,536,536,536,536,536,536,536,536,536,536,536,536,536,536,536,536,536,536,536,536,536,536,536,536,536,536,536,535,535,532,503,478,442,391,310,228,204,182,165,149,138,126,123,120,118,118,118,118,118,118,118,118,114,110,106,98],"timestamp_mouse":[14,39,55,74,93,115,135,154,174,194,213,234,254,275,295,313,333,355,375,394,413,435,454,475,495,514,533,553,574,593,613,635,655,674,693,714,734,754,775,794,815,835,854,873,894,915,935,955,974,994,1015,1034,1054,1075,1094,1114,1134,1154,1173,1195,1214,1235,1253,1273,1294,1315,1335,1354,1375,1394,1415,1435,1455,1474,1494,1515,1535,1555,1574,1594,1615,1633,1655,1674,1694,1715,1734,1783,1785,1794,1814,1833,1854,1874,1894,1915,1933,1953,1974,1994,2014,2034,2054,2074,2094,2114,2133,2155,2174,2194,2213,2234,2254,2275,2294,2313,2334,2354,2374,2395,2413,2435,2454,2474,2495,2514,2534,2554,2574,2595,2613,2634,2654,2674,2693,2714,2734,2754,2774,2794,2815,2834,2855,2874,2894,2914,2935,2953,2974,2993,3014,3034,3054,3074],"xSR":741.5,"ySR":469.95,"xT1":424.9,"yT1":0,"xT2":1058.1,"yT2":0,"toosoon":0,"cond_shown":"Congruent","ratio_trial":100,"L_num":9,"L_den":15,"R_num":8,"R_den":16,"correct_side":1,"subjID":"Sara Manuela Camargo Herrera 30","gender":"1","school":"4","age":"9"},{"start_time":1552073718602,"click_time":1552073719630,"finger_time":1552073719170,"fix_duration":1229.0408562440737,"trial":20,"RT":568,"MT":460,"sideResp":1,"stimulus":[],"xmouse":[772,772,772,772,772,772,772,772,772,772,772,772,772,772,772,772,772,772,772,772,772,772,772,772,773,772,768,766,753,745,735,724,712,689,677,662,647,619,592,585,582,581,581,581,581,581,574,556,512,496,486,483],"ymouse":[529,529,529,529,529,529,529,529,529,529,529,529,529,529,529,529,529,529,529,529,529,529,529,529,525,520,504,497,457,439,419,402,383,345,328,305,284,247,205,190,184,182,182,182,182,181,177,165,134,119,105,95],"timestamp_mouse":[12,38,49,68,88,109,128,147,168,187,209,229,248,267,288,308,329,348,369,388,408,429,448,468,488,508,527,548,568,587,608,628,648,668,687,707,727,747,768,787,808,829,848,868,888,907,928,949,969,987,1009,1028],"xSR":741.5,"ySR":469.95,"xT1":424.9,"yT1":0,"xT2":1058.1,"yT2":0,"toosoon":0,"cond_shown":"Congruent","ratio_trial":100,"L_num":10,"L_den":25,"R_num":3,"R_den":10,"correct_side":1,"subjID":"Sara Manuela Camargo Herrera 30","gender":"1","school":"4","age":"9"},{"start_time":1552073721938,"click_time":1552073724230,"finger_time":1552073723569,"fix_duration":447.1769723532603,"trial":21,"RT":1631,"MT":661,"sideResp":2,"stimulus":[],"xmouse":[770,770,770,770,770,770,770,770,770,770,770,770,770,770,770,770,770,770,770,770,770,770,770,770,770,770,770,770,770,770,770,770,770,770,770,770,770,770,770,770,770,770,770,770,770,770,770,770,770,770,770,770,770,770,770,770,770,771,773,773,774,775,776,779,781,784,789,792,794,795,795,795,795,795,795,795,796,801,806,819,827,843,850,857,865,869,880,886,894,910,930,969,1029,1076,1128,1170,1235,1252,1259,1261,1261,1261,1260,1257,1252,1243,1229,1222,1213,1206,1196,1176,1166,1159,1153],"ymouse":[520,520,520,520,520,520,520,520,520,520,520,520,520,520,520,520,520,520,520,520,520,520,520,520,520,520,520,520,520,520,520,520,520,520,520,520,520,520,520,520,520,520,520,520,520,520,520,520,520,520,520,520,520,520,520,520,520,520,518,517,517,516,515,513,511,508,501,496,494,493,493,493,493,493,493,493,492,491,488,481,474,462,457,454,451,449,445,442,438,429,415,393,338,296,240,179,82,53,38,32,32,31,30,30,29,27,25,24,24,24,27,29,31,33,34],"timestamp_mouse":[12,36,51,72,91,113,132,152,172,191,211,231,252,271,293,312,331,351,372,393,412,432,452,473,492,512,532,552,573,592,613,632,651,672,691,711,732,753,773,793,812,831,852,872,893,911,931,951,971,992,1012,1032,1051,1073,1091,1113,1131,1151,1172,1192,1213,1233,1251,1272,1292,1312,1331,1353,1373,1393,1412,1433,1451,1471,1491,1512,1532,1552,1572,1591,1612,1631,1652,1671,1692,1712,1732,1753,1772,1793,1812,1832,1853,1871,1891,1912,1932,1952,1972,1992,2013,2031,2051,2071,2093,2112,2133,2152,2172,2191,2211,2232,2251,2272,2291],"xSR":741.5,"ySR":469.95,"xT1":424.9,"yT1":0,"xT2":1058.1,"yT2":0,"toosoon":0,"cond_shown":"Incongruent","ratio_trial":300,"L_num":4,"L_den":5,"R_num":8,"R_den":16,"correct_side":1,"subjID":"Sara Manuela Camargo Herrera 30","gender":"1","school":"4","age":"9"},{"start_time":1552073725821,"click_time":1552073728730,"finger_time":1552073727850,"fix_duration":250,"trial":22,"RT":2029,"MT":880,"sideResp":2,"stimulus":[],"xmouse":[783,783,783,783,783,783,783,783,783,783,783,783,783,783,783,783,783,783,783,783,783,783,783,783,783,783,783,783,783,783,783,783,783,783,783,783,783,783,783,783,783,783,783,783,783,783,783,783,783,783,783,783,783,783,783,783,783,783,783,783,783,783,783,783,783,783,783,783,783,783,783,783,783,783,783,783,783,783,783,783,783,783,783,783,783,783,783,783,783,783,783,783,783,783,783,783,783,783,783,783,783,783,785,786,787,787,787,787,787,787,787,787,787,787,787,787,788,788,789,790,791,791,795,797,799,803,804,806,810,811,813,815,823,832,841,857,879,895,944,979,1005,1021,1056,1063,1066,1068],"ymouse":[497,497,497,497,497,497,497,497,497,497,497,497,497,497,497,497,497,497,497,497,497,497,497,497,497,497,497,497,497,497,497,497,497,497,497,497,497,497,497,497,497,497,497,497,497,497,497,497,497,497,497,497,497,498,498,498,498,498,498,498,498,498,498,498,498,498,498,498,498,498,498,498,498,498,498,498,498,498,498,498,498,498,498,498,498,498,498,498,498,498,498,498,498,498,498,498,498,489,482,476,470,464,456,454,451,450,449,448,448,448,448,447,446,446,446,445,444,441,437,431,425,418,405,397,392,383,382,376,368,365,361,355,340,328,314,297,268,249,199,170,151,137,111,104,101,98],"timestamp_mouse":[14,35,49,69,88,108,129,149,169,189,208,230,248,268,288,309,329,348,369,390,410,428,449,469,490,508,528,548,568,589,608,629,650,670,688,708,729,750,768,789,808,830,848,870,888,910,928,948,969,990,1009,1029,1049,1069,1089,1108,1129,1148,1170,1189,1209,1230,1248,1269,1289,1309,1328,1349,1369,1390,1410,1430,1448,1468,1490,1510,1528,1548,1569,1590,1609,1630,1648,1668,1689,1708,1730,1750,1769,1789,1809,1829,1850,1869,1890,1909,1929,1949,1970,1990,2010,2029,2048,2068,2089,2109,2130,2149,2169,2189,2210,2229,2249,2270,2290,2309,2330,2349,2369,2388,2408,2428,2449,2468,2489,2510,2529,2549,2569,2589,2609,2630,2649,2668,2688,2709,2730,2749,2769,2788,2810,2830,2850,2869,2889,2909],"xSR":741.5,"ySR":469.95,"xT1":424.9,"yT1":0,"xT2":1058.1,"yT2":0,"toosoon":0,"cond_shown":"Congruent","ratio_trial":200,"L_num":7,"L_den":21,"R_num":2,"R_den":15,"correct_side":1,"subjID":"Sara Manuela Camargo Herrera 30","gender":"1","school":"4","age":"9"},{"start_time":1552073731259,"click_time":1552073734131,"finger_time":1552073733610,"fix_duration":826.3293855939597,"trial":23,"RT":2351,"MT":521,"sideResp":2,"stimulus":[],"xmouse":[806,806,806,806,806,806,806,806,806,806,806,806,806,806,806,806,806,806,806,806,806,806,806,806,806,806,806,806,806,806,806,806,806,806,806,806,806,806,806,806,806,806,806,806,806,806,806,806,806,806,806,806,806,806,806,806,806,806,806,806,806,806,806,806,807,808,808,808,808,808,808,808,808,808,808,808,808,808,808,808,808,808,808,808,808,808,808,809,810,814,827,834,838,839,839,839,839,839,839,839,839,839,839,839,839,839,839,839,839,839,839,839,839,839,839,839,839,839,840,842,848,852,858,865,874,883,912,929,948,966,999,1013,1029,1042,1044,1044,1044,1044,1044,1044,1046,1048,1054,1069],"ymouse":[525,525,525,525,525,525,525,525,525,525,525,525,525,525,525,525,525,525,525,525,525,525,525,525,525,525,525,525,525,525,525,525,525,525,525,525,525,525,525,525,525,525,525,525,525,525,525,525,525,525,525,525,525,525,525,525,525,525,525,525,525,525,525,525,523,518,517,517,517,517,517,517,517,517,517,517,517,517,517,517,517,517,517,517,517,517,517,514,512,505,484,476,471,470,470,470,470,470,470,470,470,470,470,470,470,470,470,470,470,470,470,470,470,470,470,470,470,468,466,463,452,442,433,421,403,388,349,327,303,277,230,209,192,175,173,173,173,173,173,171,168,159,139,97],"timestamp_mouse":[13,40,51,70,91,110,132,152,171,191,211,231,252,271,291,310,330,351,371,392,410,430,450,471,491,512,532,551,571,590,612,631,652,671,691,712,731,752,771,792,812,832,851,871,890,911,932,951,971,990,1012,1030,1051,1071,1090,1110,1131,1151,1172,1191,1211,1231,1252,1271,1292,1310,1330,1350,1371,1390,1411,1430,1450,1472,1490,1512,1530,1552,1572,1590,1610,1632,1650,1670,1691,1710,1730,1750,1770,1792,1811,1830,1851,1870,1892,1910,1930,1952,1972,1992,2012,2030,2051,2072,2092,2112,2132,2150,2171,2191,2210,2230,2250,2272,2290,2311,2332,2351,2371,2392,2412,2430,2451,2472,2492,2511,2531,2552,2572,2591,2611,2630,2651,2672,2691,2710,2730,2750,2771,2792,2812,2832,2850,2871],"xSR":741.5,"ySR":469.95,"xT1":424.9,"yT1":0,"xT2":1058.1,"yT2":0,"toosoon":0,"cond_shown":"Incongruent","ratio_trial":300,"L_num":4,"L_den":20,"R_num":2,"R_den":4,"correct_side":2,"subjID":"Sara Manuela Camargo Herrera 30","gender":"1","school":"4","age":"9"},{"start_time":1552073737130,"click_time":1552073739371,"finger_time":1552073739031,"fix_duration":1457.234753344083,"trial":24,"RT":1901,"MT":340,"sideResp":1,"stimulus":[],"xmouse":[761,761,763,765,766,766,766,766,766,766,766,766,766,766,766,766,766,766,766,766,766,766,766,766,766,766,766,766,766,766,766,766,766,766,766,766,766,766,766,766,766,766,766,766,766,766,766,766,766,766,766,766,766,766,766,766,766,766,766,766,766,766,766,766,766,766,766,766,766,766,766,766,766,766,766,766,766,766,766,766,766,766,766,766,766,766,766,766,766,766,766,767,767,759,755,746,733,706,691,679,670,663,654,643,627,609,592,556,534,518,502,492,471],"ymouse":[520,520,523,525,525,526,526,526,526,526,526,526,526,526,526,526,526,526,526,526,526,526,526,526,526,526,526,526,526,526,526,526,526,526,526,526,526,526,526,526,526,526,526,526,526,526,526,526,526,526,526,526,526,526,526,526,526,526,526,526,526,526,526,526,526,526,526,526,526,526,526,526,526,526,526,526,526,526,526,526,526,526,526,526,526,526,526,526,526,526,526,526,523,493,476,455,430,386,366,350,338,327,319,314,307,295,280,239,210,185,159,137,84],"timestamp_mouse":[11,21,40,60,80,101,119,141,160,181,199,219,239,261,279,301,320,340,359,380,399,420,441,459,479,499,521,540,561,579,601,619,640,659,681,700,720,739,761,781,799,820,840,859,881,899,920,939,960,981,999,1019,1040,1061,1080,1100,1120,1140,1160,1179,1201,1221,1239,1261,1280,1300,1319,1341,1360,1381,1400,1420,1439,1459,1481,1500,1520,1541,1560,1580,1601,1620,1640,1659,1681,1701,1719,1741,1759,1780,1801,1821,1839,1860,1880,1901,1921,1941,1959,1980,2000,2020,2041,2059,2079,2101,2120,2141,2160,2180,2201,2220,2241],"xSR":741.5,"ySR":469.95,"xT1":424.9,"yT1":0,"xT2":1058.1,"yT2":0,"toosoon":0,"cond_shown":"Congruent","ratio_trial":100,"L_num":6,"L_den":20,"R_num":5,"R_den":25,"correct_side":1,"subjID":"Sara Manuela Camargo Herrera 30","gender":"1","school":"4","age":"9"},{"start_time":1552073740658,"click_time":1552073743270,"finger_time":1552073742891,"fix_duration":346.16916903460714,"trial":25,"RT":2233,"MT":379,"sideResp":2,"stimulus":[],"xmouse":[789,789,790,790,790,790,791,791,791,791,791,791,791,791,791,792,792,792,793,793,793,793,793,793,793,793,793,793,793,793,793,793,793,793,793,793,793,793,793,793,793,793,793,793,793,793,793,793,793,793,793,793,793,793,793,793,793,793,793,793,793,793,793,793,793,793,793,793,793,793,793,793,793,793,793,793,793,793,793,793,793,793,793,793,793,793,793,793,793,793,793,793,793,793,793,796,800,806,810,815,821,823,823,824,824,825,825,825,825,827,827,830,833,838,844,858,865,875,886,899,930,943,956,968,989,1020,1032,1041,1050,1055,1060],"ymouse":[514,514,515,516,516,516,517,517,517,517,517,517,517,519,520,521,522,523,524,524,524,524,524,524,524,524,524,524,524,525,526,527,527,527,528,528,528,528,528,528,528,528,528,528,528,528,528,528,528,528,528,528,528,528,528,528,528,528,528,528,528,528,528,528,528,528,528,528,528,528,528,528,528,528,528,528,528,528,528,528,528,528,528,528,528,528,528,528,528,528,528,528,528,528,528,527,522,514,508,503,493,489,487,487,486,485,485,483,483,478,476,469,463,452,437,411,398,382,366,348,304,284,262,241,204,147,124,106,91,81,72],"timestamp_mouse":[13,43,53,71,93,113,132,152,173,193,213,231,251,272,292,312,333,351,373,392,412,432,452,473,492,512,532,552,573,592,611,632,652,672,692,713,733,752,772,792,813,833,851,871,891,913,932,952,973,992,1013,1031,1051,1072,1091,1113,1132,1152,1173,1191,1211,1232,1251,1273,1291,1313,1332,1352,1371,1393,1412,1432,1451,1471,1491,1511,1533,1553,1572,1591,1611,1633,1651,1673,1692,1711,1732,1752,1773,1792,1812,1831,1851,1872,1891,1911,1931,1952,1973,1991,2012,2032,2052,2072,2092,2111,2133,2152,2172,2191,2219,2233,2252,2272,2292,2312,2332,2352,2372,2391,2412,2432,2452,2473,2493,2511,2532,2552,2572,2592,2611],"xSR":741.5,"ySR":469.95,"xT1":424.9,"yT1":0,"xT2":1058.1,"yT2":0,"toosoon":0,"cond_shown":"Incongruent","ratio_trial":300,"L_num":13,"L_den":26,"R_num":12,"R_den":15,"correct_side":2,"subjID":"Sara Manuela Camargo Herrera 30","gender":"1","school":"4","age":"9"},{"start_time":1552073744912,"click_time":1552073746750,"finger_time":1552073746410,"fix_duration":421.9122908418438,"trial":26,"RT":1498,"MT":340,"sideResp":2,"stimulus":[],"xmouse":[779,779,779,780,780,780,780,780,780,780,780,780,780,780,780,780,780,780,780,780,780,780,780,780,780,780,780,780,780,780,780,780,780,780,780,780,780,780,780,780,780,780,780,780,780,780,780,780,780,780,780,780,780,780,780,780,780,780,780,780,780,780,780,780,780,780,780,780,782,784,790,795,805,811,818,825,831,847,855,865,874,886,903,934,956,987,1015,1035,1061,1070,1076,1078],"ymouse":[510,510,512,513,513,513,513,514,514,514,514,514,514,514,514,514,514,514,514,514,514,514,514,514,514,514,514,514,514,514,514,514,514,514,514,514,514,514,514,514,514,514,514,514,514,514,514,514,514,514,514,514,514,514,514,514,514,514,514,514,514,514,514,514,514,514,514,514,513,512,507,501,486,478,468,456,447,420,406,389,372,353,329,285,255,219,187,161,125,112,104,99],"timestamp_mouse":[33,38,58,78,98,118,138,158,179,197,217,238,259,278,299,317,338,357,379,399,418,439,459,478,498,518,538,559,578,599,617,639,658,677,698,719,739,758,777,798,819,838,857,878,898,919,938,958,978,999,1018,1037,1057,1079,1097,1117,1137,1158,1177,1199,1218,1239,1258,1278,1298,1319,1337,1357,1377,1399,1418,1438,1458,1477,1498,1519,1539,1558,1577,1598,1619,1638,1658,1677,1698,1717,1738,1758,1778,1799,1818,1838],"xSR":741.5,"ySR":469.95,"xT1":424.9,"yT1":0,"xT2":1058.1,"yT2":0,"toosoon":0,"cond_shown":"Incongruent","ratio_trial":200,"L_num":7,"L_den":15,"R_num":6,"R_den":9,"correct_side":2,"subjID":"Sara Manuela Camargo Herrera 30","gender":"1","school":"4","age":"9"},{"start_time":1552073749653,"click_time":1552073751411,"finger_time":1552073750991,"fix_duration":1482.5519719609058,"trial":27,"RT":1338,"MT":420,"sideResp":1,"stimulus":[],"xmouse":[784,784,784,784,784,784,784,784,784,784,784,784,784,784,784,784,784,784,784,784,784,784,784,784,784,784,784,784,784,784,784,784,784,784,784,784,784,784,784,784,784,784,784,784,783,782,782,782,781,781,781,781,780,780,780,779,779,778,778,778,778,777,777,775,772,768,748,737,725,715,696,689,682,678,671,657,652,645,635,624,606,599,592,583,573,556,532,518],"ymouse":[514,514,514,515,515,515,515,515,515,515,515,515,515,515,515,515,515,515,515,515,515,515,515,515,515,515,515,515,515,515,515,515,515,515,515,515,515,515,515,515,515,515,515,515,515,514,513,513,513,512,512,512,511,511,511,508,507,507,506,505,505,503,502,498,491,475,437,417,397,379,350,339,330,323,314,296,286,273,257,238,200,179,160,144,127,104,77,69],"timestamp_mouse":[17,38,56,77,98,116,136,158,178,196,217,237,256,277,298,317,336,358,378,398,417,438,456,477,498,518,536,558,578,598,618,636,656,678,697,716,738,758,778,797,818,836,856,877,898,917,938,958,977,997,1018,1038,1057,1077,1096,1117,1137,1157,1178,1196,1217,1237,1258,1278,1298,1316,1338,1358,1377,1397,1418,1436,1458,1476,1496,1517,1537,1556,1576,1597,1617,1636,1658,1677,1698,1717,1737,1757],"xSR":741.5,"ySR":469.95,"xT1":424.9,"yT1":0,"xT2":1058.1,"yT2":0,"toosoon":0,"cond_shown":"Incongruent","ratio_trial":300,"L_num":8,"L_den":10,"R_num":14,"R_den":28,"correct_side":1,"subjID":"Sara Manuela Camargo Herrera 30","gender":"1","school":"4","age":"9"},{"start_time":1552073755264,"click_time":1552073758012,"finger_time":1552073757494,"fix_duration":250,"trial":28,"RT":2230,"MT":518,"sideResp":2,"stimulus":[],"xmouse":[749,750,750,751,751,751,751,751,751,751,753,756,756,759,759,761,761,761,761,761,761,761,761,761,761,761,761,761,761,761,761,761,761,761,761,761,761,763,764,765,765,766,767,767,767,767,767,767,767,767,767,767,768,770,770,770,770,770,770,770,770,770,770,770,770,770,770,770,770,770,770,770,770,770,770,770,770,770,770,770,770,770,770,770,770,770,770,770,770,770,770,770,770,770,770,770,770,770,770,770,770,770,772,774,778,780,782,786,792,803,834,849,863,878,904,937,953,963,972,981,990,994,997,1000,1004,1006,1011,1014,1019,1024,1035,1040,1044,1050,1059,1069,1074,1077],"ymouse":[531,531,531,531,531,531,531,531,531,531,531,531,531,531,531,530,530,530,530,530,530,530,530,530,530,530,530,530,530,530,530,530,530,530,530,530,530,530,530,530,530,530,530,530,530,530,530,530,530,530,530,530,530,530,530,530,530,530,530,530,530,530,530,530,530,530,530,530,530,530,530,530,530,530,530,530,530,530,530,530,530,530,530,530,530,530,530,530,530,530,530,530,530,530,530,530,530,530,530,530,530,530,530,530,530,529,527,523,517,507,484,470,453,437,407,362,341,324,310,297,280,274,270,266,259,255,242,229,215,202,175,167,157,146,133,116,107,99],"timestamp_mouse":[12,42,49,69,88,108,128,148,168,189,209,228,249,268,289,308,328,348,369,388,408,429,448,468,488,508,528,548,570,589,609,629,649,668,689,710,729,748,769,788,808,829,848,868,888,909,928,948,968,989,1008,1029,1048,1069,1090,1109,1128,1149,1168,1188,1208,1228,1248,1268,1290,1309,1328,1349,1369,1388,1409,1428,1449,1469,1489,1508,1528,1548,1569,1588,1609,1629,1648,1668,1689,1709,1729,1749,1769,1789,1809,1829,1849,1869,1888,1910,1928,1949,1969,1988,2009,2028,2048,2069,2090,2108,2128,2148,2168,2189,2208,2230,2248,2268,2288,2308,2328,2348,2369,2389,2409,2428,2448,2469,2488,2508,2529,2548,2570,2589,2609,2628,2649,2669,2689,2709,2728,2748],"xSR":741.5,"ySR":469.95,"xT1":424.9,"yT1":0,"xT2":1058.1,"yT2":0,"toosoon":0,"cond_shown":"Incongruent","ratio_trial":200,"L_num":1,"L_den":3,"R_num":2,"R_den":15,"correct_side":1,"subjID":"Sara Manuela Camargo Herrera 30","gender":"1","school":"4","age":"9"},{"start_time":1552073762124,"click_time":1552073763973,"finger_time":1552073763513,"fix_duration":250,"trial":29,"RT":1389,"MT":460,"sideResp":1,"stimulus":[],"xmouse":[807,807,807,807,807,807,807,807,807,807,807,807,807,807,807,807,807,807,807,807,807,807,807,807,807,807,807,807,807,807,807,807,807,807,807,807,807,807,807,807,807,807,807,807,807,807,807,807,807,807,807,807,807,807,807,807,807,807,807,807,807,807,807,807,807,807,807,805,798,791,770,755,730,723,718,716,714,712,710,709,703,690,655,635,612,585,556,507,489,475,467,461,459],"ymouse":[507,507,507,507,507,507,507,507,507,507,507,507,507,507,507,507,507,507,507,507,507,507,507,507,507,507,507,507,507,507,507,507,507,507,507,507,507,507,507,507,507,507,507,507,507,507,507,507,507,507,507,507,507,507,507,507,507,507,507,507,507,507,507,507,507,507,503,493,476,457,418,394,344,327,315,308,303,300,296,292,285,270,244,230,213,196,180,150,139,130,123,113,95],"timestamp_mouse":[15,28,48,69,89,108,128,150,169,188,209,228,248,269,289,309,329,349,368,389,410,428,449,469,488,508,529,548,568,589,608,630,649,669,689,709,729,749,769,788,809,828,849,870,889,909,930,949,969,989,1008,1029,1048,1069,1088,1108,1129,1149,1169,1188,1209,1229,1250,1270,1289,1309,1328,1348,1369,1389,1408,1430,1448,1469,1488,1508,1528,1549,1568,1588,1609,1628,1648,1668,1688,1708,1728,1748,1768,1788,1809,1828,1849],"xSR":741.5,"ySR":469.95,"xT1":424.9,"yT1":0,"xT2":1058.1,"yT2":0,"toosoon":0,"cond_shown":"Incongruent","ratio_trial":200,"L_num":1,"L_den":2,"R_num":3,"R_den":10,"correct_side":1,"subjID":"Sara Manuela Camargo Herrera 30","gender":"1","school":"4","age":"9"},{"start_time":1552073765898,"click_time":1552073768332,"finger_time":1552073767813,"fix_duration":725.5936072668395,"trial":30,"RT":1915,"MT":519,"sideResp":1,"stimulus":[],"xmouse":[802,802,802,802,802,802,802,802,802,802,802,803,803,803,803,803,803,803,803,803,803,803,803,803,803,803,803,803,803,803,803,803,803,803,803,803,803,803,803,803,803,803,803,803,803,803,803,803,803,803,803,803,803,803,803,803,803,803,803,803,803,803,803,803,803,803,803,803,803,803,803,803,803,803,803,803,803,803,803,803,803,803,803,803,803,803,803,803,803,803,804,804,804,804,803,801,798,796,790,784,778,764,748,702,681,660,643,629,609,603,599,597,593,587,584,581,575,568,551,541,536,517],"ymouse":[518,518,518,518,518,518,518,518,518,518,518,518,518,518,518,518,518,518,518,518,518,518,518,518,518,518,518,518,518,518,518,518,518,518,518,518,518,518,518,518,518,518,518,518,518,518,518,518,518,518,518,518,518,518,518,518,518,518,518,518,518,518,518,518,518,518,518,518,518,518,518,518,518,518,518,518,518,518,518,518,518,518,518,518,518,518,518,518,518,518,517,512,510,486,473,461,445,430,396,376,354,311,278,198,161,133,112,96,82,80,79,78,77,75,74,73,72,69,67,65,64,62],"timestamp_mouse":[14,38,55,74,94,115,135,154,174,195,215,235,255,276,295,315,334,356,375,394,415,435,454,474,495,515,534,554,575,595,615,634,655,676,695,715,735,754,775,795,814,835,856,876,895,914,935,955,974,994,1014,1034,1054,1075,1094,1116,1135,1155,1175,1195,1215,1234,1255,1275,1295,1316,1335,1355,1375,1395,1415,1434,1455,1475,1494,1515,1535,1554,1574,1595,1615,1635,1654,1675,1695,1715,1736,1754,1774,1795,1814,1835,1856,1874,1895,1915,1935,1954,1975,1994,2016,2036,2055,2075,2094,2114,2135,2155,2174,2194,2214,2236,2255,2275,2294,2314,2334,2355,2374,2395,2414,2434],"xSR":741.5,"ySR":469.95,"xT1":424.9,"yT1":0,"xT2":1058.1,"yT2":0,"toosoon":0,"cond_shown":"Congruent","ratio_trial":300,"L_num":1,"L_den":5,"R_num":3,"R_den":6,"correct_side":2,"subjID":"Sara Manuela Camargo Herrera 30","gender":"1","school":"4","age":"9"},{"start_time":1552073777900,"click_time":1552073779733,"finger_time":1552073779333,"fix_duration":926.4219562320363,"trial":31,"RT":1433,"MT":400,"sideResp":1,"stimulus":[],"xmouse":[779,779,779,779,779,779,779,779,779,779,779,779,779,779,779,779,779,779,779,779,779,779,779,779,779,779,779,779,779,779,779,779,779,779,779,779,779,779,779,779,779,779,779,779,779,779,779,779,779,779,779,779,779,779,779,779,779,779,779,779,779,779,779,779,779,779,779,779,779,779,779,779,779,765,759,748,736,725,709,703,696,684,661,609,558,504,470,451,442,441,439,433],"ymouse":[507,507,507,507,507,507,507,507,507,507,507,507,507,507,507,507,507,507,507,507,507,507,507,507,507,507,507,507,507,507,507,507,507,507,507,507,507,507,507,507,507,507,507,507,507,507,507,507,507,507,507,507,507,507,507,507,507,507,507,507,507,507,507,507,507,507,507,507,507,503,495,458,446,409,402,397,394,391,385,382,379,372,358,321,291,258,229,203,157,132,108,84],"timestamp_mouse":[13,35,52,72,92,113,132,152,173,193,213,232,252,272,292,313,332,352,373,392,412,432,452,472,493,513,532,553,573,593,614,633,652,673,692,712,733,753,772,792,813,833,853,872,892,913,934,953,972,992,1012,1032,1053,1073,1094,1112,1132,1153,1172,1193,1213,1232,1253,1274,1292,1313,1333,1353,1373,1392,1412,1433,1453,1473,1492,1512,1532,1552,1573,1593,1613,1634,1652,1673,1693,1713,1732,1753,1773,1792,1813,1833],"xSR":741.5,"ySR":469.95,"xT1":424.9,"yT1":0,"xT2":1058.1,"yT2":0,"toosoon":0,"cond_shown":"Congruent","ratio_trial":200,"L_num":3,"L_den":6,"R_num":14,"R_den":20,"correct_side":2,"subjID":"Sara Manuela Camargo Herrera 30","gender":"1","school":"4","age":"9"},{"start_time":1552073782318,"click_time":1552073784473,"finger_time":1552073783712,"fix_duration":781.9356749590214,"trial":32,"RT":1394,"MT":761,"sideResp":1,"stimulus":[],"xmouse":[774,774,774,774,774,774,774,774,774,774,774,774,774,774,774,775,775,775,775,775,776,776,776,776,776,776,776,776,776,776,776,776,776,776,776,776,776,776,776,776,776,776,776,776,776,776,776,776,776,776,776,776,776,776,776,776,776,776,776,776,776,777,777,777,777,777,776,775,774,774,774,772,765,762,758,753,750,741,736,728,719,698,685,647,627,612,602,592,588,584,581,580,590,590,590,590,588,584,582,580,577,572,556,550,541,535,531,522],"ymouse":[523,523,523,523,523,523,523,523,523,523,523,523,524,524,524,526,526,526,526,526,527,527,527,527,527,527,527,527,527,527,527,527,527,527,527,527,527,527,527,527,527,527,527,527,527,527,527,527,527,527,527,527,527,527,527,527,527,527,527,527,527,527,526,522,520,516,512,506,472,449,415,389,346,328,312,299,290,272,262,251,242,227,217,194,182,172,164,148,144,136,128,111,92,88,87,86,86,85,85,85,85,85,87,87,87,87,87,87],"timestamp_mouse":[15,36,55,75,95,116,135,155,174,196,215,235,254,274,295,314,334,355,375,395,415,435,455,475,494,515,535,555,575,595,615,634,655,675,695,714,735,755,775,794,814,836,854,875,895,915,934,954,974,995,1014,1034,1054,1074,1095,1116,1135,1154,1174,1195,1214,1235,1254,1274,1295,1314,1335,1354,1374,1394,1415,1434,1455,1474,1494,1514,1534,1555,1574,1594,1615,1635,1655,1675,1694,1715,1735,1754,1775,1794,1815,1834,1855,1874,1894,1915,1935,1954,1974,1994,2015,2035,2055,2076,2095,2115,2135,2154],"xSR":741.5,"ySR":469.95,"xT1":424.9,"yT1":0,"xT2":1058.1,"yT2":0,"toosoon":0,"cond_shown":"Incongruent","ratio_trial":300,"L_num":1,"L_den":2,"R_num":2,"R_den":10,"correct_side":1,"subjID":"Sara Manuela Camargo Herrera 30","gender":"1","school":"4","age":"9"},{"start_time":1552073786895,"click_time":1552073788792,"finger_time":1552073788453,"fix_duration":822.9213220290912,"trial":33,"RT":1558,"MT":339,"sideResp":1,"stimulus":[],"xmouse":[788,788,788,788,788,788,788,788,788,788,788,788,788,788,788,788,788,788,788,788,788,788,788,788,788,788,788,788,788,788,788,788,788,788,788,788,788,788,788,788,788,788,788,788,788,788,788,788,788,788,788,788,788,788,788,788,788,788,788,788,788,788,788,788,788,788,788,788,788,788,788,788,788,783,780,776,768,758,748,713,694,662,627,602,592,583,574,565,551,545,541,537,533,526,520],"ymouse":[529,529,529,529,529,529,529,529,529,529,529,529,529,529,529,529,529,529,529,529,529,529,529,529,529,529,529,529,529,529,529,529,529,529,529,529,529,529,529,529,529,529,529,529,529,529,529,529,529,529,529,529,529,529,529,529,529,529,529,529,529,529,529,529,529,529,529,529,529,529,529,529,527,522,517,508,490,466,439,361,324,277,225,185,163,142,122,104,85,79,77,75,73,72,70],"timestamp_mouse":[17,40,58,77,98,119,138,158,177,198,219,238,257,278,298,319,338,358,378,397,417,437,458,477,497,518,539,558,578,598,618,637,659,679,698,718,738,757,777,799,818,838,857,878,898,919,938,958,979,998,1017,1038,1057,1078,1098,1119,1138,1157,1179,1199,1218,1237,1258,1277,1299,1317,1338,1357,1379,1398,1419,1438,1458,1477,1498,1517,1539,1558,1577,1597,1618,1638,1657,1678,1697,1717,1738,1757,1777,1797,1817,1838,1858,1877,1897],"xSR":741.5,"ySR":469.95,"xT1":424.9,"yT1":0,"xT2":1058.1,"yT2":0,"toosoon":0,"cond_shown":"Congruent","ratio_trial":300,"L_num":11,"L_den":22,"R_num":2,"R_den":10,"correct_side":1,"subjID":"Sara Manuela Camargo Herrera 30","gender":"1","school":"4","age":"9"},{"start_time":1552073790246,"click_time":1552073791874,"finger_time":1552073791772,"fix_duration":250,"trial":34,"RT":1526,"MT":102,"sideResp":2,"stimulus":[],"xmouse":[796,796,796,796,796,796,796,796,796,796,796,796,796,796,796,796,796,796,796,796,796,796,796,796,796,796,796,796,796,796,796,796,796,796,796,796,796,796,796,796,796,796,796,796,796,796,796,796,796,796,796,796,796,796,796,796,796,796,796,796,796,796,796,796,796,796,796,796,796,796,796,796,796,799,808,838,904,943,977,1005,1032,1081],"ymouse":[536,536,536,536,536,536,536,536,536,536,536,536,536,536,536,536,536,536,536,536,536,536,536,536,536,536,536,536,536,536,536,536,536,536,536,536,536,536,536,536,536,536,536,536,536,536,536,536,536,536,536,536,536,536,536,536,536,536,536,536,536,536,536,536,536,536,536,536,536,536,536,536,533,529,516,473,349,275,209,144,84,10],"timestamp_mouse":[12,43,46,67,88,107,126,147,166,186,207,226,248,267,287,306,327,346,367,386,406,426,447,466,487,506,526,546,567,588,607,628,647,667,687,706,726,747,766,786,806,827,847,866,888,908,927,946,967,988,1008,1027,1046,1066,1088,1107,1127,1146,1166,1187,1206,1227,1247,1266,1287,1307,1326,1347,1367,1386,1406,1426,1446,1467,1487,1507,1526,1548,1566,1587,1607,1628],"xSR":741.5,"ySR":469.95,"xT1":424.9,"yT1":0,"xT2":1058.1,"yT2":0,"toosoon":0,"cond_shown":"Incongruent","ratio_trial":100,"L_num":10,"L_den":25,"R_num":9,"R_den":18,"correct_side":2,"subjID":"Sara Manuela Camargo Herrera 30","gender":"1","school":"4","age":"9"},{"start_time":1552073793660,"click_time":1552073795412,"finger_time":1552073794993,"fix_duration":564.868555846159,"trial":35,"RT":1333,"MT":419,"sideResp":1,"stimulus":[],"xmouse":[785,785,785,785,785,785,785,785,785,785,785,785,785,785,785,785,785,785,785,785,785,785,785,785,785,785,785,785,785,785,785,785,785,785,785,785,785,785,785,785,785,785,785,785,785,785,785,785,785,785,785,785,785,785,785,785,785,785,785,785,785,786,786,785,784,784,784,784,784,783,778,773,770,765,748,732,723,715,703,691,667,654,642,627,603,581,534,512],"ymouse":[524,524,524,524,524,524,524,524,524,524,524,524,524,524,524,524,524,524,524,524,524,524,524,524,524,524,524,524,524,524,524,524,524,524,524,524,524,524,524,524,524,524,524,524,524,524,524,524,524,524,524,524,524,524,524,524,524,524,524,524,524,521,519,514,499,473,460,445,428,409,380,372,369,368,364,359,353,344,334,322,289,271,254,232,189,148,61,24],"timestamp_mouse":[12,33,53,73,92,113,132,152,172,192,213,233,253,273,293,312,333,353,373,392,412,433,453,472,493,513,533,553,574,593,612,632,654,673,692,712,733,752,773,793,812,832,853,873,893,912,933,952,973,992,1013,1033,1052,1073,1092,1112,1132,1152,1172,1192,1212,1232,1252,1272,1292,1312,1333,1353,1372,1393,1412,1432,1452,1473,1492,1513,1532,1553,1572,1592,1613,1633,1652,1673,1692,1713,1733,1752],"xSR":741.5,"ySR":469.95,"xT1":424.9,"yT1":0,"xT2":1058.1,"yT2":0,"toosoon":0,"cond_shown":"Incongruent","ratio_trial":300,"L_num":1,"L_den":2,"R_num":2,"R_den":10,"correct_side":1,"subjID":"Sara Manuela Camargo Herrera 30","gender":"1","school":"4","age":"9"},{"start_time":1552073797984,"click_time":1552073800133,"finger_time":1552073799552,"fix_duration":1410.76551011028,"trial":36,"RT":1568,"MT":581,"sideResp":2,"stimulus":[],"xmouse":[796,794,794,793,793,793,792,792,792,792,792,792,792,792,792,792,792,792,792,792,792,792,792,792,792,792,792,792,792,792,792,792,792,792,792,792,792,792,792,792,792,792,792,792,792,792,792,792,792,792,792,792,792,792,792,792,792,792,792,792,792,792,792,792,792,792,792,792,792,792,792,792,792,792,792,795,802,823,842,885,911,928,945,961,1000,1018,1041,1065,1076,1088,1090,1090,1091,1091,1088,1085,1083,1082,1082,1089,1097,1103,1108,1109,1109,1109,1110,1111],"ymouse":[518,518,518,518,518,518,518,518,518,518,518,518,518,518,518,518,518,518,518,518,518,518,518,518,518,518,518,518,518,518,518,518,518,518,518,518,518,518,518,518,518,518,518,518,518,518,518,518,518,518,518,518,518,518,518,518,518,518,518,518,518,518,518,518,518,518,518,518,518,518,518,518,518,518,518,516,509,492,478,439,412,389,369,348,304,282,257,234,225,209,205,201,196,193,182,175,169,162,148,127,117,111,106,105,105,104,101,99],"timestamp_mouse":[17,42,49,69,89,109,128,148,168,189,209,229,249,268,289,310,329,349,368,388,408,428,449,468,489,509,528,548,569,588,608,628,649,668,689,708,729,749,768,788,809,829,848,868,889,908,929,949,969,989,1008,1028,1048,1068,1089,1108,1129,1148,1169,1190,1208,1228,1248,1270,1288,1308,1329,1349,1368,1389,1409,1428,1448,1468,1488,1509,1529,1548,1568,1589,1609,1629,1648,1668,1689,1708,1728,1749,1769,1789,1810,1828,1848,1869,1888,1908,1928,1949,1969,1989,2008,2028,2049,2068,2089,2109,2128,2149],"xSR":741.5,"ySR":469.95,"xT1":424.9,"yT1":0,"xT2":1058.1,"yT2":0,"toosoon":0,"cond_shown":"Congruent","ratio_trial":200,"L_num":6,"L_den":12,"R_num":7,"R_den":10,"correct_side":2,"subjID":"Sara Manuela Camargo Herrera 30","gender":"1","school":"4","age":"9"},{"start_time":1552073803635,"click_time":1552073806372,"finger_time":1552073805753,"fix_duration":362.52040199285887,"trial":37,"RT":2118,"MT":619,"sideResp":1,"stimulus":[],"xmouse":[794,794,794,794,794,794,794,794,794,794,794,794,794,794,794,794,794,794,794,794,794,794,794,794,794,794,794,794,794,794,794,794,794,794,794,794,794,794,794,794,794,794,794,794,794,794,794,794,794,794,794,794,794,794,794,794,794,794,794,794,794,794,794,794,794,794,794,792,791,791,790,789,789,788,788,788,788,788,788,788,788,788,788,788,788,788,788,788,788,788,788,788,788,788,788,788,788,788,788,788,788,788,788,787,787,782,767,759,749,743,737,718,708,698,687,671,657,653,648,640,628,598,579,562,549,541,534,529,529,518,515,512,512,512,512,512,510],"ymouse":[528,528,528,528,528,528,528,528,528,528,528,528,528,528,528,528,528,528,528,528,528,528,528,528,528,528,528,528,528,528,528,528,528,528,528,528,528,528,528,528,528,528,528,528,528,528,528,528,528,528,528,528,528,528,528,528,528,528,528,528,528,528,528,528,528,528,520,515,510,505,498,492,490,488,488,488,488,488,488,488,488,488,488,488,488,488,486,484,483,483,482,481,480,480,480,480,480,480,480,480,480,480,479,477,475,456,418,401,384,369,354,323,306,290,274,254,241,238,235,231,228,214,204,195,186,178,169,160,160,138,126,110,106,103,102,100,92],"timestamp_mouse":[17,38,58,77,98,117,137,157,177,197,217,237,257,278,298,318,339,359,377,398,418,438,457,479,497,517,537,558,577,598,617,639,658,678,698,718,737,758,778,797,817,837,857,877,898,917,937,958,979,997,1018,1037,1057,1077,1097,1117,1137,1159,1178,1198,1218,1237,1257,1278,1299,1317,1337,1358,1378,1398,1417,1437,1458,1477,1498,1518,1539,1557,1577,1598,1618,1638,1657,1677,1698,1718,1737,1759,1777,1798,1818,1838,1858,1878,1897,1918,1938,1958,1978,1998,2018,2038,2058,2077,2098,2118,2137,2157,2177,2198,2218,2238,2259,2277,2297,2317,2338,2357,2378,2398,2417,2438,2457,2477,2498,2518,2538,2557,2577,2598,2618,2638,2657,2678,2697,2718,2737],"xSR":741.5,"ySR":469.95,"xT1":424.9,"yT1":0,"xT2":1058.1,"yT2":0,"toosoon":0,"cond_shown":"Congruent","ratio_trial":200,"L_num":4,"L_den":10,"R_num":3,"R_den":15,"correct_side":1,"subjID":"Sara Manuela Camargo Herrera 30","gender":"1","school":"4","age":"9"},{"start_time":1552073808660,"click_time":1552073810872,"finger_time":1552073810112,"fix_duration":1286.2294033296625,"trial":38,"RT":1452,"MT":760,"sideResp":1,"stimulus":[],"xmouse":[780,780,780,780,780,780,780,780,780,780,780,780,780,780,780,780,780,780,780,780,780,780,780,780,780,780,780,780,780,780,780,780,780,780,780,780,780,780,780,780,780,780,780,780,780,780,780,780,780,780,780,780,780,780,780,780,780,780,780,780,780,780,780,780,780,780,779,779,779,779,779,779,779,779,779,779,779,779,779,779,779,779,777,774,771,766,762,762,760,758,752,747,741,737,731,724,720,714,709,705,692,687,683,677,667,656,625,603,577,551,510],"ymouse":[513,513,513,513,513,513,513,513,513,513,513,513,513,513,513,513,513,513,513,513,513,513,513,513,513,513,513,513,513,513,513,513,513,513,513,513,513,513,513,513,513,513,513,513,513,513,513,513,513,513,513,513,513,513,513,513,513,513,513,513,513,513,511,509,507,503,497,495,492,489,480,473,464,452,430,401,383,367,350,334,302,288,278,271,263,254,247,243,239,236,227,220,210,204,193,180,174,168,162,157,145,141,138,135,130,127,115,110,102,95,83],"timestamp_mouse":[12,46,54,73,92,113,132,154,173,193,212,234,253,272,292,313,334,354,373,392,412,432,453,473,493,513,532,553,573,594,613,632,652,673,694,712,732,752,773,792,814,833,852,873,892,912,933,953,973,993,1012,1032,1053,1072,1092,1113,1133,1154,1172,1192,1213,1234,1252,1272,1293,1312,1333,1353,1373,1393,1412,1433,1452,1473,1492,1513,1533,1553,1572,1593,1613,1633,1653,1673,1692,1712,1733,1752,1773,1793,1812,1832,1852,1873,1892,1913,1933,1953,1972,1992,2013,2034,2052,2073,2092,2112,2132,2152,2173,2192,2212],"xSR":741.5,"ySR":469.95,"xT1":424.9,"yT1":0,"xT2":1058.1,"yT2":0,"toosoon":0,"cond_shown":"Incongruent","ratio_trial":100,"L_num":9,"L_den":15,"R_num":14,"R_den":28,"correct_side":1,"subjID":"Sara Manuela Camargo Herrera 30","gender":"1","school":"4","age":"9"},{"start_time":1552073812957,"click_time":1552073815035,"finger_time":1552073814352,"fix_duration":781.9986440058905,"trial":39,"RT":1395,"MT":683,"sideResp":1,"stimulus":[],"xmouse":[802,802,802,802,802,802,802,802,802,802,802,802,802,802,802,802,802,802,802,802,802,802,802,802,802,802,802,802,802,802,802,802,802,802,802,802,802,802,802,802,802,802,802,802,802,802,802,802,802,802,802,802,802,802,802,802,802,802,802,802,802,802,802,802,802,802,802,802,799,790,770,762,754,746,738,728,723,722,717,706,684,674,666,657,650,639,635,630,623,621,612,608,605,598,593,577,570,563,557,551,543,539,530,520],"ymouse":[511,511,511,511,511,511,511,511,511,511,511,511,511,511,511,511,511,511,511,511,511,511,511,511,511,511,511,511,511,511,511,511,511,511,511,511,511,511,511,511,511,511,511,511,511,511,511,511,511,511,511,511,511,511,511,511,511,511,511,511,511,511,511,511,511,507,502,489,476,441,379,352,327,309,293,277,273,273,270,266,257,251,247,241,238,230,226,221,217,214,205,200,194,185,176,149,135,121,108,92,78,73,69,65],"timestamp_mouse":[15,35,56,75,95,115,135,156,177,196,215,235,255,276,295,316,335,356,375,397,415,436,456,476,496,516,536,556,577,596,616,635,655,675,695,716,736,755,776,795,816,836,857,877,895,915,936,955,975,995,1016,1036,1056,1076,1096,1116,1136,1155,1176,1196,1215,1235,1255,1276,1296,1316,1335,1355,1375,1395,1415,1437,1456,1475,1495,1515,1543,1556,1576,1597,1615,1635,1655,1675,1695,1715,1735,1756,1775,1795,1815,1835,1858,1878,1897,1918,1939,1958,1978,1999,2018,2039,2058,2078],"xSR":741.5,"ySR":469.95,"xT1":424.9,"yT1":0,"xT2":1058.1,"yT2":0,"toosoon":0,"cond_shown":"Incongruent","ratio_trial":300,"L_num":1,"L_den":2,"R_num":2,"R_den":10,"correct_side":1,"subjID":"Sara Manuela Camargo Herrera 30","gender":"1","school":"4","age":"9"},{"start_time":1552073816959,"click_time":1552073818815,"finger_time":1552073818095,"fix_duration":764.2162195088581,"trial":40,"RT":1136,"MT":720,"sideResp":2,"stimulus":[],"xmouse":[804,804,804,804,804,804,804,804,804,804,804,804,804,804,804,804,804,804,804,804,804,804,804,804,804,804,804,804,804,804,804,804,804,804,804,804,804,804,804,804,804,804,804,804,804,804,804,804,804,804,804,804,806,808,810,819,827,837,846,861,879,890,902,913,926,952,961,967,971,975,985,994,1003,1009,1014,1017,1023,1028,1036,1042,1046,1052,1055,1057,1060,1065,1067,1070,1071,1076,1081,1083,1087],"ymouse":[510,510,511,511,511,511,511,511,511,511,511,511,511,511,511,511,511,511,511,511,511,511,511,511,511,511,511,511,511,511,511,511,511,511,511,511,511,511,511,511,511,511,511,511,511,511,511,511,511,511,511,507,505,501,495,481,467,451,434,410,378,359,339,320,302,268,259,252,247,242,231,224,218,212,205,199,189,180,169,160,152,141,135,131,126,118,115,112,110,105,101,100,96],"timestamp_mouse":[15,37,56,77,97,115,135,157,177,196,217,235,255,276,297,317,335,355,375,397,416,437,456,477,496,516,535,557,575,597,617,636,657,675,695,716,736,757,776,796,817,837,856,876,895,916,935,956,975,996,1016,1036,1056,1075,1097,1116,1136,1155,1177,1196,1217,1237,1256,1275,1296,1316,1335,1356,1376,1396,1415,1435,1455,1476,1495,1515,1536,1555,1575,1595,1616,1637,1657,1676,1696,1716,1736,1755,1776,1795,1816,1836,1856],"xSR":741.5,"ySR":469.95,"xT1":424.9,"yT1":0,"xT2":1058.1,"yT2":0,"toosoon":0,"cond_shown":"Incongruent","ratio_trial":100,"L_num":6,"L_den":12,"R_num":3,"R_den":5,"correct_side":2,"subjID":"Sara Manuela Camargo Herrera 30","gender":"1","school":"4","age":"9"},{"start_time":1552073820249,"click_time":1552073822296,"finger_time":1552073821715,"fix_duration":250,"trial":41,"RT":1466,"MT":581,"sideResp":2,"stimulus":[],"xmouse":[800,800,800,800,799,799,799,799,799,799,799,799,799,799,799,799,799,799,799,799,799,799,799,799,799,799,799,799,799,799,799,799,799,799,799,799,799,799,799,799,799,799,799,799,799,799,799,799,799,799,799,799,799,799,799,799,799,799,799,799,799,799,799,799,799,799,799,799,800,801,806,821,829,836,840,844,853,858,865,872,879,898,911,924,938,973,1021,1040,1058,1068,1074,1079,1080,1081,1082,1084,1088,1089,1090,1093,1094,1096,1101],"ymouse":[526,527,529,529,530,530,530,531,531,532,532,532,532,532,532,532,532,532,532,532,532,532,532,532,532,532,532,532,532,532,532,532,532,532,532,532,532,532,532,532,532,532,532,532,532,532,532,532,532,532,532,532,532,532,532,532,532,532,532,532,532,532,532,532,532,532,532,532,527,524,514,487,475,467,460,451,436,426,414,403,391,358,338,316,288,242,190,173,156,145,136,127,124,123,121,119,115,114,113,111,109,105,99],"timestamp_mouse":[5,33,47,65,86,106,126,147,166,186,205,226,246,267,286,307,326,346,366,385,406,426,447,465,487,507,527,546,567,587,607,626,646,666,687,706,725,746,767,786,807,826,847,866,886,905,927,947,966,987,1007,1026,1047,1066,1087,1105,1125,1146,1167,1186,1205,1225,1247,1266,1286,1307,1326,1347,1365,1385,1406,1426,1447,1466,1486,1507,1526,1545,1565,1586,1606,1626,1646,1666,1686,1706,1726,1745,1765,1785,1806,1826,1846,1867,1886,1906,1926,1946,1965,1986,2005,2025,2046],"xSR":741.5,"ySR":469.95,"xT1":424.9,"yT1":0,"xT2":1058.1,"yT2":0,"toosoon":0,"cond_shown":"Incongruent","ratio_trial":300,"L_num":4,"L_den":20,"R_num":2,"R_den":4,"correct_side":2,"subjID":"Sara Manuela Camargo Herrera 30","gender":"1","school":"4","age":"9"},{"start_time":1552073824643,"click_time":1552073826375,"finger_time":1552073825734,"fix_duration":787.4336281423269,"trial":42,"RT":1091,"MT":641,"sideResp":2,"stimulus":[],"xmouse":[792,792,792,792,792,792,792,792,792,792,792,792,792,792,792,792,792,792,792,792,792,792,792,792,792,792,792,792,792,792,792,792,792,792,792,792,792,792,792,792,792,792,792,792,792,792,792,792,792,792,794,801,804,808,816,821,825,832,833,836,838,846,852,860,869,884,910,921,933,943,952,968,976,984,991,1001,1008,1020,1023,1025,1029,1036,1040,1045,1051,1057,1075],"ymouse":[508,508,508,508,508,508,508,508,508,508,508,508,508,508,508,508,508,508,508,508,508,508,508,508,508,508,508,508,508,508,508,508,508,508,508,508,508,508,508,508,508,508,508,508,508,508,508,508,508,509,508,496,490,482,469,461,453,437,429,421,412,384,368,348,327,292,246,228,212,199,186,172,164,159,154,147,142,132,130,127,123,113,108,101,95,87,68],"timestamp_mouse":[12,32,51,71,92,113,131,152,173,192,213,232,251,271,293,312,332,352,372,393,412,432,451,471,493,512,533,551,572,591,613,632,652,672,692,713,731,752,773,791,812,832,853,872,893,911,931,953,972,993,1013,1033,1053,1071,1091,1112,1132,1152,1171,1192,1212,1232,1251,1271,1292,1312,1333,1351,1371,1391,1411,1433,1452,1472,1492,1513,1532,1552,1572,1592,1613,1632,1651,1672,1692,1712,1732],"xSR":741.5,"ySR":469.95,"xT1":424.9,"yT1":0,"xT2":1058.1,"yT2":0,"toosoon":0,"cond_shown":"Incongruent","ratio_trial":300,"L_num":4,"L_den":20,"R_num":2,"R_den":4,"correct_side":2,"subjID":"Sara Manuela Camargo Herrera 30","gender":"1","school":"4","age":"9"},{"start_time":1552073828890,"click_time":1552073830176,"finger_time":1552073829734,"fix_duration":1133.189548634988,"trial":43,"RT":844,"MT":442,"sideResp":1,"stimulus":[],"xmouse":[791,791,791,791,791,791,791,791,791,791,791,791,791,791,791,791,791,791,791,791,791,791,791,791,791,791,791,791,791,791,791,791,791,791,791,791,791,791,791,794,798,804,808,814,815,814,808,803,798,792,777,766,753,723,669,644,626,607,593,568,555,543,530,514,503],"ymouse":[513,513,513,513,513,513,513,513,513,513,513,513,513,513,513,513,513,513,513,513,513,513,513,513,513,513,513,513,513,513,513,513,513,513,513,513,513,513,509,501,492,477,467,450,429,420,410,401,390,378,353,338,324,297,264,249,235,222,210,183,167,151,132,103,69],"timestamp_mouse":[12,37,44,65,85,104,125,144,164,185,205,226,245,266,284,306,325,346,365,384,406,424,445,466,485,505,526,545,566,585,605,626,645,665,685,706,726,746,765,784,806,825,844,865,885,904,925,945,965,985,1005,1025,1045,1066,1086,1106,1125,1146,1164,1185,1204,1225,1246,1266,1286],"xSR":741.5,"ySR":469.95,"xT1":424.9,"yT1":0,"xT2":1058.1,"yT2":0,"toosoon":0,"cond_shown":"Congruent","ratio_trial":200,"L_num":4,"L_den":10,"R_num":3,"R_den":15,"correct_side":1,"subjID":"Sara Manuela Camargo Herrera 30","gender":"1","school":"4","age":"9"},{"start_time":1552073831827,"click_time":1552073833935,"finger_time":1552073833415,"fix_duration":250,"trial":44,"RT":1588,"MT":520,"sideResp":2,"stimulus":[],"xmouse":[775,775,775,775,775,775,775,775,776,777,778,778,779,779,779,779,779,780,780,780,780,780,780,780,780,780,780,780,780,780,780,780,780,780,780,780,780,780,780,780,780,780,780,780,780,780,780,780,780,780,780,780,780,780,780,780,780,780,780,780,780,780,780,780,780,780,780,780,780,780,780,780,780,780,780,780,781,783,788,796,805,819,874,906,940,962,981,986,986,986,986,986,986,986,986,986,988,996,1002,1011,1018,1029,1038,1052,1057,1063],"ymouse":[512,512,512,512,512,512,512,513,513,515,515,516,516,516,517,517,517,518,518,518,518,518,518,518,518,518,518,518,518,518,518,518,518,518,518,518,518,518,518,518,518,518,518,518,518,518,518,518,518,518,518,518,518,518,518,518,518,518,518,518,518,518,518,518,518,518,518,518,518,518,518,518,518,518,518,517,512,500,487,468,444,408,303,254,210,181,155,143,142,142,142,142,142,141,139,136,130,115,106,92,83,70,60,42,35,30],"timestamp_mouse":[9,41,48,68,89,107,128,148,167,189,209,227,248,268,289,309,327,348,369,388,407,428,448,469,489,508,528,549,569,589,607,628,649,668,687,708,728,749,767,787,809,827,849,869,888,907,928,952,969,988,1009,1027,1047,1069,1088,1109,1129,1148,1167,1188,1209,1228,1248,1268,1289,1309,1327,1347,1368,1389,1408,1427,1449,1469,1487,1507,1528,1547,1567,1588,1608,1629,1649,1667,1687,1708,1727,1748,1768,1788,1807,1828,1849,1868,1888,1908,1927,1948,1968,1987,2008,2027,2048,2069,2089,2108],"xSR":741.5,"ySR":469.95,"xT1":424.9,"yT1":0,"xT2":1058.1,"yT2":0,"toosoon":0,"cond_shown":"Congruent","ratio_trial":300,"L_num":11,"L_den":22,"R_num":1,"R_den":5,"correct_side":1,"subjID":"Sara Manuela Camargo Herrera 30","gender":"1","school":"4","age":"9"},{"start_time":1552073840913,"click_time":1552073842375,"finger_time":1552073841856,"fix_duration":1196.394790329059,"trial":45,"RT":943,"MT":519,"sideResp":1,"stimulus":[],"xmouse":[781,781,781,781,781,781,781,781,781,781,781,781,781,781,781,781,781,781,781,781,781,781,781,781,781,781,781,781,781,781,781,781,781,781,781,781,781,781,781,781,780,778,777,770,764,754,745,732,720,689,672,656,634,608,598,590,587,583,580,576,573,571,565,555,547,541,537,534,532,532,531,530,524,514],"ymouse":[523,523,523,523,523,523,523,523,523,523,523,523,523,523,523,523,523,523,523,523,523,523,523,523,523,523,523,523,523,523,523,523,523,523,523,523,523,523,523,523,523,522,521,512,505,494,483,472,461,425,405,386,358,321,308,296,288,281,272,267,261,255,240,212,192,174,158,145,134,121,117,113,103,90],"timestamp_mouse":[10,22,44,62,82,101,123,143,163,182,203,222,241,262,282,302,323,342,363,381,403,422,442,461,483,503,522,542,562,581,603,622,643,662,683,703,723,743,762,781,802,823,842,862,883,903,922,943,963,983,1002,1023,1043,1062,1081,1102,1121,1141,1161,1182,1202,1222,1241,1262,1283,1303,1321,1343,1361,1381,1402,1422,1442,1462],"xSR":741.5,"ySR":469.95,"xT1":424.9,"yT1":0,"xT2":1058.1,"yT2":0,"toosoon":0,"cond_shown":"Congruent","ratio_trial":300,"L_num":4,"L_den":5,"R_num":2,"R_den":4,"correct_side":1,"subjID":"Sara Manuela Camargo Herrera 30","gender":"1","school":"4","age":"9"},{"start_time":1552073844186,"click_time":1552073847415,"finger_time":1552073846855,"fix_duration":1048.495166952459,"trial":46,"RT":2669,"MT":560,"sideResp":2,"stimulus":[],"xmouse":[808,808,808,808,808,808,808,808,808,808,808,808,808,807,807,807,807,807,807,807,807,807,807,807,807,807,807,807,807,807,807,807,807,807,807,807,807,807,807,807,807,807,807,807,807,807,807,807,807,807,807,807,807,807,807,807,807,807,807,805,803,803,803,803,803,803,803,803,803,803,803,803,803,803,803,801,798,796,796,796,796,796,796,796,796,796,796,796,796,796,796,796,796,796,796,796,796,795,795,793,792,791,791,791,791,791,791,791,791,791,791,791,790,789,787,787,787,787,786,786,786,786,786,786,786,787,788,793,795,803,805,808,812,816,824,829,835,848,861,891,901,910,917,931,969,980,984,986,987,987,988,990,995,999,1003,1006,1011,1013,1022,1039,1049,1060],"ymouse":[505,505,505,505,505,505,505,505,505,505,505,505,505,505,507,508,509,509,509,509,510,510,510,510,510,510,510,510,510,510,510,510,510,510,510,510,510,510,510,510,510,510,510,510,510,510,510,510,510,510,510,510,510,510,510,510,510,510,510,510,510,510,510,510,510,510,510,510,510,510,510,510,510,510,510,509,505,502,502,502,502,502,502,502,502,502,502,502,502,502,502,502,502,502,502,502,502,502,503,505,506,507,507,507,507,507,507,507,507,507,507,501,498,495,489,487,486,485,484,484,484,484,484,484,484,484,484,484,485,486,486,483,474,464,437,422,404,372,350,294,270,248,228,197,93,72,60,57,55,54,54,54,54,54,54,54,54,55,56,59,60,62],"timestamp_mouse":[9,42,50,68,89,109,129,149,170,189,209,229,249,269,289,309,329,349,368,388,409,429,448,469,489,510,528,548,569,590,609,630,649,670,689,710,730,749,769,790,809,830,850,869,889,910,930,949,969,989,1009,1029,1050,1070,1088,1109,1129,1149,1168,1188,1209,1230,1250,1270,1289,1309,1330,1348,1368,1390,1408,1430,1450,1468,1490,1509,1530,1549,1568,1589,1610,1629,1650,1670,1689,1708,1730,1748,1769,1790,1809,1828,1850,1870,1888,1910,1929,1949,1969,1988,2010,2029,2049,2068,2090,2108,2128,2149,2169,2190,2210,2228,2249,2270,2289,2310,2329,2350,2369,2389,2408,2428,2449,2469,2489,2509,2529,2548,2568,2589,2610,2629,2648,2669,2689,2708,2728,2748,2769,2788,2810,2828,2848,2868,2889,2909,2929,2949,2968,2988,3009,3030,3049,3068,3089,3108,3130,3148,3168,3189,3210,3229],"xSR":741.5,"ySR":469.95,"xT1":424.9,"yT1":0,"xT2":1058.1,"yT2":0,"toosoon":0,"cond_shown":"Congruent","ratio_trial":100,"L_num":7,"L_den":14,"R_num":9,"R_den":15,"correct_side":2,"subjID":"Sara Manuela Camargo Herrera 30","gender":"1","school":"4","age":"9"},{"start_time":1552073851608,"click_time":1552073853294,"finger_time":1552073853074,"fix_duration":1110.3715342808127,"trial":47,"RT":1466,"MT":220,"sideResp":2,"stimulus":[],"xmouse":[794,794,794,794,794,794,794,794,794,794,794,794,794,794,794,794,794,794,794,794,794,794,794,794,794,794,794,794,794,794,794,794,794,794,794,794,794,794,794,794,794,794,794,794,794,794,794,794,794,794,794,794,794,794,794,794,794,794,794,794,794,794,794,794,794,794,795,798,812,817,822,825,830,842,853,866,880,910,955,978,995,1013,1032,1053,1059],"ymouse":[514,514,514,514,514,514,514,514,514,514,514,514,514,514,514,514,514,514,514,514,514,514,514,514,514,514,514,514,514,514,514,514,514,514,514,514,514,514,514,514,514,514,514,514,514,514,514,514,514,514,514,514,514,514,514,514,514,514,514,514,514,514,514,514,514,514,514,512,502,498,491,485,479,456,441,423,403,362,287,243,200,157,116,59,41],"timestamp_mouse":[13,39,47,68,86,107,127,147,168,188,207,226,247,268,288,307,327,347,368,386,408,428,448,467,488,508,526,547,567,588,607,626,648,667,688,707,727,748,767,786,807,828,847,867,886,907,927,947,968,987,1008,1027,1046,1066,1088,1107,1127,1147,1166,1187,1208,1227,1248,1268,1286,1307,1328,1348,1366,1386,1408,1428,1447,1466,1486,1507,1527,1548,1566,1586,1607,1627,1647,1667,1686],"xSR":741.5,"ySR":469.95,"xT1":424.9,"yT1":0,"xT2":1058.1,"yT2":0,"toosoon":0,"cond_shown":"Congruent","ratio_trial":100,"L_num":11,"L_den":22,"R_num":4,"R_den":10,"correct_side":1,"subjID":"Sara Manuela Camargo Herrera 30","gender":"1","school":"4","age":"9"},{"start_time":1552073854830,"click_time":1552073856694,"finger_time":1552073856335,"fix_duration":293.4930662028655,"trial":48,"RT":1505,"MT":359,"sideResp":2,"stimulus":[],"xmouse":[780,780,780,780,780,780,780,780,780,780,780,780,780,780,780,780,780,780,780,780,780,780,780,780,780,780,780,780,780,780,780,780,780,780,780,780,780,780,780,780,780,780,780,780,780,780,780,780,780,780,780,780,780,780,780,780,780,780,780,780,780,780,780,780,780,780,780,780,780,780,781,783,790,800,812,829,835,879,900,924,950,974,1000,1007,1013,1016,1017,1018,1019,1023,1030,1036,1054,1061],"ymouse":[514,514,514,514,514,514,514,514,514,514,514,514,514,514,514,514,514,514,514,514,514,514,514,514,514,514,514,514,514,514,514,514,514,514,514,514,514,514,514,514,514,514,514,514,514,514,514,514,514,514,514,514,514,514,514,514,514,514,514,514,514,514,514,514,514,514,514,514,514,514,512,510,502,495,484,464,453,370,326,277,227,185,130,113,101,96,94,94,93,93,93,93,93,92],"timestamp_mouse":[13,26,45,65,84,106,126,145,165,186,205,224,245,265,286,306,324,344,364,385,406,424,445,464,485,506,524,545,566,585,604,626,645,666,685,705,726,745,764,786,804,825,844,866,885,905,925,944,965,985,1005,1026,1045,1064,1086,1104,1125,1146,1164,1186,1206,1226,1246,1265,1286,1305,1325,1345,1365,1385,1406,1424,1444,1465,1485,1505,1525,1545,1564,1584,1604,1624,1645,1666,1685,1705,1724,1745,1764,1784,1804,1826,1845,1864],"xSR":741.5,"ySR":469.95,"xT1":424.9,"yT1":0,"xT2":1058.1,"yT2":0,"toosoon":0,"cond_shown":"Incongruent","ratio_trial":300,"L_num":13,"L_den":26,"R_num":12,"R_den":15,"correct_side":2,"subjID":"Sara Manuela Camargo Herrera 30","gender":"1","school":"4","age":"9"},{"start_time":1552073859172,"click_time":1552073860994,"finger_time":1552073860615,"fix_duration":1114.6202434382028,"trial":49,"RT":1443,"MT":379,"sideResp":2,"stimulus":[],"xmouse":[796,796,796,796,796,796,796,796,796,796,796,796,796,796,796,796,796,796,796,796,796,796,796,796,796,796,796,796,796,796,796,796,796,796,796,796,796,796,796,796,796,796,796,796,796,796,796,796,796,796,796,796,796,796,796,796,796,796,796,796,796,796,796,796,796,797,797,797,799,800,802,805,811,826,847,907,937,966,986,1006,1023,1032,1038,1042,1046,1048,1048,1048,1048,1048,1058,1065],"ymouse":[526,526,526,526,526,526,526,526,526,526,526,526,526,526,526,526,526,526,526,526,526,526,526,526,526,526,526,526,526,526,526,526,526,526,526,526,526,526,526,526,526,526,526,526,526,526,526,526,526,524,524,523,522,522,522,521,521,520,520,520,519,518,518,517,516,513,511,507,505,498,484,472,456,433,403,333,294,257,227,192,152,134,118,108,99,94,94,94,94,94,93,93],"timestamp_mouse":[12,24,42,64,83,103,122,144,163,183,204,223,243,263,283,303,324,342,362,384,404,423,444,463,483,503,524,544,564,584,603,622,642,663,684,703,724,743,764,783,802,824,843,864,884,902,922,943,964,984,1002,1024,1044,1063,1084,1104,1124,1142,1163,1183,1203,1223,1243,1262,1283,1303,1323,1344,1364,1382,1402,1423,1443,1463,1483,1503,1524,1542,1563,1583,1603,1622,1642,1663,1683,1703,1722,1743,1764,1783,1803,1822],"xSR":741.5,"ySR":469.95,"xT1":424.9,"yT1":0,"xT2":1058.1,"yT2":0,"toosoon":0,"cond_shown":"Congruent","ratio_trial":100,"L_num":11,"L_den":22,"R_num":4,"R_den":10,"correct_side":1,"subjID":"Sara Manuela Camargo Herrera 30","gender":"1","school":"4","age":"9"},{"start_time":1552073862634,"click_time":1552073864975,"finger_time":1552073864255,"fix_duration":458.543257622655,"trial":50,"RT":1621,"MT":720,"sideResp":1,"stimulus":[],"xmouse":[793,793,793,793,793,793,793,793,793,793,793,793,793,793,793,793,793,793,793,793,793,793,793,793,793,793,793,793,793,793,793,793,793,793,793,793,793,793,793,793,793,793,793,793,793,793,793,793,793,793,793,793,793,793,793,793,793,793,793,793,793,793,793,793,793,793,793,793,793,793,793,793,793,793,793,791,789,786,785,781,777,770,755,744,734,722,709,698,693,683,670,655,618,599,583,571,554,544,533,528,523,518,511,505,494,483,469,462,462,461,461,461,461,462,465,469,479,521],"ymouse":[521,521,521,521,521,521,521,521,521,521,521,521,521,521,521,521,521,521,521,521,521,521,521,521,521,521,521,521,521,521,521,521,521,521,521,521,521,521,521,521,521,521,521,521,521,521,521,521,521,521,521,521,521,521,521,521,521,521,521,521,521,521,521,521,521,521,521,521,521,521,521,521,521,521,521,521,517,508,500,491,478,461,426,406,387,366,341,313,299,283,266,244,201,185,172,165,157,155,152,150,150,149,148,147,147,145,142,140,139,138,136,134,126,122,117,112,105,93],"timestamp_mouse":[10,21,40,61,82,100,122,141,161,182,202,222,241,260,282,301,321,342,362,382,401,421,440,461,482,502,522,541,560,582,600,620,640,661,682,701,722,740,760,781,801,822,842,862,882,900,921,941,962,982,1002,1022,1041,1062,1081,1102,1121,1141,1162,1182,1201,1222,1241,1262,1282,1300,1321,1341,1360,1380,1402,1421,1441,1461,1482,1501,1521,1541,1562,1580,1600,1621,1640,1660,1681,1702,1721,1741,1761,1781,1801,1822,1842,1860,1881,1902,1921,1941,1962,1982,2001,2021,2041,2061,2081,2101,2120,2141,2160,2182,2201,2221,2241,2261,2280,2301,2321,2341],"xSR":741.5,"ySR":469.95,"xT1":424.9,"yT1":0,"xT2":1058.1,"yT2":0,"toosoon":0,"cond_shown":"Congruent","ratio_trial":200,"L_num":8,"L_den":15,"R_num":2,"R_den":6,"correct_side":1,"subjID":"Sara Manuela Camargo Herrera 30","gender":"1","school":"4","age":"9"},{"start_time":1552073866770,"click_time":1552073868675,"finger_time":1552073868275,"fix_duration":633.2206626497367,"trial":51,"RT":1505,"MT":400,"sideResp":1,"stimulus":[],"xmouse":[793,793,793,793,793,793,793,793,793,793,793,793,793,793,793,793,793,793,793,793,793,793,793,793,793,793,793,793,793,793,793,793,793,793,793,793,793,793,793,793,793,793,793,793,793,793,793,793,793,793,793,793,793,793,793,793,793,793,793,793,793,793,793,793,793,793,793,793,791,789,775,768,759,751,744,730,723,714,704,682,648,631,617,607,596,578,570,562,551,540,519,513,512,512,511,505],"ymouse":[524,524,524,524,524,524,524,524,524,524,524,524,524,524,524,524,524,524,524,524,524,524,524,524,524,524,524,524,524,524,524,524,524,524,524,524,524,524,524,524,524,524,524,524,524,524,524,524,524,524,524,524,524,524,524,524,524,524,524,524,524,524,524,524,524,524,524,524,523,521,507,496,488,481,474,461,453,442,425,394,355,338,323,308,290,251,226,200,171,146,110,104,103,103,103,99],"timestamp_mouse":[13,36,44,66,85,105,124,146,164,186,206,226,245,266,285,306,326,345,366,385,405,425,446,465,486,505,525,546,564,585,605,624,644,666,685,704,725,746,765,785,806,826,845,866,885,905,926,946,964,984,1005,1025,1044,1066,1085,1105,1126,1149,1164,1185,1204,1225,1245,1264,1285,1304,1326,1345,1365,1385,1405,1426,1445,1465,1486,1505,1524,1545,1565,1585,1606,1626,1645,1664,1685,1705,1725,1744,1764,1785,1806,1825,1846,1865,1885,1904],"xSR":741.5,"ySR":469.95,"xT1":424.9,"yT1":0,"xT2":1058.1,"yT2":0,"toosoon":0,"cond_shown":"Congruent","ratio_trial":300,"L_num":4,"L_den":5,"R_num":2,"R_den":4,"correct_side":1,"subjID":"Sara Manuela Camargo Herrera 30","gender":"1","school":"4","age":"9"},{"start_time":1552073876320,"click_time":1552073878197,"finger_time":1552073877676,"fix_duration":840.8960862757659,"trial":52,"RT":1356,"MT":521,"sideResp":1,"stimulus":[],"xmouse":[812,812,812,812,812,812,812,813,813,813,813,813,813,813,813,813,813,813,813,813,813,813,813,813,813,813,814,816,816,817,817,817,817,817,817,817,817,817,817,817,817,817,817,817,817,817,817,817,817,817,817,817,817,817,817,817,817,817,817,817,817,817,817,817,816,811,804,786,775,764,755,740,722,710,700,690,681,669,667,664,662,659,649,640,631,618,605,574,561,549,537,534,527,522],"ymouse":[512,512,512,512,512,512,512,513,513,513,513,513,513,513,513,513,513,513,513,513,513,513,513,513,513,513,513,513,513,514,514,514,514,514,514,514,514,514,514,514,514,514,514,514,514,514,514,514,51