[{"start_time":1552313146666,"click_time":1552313148754,"finger_time":1552313148253,"fix_duration":250,"trial":0,"RT":1587,"MT":501,"sideResp":1,"stimulus":[],"xmouse":[799,799,799,799,799,799,799,799,799,799,799,799,799,799,799,799,799,799,799,799,799,799,799,799,799,799,799,799,799,799,799,799,799,799,799,799,799,799,799,799,799,799,799,799,799,799,799,799,799,799,799,799,799,799,799,799,799,799,799,799,799,799,799,799,799,799,799,799,799,799,799,799,799,799,799,799,799,792,785,747,723,700,665,645,624,613,611,611,611,611,605,602,602,602,602,601,595,587,580,573,563,559,545,536,516],"ymouse":[505,505,505,505,505,505,505,505,505,505,505,505,505,505,505,505,505,505,505,505,505,505,505,505,505,505,505,505,505,505,505,505,505,505,505,505,505,505,505,505,505,505,505,505,505,505,505,505,505,505,505,505,505,505,505,505,505,505,505,505,505,505,505,505,505,505,505,505,505,505,505,505,505,505,505,505,505,500,490,411,355,301,221,175,135,118,113,113,113,113,108,106,106,106,106,106,106,106,105,105,103,101,97,94,85],"timestamp_mouse":[9,33,46,66,86,107,126,147,165,186,206,226,246,266,287,307,327,347,365,386,405,427,447,467,486,506,527,545,566,587,607,627,647,667,685,707,725,747,766,787,807,827,847,867,886,905,927,947,967,986,1007,1027,1046,1066,1086,1107,1126,1147,1167,1185,1207,1227,1245,1266,1286,1307,1327,1346,1366,1386,1405,1426,1447,1466,1487,1506,1527,1547,1567,1587,1606,1626,1646,1665,1687,1706,1727,1746,1767,1786,1807,1827,1846,1867,1886,1907,1927,1946,1967,1986,2006,2025,2045,2066,2088],"xSR":741.5,"ySR":469.95,"xT1":424.9,"yT1":0,"xT2":1058.1,"yT2":0,"toosoon":0,"cond_shown":"Incongruent","ratio_trial":100,"L_num":10,"L_den":25,"R_num":8,"R_den":16,"correct_side":2,"subjID":"sararodriguiez34","gender":"1","age":"9","school":"4","test":{"fix_dur":[250,1500],"timestim":1000,"targets_dim":[100,100],"targets_relative_coord":[0.3,0.7],"size_stim":[880,420],"start_dim":[100,100],"size_start":[300,300],"size_fix":60,"samplingrate":20,"img_types":["Congruent","Incongruent"],"ratios":[100,200,300],"rep_conds":19,"nTrials":120,"trials_to_rest":500,"Trials_order":[7,16,101,70,58,21,95,18,90,3,54,60,2,117,116,111,87,46,1,27,12,23,62,79,40,34,17,82,6,42,80,115,43,8,66,75,108,63,99,67,48,53,37,51,33,39,15,81,118,94,50,97,77,10,72,103,100,106,44,14,73,13,24,96,0,71,74,9,11,28,38,93,86,5,88,55,35,52,29,102,45,56,92,84,20,113,109,41,76,25,91,68,4,49,32,59,83,107,78,112,85,30,47,31,98,105,22,110,89,61,65,64,69,57,119,114,36,104,26,19],"cond_shown":["Incongruent","Congruent","Incongruent","Congruent","Congruent","Incongruent","Incongruent","Congruent","Congruent","Incongruent","Congruent","Congruent","Congruent","Incongruent","Congruent","Incongruent","Incongruent","Congruent","Incongruent","Incongruent","Congruent","Incongruent","Congruent","Incongruent","Congruent","Congruent","Incongruent","Congruent","Congruent","Congruent","Congruent","Incongruent","Incongruent","Congruent","Congruent","Incongruent","Congruent","Incongruent","Incongruent","Incongruent","Congruent","Incongruent","Incongruent","Incongruent","Incongruent","Incongruent","Incongruent","Incongruent","Congruent","Congruent","Congruent","Incongruent","Incongruent","Congruent","Congruent","Incongruent","Congruent","Congruent","Congruent","Congruent","Incongruent","Incongruent","Congruent","Congruent","Congruent","Incongruent","Congruent","Incongruent","Incongruent","Congruent","Congruent","Incongruent","Congruent","Incongruent","Congruent","Incongruent","Incongruent","Congruent","Incongruent","Congruent","Incongruent","Congruent","Congruent","Congruent","Congruent","Incongruent","Incongruent","Incongruent","Congruent","Incongruent","Incongruent","Congruent","Congruent","Incongruent","Congruent","Incongruent","Incongruent","Incongruent","Congruent","Congruent","Incongruent","Congruent","Incongruent","Incongruent","Congruent","Incongruent","Congruent","Congruent","Incongruent","Incongruent","Incongruent","Congruent","Incongruent","Incongruent","Incongruent","Congruent","Congruent","Congruent","Congruent","Incongruent"],"ratio_trial":[100,300,300,300,300,200,300,100,100,200,100,100,200,200,200,200,200,300,100,200,100,300,200,100,300,300,300,300,100,100,200,100,100,200,100,200,100,200,200,100,100,300,100,200,200,200,200,200,300,300,200,100,300,300,100,100,300,300,200,200,100,100,100,100,100,300,200,200,300,300,200,200,200,300,300,100,300,300,300,100,200,200,200,100,200,300,100,300,300,100,100,200,300,100,200,300,300,300,100,300,100,100,300,100,200,200,300,200,300,100,300,300,200,200,300,100,100,200,200,100],"left_num":[10,3,4,1,20,3,13,4,1,4,11,2,12,3,20,4,14,20,9,1,9,4,13,6,11,1,4,20,4,4,11,9,9,16,9,4,11,7,9,3,11,4,13,4,9,7,3,4,11,1,3,3,13,2,3,10,5,2,8,4,3,3,11,8,2,2,6,7,13,11,6,1,16,1,3,8,7,8,4,6,7,3,12,12,6,4,12,8,1,3,9,4,7,9,7,4,7,4,15,20,12,3,7,6,12,4,20,6,2,6,1,4,7,3,2,7,8,13,4,6],"right_num":[8,2,2,8,13,1,12,15,3,1,4,6,6,1,9,6,12,8,13,2,8,2,14,3,1,11,8,13,6,15,3,20,20,9,8,1,4,14,8,11,4,2,6,1,8,8,11,6,2,7,14,7,12,12,4,8,7,10,3,3,7,8,4,2,11,6,7,8,12,2,7,3,9,2,2,6,8,1,2,5,14,11,6,13,11,2,9,9,6,4,13,3,20,6,18,2,8,8,13,14,2,4,8,11,6,1,14,3,6,3,3,2,12,1,6,15,2,14,3,11],"left_den":[25,6,20,30,25,10,26,10,2,30,22,5,15,10,25,5,30,25,15,3,15,20,26,12,22,5,5,25,8,10,22,10,10,30,15,30,22,10,15,5,22,20,26,30,15,10,4,5,22,20,10,9,26,10,20,25,25,20,15,8,9,5,22,16,5,4,12,10,26,22,12,2,30,2,6,16,10,16,20,20,10,10,20,30,20,20,24,10,5,6,15,10,14,18,15,20,10,5,25,25,30,20,10,10,15,30,25,15,4,12,2,5,10,10,4,14,16,26,10,10],"right_den":[16,10,4,24,26,2,15,30,5,3,10,12,10,2,15,10,18,16,26,15,16,4,20,5,5,22,16,26,10,30,10,25,25,27,16,3,10,28,10,22,10,4,10,3,10,16,20,10,10,20,28,30,15,24,16,16,14,25,9,10,30,16,10,5,22,30,10,16,15,10,10,10,27,10,10,10,20,5,4,25,28,22,15,26,22,4,15,18,12,10,26,15,25,10,27,4,20,16,26,28,4,16,20,22,10,3,28,15,30,5,15,4,24,2,30,25,5,20,15,22],"correct_side":[2,1,2,2,1,2,2,2,2,2,1,2,1,2,1,1,2,1,1,1,1,2,2,2,1,2,1,1,2,2,1,1,1,1,1,2,1,1,2,1,1,2,2,2,2,1,1,1,1,2,2,1,2,2,2,2,2,2,1,1,1,1,1,1,2,1,2,1,2,1,2,1,1,1,1,2,1,1,2,1,1,2,1,2,2,2,2,1,2,1,1,1,2,2,2,2,1,1,1,1,2,2,1,1,1,2,1,1,1,2,1,1,1,2,1,2,1,2,1,1],"img_shown":["img2/100/Incongruent/R/I_Dist_100_LN_10_LD_25_RN_8_RD_16_1.png","img2/300/Congruent/L/C_Dist_300_LN_3_LD_6_RN_2_RD_10_0.png","img2/300/Incongruent/R/I_Dist_300_LN_4_LD_20_RN_2_RD_4_1.png","img2/300/Congruent/R/C_Dist_300_LN_1_LD_30_RN_8_RD_24_1.png","img2/300/Congruent/L/C_Dist_300_LN_20_LD_25_RN_13_RD_26_0.png","img2/200/Incongruent/R/I_Dist_200_LN_3_LD_10_RN_1_RD_2_1.png","img2/300/Incongruent/R/I_Dist_300_LN_13_LD_26_RN_12_RD_15_1.png","img2/100/Congruent/R/C_Dist_100_LN_4_LD_10_RN_15_RD_30_1.png","img2/100/Congruent/R/C_Dist_100_LN_1_LD_2_RN_3_RD_5_1.png","img2/200/Incongruent/R/I_Dist_200_LN_4_LD_30_RN_1_RD_3_1.png","img2/100/Congruent/L/C_Dist_100_LN_11_LD_22_RN_4_RD_10_0.png","img2/100/Congruent/R/C_Dist_100_LN_2_LD_5_RN_6_RD_12_1.png","img2/200/Congruent/L/C_Dist_200_LN_12_LD_15_RN_6_RD_10_0.png","img2/200/Incongruent/R/I_Dist_200_LN_3_LD_10_RN_1_RD_2_1.png","img2/200/Congruent/L/C_Dist_200_LN_20_LD_25_RN_9_RD_15_0.png","img2/200/Incongruent/L/I_Dist_200_LN_4_LD_5_RN_6_RD_10_0.png","img2/200/Incongruent/R/I_Dist_200_LN_14_LD_30_RN_12_RD_18_1.png","img2/300/Congruent/L/C_Dist_300_LN_20_LD_25_RN_8_RD_16_0.png","img2/100/Incongruent/L/I_Dist_100_LN_9_LD_15_RN_13_RD_26_0.png","img2/200/Incongruent/L/I_Dist_200_LN_1_LD_3_RN_2_RD_15_0.png","img2/100/Congruent/L/C_Dist_100_LN_9_LD_15_RN_8_RD_16_0.png","img2/300/Incongruent/R/I_Dist_300_LN_4_LD_20_RN_2_RD_4_1.png","img2/200/Congruent/R/C_Dist_200_LN_13_LD_26_RN_14_RD_20_1.png","img2/100/Incongruent/R/I_Dist_100_LN_6_LD_12_RN_3_RD_5_1.png","img2/300/Congruent/L/C_Dist_300_LN_11_LD_22_RN_1_RD_5_0.png","img2/300/Congruent/R/C_Dist_300_LN_1_LD_5_RN_11_RD_22_1.png","img2/300/Incongruent/L/I_Dist_300_LN_4_LD_5_RN_8_RD_16_0.png","img2/300/Congruent/L/C_Dist_300_LN_20_LD_25_RN_13_RD_26_0.png","img2/100/Congruent/R/C_Dist_100_LN_4_LD_8_RN_6_RD_10_1.png","img2/100/Congruent/R/C_Dist_100_LN_4_LD_10_RN_15_RD_30_1.png","img2/200/Congruent/L/C_Dist_200_LN_11_LD_22_RN_3_RD_10_0.png","img2/100/Incongruent/L/I_Dist_100_LN_9_LD_10_RN_20_RD_25_0.png","img2/100/Incongruent/L/I_Dist_100_LN_9_LD_10_RN_20_RD_25_0.png","img2/200/Congruent/L/C_Dist_200_LN_16_LD_30_RN_9_RD_27_0.png","img2/100/Congruent/L/C_Dist_100_LN_9_LD_15_RN_8_RD_16_0.png","img2/200/Incongruent/R/I_Dist_200_LN_4_LD_30_RN_1_RD_3_1.png","img2/100/Congruent/L/C_Dist_100_LN_11_LD_22_RN_4_RD_10_0.png","img2/200/Incongruent/L/I_Dist_200_LN_7_LD_10_RN_14_RD_28_0.png","img2/200/Incongruent/R/I_Dist_200_LN_9_LD_15_RN_8_RD_10_1.png","img2/100/Incongruent/L/I_Dist_100_LN_3_LD_5_RN_11_RD_22_0.png","img2/100/Congruent/L/C_Dist_100_LN_11_LD_22_RN_4_RD_10_0.png","img2/300/Incongruent/R/I_Dist_300_LN_4_LD_20_RN_2_RD_4_1.png","img2/100/Incongruent/R/I_Dist_100_LN_13_LD_26_RN_6_RD_10_1.png","img2/200/Incongruent/R/I_Dist_200_LN_4_LD_30_RN_1_RD_3_1.png","img2/200/Incongruent/R/I_Dist_200_LN_9_LD_15_RN_8_RD_10_1.png","img2/200/Incongruent/L/I_Dist_200_LN_7_LD_10_RN_8_RD_16_0.png","img2/200/Incongruent/L/I_Dist_200_LN_3_LD_4_RN_11_RD_20_0.png","img2/200/Incongruent/L/I_Dist_200_LN_4_LD_5_RN_6_RD_10_0.png","img2/300/Congruent/L/C_Dist_300_LN_11_LD_22_RN_2_RD_10_0.png","img2/300/Congruent/R/C_Dist_300_LN_1_LD_20_RN_7_RD_20_1.png","img2/200/Congruent/R/C_Dist_200_LN_3_LD_10_RN_14_RD_28_1.png","img2/100/Incongruent/L/I_Dist_100_LN_3_LD_9_RN_7_RD_30_0.png","img2/300/Incongruent/R/I_Dist_300_LN_13_LD_26_RN_12_RD_15_1.png","img2/300/Congruent/R/C_Dist_300_LN_2_LD_10_RN_12_RD_24_1.png","img2/100/Congruent/R/C_Dist_100_LN_3_LD_20_RN_4_RD_16_1.png","img2/100/Incongruent/R/I_Dist_100_LN_10_LD_25_RN_8_RD_16_1.png","img2/300/Congruent/R/C_Dist_300_LN_5_LD_25_RN_7_RD_14_1.png","img2/300/Congruent/R/C_Dist_300_LN_2_LD_20_RN_10_RD_25_1.png","img2/200/Congruent/L/C_Dist_200_LN_8_LD_15_RN_3_RD_9_0.png","img2/200/Congruent/L/C_Dist_200_LN_4_LD_8_RN_3_RD_10_0.png","img2/100/Incongruent/L/I_Dist_100_LN_3_LD_9_RN_7_RD_30_0.png","img2/100/Incongruent/L/I_Dist_100_LN_3_LD_5_RN_8_RD_16_0.png","img2/100/Congruent/L/C_Dist_100_LN_11_LD_22_RN_4_RD_10_0.png","img2/100/Congruent/L/C_Dist_100_LN_8_LD_16_RN_2_RD_5_0.png","img2/100/Congruent/R/C_Dist_100_LN_2_LD_5_RN_11_RD_22_1.png","img2/300/Incongruent/L/I_Dist_300_LN_2_LD_4_RN_6_RD_30_0.png","img2/200/Congruent/R/C_Dist_200_LN_6_LD_12_RN_7_RD_10_1.png","img2/200/Incongruent/L/I_Dist_200_LN_7_LD_10_RN_8_RD_16_0.png","img2/300/Incongruent/R/I_Dist_300_LN_13_LD_26_RN_12_RD_15_1.png","img2/300/Congruent/L/C_Dist_300_LN_11_LD_22_RN_2_RD_10_0.png","img2/200/Congruent/R/C_Dist_200_LN_6_LD_12_RN_7_RD_10_1.png","img2/200/Incongruent/L/I_Dist_200_LN_1_LD_2_RN_3_RD_10_0.png","img2/200/Congruent/L/C_Dist_200_LN_16_LD_30_RN_9_RD_27_0.png","img2/300/Incongruent/L/I_Dist_300_LN_1_LD_2_RN_2_RD_10_0.png","img2/300/Congruent/L/C_Dist_300_LN_3_LD_6_RN_2_RD_10_0.png","img2/100/Incongruent/R/I_Dist_100_LN_8_LD_16_RN_6_RD_10_1.png","img2/300/Incongruent/L/I_Dist_300_LN_7_LD_10_RN_8_RD_20_0.png","img2/300/Congruent/L/C_Dist_300_LN_8_LD_16_RN_1_RD_5_0.png","img2/300/Incongruent/R/I_Dist_300_LN_4_LD_20_RN_2_RD_4_1.png","img2/100/Congruent/L/C_Dist_100_LN_6_LD_20_RN_5_RD_25_0.png","img2/200/Incongruent/L/I_Dist_200_LN_7_LD_10_RN_14_RD_28_0.png","img2/200/Congruent/R/C_Dist_200_LN_3_LD_10_RN_11_RD_22_1.png","img2/200/Congruent/L/C_Dist_200_LN_12_LD_20_RN_6_RD_15_0.png","img2/100/Congruent/R/C_Dist_100_LN_12_LD_30_RN_13_RD_26_1.png","img2/200/Congruent/R/C_Dist_200_LN_6_LD_20_RN_11_RD_22_1.png","img2/300/Incongruent/R/I_Dist_300_LN_4_LD_20_RN_2_RD_4_1.png","img2/100/Incongruent/R/I_Dist_100_LN_12_LD_24_RN_9_RD_15_1.png","img2/300/Incongruent/L/I_Dist_300_LN_8_LD_10_RN_9_RD_18_0.png","img2/300/Congruent/R/C_Dist_300_LN_1_LD_5_RN_6_RD_12_1.png","img2/100/Incongruent/L/I_Dist_100_LN_3_LD_6_RN_4_RD_10_0.png","img2/100/Incongruent/L/I_Dist_100_LN_9_LD_15_RN_13_RD_26_0.png","img2/200/Congruent/L/C_Dist_200_LN_4_LD_10_RN_3_RD_15_0.png","img2/300/Congruent/R/C_Dist_300_LN_7_LD_14_RN_20_RD_25_1.png","img2/100/Incongruent/R/I_Dist_100_LN_9_LD_18_RN_6_RD_10_1.png","img2/200/Congruent/R/C_Dist_200_LN_7_LD_15_RN_18_RD_27_1.png","img2/300/Incongruent/R/I_Dist_300_LN_4_LD_20_RN_2_RD_4_1.png","img2/300/Incongruent/L/I_Dist_300_LN_7_LD_10_RN_8_RD_20_0.png","img2/300/Incongruent/L/I_Dist_300_LN_4_LD_5_RN_8_RD_16_0.png","img2/100/Congruent/L/C_Dist_100_LN_15_LD_25_RN_13_RD_26_0.png","img2/300/Congruent/L/C_Dist_300_LN_20_LD_25_RN_14_RD_28_0.png","img2/100/Incongruent/R/I_Dist_100_LN_12_LD_30_RN_2_RD_4_1.png","img2/100/Congruent/R/C_Dist_100_LN_3_LD_20_RN_4_RD_16_1.png","img2/300/Incongruent/L/I_Dist_300_LN_7_LD_10_RN_8_RD_20_0.png","img2/100/Incongruent/L/I_Dist_100_LN_6_LD_10_RN_11_RD_22_0.png","img2/200/Congruent/L/C_Dist_200_LN_12_LD_15_RN_6_RD_10_0.png","img2/200/Incongruent/R/I_Dist_200_LN_4_LD_30_RN_1_RD_3_1.png","img2/300/Congruent/L/C_Dist_300_LN_20_LD_25_RN_14_RD_28_0.png","img2/200/Congruent/L/C_Dist_200_LN_6_LD_15_RN_3_RD_15_0.png","img2/300/Incongruent/L/I_Dist_300_LN_2_LD_4_RN_6_RD_30_0.png","img2/100/Incongruent/R/I_Dist_100_LN_6_LD_12_RN_3_RD_5_1.png","img2/300/Incongruent/L/I_Dist_300_LN_1_LD_2_RN_3_RD_15_0.png","img2/300/Congruent/L/C_Dist_300_LN_4_LD_5_RN_2_RD_4_0.png","img2/200/Incongruent/L/I_Dist_200_LN_7_LD_10_RN_12_RD_24_0.png","img2/200/Incongruent/R/I_Dist_200_LN_3_LD_10_RN_1_RD_2_1.png","img2/300/Incongruent/L/I_Dist_300_LN_2_LD_4_RN_6_RD_30_0.png","img2/100/Congruent/R/C_Dist_100_LN_7_LD_14_RN_15_RD_25_1.png","img2/100/Congruent/L/C_Dist_100_LN_8_LD_16_RN_2_RD_5_0.png","img2/200/Congruent/R/C_Dist_200_LN_13_LD_26_RN_14_RD_20_1.png","img2/200/Congruent/L/C_Dist_200_LN_4_LD_10_RN_3_RD_15_0.png","img2/100/Incongruent/L/I_Dist_100_LN_6_LD_10_RN_11_RD_22_0.png"],"dist100_C":[["C_Dist_100_LN_10_LD_25_RN_3_RD_10_0.png","C_Dist_100_LN_11_LD_22_RN_4_RD_10_0.png","C_Dist_100_LN_11_LD_22_RN_6_RD_15_0.png","C_Dist_100_LN_15_LD_25_RN_13_RD_26_0.png","C_Dist_100_LN_3_LD_6_RN_2_RD_5_0.png","C_Dist_100_LN_6_LD_20_RN_5_RD_25_0.png","C_Dist_100_LN_8_LD_16_RN_2_RD_5_0.png","C_Dist_100_LN_9_LD_15_RN_8_RD_16_0.png"],["C_Dist_100_LN_1_LD_2_RN_18_RD_30_1.png","C_Dist_100_LN_1_LD_2_RN_3_RD_5_1.png","C_Dist_100_LN_12_LD_30_RN_13_RD_26_1.png","C_Dist_100_LN_2_LD_5_RN_11_RD_22_1.png","C_Dist_100_LN_2_LD_5_RN_6_RD_12_1.png","C_Dist_100_LN_3_LD_20_RN_4_RD_16_1.png","C_Dist_100_LN_4_LD_10_RN_15_RD_30_1.png","C_Dist_100_LN_4_LD_8_RN_6_RD_10_1.png","C_Dist_100_LN_6_LD_12_RN_15_RD_25_1.png","C_Dist_100_LN_7_LD_14_RN_15_RD_25_1.png","C_Dist_100_LN_7_LD_14_RN_9_RD_15_1.png"]],"dist100_I":[["I_Dist_100_LN_1_LD_2_RN_8_RD_20_0.png","I_Dist_100_LN_2_LD_4_RN_6_RD_15_0.png","I_Dist_100_LN_2_LD_4_RN_8_RD_20_0.png","I_Dist_100_LN_3_LD_5_RN_11_RD_22_0.png","I_Dist_100_LN_3_LD_5_RN_8_RD_16_0.png","I_Dist_100_LN_3_LD_6_RN_4_RD_10_0.png","I_Dist_100_LN_3_LD_9_RN_7_RD_30_0.png","I_Dist_100_LN_4_LD_8_RN_8_RD_20_0.png","I_Dist_100_LN_6_LD_10_RN_11_RD_22_0.png","I_Dist_100_LN_6_LD_10_RN_13_RD_26_0.png","I_Dist_100_LN_6_LD_10_RN_7_RD_14_0.png","I_Dist_100_LN_9_LD_10_RN_20_RD_25_0.png","I_Dist_100_LN_9_LD_15_RN_13_RD_26_0.png","I_Dist_100_LN_9_LD_15_RN_14_RD_28_0.png"],["I_Dist_100_LN_10_LD_25_RN_8_RD_16_1.png","I_Dist_100_LN_10_LD_25_RN_9_RD_18_1.png","I_Dist_100_LN_11_LD_22_RN_9_RD_15_1.png","I_Dist_100_LN_12_LD_24_RN_9_RD_15_1.png","I_Dist_100_LN_12_LD_30_RN_2_RD_4_1.png","I_Dist_100_LN_13_LD_26_RN_12_RD_20_1.png","I_Dist_100_LN_13_LD_26_RN_6_RD_10_1.png","I_Dist_100_LN_17_LD_30_RN_10_RD_15_1.png","I_Dist_100_LN_6_LD_12_RN_3_RD_5_1.png","I_Dist_100_LN_8_LD_16_RN_6_RD_10_1.png","I_Dist_100_LN_8_LD_20_RN_1_RD_2_1.png","I_Dist_100_LN_9_LD_18_RN_6_RD_10_1.png"]],"dist100_S":[["E_Dist_100_LN_2_LD_12_RN_2_RD_30_0.png","E_Dist_100_LN_6_LD_10_RN_6_RD_12_0.png"],["E_Dist_100_LN_6_LD_12_RN_6_RD_10_1.png"]],"dist200_C":[["C_Dist_200_LN_11_LD_22_RN_3_RD_10_0.png","C_Dist_200_LN_12_LD_15_RN_6_RD_10_0.png","C_Dist_200_LN_12_LD_20_RN_6_RD_15_0.png","C_Dist_200_LN_14_LD_28_RN_6_RD_20_0.png","C_Dist_200_LN_15_LD_25_RN_4_RD_10_0.png","C_Dist_200_LN_16_LD_20_RN_12_RD_20_0.png","C_Dist_200_LN_16_LD_30_RN_9_RD_27_0.png","C_Dist_200_LN_20_LD_25_RN_9_RD_15_0.png","C_Dist_200_LN_21_LD_30_RN_2_RD_4_0.png","C_Dist_200_LN_4_LD_10_RN_3_RD_15_0.png","C_Dist_200_LN_4_LD_8_RN_3_RD_10_0.png","C_Dist_200_LN_6_LD_15_RN_3_RD_15_0.png","C_Dist_200_LN_7_LD_21_RN_2_RD_15_0.png","C_Dist_200_LN_8_LD_15_RN_2_RD_6_0.png","C_Dist_200_LN_8_LD_15_RN_3_RD_9_0.png","C_Dist_200_LN_8_LD_15_RN_7_RD_21_0.png","C_Dist_200_LN_9_LD_20_RN_4_RD_16_0.png"],["C_Dist_200_LN_1_LD_2_RN_21_RD_30_1.png","C_Dist_200_LN_13_LD_26_RN_14_RD_20_1.png","C_Dist_200_LN_3_LD_10_RN_11_RD_22_1.png","C_Dist_200_LN_3_LD_10_RN_14_RD_28_1.png","C_Dist_200_LN_3_LD_10_RN_7_RD_14_1.png","C_Dist_200_LN_3_LD_12_RN_9_RD_20_1.png","C_Dist_200_LN_3_LD_6_RN_14_RD_20_1.png","C_Dist_200_LN_5_LD_10_RN_14_RD_20_1.png","C_Dist_200_LN_6_LD_12_RN_7_RD_10_1.png","C_Dist_200_LN_6_LD_20_RN_11_RD_22_1.png","C_Dist_200_LN_7_LD_15_RN_18_RD_27_1.png","C_Dist_200_LN_9_LD_30_RN_13_RD_26_1.png"]],"dist200_I":[["I_Dist_200_LN_1_LD_2_RN_3_RD_10_0.png","I_Dist_200_LN_1_LD_3_RN_2_RD_15_0.png","I_Dist_200_LN_3_LD_4_RN_11_RD_20_0.png","I_Dist_200_LN_4_LD_5_RN_6_RD_10_0.png","I_Dist_200_LN_4_LD_6_RN_14_RD_30_0.png","I_Dist_200_LN_7_LD_10_RN_12_RD_24_0.png","I_Dist_200_LN_7_LD_10_RN_14_RD_28_0.png","I_Dist_200_LN_7_LD_10_RN_8_RD_16_0.png"],["I_Dist_200_LN_11_LD_20_RN_3_RD_4_1.png","I_Dist_200_LN_14_LD_30_RN_12_RD_18_1.png","I_Dist_200_LN_14_LD_30_RN_6_RD_9_1.png","I_Dist_200_LN_3_LD_10_RN_1_RD_2_1.png","I_Dist_200_LN_4_LD_30_RN_1_RD_3_1.png","I_Dist_200_LN_6_LD_20_RN_3_RD_6_1.png","I_Dist_200_LN_7_LD_15_RN_4_RD_6_1.png","I_Dist_200_LN_7_LD_15_RN_6_RD_9_1.png","I_Dist_200_LN_9_LD_15_RN_8_RD_10_1.png"]],"dist200_S":[["E_Dist_200_LN_3_LD_6_RN_3_RD_10_0.png"],["E_Dist_200_LN_3_LD_10_RN_3_RD_6_1.png"]],"dist300_C":[["C_Dist_300_LN_11_LD_22_RN_1_RD_5_0.png","C_Dist_300_LN_11_LD_22_RN_2_RD_10_0.png","C_Dist_300_LN_11_LD_22_RN_4_RD_20_0.png","C_Dist_300_LN_12_LD_24_RN_2_RD_10_0.png","C_Dist_300_LN_18_LD_20_RN_9_RD_15_0.png","C_Dist_300_LN_20_LD_25_RN_13_RD_26_0.png","C_Dist_300_LN_20_LD_25_RN_14_RD_28_0.png","C_Dist_300_LN_20_LD_25_RN_5_RD_10_0.png","C_Dist_300_LN_20_LD_25_RN_8_RD_16_0.png","C_Dist_300_LN_20_LD_25_RN_9_RD_18_0.png","C_Dist_300_LN_24_LD_30_RN_2_RD_4_0.png","C_Dist_300_LN_24_LD_30_RN_8_RD_16_0.png","C_Dist_300_LN_3_LD_6_RN_2_RD_10_0.png","C_Dist_300_LN_4_LD_10_RN_1_RD_10_0.png","C_Dist_300_LN_4_LD_5_RN_2_RD_4_0.png","C_Dist_300_LN_8_LD_16_RN_1_RD_5_0.png","C_Dist_300_LN_9_LD_10_RN_3_RD_5_0.png"],["C_Dist_300_LN_1_LD_20_RN_7_RD_20_1.png","C_Dist_300_LN_1_LD_3_RN_19_RD_30_1.png","C_Dist_300_LN_1_LD_30_RN_8_RD_24_1.png","C_Dist_300_LN_1_LD_5_RN_11_RD_22_1.png","C_Dist_300_LN_1_LD_5_RN_3_RD_6_1.png","C_Dist_300_LN_1_LD_5_RN_6_RD_12_1.png","C_Dist_300_LN_2_LD_10_RN_12_RD_24_1.png","C_Dist_300_LN_2_LD_20_RN_10_RD_25_1.png","C_Dist_300_LN_3_LD_12_RN_11_RD_20_1.png","C_Dist_300_LN_3_LD_6_RN_4_RD_5_1.png","C_Dist_300_LN_4_LD_20_RN_13_RD_26_1.png","C_Dist_300_LN_5_LD_25_RN_6_RD_12_1.png","C_Dist_300_LN_5_LD_25_RN_7_RD_14_1.png","C_Dist_300_LN_7_LD_14_RN_20_RD_25_1.png","C_Dist_300_LN_8_LD_15_RN_10_RD_12_1.png"]],"dist300_I":[["I_Dist_300_LN_1_LD_2_RN_2_RD_10_0.png","I_Dist_300_LN_1_LD_2_RN_3_RD_15_0.png","I_Dist_300_LN_2_LD_4_RN_6_RD_30_0.png","I_Dist_300_LN_3_LD_6_RN_4_RD_20_0.png","I_Dist_300_LN_4_LD_5_RN_6_RD_12_0.png","I_Dist_300_LN_4_LD_5_RN_8_RD_16_0.png","I_Dist_300_LN_7_LD_10_RN_8_RD_20_0.png","I_Dist_300_LN_8_LD_10_RN_14_RD_28_0.png","I_Dist_300_LN_8_LD_10_RN_9_RD_18_0.png"],["I_Dist_300_LN_13_LD_26_RN_12_RD_15_1.png","I_Dist_300_LN_4_LD_20_RN_2_RD_4_1.png"]],"dist300_S":[["E_Dist_300_LN_9_LD_12_RN_9_RD_20_0.png"],["E_Dist_300_LN_18_LD_30_RN_18_RD_20_1.png","E_Dist_300_LN_3_LD_10_RN_3_RD_5_1.png","E_Dist_300_LN_9_LD_20_RN_9_RD_12_1.png"]],"dist500_C":[["C_Dist_500_LN_10_LD_13_RN_7_RD_26_0.png","C_Dist_500_LN_10_LD_15_RN_4_RD_24_0.png","C_Dist_500_LN_12_LD_16_RN_3_RD_12_0.png","C_Dist_500_LN_12_LD_18_RN_4_RD_24_0.png","C_Dist_500_LN_15_LD_18_RN_5_RD_15_0.png","C_Dist_500_LN_15_LD_20_RN_1_RD_4_0.png","C_Dist_500_LN_18_LD_27_RN_1_RD_6_0.png","C_Dist_500_LN_20_LD_24_RN_1_RD_3_0.png","C_Dist_500_LN_20_LD_24_RN_3_RD_9_0.png","C_Dist_500_LN_20_LD_24_RN_7_RD_21_0.png","C_Dist_500_LN_20_LD_28_RN_3_RD_14_0.png","C_Dist_500_LN_21_LD_28_RN_6_RD_24_0.png","C_Dist_500_LN_22_LD_28_RN_2_RD_7_0.png","C_Dist_500_LN_25_LD_30_RN_9_RD_27_0.png","C_Dist_500_LN_4_LD_6_RN_1_RD_6_0.png","C_Dist_500_LN_5_LD_6_RN_2_RD_6_0.png","C_Dist_500_LN_6_LD_9_RN_1_RD_6_0.png","C_Dist_500_LN_7_LD_10_RN_1_RD_5_0.png","C_Dist_500_LN_8_LD_12_RN_1_RD_6_0.png","C_Dist_500_LN_8_LD_12_RN_4_RD_24_0.png"],["C_Dist_500_LN_1_LD_4_RN_12_RD_16_1.png","C_Dist_500_LN_1_LD_4_RN_9_RD_12_1.png","C_Dist_500_LN_1_LD_9_RN_11_RD_18_1.png","C_Dist_500_LN_10_LD_24_RN_22_RD_24_1.png","C_Dist_500_LN_2_LD_12_RN_10_RD_15_1.png","C_Dist_500_LN_2_LD_12_RN_12_RD_18_1.png","C_Dist_500_LN_2_LD_12_RN_4_RD_6_1.png","C_Dist_500_LN_2_LD_24_RN_7_RD_12_1.png","C_Dist_500_LN_2_LD_5_RN_18_RD_20_1.png","C_Dist_500_LN_2_LD_5_RN_9_RD_10_1.png","C_Dist_500_LN_2_LD_8_RN_12_RD_16_1.png","C_Dist_500_LN_2_LD_8_RN_21_RD_28_1.png","C_Dist_500_LN_3_LD_10_RN_4_RD_5_1.png","C_Dist_500_LN_3_LD_12_RN_15_RD_20_1.png","C_Dist_500_LN_3_LD_30_RN_6_RD_10_1.png","C_Dist_500_LN_3_LD_8_RN_14_RD_16_1.png","C_Dist_500_LN_4_LD_16_RN_15_RD_20_1.png","C_Dist_500_LN_4_LD_24_RN_12_RD_18_1.png","C_Dist_500_LN_5_LD_14_RN_6_RD_7_1.png","C_Dist_500_LN_7_LD_21_RN_20_RD_24_1.png","C_Dist_500_LN_7_LD_28_RN_12_RD_16_1.png","C_Dist_500_LN_7_LD_28_RN_9_RD_12_1.png","C_Dist_500_LN_9_LD_27_RN_20_RD_24_1.png"]],"dist500_I":[["I_Dist_500_LN_2_LD_3_RN_4_RD_24_0.png","I_Dist_500_LN_5_LD_6_RN_6_RD_18_0.png","I_Dist_500_LN_7_LD_8_RN_9_RD_24_0.png"],["I_Dist_500_LN_7_LD_21_RN_5_RD_6_1.png"]],"dist500_S":[["E_Dist_500_LN_6_LD_8_RN_6_RD_24_0.png"],["E_Dist_500_LN_2_LD_12_RN_2_RD_3_1.png","E_Dist_500_LN_6_LD_24_RN_6_RD_8_1.png"]]}},{"start_time":1552313153210,"click_time":1552313155432,"finger_time":1552313155172,"fix_duration":1056.0053813033292,"trial":1,"RT":1962,"MT":260,"sideResp":1,"stimulus":[],"xmouse":[794,794,794,794,794,794,794,794,794,794,794,794,794,794,794,794,794,794,794,794,794,794,794,794,794,794,794,794,794,794,794,794,794,794,794,794,794,794,794,794,794,794,794,794,794,794,794,794,794,794,794,794,794,794,794,794,794,794,794,794,794,794,794,794,794,794,794,794,794,794,794,794,794,794,794,794,794,794,794,794,794,794,794,794,794,794,794,794,794,794,794,794,794,794,794,789,787,778,746,720,688,681,681,635,617,607,602,598,575,559,542,521],"ymouse":[531,531,531,531,531,531,531,531,531,531,531,531,531,531,531,531,531,531,531,531,531,531,531,531,531,531,531,531,531,531,531,531,531,531,531,531,531,531,531,531,531,531,531,531,531,531,531,531,531,531,531,531,531,531,531,531,531,531,531,531,531,531,531,531,531,531,531,531,531,531,531,531,531,531,531,531,531,531,531,531,531,531,531,529,529,529,529,529,529,529,529,529,529,529,529,528,528,515,372,264,166,144,144,90,75,67,64,64,64,68,70,75],"timestamp_mouse":[9,22,45,62,83,103,122,142,162,182,203,222,243,262,283,302,322,343,363,383,403,422,442,463,483,503,523,542,562,582,602,623,643,662,682,702,723,741,762,783,802,822,842,862,883,902,922,942,962,982,1002,1022,1042,1063,1083,1103,1122,1142,1162,1183,1202,1222,1242,1262,1282,1302,1323,1343,1362,1383,1403,1423,1443,1462,1482,1501,1521,1543,1562,1583,1602,1622,1643,1662,1683,1702,1722,1743,1761,1783,1802,1822,1843,1862,1883,1901,1923,1943,1962,1983,2002,2022,2043,2062,2084,2102,2122,2142,2162,2182,2203,2221],"xSR":741.5,"ySR":469.95,"xT1":424.9,"yT1":0,"xT2":1058.1,"yT2":0,"toosoon":0,"cond_shown":"Congruent","ratio_trial":300,"L_num":3,"L_den":6,"R_num":2,"R_den":10,"correct_side":1,"subjID":"sararodriguiez34","gender":"1","school":"4","age":"9"},{"start_time":1552313158554,"click_time":1552313160592,"finger_time":1552313160192,"fix_duration":298.6808809026241,"trial":2,"RT":1638,"MT":400,"sideResp":2,"stimulus":[],"xmouse":[795,795,795,795,795,795,795,795,795,795,795,795,795,795,795,795,795,795,795,795,795,795,795,795,795,795,795,795,795,795,795,795,795,795,795,795,795,795,795,795,795,795,795,795,795,795,795,795,795,795,795,795,795,795,795,795,795,795,795,795,795,795,795,795,795,795,795,795,795,795,795,795,795,795,795,795,794,798,802,808,812,816,856,880,928,1009,1089,1153,1159,1163,1166,1169,1173,1177,1177,1177,1177,1175,1174,1172,1165,1160,1148],"ymouse":[552,552,552,552,552,552,552,552,552,552,552,552,552,552,552,552,552,552,552,552,552,552,552,552,552,552,552,552,552,552,552,552,552,552,552,552,552,552,552,552,552,552,552,552,552,552,552,552,552,552,552,552,552,552,552,552,552,552,552,552,552,552,552,552,552,552,552,552,552,552,552,552,552,552,552,552,551,547,543,538,535,531,498,477,441,384,337,287,271,251,237,219,171,143,119,104,90,83,80,77,73,71,71],"timestamp_mouse":[1,19,38,59,79,99,119,139,158,179,198,219,239,259,278,299,318,339,359,379,399,419,438,458,478,499,519,539,559,579,598,618,639,658,679,699,719,738,757,779,798,819,838,857,879,899,918,937,958,979,998,1019,1038,1058,1079,1099,1118,1138,1157,1177,1198,1218,1239,1258,1278,1299,1318,1339,1358,1379,1398,1418,1439,1458,1479,1498,1518,1539,1559,1579,1598,1618,1638,1659,1678,1698,1719,1737,1758,1779,1799,1818,1838,1858,1878,1898,1918,1938,1959,1978,1997,2019,2038],"xSR":741.5,"ySR":469.95,"xT1":424.9,"yT1":0,"xT2":1058.1,"yT2":0,"toosoon":0,"cond_shown":"Incongruent","ratio_trial":300,"L_num":4,"L_den":20,"R_num":2,"R_den":4,"correct_side":2,"subjID":"sararodriguiez34","gender":"1","school":"4","age":"9"},{"start_time":1552313162424,"click_time":1552313164093,"finger_time":1552313163752,"fix_duration":451.6729927117747,"trial":3,"RT":1328,"MT":341,"sideResp":2,"stimulus":[],"xmouse":[797,797,797,797,797,797,797,797,797,797,797,797,797,797,797,797,797,797,797,797,797,797,797,797,797,797,797,797,797,797,797,797,797,797,797,797,797,797,797,797,797,797,797,797,797,797,797,797,797,797,797,797,797,797,797,797,797,797,797,797,797,797,797,803,815,828,844,880,963,1001,1035,1067,1101,1189,1232,1254,1270,1274,1274,1274,1273,1258,1233,1152],"ymouse":[553,553,553,553,553,553,553,553,553,553,553,553,553,553,553,553,553,553,553,553,553,553,553,553,553,553,553,553,553,553,553,553,553,553,553,553,553,553,553,553,553,553,553,553,553,553,553,553,553,553,553,553,553,553,553,553,553,553,553,553,553,553,553,551,544,537,526,500,440,405,371,336,298,196,136,94,54,26,11,9,9,9,9,9],"timestamp_mouse":[11,37,49,69,89,109,128,148,169,188,209,229,247,268,289,310,329,349,368,390,409,428,449,468,488,509,528,549,568,587,608,628,649,668,688,707,729,749,768,788,807,828,847,868,887,909,929,949,968,988,1008,1028,1048,1068,1088,1109,1128,1148,1168,1188,1208,1228,1248,1268,1288,1309,1328,1348,1368,1388,1408,1428,1447,1468,1488,1508,1529,1549,1568,1588,1609,1628,1649,1668],"xSR":741.5,"ySR":469.95,"xT1":424.9,"yT1":0,"xT2":1058.1,"yT2":0,"toosoon":0,"cond_shown":"Congruent","ratio_trial":300,"L_num":1,"L_den":30,"R_num":8,"R_den":24,"correct_side":2,"subjID":"sararodriguiez34","gender":"1","school":"4","age":"9"},{"start_time":1552313166341,"click_time":1552313167994,"finger_time":1552313167732,"fix_duration":366.66302487594635,"trial":4,"RT":1391,"MT":262,"sideResp":1,"stimulus":[],"xmouse":[776,776,776,776,776,776,776,776,776,776,776,776,776,776,776,776,776,776,776,776,776,776,776,776,776,776,776,776,776,776,776,776,776,776,776,776,776,776,776,776,776,776,776,776,776,776,776,776,776,776,776,776,776,776,776,776,776,776,776,776,776,776,776,776,776,776,775,772,757,733,713,699,683,626,596,576,562,552,535,528,521,516,507],"ymouse":[535,535,535,535,535,535,535,535,535,535,535,535,535,535,535,535,535,535,535,535,535,535,535,535,535,535,535,535,535,535,535,535,535,535,535,535,535,535,535,535,535,535,535,535,535,535,535,535,535,535,535,535,535,535,535,535,535,535,535,535,535,535,535,535,535,535,535,531,506,472,439,415,391,306,267,241,220,200,161,148,132,117,68],"timestamp_mouse":[11,44,52,71,92,111,132,151,170,191,212,231,251,271,292,311,331,352,372,392,412,432,452,472,492,512,531,552,570,590,611,631,651,671,690,711,731,751,772,791,812,832,851,872,891,912,932,951,972,992,1011,1031,1050,1072,1091,1112,1131,1151,1172,1192,1212,1232,1251,1271,1292,1311,1332,1352,1372,1391,1410,1431,1451,1471,1491,1511,1531,1550,1571,1591,1611,1632,1653],"xSR":741.5,"ySR":469.95,"xT1":424.9,"yT1":0,"xT2":1058.1,"yT2":0,"toosoon":0,"cond_shown":"Congruent","ratio_trial":300,"L_num":20,"L_den":25,"R_num":13,"R_den":26,"correct_side":1,"subjID":"sararodriguiez34","gender":"1","school":"4","age":"9"},{"start_time":1552313170376,"click_time":1552313172152,"finger_time":1552313171812,"fix_duration":1022.6254218756249,"trial":5,"RT":1436,"MT":340,"sideResp":1,"stimulus":[],"xmouse":[818,818,818,818,818,818,818,818,818,818,818,818,818,818,818,818,818,818,818,818,818,818,818,818,818,818,818,818,818,818,818,818,818,818,818,818,818,818,818,818,818,818,818,818,818,818,818,818,818,818,818,818,818,818,818,818,818,818,818,818,818,818,818,818,818,818,818,818,818,818,806,774,741,695,643,595,544,530,515,497,482,464,460,458,455,454,453,453,452],"ymouse":[493,493,493,493,494,495,495,495,495,495,495,495,495,495,495,495,495,495,495,495,495,495,495,495,495,495,495,495,495,495,495,495,495,495,495,495,495,495,495,495,495,495,495,495,495,495,495,495,495,495,495,495,495,495,495,495,495,495,495,495,495,495,495,495,495,495,495,495,495,495,487,457,426,385,335,278,218,210,200,189,181,169,164,160,149,145,114,101,91],"timestamp_mouse":[17,39,56,76,96,116,136,157,176,195,216,236,256,277,296,316,337,357,376,397,416,436,457,476,496,515,536,556,576,596,616,636,657,676,697,716,735,757,777,797,816,836,856,877,897,917,935,956,977,997,1017,1036,1057,1077,1097,1116,1135,1156,1176,1196,1217,1236,1257,1277,1296,1317,1335,1356,1377,1397,1417,1436,1456,1477,1497,1516,1536,1556,1575,1596,1617,1636,1657,1677,1696,1717,1737,1755,1776],"xSR":741.5,"ySR":469.95,"xT1":424.9,"yT1":0,"xT2":1058.1,"yT2":0,"toosoon":0,"cond_shown":"Incongruent","ratio_trial":200,"L_num":3,"L_den":10,"R_num":1,"R_den":2,"correct_side":2,"subjID":"sararodriguiez34","gender":"1","school":"4","age":"9"},{"start_time":1552313179640,"click_time":1552313180633,"finger_time":1552313180531,"fix_duration":307.68151005624867,"trial":6,"RT":891,"MT":102,"sideResp":2,"stimulus":[],"xmouse":[754,754,754,754,754,754,754,754,754,754,754,754,754,754,754,754,754,754,754,754,754,754,754,754,754,754,754,754,754,754,754,754,754,754,754,754,754,754,754,756,761,769,781,802,874,922,979,1050,1075,1153],"ymouse":[538,538,538,538,538,538,538,538,538,538,538,538,538,538,538,538,538,538,538,538,538,538,538,538,538,538,538,538,538,538,538,538,538,538,538,538,538,538,538,534,529,519,505,482,398,348,297,217,184,65],"timestamp_mouse":[13,42,52,72,92,112,131,152,173,192,213,233,251,272,292,313,332,353,373,392,413,431,452,473,491,512,532,552,573,591,612,632,652,672,692,713,733,753,773,792,812,833,852,871,891,913,932,952,972,993],"xSR":741.5,"ySR":469.95,"xT1":424.9,"yT1":0,"xT2":1058.1,"yT2":0,"toosoon":0,"cond_shown":"Incongruent","ratio_trial":300,"L_num":13,"L_den":26,"R_num":12,"R_den":15,"correct_side":2,"subjID":"sararodriguiez34","gender":"1","school":"4","age":"9"},{"start_time":1552313185114,"click_time":1552313186473,"finger_time":1552313186054,"fix_duration":758.6680419720738,"trial":7,"RT":940,"MT":419,"sideResp":2,"stimulus":[],"xmouse":[781,781,781,781,781,781,781,781,781,781,781,781,781,781,781,781,781,781,781,781,781,781,781,781,781,781,781,781,781,781,781,781,781,781,781,781,781,781,781,781,781,781,781,781,781,780,780,785,788,793,799,807,831,844,857,870,883,923,941,946,950,952,975,992,1011,1028,1046,1072,1078],"ymouse":[522,522,522,522,522,522,522,522,522,522,522,522,522,522,522,522,522,522,522,522,522,522,522,522,522,522,522,522,522,522,522,522,522,522,522,522,522,522,522,522,522,522,522,522,521,507,485,428,398,371,343,316,258,236,217,201,185,151,142,139,137,136,128,123,119,117,112,101,97],"timestamp_mouse":[1,19,39,59,79,98,118,140,159,178,199,220,239,259,279,299,319,338,360,380,398,419,439,460,480,499,519,539,558,580,598,619,640,658,679,698,719,740,760,779,798,820,838,860,878,899,918,940,958,979,999,1018,1038,1058,1078,1099,1119,1139,1158,1178,1199,1218,1238,1259,1278,1299,1319,1338,1358],"xSR":741.5,"ySR":469.95,"xT1":424.9,"yT1":0,"xT2":1058.1,"yT2":0,"toosoon":0,"cond_shown":"Congruent","ratio_trial":100,"L_num":4,"L_den":10,"R_num":15,"R_den":30,"correct_side":2,"subjID":"sararodriguiez34","gender":"1","school":"4","age":"9"},{"start_time":1552313189442,"click_time":1552313191094,"finger_time":1552313190792,"fix_duration":1387.4940136814039,"trial":8,"RT":1350,"MT":302,"sideResp":1,"stimulus":[],"xmouse":[794,794,794,794,794,794,794,794,794,794,794,794,794,794,794,794,794,794,794,794,794,794,794,794,794,794,794,794,794,794,794,794,794,794,794,794,794,794,794,794,794,794,794,794,794,794,794,794,794,794,794,794,794,794,794,794,794,794,794,794,794,794,794,794,790,772,755,732,708,685,648,631,618,599,594,554,535,518,502,489,475,469,463],"ymouse":[533,533,533,533,533,533,533,533,533,533,533,533,533,533,533,533,533,533,533,533,533,533,533,533,533,533,533,533,533,533,533,533,533,533,533,533,533,533,533,533,533,533,533,533,533,533,533,533,533,533,533,533,533,533,533,533,533,533,533,533,533,533,533,533,532,519,508,493,479,463,430,413,393,362,351,263,226,199,178,159,124,107,92],"timestamp_mouse":[17,30,50,71,92,111,132,151,171,190,210,232,252,272,291,311,331,351,370,390,411,432,452,471,492,511,530,551,572,590,610,630,650,671,692,711,730,751,772,792,811,831,851,871,890,910,931,951,970,992,1011,1031,1051,1070,1092,1111,1131,1151,1171,1191,1211,1231,1250,1271,1292,1311,1331,1350,1371,1391,1410,1430,1450,1470,1491,1511,1531,1552,1570,1591,1611,1630,1652],"xSR":741.5,"ySR":469.95,"xT1":424.9,"yT1":0,"xT2":1058.1,"yT2":0,"toosoon":0,"cond_shown":"Congruent","ratio_trial":100,"L_num":1,"L_den":2,"R_num":3,"R_den":5,"correct_side":2,"subjID":"sararodriguiez34","gender":"1","school":"4","age":"9"},{"start_time":1552313193988,"click_time":1552313195792,"finger_time":1552313195552,"fix_duration":614.0341797079573,"trial":9,"RT":1564,"MT":240,"sideResp":1,"stimulus":[],"xmouse":[799,799,799,799,799,799,799,799,799,799,799,799,799,799,799,799,798,798,798,798,798,798,798,798,798,798,798,798,798,798,798,798,798,798,798,798,798,798,798,798,798,798,798,798,798,798,798,798,798,798,798,798,798,798,798,798,798,798,798,798,798,798,798,798,798,798,798,798,798,798,798,798,798,798,798,797,796,788,778,738,698,664,640,623,600,591,581,567,552,525,522],"ymouse":[514,514,514,514,514,514,514,514,514,514,514,514,514,514,514,514,514,514,514,514,514,514,514,514,514,514,514,514,514,514,514,514,514,514,514,514,514,514,514,514,514,514,514,514,514,514,514,514,514,514,514,514,514,514,514,514,514,514,514,514,514,514,514,514,514,514,514,514,514,514,514,514,514,514,514,513,504,489,467,396,338,291,256,234,204,194,179,160,138,101,95],"timestamp_mouse":[22,30,51,64,85,104,124,147,165,185,206,226,246,266,285,304,324,344,365,385,404,425,445,465,484,506,525,544,566,584,604,625,646,665,685,706,726,745,764,785,806,825,844,864,885,906,925,945,966,984,1005,1025,1045,1064,1085,1104,1124,1144,1165,1185,1205,1224,1244,1264,1284,1306,1325,1344,1364,1384,1404,1426,1445,1465,1485,1505,1525,1545,1564,1584,1605,1624,1645,1664,1684,1704,1724,1744,1764,1785,1804],"xSR":741.5,"ySR":469.95,"xT1":424.9,"yT1":0,"xT2":1058.1,"yT2":0,"toosoon":0,"cond_shown":"Incongruent","ratio_trial":200,"L_num":4,"L_den":30,"R_num":1,"R_den":3,"correct_side":2,"subjID":"sararodriguiez34","gender":"1","school":"4","age":"9"},{"start_time":1552313198676,"click_time":1552313200174,"finger_time":1552313199893,"fix_duration":1403.730586815205,"trial":10,"RT":1217,"MT":281,"sideResp":2,"stimulus":[],"xmouse":[801,801,801,801,801,801,801,801,801,801,801,801,801,801,801,801,801,801,801,801,801,801,801,801,801,801,801,801,801,801,801,801,801,801,801,801,801,801,801,801,801,801,801,801,801,801,801,801,801,801,801,801,802,806,813,816,820,827,832,841,846,850,855,859,874,883,897,914,955,1038,1069,1089,1102,1110,1120],"ymouse":[504,504,504,504,504,504,504,504,504,504,504,504,504,504,504,504,504,504,504,504,504,504,504,504,504,504,504,504,504,504,504,504,504,504,504,504,504,504,504,504,504,504,504,504,504,504,504,504,504,504,504,504,504,504,501,500,497,491,488,479,474,469,462,455,433,419,399,378,321,220,182,152,127,106,67],"timestamp_mouse":[16,41,57,77,97,117,136,156,176,196,218,236,257,276,296,318,336,357,377,397,418,436,456,476,496,518,538,557,577,596,618,638,657,676,696,718,737,758,776,797,816,836,857,878,896,918,937,956,977,997,1017,1037,1057,1077,1097,1117,1136,1157,1176,1197,1217,1237,1258,1277,1298,1316,1336,1357,1377,1397,1416,1437,1456,1477,1497],"xSR":741.5,"ySR":469.95,"xT1":424.9,"yT1":0,"xT2":1058.1,"yT2":0,"toosoon":0,"cond_shown":"Congruent","ratio_trial":100,"L_num":11,"L_den":22,"R_num":4,"R_den":10,"correct_side":1,"subjID":"sararodriguiez34","gender":"1","school":"4","age":"9"},{"start_time":1552313205026,"click_time":1552313207793,"finger_time":1552313206892,"fix_duration":811.065995795244,"trial":11,"RT":1866,"MT":901,"sideResp":2,"stimulus":[],"xmouse":[751,751,751,751,751,751,751,751,751,751,751,751,751,751,751,751,751,751,751,751,751,751,751,751,751,751,751,751,751,751,751,751,751,751,751,751,752,752,752,752,752,752,752,752,753,753,753,753,753,753,753,753,753,753,753,753,753,754,754,754,754,754,754,754,754,754,754,754,754,754,754,755,755,755,756,756,756,756,759,762,764,767,769,772,774,776,778,779,783,786,789,792,798,812,823,833,841,846,855,858,862,867,873,888,896,904,911,924,947,961,976,990,1003,1026,1034,1039,1043,1047,1051,1051,1053,1054,1055,1055,1056,1056,1057,1057,1057,1057,1057,1057,1057,1057,1057,1058,1058,1058,1059],"ymouse":[542,542,542,542,542,542,542,542,542,542,542,542,542,542,542,542,542,542,542,542,542,542,542,542,542,542,542,542,542,542,542,542,542,542,542,542,541,541,540,540,540,540,539,539,538,538,538,538,538,538,538,538,538,538,538,538,538,537,536,536,536,536,536,536,536,536,536,535,535,535,535,535,535,534,533,533,532,531,526,524,520,516,514,511,507,505,500,499,491,487,482,478,470,452,436,420,406,395,373,366,359,349,341,317,306,294,283,260,226,204,184,163,143,106,92,82,77,71,67,66,65,63,63,63,62,62,62,62,62,62,62,62,61,61,61,61,61,61,60],"timestamp_mouse":[11,34,48,67,86,107,128,146,166,187,208,227,247,266,286,307,327,347,366,387,408,428,446,467,487,507,528,547,566,587,607,628,646,666,687,708,727,747,766,787,808,827,847,866,888,908,927,947,966,988,1006,1027,1047,1067,1088,1107,1127,1146,1167,1187,1207,1227,1247,1266,1286,1308,1326,1347,1367,1387,1408,1427,1446,1466,1487,1508,1527,1547,1567,1587,1607,1626,1646,1667,1687,1707,1726,1746,1766,1787,1807,1827,1848,1866,1886,1908,1926,1946,1967,1986,2006,2027,2047,2067,2086,2107,2127,2147,2167,2188,2207,2226,2247,2267,2287,2307,2326,2347,2367,2386,2407,2426,2447,2466,2486,2507,2527,2546,2566,2586,2606,2626,2646,2668,2688,2707,2727,2746,2767],"xSR":741.5,"ySR":469.95,"xT1":424.9,"yT1":0,"xT2":1058.1,"yT2":0,"toosoon":0,"cond_shown":"Congruent","ratio_trial":100,"L_num":2,"L_den":5,"R_num":6,"R_den":12,"correct_side":2,"subjID":"sararodriguiez34","gender":"1","school":"4","age":"9"},{"start_time":1552313210463,"click_time":1552313212713,"finger_time":1552313211533,"fix_duration":409.6651197434787,"trial":12,"RT":1070,"MT":1180,"sideResp":1,"stimulus":[],"xmouse":[765,765,765,765,765,765,765,765,765,765,765,765,765,765,765,765,765,765,765,765,765,765,765,765,765,765,765,765,765,765,765,765,765,765,765,765,765,765,765,765,766,766,766,766,766,766,766,766,766,766,764,757,755,749,745,744,743,743,743,741,740,739,737,737,734,732,728,717,712,707,702,700,696,694,691,686,681,668,661,657,652,648,638,630,623,616,611,604,601,598,594,591,582,576,570,567,565,561,558,555,550,546,541,538,537,536,536,534,532,530,529,527,524],"ymouse":[492,492,492,492,492,492,492,492,492,492,492,492,492,492,492,492,492,492,492,492,492,492,492,492,492,492,492,492,492,492,492,492,492,492,492,492,492,492,492,492,491,488,486,486,484,483,483,483,483,482,481,473,471,463,457,456,454,449,443,436,429,423,421,417,414,410,406,393,387,381,374,371,361,355,345,334,323,299,287,278,269,261,245,232,220,209,201,189,186,180,175,169,155,144,136,132,129,120,113,104,96,88,81,77,76,76,75,75,75,75,75,75,75],"timestamp_mouse":[12,36,50,69,90,110,129,149,170,190,211,230,249,271,290,310,331,351,371,390,409,429,449,471,489,510,531,549,570,590,611,630,649,669,690,710,729,751,771,790,810,831,850,869,889,910,931,950,969,990,1010,1031,1050,1070,1089,1110,1131,1149,1169,1189,1210,1231,1249,1270,1289,1310,1330,1349,1369,1389,1410,1430,1449,1469,1489,1510,1530,1549,1570,1590,1610,1631,1649,1670,1691,1710,1729,1749,1770,1790,1810,1829,1849,1871,1891,1910,1930,1949,1970,1990,2010,2031,2049,2069,2090,2109,2129,2149,2169,2189,2209,2229,2250],"xSR":741.5,"ySR":469.95,"xT1":424.9,"yT1":0,"xT2":1058.1,"yT2":0,"toosoon":0,"cond_shown":"Congruent","ratio_trial":200,"L_num":12,"L_den":15,"R_num":6,"R_den":10,"correct_side":1,"subjID":"sararodriguiez34","gender":"1","school":"4","age":"9"},{"start_time":1552313215119,"click_time":1552313217134,"finger_time":1552313216434,"fix_duration":804.3718236187235,"trial":13,"RT":1315,"MT":700,"sideResp":1,"stimulus":[],"xmouse":[778,778,778,778,778,778,778,778,778,778,778,778,778,778,778,778,778,778,778,778,778,778,778,778,778,778,778,778,778,778,778,778,778,778,778,778,778,778,778,778,778,778,778,778,778,778,778,778,778,778,778,778,778,778,778,778,778,778,778,778,778,778,778,772,751,727,690,658,631,622,621,618,614,610,596,590,585,576,563,556,545,540,538,537,535,534,533,531,529,524,521,519,517,516,516,514,513,513,511,510,510],"ymouse":[507,507,507,507,507,507,507,507,507,507,507,507,507,507,507,508,508,508,508,508,508,508,508,508,508,508,508,508,508,508,508,508,508,508,508,508,508,508,508,508,508,508,508,508,508,508,508,508,508,508,508,508,508,508,508,508,508,508,508,508,508,508,508,505,492,476,448,422,397,382,376,367,358,345,321,308,298,277,248,231,205,193,187,183,179,177,174,170,167,157,151,143,138,133,131,121,116,111,105,100,98],"timestamp_mouse":[18,38,54,73,93,114,133,155,175,194,214,233,253,273,294,314,333,354,375,393,414,434,455,474,493,514,534,554,575,594,614,634,654,673,694,713,733,753,773,794,813,833,855,874,893,913,933,953,973,993,1013,1034,1054,1073,1094,1113,1135,1153,1173,1193,1215,1234,1254,1274,1293,1314,1334,1354,1374,1394,1413,1433,1454,1474,1493,1513,1534,1555,1574,1594,1613,1633,1653,1673,1693,1713,1733,1754,1774,1795,1813,1833,1854,1874,1894,1914,1933,1954,1973,1995,2014],"xSR":741.5,"ySR":469.95,"xT1":424.9,"yT1":0,"xT2":1058.1,"yT2":0,"toosoon":0,"cond_shown":"Incongruent","ratio_trial":200,"L_num":3,"L_den":10,"R_num":1,"R_den":2,"correct_side":2,"subjID":"sararodriguiez34","gender":"1","school":"4","age":"9"},{"start_time":1552313221714,"click_time":1552313222854,"finger_time":1552313222432,"fix_duration":1079.391799356687,"trial":14,"RT":718,"MT":422,"sideResp":2,"stimulus":[],"xmouse":[807,807,807,807,807,807,807,807,807,807,807,807,807,807,807,807,807,807,807,807,807,809,810,811,812,812,812,812,812,812,816,825,830,833,837,841,861,873,888,906,933,1010,1043,1070,1085,1093,1107,1109,1112,1113,1113,1113,1113,1113,1113,1113,1113,1113],"ymouse":[506,506,506,506,506,506,506,506,506,506,506,506,506,506,506,506,506,506,506,506,506,506,505,504,503,503,503,503,503,503,502,499,497,497,495,494,484,477,469,456,431,355,311,272,247,228,195,187,180,171,162,140,134,129,124,116,100,94],"timestamp_mouse":[1,20,41,59,79,98,119,139,160,179,199,218,239,259,280,300,318,338,358,378,399,420,439,459,480,498,518,540,558,580,599,618,638,659,680,698,718,738,758,779,799,819,839,858,878,899,918,940,959,979,999,1019,1038,1058,1079,1099,1119,1139],"xSR":741.5,"ySR":469.95,"xT1":424.9,"yT1":0,"xT2":1058.1,"yT2":0,"toosoon":0,"cond_shown":"Congruent","ratio_trial":200,"L_num":20,"L_den":25,"R_num":9,"R_den":15,"correct_side":1,"subjID":"sararodriguiez34","gender":"1","school":"4","age":"9"},{"start_time":1552313224406,"click_time":1552313226193,"finger_time":1552313225673,"fix_duration":250,"trial":15,"RT":1267,"MT":520,"sideResp":2,"stimulus":[],"xmouse":[775,775,775,775,775,775,775,775,775,775,775,776,776,776,776,776,776,776,776,776,776,776,776,776,776,776,776,776,776,776,776,776,776,776,776,776,776,776,776,776,776,776,776,776,776,776,776,767,764,758,757,757,757,757,757,757,760,772,784,797,801,808,813,818,827,835,849,857,874,888,902,924,930,937,943,949,974,987,1001,1005,1011,1017,1017,1018,1022,1028,1042,1048,1056,1060],"ymouse":[518,518,518,518,518,518,518,518,518,516,514,509,509,509,509,509,509,509,509,509,509,509,509,509,509,509,509,509,509,509,509,509,509,509,509,509,509,509,509,509,509,509,509,509,509,509,509,505,503,500,500,500,500,500,500,500,499,497,495,491,489,484,477,468,451,435,403,388,364,348,330,306,296,285,277,267,232,214,193,187,173,162,160,158,149,128,97,85,70,64],"timestamp_mouse":[13,40,47,68,86,106,126,147,168,187,208,226,247,268,288,307,326,346,367,387,408,427,447,466,487,508,526,546,568,587,606,626,647,668,687,706,726,747,768,787,806,827,846,867,887,907,926,947,967,987,1006,1027,1046,1067,1086,1107,1127,1147,1167,1187,1207,1226,1247,1267,1287,1307,1327,1346,1367,1386,1406,1426,1446,1467,1487,1507,1528,1546,1567,1587,1607,1627,1646,1666,1686,1706,1728,1746,1768,1786],"xSR":741.5,"ySR":469.95,"xT1":424.9,"yT1":0,"xT2":1058.1,"yT2":0,"toosoon":0,"cond_shown":"Incongruent","ratio_trial":200,"L_num":4,"L_den":5,"R_num":6,"R_den":10,"correct_side":1,"subjID":"sararodriguiez34","gender":"1","school":"4","age":"9"},{"start_time":1552313228085,"click_time":1552313230353,"finger_time":1552313229913,"fix_duration":250,"trial":16,"RT":1828,"MT":440,"sideResp":2,"stimulus":[],"xmouse":[791,791,791,791,791,791,791,791,791,791,791,791,791,791,791,791,791,791,791,791,791,791,791,791,791,791,791,791,791,791,791,791,791,791,791,791,791,791,791,791,791,791,791,791,791,791,791,791,791,791,791,791,791,791,791,791,791,791,791,791,791,791,791,791,791,791,791,791,791,791,791,791,791,791,791,791,791,791,791,791,791,791,791,790,790,789,789,790,792,795,802,813,830,884,892,897,900,905,909,912,914,916,919,931,939,950,968,988,1024,1038,1045,1051,1056,1068],"ymouse":[531,531,531,531,531,531,531,531,531,531,531,531,531,531,531,531,531,531,531,531,531,531,531,531,531,531,531,531,531,531,531,531,531,531,531,531,531,531,531,531,531,531,531,531,531,531,531,531,531,531,531,531,531,531,531,531,531,531,531,531,531,531,531,531,531,531,531,531,531,531,531,531,531,531,531,531,531,531,531,531,531,531,531,531,531,531,530,527,519,511,494,465,410,225,186,154,131,114,97,93,91,88,85,82,80,80,80,83,90,92,92,92,92,89],"timestamp_mouse":[9,44,49,68,88,109,129,148,168,188,208,227,249,268,288,307,327,348,367,387,409,428,447,467,489,507,528,549,567,589,608,627,647,669,688,708,727,748,768,787,808,827,848,868,889,908,927,948,967,987,1008,1028,1048,1069,1089,1108,1129,1148,1167,1188,1208,1227,1248,1268,1288,1308,1327,1349,1368,1389,1407,1427,1448,1469,1487,1509,1528,1548,1567,1588,1607,1629,1648,1668,1688,1708,1727,1747,1767,1788,1808,1828,1847,1868,1888,1907,1928,1948,1967,1987,2008,2027,2048,2067,2087,2107,2128,2147,2167,2188,2208,2229,2249,2268],"xSR":741.5,"ySR":469.95,"xT1":424.9,"yT1":0,"xT2":1058.1,"yT2":0,"toosoon":0,"cond_shown":"Incongruent","ratio_trial":200,"L_num":14,"L_den":30,"R_num":12,"R_den":18,"correct_side":2,"subjID":"sararodriguiez34","gender":"1","school":"4","age":"9"},{"start_time":1552313233267,"click_time":1552313235032,"finger_time":1552313234614,"fix_duration":1032.595846789161,"trial":17,"RT":1347,"MT":418,"sideResp":1,"stimulus":[],"xmouse":[816,816,816,816,816,816,816,816,816,816,816,816,816,816,816,816,816,816,816,816,816,816,816,816,816,816,816,816,816,816,816,816,816,816,816,816,816,816,816,816,816,816,816,816,816,816,816,816,816,816,816,816,816,816,816,816,816,816,816,816,816,816,816,816,816,811,805,799,794,791,785,777,775,771,766,766,765,765,765,765,764,760,751,736,649,580,527,508,499],"ymouse":[505,505,505,505,505,505,505,505,505,505,505,505,505,505,505,505,505,505,505,505,505,505,505,505,505,505,505,505,505,505,505,505,505,505,505,505,505,505,505,505,505,505,505,505,505,505,505,505,505,505,505,505,505,505,505,505,505,505,505,505,505,505,505,505,503,489,477,467,460,454,442,427,420,412,400,399,398,397,396,396,392,387,369,346,239,172,125,107,97],"timestamp_mouse":[22,50,51,66,86,106,126,146,166,185,206,226,246,265,285,306,325,346,366,386,406,425,447,465,485,506,526,547,566,585,605,626,646,667,685,705,726,747,766,786,805,826,846,867,886,906,926,947,966,985,1005,1026,1045,1065,1086,1106,1126,1145,1165,1185,1206,1227,1246,1265,1286,1306,1326,1347,1366,1386,1405,1425,1445,1465,1487,1505,1526,1546,1566,1587,1605,1626,1647,1666,1687,1705,1726,1747,1765],"xSR":741.5,"ySR":469.95,"xT1":424.9,"yT1":0,"xT2":1058.1,"yT2":0,"toosoon":0,"cond_shown":"Congruent","ratio_trial":300,"L_num":20,"L_den":25,"R_num":8,"R_den":16,"correct_side":1,"subjID":"sararodriguiez34","gender":"1","school":"4","age":"9"},{"start_time":1552313239079,"click_time":1552313240912,"finger_time":1552313240494,"fix_duration":765.1596478576034,"trial":18,"RT":1415,"MT":418,"sideResp":1,"stimulus":[],"xmouse":[800,800,800,800,800,800,800,800,800,800,800,800,800,800,800,800,800,800,800,800,800,800,800,800,800,800,800,800,800,800,800,800,800,800,800,800,800,800,800,800,800,800,800,800,800,800,800,800,800,800,800,800,800,800,800,800,800,800,800,800,800,800,800,800,800,800,800,800,800,784,750,703,646,583,477,437,405,373,373,373,373,373,373,373,373,373,373,373,373,405,414,425],"ymouse":[519,519,519,519,519,519,519,519,519,519,519,519,519,519,519,519,519,519,519,519,519,519,519,519,519,519,519,519,519,519,519,519,519,519,519,519,519,519,519,519,519,519,519,519,519,519,519,519,519,519,519,519,519,519,519,519,519,519,519,519,519,519,519,519,519,519,519,519,519,497,448,394,332,268,161,103,57,3,3,3,3,3,3,3,3,3,3,3,3,12,29,56],"timestamp_mouse":[14,43,55,74,95,114,133,153,174,194,214,234,254,274,293,315,333,353,374,393,413,433,453,475,493,514,533,554,574,593,614,633,655,673,693,714,734,755,774,793,814,833,853,875,893,914,934,954,973,993,1013,1034,1053,1074,1095,1113,1135,1155,1174,1193,1215,1234,1255,1274,1293,1314,1334,1353,1374,1394,1415,1433,1454,1473,1493,1513,1533,1553,1573,1593,1613,1633,1654,1674,1694,1713,1734,1753,1773,1795,1814,1833],"xSR":741.5,"ySR":469.95,"xT1":424.9,"yT1":0,"xT2":1058.1,"yT2":0,"toosoon":0,"cond_shown":"Incongruent","ratio_trial":100,"L_num":9,"L_den":15,"R_num":13,"R_den":26,"correct_side":1,"subjID":"sararodriguiez34","gender":"1","school":"4","age":"9"},{"start_time":1552313242824,"click_time":1552313245014,"finger_time":1552313243633,"fix_duration":250,"trial":19,"RT":809,"MT":1381,"sideResp":2,"stimulus":[],"xmouse":[751,751,751,751,751,751,751,751,751,751,751,751,751,751,751,751,751,751,751,751,751,751,751,751,751,751,751,751,751,751,751,751,751,751,751,751,751,751,751,750,749,749,749,748,748,748,748,748,748,748,748,748,748,749,751,751,749,739,696,647,612,575,540,483,471,466,463,460,459,459,458,458,458,458,458,458,458,464,491,522,590,652,803,883,958,1018,1060,1085,1119,1126,1126,1123,1116,1108,1108,1113,1117,1122,1123,1125,1128,1130,1135,1137,1139,1140,1140,1143,1143,1143],"ymouse":[560,560,560,560,560,560,560,560,560,560,560,560,560,560,560,560,560,560,560,560,560,560,560,560,560,560,560,560,560,560,560,560,560,560,560,560,560,562,566,568,573,577,579,582,582,582,582,583,583,583,583,583,583,582,566,549,527,505,445,389,358,329,298,238,219,206,199,191,189,188,187,187,187,187,187,186,186,191,213,237,296,346,463,511,540,550,550,540,509,469,440,414,382,324,308,290,274,249,239,226,216,206,176,162,149,142,134,117,107,95],"timestamp_mouse":[13,35,49,69,90,108,129,149,169,188,210,229,248,269,290,309,328,348,368,390,409,429,449,469,488,510,529,549,569,589,609,628,650,669,690,709,728,749,768,790,809,830,849,870,888,909,928,949,969,990,1008,1029,1048,1068,1088,1109,1128,1149,1170,1188,1209,1229,1249,1268,1288,1310,1329,1349,1369,1389,1408,1430,1449,1468,1489,1509,1528,1548,1568,1588,1608,1628,1651,1668,1689,1709,1729,1750,1768,1788,1809,1828,1849,1868,1889,1908,1929,1950,1968,1988,2009,2029,2050,2068,2089,2109,2129,2150,2169,2189],"xSR":741.5,"ySR":469.95,"xT1":424.9,"yT1":0,"xT2":1058.1,"yT2":0,"toosoon":0,"cond_shown":"Incongruent","ratio_trial":200,"L_num":1,"L_den":3,"R_num":2,"R_den":15,"correct_side":1,"subjID":"sararodriguiez34","gender":"1","school":"4","age":"9"},{"start_time":1552313250249,"click_time":1552313252053,"finger_time":1552313251492,"fix_duration":1053.5227174873914,"trial":20,"RT":1243,"MT":561,"sideResp":1,"stimulus":[],"xmouse":[818,818,818,818,818,818,817,816,816,816,816,816,816,816,816,816,816,816,816,816,816,816,816,816,816,816,816,816,816,816,816,816,816,816,816,816,816,816,816,816,816,816,816,816,816,816,816,816,816,816,816,816,816,816,816,816,816,815,814,812,809,803,777,761,745,728,698,649,613,565,499,448,398,340,330,328,328,342,351,355,359,367,374,396,402,408,411,414,416,420,429],"ymouse":[518,518,518,518,518,518,519,519,519,519,519,519,519,519,519,519,519,519,519,519,519,519,519,519,519,519,519,519,519,519,519,519,519,519,519,519,519,519,519,519,519,519,519,519,519,519,519,519,519,519,519,519,519,519,519,519,519,514,510,502,495,486,459,447,438,429,410,384,365,336,303,268,233,188,179,162,152,126,115,111,107,105,101,96,94,93,91,90,89,88,88],"timestamp_mouse":[13,23,43,63,83,103,123,143,165,184,204,224,243,264,284,303,324,343,363,383,403,425,443,464,483,504,523,543,565,584,604,624,643,663,683,705,724,743,765,785,804,824,843,864,884,903,925,944,964,984,1003,1024,1044,1064,1083,1103,1123,1143,1164,1183,1204,1223,1243,1263,1283,1303,1324,1344,1364,1383,1403,1423,1443,1463,1483,1504,1524,1544,1564,1584,1603,1623,1644,1664,1683,1703,1724,1745,1763,1784,1803],"xSR":741.5,"ySR":469.95,"xT1":424.9,"yT1":0,"xT2":1058.1,"yT2":0,"toosoon":0,"cond_shown":"Congruent","ratio_trial":100,"L_num":9,"L_den":15,"R_num":8,"R_den":16,"correct_side":1,"subjID":"sararodriguiez34","gender":"1","school":"4","age":"9"},{"start_time":1552313256212,"click_time":1552313257833,"finger_time":1552313257212,"fix_duration":1416.5719248326952,"trial":21,"RT":1000,"MT":621,"sideResp":1,"stimulus":[],"xmouse":[811,811,811,811,811,811,811,811,811,811,811,811,811,811,811,811,811,811,811,811,811,811,811,811,811,811,811,811,811,811,811,811,810,810,810,809,809,809,809,810,810,810,810,810,811,811,811,811,814,821,825,828,831,832,833,833,833,833,832,812,795,776,753,728,664,626,585,549,535,530,530,530,529,521,510,506,502,498,491,467,450],"ymouse":[529,529,529,529,529,529,529,529,529,529,529,529,529,529,529,529,529,529,529,529,529,529,529,529,529,529,529,529,529,529,529,529,527,522,506,505,503,502,501,497,495,492,491,490,489,489,486,484,477,458,451,445,441,439,438,438,438,437,437,448,457,467,474,476,451,420,384,348,319,284,268,247,241,213,177,163,150,139,127,101,88],"timestamp_mouse":[21,45,61,81,100,120,140,160,180,201,220,240,261,280,301,320,340,360,380,401,422,442,461,480,500,521,540,561,580,600,620,641,660,682,700,720,741,761,781,800,821,840,860,880,900,920,940,961,980,1000,1020,1042,1061,1080,1100,1120,1141,1161,1180,1200,1222,1240,1261,1281,1300,1320,1340,1361,1380,1400,1420,1441,1461,1481,1500,1520,1540,1560,1580,1600,1620],"xSR":741.5,"ySR":469.95,"xT1":424.9,"yT1":0,"xT2":1058.1,"yT2":0,"toosoon":0,"cond_shown":"Incongruent","ratio_trial":300,"L_num":4,"L_den":20,"R_num":2,"R_den":4,"correct_side":2,"subjID":"sararodriguiez34","gender":"1","school":"4","age":"9"},{"start_time":1552313263126,"click_time":1552313264533,"finger_time":1552313264153,"fix_duration":792.1255591295971,"trial":22,"RT":1027,"MT":380,"sideResp":2,"stimulus":[],"xmouse":[807,806,806,806,806,806,806,806,806,806,806,806,806,806,806,806,806,806,806,806,806,806,806,806,806,806,806,806,806,806,806,806,806,806,806,806,806,806,806,806,806,806,806,806,806,806,812,834,840,840,841,844,847,851,859,881,893,902,918,936,970,999,1008,1023,1033,1051,1057,1065,1068,1071,1077],"ymouse":[521,521,521,521,521,521,521,521,521,521,521,521,521,521,521,521,521,521,521,521,521,521,521,521,521,521,521,521,521,521,521,521,521,521,521,521,521,521,521,521,521,521,521,521,521,521,520,517,514,514,514,510,507,501,490,461,446,433,416,392,350,313,303,283,264,208,187,168,154,132,99],"timestamp_mouse":[12,26,56,66,87,108,126,146,167,186,207,226,246,268,287,307,327,348,367,386,406,427,447,467,487,507,526,548,567,586,606,627,648,666,686,706,726,746,766,786,807,827,848,868,887,907,927,947,966,986,1006,1027,1046,1066,1087,1106,1126,1147,1167,1186,1206,1231,1247,1267,1286,1306,1326,1347,1367,1387,1407],"xSR":741.5,"ySR":469.95,"xT1":424.9,"yT1":0,"xT2":1058.1,"yT2":0,"toosoon":0,"cond_shown":"Congruent","ratio_trial":200,"L_num":13,"L_den":26,"R_num":14,"R_den":20,"correct_side":2,"subjID":"sararodriguiez34","gender":"1","school":"4","age":"9"},{"start_time":1552313268042,"click_time":1552313270093,"finger_time":1552313269732,"fix_duration":988.5071070861467,"trial":23,"RT":1690,"MT":361,"sideResp":1,"stimulus":[],"xmouse":[828,828,828,828,828,828,828,828,828,828,828,828,828,828,828,828,828,828,828,828,828,828,828,828,828,828,828,828,828,828,828,828,828,828,828,828,828,828,828,828,828,828,828,828,828,828,828,828,828,828,828,828,828,828,828,828,828,828,828,828,828,828,828,828,828,828,828,828,828,828,828,828,828,828,828,828,828,828,828,828,828,828,828,826,795,774,735,667,610,584,584,584,584,584,584,584,584,584,584,584,584,584,479],"ymouse":[561,561,561,561,561,561,561,561,561,561,561,561,561,561,561,561,561,561,561,561,561,561,561,561,561,561,561,561,561,561,561,561,561,561,561,561,561,561,561,561,561,561,561,561,561,561,561,561,561,561,561,561,561,561,561,561,561,561,561,561,561,561,561,561,561,561,561,561,561,561,561,561,561,561,561,561,561,561,561,561,561,561,557,542,431,365,274,139,53,19,19,19,19,19,19,19,19,19,19,19,19,19,3],"timestamp_mouse":[13,36,51,70,90,111,131,150,170,191,210,230,252,270,290,311,331,350,370,391,410,430,451,471,490,510,531,551,571,590,610,630,651,671,690,711,731,751,771,790,810,832,850,870,890,910,931,950,972,990,1011,1031,1051,1070,1091,1112,1131,1150,1171,1190,1211,1232,1251,1271,1290,1311,1330,1351,1372,1390,1410,1431,1450,1471,1491,1510,1530,1551,1571,1591,1611,1630,1651,1671,1690,1710,1730,1750,1770,1791,1811,1830,1850,1871,1891,1911,1931,1950,1970,1991,2012,2032,2051],"xSR":741.5,"ySR":469.95,"xT1":424.9,"yT1":0,"xT2":1058.1,"yT2":0,"toosoon":0,"cond_shown":"Incongruent","ratio_trial":100,"L_num":6,"L_den":12,"R_num":3,"R_den":5,"correct_side":2,"subjID":"sararodriguiez34","gender":"1","school":"4","age":"9"},{"start_time":1552313274467,"click_time":1552313276753,"finger_time":1552313276633,"fix_duration":1433.2220892789803,"trial":24,"RT":2166,"MT":120,"sideResp":2,"stimulus":[],"xmouse":[767,767,767,767,767,767,767,767,767,767,767,767,767,767,767,767,767,767,767,767,767,767,767,767,767,767,767,767,767,767,767,767,767,767,767,767,767,767,767,767,767,767,767,767,767,767,767,767,767,767,767,767,767,767,767,767,767,767,767,767,767,767,767,767,767,767,767,767,767,767,767,767,767,767,767,767,767,767,767,767,767,767,767,767,767,767,767,767,767,767,767,767,767,767,767,767,767,767,767,767,767,768,769,770,777,787,803,822,850,938,976,1009,1039,1067,1123],"ymouse":[534,534,534,534,534,534,534,534,534,534,534,534,534,534,534,534,534,534,534,534,534,534,534,534,534,534,534,534,534,534,534,534,534,534,534,534,534,534,534,534,534,534,534,534,534,534,534,534,534,534,534,534,534,534,534,534,534,534,534,534,534,534,534,534,534,534,534,534,534,534,534,534,534,534,534,534,534,534,534,534,534,534,534,534,534,534,534,534,534,534,534,534,534,534,534,534,534,534,534,534,534,534,534,534,528,515,496,477,452,365,318,266,216,163,77],"timestamp_mouse":[12,37,46,67,85,106,125,146,165,185,206,226,246,266,285,306,326,345,365,386,405,426,445,465,485,506,525,546,566,585,606,626,647,666,685,706,726,745,766,785,806,826,845,866,886,906,927,945,966,985,1005,1026,1046,1066,1085,1105,1126,1146,1166,1185,1207,1227,1247,1265,1285,1305,1326,1346,1366,1385,1405,1426,1445,1465,1485,1506,1525,1547,1565,1585,1605,1625,1646,1665,1685,1706,1726,1747,1766,1785,1806,1827,1845,1866,1885,1905,1926,1946,1967,1985,2006,2026,2045,2067,2085,2105,2126,2146,2166,2185,2205,2225,2246,2267,2285],"xSR":741.5,"ySR":469.95,"xT1":424.9,"yT1":0,"xT2":1058.1,"yT2":0,"toosoon":0,"cond_shown":"Congruent","ratio_trial":300,"L_num":11,"L_den":22,"R_num":1,"R_den":5,"correct_side":1,"subjID":"sararodriguiez34","gender":"1","school":"4","age":"9"},{"start_time":1552313279823,"click_time":1552313281632,"finger_time":1552313281273,"fix_duration":1088.6041935785524,"trial":25,"RT":1450,"MT":359,"sideResp":2,"stimulus":[],"xmouse":[803,803,803,803,803,803,803,803,803,804,804,806,807,807,807,807,807,807,807,807,807,807,807,807,807,808,808,808,808,808,808,808,808,808,808,808,808,808,808,808,808,808,808,808,808,808,808,808,808,808,808,808,808,808,808,808,808,808,808,808,808,808,808,808,808,808,808,808,808,808,810,814,862,912,931,937,942,957,964,970,975,983,1007,1021,1033,1045,1052,1063,1066,1068,1070],"ymouse":[527,527,527,527,527,527,527,527,527,526,525,524,523,522,522,522,522,522,522,522,522,522,522,522,522,522,521,521,521,521,521,521,521,521,521,521,521,521,521,521,521,521,521,521,521,521,521,521,521,521,521,521,521,521,521,521,521,521,521,521,521,521,521,521,521,521,521,521,521,521,521,521,480,433,419,413,406,385,370,357,346,331,278,254,225,194,169,131,119,109,97],"timestamp_mouse":[15,30,50,69,89,110,131,149,169,189,209,229,250,269,289,311,330,349,370,391,411,429,449,469,489,509,530,551,569,590,610,630,650,669,690,709,729,750,771,789,810,831,850,870,890,909,929,951,970,990,1010,1030,1050,1069,1090,1109,1131,1150,1170,1190,1209,1229,1250,1269,1289,1309,1329,1350,1369,1389,1410,1430,1450,1470,1490,1510,1529,1549,1570,1589,1610,1629,1650,1669,1689,1709,1731,1750,1769,1790,1809],"xSR":741.5,"ySR":469.95,"xT1":424.9,"yT1":0,"xT2":1058.1,"yT2":0,"toosoon":0,"cond_shown":"Congruent","ratio_trial":300,"L_num":1,"L_den":5,"R_num":11,"R_den":22,"correct_side":2,"subjID":"sararodriguiez34","gender":"1","school":"4","age":"9"},{"start_time":1552313291850,"click_time":1552313294453,"finger_time":1552313291864,"fix_duration":295.09815507820747,"trial":26,"RT":14,"MT":2589,"sideResp":2,"stimulus":[],"xmouse":[816,816,816,816,816,816,816,816,816,816,816,816,816,816,816,816,816,816,816,816,816,816,816,816,816,816,816,816,816,816,816,816,816,816,816,816,816,816,816,816,816,816,816,816,814,814,803,796,790,788,786,785,785,785,785,784,784,784,784,784,784,784,784,784,784,784,784,784,784,784,784,784,784,784,784,784,784,784,784,784,784,784,784,784,784,784,784,784,784,784,784,784,784,784,784,784,785,794,816,862,922,979,1034,1048,1054,1049,966,966,891,885,885,895,896,896,896,896,896,918,941,973,1003,1026,1049,1056,1061,1064,1070,1072,1074,1075],"ymouse":[498,498,498,498,498,498,498,498,498,498,498,498,498,498,498,498,498,498,498,498,498,498,498,498,498,498,498,498,498,498,498,498,498,498,498,498,498,498,498,498,498,498,498,498,498,498,511,527,547,564,582,593,593,593,596,603,613,614,614,614,614,614,614,614,614,614,614,614,614,614,614,614,614,614,614,614,614,614,614,614,614,614,614,614,614,614,614,614,614,614,614,614,614,614,614,614,614,614,613,613,613,613,596,575,531,379,61,61,0,0,0,0,0,0,0,0,0,26,57,93,117,131,137,133,125,120,112,109,104,96],"timestamp_mouse":[14,45,62,84,102,122,144,163,183,204,222,243,263,283,302,323,343,362,384,404,423,443,463,483,503,523,542,563,583,603,623,643,663,683,702,723,743,762,783,803,823,843,863,883,902,922,942,963,982,1002,1022,1042,1063,1082,1102,1122,1142,1163,1182,1202,1223,1244,1262,1283,1304,1323,1342,1363,1382,1404,1422,1442,1463,1482,1503,1522,1542,1564,1582,1603,1623,1643,1663,1682,1702,1723,1743,1763,1783,1802,1822,1842,1864,1883,1903,1924,1942,1964,1983,2002,2022,2042,2063,2082,2102,2122,2142,2162,2183,2203,2223,2243,2262,2282,2302,2322,2343,2363,2382,2403,2422,2442,2463,2483,2503,2522,2544,2564,2583,2602],"xSR":741.5,"ySR":469.95,"xT1":424.9,"yT1":0,"xT2":1058.1,"yT2":0,"toosoon":0,"cond_shown":"Incongruent","ratio_trial":300,"L_num":4,"L_den":5,"R_num":8,"R_den":16,"correct_side":1,"subjID":"sararodriguiez34","gender":"1","school":"4","age":"9"},{"start_time":1552313295934,"click_time":1552313297553,"finger_time":1552313297032,"fix_duration":561.2940483547392,"trial":27,"RT":1098,"MT":521,"sideResp":1,"stimulus":[],"xmouse":[782,782,782,782,782,782,782,782,782,782,782,782,782,782,782,782,782,782,782,782,782,782,782,782,782,782,782,782,782,782,782,782,782,782,782,782,782,782,782,782,782,782,782,782,782,782,782,782,782,782,782,783,783,783,781,779,778,776,773,763,755,742,724,675,657,645,638,635,631,629,625,618,605,579,565,562,558,543,534,527,522],"ymouse":[619,619,619,619,619,619,619,619,619,619,619,619,619,619,619,619,619,619,619,619,619,619,619,619,619,619,619,619,619,619,619,619,619,619,619,619,619,619,619,619,619,619,619,619,619,619,619,619,619,619,617,612,591,579,564,553,543,537,513,476,445,405,345,242,203,174,154,139,115,105,98,91,84,74,70,69,69,64,63,61,59],"timestamp_mouse":[19,40,59,79,99,119,139,158,178,200,220,238,259,278,298,320,338,359,378,398,419,438,459,480,499,519,540,559,579,599,619,640,659,678,698,719,738,759,780,798,819,838,859,880,899,919,939,959,978,999,1018,1039,1059,1078,1098,1119,1139,1159,1178,1199,1218,1239,1259,1279,1300,1319,1339,1358,1379,1398,1418,1438,1459,1478,1499,1518,1540,1560,1578,1598,1619],"xSR":741.5,"ySR":573.95,"xT1":424.9,"yT1":0,"xT2":1058.1,"yT2":0,"toosoon":0,"cond_shown":"Congruent","ratio_trial":300,"L_num":20,"L_den":25,"R_num":13,"R_den":26,"correct_side":1,"subjID":"sararodriguiez34","gender":"1","school":"4","age":"9"},{"start_time":1552313316102,"click_time":1552313318433,"finger_time":1552313318052,"fix_duration":828.1545452478425,"trial":28,"RT":1950,"MT":381,"sideResp":1,"stimulus":[],"xmouse":[815,815,815,815,815,815,815,815,815,815,815,815,815,815,815,815,815,815,812,811,811,811,811,811,811,811,811,811,811,811,811,811,811,811,811,811,811,811,811,811,811,811,811,811,811,811,811,811,811,811,811,811,811,811,811,811,811,811,811,811,811,811,811,811,811,811,811,811,811,811,811,811,811,811,811,811,811,811,811,811,811,811,811,811,811,811,811,811,811,811,811,811,811,811,809,804,786,735,718,702,690,681,647,630,612,592,581,569,567,566,564,557,545,540,535,531,524],"ymouse":[660,660,660,660,660,660,660,660,660,660,660,660,660,660,660,660,660,660,660,660,660,660,660,660,660,660,660,660,660,660,660,660,660,660,660,660,660,660,660,660,660,660,660,660,660,660,660,660,660,660,660,660,660,660,660,660,660,660,660,660,660,660,660,660,660,660,660,660,660,660,660,660,660,660,660,660,660,660,660,660,660,660,660,660,660,660,660,660,660,660,660,660,660,660,646,631,590,507,480,457,435,414,330,289,244,200,178,145,134,122,112,96,79,73,68,67,64],"timestamp_mouse":[10,44,50,71,91,111,130,150,170,190,211,231,250,270,290,310,331,350,371,391,410,430,451,470,491,511,530,550,571,591,611,631,650,671,690,711,731,750,771,790,811,830,850,871,890,910,931,950,970,991,1010,1031,1051,1070,1090,1111,1130,1150,1170,1191,1211,1231,1251,1271,1291,1311,1331,1351,1371,1391,1411,1430,1450,1470,1491,1510,1531,1550,1570,1591,1610,1631,1651,1671,1691,1711,1731,1751,1771,1790,1811,1831,1850,1870,1891,1911,1930,1950,1970,1991,2011,2032,2050,2070,2090,2111,2131,2150,2171,2190,2211,2229,2250,2270,2290,2310,2331],"xSR":741.5,"ySR":573.95,"xT1":424.9,"yT1":0,"xT2":1058.1,"yT2":0,"toosoon":0,"cond_shown":"Congruent","ratio_trial":100,"L_num":4,"L_den":8,"R_num":6,"R_den":10,"correct_side":2,"subjID":"sararodriguiez34","gender":"1","school":"4","age":"9"},{"start_time":1552313327964,"click_time":1552313329532,"finger_time":1552313328912,"fix_duration":250,"trial":29,"RT":948,"MT":620,"sideResp":2,"stimulus":[],"xmouse":[773,773,773,773,773,773,773,773,773,773,773,773,773,773,773,773,773,773,773,773,773,773,773,773,773,773,773,773,773,773,773,773,773,773,773,773,773,773,773,773,773,773,773,773,776,795,826,852,862,868,870,873,880,893,908,916,924,931,940,957,965,975,986,1000,1017,1025,1030,1035,1039,1052,1053,1053,1053,1053,1053,1054,1058,1071],"ymouse":[623,623,623,623,623,623,623,623,623,623,623,623,623,623,623,623,623,623,623,623,623,623,623,623,623,623,623,623,623,623,623,623,623,623,623,623,623,623,623,623,623,623,623,623,619,587,526,462,434,398,383,364,341,296,243,216,192,173,152,111,92,74,53,29,20,18,18,18,19,29,32,34,34,34,34,34,34,32],"timestamp_mouse":[14,48,68,87,109,129,149,169,188,209,228,249,269,288,308,329,349,369,388,408,428,449,469,489,508,528,548,569,589,608,627,648,669,689,708,728,749,768,789,808,828,849,869,888,908,928,948,968,988,1009,1028,1049,1069,1087,1108,1128,1148,1168,1189,1208,1228,1248,1269,1288,1308,1327,1349,1367,1388,1408,1427,1448,1469,1488,1508,1529,1549,1567],"xSR":741.5,"ySR":573.95,"xT1":424.9,"yT1":0,"xT2":1058.1,"yT2":0,"toosoon":0,"cond_shown":"Congruent","ratio_trial":100,"L_num":4,"L_den":10,"R_num":15,"R_den":30,"correct_side":2,"subjID":"sararodriguiez34","gender":"1","school":"4","age":"9"},{"start_time":1552313345632,"click_time":1552313347012,"finger_time":1552313346592,"fix_duration":298.9436010555827,"trial":30,"RT":960,"MT":420,"sideResp":1,"stimulus":[],"xmouse":[758,758,758,758,758,758,758,758,758,758,758,758,758,758,758,758,758,758,758,758,758,758,758,758,758,758,758,758,758,758,758,758,758,758,758,758,758,758,758,758,758,758,758,758,760,762,765,766,768,770,770,770,766,753,731,721,712,703,699,691,687,682,669,660,631,614,598,580,562,524],"ymouse":[614,614,614,614,614,614,614,614,614,614,614,614,614,614,614,614,614,614,614,614,614,614,614,614,614,614,614,614,614,614,614,614,614,614,614,614,614,614,614,614,614,614,613,613,605,599,591,580,569,546,531,516,499,468,418,395,372,350,332,302,290,274,244,223,179,155,136,116,99,75],"timestamp_mouse":[10,20,40,61,80,101,121,141,160,180,200,220,241,261,280,300,320,340,361,380,401,420,439,461,480,500,521,541,561,579,599,621,640,661,680,700,721,740,760,780,800,821,840,860,880,900,921,940,960,981,1000,1020,1040,1061,1080,1100,1120,1141,1160,1180,1199,1221,1240,1260,1280,1300,1320,1340,1360,1380],"xSR":741.5,"ySR":573.95,"xT1":424.9,"yT1":0,"xT2":1058.1,"yT2":0,"toosoon":0,"cond_shown":"Congruent","ratio_trial":200,"L_num":11,"L_den":22,"R_num":3,"R_den":10,"correct_side":1,"subjID":"sararodriguiez34","gender":"1","school":"4","age":"9"},{"start_time":1552313362032,"click_time":1552313363572,"finger_time":1552313362932,"fix_duration":396.3834169509057,"trial":31,"RT":900,"MT":640,"sideResp":2,"stimulus":[],"xmouse":[766,766,766,766,766,766,766,766,766,766,766,766,766,766,766,766,766,766,766,766,766,766,766,766,766,766,766,766,766,766,766,766,766,766,766,766,766,766,770,780,789,798,807,814,819,834,849,856,864,873,880,895,905,919,934,949,981,994,1000,1007,1012,1024,1028,1031,1031,1034,1034,1034,1034,1034,1034,1034,1034,1034,1036,1043,1055,1064],"ymouse":[610,610,610,610,610,610,610,610,610,610,610,610,610,610,610,610,610,610,610,610,610,610,610,610,610,610,610,610,610,610,610,610,610,610,610,610,610,610,611,608,605,602,596,583,574,556,535,522,510,499,488,464,452,441,427,404,317,264,227,194,168,115,90,68,65,60,59,59,59,59,59,59,59,59,58,52,44,39],"timestamp_mouse":[9,21,45,60,80,101,120,141,161,181,201,220,240,259,281,301,321,340,361,379,401,420,439,460,480,501,521,541,561,581,600,621,640,660,681,700,720,741,761,781,801,820,841,860,880,900,920,941,960,980,1000,1019,1041,1060,1081,1100,1120,1140,1160,1181,1201,1220,1242,1260,1280,1300,1321,1341,1361,1380,1401,1420,1441,1461,1481,1500,1520,1540],"xSR":741.5,"ySR":573.95,"xT1":424.9,"yT1":0,"xT2":1058.1,"yT2":0,"toosoon":0,"cond_shown":"Incongruent","ratio_trial":100,"L_num":9,"L_den":10,"R_num":20,"R_den":25,"correct_side":1,"subjID":"sararodriguiez34","gender":"1","school":"4","age":"9"},{"start_time":1552313370265,"click_time":1552313372033,"finger_time":1552313371193,"fix_duration":549.2441301945604,"trial":32,"RT":928,"MT":840,"sideResp":1,"stimulus":[],"xmouse":[826,826,826,826,826,826,826,826,826,826,826,826,826,826,826,826,826,826,826,826,826,825,825,825,825,825,825,825,825,825,825,825,825,825,825,825,825,825,825,824,824,823,822,821,821,821,820,819,818,809,788,779,769,761,748,723,714,692,660,660,660,660,659,659,655,644,637,617,607,574,544,538,532,529,529,529,529,529,529,529,529,529,529,529,529,529,529,525,523],"ymouse":[578,578,578,578,578,578,578,578,578,578,578,578,578,578,578,578,578,578,578,578,578,578,578,578,578,578,578,578,578,578,578,578,578,578,578,578,578,578,578,579,579,579,579,577,577,577,571,564,563,543,510,493,476,462,440,398,381,343,281,281,281,281,273,273,267,253,243,220,210,180,140,122,102,92,92,92,92,92,92,92,92,92,92,92,92,92,92,85,73],"timestamp_mouse":[8,28,47,66,88,108,128,148,168,187,207,228,248,267,287,308,328,347,368,388,407,427,448,467,487,507,528,549,567,588,607,627,648,667,687,707,727,747,767,788,808,827,848,868,888,907,928,947,967,989,1008,1028,1048,1068,1087,1107,1127,1147,1167,1187,1207,1227,1247,1268,1288,1307,1327,1348,1367,1388,1407,1427,1447,1468,1487,1507,1528,1547,1568,1587,1608,1627,1647,1668,1688,1708,1727,1746,1768],"xSR":741.5,"ySR":573.95,"xT1":424.9,"yT1":0,"xT2":1058.1,"yT2":0,"toosoon":0,"cond_shown":"Incongruent","ratio_trial":100,"L_num":9,"L_den":10,"R_num":20,"R_den":25,"correct_side":1,"subjID":"sararodriguiez34","gender":"1","school":"4","age":"9"},{"start_time":1552313374948,"click_time":1552313377393,"finger_time":1552313376593,"fix_duration":592.3861528367137,"trial":33,"RT":1645,"MT":800,"sideResp":1,"stimulus":[],"xmouse":[780,780,780,780,780,780,780,780,780,780,780,780,780,780,780,780,780,780,780,780,780,780,780,780,780,780,780,780,780,780,780,780,780,780,780,780,780,780,780,780,780,780,780,780,780,780,780,780,780,780,780,780,780,780,780,780,780,780,780,780,780,780,780,780,780,780,780,780,780,780,780,780,780,780,780,780,780,780,780,780,780,776,681,606,531,457,367,351,341,338,335,333,331,331,331,331,330,330,334,348,363,376,393,403,409,409,409,409,409,409,409,409,409,409,409,409,409,409,409,413,419,424,444],"ymouse":[593,593,593,593,593,593,593,593,593,593,593,593,593,593,593,593,593,593,593,593,593,593,593,593,593,593,593,593,593,593,593,593,593,593,593,593,593,593,593,593,593,593,593,593,593,593,593,593,593,593,593,593,593,593,593,593,593,593,593,593,593,593,593,593,593,593,593,593,593,593,593,593,593,593,593,593,593,593,593,593,593,590,481,421,376,336,270,243,218,196,177,163,151,149,149,149,149,148,146,140,133,127,113,95,85,84,84,84,84,84,84,84,84,84,84,84,84,84,84,84,84,84,80],"timestamp_mouse":[11,25,44,65,85,104,125,145,165,185,205,224,244,265,284,305,325,344,364,385,404,424,445,464,484,504,525,545,563,585,604,624,644,665,684,703,724,745,764,784,805,823,844,865,884,905,924,944,965,984,1005,1025,1045,1065,1085,1105,1125,1144,1164,1185,1205,1224,1243,1265,1285,1304,1323,1345,1363,1385,1405,1425,1445,1465,1484,1503,1524,1545,1564,1585,1604,1625,1645,1664,1685,1704,1725,1744,1765,1784,1803,1824,1843,1865,1885,1905,1925,1945,1963,1984,2003,2024,2044,2064,2084,2104,2125,2145,2164,2185,2204,2224,2243,2264,2284,2303,2324,2344,2364,2385,2404,2425,2445],"xSR":741.5,"ySR":573.95,"xT1":424.9,"yT1":0,"xT2":1058.1,"yT2":0,"toosoon":0,"cond_shown":"Congruent","ratio_trial":200,"L_num":16,"L_den":30,"R_num":9,"R_den":27,"correct_side":1,"subjID":"sararodriguiez34","gender":"1","school":"4","age":"9"},{"start_time":1552313380767,"click_time":1552313382512,"finger_time":1552313382352,"fix_duration":973.5352312065625,"trial":34,"RT":1585,"MT":160,"sideResp":1,"stimulus":[],"xmouse":[819,819,819,819,819,819,819,819,819,819,819,819,819,819,819,819,819,819,819,819,819,819,819,819,819,819,819,819,819,819,819,819,819,819,819,819,819,819,819,819,819,819,819,819,819,819,819,819,819,819,819,819,819,819,819,819,819,819,819,819,819,819,819,819,819,819,819,819,819,819,819,819,819,819,819,819,819,819,814,804,788,720,677,632,589,549,490,475],"ymouse":[604,604,604,604,604,604,604,604,604,604,604,604,604,604,604,604,604,604,604,604,604,604,604,604,604,604,604,604,604,604,604,604,604,604,604,604,604,604,604,604,604,604,604,604,604,604,604,604,604,604,604,604,604,604,604,604,604,604,604,604,604,604,604,604,604,604,604,604,604,604,604,604,604,604,604,604,604,604,596,572,544,441,390,334,271,204,110,82],"timestamp_mouse":[13,38,46,65,84,104,125,145,166,184,206,225,245,264,285,305,325,345,365,384,406,425,445,465,485,506,524,545,566,585,604,625,645,666,686,706,725,744,766,786,805,826,846,866,885,906,925,945,965,986,1005,1025,1045,1066,1086,1105,1125,1145,1166,1185,1205,1225,1245,1265,1285,1304,1324,1344,1364,1386,1404,1425,1446,1465,1485,1506,1525,1544,1565,1585,1605,1626,1645,1665,1685,1706,1725,1745],"xSR":741.5,"ySR":573.95,"xT1":424.9,"yT1":0,"xT2":1058.1,"yT2":0,"toosoon":0,"cond_shown":"Congruent","ratio_trial":100,"L_num":9,"L_den":15,"R_num":8,"R_den":16,"correct_side":1,"subjID":"sararodriguiez34","gender":"1","school":"4","age":"9"},{"start_time":1552313384996,"click_time":1552313386872,"finger_time":1552313386352,"fix_duration":1023.7683226768719,"trial":35,"RT":1356,"MT":520,"sideResp":2,"stimulus":[],"xmouse":[778,778,778,778,778,778,778,778,778,778,778,778,778,778,778,778,778,778,778,778,778,778,778,778,778,778,778,778,778,778,778,778,778,778,778,778,778,781,788,791,794,794,795,795,796,796,797,797,797,797,797,797,797,797,797,797,797,797,797,797,797,797,797,797,797,797,803,821,833,841,851,859,867,876,883,909,931,984,1049,1100,1147,1165,1177,1185,1201,1215,1216,1216,1212,1204,1186,1174,1161,1149],"ymouse":[621,621,621,621,621,621,621,621,621,621,621,621,621,621,621,621,621,621,621,621,621,621,621,621,621,621,621,621,621,621,621,621,621,621,621,621,621,619,611,607,603,603,602,601,601,599,599,599,599,599,599,599,599,599,599,599,599,599,599,599,599,600,600,600,600,600,587,535,481,434,375,352,335,327,325,322,318,301,285,281,274,267,255,241,207,151,125,105,89,77,58,48,37,27],"timestamp_mouse":[17,37,57,77,95,117,137,156,177,197,217,236,256,275,296,316,337,355,377,397,417,437,457,476,496,516,537,557,576,595,616,636,657,677,696,715,737,756,776,796,816,836,856,876,897,915,937,957,977,996,1016,1036,1055,1076,1097,1116,1135,1156,1176,1196,1215,1235,1257,1276,1296,1316,1336,1356,1377,1396,1416,1437,1456,1476,1496,1516,1536,1556,1576,1596,1617,1635,1657,1676,1696,1716,1736,1756,1776,1796,1817,1836,1857,1876],"xSR":741.5,"ySR":573.95,"xT1":424.9,"yT1":0,"xT2":1058.1,"yT2":0,"toosoon":0,"cond_shown":"Incongruent","ratio_trial":200,"L_num":4,"L_den":30,"R_num":1,"R_den":3,"correct_side":2,"subjID":"sararodriguiez34","gender":"1","school":"4","age":"9"},{"start_time":1552313388530,"click_time":1552313390533,"finger_time":1552313389753,"fix_duration":337.55585994586437,"trial":36,"RT":1223,"MT":780,"sideResp":1,"stimulus":[],"xmouse":[768,768,768,768,768,768,768,768,768,768,768,768,768,768,768,768,768,768,768,768,768,768,768,768,768,768,768,768,768,768,768,768,768,768,768,768,768,768,768,768,768,768,768,768,768,768,768,768,768,768,767,759,753,750,749,749,748,748,748,748,748,749,752,756,769,777,783,793,796,798,801,801,801,800,773,737,700,660,641,625,615,615,617,617,638,647,646,643,627,605,577,561,561,560,560,558,558,555,542,512,447],"ymouse":[625,625,625,625,625,625,625,625,625,625,625,625,625,625,625,625,625,625,625,625,625,624,624,624,624,624,624,624,624,624,624,624,624,624,624,624,624,624,624,624,624,624,624,624,623,622,622,622,621,621,617,602,587,578,577,577,576,576,576,576,576,568,560,543,519,509,502,489,483,479,474,470,463,452,421,397,374,354,343,332,323,320,319,319,304,286,269,261,234,208,176,165,165,163,161,159,157,154,143,121,66],"timestamp_mouse":[12,36,43,62,82,103,123,143,162,183,201,223,243,263,282,302,323,342,362,381,403,422,442,461,482,502,522,543,561,582,602,622,643,662,682,703,723,743,763,782,802,823,842,862,882,902,923,942,963,982,1003,1023,1041,1063,1082,1103,1122,1142,1163,1182,1203,1223,1243,1262,1282,1302,1323,1343,1362,1382,1403,1422,1443,1463,1481,1501,1522,1542,1562,1582,1602,1622,1642,1662,1682,1702,1721,1742,1763,1782,1803,1822,1842,1861,1882,1901,1922,1942,1962,1982,2002],"xSR":741.5,"ySR":573.95,"xT1":424.9,"yT1":0,"xT2":1058.1,"yT2":0,"toosoon":0,"cond_shown":"Congruent","ratio_trial":100,"L_num":11,"L_den":22,"R_num":4,"R_den":10,"correct_side":1,"subjID":"sararodriguiez34","gender":"1","school":"4","age":"9"},{"start_time":1552313394635,"click_time":1552313396413,"finger_time":1552313395912,"fix_duration":1081.7876790097657,"trial":37,"RT":1277,"MT":501,"sideResp":2,"stimulus":[],"xmouse":[771,771,771,771,771,771,771,771,771,771,771,771,771,771,771,771,771,771,771,771,771,771,771,771,771,771,771,771,771,771,771,771,771,771,771,771,771,771,771,771,771,771,771,771,771,771,771,771,771,771,771,771,771,771,771,771,771,771,771,774,780,787,798,815,839,853,868,872,891,933,946,958,965,969,985,989,1002,1023,1027,1052,1059,1069,1078,1092,1124,1130,1130,1130,1144],"ymouse":[600,600,600,600,600,600,600,600,600,600,600,600,600,600,600,600,600,600,600,600,600,600,600,600,600,600,600,600,600,600,600,600,600,600,600,600,600,600,600,600,600,600,600,600,600,600,600,600,600,600,600,600,600,600,600,600,600,600,600,600,597,596,589,569,535,515,493,484,441,349,317,285,266,256,222,217,202,184,181,162,157,150,144,136,113,107,107,107,82],"timestamp_mouse":[18,45,56,78,98,116,138,158,177,198,216,237,258,278,298,317,338,356,377,398,418,438,456,478,497,517,538,557,577,597,618,637,658,676,698,717,738,757,778,797,816,838,857,878,896,918,937,958,978,997,1017,1037,1058,1077,1097,1117,1137,1156,1177,1197,1218,1237,1256,1277,1298,1318,1338,1356,1376,1396,1418,1437,1457,1477,1497,1518,1538,1558,1577,1597,1618,1637,1658,1677,1698,1716,1738,1757,1778],"xSR":741.5,"ySR":573.95,"xT1":424.9,"yT1":0,"xT2":1058.1,"yT2":0,"toosoon":0,"cond_shown":"Incongruent","ratio_trial":200,"L_num":7,"L_den":10,"R_num":14,"R_den":28,"correct_side":1,"subjID":"sararodriguiez34","gender":"1","school":"4","age":"9"},{"start_time":1552313408601,"click_time":1552313410172,"finger_time":1552313409592,"fix_duration":547.6712447999362,"trial":38,"RT":991,"MT":580,"sideResp":2,"stimulus":[],"xmouse":[808,808,808,808,808,808,808,808,808,808,808,808,808,808,808,808,808,808,808,808,808,808,808,808,808,808,808,808,808,808,808,808,808,808,808,808,808,808,810,812,813,815,817,818,819,820,820,822,828,837,849,864,895,918,923,937,943,956,956,963,973,986,1007,1014,1021,1022,1023,1024,1027,1030,1033,1036,1040,1054,1060,1065,1070,1075,1082],"ymouse":[613,613,613,613,613,613,613,613,613,613,613,613,613,613,613,613,613,613,613,613,613,613,613,613,613,613,613,613,613,613,613,613,613,613,613,613,613,613,611,609,606,604,601,601,599,598,597,595,586,572,548,517,453,396,379,339,313,278,278,264,246,226,185,170,152,151,150,144,138,132,129,124,120,113,111,109,108,106,98],"timestamp_mouse":[13,34,51,71,91,111,131,151,170,192,211,232,252,271,292,312,332,351,372,392,411,431,451,470,492,512,532,551,571,590,612,632,650,671,691,712,731,751,772,792,811,831,852,871,892,911,932,951,972,991,1011,1031,1051,1071,1092,1111,1131,1151,1171,1192,1211,1231,1252,1271,1291,1311,1331,1351,1371,1391,1411,1431,1450,1472,1491,1512,1532,1551,1571],"xSR":741.5,"ySR":573.95,"xT1":424.9,"yT1":0,"xT2":1058.1,"yT2":0,"toosoon":0,"cond_shown":"Incongruent","ratio_trial":200,"L_num":9,"L_den":15,"R_num":8,"R_den":10,"correct_side":2,"subjID":"sararodriguiez34","gender":"1","school":"4","age":"9"},{"start_time":1552313423005,"click_time":1552313424392,"finger_time":1552313423772,"fix_duration":250,"trial":39,"RT":767,"MT":620,"sideResp":1,"stimulus":[],"xmouse":[817,817,817,817,817,817,817,817,817,817,817,817,817,817,817,817,817,817,817,817,817,817,817,817,817,817,817,817,817,817,817,817,817,817,817,818,820,834,843,857,857,852,834,817,758,688,597,506,490,473,465,453,435,406,316,275,250,242,242,250,254,261,266,275,300,316,332,356,400,464],"ymouse":[669,669,669,669,669,669,669,669,669,669,669,669,669,669,669,669,669,669,669,669,669,669,669,669,669,669,669,669,669,669,669,669,669,669,669,670,669,659,652,643,638,632,617,602,560,499,427,370,361,344,333,317,298,270,170,115,73,45,38,23,19,16,14,12,11,13,19,33,58,91],"timestamp_mouse":[9,41,47,67,87,107,128,147,167,186,208,227,248,268,288,308,326,347,368,387,408,428,447,468,487,507,526,546,568,586,608,628,648,668,688,708,727,747,767,787,809,827,848,867,888,907,928,948,968,987,1007,1027,1048,1068,1088,1107,1127,1147,1167,1187,1207,1228,1247,1267,1287,1307,1328,1347,1368,1387],"xSR":741.5,"ySR":573.95,"xT1":424.9,"yT1":0,"xT2":1058.1,"yT2":0,"toosoon":0,"cond_shown":"Incongruent","ratio_trial":100,"L_num":3,"L_den":5,"R_num":11,"R_den":22,"correct_side":1,"subjID":"sararodriguiez34","gender":"1","school":"4","age":"9"},{"start_time":1552313430653,"click_time":1552313432052,"finger_time":1552313431571,"fix_duration":539.1752221523685,"trial":40,"RT":918,"MT":481,"sideResp":2,"stimulus":[],"xmouse":[835,835,835,835,835,835,835,835,835,835,835,835,835,835,835,835,835,835,835,835,835,835,835,835,835,835,835,835,835,835,835,835,835,835,835,835,835,835,835,835,835,835,835,835,835,837,845,854,885,899,914,930,951,987,1010,1027,1041,1050,1059,1063,1064,1066,1068,1070,1072,1075,1077,1078,1084,1087,1089],"ymouse":[652,652,652,652,652,652,652,652,652,652,652,652,652,652,652,652,652,652,652,652,652,652,652,652,652,652,652,652,652,652,652,652,652,652,652,652,652,652,652,652,652,652,652,652,652,650,642,629,589,573,558,541,513,466,435,404,380,357,313,290,270,250,222,189,174,163,150,141,118,105,93],"timestamp_mouse":[1,19,39,58,80,100,120,139,159,180,200,219,239,259,279,300,320,340,359,380,399,419,440,458,479,499,519,538,559,579,599,619,639,658,679,700,720,740,760,779,800,820,839,859,879,900,918,940,960,979,999,1020,1039,1059,1078,1100,1119,1140,1159,1178,1199,1220,1240,1259,1280,1299,1319,1339,1359,1380,1399],"xSR":741.5,"ySR":573.95,"xT1":424.9,"yT1":0,"xT2":1058.1,"yT2":0,"toosoon":0,"cond_shown":"Congruent","ratio_trial":100,"L_num":11,"L_den":22,"R_num":4,"R_den":10,"correct_side":1,"subjID":"sararodriguiez34","gender":"1","school":"4","age":"9"},{"start_time":1552313435533,"click_time":1552313437231,"finger_time":1552313437011,"fix_duration":1158.9693841791295,"trial":41,"RT":1478,"MT":220,"sideResp":2,"stimulus":[],"xmouse":[786,786,786,786,786,786,786,786,786,786,786,786,786,786,786,786,786,786,786,786,786,786,786,786,786,786,786,786,786,786,786,786,786,786,786,786,786,786,786,786,786,786,786,786,786,786,786,786,786,786,786,786,786,786,786,786,786,786,786,786,786,786,786,786,786,786,786,786,786,786,786,789,794,808,825,854,879,906,936,959,987,1005,1018,1033,1058,1070],"ymouse":[609,609,609,609,609,609,609,609,609,609,609,609,609,609,609,609,609,609,609,609,609,609,609,609,609,609,609,609,609,609,609,609,609,609,609,609,609,609,609,609,609,609,609,609,609,609,609,609,609,609,609,609,609,609,609,609,609,609,609,609,609,609,609,609,609,609,609,609,609,609,609,609,604,587,562,514,465,398,328,276,214,184,163,144,111,97],"timestamp_mouse":[1,20,39,60,79,99,118,139,160,180,199,219,238,260,280,299,319,338,358,380,400,419,438,458,478,498,520,540,559,580,599,620,639,659,680,699,720,739,759,780,798,819,840,860,879,898,920,938,958,980,999,1019,1039,1059,1078,1100,1120,1140,1158,1180,1198,1219,1240,1259,1280,1300,1319,1339,1359,1379,1399,1419,1440,1460,1478,1498,1519,1540,1560,1579,1598,1620,1639,1660,1680,1698],"xSR":741.5,"ySR":573.95,"xT1":424.9,"yT1":0,"xT2":1058.1,"yT2":0,"toosoon":0,"cond_shown":"Incongruent","ratio_trial":300,"L_num":4,"L_den":20,"R_num":2,"R_den":4,"correct_side":2,"subjID":"sararodriguiez34","gender":"1","school":"4","age":"9"},{"start_time":1552313443787,"click_time":1552313445233,"finger_time":1552313445133,"fix_duration":814.0514151451057,"trial":42,"RT":1346,"MT":100,"sideResp":1,"stimulus":[],"xmouse":[774,774,774,774,774,774,774,774,774,774,774,774,774,774,774,774,774,774,774,774,774,774,774,774,774,774,774,774,774,774,773,773,773,773,773,773,773,773,773,773,773,773,773,773,773,773,773,773,773,769,764,762,762,762,762,762,762,762,762,762,762,762,762,762,762,760,760,747,663,612,574,539,524],"ymouse":[660,660,660,660,660,660,660,660,660,660,660,660,660,660,660,660,660,660,660,660,660,660,660,660,660,660,660,660,660,660,659,659,659,659,659,659,659,659,659,659,659,659,659,659,659,659,659,659,655,643,632,629,627,627,627,627,627,627,627,627,627,627,627,627,627,622,612,569,357,251,160,72,25],"timestamp_mouse":[21,37,45,64,84,106,125,144,164,186,205,226,244,266,286,304,324,344,366,385,404,426,444,466,484,504,526,545,566,584,604,626,646,666,685,706,726,745,764,785,805,826,844,864,885,906,924,944,965,986,1004,1026,1045,1065,1084,1106,1126,1146,1166,1185,1205,1225,1246,1266,1284,1306,1326,1346,1364,1384,1404,1424,1446],"xSR":741.5,"ySR":573.95,"xT1":424.9,"yT1":0,"xT2":1058.1,"yT2":0,"toosoon":0,"cond_shown":"Incongruent","ratio_trial":100,"L_num":13,"L_den":26,"R_num":6,"R_den":10,"correct_side":2,"subjID":"sararodriguiez34","gender":"1","school":"4","age":"9"},{"start_time":1552313472192,"click_time":1552313473771,"finger_time":1552313473393,"fix_duration":877.7084046228919,"trial":43,"RT":1201,"MT":378,"sideResp":2,"stimulus":[],"xmouse":[769,769,769,769,769,769,769,769,769,769,769,769,769,769,769,769,769,769,769,769,769,769,769,769,769,769,769,769,769,769,769,769,769,769,769,769,769,769,769,769,769,769,769,769,769,769,769,769,769,773,777,788,792,793,793,793,795,799,805,815,824,860,899,945,990,1038,1100,1114,1127,1136,1144,1155,1160,1164,1167,1169,1169,1166,1159,1150],"ymouse":[610,610,610,610,610,610,610,610,610,610,610,610,610,610,610,610,610,610,610,610,610,610,610,610,610,610,610,610,610,610,610,610,610,610,610,610,610,610,610,610,610,610,610,610,610,610,610,610,610,608,606,601,600,599,599,599,597,593,586,577,567,528,482,424,358,293,205,186,168,157,148,136,128,121,115,108,93,81,72,63],"timestamp_mouse":[2,19,41,61,79,99,120,141,161,181,200,219,240,260,280,301,320,341,361,379,400,420,441,460,481,501,520,539,561,580,599,620,639,659,680,700,721,739,760,781,799,820,840,860,880,900,921,941,960,980,999,1019,1040,1060,1081,1100,1119,1140,1161,1181,1201,1220,1241,1260,1281,1300,1320,1340,1360,1381,1401,1419,1439,1460,1481,1501,1520,1539,1559,1579],"xSR":741.5,"ySR":573.95,"xT1":424.9,"yT1":0,"xT2":1058.1,"yT2":0,"toosoon":0,"cond_shown":"Incongruent","ratio_trial":200,"L_num":4,"L_den":30,"R_num":1,"R_den":3,"correct_side":2,"subjID":"sararodriguiez34","gender":"1","school":"4","age":"9"},{"start_time":1552313476043,"click_time":1552313477332,"finger_time":1552313477152,"fix_duration":969.6192255030707,"trial":44,"RT":1109,"MT":180,"sideResp":2,"stimulus":[],"xmouse":[786,786,786,786,786,786,786,786,786,786,786,786,786,786,786,786,786,786,786,786,786,786,786,786,786,786,786,786,786,786,786,786,786,786,786,786,786,786,786,786,786,786,786,787,787,787,787,787,787,787,787,790,792,808,821,836,862,892,956,985,1021,1044,1065,1090,1140],"ymouse":[602,602,602,602,602,602,602,602,602,602,602,602,602,602,602,602,602,602,602,602,602,602,602,602,602,602,602,602,602,602,602,602,602,602,602,602,602,602,602,602,602,602,602,603,603,603,603,603,603,603,603,602,601,589,578,560,527,494,404,355,280,236,194,147,64],"timestamp_mouse":[12,34,49,68,88,110,130,148,169,189,209,230,248,269,289,308,330,349,368,389,410,428,449,468,489,510,529,550,569,589,610,629,648,668,689,710,729,749,768,789,810,829,850,868,889,910,928,948,969,989,1010,1029,1049,1069,1090,1109,1130,1149,1169,1188,1209,1229,1249,1268,1289],"xSR":741.5,"ySR":573.95,"xT1":424.9,"yT1":0,"xT2":1058.1,"yT2":0,"toosoon":0,"cond_shown":"Incongruent","ratio_trial":200,"L_num":9,"L_den":15,"R_num":8,"R_den":10,"correct_side":2,"subjID":"sararodriguiez34","gender":"1","school":"4","age":"9"},{"start_time":1552313479424,"click_time":1552313481271,"finger_time":1552313480832,"fix_duration":669.9112524915287,"trial":45,"RT":1408,"MT":439,"sideResp":1,"stimulus":[],"xmouse":[780,778,778,778,778,778,778,778,778,778,778,778,778,778,778,778,778,778,778,778,778,778,778,778,778,778,778,778,778,778,778,778,778,778,778,778,778,778,778,778,778,778,778,778,778,778,778,778,778,778,778,778,778,778,778,778,778,778,778,778,778,778,778,778,778,778,778,774,769,757,723,675,637,584,525,423,396,378,365,355,347,345,345,346,348,358,364,377,386,394,414,423,434],"ymouse":[626,626,626,626,626,626,626,626,626,626,626,626,626,626,626,626,626,626,626,626,626,626,626,626,626,626,626,626,626,626,626,626,626,626,626,626,626,626,626,626,626,626,626,626,626,626,626,626,626,626,626,626,626,626,626,626,626,626,626,626,626,626,626,626,626,626,626,622,619,603,553,494,450,388,334,250,226,207,190,172,146,138,131,124,118,105,98,89,80,74,62,57,51],"timestamp_mouse":[16,41,48,68,89,107,129,149,168,189,209,227,248,269,288,309,328,349,369,389,409,428,449,469,488,509,528,549,568,588,609,628,647,667,689,709,729,747,769,789,809,827,848,869,889,909,928,947,967,987,1007,1028,1048,1068,1089,1109,1129,1147,1169,1189,1208,1227,1249,1269,1288,1308,1329,1348,1368,1388,1408,1428,1449,1468,1489,1509,1528,1548,1568,1588,1609,1629,1648,1669,1688,1708,1728,1749,1767,1787,1808,1828,1847],"xSR":741.5,"ySR":573.95,"xT1":424.9,"yT1":0,"xT2":1058.1,"yT2":0,"toosoon":0,"cond_shown":"Incongruent","ratio_trial":200,"L_num":7,"L_den":10,"R_num":8,"R_den":16,"correct_side":1,"subjID":"sararodriguiez34","gender":"1","school":"4","age":"9"},{"start_time":1552313483192,"click_time":1552313484611,"finger_time":1552313484072,"fix_duration":900.507385726757,"trial":46,"RT":880,"MT":539,"sideResp":2,"stimulus":[],"xmouse":[780,780,780,780,780,780,780,780,780,780,780,780,780,780,780,780,780,780,780,780,780,780,780,780,780,780,780,780,780,780,780,780,780,780,780,780,780,780,780,781,783,789,795,804,812,825,847,859,868,878,891,906,913,921,929,937,950,955,962,974,983,996,1005,1012,1017,1023,1036,1043,1050,1055,1064],"ymouse":[595,595,595,595,595,595,595,595,595,595,595,595,595,595,595,595,595,595,595,595,595,595,595,595,595,595,595,595,595,595,595,595,595,595,595,595,595,595,595,595,594,584,579,572,565,551,520,504,486,467,441,408,391,372,351,329,285,264,240,211,192,161,146,134,127,119,105,96,88,82,75],"timestamp_mouse":[19,40,60,81,99,121,139,160,181,200,220,239,261,280,299,320,339,359,381,400,421,439,459,481,500,519,540,560,580,599,620,641,660,679,700,720,740,760,779,801,819,839,861,879,900,920,939,960,980,1000,1021,1040,1060,1079,1100,1120,1140,1159,1180,1199,1219,1240,1260,1280,1300,1319,1340,1359,1380,1399,1419],"xSR":741.5,"ySR":573.95,"xT1":424.9,"yT1":0,"xT2":1058.1,"yT2":0,"toosoon":0,"cond_shown":"Incongruent","ratio_trial":200,"L_num":3,"L_den":4,"R_num":11,"R_den":20,"correct_side":1,"subjID":"sararodriguiez34","gender":"1","school":"4","age":"9"},{"start_time":1552313488952,"click_time":1552313489952,"finger_time":1552313489832,"fix_duration":719.6970006154453,"trial":47,"RT":880,"MT":120,"sideResp":1,"stimulus":[],"xmouse":[823,823,823,823,823,823,823,823,823,823,823,823,823,823,823,823,823,823,823,823,823,823,823,823,821,819,818,818,818,817,814,813,812,810,801,792,783,779,778,776,774,771,767,757,748,658,590,532,507,502,496],"ymouse":[646,646,646,646,646,646,646,646,646,646,646,646,646,646,646,646,646,646,646,646,646,646,646,646,646,646,646,646,646,646,647,647,647,647,643,639,635,633,632,627,619,611,597,576,554,369,241,159,124,109,84],"timestamp_mouse":[10,37,40,60,79,99,120,141,160,181,201,220,241,260,281,299,320,341,360,379,399,421,440,461,481,501,520,539,561,579,600,621,639,659,681,701,719,741,761,781,799,821,841,860,880,901,921,940,959,979,1000],"xSR":741.5,"ySR":573.95,"xT1":424.9,"yT1":0,"xT2":1058.1,"yT2":0,"toosoon":0,"cond_shown":"Incongruent","ratio_trial":200,"L_num":4,"L_den":5,"R_num":6,"R_den":10,"correct_side":1,"subjID":"sararodriguiez34","gender":"1","school":"4","age":"9"},{"start_time":1552313505088,"click_time":1552313506952,"finger_time":1552313506391,"fix_duration":1174.7832367521,"trial":48,"RT":1303,"MT":561,"sideResp":1,"stimulus":[],"xmouse":[785,785,785,785,785,785,785,785,785,785,785,785,785,785,785,785,785,785,785,785,785,785,785,785,785,785,785,785,785,785,785,785,785,785,785,785,785,785,785,785,785,785,785,785,785,785,785,785,785,785,785,792,796,799,799,799,799,800,800,800,800,800,799,799,799,803,817,824,831,836,841,842,842,842,836,818,796,759,708,650,583,576,576,583,596,624,624,622,612,603,584,573,551,515],"ymouse":[612,612,612,612,612,612,612,612,612,612,612,612,612,612,612,612,612,612,612,612,612,612,612,612,612,612,612,612,612,612,612,612,612,612,612,613,613,613,613,613,613,613,613,613,613,613,613,613,613,613,613,613,613,613,613,613,613,613,613,609,607,605,600,594,587,569,552,542,533,525,510,504,500,500,497,495,488,472,440,396,321,295,269,248,229,202,192,180,165,154,133,123,109,88],"timestamp_mouse":[12,36,43,64,85,105,124,145,165,184,204,223,243,264,285,305,325,344,363,385,405,424,443,464,485,504,524,544,565,585,603,624,645,663,685,703,725,743,764,784,803,824,843,863,884,905,924,943,963,984,1003,1025,1045,1063,1085,1105,1123,1144,1163,1185,1205,1223,1243,1263,1284,1303,1323,1343,1364,1383,1405,1424,1445,1464,1485,1503,1524,1543,1564,1584,1604,1625,1645,1664,1685,1704,1725,1744,1765,1783,1804,1824,1844,1864],"xSR":741.5,"ySR":573.95,"xT1":424.9,"yT1":0,"xT2":1058.1,"yT2":0,"toosoon":0,"cond_shown":"Congruent","ratio_trial":300,"L_num":11,"L_den":22,"R_num":2,"R_den":10,"correct_side":1,"subjID":"sararodriguiez34","gender":"1","school":"4","age":"9"},{"start_time":1552313508885,"click_time":1552313510711,"finger_time":1552313509952,"fix_duration":490.7389069593435,"trial":49,"RT":1067,"MT":759,"sideResp":2,"stimulus":[],"xmouse":[770,770,770,770,770,770,770,771,771,773,773,773,774,775,775,776,777,777,777,777,777,777,777,777,777,777,777,777,777,777,777,777,777,777,777,777,777,777,778,779,780,782,783,783,783,784,785,785,786,787,788,791,792,796,799,812,821,839,873,900,934,950,1020,1053,1156,1215,1223,1225,1227,1228,1231,1243,1259,1264,1277,1288,1288,1288,1288,1288,1287,1281,1264,1222,1127,1069,1064,1064,1064,1064,1063,1064],"ymouse":[648,648,648,648,648,648,648,648,648,648,648,648,647,646,646,646,645,645,645,645,645,645,645,644,644,644,644,644,644,644,644,644,644,644,644,644,644,644,644,643,638,636,632,629,624,616,611,608,602,597,590,579,575,567,561,542,530,510,479,456,428,414,367,341,219,122,109,104,101,96,91,76,57,52,47,41,41,41,41,41,39,36,27,10,0,0,0,0,0,0,0,3],"timestamp_mouse":[14,40,47,68,87,106,127,147,166,186,207,227,247,267,288,307,328,347,367,387,407,426,447,466,487,508,528,546,566,588,606,628,648,668,687,708,728,747,767,787,807,828,847,866,887,907,927,947,968,986,1006,1027,1046,1067,1087,1107,1127,1148,1168,1186,1206,1226,1247,1267,1288,1307,1328,1348,1366,1388,1407,1427,1447,1466,1487,1507,1527,1548,1567,1587,1607,1628,1646,1667,1686,1708,1726,1747,1768,1787,1807,1826],"xSR":741.5,"ySR":573.95,"xT1":424.9,"yT1":0,"xT2":1058.1,"yT2":0,"toosoon":0,"cond_shown":"Congruent","ratio_trial":300,"L_num":1,"L_den":20,"R_num":7,"R_den":20,"correct_side":2,"subjID":"sararodriguiez34","gender":"1","school":"4","age":"9"},{"start_time":1552313516605,"click_time":1552313518151,"finger_time":1552313517652,"fix_duration":732.5555920189005,"trial":50,"RT":1047,"MT":499,"sideResp":2,"stimulus":[],"xmouse":[794,794,794,794,794,794,794,794,794,794,794,794,794,794,794,794,794,794,794,794,794,794,794,794,794,794,794,794,794,794,794,794,794,794,794,794,794,794,794,794,794,794,794,794,794,794,794,794,794,795,797,800,808,816,835,914,951,979,996,1004,1012,1014,1015,1016,1017,1017,1017,1017,1017,1017,1022,1028,1037,1047,1051,1052,1055,1065],"ymouse":[643,642,642,639,634,632,632,632,632,632,632,632,632,632,632,632,632,632,632,632,632,632,632,632,632,632,632,632,632,632,632,632,632,632,632,632,632,632,632,632,632,632,632,632,632,632,632,632,632,628,615,596,571,543,480,271,182,118,77,53,22,16,11,9,7,7,7,7,7,6,6,7,10,14,16,16,18,21],"timestamp_mouse":[15,40,48,67,87,107,126,148,168,187,207,226,248,268,286,307,327,348,367,386,406,426,447,468,487,507,526,548,566,586,608,626,647,667,686,708,727,747,766,787,808,827,848,867,886,906,927,946,968,986,1007,1027,1047,1068,1088,1107,1126,1147,1167,1186,1207,1228,1247,1267,1288,1306,1327,1348,1367,1386,1406,1426,1446,1468,1488,1507,1526,1546],"xSR":741.5,"ySR":573.95,"xT1":424.9,"yT1":0,"xT2":1058.1,"yT2":0,"toosoon":0,"cond_shown":"Congruent","ratio_trial":200,"L_num":3,"L_den":10,"R_num":14,"R_den":28,"correct_side":2,"subjID":"sararodriguiez34","gender":"1","school":"4","age":"9"},{"start_time":1552313537820,"click_time":1552313539593,"finger_time":1552313539112,"fix_duration":1066.4588502823442,"trial":51,"RT":1292,"MT":481,"sideResp":2,"stimulus":[],"xmouse":[782,782,782,782,782,782,782,782,782,782,782,782,782,782,782,782,782,782,782,782,782,782,782,782,782,782,782,782,782,782,782,782,782,782