[{"start_time":1552069786349,"click_time":1552069787569,"finger_time":1552069786355,"fix_duration":1012.1538888002946,"trial":0,"RT":6,"MT":1214,"sideResp":2,"stimulus":"img/750/randomdotsizeEA/L/10_Ratio_750_L_4_R_3.png","xmouse":[772,772,772,772,772,772,772,772,772,772,772,772,772,772,772,772,772,772,772,772,772,772,772,772,772,772,789,793,793,793,793,793,786,779,754,746,744,744,744,744,744,744,744,744,751,751,759,771,787,837,861,919,971,1021,1036,1036,1036,1037,1042,1046,1049,1059],"ymouse":[567,567,567,567,567,567,567,567,567,567,567,567,567,567,567,567,567,567,567,567,567,567,567,567,567,567,561,560,560,559,559,573,592,603,616,618,619,619,619,614,607,607,605,601,495,422,390,374,361,316,287,221,173,99,29,29,31,44,56,60,60,56],"timestamp_mouse":[5,20,39,59,81,100,120,140,160,180,200,219,240,260,280,300,320,339,359,380,399,419,441,461,480,499,520,540,560,579,600,619,639,660,679,699,720,741,760,779,800,821,840,859,879,899,919,940,960,979,999,1020,1039,1060,1081,1099,1120,1141,1160,1180,1200,1220],"xSR":741.5,"ySR":469.95,"xT1":424.9,"yT1":0,"xT2":1058.1,"yT2":0,"toosoon":0,"cond_shown":"randomdotsizeEA","ratio_trial":750,"smaller_num":"3","larger_num":"4","correct_side":1,"subjID":"SaraSofiaBohorquez31","gender":"1","age":"8","school":"4","test":{"fix_dur":[250,1500],"timestim":300,"targets_dim":[100,100],"targets_relative_coord":[0.3,0.7],"size_stim":[880,420],"start_dim":[100,100],"size_start":[300,300],"size_fix":60,"samplingrate":20,"img_types":["equaldotsize","equaldotanddens","randomdotsizeEA"],"ratios":[250,500,750,900],"rep_conds":9,"nTrials":120,"trials_to_rest":500,"Trials_order":[116,119,105,89,0,112,55,5,10,66,72,57,8,118,7,81,61,77,75,117,12,101,27,68,76,87,74,113,39,44,79,62,43,1,16,15,54,73,46,100,86,88,38,115,60,80,67,83,98,49,64,26,3,36,47,17,111,58,14,4,9,20,96,33,25,71,13,65,37,31,93,91,2,19,30,28,35,85,18,23,41,69,97,24,6,70,59,102,51,22,114,110,107,94,45,108,11,78,32,53,95,56,40,50,52,21,84,29,104,109,48,99,63,82,34,90,103,106,92,42],"cond_shown":["randomdotsizeEA","randomdotsizeEA","equaldotsize","randomdotsizeEA","equaldotsize","equaldotanddens","equaldotanddens","randomdotsizeEA","equaldotanddens","equaldotsize","equaldotsize","equaldotsize","randomdotsizeEA","equaldotanddens","equaldotanddens","equaldotsize","equaldotanddens","randomdotsizeEA","equaldotsize","equaldotsize","equaldotsize","randomdotsizeEA","equaldotsize","randomdotsizeEA","equaldotanddens","equaldotsize","randomdotsizeEA","randomdotsizeEA","equaldotsize","randomdotsizeEA","equaldotanddens","randomdotsizeEA","equaldotanddens","equaldotanddens","equaldotanddens","equaldotsize","equaldotsize","equaldotanddens","equaldotanddens","equaldotanddens","randomdotsizeEA","equaldotanddens","randomdotsizeEA","equaldotanddens","equaldotsize","randomdotsizeEA","equaldotanddens","randomdotsizeEA","randomdotsizeEA","equaldotanddens","equaldotanddens","randomdotsizeEA","equaldotsize","equaldotsize","randomdotsizeEA","randomdotsizeEA","equaldotsize","equaldotanddens","randomdotsizeEA","equaldotanddens","equaldotsize","randomdotsizeEA","equaldotsize","equaldotsize","equaldotanddens","randomdotsizeEA","equaldotanddens","randomdotsizeEA","equaldotanddens","equaldotanddens","equaldotsize","equaldotanddens","randomdotsizeEA","equaldotanddens","equaldotsize","equaldotanddens","randomdotsizeEA","equaldotanddens","equaldotsize","randomdotsizeEA","randomdotsizeEA","equaldotsize","equaldotanddens","equaldotsize","equaldotsize","equaldotanddens","randomdotsizeEA","equaldotsize","equaldotsize","equaldotanddens","equaldotsize","randomdotsizeEA","randomdotsizeEA","equaldotanddens","equaldotsize","equaldotsize","randomdotsizeEA","equaldotsize","randomdotsizeEA","randomdotsizeEA","randomdotsizeEA","randomdotsizeEA","equaldotanddens","randomdotsizeEA","equaldotanddens","equaldotsize","equaldotsize","randomdotsizeEA","randomdotsizeEA","equaldotanddens","equaldotsize","equaldotsize","equaldotsize","equaldotanddens","equaldotanddens","equaldotsize","equaldotanddens","equaldotanddens","randomdotsizeEA","equaldotsize"],"ratio_trial":[750,900,900,500,250,500,750,500,900,750,250,900,750,900,750,900,250,500,500,900,250,500,500,750,500,500,250,500,500,750,750,250,750,250,500,500,750,250,900,500,250,500,250,750,250,750,750,900,250,250,500,250,500,250,900,500,500,900,250,500,900,750,250,900,250,900,250,500,250,750,900,750,250,750,750,500,900,250,750,900,500,900,250,250,750,900,900,750,500,900,750,250,900,900,900,250,900,750,750,500,900,750,500,250,500,900,250,500,750,250,250,500,500,900,900,750,750,900,750,750],"smaller_num":["3","9","18","3","4","2","6","2","9","9","2","9","6","18","3","18","5","9","6","9","4","5","9","15","6","5","3","3","1","6","12","4","15","3","9","9","12","2","18","2","2","9","3","3","3","15","9","18","6","4","5","6","9","4","9","2","9","18","4","9","18","15","5","18","3","18","2","6","2","3","18","6","3","18","3","1","18","2","15","18","2","9","3","1","6","9","9","3","2","18","3","2","18","18","18","2","18","6","15","9","9","3","9","2","10","18","2","5","18","2","3","5","9","18","18","15","3","9","3","3"],"larger_num":["4","10","20","6","16","4","8","4","10","12","8","10","8","20","4","20","20","18","12","10","16","10","18","20","12","10","12","6","2","8","16","16","20","12","18","18","16","8","20","4","8","18","12","4","12","20","12","20","24","16","10","24","18","16","10","4","18","20","16","18","20","20","20","20","12","20","8","12","8","4","20","8","12","24","4","2","20","8","20","20","4","10","12","4","8","10","10","4","4","20","4","8","20","20","20","8","20","8","20","18","10","4","18","8","20","20","8","10","24","8","12","10","18","20","20","20","4","10","4","4"],"correct_side":[1,1,1,2,1,1,1,1,1,2,1,2,1,2,2,1,2,1,1,2,1,2,2,1,1,1,2,2,2,1,2,2,1,1,2,2,2,1,1,2,1,2,1,2,2,1,2,2,1,2,1,1,1,2,2,1,2,2,1,1,1,2,2,1,2,1,1,1,1,1,2,1,2,1,2,2,2,1,2,1,2,1,1,2,1,2,2,1,2,2,1,2,1,1,1,2,1,2,2,2,2,1,2,1,2,1,2,2,1,1,2,1,2,1,1,2,1,1,2,2],"img_shown":["img/750/randomdotsizeEA/L/10_Ratio_750_L_4_R_3.png","img/900/randomdotsizeEA/L/1_Ratio_900_L_10_R_9.png","img/900/equaldotsize/L/2_Ratio_900_L_20_R_18.png","img/500/randomdotsizeEA/R/2_Ratio_500_L_3_R_6.png","img/250/equaldotsize/L/2_Ratio_250_L_16_R_4.png","img/500/equaldotanddens/L/10_Ratio_500_L_4_R_2.png","img/750/equaldotanddens/L/13_Ratio_750_L_8_R_6.png","img/500/randomdotsizeEA/L/10_Ratio_500_L_4_R_2.png","img/900/equaldotanddens/L/1_Ratio_900_L_10_R_9.png","img/750/equaldotsize/R/15_Ratio_750_L_9_R_12.png","img/250/equaldotsize/L/7_Ratio_250_L_8_R_2.png","img/900/equaldotsize/R/7_Ratio_900_L_9_R_10.png","img/750/randomdotsizeEA/L/14_Ratio_750_L_8_R_6.png","img/900/equaldotanddens/R/12_Ratio_900_L_18_R_20.png","img/750/equaldotanddens/R/12_Ratio_750_L_3_R_4.png","img/900/equaldotsize/L/2_Ratio_900_L_20_R_18.png","img/250/equaldotanddens/R/12_Ratio_250_L_5_R_20.png","img/500/randomdotsizeEA/L/4_Ratio_500_L_18_R_9.png","img/500/equaldotsize/L/11_Ratio_500_L_12_R_6.png","img/900/equaldotsize/R/5_Ratio_900_L_9_R_10.png","img/250/equaldotsize/L/2_Ratio_250_L_16_R_4.png","img/500/randomdotsizeEA/R/14_Ratio_500_L_5_R_10.png","img/500/equaldotsize/R/1_Ratio_500_L_9_R_18.png","img/750/randomdotsizeEA/L/1_Ratio_750_L_20_R_15.png","img/500/equaldotanddens/L/13_Ratio_500_L_12_R_6.png","img/500/equaldotsize/L/7_Ratio_500_L_10_R_5.png","img/250/randomdotsizeEA/R/11_Ratio_250_L_3_R_12.png","img/500/randomdotsizeEA/R/2_Ratio_500_L_3_R_6.png","img/500/equaldotsize/R/12_Ratio_500_L_1_R_2.png","img/750/randomdotsizeEA/L/13_Ratio_750_L_8_R_6.png","img/750/equaldotanddens/R/11_Ratio_750_L_12_R_16.png","img/250/randomdotsizeEA/R/10_Ratio_250_L_4_R_16.png","img/750/equaldotanddens/L/1_Ratio_750_L_20_R_15.png","img/250/equaldotanddens/L/15_Ratio_250_L_12_R_3.png","img/500/equaldotanddens/R/6_Ratio_500_L_9_R_18.png","img/500/equaldotsize/R/6_Ratio_500_L_9_R_18.png","img/750/equaldotsize/R/11_Ratio_750_L_12_R_16.png","img/250/equaldotanddens/L/1_Ratio_250_L_8_R_2.png","img/900/equaldotanddens/L/10_Ratio_900_L_20_R_18.png","img/500/equaldotanddens/R/9_Ratio_500_L_2_R_4.png","img/250/randomdotsizeEA/L/1_Ratio_250_L_8_R_2.png","img/500/equaldotanddens/R/1_Ratio_500_L_9_R_18.png","img/250/randomdotsizeEA/L/14_Ratio_250_L_12_R_3.png","img/750/equaldotanddens/R/7_Ratio_750_L_3_R_4.png","img/250/equaldotsize/R/4_Ratio_250_L_3_R_12.png","img/750/randomdotsizeEA/L/1_Ratio_750_L_20_R_15.png","img/750/equaldotanddens/R/15_Ratio_750_L_9_R_12.png","img/900/randomdotsizeEA/R/12_Ratio_900_L_18_R_20.png","img/250/randomdotsizeEA/L/5_Ratio_250_L_24_R_6.png","img/250/equaldotanddens/R/10_Ratio_250_L_4_R_16.png","img/500/equaldotanddens/L/7_Ratio_500_L_10_R_5.png","img/250/randomdotsizeEA/L/5_Ratio_250_L_24_R_6.png","img/500/equaldotsize/L/4_Ratio_500_L_18_R_9.png","img/250/equaldotsize/R/10_Ratio_250_L_4_R_16.png","img/900/randomdotsizeEA/R/5_Ratio_900_L_9_R_10.png","img/500/randomdotsizeEA/L/5_Ratio_500_L_4_R_2.png","img/500/equaldotsize/R/6_Ratio_500_L_9_R_18.png","img/900/equaldotanddens/R/9_Ratio_900_L_18_R_20.png","img/250/randomdotsizeEA/L/2_Ratio_250_L_16_R_4.png","img/500/equaldotanddens/L/4_Ratio_500_L_18_R_9.png","img/900/equaldotsize/L/10_Ratio_900_L_20_R_18.png","img/750/randomdotsizeEA/R/5_Ratio_750_L_15_R_20.png","img/250/equaldotsize/R/12_Ratio_250_L_5_R_20.png","img/900/equaldotsize/L/4_Ratio_900_L_20_R_18.png","img/250/equaldotanddens/R/11_Ratio_250_L_3_R_12.png","img/900/randomdotsizeEA/L/4_Ratio_900_L_20_R_18.png","img/250/equaldotanddens/L/7_Ratio_250_L_8_R_2.png","img/500/randomdotsizeEA/L/13_Ratio_500_L_12_R_6.png","img/250/equaldotanddens/L/1_Ratio_250_L_8_R_2.png","img/750/equaldotanddens/L/10_Ratio_750_L_4_R_3.png","img/900/equaldotsize/R/12_Ratio_900_L_18_R_20.png","img/750/equaldotanddens/L/14_Ratio_750_L_8_R_6.png","img/250/randomdotsizeEA/R/9_Ratio_250_L_3_R_12.png","img/750/equaldotanddens/L/6_Ratio_750_L_24_R_18.png","img/750/equaldotsize/R/12_Ratio_750_L_3_R_4.png","img/500/equaldotanddens/R/15_Ratio_500_L_1_R_2.png","img/900/randomdotsizeEA/R/12_Ratio_900_L_18_R_20.png","img/250/equaldotanddens/L/7_Ratio_250_L_8_R_2.png","img/750/equaldotsize/R/3_Ratio_750_L_15_R_20.png","img/900/randomdotsizeEA/L/4_Ratio_900_L_20_R_18.png","img/500/randomdotsizeEA/R/9_Ratio_500_L_2_R_4.png","img/900/equaldotsize/L/1_Ratio_900_L_10_R_9.png","img/250/equaldotanddens/L/15_Ratio_250_L_12_R_3.png","img/250/equaldotsize/R/8_Ratio_250_L_1_R_4.png","img/750/equaldotsize/L/14_Ratio_750_L_8_R_6.png","img/900/equaldotanddens/R/15_Ratio_900_L_9_R_10.png","img/900/randomdotsizeEA/R/5_Ratio_900_L_9_R_10.png","img/750/equaldotsize/L/10_Ratio_750_L_4_R_3.png","img/500/equaldotsize/R/9_Ratio_500_L_2_R_4.png","img/900/equaldotanddens/R/9_Ratio_900_L_18_R_20.png","img/750/equaldotsize/L/9_Ratio_750_L_4_R_3.png","img/250/randomdotsizeEA/R/13_Ratio_250_L_2_R_8.png","img/900/randomdotsizeEA/L/10_Ratio_900_L_20_R_18.png","img/900/equaldotanddens/L/2_Ratio_900_L_20_R_18.png","img/900/equaldotsize/L/4_Ratio_900_L_20_R_18.png","img/250/equaldotsize/R/13_Ratio_250_L_2_R_8.png","img/900/randomdotsizeEA/L/2_Ratio_900_L_20_R_18.png","img/750/equaldotsize/R/2_Ratio_750_L_6_R_8.png","img/750/randomdotsizeEA/R/3_Ratio_750_L_15_R_20.png","img/500/randomdotsizeEA/R/6_Ratio_500_L_9_R_18.png","img/900/randomdotsizeEA/R/15_Ratio_900_L_9_R_10.png","img/750/randomdotsizeEA/L/10_Ratio_750_L_4_R_3.png","img/500/equaldotanddens/R/6_Ratio_500_L_9_R_18.png","img/250/randomdotsizeEA/L/7_Ratio_250_L_8_R_2.png","img/500/equaldotanddens/R/3_Ratio_500_L_10_R_20.png","img/900/equaldotsize/L/10_Ratio_900_L_20_R_18.png","img/250/equaldotsize/R/13_Ratio_250_L_2_R_8.png","img/500/randomdotsizeEA/R/14_Ratio_500_L_5_R_10.png","img/750/randomdotsizeEA/L/6_Ratio_750_L_24_R_18.png","img/250/equaldotanddens/L/7_Ratio_250_L_8_R_2.png","img/250/equaldotsize/R/9_Ratio_250_L_3_R_12.png","img/500/equaldotsize/L/7_Ratio_500_L_10_R_5.png","img/500/equaldotsize/R/1_Ratio_500_L_9_R_18.png","img/900/equaldotanddens/L/4_Ratio_900_L_20_R_18.png","img/900/equaldotanddens/L/8_Ratio_900_L_20_R_18.png","img/750/equaldotsize/R/4_Ratio_750_L_15_R_20.png","img/750/equaldotanddens/L/9_Ratio_750_L_4_R_3.png","img/900/equaldotanddens/L/1_Ratio_900_L_10_R_9.png","img/750/randomdotsizeEA/R/7_Ratio_750_L_3_R_4.png","img/750/equaldotsize/R/7_Ratio_750_L_3_R_4.png"],"Rat0":[["12_Ratio_0_L_9_R_0.png","13_Ratio_0_L_6_R_0.png","5_Ratio_0_L_2_R_0.png","6_Ratio_0_L_4_R_0.png","8_Ratio_0_L_6_R_0.png"],["1_Ratio_0_L_0_R_17.png","10_Ratio_0_L_0_R_22.png","11_Ratio_0_L_0_R_1.png","14_Ratio_0_L_0_R_24.png","15_Ratio_0_L_0_R_4.png","2_Ratio_0_L_0_R_5.png","3_Ratio_0_L_0_R_17.png","4_Ratio_0_L_0_R_7.png","7_Ratio_0_L_0_R_19.png","9_Ratio_0_L_0_R_15.png"]],"Rat250":[["1_Ratio_250_L_8_R_2.png","14_Ratio_250_L_12_R_3.png","15_Ratio_250_L_12_R_3.png","2_Ratio_250_L_16_R_4.png","3_Ratio_250_L_8_R_2.png","5_Ratio_250_L_24_R_6.png","7_Ratio_250_L_8_R_2.png"],["10_Ratio_250_L_4_R_16.png","11_Ratio_250_L_3_R_12.png","12_Ratio_250_L_5_R_20.png","13_Ratio_250_L_2_R_8.png","4_Ratio_250_L_3_R_12.png","6_Ratio_250_L_6_R_24.png","8_Ratio_250_L_1_R_4.png","9_Ratio_250_L_3_R_12.png"]],"Rat500":[["10_Ratio_500_L_4_R_2.png","11_Ratio_500_L_12_R_6.png","13_Ratio_500_L_12_R_6.png","4_Ratio_500_L_18_R_9.png","5_Ratio_500_L_4_R_2.png","7_Ratio_500_L_10_R_5.png","8_Ratio_500_L_8_R_4.png"],["1_Ratio_500_L_9_R_18.png","12_Ratio_500_L_1_R_2.png","14_Ratio_500_L_5_R_10.png","15_Ratio_500_L_1_R_2.png","2_Ratio_500_L_3_R_6.png","3_Ratio_500_L_10_R_20.png","6_Ratio_500_L_9_R_18.png","9_Ratio_500_L_2_R_4.png"]],"Rat750":[["1_Ratio_750_L_20_R_15.png","10_Ratio_750_L_4_R_3.png","13_Ratio_750_L_8_R_6.png","14_Ratio_750_L_8_R_6.png","6_Ratio_750_L_24_R_18.png","8_Ratio_750_L_4_R_3.png","9_Ratio_750_L_4_R_3.png"],["11_Ratio_750_L_12_R_16.png","12_Ratio_750_L_3_R_4.png","15_Ratio_750_L_9_R_12.png","2_Ratio_750_L_6_R_8.png","3_Ratio_750_L_15_R_20.png","4_Ratio_750_L_15_R_20.png","5_Ratio_750_L_15_R_20.png","7_Ratio_750_L_3_R_4.png"]],"Rat900":[["1_Ratio_900_L_10_R_9.png","10_Ratio_900_L_20_R_18.png","2_Ratio_900_L_20_R_18.png","4_Ratio_900_L_20_R_18.png","8_Ratio_900_L_20_R_18.png"],["11_Ratio_900_L_18_R_20.png","12_Ratio_900_L_18_R_20.png","13_Ratio_900_L_18_R_20.png","14_Ratio_900_L_18_R_20.png","15_Ratio_900_L_9_R_10.png","3_Ratio_900_L_9_R_10.png","5_Ratio_900_L_9_R_10.png","6_Ratio_900_L_9_R_10.png","7_Ratio_900_L_9_R_10.png","9_Ratio_900_L_18_R_20.png"]],"Rat1000":[["10_Ratio_1000_L_16_R_16.png","11_Ratio_1000_L_6_R_6.png","12_Ratio_1000_L_14_R_14.png","13_Ratio_1000_L_20_R_20.png","15_Ratio_1000_L_15_R_15.png","2_Ratio_1000_L_17_R_17.png","4_Ratio_1000_L_9_R_9.png","5_Ratio_1000_L_6_R_6.png","6_Ratio_1000_L_19_R_19.png","8_Ratio_1000_L_14_R_14.png","9_Ratio_1000_L_25_R_25.png"],["1_Ratio_1000_L_1_R_1.png","14_Ratio_1000_L_17_R_17.png","3_Ratio_1000_L_17_R_17.png","7_Ratio_1000_L_6_R_6.png"]]}},{"start_time":1552069790180,"click_time":1552069794389,"finger_time":1552069793768,"fix_duration":250,"trial":1,"RT":3588,"MT":621,"sideResp":1,"stimulus":"img/900/randomdotsizeEA/L/1_Ratio_900_L_10_R_9.png","xmouse":[793,793,793,793,793,793,793,793,793,793,793,793,793,793,793,793,793,793,793,793,793,793,793,793,793,793,793,793,793,793,793,793,793,793,793,793,793,793,793,793,793,793,793,793,793,793,793,793,793,793,793,793,793,793,793,793,793,793,793,793,793,793,793,793,793,793,793,793,793,793,793,793,793,793,793,793,793,793,793,793,793,793,793,793,793,793,793,793,793,793,793,793,793,793,793,793,793,793,793,793,793,793,793,793,793,793,793,793,793,793,793,793,793,793,793,793,793,793,793,793,793,793,793,793,793,793,793,793,793,793,793,793,793,793,793,793,793,793,793,793,793,793,793,793,793,793,793,793,793,793,793,793,793,793,793,793,793,793,793,793,793,793,793,793,793,793,793,793,793,793,793,793,793,800,810,816,817,817,817,812,799,766,717,578,506,410,373,352,338,338,338,338,339,342,342,342,343,345,359,367,371,372,374,376,377,378,380,381,397,420,450],"ymouse":[639,639,639,639,639,639,639,639,639,639,639,639,639,639,639,639,639,639,639,639,639,639,639,639,639,639,639,639,639,639,639,639,639,639,639,639,639,639,639,639,639,639,639,639,639,639,639,639,639,639,639,639,639,639,639,639,639,639,639,639,639,639,639,639,639,639,639,639,639,639,639,639,639,639,639,639,639,639,639,639,639,639,639,639,639,639,639,639,639,639,639,639,639,639,639,639,639,639,639,639,639,639,639,639,639,639,639,639,639,639,639,639,639,639,639,639,639,639,639,639,639,639,639,639,639,639,639,639,639,639,639,639,639,639,639,639,639,639,639,639,639,639,639,639,639,639,639,639,639,639,639,639,639,639,639,639,639,639,639,639,639,639,639,639,639,639,639,639,639,639,639,639,639,634,627,619,615,611,591,572,546,497,434,319,276,221,192,171,131,113,94,73,59,54,54,54,54,54,62,65,67,67,69,69,70,70,72,72,76,80,84],"timestamp_mouse":[15,37,49,68,90,109,130,149,168,189,208,229,249,269,289,309,328,349,369,389,409,430,449,470,489,510,530,549,569,589,609,629,650,670,689,709,730,748,768,789,808,829,849,868,889,908,930,948,969,988,1010,1030,1049,1069,1088,1109,1129,1150,1170,1189,1209,1230,1248,1269,1288,1309,1328,1348,1370,1389,1410,1430,1449,1468,1490,1508,1528,1550,1568,1590,1609,1629,1649,1669,1688,1709,1729,1750,1768,1788,1809,1828,1848,1869,1889,1909,1928,1950,1968,1989,2008,2029,2048,2068,2088,2108,2130,2148,2168,2188,2210,2228,2249,2269,2289,2309,2328,2349,2368,2389,2410,2429,2450,2468,2488,2509,2528,2548,2570,2588,2608,2630,2649,2668,2689,2710,2728,2749,2770,2788,2808,2830,2848,2869,2889,2910,2928,2948,2970,2990,3009,3029,3049,3068,3088,3108,3129,3149,3169,3188,3208,3229,3248,3268,3288,3309,3330,3350,3369,3388,3408,3430,3448,3468,3489,3508,3528,3549,3569,3588,3609,3629,3648,3669,3689,3708,3728,3749,3768,3788,3809,3829,3850,3868,3889,3908,3929,3949,3968,3988,4009,4029,4048,4069,4089,4108,4128,4148,4168,4188,4209],"xSR":741.5,"ySR":573.95,"xT1":424.9,"yT1":0,"xT2":1058.1,"yT2":0,"toosoon":0,"cond_shown":"randomdotsizeEA","ratio_trial":900,"smaller_num":"9","larger_num":"10","correct_side":1,"subjID":"SaraSofiaBohorquez31","gender":"1","age":"8","school":"4"},{"start_time":1552069797372,"click_time":1552069804469,"finger_time":1552069803409,"fix_duration":1402.6913152366376,"trial":2,"RT":6037,"MT":1060,"sideResp":1,"stimulus":"img/900/equaldotsize/L/2_Ratio_900_L_20_R_18.png","xmouse":[779,779,779,779,779,779,779,779,779,779,779,779,779,779,779,779,779,779,779,779,779,779,779,779,779,779,779,779,779,779,779,779,779,779,779,779,779,779,779,779,779,779,779,779,779,779,779,779,779,779,779,779,779,779,779,779,779,779,779,779,779,779,779,779,779,779,779,779,779,779,779,779,779,779,779,779,779,779,779,779,779,779,779,779,779,779,779,779,779,779,779,779,779,779,779,779,779,779,779,779,779,779,779,779,779,779,779,779,779,779,779,779,779,779,779,779,779,779,779,779,779,779,779,779,779,779,779,779,779,779,779,779,779,779,779,779,779,779,779,779,779,779,779,779,779,779,779,779,779,779,779,779,779,779,779,779,779,779,779,779,779,779,779,779,779,779,779,779,779,779,779,779,779,779,779,779,779,779,779,779,779,779,779,779,779,779,779,779,779,779,779,779,779,779,779,779,779,779,779,779,779,779,779,779,779,779,779,779,779,779,779,779,779,779,779,779,779,779,779,779,779,779,779,779,779,779,779,779,779,779,779,779,779,779,779,779,779,779,779,779,779,779,779,779,779,779,779,779,779,779,779,779,779,779,779,779,779,779,779,779,779,779,779,779,779,779,779,779,779,779,779,779,779,779,779,779,779,779,779,779,779,779,779,779,779,779,779,779,779,779,779,779,779,779,779,779,779,779,779,779,786,790,792,791,775,774,773,773,773,773,773,773,773,773,773,773,773,773,773,773,773,773,773,773,773,773,773,773,768,752,737,730,725,720,707,703,697,688,670,617,600,587,583,579,572,572,572,572,572,572,561,548,530,508,460],"ymouse":[670,670,670,670,670,670,670,670,670,670,670,670,670,670,670,670,670,670,670,670,670,670,670,670,670,670,670,670,670,670,670,670,670,670,670,670,670,670,670,670,670,670,670,670,670,670,670,670,670,670,670,670,670,670,670,670,670,670,670,670,670,670,670,670,670,670,670,670,670,670,670,670,670,670,670,670,670,670,670,670,670,670,670,670,670,670,670,670,670,670,670,670,670,670,670,670,670,670,670,670,670,670,670,670,670,670,670,670,670,670,670,670,670,670,670,670,670,670,670,670,670,670,670,670,670,670,670,670,670,670,670,670,670,670,670,670,670,670,670,670,670,670,670,670,670,670,670,670,670,670,670,670,670,670,670,670,670,670,670,670,670,670,670,670,670,670,670,670,670,670,670,670,670,670,670,670,670,670,670,670,670,670,670,670,670,670,670,670,670,670,670,670,670,670,670,670,670,670,670,670,670,670,670,670,670,670,670,670,670,670,670,670,670,670,670,670,670,670,670,670,670,670,670,670,670,670,670,670,670,670,670,670,670,670,670,670,670,670,670,670,670,670,670,670,670,670,670,670,670,670,670,670,670,670,670,670,670,670,670,670,670,670,670,670,670,670,670,670,670,670,670,670,670,670,670,670,670,670,670,670,670,670,670,670,670,670,670,670,670,670,670,670,670,670,670,670,670,670,670,670,620,573,424,328,260,259,259,259,259,259,259,259,259,259,259,259,259,259,259,259,259,259,259,259,259,259,259,259,259,261,261,261,260,259,258,257,256,254,246,216,203,193,189,185,177,176,176,176,176,176,166,152,137,115,83],"timestamp_mouse":[18,41,58,76,97,117,137,158,177,197,218,237,257,277,297,317,336,357,376,396,418,438,457,477,497,516,536,557,577,597,617,637,657,677,697,718,737,756,776,798,816,837,858,877,897,916,937,957,977,996,1016,1036,1057,1077,1096,1118,1137,1158,1177,1196,1216,1237,1257,1277,1297,1317,1338,1356,1377,1397,1417,1437,1457,1477,1496,1517,1537,1558,1577,1598,1617,1637,1658,1677,1697,1717,1737,1757,1777,1798,1818,1838,1858,1877,1897,1916,1936,1958,1976,1997,2016,2037,2057,2077,2098,2118,2137,2157,2178,2198,2218,2237,2257,2277,2296,2316,2336,2356,2378,2398,2416,2437,2457,2476,2498,2516,2537,2556,2578,2598,2617,2638,2658,2676,2697,2718,2736,2756,2776,2797,2817,2837,2857,2877,2897,2917,2936,2956,2977,2998,3016,3036,3056,3076,3096,3117,3136,3156,3176,3197,3216,3236,3256,3276,3297,3316,3337,3356,3376,3396,3416,3436,3456,3476,3496,3516,3536,3557,3577,3597,3616,3637,3657,3678,3698,3718,3738,3756,3778,3798,3817,3837,3857,3876,3897,3918,3937,3957,3977,3997,4018,4036,4057,4078,4096,4117,4137,4158,4176,4197,4218,4236,4257,4278,4296,4317,4337,4357,4376,4398,4416,4436,4458,4477,4498,4516,4536,4556,4578,4597,4616,4636,4656,4677,4697,4717,4738,4758,4776,4798,4816,4837,4858,4876,4896,4917,4937,4958,4978,4996,5017,5037,5056,5078,5098,5117,5142,5156,5176,5198,5218,5237,5257,5278,5297,5317,5337,5358,5377,5396,5417,5436,5457,5477,5497,5518,5536,5557,5577,5596,5618,5637,5657,5677,5696,5717,5738,5758,5776,5796,5816,5838,5856,5877,5897,5916,5938,5957,5977,5997,6017,6037,6056,6077,6096,6116,6137,6157,6177,6198,6217,6237,6256,6277,6297,6318,6337,6358,6377,6396,6417,6436,6456,6476,6496,6518,6537,6557,6578,6596,6616,6636,6656,6677,6696,6716,6736,6756,6777,6796,6818,6836,6857,6876,6896,6918,6937,6957,6977,6997,7017,7036,7057,7077,7096],"xSR":741.5,"ySR":573.95,"xT1":424.9,"yT1":0,"xT2":1058.1,"yT2":0,"toosoon":0,"cond_shown":"equaldotsize","ratio_trial":900,"smaller_num":"18","larger_num":"20","correct_side":1,"subjID":"SaraSofiaBohorquez31","gender":"1","age":"8","school":"4"},{"start_time":1552069806616,"click_time":1552069809549,"finger_time":1552069808849,"fix_duration":1184.8023554565498,"trial":3,"RT":2233,"MT":700,"sideResp":2,"stimulus":"img/500/randomdotsizeEA/R/2_Ratio_500_L_3_R_6.png","xmouse":[773,773,773,773,773,773,773,773,773,773,773,773,772,772,772,772,772,772,772,772,772,772,772,772,772,772,772,772,772,772,772,772,772,772,772,772,772,772,772,772,772,772,771,766,761,756,753,751,751,751,750,750,750,749,749,749,749,749,749,749,749,748,748,748,748,747,746,744,744,744,744,744,744,743,743,743,743,743,743,743,743,743,743,743,743,743,743,743,743,743,743,743,743,743,743,743,743,743,743,746,747,747,748,749,751,754,757,795,814,828,839,849,858,891,917,925,949,967,998,1009,1019,1024,1028,1028,1028,1027,1022,1015,1012,1012,1013,1018,1030,1041,1053,1066,1076,1086,1094,1095,1095,1095,1091,1081,1078,1074,1073],"ymouse":[635,635,635,635,635,635,635,635,635,635,635,635,634,634,634,634,634,634,634,634,634,634,634,634,634,634,634,634,634,634,634,634,634,634,634,634,634,634,634,634,634,634,634,634,633,633,633,632,632,632,632,632,632,631,631,631,631,631,631,631,631,631,632,632,632,632,632,632,632,632,632,632,632,632,632,632,632,632,632,632,632,632,632,632,632,632,632,632,632,632,632,632,632,632,632,632,632,632,632,632,632,633,633,633,633,632,632,606,594,583,575,568,562,532,515,510,496,485,466,455,443,430,399,384,371,357,341,318,293,280,271,259,244,236,230,225,220,214,206,200,190,178,164,132,119,107,98],"timestamp_mouse":[13,34,53,72,93,112,133,153,173,194,212,233,253,273,294,312,333,352,373,392,414,432,453,472,492,513,534,553,573,592,612,634,653,673,692,713,732,753,772,793,814,834,853,872,893,912,933,953,973,993,1013,1033,1053,1073,1093,1114,1134,1153,1174,1192,1213,1233,1254,1274,1294,1312,1333,1353,1372,1393,1414,1432,1453,1472,1492,1513,1534,1553,1573,1592,1612,1632,1653,1672,1692,1712,1734,1754,1774,1793,1813,1834,1854,1874,1893,1912,1932,1953,1974,1993,2013,2032,2054,2073,2093,2113,2133,2153,2173,2192,2213,2233,2252,2272,2292,2312,2333,2353,2372,2392,2412,2432,2453,2472,2493,2513,2533,2552,2573,2592,2613,2633,2654,2673,2693,2712,2733,2752,2772,2792,2813,2832,2852,2872,2893,2912,2933],"xSR":741.5,"ySR":573.95,"xT1":424.9,"yT1":0,"xT2":1058.1,"yT2":0,"toosoon":0,"cond_shown":"randomdotsizeEA","ratio_trial":500,"smaller_num":"3","larger_num":"6","correct_side":2,"subjID":"SaraSofiaBohorquez31","gender":"1","age":"8","school":"4"},{"start_time":1552069811019,"click_time":1552069812589,"finger_time":1552069811810,"fix_duration":347.3702283314822,"trial":4,"RT":791,"MT":779,"sideResp":1,"stimulus":"img/250/equaldotsize/L/2_Ratio_250_L_16_R_4.png","xmouse":[823,823,823,823,823,823,823,823,823,823,823,823,823,823,823,823,823,823,823,823,823,823,823,823,823,823,823,823,823,823,823,823,823,823,823,823,823,822,805,787,769,756,748,739,736,733,731,728,720,715,711,706,699,677,673,651,634,618,570,529,511,497,482,475,475,475,474,474,474,474,474,474,478,483,484,485,486,486,486],"ymouse":[638,638,638,638,638,638,638,638,638,638,638,638,638,638,638,638,638,638,638,638,638,638,638,638,638,638,638,638,638,638,638,638,638,638,638,638,638,639,602,556,511,485,470,458,453,441,428,412,386,370,356,338,325,288,280,260,250,241,218,201,194,187,180,171,170,166,164,161,154,150,146,140,135,124,118,112,108,101,93],"timestamp_mouse":[20,39,51,70,90,109,129,151,170,190,210,229,251,269,289,310,329,351,371,389,409,429,449,470,490,509,529,549,569,591,610,630,649,669,691,711,730,749,769,791,811,829,850,869,890,909,929,949,969,990,1010,1029,1051,1070,1089,1109,1130,1149,1170,1189,1209,1229,1249,1270,1290,1309,1329,1349,1369,1390,1410,1430,1449,1469,1489,1509,1531,1549,1570],"xSR":741.5,"ySR":573.95,"xT1":424.9,"yT1":0,"xT2":1058.1,"yT2":0,"toosoon":0,"cond_shown":"equaldotsize","ratio_trial":250,"smaller_num":"4","larger_num":"16","correct_side":1,"subjID":"SaraSofiaBohorquez31","gender":"1","age":"8","school":"4"},{"start_time":1552069815111,"click_time":1552069816289,"finger_time":1552069816008,"fix_duration":1339.4991312452116,"trial":5,"RT":897,"MT":281,"sideResp":1,"stimulus":"img/500/equaldotanddens/L/10_Ratio_500_L_4_R_2.png","xmouse":[813,813,813,813,813,813,813,813,813,813,813,813,813,813,813,813,813,813,813,813,813,813,813,813,813,813,813,813,813,813,813,813,813,813,813,813,813,813,813,813,813,813,810,806,763,731,695,666,627,615,604,597,590,578,570,560,548,539,494],"ymouse":[642,642,642,642,642,642,642,642,642,642,642,642,642,642,642,642,642,642,642,642,642,642,642,642,642,642,642,642,642,642,642,642,642,642,642,642,642,642,642,642,642,642,635,623,522,464,410,369,313,293,274,262,245,205,180,156,134,122,86],"timestamp_mouse":[18,43,58,77,98,117,139,157,177,197,219,237,259,278,297,317,338,357,377,397,419,439,457,477,499,518,538,558,578,597,617,638,657,677,698,719,737,757,778,798,819,839,858,877,897,917,937,958,978,997,1018,1038,1058,1078,1098,1118,1137,1157,1178],"xSR":741.5,"ySR":573.95,"xT1":424.9,"yT1":0,"xT2":1058.1,"yT2":0,"toosoon":0,"cond_shown":"equaldotanddens","ratio_trial":500,"smaller_num":"2","larger_num":"4","correct_side":1,"subjID":"SaraSofiaBohorquez31","gender":"1","age":"8","school":"4"},{"start_time":1552069817666,"click_time":1552069818728,"finger_time":1552069818448,"fix_duration":674.6025101391019,"trial":6,"RT":782,"MT":280,"sideResp":1,"stimulus":"img/750/equaldotanddens/L/13_Ratio_750_L_8_R_6.png","xmouse":[804,804,804,804,804,804,804,804,804,804,804,804,804,804,803,803,802,800,798,798,798,798,798,798,798,798,798,798,797,795,793,788,784,782,780,779,770,759,732,725,703,690,683,676,659,641,613,603,594,577,546,531,519],"ymouse":[635,635,635,635,635,635,635,635,635,635,635,635,635,635,635,635,635,635,635,635,635,635,635,635,635,635,635,635,635,635,635,635,635,635,635,635,626,613,585,575,524,453,419,382,337,294,232,208,186,155,123,110,97],"timestamp_mouse":[20,43,64,83,103,123,143,164,182,202,224,242,262,284,303,322,343,362,382,403,424,442,463,484,503,522,544,564,582,603,623,644,663,683,702,723,743,763,782,803,822,842,863,884,903,922,942,963,983,1004,1024,1042,1062],"xSR":741.5,"ySR":573.95,"xT1":424.9,"yT1":0,"xT2":1058.1,"yT2":0,"toosoon":0,"cond_shown":"equaldotanddens","ratio_trial":750,"smaller_num":"6","larger_num":"8","correct_side":1,"subjID":"SaraSofiaBohorquez31","gender":"1","age":"8","school":"4"},{"start_time":1552069821072,"click_time":1552069827009,"finger_time":1552069825868,"fix_duration":1462.3454386551743,"trial":7,"RT":4796,"MT":1141,"sideResp":1,"stimulus":"img/500/randomdotsizeEA/L/10_Ratio_500_L_4_R_2.png","xmouse":[773,773,773,773,773,773,773,773,773,773,773,773,773,773,773,773,773,773,773,773,773,773,773,773,773,773,773,773,773,773,773,773,773,773,773,773,773,773,773,773,773,773,773,773,773,773,773,773,773,773,773,773,773,773,773,773,773,773,773,773,773,773,773,773,773,773,773,773,773,773,773,773,773,773,773,773,773,773,773,773,773,773,773,773,773,773,773,773,773,773,773,773,773,773,773,773,773,773,773,773,773,773,773,773,773,773,773,773,773,773,773,773,773,773,773,773,773,773,773,773,773,773,773,773,773,773,773,773,773,773,773,773,773,773,773,773,773,773,773,773,773,773,773,773,773,773,773,773,773,773,773,773,773,773,773,773,773,773,773,773,773,773,773,773,773,773,773,773,773,773,773,773,773,773,773,773,773,773,773,773,773,773,773,773,773,773,773,773,773,773,773,773,773,773,773,773,773,773,773,773,773,773,773,773,773,773,773,773,773,773,773,773,773,773,773,773,773,773,773,773,773,773,773,773,773,773,773,773,773,773,773,773,773,773,773,773,773,763,750,741,734,723,718,713,702,691,679,678,678,676,673,666,661,657,656,656,658,665,665,666,666,665,660,654,646,638,637,628,620,613,606,599,598,597,593,592,584,579,579,579,578,578,578,578,578,578,578,578,578,578,578,578,575,564,554,540,521],"ymouse":[614,615,616,616,616,616,616,616,616,616,616,616,616,616,616,616,616,616,616,616,616,616,616,616,616,616,616,616,616,616,616,616,616,616,616,616,616,616,616,616,616,616,616,616,616,616,616,616,616,616,616,616,616,616,616,616,616,616,616,616,616,616,616,616,616,616,616,616,616,616,616,616,616,616,616,616,616,616,616,616,616,616,616,616,616,616,616,616,616,616,616,616,616,616,616,616,616,616,616,616,616,616,616,616,616,616,616,616,616,616,616,616,616,616,616,616,616,616,616,616,616,616,616,616,616,616,616,616,616,616,616,616,616,616,616,616,616,616,616,616,616,616,616,616,616,616,616,616,616,616,616,616,616,616,616,616,616,616,616,616,616,616,616,616,616,616,616,616,616,616,616,616,616,616,616,616,616,616,616,616,616,616,616,616,616,616,616,616,616,616,616,616,616,616,616,616,616,616,616,616,616,616,616,616,616,616,616,616,616,616,616,616,616,616,616,616,616,616,616,616,616,616,616,616,616,616,616,616,616,616,616,616,616,616,616,616,616,602,594,587,581,572,570,567,564,560,556,555,555,552,546,519,497,473,451,429,405,352,343,332,321,300,288,279,269,260,258,254,251,248,244,240,239,236,223,217,193,162,155,155,155,145,144,144,144,144,144,144,144,144,144,144,141,128,112,89,59],"timestamp_mouse":[18,36,56,76,97,117,137,156,177,197,218,238,256,276,298,316,336,356,378,398,418,436,458,477,497,516,537,556,577,598,616,636,658,676,697,717,736,757,776,798,818,838,857,878,896,918,938,957,976,997,1017,1036,1058,1077,1096,1117,1137,1156,1177,1197,1217,1236,1256,1277,1298,1317,1336,1357,1377,1397,1416,1436,1458,1477,1496,1517,1536,1557,1576,1597,1617,1637,1657,1676,1696,1717,1737,1757,1776,1797,1817,1836,1856,1877,1898,1918,1937,1956,1976,1997,2017,2037,2057,2077,2098,2117,2136,2156,2177,2196,2218,2237,2256,2278,2298,2317,2337,2357,2376,2398,2418,2436,2458,2478,2497,2518,2537,2557,2577,2596,2616,2636,2656,2677,2698,2718,2737,2757,2776,2796,2817,2837,2857,2876,2897,2917,2936,2957,2976,2998,3018,3037,3056,3077,3098,3117,3137,3157,3176,3197,3217,3236,3257,3277,3298,3316,3336,3358,3376,3396,3417,3437,3457,3477,3498,3518,3537,3557,3577,3597,3616,3637,3657,3676,3696,3716,3736,3758,3777,3797,3817,3836,3856,3876,3897,3916,3936,3957,3976,3997,4016,4037,4058,4077,4096,4117,4137,4156,4177,4197,4218,4238,4257,4277,4296,4317,4337,4357,4378,4398,4417,4437,4456,4477,4496,4517,4538,4557,4578,4597,4617,4637,4656,4677,4696,4718,4737,4756,4776,4796,4817,4837,4856,4876,4896,4917,4936,4957,4976,4996,5016,5037,5057,5077,5096,5116,5136,5157,5176,5196,5216,5237,5256,5276,5297,5316,5339,5356,5376,5396,5416,5438,5456,5476,5496,5517,5536,5556,5577,5596,5616,5637,5656,5676,5696,5718,5737,5756,5777,5796,5817,5837,5856,5877,5896,5917,5937],"xSR":741.5,"ySR":573.95,"xT1":424.9,"yT1":0,"xT2":1058.1,"yT2":0,"toosoon":0,"cond_shown":"randomdotsizeEA","ratio_trial":500,"smaller_num":"2","larger_num":"4","correct_side":1,"subjID":"SaraSofiaBohorquez31","gender":"1","age":"8","school":"4"},{"start_time":1552069828645,"click_time":1552069830890,"finger_time":1552069829469,"fix_duration":376.8426404961798,"trial":8,"RT":824,"MT":1421,"sideResp":2,"stimulus":"img/900/equaldotanddens/L/1_Ratio_900_L_10_R_9.png","xmouse":[814,814,814,814,814,814,814,814,808,772,765,763,763,763,763,763,763,763,763,763,763,763,763,763,763,763,763,763,763,763,763,763,763,763,763,763,763,763,768,819,838,851,859,866,875,879,887,890,893,896,897,897,897,897,897,897,890,876,866,857,848,844,844,844,844,850,881,954,1041,1198,1259,1275,1290,1300,1303,1307,1307,1307,1307,1304,1301,1297,1290,1280,1256,1245,1230,1220,1213,1213,1213,1213,1213,1213,1213,1212,1208,1202,1197,1181,1176,1172,1168,1164,1155,1146,1139,1133,1130,1129,1124,1119,1116],"ymouse":[642,642,642,642,642,642,642,641,638,622,621,621,621,621,621,621,621,621,621,621,621,621,621,621,621,621,621,621,621,621,621,621,621,621,621,621,621,621,621,614,614,614,614,613,610,609,604,602,600,598,598,598,598,598,598,597,596,594,593,592,592,592,592,592,592,588,571,537,492,405,370,361,345,331,321,309,306,302,297,283,273,261,247,229,176,154,130,115,108,108,108,108,108,108,108,107,107,107,107,109,109,109,109,108,106,106,106,106,105,105,104,101,98],"timestamp_mouse":[12,34,43,63,84,103,123,143,163,183,203,224,244,263,284,303,324,343,365,383,405,423,444,464,483,504,523,543,563,583,604,623,643,663,683,704,724,743,763,783,803,824,843,863,883,905,923,943,963,983,1004,1025,1044,1063,1083,1104,1123,1144,1163,1183,1203,1223,1243,1263,1283,1303,1323,1344,1364,1384,1404,1424,1444,1463,1483,1504,1523,1543,1563,1583,1603,1623,1644,1663,1683,1704,1723,1743,1764,1783,1803,1823,1844,1865,1884,1904,1924,1943,1964,1983,2003,2023,2043,2063,2084,2103,2123,2144,2165,2184,2203,2223,2244],"xSR":741.5,"ySR":573.95,"xT1":424.9,"yT1":0,"xT2":1058.1,"yT2":0,"toosoon":0,"cond_shown":"equaldotanddens","ratio_trial":900,"smaller_num":"9","larger_num":"10","correct_side":1,"subjID":"SaraSofiaBohorquez31","gender":"1","age":"8","school":"4"},{"start_time":1552069833328,"click_time":1552069835709,"finger_time":1552069834548,"fix_duration":1317.0240547251776,"trial":9,"RT":1220,"MT":1161,"sideResp":1,"stimulus":"img/750/equaldotsize/R/15_Ratio_750_L_9_R_12.png","xmouse":[776,776,776,776,776,776,776,776,776,776,776,776,776,776,776,776,776,776,776,776,776,776,776,776,776,776,776,776,776,776,776,776,776,776,776,776,776,776,776,776,776,776,776,776,776,776,776,776,776,776,776,776,776,776,776,776,776,778,780,784,780,769,754,737,722,719,718,717,717,714,701,687,677,665,645,635,629,623,617,614,611,610,610,609,609,607,606,605,599,595,588,584,578,573,565,562,561,559,556,547,544,544,544,544,544,544,544,543,542,541,540,539,539,536,531,527,527,526,524],"ymouse":[630,630,630,630,630,630,630,630,630,630,630,630,630,630,630,630,630,630,630,630,630,630,630,630,630,630,630,630,630,630,630,630,630,630,630,630,630,630,630,630,630,630,630,630,630,630,630,630,630,630,630,630,630,630,630,630,630,628,624,591,556,498,441,377,306,296,293,291,287,274,236,210,193,181,155,142,127,111,87,76,64,62,61,61,60,59,58,58,55,55,55,55,56,58,60,60,61,61,62,63,64,64,64,64,64,64,64,64,64,65,65,66,66,68,70,71,72,72,74],"timestamp_mouse":[20,45,60,80,101,121,141,160,181,201,221,241,261,281,300,321,342,360,380,400,420,440,461,480,501,520,541,560,580,601,622,642,661,681,700,722,741,761,782,801,822,840,861,881,902,921,941,961,980,1002,1020,1040,1061,1082,1100,1120,1141,1161,1181,1201,1220,1240,1261,1280,1301,1320,1341,1360,1381,1400,1420,1440,1461,1480,1502,1520,1541,1560,1581,1600,1621,1640,1661,1681,1700,1721,1741,1760,1781,1800,1820,1841,1861,1880,1901,1921,1941,1961,1980,2001,2020,2040,2060,2081,2102,2121,2141,2160,2180,2200,2220,2240,2260,2280,2300,2321,2341,2360,2381],"xSR":741.5,"ySR":573.95,"xT1":424.9,"yT1":0,"xT2":1058.1,"yT2":0,"toosoon":0,"cond_shown":"equaldotsize","ratio_trial":750,"smaller_num":"9","larger_num":"12","correct_side":2,"subjID":"SaraSofiaBohorquez31","gender":"1","age":"8","school":"4"},{"start_time":1552069837081,"click_time":1552069838528,"finger_time":1552069837929,"fix_duration":250,"trial":10,"RT":848,"MT":599,"sideResp":1,"stimulus":"img/250/equaldotsize/L/7_Ratio_250_L_8_R_2.png","xmouse":[774,775,775,782,783,784,784,784,784,784,784,786,789,793,793,793,793,794,795,796,798,799,801,804,804,805,805,805,805,805,805,805,805,805,805,805,805,805,805,806,806,803,798,777,769,764,759,754,746,738,737,731,728,723,715,704,689,673,636,624,616,607,597,583,580,579,578,574,556,548,539,534,523],"ymouse":[626,627,627,632,634,634,634,634,634,634,634,634,635,635,635,635,635,635,635,635,635,635,635,635,635,635,635,635,635,635,635,635,635,635,635,635,635,635,635,634,620,594,554,458,416,386,353,322,262,232,224,207,203,197,191,183,170,156,122,111,101,92,83,73,71,71,71,71,71,71,71,71,74],"timestamp_mouse":[13,38,48,68,87,107,129,149,168,188,208,228,248,268,288,308,328,347,368,387,407,429,448,467,488,507,529,549,568,588,609,627,648,667,688,707,728,747,768,788,807,828,848,867,888,908,927,947,967,988,1008,1027,1048,1067,1087,1108,1127,1148,1168,1188,1207,1227,1247,1267,1287,1308,1327,1348,1367,1388,1407,1428,1447],"xSR":741.5,"ySR":573.95,"xT1":424.9,"yT1":0,"xT2":1058.1,"yT2":0,"toosoon":0,"cond_shown":"equaldotsize","ratio_trial":250,"smaller_num":"2","larger_num":"8","correct_side":1,"subjID":"SaraSofiaBohorquez31","gender":"1","age":"8","school":"4"},{"start_time":1552069841571,"click_time":1552069842769,"finger_time":1552069842368,"fix_duration":601.5544070371452,"trial":11,"RT":797,"MT":401,"sideResp":2,"stimulus":"img/900/equaldotsize/R/7_Ratio_900_L_9_R_10.png","xmouse":[789,789,789,789,789,789,789,789,789,789,789,789,789,789,789,789,789,789,789,789,789,789,789,789,789,789,789,789,789,789,789,789,789,789,789,789,789,791,838,900,937,985,1001,1033,1049,1054,1058,1061,1063,1064,1064,1064,1068,1073,1098,1107,1113,1120,1125,1133],"ymouse":[646,646,646,646,646,646,646,646,646,646,646,646,646,646,646,646,646,646,646,646,646,646,646,646,646,646,646,646,646,646,646,646,646,646,646,646,646,646,630,605,588,576,574,567,553,541,525,503,480,425,376,332,273,256,196,177,160,140,119,86],"timestamp_mouse":[17,43,58,77,98,118,138,157,178,198,218,239,257,278,297,317,338,357,377,399,418,439,457,477,498,518,537,558,577,597,618,637,657,677,697,717,739,758,778,797,817,837,857,877,898,917,937,957,977,997,1019,1038,1057,1077,1098,1118,1138,1158,1177,1198],"xSR":741.5,"ySR":573.95,"xT1":424.9,"yT1":0,"xT2":1058.1,"yT2":0,"toosoon":0,"cond_shown":"equaldotsize","ratio_trial":900,"smaller_num":"9","larger_num":"10","correct_side":2,"subjID":"SaraSofiaBohorquez31","gender":"1","age":"8","school":"4"},{"start_time":1552069844790,"click_time":1552069846828,"finger_time":1552069846448,"fix_duration":797.1865929579516,"trial":12,"RT":1658,"MT":380,"sideResp":1,"stimulus":"img/750/randomdotsizeEA/L/14_Ratio_750_L_8_R_6.png","xmouse":[780,780,780,780,780,780,780,780,780,780,780,780,780,780,780,780,780,780,780,780,780,780,780,780,780,780,780,780,780,780,780,780,780,780,780,780,780,780,780,780,780,780,780,780,780,780,780,780,780,780,780,780,780,780,780,780,780,780,780,780,780,780,780,780,780,780,780,780,780,780,780,780,780,780,780,780,780,780,780,780,780,779,772,763,737,716,694,675,656,616,602,593,584,577,569,565,562,559,556,544,535,529,524],"ymouse":[620,620,620,620,620,620,620,620,620,620,620,620,620,620,620,620,620,620,620,620,620,620,620,620,620,620,620,620,620,620,620,620,620,620,620,620,620,620,620,620,620,620,620,620,620,620,620,620,620,620,620,620,620,620,620,620,620,620,620,620,620,620,620,620,620,620,620,620,620,620,620,620,620,620,620,620,620,620,620,620,620,618,595,567,507,470,431,394,362,292,268,246,226,209,175,154,133,113,91,59,41,32,26],"timestamp_mouse":[1,20,47,59,78,99,119,139,159,178,198,219,238,259,278,299,319,339,358,379,398,418,439,459,478,499,519,539,559,578,599,618,638,659,679,699,719,738,758,778,798,818,839,859,879,900,918,939,960,978,999,1018,1039,1059,1078,1098,1119,1139,1159,1179,1199,1219,1238,1259,1279,1299,1319,1339,1359,1378,1398,1419,1438,1460,1479,1499,1519,1538,1558,1579,1598,1619,1639,1658,1678,1699,1718,1738,1759,1778,1799,1818,1840,1859,1879,1898,1918,1938,1959,1978,1999,2019,2038],"xSR":741.5,"ySR":573.95,"xT1":424.9,"yT1":0,"xT2":1058.1,"yT2":0,"toosoon":0,"cond_shown":"randomdotsizeEA","ratio_trial":750,"smaller_num":"6","larger_num":"8","correct_side":1,"subjID":"SaraSofiaBohorquez31","gender":"1","age":"8","school":"4"},{"start_time":1552069856365,"click_time":1552069858808,"finger_time":1552069857149,"fix_duration":516.762561716946,"trial":13,"RT":784,"MT":1659,"sideResp":2,"stimulus":"img/900/equaldotanddens/R/12_Ratio_900_L_18_R_20.png","xmouse":[789,789,789,789,789,789,789,789,789,789,789,789,789,789,789,789,789,789,789,788,788,788,788,788,788,788,788,788,788,788,788,788,788,788,789,792,817,835,841,844,846,849,851,853,855,858,868,877,884,893,903,934,955,977,996,1017,1063,1098,1117,1131,1137,1143,1145,1145,1146,1146,1146,1139,1135,1132,1131,1130,1130,1130,1130,1130,1130,1130,1130,1130,1130,1127,1122,1121,1120,1119,1119,1119,1118,1118,1118,1118,1118,1118,1117,1117,1117,1117,1117,1117,1117,1117,1118,1119,1119,1120,1120,1121,1122,1122,1122,1122,1122,1122,1123,1123,1126,1126,1126,1127,1127,1127,1127],"ymouse":[644,644,644,644,644,644,644,644,644,644,644,644,644,644,644,644,644,644,644,641,640,640,640,640,640,640,640,640,640,640,640,640,640,640,638,637,624,601,581,558,539,496,468,444,427,410,382,362,350,339,327,299,289,281,276,270,264,257,251,247,244,239,236,234,230,220,216,199,194,190,190,187,186,185,184,183,178,173,167,160,154,148,140,138,137,136,136,136,136,136,136,135,134,133,132,130,129,121,120,119,119,117,117,116,116,115,114,112,111,111,111,111,111,110,109,107,103,103,103,101,100,100,99],"timestamp_mouse":[13,40,44,64,83,105,123,143,163,184,204,223,243,265,285,303,323,343,363,384,404,425,443,464,484,503,523,544,564,585,603,623,643,664,683,705,723,743,764,784,803,823,844,864,884,903,923,943,964,983,1003,1024,1043,1063,1083,1104,1123,1145,1164,1183,1203,1223,1244,1264,1283,1303,1323,1343,1363,1383,1403,1424,1444,1463,1483,1503,1524,1545,1563,1584,1603,1623,1644,1663,1683,1703,1724,1745,1763,1784,1803,1823,1843,1864,1883,1903,1923,1944,1963,1984,2004,2023,2043,2063,2083,2104,2123,2143,2164,2185,2203,2224,2244,2264,2284,2303,2323,2344,2363,2383,2404,2424,2443],"xSR":741.5,"ySR":573.95,"xT1":424.9,"yT1":0,"xT2":1058.1,"yT2":0,"toosoon":0,"cond_shown":"equaldotanddens","ratio_trial":900,"smaller_num":"18","larger_num":"20","correct_side":2,"subjID":"SaraSofiaBohorquez31","gender":"1","age":"8","school":"4"},{"start_time":1552069861391,"click_time":1552069862729,"finger_time":1552069862150,"fix_duration":1001.3847971201873,"trial":14,"RT":759,"MT":579,"sideResp":2,"stimulus":"img/750/equaldotanddens/R/12_Ratio_750_L_3_R_4.png","xmouse":[800,800,800,800,800,800,800,800,800,800,800,800,800,800,800,800,800,800,800,800,800,800,800,800,800,800,800,800,800,800,800,800,800,800,800,807,829,847,861,872,897,912,931,937,943,945,945,946,947,949,955,964,965,978,992,1019,1033,1044,1053,1062,1075,1082,1082,1083,1083,1081,1079],"ymouse":[640,640,640,640,640,640,640,640,640,640,640,640,640,640,640,640,640,640,640,640,640,640,640,640,640,640,640,640,640,640,640,640,640,640,640,646,651,655,658,658,635,602,539,516,488,431,406,387,369,352,327,304,303,285,270,233,217,206,195,184,159,140,138,127,116,101,98],"timestamp_mouse":[17,37,57,77,98,117,138,157,178,199,217,237,258,278,299,318,338,358,377,397,417,439,459,478,499,517,537,558,577,597,618,638,657,678,698,717,737,759,778,799,818,838,857,877,897,917,938,957,977,998,1017,1037,1058,1078,1097,1117,1137,1158,1177,1198,1217,1237,1259,1277,1297,1317,1337],"xSR":741.5,"ySR":573.95,"xT1":424.9,"yT1":0,"xT2":1058.1,"yT2":0,"toosoon":0,"cond_shown":"equaldotanddens","ratio_trial":750,"smaller_num":"3","larger_num":"4","correct_side":2,"subjID":"SaraSofiaBohorquez31","gender":"1","age":"8","school":"4"},{"start_time":1552069865591,"click_time":1552069867889,"finger_time":1552069867749,"fix_duration":760.1399035863234,"trial":15,"RT":2158,"MT":140,"sideResp":1,"stimulus":"img/900/equaldotsize/L/2_Ratio_900_L_20_R_18.png","xmouse":[803,803,803,803,803,803,803,803,803,803,803,803,803,803,803,803,803,803,803,803,803,803,803,803,803,803,803,803,803,803,803,803,803,803,803,803,803,803,803,803,803,803,803,803,803,803,803,803,803,803,803,803,803,803,803,803,803,803,803,803,803,803,803,803,803,803,803,803,803,803,803,803,803,803,803,803,803,803,803,803,803,803,803,803,803,803,803,803,803,803,803,803,803,803,803,803,803,803,803,803,803,803,803,800,799,781,768,752,720,684,594,562,541,530,524],"ymouse":[621,621,621,621,621,621,621,621,621,621,621,621,621,621,621,621,621,621,621,621,621,621,621,621,621,621,621,621,621,621,621,621,621,621,621,621,621,621,621,621,621,621,621,621,621,621,621,621,621,621,621,621,621,621,621,621,621,621,621,621,621,621,621,621,621,621,621,621,621,621,621,621,621,621,621,621,621,621,621,621,621,621,621,621,621,621,621,621,621,621,621,621,621,621,621,621,621,621,621,621,621,621,621,621,621,607,587,567,501,420,176,113,74,54,41],"timestamp_mouse":[17,37,57,77,98,117,137,157,179,198,217,237,258,278,299,317,339,357,379,398,417,438,458,477,498,517,539,558,577,599,618,637,657,678,697,717,738,758,778,797,818,839,857,877,898,918,938,958,977,998,1019,1038,1058,1077,1098,1118,1138,1158,1177,1197,1217,1239,1258,1278,1298,1317,1338,1357,1378,1397,1417,1437,1457,1477,1498,1517,1538,1558,1578,1597,1617,1637,1657,1677,1697,1717,1738,1757,1778,1797,1818,1838,1857,1879,1898,1918,1938,1957,1978,1997,2018,2038,2057,2077,2097,2117,2137,2158,2177,2198,2217,2237,2258,2277,2298],"xSR":741.5,"ySR":573.95,"xT1":424.9,"yT1":0,"xT2":1058.1,"yT2":0,"toosoon":0,"cond_shown":"equaldotsize","ratio_trial":900,"smaller_num":"18","larger_num":"20","correct_side":1,"subjID":"SaraSofiaBohorquez31","gender":"1","age":"8","school":"4"},{"start_time":1552069869966,"click_time":1552069871229,"finger_time":1552069870688,"fix_duration":655.0013902013708,"trial":16,"RT":722,"MT":541,"sideResp":2,"stimulus":"img/250/equaldotanddens/R/12_Ratio_250_L_5_R_20.png","xmouse":[799,799,799,799,799,799,799,799,799,799,799,799,799,799,799,799,799,799,799,799,799,799,799,799,799,799,799,799,799,799,799,799,799,799,804,814,852,887,909,912,918,920,922,927,930,934,938,948,957,967,976,987,1005,1025,1033,1047,1058,1069,1081,1084,1086,1091,1096,1101],"ymouse":[645,645,645,645,645,645,645,645,645,645,645,645,645,645,645,645,645,645,645,645,645,645,645,645,645,645,645,645,645,645,645,645,645,645,645,637,602,573,557,549,525,506,466,439,404,371,344,295,273,254,239,223,198,179,171,161,152,143,132,127,124,117,105,97],"timestamp_mouse":[14,22,42,62,83,103,123,143,163,183,203,222,242,263,282,302,322,344,362,382,403,422,442,462,482,503,522,542,562,582,603,624,642,663,682,703,722,743,762,783,802,822,844,862,893,903,923,944,962,983,1003,1022,1042,1062,1082,1102,1122,1143,1162,1182,1202,1223,1244,1263],"xSR":741.5,"ySR":573.95,"xT1":424.9,"yT1":0,"xT2":1058.1,"yT2":0,"toosoon":0,"cond_shown":"equaldotanddens","ratio_trial":250,"smaller_num":"5","larger_num":"20","correct_side":2,"subjID":"SaraSofiaBohorquez31","gender":"1","age":"8","school":"4"},{"start_time":1552069872883,"click_time":1552069874328,"finger_time":1552069873909,"fix_duration":513.2233010801339,"trial":17,"RT":1026,"MT":419,"sideResp":1,"stimulus":"img/500/randomdotsizeEA/L/4_Ratio_500_L_18_R_9.png","xmouse":[792,792,792,792,792,792,792,792,792,792,792,792,792,792,792,792,792,792,792,792,792,792,792,792,792,792,792,792,792,792,792,792,792,792,792,792,792,792,792,792,792,792,792,792,792,792,792,792,792,792,789,786,739,687,653,622,603,582,576,572,567,563,551,541,535,528,524,517,515,512,509,508,500],"ymouse":[613,613,613,613,613,613,613,613,613,613,613,613,613,613,613,613,613,613,613,613,613,613,613,613,613,613,613,613,613,613,613,613,613,613,613,613,613,613,613,613,613,613,613,613,613,613,613,613,613,613,585,562,422,319,270,231,212,191,185,180,173,165,146,133,126,118,114,110,109,107,105,104,98],"timestamp_mouse":[12,25,45,65,85,105,125,146,165,185,205,226,247,265,285,305,326,346,366,385,406,425,446,465,485,506,526,545,566,586,605,626,647,666,686,705,725,745,765,786,807,825,845,867,885,906,926,946,965,986,1005,1026,1045,1066,1086,1105,1125,1145,1165,1186,1206,1225,1245,1265,1285,1305,1325,1345,1365,1385,1405,1425,1445],"xSR":741.5,"ySR":573.95,"xT1":424.9,"yT1":0,"xT2":1058.1,"yT2":0,"toosoon":0,"cond_shown":"randomdotsizeEA","ratio_trial":500,"smaller_num":"9","larger_num":"18","correct_side":1,"subjID":"SaraSofiaBohorquez31","gender":"1","age":"8","school":"4"},{"start_time":1552069876115,"click_time":1552069877689,"finger_time":1552069877048,"fix_duration":806.1666538438881,"trial":18,"RT":933,"MT":641,"sideResp":1,"stimulus":"img/500/equaldotsize/L/11_Ratio_500_L_12_R_6.png","xmouse":[761,761,761,761,761,761,761,761,759,759,759,759,759,759,759,759,759,759,759,759,759,759,759,759,759,759,759,759,759,759,759,759,759,759,759,759,759,759,759,759,759,759,759,759,759,760,766,766,766,766,761,743,734,725,711,673,659,647,636,624,602,587,568,554,540,525,523,523,523,522,520,509,506,503,499,496,490,487,485],"ymouse":[589,589,589,589,589,589,589,589,588,588,588,588,588,588,588,588,588,588,588,588,588,588,588,588,588,588,588,588,588,588,588,588,588,588,588,588,588,588,588,588,588,588,588,588,582,574,541,533,519,502,467,420,400,376,344,259,230,212,199,184,169,161,152,146,140,135,134,134,134,134,134,128,126,123,120,116,107,102,99],"timestamp_mouse":[16,41,54,73,93,113,133,154,173,193,213,233,254,273,293,314,334,353,374,394,414,433,453,474,493,514,534,555,574,595,613,633,653,674,693,714,734,753,775,793,814,833,855,873,893,914,933,954,974,994,1013,1033,1053,1073,1093,1114,1133,1153,1173,1194,1213,1233,1253,1273,1293,1315,1333,1353,1374,1394,1413,1433,1453,1473,1493,1514,1533,1554,1574],"xSR":741.5,"ySR":573.95,"xT1":424.9,"yT1":0,"xT2":1058.1,"yT2":0,"toosoon":0,"cond_shown":"equaldotsize","ratio_trial":500,"smaller_num":"6","larger_num":"12","correct_side":1,"subjID":"SaraSofiaBohorquez31","gender":"1","age":"8","school":"4"},{"start_time":1552069879314,"click_time":1552069882130,"finger_time":1552069879448,"fix_duration":284.4804403566553,"trial":19,"RT":134,"MT":2682,"sideResp":1,"stimulus":"img/900/equaldotsize/R/5_Ratio_900_L_9_R_10.png","xmouse":[778,773,770,765,756,738,735,734,734,734,734,735,736,741,746,749,752,754,754,754,754,754,754,754,754,754,754,754,755,756,758,758,758,758,758,758,758,758,758,758,758,758,758,758,758,758,758,758,758,759,760,760,760,760,760,760,760,760,760,760,760,760,760,761,762,763,764,765,765,765,765,766,766,767,767,768,768,768,769,772,779,782,783,783,784,784,785,785,785,785,785,785,785,785,785,785,785,785,785,783,779,762,730,697,667,637,633,633,633,633,631,623,614,606,593,571,558,549,540,532,522,520,518,517,515,512,509,506,504,500,495,494,492,491,491,491,490,490,490,490],"ymouse":[634,639,642,646,651,658,660,661,661,661,661,661,661,661,661,661,659,659,659,659,659,659,659,659,659,659,659,659,659,659,658,658,658,658,658,658,658,658,658,657,657,657,657,657,657,657,657,657,657,656,656,656,656,656,656,656,656,656,656,656,656,656,655,654,652,649,648,646,646,645,644,643,642,640,640,640,640,639,637,634,626,623,622,620,619,619,619,619,619,619,619,619,619,619,619,619,619,619,619,617,609,585,529,466,404,334,323,320,320,320,317,313,307,299,284,258,241,228,214,205,190,182,177,172,166,155,144,135,129,121,112,108,106,105,104,103,102,101,100,99],"timestamp_mouse":[42,54,75,94,114,134,155,174,195,215,235,255,274,294,318,334,355,374,394,416,434,454,474,495,516,534,554,576,595,614,634,654,675,695,715,734,755,775,794,815,834,855,875,895,915,935,954,975,994,1015,1035,1054,1075,1096,1115,1134,1154,1175,1194,1215,1234,1255,1275,1295,1315,1334,1355,1376,1395,1414,1434,1454,1475,1494,1515,1534,1554,1574,1594,1615,1634,1654,1674,1695,1715,1736,1754,1774,1795,1814,1835,1855,1875,1895,1916,1934,1954,1974,1995,2014,2034,2054,2075,2095,2115,2134,2154,2175,2195,2214,2234,2254,2275,2294,2315,2335,2354,2374,2394,2414,2434,2454,2475,2494,2515,2534,2554,2574,2594,2615,2634,2655,2676,2696,2714,2734,2754,2774,2794,2815],"xSR":741.5,"ySR":573.95,"xT1":424.9,"yT1":0,"xT2":1058.1,"yT2":0,"toosoon":0,"cond_shown":"equaldotsize","ratio_trial":900,"smaller_num":"9","larger_num":"10","correct_side":2,"subjID":"SaraSofiaBohorquez31","gender":"1","age":"8","school":"4"},{"start_time":1552069888424,"click_time":1552069889469,"finger_time":1552069889189,"fix_duration":253.61948148795054,"trial":20,"RT":765,"MT":280,"sideResp":1,"stimulus":"img/250/equaldotsize/L/2_Ratio_250_L_16_R_4.png","xmouse":[796,796,796,796,796,796,796,796,796,796,796,796,795,792,791,790,790,790,790,790,790,790,790,790,790,790,790,790,790,790,790,790,790,788,786,781,770,748,732,726,717,713,700,689,679,667,656,641,626,594,565,530,494],"ymouse":[621,621,621,621,621,621,621,621,621,621,621,621,621,622,624,624,624,624,624,624,624,624,624,624,624,624,624,624,624,624,624,624,624,625,625,623,614,590,568,560,533,506,456,437,416,392,359,290,231,164,129,98,80],"timestamp_mouse":[4,30,45,65,85,105,125,145,165,184,205,224,245,264,285,305,324,346,366,384,404,425,444,466,485,505,525,544,566,585,604,624,646,664,684,704,725,745,764,785,804,824,846,864,886,904,925,944,964,984,1005,1024,1045],"xSR":741.5,"ySR":573.95,"xT1":424.9,"yT1":0,"xT2":1058.1,"yT2":0,"toosoon":0,"cond_shown":"equaldotsize","ratio_trial":250,"smaller_num":"4","larger_num":"16","correct_side":1,"subjID":"SaraSofiaBohorquez31","gender":"1","age":"8","school":"4"},{"start_time":1552069890511,"click_time":1552069892268,"finger_time":1552069891489,"fix_duration":260.10999078429387,"trial":21,"RT":978,"MT":779,"sideResp":1,"stimulus":"img/500/randomdotsizeEA/R/14_Ratio_500_L_5_R_10.png","xmouse":[789,789,789,789,789,789,789,789,789,789,789,789,789,789,789,789,789,789,789,789,789,789,789,789,789,789,789,789,789,789,789,789,789,789,789,789,789,789,789,789,789,789,789,789,789,787,782,762,749,731,716,703,676,668,659,653,646,641,641,641,641,641,641,641,641,641,641,641,641,641,640,637,610,579,559,552,547,545,544,544,544,544,543,540,536,533,531,523],"ymouse":[635,635,635,635,635,635,635,635,635,635,635,635,635,635,635,635,635,635,635,635,635,635,635,635,635,635,635,635,635,635,635,635,635,635,635,635,635,635,635,635,635,635,635,635,633,630,617,585,563,538,514,492,453,442,432,427,423,420,420,420,420,420,420,420,420,420,420,420,420,420,418,410,347,273,227,201,181,163,161,161,161,161,157,148,137,129,117,93],"timestamp_mouse":[19,39,57,78,98,118,138,157,177,197,218,237,257,277,299,317,338,357,377,397,418,437,459,478,497,518,537,557,578,597,617,638,657,677,698,717,739,759,789,798,817,839,858,878,898,918,937,957,978,998,1017,1037,1057,1077,1097,1117,1137,1158,1178,1197,1217,1238,1257,1279,1298,1317,1338,1359,1378,1397,1417,1437,1457,1477,1497,1517,1537,1557,1577,1597,1619,1637,1657,1678,1697,1718,1738,1757],"xSR":741.5,"ySR":573.95,"xT1":424.9,"yT1":0,"xT2":1058.1,"yT2":0,"toosoon":0,"cond_shown":"randomdotsizeEA","ratio_trial":500,"smaller_num":"5","larger_num":"10","correct_side":2,"subjID":"SaraSofiaBohorquez31","gender":"1","age":"8","school":"4"},{"start_time":1552069896404,"click_time":1552069897929,"finger_time":1552069897188,"fix_duration":1492.336265514613,"trial":22,"RT":784,"MT":741,"sideResp":2,"stimulus":"img/500/equaldotsize/R/1_Ratio_500_L_9_R_18.png","xmouse":[803,803,803,803,803,803,803,803,803,803,803,803,803,803,803,803,803,803,803,803,803,803,803,803,803,803,803,803,803,803,803,803,803,803,803,803,803,802,813,832,837,839,842,843,848,855,867,887,903,937,954,970,983,1007,1018,1028,1043,1054,1063,1080,1085,1089,1093,1097,1109,1116,1122,1128,1129,1132,1134,1135,1137,1138,1139,1139,1139],"ymouse":[622,622,622,622,622,622,622,622,622,622,622,622,622,622,622,622,622,622,622,622,622,622,622,622,622,622,622,622,622,622,622,622,622,622,622,622,622,620,600,549,526,510,493,475,426,403,382,363,356,337,327,316,307,293,285,277,263,253,245,225,215,206,197,188,167,157,146,136,133,126,123,118,113,110,103,100,97],"timestamp_mouse":[12,33,45,65,85,104,124,146,166,184,204,226,245,264,285,304,326,346,364,385,404,425,445,465,486,505,524,545,564,586,605,624,644,665,685,704,724,745,764,784,805,824,844,864,884,904,925,945,964,984,1005,1024,1044,1066,1084,1105,1124,1145,1164,1184,1205,1224,1244,1264,1284,1305,1324,1345,1364,1384,1404,1424,1444,1464,1484,1505,1525],"xSR":741.5,"ySR":573.95,"xT1":424.9,"yT1":0,"xT2":1058.1,"yT2":0,"toosoon":0,"cond_shown":"equaldotsize","ratio_trial":500,"smaller_num":"9","larger_num":"18","correct_side":2,"subjID":"SaraSofiaBohorquez31","gender":"1","age":"8","school":"4"},{"start_time":1552069899489,"click_time":1552069900909,"finger_time":1552069900288,"fix_duration":638.2936911153713,"trial":23,"RT":799,"MT":621,"sideResp":1,"stimulus":"img/750/randomdotsizeEA/L/1_Ratio_750_L_20_R_15.png","xmouse":[794,794,794,794,794,794,794,794,794,794,794,794,794,794,794,794,794,794,794,794,794,794,794,794,794,794,794,794,794,794,794,794,794,794,794,794,794,794,794,772,743,716,692,675,657,653,650,645,634,588,571,559,552,546,535,529,520,511,502,487,479,477,477,476,476,476,476,476,476,476,478],"ymouse":[612,612,612,612,612,612,612,612,612,612,612,612,612,612,612,612,612,612,612,612,612,612,612,612,612,612,612,612,612,612,612,612,612,612,612,612,612,612,612,565,515,465,425,398,365,357,350,341,329,293,280,271,263,257,244,234,225,214,200,169,150,142,133,128,121,118,115,112,109,106,99],"timestamp_mouse":[19,39,59,79,99,119,141,159,179,199,219,239,259,280,300,319,340,361,380,399,419,441,461,479,499,519,540,560,579,601,620,639,660,679,699,720,741,761,780,799,819,839,859,879,899,919,939,959,981,999,1019,1040,1060,1079,1099,1119,1141,1161,1180,1199,1220,1239,1259,1279,1299,1319,1339,1359,1380,1399,1420],"xSR":741.5,"ySR":573.95,"xT1":424.9,"yT1":0,"xT2":1058.1,"yT2":0,"toosoon":0,"cond_shown":"randomdotsizeEA","ratio_trial":750,"smaller_num":"15","larger_num":"20","correct_side":1,"subjID":"SaraSofiaBohorquez31","gender":"1","age":"8","school":"4"},{"start_time":1552069902666,"click_time":1552069903929,"finger_time":1552069903428,"fix_duration":756.3779488792359,"trial":24,"RT":762,"MT":501,"sideResp":1,"stimulus":"img/500/equaldotanddens/L/13_Ratio_500_L_12_R_6.png","xmouse":[782,783,783,783,783,783,783,783,783,783,783,783,783,783,783,783,783,783,783,783,783,783,783,783,783,783,783,783,784,784,784,784,784,784,784,784,784,786,789,789,776,734,663,630,607,592,575,569,564,561,557,551,551,550,550,550,550,550,550,549,549,543,526,514],"ymouse":[623,622,622,622,621,621,621,620,620,619,619,619,619,619,619,619,619,619,619,619,619,619,619,619,619,619,619,618,617,617,617,617,617,616,615,613,604,591,562,511,447,351,249,212,183,162,138,126,118,109,101,90,90,89,89,89,89,89,89,88,88,88,85,84],"timestamp_mouse":[13,36,42,62,83,104,123,143,162,182,204,222,242,263,283,303,323,342,363,383,402,422,442,464,482,502,523,542,562,582,603,622,643,663,683,702,723,743,762,782,803,822,842,862,883,902,923,942,963,982,1002,1023,1042,1062,1082,1103,1123,1143,1163,1182,1202,1224,1244,1263],"xSR":741.5,"ySR":573.95,"xT1":424.9,"yT1":0,"xT2":1058.1,"yT2":0,"toosoon":0,"cond_shown":"equaldotanddens","ratio_trial":500,"smaller_num":"6","larger_num":"12","correct_side":1,"subjID":"SaraSofiaBohorquez31","gender":"1","age":"8","school":"4"},{"start_time":1552069905753,"click_time":1552069910188,"finger_time":1552069909408,"fix_duration":623.5945575742492,"trial":25,"RT":3655,"MT":780,"sideResp":1,"stimulus":"img/500/equaldotsize/L/7_Ratio_500_L_10_R_5.png","xmouse":[792,792,792,792,792,792,792,792,792,792,792,792,792,792,792,792,792,792,792,792,792,792,792,792,792,792,792,792,792,792,792,792,791,790,787,786,786,786,786,785,785,784,783,783,782,782,781,779,779,779,779,779,779,779,779,779,779,779,779,779,779,779,778,778,778,778,778,778,778,778,778,778,778,778,778,778,778,778,778,778,778,778,778,778,778,778,778,778,778,778,778,778,778,778,778,778,778,778,778,778,778,778,778,778,778,778,778,778,778,778,778,778,778,778,778,778,778,778,778,778,778,778,778,778,778,778,778,778,778,778,778,778,778,778,778,778,778,778,778,778,778,778,778,778,778,778,778,778,778,778,778,778,778,778,778,778,778,778,778,778,778,778,778,778,778,778,778,778,778,778,778,778,778,778,778,778,778,778,778,778,778,777,759,759,758,760,764,770,771,772,772,773,775,776,776,776,771,765,750,742,728,713,676,666,659,653,646,643,640,636,630,620,597,589,585,583,580,570,560,546,532,515],"ymouse":[627,627,627,627,627,627,627,627,627,627,627,627,627,627,627,627,627,627,627,627,627,627,627,627,627,627,627,627,627,627,627,626,625,622,618,617,615,611,607,605,602,599,594,593,592,591,589,586,585,585,585,585,585,585,585,585,585,585,585,585,585,585,584,584,584,584,584,584,584,584,584,584,584,584,584,584,584,584,584,584,584,584,584,584,584,584,584,584,584,584,584,584,584,584,584,584,584,584,584,584,584,584,584,584,584,584,584,584,584,584,584,584,584,584,584,584,584,584,584,584,584,584,584,584,584,584,584,584,584,584,584,584,584,584,584,584,584,584,584,584,584,584,584,584,584,584,584,584,584,584,584,584,584,584,584,584,584,584,584,584,584,584,584,584,584,584,584,584,584,584,584,584,584,584,584,584,584,584,584,584,584,580,569,569,569,567,562,549,544,542,537,533,521,514,511,507,498,484,451,434,410,384,311,290,273,253,232,191,175,157,138,117,74,66,61,58,57,57,57,61,65,72],"timestamp_mouse":[19,43,56,75,95,116,136,156,176,195,215,236,256,275,295,316,335,355,377,396,415,436,456,477,495,515,536,557,576,596,615,636,655,675,697,715,735,755,775,796,815,836,855,876,895,916,935,955,976,996,1015,1036,1056,1075,1096,1115,1135,1156,1176,1195,1215,1236,1256,1276,1297,1316,1335,1355,1376,1397,1416,1436,1455,1476,1495,1517,1536,1555,1576,1596,1616,1636,1657,1676,1695,1715,1735,1756,1776,1796,1815,1835,1855,1876,1896,1917,1936,1955,1976,1996,2016,2037,2055,2076,2096,2116,2136,2155,2175,2195,2215,2236,2255,2275,2297,2316,2335,2355,2376,2396,2417,2436,2456,2475,2496,2516,2535,2555,2575,2596,2616,2635,2655,2676,2697,2716,2736,2755,2776,2796,2816,2835,2855,2875,2896,2915,2937,2957,2975,2997,3016,3036,3056,3077,3095,3115,3136,3155,3175,3196,3215,3237,3256,3275,3295,3315,3335,3355,3377,3397,3416,3436,3455,3477,3497,3516,3536,3555,3576,3597,3615,3636,3655,3676,3695,3716,3735,3755,3775,3796,3815,3836,3855,3875,3895,3916,3935,3955,3975,3995,4015,4036,4055,4076,4095,4116,4135,4155,4175,4196,4215,4235,4255,4275,4295,4316,4335,4355,4375,4395,4415,4435],"xSR":741.5,"ySR":573.95,"xT1":424.9,"yT1":0,"xT2":1058.1,"yT2":0,"toosoon":0,"cond_shown":"equaldotsize","ratio_trial":500,"smaller_num":"5","larger_num":"10","correct_side":1,"subjID":"SaraSofiaBohorquez31","gender":"1","age":"8","school":"4"},{"start_time":1552069911898,"click_time":1552069913549,"finger_time":1552069912808,"fix_duration":708.8816600156383,"trial":26,"RT":910,"MT":741,"sideResp":2,"stimulus":"img/250/randomdotsizeEA/R/11_Ratio_250_L_3_R_12.png","xmouse":[790,790,790,790,790,790,790,790,790,790,790,790,790,790,790,790,790,790,790,789,789,789,789,789,789,789,789,789,790,790,791,792,793,794,794,795,796,797,797,799,803,806,809,816,825,833,857,868,879,889,900,928,949,954,969,978,983,988,994,1000,1019,1034,1053,1071,1092,1108,1136,1143,1149,1153,1156,1161,1162,1162,1162,1162,1160,1153,1143,1134,1127,1116,1115],"ymouse":[643,643,643,643,643,643,643,643,643,643,643,643,643,643,643,642,642,641,640,640,639,639,639,638,637,636,635,634,632,632,631,630,629,628,627,626,625,624,623,621,615,611,606,592,577,563,522,504,491,481,465,429,409,404,391,369,358,345,333,323,297,285,268,250,227,214,200,197,193,190,187,183,183,182,182,182,176,167,153,141,130,104,92],"timestamp_mouse":[13,41,51,70,90,111,130,150,170,192,211,230,252,270,291,311,331,351,370,390,411,431,450,471,491,510,531,550,571,590,611,631,651,670,690,710,730,750,770,790,811,830,851,870,890,910,930,950,971,992,1011,1030,1051,1071,1091,1111,1130,1150,1170,1190,1211,1230,1250,1271,1290,1310,1330,1350,1370,1390,1410,1430,1451,1471,1490,1510,1530,1550,1571,1590,1610,1630,1650],"xSR":741.5,"ySR":573.95,"xT1":424.9,"yT1":0,"xT2":1058.1,"yT2":0,"toosoon":0,"cond_shown":"randomdotsizeEA","ratio_trial":250,"smaller_num":"3","larger_num":"12","correct_side":2,"subjID":"SaraSofiaBohorquez31","gender":"1","age":"8","school":"4"},{"start_time":1552069915080,"click_time":1552069916648,"finger_time":1552069916269,"fix_duration":250,"trial":27,"RT":1189,"MT":379,"sideResp":1,"stimulus":"img/500/randomdotsizeEA/R/2_Ratio_500_L_3_R_6.png","xmouse":[795,795,795,795,795,795,795,795,795,795,795,795,795,795,795,795,795,795,795,795,795,795,795,795,795,795,796,797,797,797,798,798,799,799,800,800,800,800,800,800,800,800,800,800,800,800,800,800,800,800,800,800,800,800,800,800,800,796,793,786,777,766,721,710,670,640,619,594,585,577,568,556,535,533,533,533,533,527,523],"ymouse":[647,647,647,647,647,647,647,647,647,647,647,647,647,647,647,647,647,647,647,647,647,647,647,647,646,646,646,645,644,643,643,642,641,640,639,639,639,639,639,639,639,638,638,638,638,638,638,638,638,638,638,638,638,638,637,635,628,599,580,557,529,491,323,285,185,141,114,85,74,62,48,32,12,10,10,10,10,15,22],"timestamp_mouse":[12,36,48,68,88,108,128,148,169,188,210,228,248,268,289,310,328,348,370,390,409,429,449,469,488,508,529,548,569,588,608,629,649,669,688,709,728,749,769,788,809,829,848,868,888,908,928,948,969,989,1010,1028,1049,1068,1089,1108,1128,1148,1168,1189,1208,1228,1248,1269,1288,1309,1329,1348,1368,1389,1408,1428,1448,1469,1490,1508,1528,1548,1568],"xSR":741.5,"ySR":573.95,"xT1":424.9,"yT1":0,"xT2":1058.1,"yT2":0,"toosoon":0,"cond_shown":"randomdotsizeEA","ratio_trial":500,"smaller_num":"3","larger_num":"6","correct_side":2,"subjID":"SaraSofiaBohorquez31","gender":"1","age":"8","school":"4"},{"start_time":1552069935771,"click_time":1552069937128,"finger_time":1552069936568,"fix_duration":460.10079438508467,"trial":28,"RT":797,"MT":560,"sideResp":2,"stimulus":"img/500/equaldotsize/R/12_Ratio_500_L_1_R_2.png","xmouse":[799,799,799,799,799,799,799,799,799,799,799,799,799,799,799,799,799,799,799,799,799,799,799,799,799,799,799,799,799,799,799,799,799,799,799,799,799,800,812,920,971,1008,1033,1049,1064,1068,1079,1095,1106,1113,1110,1103,1089,1073,1056,1052,1050,1049,1049,1049,1049,1050,1050,1052,1055,1056,1058,1059],"ymouse":[629,629,629,629,629,629,629,629,629,629,629,629,629,629,629,629,629,629,629,629,629,629,629,629,629,629,629,629,629,629,629,629,629,629,629,629,629,629,629,591,568,547,527,507,452,421,371,316,273,226,214,200,182,162,136,129,124,120,118,113,111,108,106,102,94,90,86,82],"timestamp_mouse":[17,37,57,78,97,118,137,158,177,198,217,237,257,278,297,317,337,359,378,397,417,437,459,478,497,518,537,557,577,597,617,639,658,678,697,717,739,757,778,797,817,838,858,877,897,917,937,957,978,997,1018,1037,1058,1077,1097,1117,1137,1157,1178,1197,1217,1237,1258,1277,1297,1317,1338,1357],"xSR":741.5,"ySR":573.95,"xT1":424.9,"yT1":0,"xT2":1058.1,"yT2":0,"toosoon":0,"cond_shown":"equaldotsize","ratio_trial":500,"smaller_num":"1","larger_num":"2","correct_side":2,"subjID":"SaraSofiaBohorquez31","gender":"1","age":"8","school":"4"},{"start_time":1552069938634,"click_time":1552069939870,"finger_time":1552069939349,"fix_duration":664.5493215059055,"trial":29,"RT":715,"MT":521,"sideResp":1,"stimulus":"img/750/randomdotsizeEA/L/13_Ratio_750_L_8_R_6.png","xmouse":[792,792,792,792,792,792,792,792,792,792,792,792,792,792,792,792,792,792,792,792,792,792,792,792,792,792,792,792,792,792,792,792,792,792,792,788,773,742,733,727,723,720,717,714,708,693,675,628,606,588,574,561,543,537,533,527,516,513,510,507,504,494],"ymouse":[635,635,635,635,635,635,635,635,635,635,635,635,635,635,635,635,635,635,635,635,635,635,635,635,635,635,635,635,635,635,635,635,635,635,615,554,492,409,389,374,364,357,341,331,317,292,270,212,191,177,166,158,148,147,145,142,135,131,125,117,104,76],"timestamp_mouse":[16,37,55,75,95,114,135,155,175,195,214,236,254,275,294,314,336,356,375,395,415,435,455,474,495,516,535,554,575,595,616,636,654,674,694,715,734,754,774,794,814,834,854,874,895,914,934,954,974,995,1015,1034,1054,1074,1094,1116,1136,1154,1174,1194,1214,1235],"xSR":741.5,"ySR":573.95,"xT1":424.9,"yT1":0,"xT2":1058.1,"yT2":0,"toosoon":0,"cond_shown":"randomdotsizeEA","ratio_trial":750,"smaller_num":"6","larger_num":"8","correct_side":1,"subjID":"SaraSofiaBohorquez31","gender":"1","age":"8","school":"4"},{"start_time":1552069941444,"click_time":1552069942888,"finger_time":1552069942168,"fix_duration":634.5168340383723,"trial":30,"RT":724,"MT":720,"sideResp":2,"stimulus":"img/750/equaldotanddens/R/11_Ratio_750_L_12_R_16.png","xmouse":[816,816,816,816,816,816,816,816,816,816,816,816,816,816,816,816,816,816,816,816,816,816,816,816,816,816,816,816,816,816,816,816,816,816,816,822,842,880,889,895,899,905,943,986,1030,1074,1123,1205,1229,1236,1237,1235,1229,1220,1213,1203,1198,1194,1194,1193,1192,1188,1174,1171,1170,1169,1168,1165,1163,1162,1161,1161,1158],"ymouse":[623,623,623,623,623,623,623,623,623,623,623,623,623,623,623,623,623,623,623,623,623,623,623,623,623,623,623,623,623,623,623,623,623,623,622,610,556,448,427,416,405,395,343,302,271,239,205,131,101,86,80,74,60,48,39,32,28,25,25,25,25,27,34,35,36,37,38,41,43,45,45,46,48],"timestamp_mouse":[13,24,44,65,85,106,124,145,164,184,204,225,246,264,285,305,325,345,366,385,405,425,445,465,484,505,524,545,565,585,604,624,644,666,684,704,724,744,765,784,804,825,844,864,884,904,924,944,964,984,1005,1025,1044,1064,1084,1104,1124,1144,1165,1184,1204,1225,1244,1265,1284,1304,1325,1344,1364,1384,1404,1425,1444],"xSR":741.5,"ySR":573.95,"xT1":424.9,"yT1":0,"xT2":1058.1,"yT2":0,"toosoon":0,"cond_shown":"equaldotanddens","ratio_trial":750,"smaller_num":"12","larger_num":"16","correct_side":2,"subjID":"SaraSofiaBohorquez31","gender":"1","age":"8","school":"4"},{"start_time":1552069944143,"click_time":1552069945388,"finger_time":1552069944789,"fix_duration":352.5962464421776,"trial":31,"RT":646,"MT":599,"sideResp":1,"stimulus":"img/250/randomdotsizeEA/R/10_Ratio_250_L_4_R_16.png","xmouse":[809,809,809,809,809,809,809,809,809,809,809,809,809,809,809,809,809,809,809,809,809,809,809,809,809,809,809,809,809,809,809,807,798,778,746,712,687,669,652,651,649,647,643,634,628,624,621,612,602,589,571,551,523,513,506,502,497,485,476,469,462,455,441],"ymouse":[616,616,616,616,616,616,616,616,616,616,616,616,616,616,616,616,616,616,616,616,616,616,616,616,616,616,616,616,616,616,616,607,568,530,491,462,446,438,430,429,427,424,416,395,381,367,355,322,288,259,225,193,160,151,145,142,137,128,122,115,109,103,81],"timestamp_mouse":[12,25,45,66,86,105,126,145,165,186,207,227,245,266,285,306,327,346,366,385,406,426,446,465,486,507,527,545,566,585,606,625,646,666,686,705,725,745,765,785,805,825,845,865,885,905,927,945,966,985,1005,1025,1045,1065,1085,1105,1126,1145,1166,1186,1205,1225,1245],"xSR":741.5,"ySR":573.95,"xT1":424.9,"yT1":0,"xT2":1058.1,"yT2":0,"toosoon":0,"cond_shown":"randomdotsizeEA","ratio_trial":250,"smaller_num":"4","larger_num":"16","correct_side":2,"subjID":"SaraSofiaBohorquez31","gender":"1","age":"8","school":"4"},{"start_time":1552069946540,"click_time":1552069948448,"finger_time":1552069947768,"fix_duration":250,"trial":32,"RT":1228,"MT":680,"sideResp":1,"stimulus":"img/750/equaldotanddens/L/1_Ratio_750_L_20_R_15.png","xmouse":[791,791,791,791,791,792,792,792,792,792,792,792,792,792,792,792,792,792,792,792,792,792,792,792,792,792,792,792,792,792,792,792,792,792,792,792,792,792,792,792,792,792,792,792,792,792,792,792,792,792,792,792,792,792,792,792,792,792,792,792,816,855,942,1093,1112,1114,1111,1097,1076,1062,1046,1026,984,972,966,959,950,927,908,888,865,846,815,801,783,757,706,634,607,590,574,561,551,525,508,492],"ymouse":[641,641,641,641,641,640,640,640,640,640,640,640,640,640,640,640,640,640,640,640,640,640,640,640,640,640,640,640,640,640,640,640,640,640,640,640,640,640,640,640,640,640,640,640,640,640,640,640,640,640,640,640,640,640,640,640,640,640,640,640,639,634,619,581,575,571,566,546,523,514,503,489,463,454,446,434,412,370,349,334,322,310,288,277,262,242,209,168,155,147,139,132,127,112,103,97],"timestamp_mouse":[12,36,48,68,88,108,129,148,168,189,208,229,249,268,288,308,328,349,368,389,409,428,449,469,488,508,529,549,569,588,609,628,648,669,688,709,729,748,769,788,808,830,849,868,888,909,928,949,969,988,1008,1028,1049,1069,1089,1109,1130,1149,1169,1188,1209,1228,1249,1268,1288,1308,1329,1349,1369,1389,1408,1428,1449,1468,1488,1508,1529,1549,1568,1589,1609,1628,1649,1668,1689,1708,1729,1748,1768,1788,1808,1828,1848,1868,1889,1908],"xSR":741.5,"ySR":573.95,"xT1":424.9,"yT1":0,"xT2":1058.1,"yT2":0,"toosoon":0,"cond_shown":"equaldotanddens","ratio_trial":750,"smaller_num":"15","larger_num":"20","correct_side":1,"subjID":"SaraSofiaBohorquez31","gender":"1","age":"8","school":"4"},{"start_time":1552069949860,"click_time":1552069950828,"finger_time":1552069950588,"fix_duration":250,"trial":33,"RT":728,"MT":240,"sideResp":1,"stimulus":"img/250/equaldotanddens/L/15_Ratio_250_L_12_R_3.png","xmouse":[792,792,792,792,792,792,792,792,792,792,792,792,792,792,792,792,792,792,792,792,792,792,792,792,792,792,792,792,792,792,792,792,792,792,792,792,787,764,733,713,698,686,666,657,645,624,596,525,473],"ymouse":[626,626,626,626,626,626,626,626,626,626,626,626,626,626,626,626,626,626,626,626,626,626,626,626,626,626,626,626,626,626,626,626,626,624,619,601,570,479,400,370,352,340,306,286,262,228,184,96,61],"timestamp_mouse":[12,37,48,68,89,108,128,148,168,188,208,228,248,269,288,308,328,349,369,388,410,429,449,469,488,509,528,549,569,589,608,629,648,668,689,708,728,748,768,788,809,829,848,868,889,909,928,948,968],"xSR":741.5,"ySR":573.95,"xT1":424.9,"yT1":0,"xT2":1058.1,"yT2":0,"toosoon":0,"cond_shown":"equaldotanddens","ratio_trial":250,"smaller_num":"3","larger_num":"12","correct_side":1,"subjID":"SaraSofiaBohorquez31","gender":"1","age":"8","school":"4"},{"start_time":1552069952985,"click_time":1552069954408,"finger_time":1552069953708,"fix_duration":1115.2268712199666,"trial":34,"RT":723,"MT":700,"sideResp":2,"stimulus":"img/500/equaldotanddens/R/6_Ratio_500_L_9_R_18.png","xmouse":[776,776,776,776,776,776,776,776,776,776,776,776,776,776,776,776,776,776,776,776,776,776,776,776,776,776,776,776,776,776,776,776,780,799,819,834,859,866,873,878,883,902,921,930,936,941,952,956,963,970,977,1005,1016,1027,1035,1041,1044,1048,1051,1057,1060,1073,1079,1085,1091,1097,1112,1118,1124,1131,1139,1148],"ymouse":[634,634,634,634,634,634,634,634,634,634,634,634,634,634,634,634,634,634,634,634,634,634,634,634,634,634,634,634,634,634,634,634,632,624,614,606,586,570,552,531,512,465,432,415,403,392,363,352,336,319,303,259,243,230,220,212,205,199,194,183,178,159,151,146,140,136,126,121,116,109,100,89],"timestamp_mouse":[13,34,43,63,84,104,123,143,164,184,204,223,243,264,284,303,323,344,364,383,404,423,444,464,484,503,523,544,563,584,603,623,643,663,684,703,723,743,764,783,805,823,843,863,884,903,923,943,964,983,1003,1023,1043,1063,1084,1103,1123,1143,1163,1183,1203,1223,1243,1263,1283,1303,1323,1343,1364,1384,1403,1423],"xSR":741.5,"ySR":573.95,"xT1":424.9,"yT1":0,"xT2":1058.1,"yT2":0,"toosoon":0,"cond_shown":"equaldotanddens","ratio_trial":500,"smaller_num":"9","larger_num":"18","correct_side":2,"subjID":"SaraSofiaBohorquez31","gender":"1","age":"8","school":"4"},{"start_time":1552069956189,"click_time":1552069957829,"finger_time":1552069957409,"fix_duration":660.4656868747537,"trial":35,"RT":1220,"MT":420,"sideResp":2,"stimulus":"img/500/equaldotsize/R/6_Ratio_500_L_9_R_18.png","xmouse":[778,778,778,778,778,778,778,778,778,778,778,778,778,778,778,778,778,778,778,778,778,778,778,778,778,778,778,778,778,778,778,778,778,778,778,778,778,778,778,778,778,778,778,778,778,778,778,778,778,778,778,778,778,778,778,778,778,778,778,778,833,911,1005,1098,1184,1271,1288,1300,1308,1319,1336,1346,1353,1354,1352,1348,1338,1318,1266,1220,1160,1149],"ymouse":[617,617,617,617,617,617,617,617,617,617,617,617,617,617,617,617,617,617,617,617,617,617,617,617,617,617,617,617,617,617,617,617,617,617,617,617,617,617,617,617,617,617,617,617,617,617,617,617,617,617,617,617,617,617,617,617,617,617,617,617,563,474,381,301,231,155,140,129,118,98,59,36,15,2,0,0,1,9,25,38,46,46],"timestamp_mouse":[20,39,59,79,101,119,139,160,179,199,220,240,260,280,299,320,339,359,380,400,420,439,460,480,499,519,540,559,580,600,620,639,659,680,699,720,741,759,780,800,820,839,859,880,900,920,939,960,980,1000,1020,1040,1060,1079,1099,1119,1140,1159,1180,1200,1220,1239,1259,1279,1299,1321,1339,1361,1379,1400,1420,1440,1459,1479,1499,1520,1540,1560,1579,1599,1620,1639],"xSR":741.5,"ySR":573.95,"xT1":424.9,"yT1":0,"xT2":1058.1,"yT2":0,"toosoon":0,"cond_shown":"equaldotsize","ratio_trial":500,"smaller_num":"9","larger_num":"18","correct_side":2,"subjID":"SaraSofiaBohorquez31","gender":"1","age":"8","school":"4"},{"start_time":1552069959625,"click_time":1552069961128,"finger_time":1552069960509,"fix_duration":815.0910031725028,"trial":36,"RT":884,"MT":619,"sideResp":2,"stimulus":"img/750/equaldotsize/R/11_Ratio_750_L_12_R_16.png","xmouse":[789,789,789,789,789,789,789,789,789,789,789,789,789,789,789,789,789,789,789,789,789,789,789,789,789,789,789,789,789,789,789,789,789,789,789,789,789,789,789,789,791,799,807,813,819,840,848,858,867,877,895,906,914,922,933,972,987,997,1003,1008,1009,1009,1010,1013,1018,1029,1037,1042,1047,1053,1063,1068,1073,1078,1083,1091],"ymouse":[635,635,635,635,635,635,635,635,635,635,635,635,635,635,635,635,635,635,635,635,635,635,635,635,635,635,635,635,635,635,635,635,635,635,635,635,635,635,635,635,631,618,602,586,570,523,502,478,456,437,404,384,367,350,333,276,255,237,225,217,215,213,213,211,207,197,188,181,176,171,157,148,137,124,113,91],"timestamp_mouse":[13,37,43,63,83,103,124,143,163,183,204,224,244,263,284,303,324,343,363,384,403,424,444,463,484,503,523,544,563,583,603,624,644,663,683,703,723,743,764,783,803,823,843,864,884,903,923,943,964,983,1003,1023,1043,1063,1083,1103,1123,1143,1163,1183,1203,1224,1244,1263,1283,1303,1323,1343,1364,1383,1403,1423,1443,1463,1484,1503],"xSR":741.5,"ySR":573.95,"xT1":424.9,"yT1":0,"xT2":1058.1,"yT2":0,"toosoon":0,"cond_shown":"equaldotsize","ratio_trial":750,"smaller_num":"12","larger_num":"16","correct_side":2,"subjID":"SaraSofiaBohorquez31","gender":"1","age":"8","school":"4"},{"start_time":1552069962979,"click_time":1552069964028,"finger_time":1552069963749,"fix_duration":928.2156940002448,"trial":37,"RT":770,"MT":279,"sideResp":1,"stimulus":"img/250/equaldotanddens/L/1_Ratio_250_L_8_R_2.png","xmouse":[791,791,791,791,791,791,791,791,791,791,791,791,791,791,791,791,791,791,791,791,791,791,791,791,791,791,791,791,791,791,791,791,791,791,791,789,788,771,757,741,711,673,585,552,521,501,482,472,467,461,454,446,435],"ymouse":[636,636,636,636,636,636,636,636,636,636,636,636,636,636,636,636,636,636,636,636,636,636,636,636,636,636,636,636,636,636,636,636,636,636,636,634,628,592,567,542,500,443,329,287,256,234,207,173,158,141,125,112,96],"timestamp_mouse":[13,34,49,69,89,109,130,149,170,189,209,229,249,270,291,309,330,349,369,389,409,430,449,469,490,509,529,549,570,590,610,630,649,669,689,709,730,750,770,789,809,829,849,869,889,909,929,950,969,989,1009,1029,1049],"xSR":741.5,"ySR":573.95,"xT1":424.9,"yT1":0,"xT2":1058.1,"yT2":0,"toosoon":0,"cond_shown":"equaldotanddens","ratio_trial":250,"smaller_num":"2","larger_num":"8","correct_side":1,"subjID":"SaraSofiaBohorquez31","gender":"1","age":"8","school":"4"},{"start_time":1552069966525,"click_time":1552069967728,"finger_time":1552069967448,"fix_duration":1175.095415200936,"trial":38,"RT":923,"MT":280,"sideResp":1,"stimulus":"img/900/equaldotanddens/L/10_Ratio_900_L_20_R_18.png","xmouse":[783,783,783,783,783,783,783,783,783,783,783,783,783,783,783,783,783,783,783,783,783,783,783,783,783,783,783,783,783,783,783,783,783,783,783,783,783,783,783,783,783,783,783,784,786,788,788,788,780,770,756,713,689,660,625,598,545,535,529,525,522],"ymouse":[648,648,648,648,648,648,648,648,648,648,648,648,648,648,648,648,648,648,648,648,648,648,648,648,648,648,648,648,648,648,648,648,648,648,648,648,648,648,646,644,639,630,624,614,603,589,550,525,485,452,420,346,312,275,233,194,112,87,58,31,12],"timestamp_mouse":[13,38,44,64,84,104,124,145,163,183,203,223,243,263,283,304,324,344,363,384,404,423,444,463,483,504,525,544,564,585,603,623,643,663,684,704,723,743,763,784,803,823,843,863,883,904,923,943,963,984,1003,1023,1044,1065,1084,1103,1123,1143,1163,1184,1203],"xSR":741.5,"ySR":573.95,"xT1":424.9,"yT1":0,"xT2":1058.1,"yT2":0,"toosoon":0,"cond_shown":"equaldotanddens","ratio_trial":900,"smaller_num":"18","larger_num":"20","correct_side":1,"subjID":"SaraSofiaBohorquez31","gender":"1","age":"8","school":"4"},{"start_time":1552069970112,"click_time":1552069971968,"finger_time":1552069970808,"fix_duration":1402.7757748670658,"trial":39,"RT":696,"MT":1160,"sideResp":2,"stimulus":"img/500/equaldotanddens/R/9_Ratio_500_L_2_R_4.png","xmouse":[742,742,742,742,742,742,742,742,742,742,742,742,742,742,742,742,742,742,742,742,742,742,742,742,742,742,742,742,742,742,742,742,742,742,733,728,719,710,710,711,716,722,725,727,732,743,790,841,912,996,1080,1214,1253,1278,1290,1294,1295,1295,1293,1288,1282,1267,1260,1255,1252,1249,1249,1249,1251,1251,1251,1251,1251,1251,1245,1241,1198,1181,1171,1169,1169,1169,1169,1169,1169,1168,1165,1164,1164,1163,1162,1159,1157],"ymouse":[656,656,656,656,656,656,656,656,656,656,656,656,656,656,656,656,656,656,656,656,656,656,656,656,656,656,656,656,656,656,656,656,656,656,646,632,597,493,464,441,427,418,418,416,416,415,409,404,404,404,404,400,395,389,382,379,365,361,355,343,327,292,275,264,254,243,225,219,213,210,209,209,208,207,193,186,122,99,88,86,86,86,86,86,86,85,81,80,79,78,77,73,71],"timestamp_mouse":[17,36,56,77,97,117,136,156,177,196,217,236,256,276,297,316,336,357,376,398,417,436,456,477,497,516,536,556,577,596,616,636,656,676,696,716,736,757,776,796,816,836,856,876,896,917,936,958,976,996,1016,1036,1056,1076,1096,1117,1136,1157,1176,1198,1216,1237,1256,1276,1297,1316,1336,1356,1376,1396,1417,1436,1456,1477,1496,1517,1536,1558,1576,1597,1617,1636,1656,1677,1696,1717,1736,1756,1776,1796,1816,1836,1856],"xSR":741.5,"ySR":573.95,"xT1":424.9,"yT1":0,"xT2":1058.1,"yT2":0,"toosoon":0,"cond_shown":"equaldotanddens","ratio_trial":500,"smaller_num":"2","larger_num":"4","correct_side":2,"subjID":"SaraSofiaBohorquez31","gender":"1","age":"8","school":"4"},{"start_time":1552069974156,"click_time":1552069975888,"finger_time":1552069975088,"fix_duration":1206.9019522426972,"trial":40,"RT":932,"MT":800,"sideResp":1,"stimulus":"img/250/randomdotsizeEA/L/1_Ratio_250_L_8_R_2.png","xmouse":[800,800,800,800,800,800,800,800,800,800,800,800,800,800,800,800,800,800,800,800,800,800,800,800,800,800,800,800,800,800,800,800,800,800,800,800,800,800,800,800,800,800,800,800,789,777,762,745,726,711,690,680,665,655,637,629,624,619,612,604,584,571,559,537,504,491,481,475,471,469,466,466,466,466,466,466,466,466,466,466,466,466,466,466,466,466,466],"ymouse":[622,622,622,622,622,622,622,622,622,622,622,622,622,622,622,622,622,622,622,622,622,622,622,622,622,622,622,622,622,622,622,622,622,622,622,622,622,622,622,622,622,622,622,622,606,590,572,550,528,504,442,408,370,350,317,304,295,284,273,261,236,221,206,179,148,138,130,124,120,117,114,114,114,114,114,114,114,114,114,114,114,113,109,108,107,103,99],"timestamp_mouse":[13,39,52,72,93,112,133,152,173,192,213,233,254,273,292,312,332,352,372,392,412,432,453,472,493,513,534,554,573,593,612,633,652,673,693,712,732,753,772,792,812,833,852,872,893,912,932,952,972,993,1012,1033,1052,1073,1094,1113,1133,1152,1173,1193,1212,1232,1252,1273,1293,1313,1333,1352,1373,1393,1413,1432,1454,1473,1492,1513,1533,1552,1572,1592,1612,1633,1653,1673,1692,1712,1732],"xSR":741.5,"ySR":573.95,"xT1":424.9,"yT1":0,"xT2":1058.1,"yT2":0,"toosoon":0,"cond_shown":"randomdotsizeEA","ratio_trial":250,"smaller_num":"2","larger_num":"8","correct_side":1,"subjID":"SaraSofiaBohorquez31","gender":"1","age":"8","school":"4"},{"start_time":1552070000573,"click_time":1552070001728,"finger_time":1552070001189,"fix_duration":321.49280535374845,"trial":41,"RT":616,"MT":539,"sideResp":2,"stimulus":"img/500/equaldotanddens/R/1_Ratio_500_L_9_R_18.png","xmouse":[804,804,804,804,804,803,801,796,791,787,778,773,771,771,771,771,769,767,766,766,766,766,766,766,766,766,766,766,766,766,771,778,792,792,799,812,828,871,889,904,923,944,957,972,992,1012,1036,1080,1092,1099,1100,1100,1100,1100,1101,1104,1105,1107],"ymouse":[638,638,638,638,639,638,637,630,627,623,614,607,603,602,601,598,593,590,590,589,589,589,589,589,589,589,589,589,589,584,572,553,485,444,400,354,296,222,200,191,182,175,173,168,163,158,153,144,140,138,137,137,132,125,118,110,104,98],"timestamp_mouse":[16,38,55,76,95,115,135,155,176,196,216,235,256,275,295,316,336,355,375,396,415,436,455,475,496,515,536,555,576,595,616,635,655,675,696,716,735,755,775,795,815,836,855,876,896,915,935,955,976,996,1015,1036,1055,1075,1095,1116,1135,1155],"xSR":741.5,"ySR":573.95,"xT1":424.9,"yT1":0,"xT2":1058.1,"yT2":0,"toosoon":0,"cond_shown":"equaldotanddens","ratio_trial":500,"smaller_num":"9","larger_num":"18","correct_side":2,"subjID":"SaraSofiaBohorquez31","gender":"1","age":"8","school":"4"},{"start_time":1552070004979,"click_time":1552070005989,"finger_time":1552070005569,"fix_duration":250,"trial":42,"RT":590,"MT":420,"sideResp":1,"stimulus":"img/250/randomdotsizeEA/L/14_Ratio_250_L_12_R_3.png","xmouse":[795,795,795,795,795,795,795,795,795,795,794,793,793,793,793,793,793,792,791,790,790,789,789,789,789,787,786,768,756,737,717,700,679,675,673,673,670,646,631,617,603,594,579,576,574,572,571,545,529,511,493],"ymouse":[646,646,646,646,646,646,646,646,646,646,645,644,643,643,643,643,643,641,640,638,638,638,638,637,637,636,635,619,597,551,491,429,336,303,275,251,229,175,152,133,117,108,96,94,94,94,94,99,100,100,97],"timestamp_mouse":[20,30,50,69,90,109,130,149,170,190,209,229,249,270,289,309,329,349,369,389,410,430,449,469,490,509,529,549,570,590,609,630,649,669,689,709,730,749,771,789,810,830,849,869,889,909,929,949,971,989,1010],"xSR":741.5,"ySR":573.95,"xT1":424.9,"yT1":0,"xT2":1058.1,"yT2":0,"toosoon":0,"cond_shown":"randomdotsizeEA","ratio_trial":250,"smaller_num":"3","larger_num":"12","correct_side":1,"subjID":"SaraSofiaBohorquez31","gender":"1","age":"8","school":"4"},{"start_time":1552070007400,"click_time":1552070008630,"finger_time":1552070008029,"fix_duration":250,"trial":43,"RT":629,"MT":601,"sideResp":2,"stimulus":"img/750/equaldotanddens/R/7_Ratio_750_L_3_R_4.png","xmouse":[768,767,767,767,767,767,767,767,767,767,767,767,767,767,767,767,767,767,769,769,770,772,774,774,774,774,774,775,778,786,807,887,946,989,1026,1057,1076,1128,1178,1225,1259,1280,1286,1286,1280,1269,1252,1248,1245,1242,1242,1239,1234,1228,1218,1213,1209,1200,1194,1184,1176,1152],"ymouse":[601,600,600,600,600,600,600,600,600,600,600,600,600,600,600,600,600,600,600,601,601,602,602,602,602,602,602,602,602,602,595,559,526,496,468,432,403,319,251,185,136,107,87,79,66,47,24,19,18,17,17,17,17,17,17,18,19,22,23,24,26,30],"timestamp_mouse":[8,37,48,68,88,108,128,149,169,188,209,229,249,269,288,308,329,349,369,389,410,429,449,469,489,508,528,549,569,588,608,629,648,668,689,709,728,749,770,788,808,828,848,869,888,908,929,948,969,990,1008,1029,1048,1068,1088,1108,1128,1149,1169,1188,1209,1229],"xSR":741.5,"ySR":573.95,"xT1":424.9,"yT1":0,"xT2":1058.1,"yT2":0,"toosoon":0,"cond_shown":"equaldotanddens","ratio_trial":750,"smaller_num":"3","larger_num":"4","correct_side":2,"subjID":"SaraSofiaBohorquez31","gender":"1","age":"8","school":"4"},{"start_time":1552070011664,"click_time":1552070012488,"finger_time":1552070012268,"fix_duration":614.4215420628555,"trial":44,"RT":604,"MT":220,"sideResp":2,"stimulus":"img/250/equaldotsize/R/4_Ratio_250_L_3_R_12.png","xmouse":[790,789,789,788,788,786,785,784,784,783,783,783,783,783,783,783,783,783,783,783,783,783,783,783,783,784,786,790,796,828,847,874,904,931,986,998,1009,1019,1029,1045,1057,1062],"ymouse":[667,667,667,665,661,655,647,641,636,630,630,630,630,630,630,630,630,630,630,630,630,630,630,630,630,629,629,626,620,574,530,475,408,333,197,170,153,138,129,112,101,95],"timestamp_mouse":[12,34,45,65,84,105,124,144,164,184,205,224,244,265,284,304,324,346,364,385,406,425,444,464,484,504,524,544,565,584,604,624,645,664,684,704,725,744,765,784,804,824],"xSR":741.5,"ySR":573.95,"xT1":424.9,"yT1":0,"xT2":1058.1,"yT2":0,"toosoon":0,"cond_shown":"equaldotsize","ratio_trial":250,"smaller_num":"3","larger_num":"12","correct_side":2,"subjID":"SaraSofiaBohorquez31","gender":"1","age":"8","school":"4"},{"start_time":1552070013871,"click_time":1552070014908,"finger_time":1552070014488,"fix_duration":322.95519316559694,"trial":45,"RT":617,"MT":420,"sideResp":1,"stimulus":"img/750/randomdotsizeEA/L/1_Ratio_750_L_20_R_15.png","xmouse":[774,774,774,774,774,774,774,774,774,774,774,774,774,774,774,774,774,774,774,774,774,774,774,774,774,774,774,774,774,774,774,768,748,692,669,653,644,640,632,626,620,612,606,600,597,595,593,590,573,557,535,507],"ymouse":[620,620,620,620,620,620,620,620,620,620,620,620,620,620,620,620,620,620,620,620,620,620,620,620,620,620,620,620,616,598,563,501,420,279,236,212,199,191,179,172,165,156,150,144,142,141,140,139,133,125,110,88],"timestamp_mouse":[17,43,58,77,97,118,138,158,177,197,218,238,258,277,297,318,337,357,377,397,418,438,457,477,497,517,537,558,577,598,617,638,658,677,697,717,738,757,777,797,817,838,858,877,899,917,938,957,977,997,1017,1037],"xSR":741.5,"ySR":573.95,"xT1":424.9,"yT1":0,"xT2":1058.1,"yT2":0,"toosoon":0,"cond_shown":"randomdotsizeEA","ratio_trial":750,"smaller_num":"15","larger_num":"20","correct_side":1,"subjID":"SaraSofiaBohorquez31","gender":"1","age":"8","school":"4"},{"start_time":1552070016246,"click_time":1552070017688,"finger_time":1552070016949,"fix_duration":517.5116711037381,"trial":46,"RT":703,"MT":739,"sideResp":1,"stimulus":"img/750/equaldotanddens/R/15_Ratio_750_L_9_R_12.png","xmouse":[796,796,796,796,796,796,796,796,796,796,796,796,796,796,796,796,794,794,794,794,794,794,794,794,793,793,792,792,792,792,792,792,801,816,833,845,874,885,893,899,900,900,900,900,900,900,898,897,895,892,881,837,799,760,718,671,658,655,652,650,645,631,621,611,603,596,585,576,562,550,533,525,522],"ymouse":[622,622,622,622,622,622,622,622,622,622,622,622,622,622,622,623,623,624,624,624,624,624,624,624,624,624,624,624,624,624,624,623,615,603,591,580,546,521,491,456,428,422,418,416,415,413,410,408,407,403,398,386,375,362,346,318,309,304,299,291,281,258,245,234,223,209,180,162,131,110,81,70,66],"timestamp_mouse":[11,35,43,63,83,102,123,143,163,183,203,223,242,263,282,302,322,343,363,382,403,423,442,463,482,502,523,542,563,583,602,623,642,662,682,703,722,742,762,782,803,822,842,862,882,904,923,942,962,982,1002,1022,1043,1063,1082,1103,1122,1142,1163,1182,1202,1223,1242,1263,1282,1303,1323,1343,1362,1382,1403,1422,1442],"xSR":741.5,"ySR":573.95,"xT1":424.9,"yT1":0,"xT2":1058.1,"yT2":0,"toosoon":0,"cond_shown":"equaldotanddens","ratio_trial":750,"smaller_num":"9","larger_num":"12","correct_side":2,"subjID":"SaraSofiaBohorquez31","gender":"1","age":"8","school":"4"},{"start_time":1552070020030,"click_time":1552070021029,"finger_time":1552070020768,"fix_duration":1461.62913803697,"trial":47,"RT":738,"MT":261,"sideResp":1,"stimulus":"img/900/randomdotsizeEA/R/12_Ratio_900_L_18_R_20.png","xmouse":[783,781,779,777,777,777,777,777,777,777,777,777,777,777,777,777,773,772,772,772,772,772,772,772,772,772,772,772,772,772,772,772,772,770,768,761,737,706,681,655,631,605,595,589,581,574,556,540,525,513],"ymouse":[629,629,629,630,630,630,630,630,630,630,630,630,630,630,630,630,631,632,632,632,632,632,632,632,632,632,632,632,632,632,632,632,628,623,606,584,519,450,391,339,296,246,229,217,204,191,157,121,90,63],"timestamp_mouse":[18,38,58,78,99,118,138,160,179,198,219,239,258,279,299,319,338,358,378,398,419,438,458,478,498,518,538,559,578,598,619,638,658,679,698,718,738,758,778,799,818,838,858,878,899,918,938,958,978,998],"xSR":741.5,"ySR":573.95,"xT1":424.9,"yT1":0,"xT2":1058.1,"yT2":0,"toosoon":0,"cond_shown":"randomdotsizeEA","ratio_trial":900,"smaller_num":"18","larger_num":"20","correct_side":2,"subjID":"SaraSofiaBohorquez31","gender":"1","age":"8","school":"4"},{"start_time":1552070023449,"click_time":1552070024469,"finger_time":1552070024169,"fix_duration":1459.2369218591502,"trial":48,"RT":720,"MT":300,"sideResp":1,"stimulus":"img/250/randomdotsizeEA/L/5_Ratio_250_L_24_R_6.png","xmouse":[764,769,774,774,774,774,774,775,775,775,775,775,775,775,775,775,775,775,775,775,775,775,775,775,775,775,775,775,775,775,775,775,775,775,772,751,740,725,711,699,690,679,673,663,652,608,588,564,536,509,472],"ymouse":[653,650,648,648,648,648,648,648,648,648,648,648,648,648,648,648,648,648,648,648,648,648,648,648,648,648,648,648,648,648,648,648,645,639,607,550,521,493,472,451,436,416,405,387,368,297,263,221,168,118,34],"timestamp_mouse":[20,39,59,80,99,119,139,159,179,200,220,239,259,279,299,319,339,360,379,400,420,440,460,480,499,519,540,559,579,599,619,639,659,680,701,720,739,759,781,801,820,839,859,881,899,919,939,959,979,999,1020],"xSR":741.5,"ySR":573.95,"xT1":424.9,"yT1":0,"xT2":1058.1,"yT2":0,"toosoon":0,"cond_shown":"randomdotsizeEA","ratio_trial":250,"smaller_num":"6","larger_num":"24","correct_side":1,"subjID":"SaraSofiaBohorquez31","gender":"1","age":"8","school":"4"},{"start_time":1552070026999,"click_time":1552070028049,"finger_time":1552070027669,"fix_duration":250,"trial":49,"RT":670,"MT":380,"sideResp":2,"stimulus":"img/250/equaldotanddens/R/10_Ratio_250_L_4_R_16.png","xmouse":[782,782,782,782,782,782,782,782,782,782,782,782,782,782,782,782,782,782,782,782,782,782,782,782,782,782,782,782,782,782,785,790,808,842,892,914,920,937,951,992,1009,1021,1030,1041,1061,1066,1068,1070,1071,1071,1071,1074,1075],"ymouse":[634,634,634,634,634,634,634,634,634,634,634,634,634,634,634,634,634,634,634,634,634,634,634,634,634,634,634,634,634,634,627,620,592,536,427,373,362,328,303,246,230,222,214,203,165,134,123,114,112,109,108,103,95],"timestamp_mouse":[21,38,50,69,89,109,129,150,170,189,209,229,249,270,290,309,329,349,370,389,411,430,449,470,490,510,530,550,570,589,609,631,649,670,689,710,729,751,769,789,810,829,849,869,889,910,929,949,969,989,1009,1030,1050],"xSR":741.5,"ySR":573.95,"xT1":424.9,"yT1":0,"xT2":1058.1,"yT2":0,"toosoon":0,"cond_shown":"equaldotanddens","ratio_trial":250,"smaller_num":"4","larger_num":"16","correct_side":2,"subjID":"SaraSofiaBohorquez31","gender":"1","age":"8","school":"4"},{"start_time":1552070029760,"click_time":1552070030991,"finger_time":1552070030410,"fix_duration":790.8703585734389,"trial":50,"RT":650,"MT":581,"sideResp":1,"stimulus":"img/500/equaldotanddens/L/7_Ratio_500_L_10_R_5.png","xmouse":[777,777,777,777,777,777,777,777,777,777,777,777,777,777,777,777,777,777,777,777,777,777,777,777,777,777,777,777,777,777,777,772,762,744,721,686,662,656,651,647,643,637,636,633,631,627,607,597,587,579,574,564,556,544,530,516,500,498,498,498,498,495],"ymouse":[629,629,629,629,629,629,629,629,629,629,629,629,629,629,629,629,629,629,629,629,629,629,629,629,629,629,629,629,629,627,623,583,545,495,439,373,324,307,293,280,270,256,250,244,234,217,165,152,145,140,138,135,132,128,121,113,103,102,102,102,102,96],"timestamp_mouse":[12,41,48,68,88,108,128,149,169,189,209,228,248,268,288,309,328,349,369,389,408,428,448,469,488,509,528,549,569,588,608,628,650,668,688,708,728,750,768,789,808,828,848,869,888,908,928,950,968,989,1008,1028,1049,1068,1088,1108,1128,1148,1169,1188,1208,1231],"xSR":741.5,"ySR":573.95,"xT1":424.9,"yT1":0,"xT2":1058.1,"yT2":0,"toosoon":0,"cond_shown":"equaldotanddens","ratio_trial":500,"smaller_num":"5","larger_num":"10","correct_side":1,"subjID":"SaraSofiaBohorquez31","gender":"1","age":"8","school":"4"},{"start_time":1552070032649,"click_time":1552070034008,"finger_time":1552070033370,"fix_duration":720.7272488195076,"trial":51,"RT":721,"MT":638,"sideResp":1,"stimulus":"img/250/randomdotsizeEA/L/5_Ratio_250_L_24_R_6.png","xmouse":[817,817,817,818,818,818,818,818,819,820,820,820,820,820,820,820,820,821,821,821,821,821,821,821,821,821,821,821,821,821,821,821,821,820,812,797,744,712,676,671,661,649,644,636,630,621,606,602,598,593,586,571,564,561,556,552,545,543,538,534,531,526,526,524,524,521,512,507],"ymouse":[628,628,628,627,627,627,627,627,627,627,627,627,627,627,627,627,627,627,627,627,627,627,627,627,627,627,627,627,627,627,627,627,626,618,596,556,432,378,315,305,288,262,251,236,222,206,184,176,172,166,158,149,144,141,138,135,132,131,129,127,126,123,121,120,116,112,102,98],"timestamp_mouse":[22,47,59,79,99,120,139,159,180,200,220,239,259,280,300,320,340,360,379,399,419,439,459,479,500,519,540,559,580,599,620,640,660,679,700,721,739,759,779,800,819,839,859,880,900,919,940,959,979,1000,1019,1039,1059,1079,1099,1119,1139,1160,1179,1199,1219,1240,1259,1280,1300,1320,1340,1359],"xSR":741.5,"ySR":573.95,"xT1":424.9,"yT1":0,"xT2":1058.1,"yT2":0,"toosoon":0,"cond_shown":"randomdotsizeEA","ratio_trial":250,"smaller_num":"6","larger_num":"24","correct_side":1,"subjID":"SaraSofiaBohorquez31","gender":"1","age":"8","school":"4"},{"start_time":1552070036480,"click_time":1552070037428,"finger_time":1552070037008,"fix_duration":1469.769184841148,"trial":52,"RT":528,"MT":420,"sideResp":1,"stimulus":"img/500/equaldotsize/L/4_Ratio_500_L_18_R_9.png","xmouse":[817,817,817,817,817,817,817,817,817,817,817,817,817,817,817,817,817,817,817,817,817,817,815,810,804,799,785,776,770,765,758,737,725,710,684,658,611,586,567,555,542,519,507,496,489,485,479,476],"ymouse":[607,607,607,607,607,607,607,607,607,607,607,607,607,607,607,607,607,607,607,607,607,607,607,603,597,589,570,556,544,531,514,462,423,369,307,240,108,40,8,0,0,0,0,0,0,0,0,2],"timestamp_mouse":[13,42,49,69,89,109,128,149,169,189,209,228,248,269,289,309,330,349,368,389,408,428,450,468,488,509,528,548,568,588,609,629,648,668,688,709,728,749,768,788,809,828,848,869,889,908,929,948],"xSR":741.5,"ySR":573.95,"xT1":424.9,"yT1":0,"xT2":1058.1,"yT2":0,"toosoon":0,"cond_shown":"equaldotsize","ratio_trial":500,"smaller_num":"9","larger_num":"18","correct_side":1,"subjID":"SaraSofiaBohorquez31","gender":"1","age":"8","school":"4"},{"start_time":1552070038602,"click_time":1552070039689,"finger_time":1552070039088,"fix_duration":250,"trial":53,"RT":486,"MT":601,"sideResp":2,"stimulus":"img/250/equaldotsize/R/10_Ratio_250_L_4_R_16.png","xmouse":[807,807,807,807,807,807,807,807,807,807,807,807,807,807,807,807,807,807,807,807,807,809,822,841,856,872,874,875,880,886,906,940,969,1006,1045,1090,1163,1186,1209,1231,1262,1262,1256,1248,1240,1232,1229,1226,1222,1213,1190,1180,1170,1161,1153],"ymouse":[630,630,630,630,630,630,630,631,631,631,631,631,631,631,631,631,631,631,631,631,631,631,623,615,610,605,603,598,590,575,531,472,422,367,317,264,189,163,132,83,0,0,0,0,0,0,0,0,0,4,19,28,37,47,55],"timestamp_mouse":[21,40