[{"start_time":1552068932352,"click_time":1552068944373,"finger_time":1552068932361,"fix_duration":494.5210144238652,"trial":0,"RT":9,"MT":12012,"sideResp":1,"stimulus":[],"xmouse":[832,813,811,811,811,811,811,811,811,811,811,811,811,811,810,810,811,811,811,811,811,811,811,811,811,811,811,811,811,811,811,811,811,811,812,812,812,812,812,812,812,812,810,808,807,805,795,787,784,784,784,778,778,778,778,778,778,778,778,778,778,778,778,778,778,778,778,778,778,778,778,778,778,778,778,778,778,778,778,778,778,778,778,778,778,778,778,778,778,778,778,778,778,778,778,778,778,778,778,778,778,778,778,778,778,778,778,778,778,778,778,778,778,778,778,778,778,778,778,778,778,778,778,778,778,778,778,778,778,778,778,778,778,778,778,778,778,778,778,778,778,778,778,778,778,778,778,778,778,778,778,778,778,778,778,778,778,778,778,778,778,778,778,778,778,778,778,778,778,778,778,778,778,778,778,778,778,778,778,778,778,778,778,778,778,778,778,778,778,778,778,778,778,778,778,778,778,778,778,778,778,778,778,778,778,778,778,778,778,778,778,778,778,778,778,778,778,778,778,778,778,778,778,778,778,778,778,778,778,782,787,848,896,948,1008,1025,1034,1034,1034,1029,1016,920,860,774,774,757,757,757,757,765,786,793,800,800,798,795,772,760,756,756,756,760,761,761,760,735,672,520,494,481,480,502,527,609,717,782,826,842,838,827,809,793,784,785,796,819,838,843,840,825,795,755,722,720,720,724,737,742,742,742,742,742,745,746,750,751,751,751,751,751,751,751,751,751,751,751,756,760,764,767,769,770,770,770,770,770,770,770,770,770,770,770,770,770,770,770,770,770,770,770,770,770,770,770,770,770,770,770,770,770,770,770,770,770,770,770,770,770,770,770,770,770,770,770,770,770,770,770,770,770,770,770,770,770,770,770,770,770,770,770,770,770,770,770,770,770,770,770,770,770,770,770,770,770,770,770,770,769,765,755,741,716,681,652,643,636,633,634,634,634,634,634,643,678,740,777,791,793,789,789,789,764,737,736,737,749,752,858,934,986,1022,1037,1027,1019,1002,966,912,804,780,773,773,780,845,892,926,983,1020,1041,1041,1039,1024,999,913,840,767,723,700,695,695,702,714,725,736,738,743,746,747,747,747,747,747,747,747,747,747,747,747,747,747,747,747,747,747,747,747,747,747,747,747,747,747,747,747,747,747,747,747,747,747,747,747,749,765,772,775,776,776,776,776,776,776,776,776,777,779,780,781,784,784,785,785,785,785,785,785,785,785,785,785,785,785,785,785,785,785,785,785,785,785,785,785,785,785,785,785,785,785,785,785,785,785,785,785,785,785,785,785,785,785,785,785,785,785,785,785,785,785,781,779,779,756,707,622,573,550,538,523,516,507,503,498,491,489,489,496,506,520,537,539,541,543,543,543,543,543,543,543,543,542,540,528,498],"ymouse":[426,414,413,413,413,413,413,413,413,413,413,413,413,413,413,417,426,426,426,426,426,426,426,426,426,426,426,426,426,426,426,426,429,432,435,437,446,447,451,453,458,458,468,479,494,509,549,566,579,579,579,603,611,615,617,619,619,619,619,619,619,619,619,619,619,619,619,619,619,619,619,619,619,619,619,619,619,619,619,619,619,619,619,619,619,619,619,619,619,619,619,619,619,619,619,619,619,619,619,619,619,619,619,619,619,619,619,619,619,619,619,619,619,619,619,619,619,619,619,619,619,619,619,619,619,619,619,619,619,619,619,619,619,619,619,619,619,619,619,619,619,619,619,619,619,619,619,619,619,619,619,619,619,619,619,619,619,619,619,619,619,619,619,619,619,619,619,619,619,619,619,619,619,619,619,619,619,619,619,619,619,619,619,619,619,619,619,619,619,619,619,619,619,619,619,619,619,619,619,619,619,619,619,619,619,619,619,619,619,619,619,619,619,619,619,619,619,619,619,619,619,619,619,619,619,619,619,619,619,616,609,535,485,450,431,429,428,428,428,428,431,445,447,447,447,445,445,445,445,449,464,468,476,476,479,479,490,498,502,504,506,511,513,513,518,533,563,608,613,614,614,614,614,623,644,659,676,685,685,685,681,676,672,672,672,672,674,676,675,666,648,626,606,605,605,605,609,612,613,613,613,613,613,613,613,613,613,613,613,613,613,613,613,613,613,613,616,617,618,620,621,621,621,621,621,621,621,621,621,621,621,621,621,621,621,621,621,621,621,621,621,621,621,621,621,621,621,621,621,621,621,621,621,621,621,621,621,621,621,621,621,621,621,621,621,621,621,621,621,621,621,621,621,621,619,616,616,616,616,616,616,616,616,616,616,616,616,616,616,616,616,616,616,616,616,616,615,615,610,595,569,519,482,457,450,445,442,439,437,437,437,437,436,436,450,460,467,469,470,470,470,478,483,484,484,486,487,519,552,578,605,623,647,652,657,669,681,694,694,692,690,686,657,649,644,640,640,642,642,643,647,652,653,653,653,653,653,653,653,653,653,653,653,654,656,657,658,658,658,658,658,658,658,658,658,658,658,658,658,658,658,658,658,658,658,658,658,658,658,658,658,658,658,658,658,658,658,658,658,658,658,658,657,654,653,653,653,653,653,653,653,653,653,653,650,648,644,637,634,628,624,620,610,607,603,600,597,595,594,593,593,593,593,593,593,593,593,593,593,593,593,593,593,593,593,593,593,593,593,593,593,593,593,593,593,593,593,593,593,593,593,593,593,593,593,593,593,588,583,583,557,500,411,370,352,343,330,320,298,286,273,258,244,236,219,193,156,95,78,68,63,63,63,63,63,63,63,63,63,63,63,63],"timestamp_mouse":[9,19,39,59,78,98,119,140,160,180,199,219,239,260,280,299,319,340,359,380,399,420,439,460,480,499,519,539,559,579,599,620,640,659,680,700,719,740,759,779,799,820,840,859,879,900,919,941,959,980,999,1020,1040,1059,1080,1100,1120,1140,1159,1180,1200,1219,1240,1259,1280,1300,1320,1339,1358,1380,1399,1420,1439,1460,1480,1499,1519,1539,1559,1579,1600,1619,1639,1660,1679,1699,1719,1740,1760,1780,1799,1819,1840,1860,1879,1899,1919,1940,1960,1979,2000,2019,2039,2060,2079,2100,2119,2140,2160,2179,2199,2219,2239,2259,2278,2299,2319,2340,2360,2380,2400,2419,2439,2459,2479,2500,2519,2539,2560,2579,2599,2619,2639,2660,2679,2698,2719,2740,2760,2779,2799,2819,2839,2860,2880,2898,2919,2940,2959,2980,2999,3019,3040,3059,3080,3099,3119,3140,3160,3180,3200,3219,3240,3260,3280,3300,3319,3340,3360,3379,3398,3420,3439,3460,3479,3500,3519,3540,3559,3580,3600,3619,3640,3660,3680,3700,3720,3739,3760,3780,3800,3820,3839,3860,3879,3899,3919,3940,3959,3979,4000,4019,4039,4059,4080,4099,4120,4139,4159,4180,4200,4220,4240,4259,4280,4300,4320,4340,4360,4380,4400,4420,4440,4459,4479,4500,4519,4540,4560,4579,4600,4619,4639,4660,4679,4699,4719,4740,4759,4779,4799,4820,4839,4859,4879,4900,4920,4939,4959,4979,5000,5019,5039,5060,5079,5099,5120,5139,5159,5179,5200,5219,5239,5259,5280,5299,5319,5340,5359,5379,5399,5420,5441,5459,5480,5500,5519,5539,5559,5580,5600,5619,5640,5659,5680,5700,5719,5739,5759,5779,5800,5819,5839,5859,5879,5899,5920,5939,5960,5980,5999,6020,6039,6059,6080,6100,6119,6139,6159,6180,6199,6219,6240,6259,6279,6299,6320,6339,6360,6380,6400,6420,6440,6459,6480,6499,6519,6539,6559,6579,6599,6620,6639,6659,6678,6699,6719,6739,6760,6780,6799,6820,6839,6859,6879,6900,6920,6940,6959,6979,6999,7020,7039,7059,7079,7099,7119,7140,7160,7180,7199,7219,7239,7260,7280,7299,7319,7340,7359,7379,7400,7420,7440,7459,7479,7500,7520,7539,7559,7579,7600,7620,7640,7660,7679,7700,7720,7740,7760,7780,7800,7820,7838,7860,7880,7899,7919,7939,7959,7979,8000,8020,8039,8059,8079,8099,8120,8139,8160,8179,8199,8220,8239,8260,8278,8299,8319,8340,8360,8380,8400,8419,8439,8460,8478,8499,8520,8539,8560,8580,8600,8620,8639,8659,8679,8700,8719,8739,8758,8779,8800,8819,8839,8859,8879,8898,8920,8939,8959,8979,9000,9020,9039,9059,9080,9099,9120,9139,9160,9179,9200,9220,9239,9260,9279,9299,9319,9340,9360,9379,9400,9420,9439,9459,9480,9500,9520,9539,9560,9579,9599,9619,9639,9659,9679,9700,9720,9739,9760,9780,9799,9819,9839,9859,9879,9899,9920,9939,9958,9980,9999,10018,10039,10060,10080,10099,10120,10139,10159,10180,10200,10220,10239,10260,10280,10300,10319,10339,10359,10379,10399,10420,10439,10460,10479,10500,10520,10539,10559,10579,10599,10619,10639,10660,10680,10699,10720,10738,10758,10780,10799,10819,10839,10859,10879,10900,10920,10939,10960,10980,10999,11020,11039,11059,11079,11100,11120,11139,11159,11180,11199,11220,11239,11259,11279,11300,11319,11339,11359,11380,11400,11419,11439,11458,11479,11499,11519,11539,11560,11579,11599,11619,11639,11660,11679,11699,11719,11739,11759,11779,11800,11818,11839,11860,11879,11899,11920,11939,11960,11980,12000,12020],"xSR":741.5,"ySR":469.95,"xT1":424.9,"yT1":0,"xT2":1058.1,"yT2":0,"toosoon":0,"cond_shown":"Congruent","ratio_trial":100,"L_num":11,"L_den":22,"R_num":4,"R_den":10,"correct_side":1,"subjID":"Sarasofiabohorquezbulla31","gender":"1","age":"8","school":"4","test":{"fix_dur":[250,1500],"timestim":1000,"targets_dim":[100,100],"targets_relative_coord":[0.3,0.7],"size_stim":[880,420],"start_dim":[100,100],"size_start":[300,300],"size_fix":60,"samplingrate":20,"img_types":["Congruent","Incongruent"],"ratios":[100,200,300],"rep_conds":19,"nTrials":120,"trials_to_rest":500,"Trials_order":[108,30,89,119,34,88,57,105,1,59,7,23,92,25,52,65,9,87,66,53,14,90,31,68,49,3,13,82,93,75,69,11,60,102,113,83,80,37,40,85,26,35,15,2,67,21,58,17,32,96,28,44,84,64,115,86,29,4,112,97,110,95,19,51,101,54,10,91,6,63,77,56,33,5,99,48,20,81,16,27,42,103,70,61,73,79,74,55,98,76,104,0,109,116,46,41,118,106,117,47,8,36,12,71,45,107,114,24,18,62,72,78,43,111,94,22,39,38,100,50],"cond_shown":["Congruent","Congruent","Incongruent","Incongruent","Congruent","Congruent","Incongruent","Incongruent","Incongruent","Incongruent","Incongruent","Incongruent","Congruent","Incongruent","Congruent","Incongruent","Incongruent","Incongruent","Congruent","Incongruent","Congruent","Congruent","Incongruent","Congruent","Incongruent","Incongruent","Incongruent","Congruent","Incongruent","Incongruent","Incongruent","Incongruent","Congruent","Congruent","Incongruent","Incongruent","Congruent","Incongruent","Congruent","Incongruent","Congruent","Incongruent","Incongruent","Congruent","Incongruent","Incongruent","Congruent","Incongruent","Congruent","Congruent","Congruent","Congruent","Congruent","Congruent","Incongruent","Congruent","Incongruent","Congruent","Congruent","Incongruent","Congruent","Incongruent","Incongruent","Incongruent","Incongruent","Congruent","Congruent","Incongruent","Congruent","Incongruent","Incongruent","Congruent","Incongruent","Incongruent","Incongruent","Congruent","Congruent","Incongruent","Congruent","Incongruent","Congruent","Incongruent","Congruent","Incongruent","Incongruent","Incongruent","Congruent","Incongruent","Congruent","Congruent","Congruent","Congruent","Incongruent","Congruent","Congruent","Incongruent","Congruent","Congruent","Incongruent","Incongruent","Congruent","Congruent","Congruent","Incongruent","Incongruent","Incongruent","Congruent","Congruent","Congruent","Congruent","Congruent","Congruent","Incongruent","Incongruent","Congruent","Congruent","Incongruent","Congruent","Congruent","Congruent"],"ratio_trial":[100,100,300,300,300,300,200,200,100,300,100,300,200,100,300,300,200,200,100,300,200,100,100,200,100,200,100,300,200,200,200,300,100,100,300,300,200,100,300,100,200,300,200,200,100,200,300,300,200,100,300,200,100,300,100,200,300,300,300,100,200,300,100,200,300,100,300,100,100,200,300,200,200,300,200,100,200,200,300,200,100,100,300,100,100,100,200,100,200,300,200,100,100,200,300,300,300,300,200,300,200,100,100,300,200,300,100,100,100,200,100,100,100,200,300,300,200,200,300,200],"left_num":[11,2,1,13,1,11,11,4,6,13,6,7,3,3,5,13,3,7,11,7,13,15,2,9,9,1,3,8,3,1,3,2,3,7,13,4,4,6,5,6,13,13,4,3,8,4,5,4,9,2,2,5,9,24,6,20,13,7,1,4,1,2,6,7,4,12,1,1,7,3,4,6,11,1,4,2,4,3,4,4,3,12,2,2,10,3,7,13,11,18,3,1,8,4,1,7,12,1,1,4,3,6,2,8,14,4,4,7,3,15,1,4,4,9,20,3,7,3,9,4],"right_num":[4,6,3,12,3,4,3,6,13,12,11,8,14,11,6,12,1,14,6,8,14,13,8,13,13,2,7,1,11,3,11,6,2,15,12,6,3,13,7,3,14,12,6,14,1,14,6,2,13,11,10,14,8,2,3,9,12,20,8,8,21,6,3,8,6,13,19,8,9,1,2,11,3,2,14,11,3,1,2,1,4,2,12,6,9,7,2,6,3,9,7,18,6,3,6,8,2,6,2,2,14,5,11,9,12,2,6,15,2,4,3,15,8,8,13,11,12,7,3,3],"left_den":[22,5,2,26,5,22,20,5,10,26,10,10,10,5,25,26,10,10,22,10,26,25,4,30,15,3,9,16,4,2,4,4,6,14,26,5,8,10,25,12,26,26,5,10,20,6,25,20,30,5,20,10,15,30,12,25,26,14,30,8,2,4,12,10,5,30,3,2,14,10,20,20,20,2,6,5,10,10,5,30,20,30,10,4,25,9,21,26,22,20,10,2,16,10,5,10,24,5,3,20,6,20,5,10,30,20,8,14,6,25,2,10,8,15,25,12,10,10,10,10],"right_den":[10,12,15,15,6,20,4,10,26,15,22,20,28,22,12,15,2,28,15,20,20,26,20,26,26,15,30,5,20,10,20,30,5,25,15,12,10,26,14,5,20,15,10,28,2,30,12,4,26,22,25,20,16,4,5,15,15,25,24,20,30,30,5,16,12,26,30,20,15,2,4,22,4,10,30,22,15,2,4,3,16,4,24,15,18,30,15,10,10,15,14,30,10,15,12,20,10,12,15,4,20,25,22,18,18,4,10,25,5,10,5,30,20,10,26,20,24,14,5,15],"correct_side":[1,2,1,2,2,1,2,1,1,2,1,1,2,1,2,2,2,1,1,1,2,1,1,2,1,1,1,1,1,1,1,1,1,2,2,1,1,1,2,2,2,2,1,2,2,1,2,2,2,2,2,2,1,1,2,1,2,2,2,1,2,1,2,1,1,2,2,1,2,2,2,2,2,1,1,2,1,2,1,2,2,2,2,1,2,1,1,2,1,1,2,2,2,1,2,1,1,2,1,2,2,1,2,1,2,2,2,2,1,1,2,2,1,2,1,2,1,2,1,1],"img_shown":["img2/100/Congruent/L/C_Dist_100_LN_11_LD_22_RN_4_RD_10_0.png","img2/100/Congruent/R/C_Dist_100_LN_2_LD_5_RN_6_RD_12_1.png","img2/300/Incongruent/L/I_Dist_300_LN_1_LD_2_RN_3_RD_15_0.png","img2/300/Incongruent/R/I_Dist_300_LN_13_LD_26_RN_12_RD_15_1.png","img2/300/Congruent/R/C_Dist_300_LN_1_LD_5_RN_3_RD_6_1.png","img2/300/Congruent/L/C_Dist_300_LN_11_LD_22_RN_4_RD_20_0.png","img2/200/Incongruent/R/I_Dist_200_LN_11_LD_20_RN_3_RD_4_1.png","img2/200/Incongruent/L/I_Dist_200_LN_4_LD_5_RN_6_RD_10_0.png","img2/100/Incongruent/L/I_Dist_100_LN_6_LD_10_RN_13_RD_26_0.png","img2/300/Incongruent/R/I_Dist_300_LN_13_LD_26_RN_12_RD_15_1.png","img2/100/Incongruent/L/I_Dist_100_LN_6_LD_10_RN_11_RD_22_0.png","img2/300/Incongruent/L/I_Dist_300_LN_7_LD_10_RN_8_RD_20_0.png","img2/200/Congruent/R/C_Dist_200_LN_3_LD_10_RN_14_RD_28_1.png","img2/100/Incongruent/L/I_Dist_100_LN_3_LD_5_RN_11_RD_22_0.png","img2/300/Congruent/R/C_Dist_300_LN_5_LD_25_RN_6_RD_12_1.png","img2/300/Incongruent/R/I_Dist_300_LN_13_LD_26_RN_12_RD_15_1.png","img2/200/Incongruent/R/I_Dist_200_LN_3_LD_10_RN_1_RD_2_1.png","img2/200/Incongruent/L/I_Dist_200_LN_7_LD_10_RN_14_RD_28_0.png","img2/100/Congruent/L/C_Dist_100_LN_11_LD_22_RN_6_RD_15_0.png","img2/300/Incongruent/L/I_Dist_300_LN_7_LD_10_RN_8_RD_20_0.png","img2/200/Congruent/R/C_Dist_200_LN_13_LD_26_RN_14_RD_20_1.png","img2/100/Congruent/L/C_Dist_100_LN_15_LD_25_RN_13_RD_26_0.png","img2/100/Incongruent/L/I_Dist_100_LN_2_LD_4_RN_8_RD_20_0.png","img2/200/Congruent/R/C_Dist_200_LN_9_LD_30_RN_13_RD_26_1.png","img2/100/Incongruent/L/I_Dist_100_LN_9_LD_15_RN_13_RD_26_0.png","img2/200/Incongruent/L/I_Dist_200_LN_1_LD_3_RN_2_RD_15_0.png","img2/100/Incongruent/L/I_Dist_100_LN_3_LD_9_RN_7_RD_30_0.png","img2/300/Congruent/L/C_Dist_300_LN_8_LD_16_RN_1_RD_5_0.png","img2/200/Incongruent/L/I_Dist_200_LN_3_LD_4_RN_11_RD_20_0.png","img2/200/Incongruent/L/I_Dist_200_LN_1_LD_2_RN_3_RD_10_0.png","img2/200/Incongruent/L/I_Dist_200_LN_3_LD_4_RN_11_RD_20_0.png","img2/300/Incongruent/L/I_Dist_300_LN_2_LD_4_RN_6_RD_30_0.png","img2/100/Congruent/L/C_Dist_100_LN_3_LD_6_RN_2_RD_5_0.png","img2/100/Congruent/R/C_Dist_100_LN_7_LD_14_RN_15_RD_25_1.png","img2/300/Incongruent/R/I_Dist_300_LN_13_LD_26_RN_12_RD_15_1.png","img2/300/Incongruent/L/I_Dist_300_LN_4_LD_5_RN_6_RD_12_0.png","img2/200/Congruent/L/C_Dist_200_LN_4_LD_8_RN_3_RD_10_0.png","img2/100/Incongruent/L/I_Dist_100_LN_6_LD_10_RN_13_RD_26_0.png","img2/300/Congruent/R/C_Dist_300_LN_5_LD_25_RN_7_RD_14_1.png","img2/100/Incongruent/R/I_Dist_100_LN_6_LD_12_RN_3_RD_5_1.png","img2/200/Congruent/R/C_Dist_200_LN_13_LD_26_RN_14_RD_20_1.png","img2/300/Incongruent/R/I_Dist_300_LN_13_LD_26_RN_12_RD_15_1.png","img2/200/Incongruent/L/I_Dist_200_LN_4_LD_5_RN_6_RD_10_0.png","img2/200/Congruent/R/C_Dist_200_LN_3_LD_10_RN_14_RD_28_1.png","img2/100/Incongruent/R/I_Dist_100_LN_8_LD_20_RN_1_RD_2_1.png","img2/200/Incongruent/L/I_Dist_200_LN_4_LD_6_RN_14_RD_30_0.png","img2/300/Congruent/R/C_Dist_300_LN_5_LD_25_RN_6_RD_12_1.png","img2/300/Incongruent/R/I_Dist_300_LN_4_LD_20_RN_2_RD_4_1.png","img2/200/Congruent/R/C_Dist_200_LN_9_LD_30_RN_13_RD_26_1.png","img2/100/Congruent/R/C_Dist_100_LN_2_LD_5_RN_11_RD_22_1.png","img2/300/Congruent/R/C_Dist_300_LN_2_LD_20_RN_10_RD_25_1.png","img2/200/Congruent/R/C_Dist_200_LN_5_LD_10_RN_14_RD_20_1.png","img2/100/Congruent/L/C_Dist_100_LN_9_LD_15_RN_8_RD_16_0.png","img2/300/Congruent/L/C_Dist_300_LN_24_LD_30_RN_2_RD_4_0.png","img2/100/Incongruent/R/I_Dist_100_LN_6_LD_12_RN_3_RD_5_1.png","img2/200/Congruent/L/C_Dist_200_LN_20_LD_25_RN_9_RD_15_0.png","img2/300/Incongruent/R/I_Dist_300_LN_13_LD_26_RN_12_RD_15_1.png","img2/300/Congruent/R/C_Dist_300_LN_7_LD_14_RN_20_RD_25_1.png","img2/300/Congruent/R/C_Dist_300_LN_1_LD_30_RN_8_RD_24_1.png","img2/100/Incongruent/L/I_Dist_100_LN_4_LD_8_RN_8_RD_20_0.png","img2/200/Congruent/R/C_Dist_200_LN_1_LD_2_RN_21_RD_30_1.png","img2/300/Incongruent/L/I_Dist_300_LN_2_LD_4_RN_6_RD_30_0.png","img2/100/Incongruent/R/I_Dist_100_LN_6_LD_12_RN_3_RD_5_1.png","img2/200/Incongruent/L/I_Dist_200_LN_7_LD_10_RN_8_RD_16_0.png","img2/300/Incongruent/L/I_Dist_300_LN_4_LD_5_RN_6_RD_12_0.png","img2/100/Congruent/R/C_Dist_100_LN_12_LD_30_RN_13_RD_26_1.png","img2/300/Congruent/R/C_Dist_300_LN_1_LD_3_RN_19_RD_30_1.png","img2/100/Incongruent/L/I_Dist_100_LN_1_LD_2_RN_8_RD_20_0.png","img2/100/Congruent/R/C_Dist_100_LN_7_LD_14_RN_9_RD_15_1.png","img2/200/Incongruent/R/I_Dist_200_LN_3_LD_10_RN_1_RD_2_1.png","img2/300/Incongruent/R/I_Dist_300_LN_4_LD_20_RN_2_RD_4_1.png","img2/200/Congruent/R/C_Dist_200_LN_6_LD_20_RN_11_RD_22_1.png","img2/200/Incongruent/R/I_Dist_200_LN_11_LD_20_RN_3_RD_4_1.png","img2/300/Incongruent/L/I_Dist_300_LN_1_LD_2_RN_2_RD_10_0.png","img2/200/Incongruent/L/I_Dist_200_LN_4_LD_6_RN_14_RD_30_0.png","img2/100/Congruent/R/C_Dist_100_LN_2_LD_5_RN_11_RD_22_1.png","img2/200/Congruent/L/C_Dist_200_LN_4_LD_10_RN_3_RD_15_0.png","img2/200/Incongruent/R/I_Dist_200_LN_3_LD_10_RN_1_RD_2_1.png","img2/300/Congruent/L/C_Dist_300_LN_4_LD_5_RN_2_RD_4_0.png","img2/200/Incongruent/R/I_Dist_200_LN_4_LD_30_RN_1_RD_3_1.png","img2/100/Congruent/R/C_Dist_100_LN_3_LD_20_RN_4_RD_16_1.png","img2/100/Incongruent/R/I_Dist_100_LN_12_LD_30_RN_2_RD_4_1.png","img2/300/Congruent/R/C_Dist_300_LN_2_LD_10_RN_12_RD_24_1.png","img2/100/Incongruent/L/I_Dist_100_LN_2_LD_4_RN_6_RD_15_0.png","img2/100/Incongruent/R/I_Dist_100_LN_10_LD_25_RN_9_RD_18_1.png","img2/100/Incongruent/L/I_Dist_100_LN_3_LD_9_RN_7_RD_30_0.png","img2/200/Congruent/L/C_Dist_200_LN_7_LD_21_RN_2_RD_15_0.png","img2/100/Incongruent/R/I_Dist_100_LN_13_LD_26_RN_6_RD_10_1.png","img2/200/Congruent/L/C_Dist_200_LN_11_LD_22_RN_3_RD_10_0.png","img2/300/Congruent/L/C_Dist_300_LN_18_LD_20_RN_9_RD_15_0.png","img2/200/Congruent/R/C_Dist_200_LN_3_LD_10_RN_7_RD_14_1.png","img2/100/Congruent/R/C_Dist_100_LN_1_LD_2_RN_18_RD_30_1.png","img2/100/Incongruent/R/I_Dist_100_LN_8_LD_16_RN_6_RD_10_1.png","img2/200/Congruent/L/C_Dist_200_LN_4_LD_10_RN_3_RD_15_0.png","img2/300/Congruent/R/C_Dist_300_LN_1_LD_5_RN_6_RD_12_1.png","img2/300/Incongruent/L/I_Dist_300_LN_7_LD_10_RN_8_RD_20_0.png","img2/300/Congruent/L/C_Dist_300_LN_12_LD_24_RN_2_RD_10_0.png","img2/300/Congruent/R/C_Dist_300_LN_1_LD_5_RN_6_RD_12_1.png","img2/200/Incongruent/L/I_Dist_200_LN_1_LD_3_RN_2_RD_15_0.png","img2/300/Incongruent/R/I_Dist_300_LN_4_LD_20_RN_2_RD_4_1.png","img2/200/Congruent/R/C_Dist_200_LN_3_LD_6_RN_14_RD_20_1.png","img2/100/Congruent/L/C_Dist_100_LN_6_LD_20_RN_5_RD_25_0.png","img2/100/Congruent/R/C_Dist_100_LN_2_LD_5_RN_11_RD_22_1.png","img2/300/Incongruent/L/I_Dist_300_LN_8_LD_10_RN_9_RD_18_0.png","img2/200/Incongruent/R/I_Dist_200_LN_14_LD_30_RN_12_RD_18_1.png","img2/300/Incongruent/R/I_Dist_300_LN_4_LD_20_RN_2_RD_4_1.png","img2/100/Congruent/R/C_Dist_100_LN_4_LD_8_RN_6_RD_10_1.png","img2/100/Congruent/R/C_Dist_100_LN_7_LD_14_RN_15_RD_25_1.png","img2/100/Congruent/L/C_Dist_100_LN_3_LD_6_RN_2_RD_5_0.png","img2/200/Congruent/L/C_Dist_200_LN_15_LD_25_RN_4_RD_10_0.png","img2/100/Congruent/R/C_Dist_100_LN_1_LD_2_RN_3_RD_5_1.png","img2/100/Congruent/R/C_Dist_100_LN_4_LD_10_RN_15_RD_30_1.png","img2/100/Incongruent/L/I_Dist_100_LN_4_LD_8_RN_8_RD_20_0.png","img2/200/Incongruent/R/I_Dist_200_LN_9_LD_15_RN_8_RD_10_1.png","img2/300/Congruent/L/C_Dist_300_LN_20_LD_25_RN_13_RD_26_0.png","img2/300/Congruent/R/C_Dist_300_LN_3_LD_12_RN_11_RD_20_1.png","img2/200/Incongruent/L/I_Dist_200_LN_7_LD_10_RN_12_RD_24_0.png","img2/200/Congruent/R/C_Dist_200_LN_3_LD_10_RN_7_RD_14_1.png","img2/300/Congruent/L/C_Dist_300_LN_9_LD_10_RN_3_RD_5_0.png","img2/200/Congruent/L/C_Dist_200_LN_4_LD_10_RN_3_RD_15_0.png"],"dist100_C":[["C_Dist_100_LN_10_LD_25_RN_3_RD_10_0.png","C_Dist_100_LN_11_LD_22_RN_4_RD_10_0.png","C_Dist_100_LN_11_LD_22_RN_6_RD_15_0.png","C_Dist_100_LN_15_LD_25_RN_13_RD_26_0.png","C_Dist_100_LN_3_LD_6_RN_2_RD_5_0.png","C_Dist_100_LN_6_LD_20_RN_5_RD_25_0.png","C_Dist_100_LN_8_LD_16_RN_2_RD_5_0.png","C_Dist_100_LN_9_LD_15_RN_8_RD_16_0.png"],["C_Dist_100_LN_1_LD_2_RN_18_RD_30_1.png","C_Dist_100_LN_1_LD_2_RN_3_RD_5_1.png","C_Dist_100_LN_12_LD_30_RN_13_RD_26_1.png","C_Dist_100_LN_2_LD_5_RN_11_RD_22_1.png","C_Dist_100_LN_2_LD_5_RN_6_RD_12_1.png","C_Dist_100_LN_3_LD_20_RN_4_RD_16_1.png","C_Dist_100_LN_4_LD_10_RN_15_RD_30_1.png","C_Dist_100_LN_4_LD_8_RN_6_RD_10_1.png","C_Dist_100_LN_6_LD_12_RN_15_RD_25_1.png","C_Dist_100_LN_7_LD_14_RN_15_RD_25_1.png","C_Dist_100_LN_7_LD_14_RN_9_RD_15_1.png"]],"dist100_I":[["I_Dist_100_LN_1_LD_2_RN_8_RD_20_0.png","I_Dist_100_LN_2_LD_4_RN_6_RD_15_0.png","I_Dist_100_LN_2_LD_4_RN_8_RD_20_0.png","I_Dist_100_LN_3_LD_5_RN_11_RD_22_0.png","I_Dist_100_LN_3_LD_5_RN_8_RD_16_0.png","I_Dist_100_LN_3_LD_6_RN_4_RD_10_0.png","I_Dist_100_LN_3_LD_9_RN_7_RD_30_0.png","I_Dist_100_LN_4_LD_8_RN_8_RD_20_0.png","I_Dist_100_LN_6_LD_10_RN_11_RD_22_0.png","I_Dist_100_LN_6_LD_10_RN_13_RD_26_0.png","I_Dist_100_LN_6_LD_10_RN_7_RD_14_0.png","I_Dist_100_LN_9_LD_10_RN_20_RD_25_0.png","I_Dist_100_LN_9_LD_15_RN_13_RD_26_0.png","I_Dist_100_LN_9_LD_15_RN_14_RD_28_0.png"],["I_Dist_100_LN_10_LD_25_RN_8_RD_16_1.png","I_Dist_100_LN_10_LD_25_RN_9_RD_18_1.png","I_Dist_100_LN_11_LD_22_RN_9_RD_15_1.png","I_Dist_100_LN_12_LD_24_RN_9_RD_15_1.png","I_Dist_100_LN_12_LD_30_RN_2_RD_4_1.png","I_Dist_100_LN_13_LD_26_RN_12_RD_20_1.png","I_Dist_100_LN_13_LD_26_RN_6_RD_10_1.png","I_Dist_100_LN_17_LD_30_RN_10_RD_15_1.png","I_Dist_100_LN_6_LD_12_RN_3_RD_5_1.png","I_Dist_100_LN_8_LD_16_RN_6_RD_10_1.png","I_Dist_100_LN_8_LD_20_RN_1_RD_2_1.png","I_Dist_100_LN_9_LD_18_RN_6_RD_10_1.png"]],"dist100_S":[["E_Dist_100_LN_2_LD_12_RN_2_RD_30_0.png","E_Dist_100_LN_6_LD_10_RN_6_RD_12_0.png"],["E_Dist_100_LN_6_LD_12_RN_6_RD_10_1.png"]],"dist200_C":[["C_Dist_200_LN_11_LD_22_RN_3_RD_10_0.png","C_Dist_200_LN_12_LD_15_RN_6_RD_10_0.png","C_Dist_200_LN_12_LD_20_RN_6_RD_15_0.png","C_Dist_200_LN_14_LD_28_RN_6_RD_20_0.png","C_Dist_200_LN_15_LD_25_RN_4_RD_10_0.png","C_Dist_200_LN_16_LD_20_RN_12_RD_20_0.png","C_Dist_200_LN_16_LD_30_RN_9_RD_27_0.png","C_Dist_200_LN_20_LD_25_RN_9_RD_15_0.png","C_Dist_200_LN_21_LD_30_RN_2_RD_4_0.png","C_Dist_200_LN_4_LD_10_RN_3_RD_15_0.png","C_Dist_200_LN_4_LD_8_RN_3_RD_10_0.png","C_Dist_200_LN_6_LD_15_RN_3_RD_15_0.png","C_Dist_200_LN_7_LD_21_RN_2_RD_15_0.png","C_Dist_200_LN_8_LD_15_RN_2_RD_6_0.png","C_Dist_200_LN_8_LD_15_RN_3_RD_9_0.png","C_Dist_200_LN_8_LD_15_RN_7_RD_21_0.png","C_Dist_200_LN_9_LD_20_RN_4_RD_16_0.png"],["C_Dist_200_LN_1_LD_2_RN_21_RD_30_1.png","C_Dist_200_LN_13_LD_26_RN_14_RD_20_1.png","C_Dist_200_LN_3_LD_10_RN_11_RD_22_1.png","C_Dist_200_LN_3_LD_10_RN_14_RD_28_1.png","C_Dist_200_LN_3_LD_10_RN_7_RD_14_1.png","C_Dist_200_LN_3_LD_12_RN_9_RD_20_1.png","C_Dist_200_LN_3_LD_6_RN_14_RD_20_1.png","C_Dist_200_LN_5_LD_10_RN_14_RD_20_1.png","C_Dist_200_LN_6_LD_12_RN_7_RD_10_1.png","C_Dist_200_LN_6_LD_20_RN_11_RD_22_1.png","C_Dist_200_LN_7_LD_15_RN_18_RD_27_1.png","C_Dist_200_LN_9_LD_30_RN_13_RD_26_1.png"]],"dist200_I":[["I_Dist_200_LN_1_LD_2_RN_3_RD_10_0.png","I_Dist_200_LN_1_LD_3_RN_2_RD_15_0.png","I_Dist_200_LN_3_LD_4_RN_11_RD_20_0.png","I_Dist_200_LN_4_LD_5_RN_6_RD_10_0.png","I_Dist_200_LN_4_LD_6_RN_14_RD_30_0.png","I_Dist_200_LN_7_LD_10_RN_12_RD_24_0.png","I_Dist_200_LN_7_LD_10_RN_14_RD_28_0.png","I_Dist_200_LN_7_LD_10_RN_8_RD_16_0.png"],["I_Dist_200_LN_11_LD_20_RN_3_RD_4_1.png","I_Dist_200_LN_14_LD_30_RN_12_RD_18_1.png","I_Dist_200_LN_14_LD_30_RN_6_RD_9_1.png","I_Dist_200_LN_3_LD_10_RN_1_RD_2_1.png","I_Dist_200_LN_4_LD_30_RN_1_RD_3_1.png","I_Dist_200_LN_6_LD_20_RN_3_RD_6_1.png","I_Dist_200_LN_7_LD_15_RN_4_RD_6_1.png","I_Dist_200_LN_7_LD_15_RN_6_RD_9_1.png","I_Dist_200_LN_9_LD_15_RN_8_RD_10_1.png"]],"dist200_S":[["E_Dist_200_LN_3_LD_6_RN_3_RD_10_0.png"],["E_Dist_200_LN_3_LD_10_RN_3_RD_6_1.png"]],"dist300_C":[["C_Dist_300_LN_11_LD_22_RN_1_RD_5_0.png","C_Dist_300_LN_11_LD_22_RN_2_RD_10_0.png","C_Dist_300_LN_11_LD_22_RN_4_RD_20_0.png","C_Dist_300_LN_12_LD_24_RN_2_RD_10_0.png","C_Dist_300_LN_18_LD_20_RN_9_RD_15_0.png","C_Dist_300_LN_20_LD_25_RN_13_RD_26_0.png","C_Dist_300_LN_20_LD_25_RN_14_RD_28_0.png","C_Dist_300_LN_20_LD_25_RN_5_RD_10_0.png","C_Dist_300_LN_20_LD_25_RN_8_RD_16_0.png","C_Dist_300_LN_20_LD_25_RN_9_RD_18_0.png","C_Dist_300_LN_24_LD_30_RN_2_RD_4_0.png","C_Dist_300_LN_24_LD_30_RN_8_RD_16_0.png","C_Dist_300_LN_3_LD_6_RN_2_RD_10_0.png","C_Dist_300_LN_4_LD_10_RN_1_RD_10_0.png","C_Dist_300_LN_4_LD_5_RN_2_RD_4_0.png","C_Dist_300_LN_8_LD_16_RN_1_RD_5_0.png","C_Dist_300_LN_9_LD_10_RN_3_RD_5_0.png"],["C_Dist_300_LN_1_LD_20_RN_7_RD_20_1.png","C_Dist_300_LN_1_LD_3_RN_19_RD_30_1.png","C_Dist_300_LN_1_LD_30_RN_8_RD_24_1.png","C_Dist_300_LN_1_LD_5_RN_11_RD_22_1.png","C_Dist_300_LN_1_LD_5_RN_3_RD_6_1.png","C_Dist_300_LN_1_LD_5_RN_6_RD_12_1.png","C_Dist_300_LN_2_LD_10_RN_12_RD_24_1.png","C_Dist_300_LN_2_LD_20_RN_10_RD_25_1.png","C_Dist_300_LN_3_LD_12_RN_11_RD_20_1.png","C_Dist_300_LN_3_LD_6_RN_4_RD_5_1.png","C_Dist_300_LN_4_LD_20_RN_13_RD_26_1.png","C_Dist_300_LN_5_LD_25_RN_6_RD_12_1.png","C_Dist_300_LN_5_LD_25_RN_7_RD_14_1.png","C_Dist_300_LN_7_LD_14_RN_20_RD_25_1.png","C_Dist_300_LN_8_LD_15_RN_10_RD_12_1.png"]],"dist300_I":[["I_Dist_300_LN_1_LD_2_RN_2_RD_10_0.png","I_Dist_300_LN_1_LD_2_RN_3_RD_15_0.png","I_Dist_300_LN_2_LD_4_RN_6_RD_30_0.png","I_Dist_300_LN_3_LD_6_RN_4_RD_20_0.png","I_Dist_300_LN_4_LD_5_RN_6_RD_12_0.png","I_Dist_300_LN_4_LD_5_RN_8_RD_16_0.png","I_Dist_300_LN_7_LD_10_RN_8_RD_20_0.png","I_Dist_300_LN_8_LD_10_RN_14_RD_28_0.png","I_Dist_300_LN_8_LD_10_RN_9_RD_18_0.png"],["I_Dist_300_LN_13_LD_26_RN_12_RD_15_1.png","I_Dist_300_LN_4_LD_20_RN_2_RD_4_1.png"]],"dist300_S":[["E_Dist_300_LN_9_LD_12_RN_9_RD_20_0.png"],["E_Dist_300_LN_18_LD_30_RN_18_RD_20_1.png","E_Dist_300_LN_3_LD_10_RN_3_RD_5_1.png","E_Dist_300_LN_9_LD_20_RN_9_RD_12_1.png"]],"dist500_C":[["C_Dist_500_LN_10_LD_13_RN_7_RD_26_0.png","C_Dist_500_LN_10_LD_15_RN_4_RD_24_0.png","C_Dist_500_LN_12_LD_16_RN_3_RD_12_0.png","C_Dist_500_LN_12_LD_18_RN_4_RD_24_0.png","C_Dist_500_LN_15_LD_18_RN_5_RD_15_0.png","C_Dist_500_LN_15_LD_20_RN_1_RD_4_0.png","C_Dist_500_LN_18_LD_27_RN_1_RD_6_0.png","C_Dist_500_LN_20_LD_24_RN_1_RD_3_0.png","C_Dist_500_LN_20_LD_24_RN_3_RD_9_0.png","C_Dist_500_LN_20_LD_24_RN_7_RD_21_0.png","C_Dist_500_LN_20_LD_28_RN_3_RD_14_0.png","C_Dist_500_LN_21_LD_28_RN_6_RD_24_0.png","C_Dist_500_LN_22_LD_28_RN_2_RD_7_0.png","C_Dist_500_LN_25_LD_30_RN_9_RD_27_0.png","C_Dist_500_LN_4_LD_6_RN_1_RD_6_0.png","C_Dist_500_LN_5_LD_6_RN_2_RD_6_0.png","C_Dist_500_LN_6_LD_9_RN_1_RD_6_0.png","C_Dist_500_LN_7_LD_10_RN_1_RD_5_0.png","C_Dist_500_LN_8_LD_12_RN_1_RD_6_0.png","C_Dist_500_LN_8_LD_12_RN_4_RD_24_0.png"],["C_Dist_500_LN_1_LD_4_RN_12_RD_16_1.png","C_Dist_500_LN_1_LD_4_RN_9_RD_12_1.png","C_Dist_500_LN_1_LD_9_RN_11_RD_18_1.png","C_Dist_500_LN_10_LD_24_RN_22_RD_24_1.png","C_Dist_500_LN_2_LD_12_RN_10_RD_15_1.png","C_Dist_500_LN_2_LD_12_RN_12_RD_18_1.png","C_Dist_500_LN_2_LD_12_RN_4_RD_6_1.png","C_Dist_500_LN_2_LD_24_RN_7_RD_12_1.png","C_Dist_500_LN_2_LD_5_RN_18_RD_20_1.png","C_Dist_500_LN_2_LD_5_RN_9_RD_10_1.png","C_Dist_500_LN_2_LD_8_RN_12_RD_16_1.png","C_Dist_500_LN_2_LD_8_RN_21_RD_28_1.png","C_Dist_500_LN_3_LD_10_RN_4_RD_5_1.png","C_Dist_500_LN_3_LD_12_RN_15_RD_20_1.png","C_Dist_500_LN_3_LD_30_RN_6_RD_10_1.png","C_Dist_500_LN_3_LD_8_RN_14_RD_16_1.png","C_Dist_500_LN_4_LD_16_RN_15_RD_20_1.png","C_Dist_500_LN_4_LD_24_RN_12_RD_18_1.png","C_Dist_500_LN_5_LD_14_RN_6_RD_7_1.png","C_Dist_500_LN_7_LD_21_RN_20_RD_24_1.png","C_Dist_500_LN_7_LD_28_RN_12_RD_16_1.png","C_Dist_500_LN_7_LD_28_RN_9_RD_12_1.png","C_Dist_500_LN_9_LD_27_RN_20_RD_24_1.png"]],"dist500_I":[["I_Dist_500_LN_2_LD_3_RN_4_RD_24_0.png","I_Dist_500_LN_5_LD_6_RN_6_RD_18_0.png","I_Dist_500_LN_7_LD_8_RN_9_RD_24_0.png"],["I_Dist_500_LN_7_LD_21_RN_5_RD_6_1.png"]],"dist500_S":[["E_Dist_500_LN_6_LD_8_RN_6_RD_24_0.png"],["E_Dist_500_LN_2_LD_12_RN_2_RD_3_1.png","E_Dist_500_LN_6_LD_24_RN_6_RD_8_1.png"]]}},{"start_time":1552068982149,"click_time":1552069053633,"finger_time":1552068982153,"fix_duration":375.0413273263581,"trial":1,"RT":4,"MT":71480,"sideResp":2,"stimulus":[],"xmouse":[819,827,836,842,845,846,846,846,846,847,847,848,850,851,855,858,861,862,864,864,865,867,868,869,870,871,872,875,877,881,887,890,890,890,890,890,890,888,884,881,878,875,869,865,864,862,859,852,849,847,846,846,843,838,836,834,831,826,824,821,816,813,812,811,810,809,809,809,807,806,805,804,800,799,798,797,796,796,796,796,796,795,795,795,793,790,785,780,780,780,780,780,780,780,780,780,779,779,779,779,779,779,779,779,779,779,779,779,779,779,779,779,779,779,779,779,779,779,779,779,779,779,779,779,779,779,779,779,780,780,781,781,782,782,782,782,782,782,782,782,782,782,782,782,782,782,782,782,782,782,782,782,782,782,782,782,782,782,782,782,782,782,782,782,782,782,782,782,782,782,782,782,782,782,782,782,781,781,781,781,781,781,781,781,781,781,781,781,781,781,781,780,779,779,779,779,779,778,778,778,777,777,776,776,776,776,776,776,775,775,775,775,775,775,775,775,775,775,775,775,775,775,775,775,775,775,775,775,770,759,746,730,698,689,684,683,683,715,737,789,936,955,1012,1012,1001,975,936,835,796,782,766,758,758,758,763,771,793,839,957,980,989,988,895,814,728,644,590,569,575,597,624,708,747,772,766,748,723,667,657,657,657,657,679,690,697,700,700,700,698,693,685,658,616,588,573,569,569,569,569,569,573,583,598,626,635,641,643,643,643,643,643,642,631,624,624,624,623,623,623,623,623,623,623,623,623,623,623,623,623,623,623,623,623,623,623,623,623,623,623,623,623,623,623,623,623,623,623,623,623,623,623,623,623,623,623,623,623,623,623,623,623,623,623,623,623,623,623,623,623,623,623,623,623,623,623,623,623,623,623,623,623,623,623,623,623,623,623,623,623,623,623,623,623,623,623,623,623,623,623,623,623,623,623,623,623,623,623,623,623,623,623,623,623,623,623,623,623,623,623,623,623,623,623,623,623,623,623,623,623,623,623,623,623,623,623,623,623,623,623,623,623,623,623,623,623,623,623,623,623,623,623,623,623,623,623,623,623,623,623,623,623,623,623,623,623,623,623,623,623,623,623,623,623,623,623,623,623,623,623,623,623,623,623,623,623,623,623,623,623,623,623,623,623,623,623,623,623,623,623,623,623,623,623,623,623,623,623,623,623,623,623,623,623,623,623,623,623,623,623,623,623,623,623,623,623,623,623,623,623,623,623,623,623,623,623,623,623,623,623,623,623,623,623,623,623,623,623,623,623,623,623,623,623,623,623,623,623,623,623,623,623,623,623,623,623,623,623,623,623,623,623,623,623,623,623,623,623,623,623,623,623,623,623,623,623,623,623,623,623,623,623,623,623,623,623,623,623,623,623,623,623,623,623,623,623,623,623,623,623,623,623,623,623,623,623,623,623,623,623,623,623,623,623,623,623,623,623,623,623,623,623,623,623,623,623,623,623,623,623,623,623,623,623,623,623,623,623,623,623,623,623,623,623,623,623,623,623,623,623,623,623,623,623,623,623,623,623,623,623,623,623,623,623,623,623,623,623,623,623,623,623,623,623,623,623,623,623,623,623,623,623,623,623,623,623,623,623,623,623,623,623,623,623,623,623,623,623,623,623,623,623,623,623,623,623,623,623,623,623,623,623,623,623,623,623,623,623,623,623,623,623,623,623,623,623,623,623,623,623,623,623,623,623,623,623,623,623,623,623,623,623,623,623,623,623,623,623,623,623,623,623,623,623,623,623,623,623,623,623,623,623,623,623,623,623,623,623,623,623,623,623,623,623,623,623,623,623,623,623,623,623,623,623,623,623,623,623,623,623,623,623,623,623,623,623,623,623,623,623,623,623,623,623,623,623,623,623,623,623,623,623,623,623,623,623,623,623,623,623,623,623,623,623,623,623,623,623,623,623,623,623,623,623,623,623,623,623,623,623,623,623,623,623,623,623,623,623,623,623,623,623,623,623,623,623,623,623,623,623,623,623,623,623,623,623,623,623,623,623,623,623,623,623,623,623,623,623,623,623,623,623,623,623,623,623,623,623,623,623,623,623,623,623,623,623,623,623,623,623,623,623,623,623,623,623,623,623,623,623,623,623,623,623,623,623,623,623,623,623,623,623,623,623,623,623,623,623,623,623,623,623,623,623,623,623,623,623,623,623,623,623,623,623,623,623,623,623,623,623,623,623,623,623,623,623,623,623,623,623,623,623,623,623,623,623,623,623,623,623,623,623,623,623,623,623,623,623,623,623,623,623,623,623,623,623,623,623,623,623,623,623,623,623,623,623,623,623,623,623,623,623,623,623,623,623,623,623,623,623,623,623,623,623,623,623,623,623,623,623,623,623,623,623,623,623,623,623,623,623,623,623,623,623,623,623,623,623,623,623,623,623,623,623,623,623,623,623,623,623,623,623,623,623,623,623,623,623,623,623,623,623,623,623,623,623,623,623,623,623,623,623,623,623,623,623,623,623,623,623,623,623,623,623,623,623,623,623,623,623,623,623,623,623,623,623,623,623,623,623,623,623,623,623,623,623,623,623,623,623,623,623,623,623,623,623,623,623,623,623,623,623,623,623,623,623,623,623,623,623,623,623,623,623,623,623,623,623,623,623,623,623,623,623,623,623,623,623,623,623,623,623,623,623,623,623,623,623,623,623,623,623,623,623,623,623,623,623,623,623,623,623,623,623,623,623,623,623,623,623,623,623,623,623,623,623,623,623,623,623,623,623,623,623,623,623,623,623,623,623,623,623,623,623,623,623,623,623,623,623,623,623,623,623,623,623,623,623,623,623,623,623,623,623,623,623,623,623,623,623,623,623,623,623,623,623,623,623,623,623,623,623,623,623,623,623,623,623,623,623,623,623,623,623,623,623,623,623,623,623,623,623,623,623,623,623,623,623,623,623,623,623,623,623,623,623,623,623,623,623,623,623,623,623,623,623,623,623,623,623,623,623,623,623,623,623,623,623,623,623,623,623,623,623,623,623,623,623,623,623,623,623,623,623,623,623,623,623,623,623,623,623,623,623,623,623,623,623,623,623,623,623,623,623,623,623,623,623,623,623,623,623,623,623,623,623,623,623,623,623,623,623,623,623,623,623,623,623,623,623,623,623,623,623,623,623,623,623,623,623,623,623,623,623,623,623,623,623,623,623,623,623,623,623,623,623,623,623,623,623,623,623,623,623,623,623,623,623,623,623,623,623,623,623,623,623,623,623,623,623,623,623,623,623,623,623,623,623,623,623,623,623,623,623,623,623,623,623,623,623,623,623,623,623,623,623,623,623,623,623,623,623,623,623,623,623,623,623,623,623,623,623,623,623,623,623,623,623,623,623,623,623,623,623,623,623,623,623,623,623,623,623,623,623,623,623,623,623,623,623,623,623,623,623,623,623,623,623,623,623,623,623,623,623,623,623,623,623,623,623,623,623,623,623,623,623,623,623,623,623,623,623,623,623,623,623,623,623,623,623,623,623,623,623,623,623,623,623,623,623,623,623,623,623,623,623,623,623,623,623,623,623,623,623,623,623,623,623,623,623,623,623,623,623,623,623,623,623,623,623,623,623,623,623,623,623,623,623,623,623,623,623,623,623,623,623,623,623,623,623,623,623,623,623,623,623,623,623,623,623,623,623,623,623,623,623,623,623,623,623,623,623,623,623,623,623,623,623,623,623,623,623,623,623,623,623,623,623,623,623,623,623,623,623,623,623,623,623,623,623,623,623,623,623,623,623,623,623,623,623,623,623,623,623,623,623,623,623,623,623,623,623,623,623,623,623,623,623,623,623,623,623,623,623,623,623,623,623,623,623,623,623,623,623,623,623,623,623,623,623,623,623,623,623,623,623,623,623,623,623,623,623,623,623,623,623,623,623,623,623,623,623,623,623,623,623,623,623,623,623,623,623,623,623,623,623,623,623,623,623,623,623,623,623,623,623,623,623,623,623,623,623,623,623,623,623,623,623,623,623,623,623,623,623,623,623,623,623,623,623,623,623,623,623,623,623,623,623,623,623,623,623,623,623,623,623,623,623,623,623,623,623,623,623,623,623,623,623,623,623,623,623,623,623,623,623,623,623,623,623,623,623,623,623,623,623,623,623,623,623,623,623,623,623,623,623,623,623,623,623,623,623,623,623,623,623,623,623,623,623,623,623,623,623,623,623,623,623,623,623,623,623,623,623,623,623,623,623,623,623,623,623,623,623,623,623,623,623,623,623,623,623,623,623,623,623,623,623,623,623,623,623,623,623,623,623,623,623,623,623,623,623,623,623,623,623,623,623,623,623,623,623,623,623,623,623,623,623,623,623,623,623,623,623,623,623,623,623,623,623,623,623,623,623,623,623,623,623,623,623,623,623,623,623,623,623,623,623,623,623,623,623,623,623,623,623,623,623,623,623,623,623,623,623,623,623,623,623,623,623,623,623,623,623,623,623,623,623,623,623,623,623,623,623,623,623,623,623,623,623,623,623,623,623,623,623,623,623,623,623,623,623,623,623,623,623,623,623,623,623,623,623,623,623,623,623,623,623,623,623,623,623,623,623,623,623,623,623,623,623,623,623,623,623,623,623,623,623,623,623,623,623,623,623,623,623,623,623,623,623,623,623,623,623,623,623,623,623,623,623,623,623,623,623,623,623,623,623,623,623,623,623,623,623,623,623,623,623,623,623,623,623,623,623,623,623,623,623,623,623,623,623,623,623,623,623,623,623,623,623,623,623,623,623,623,623,623,623,623,623,623,623,623,623,623,623,623,623,623,623,623,623,623,623,623,623,623,623,623,623,623,623,623,623,623,625,656,724,748,744,742,743,815,866,968,1146,1201,1204,1004,811,626,513,515,611,869,1055,1211,1281,1242,1127,969,831,769,806,985,1113,1187,1187,1173,1127,1080,1069,1138,1317,1414,1474,1475,1475,1197,992,835,805,967,1159,1411,1478,1480,1467,1467,1455,1440,1490,1490,1490,1490,1577,1473,1284,1010,1007,1110,1221,1425,1497,1320,1139,989,966,1023,1363,1363,1363,1363,1482,1257,873,665,607,697,842,954,1033,1029,596,383,250,239,307,668,847,954,978,960,823,660,643,671,783,1085,1188,1209,1209,990,682,487,384,377,408,762,982,1159,1186,1137,946,764,620,542,540,722,921,1124,1278,1322,1185,884,674,546,536,718,914,1087,1201,1218,1164,1049,1023,1021,1033,1094,1126,1139,1141,1134,1096,1001,861,680,488,191,134,128,136,164,376,483,589,685,769,865,876,876,876,876,873,871,868,867,864,860,859,857,855,852,849,847,847,846,844,831,820,810,801,796,795,795,795,795,795,795,794,794,793,793,791,791,790,790,790,790,790,790,790,790,790,790,790,790,790,790,790,788,787,784,780,780,779,779,779,779,779,779,779,779,779,779,779,779,779,779,778,778,778,778,778,778,778,778,778,778,778,778,778,778,778,778,776,772,768,766,766,766,766,766,766,766,766,766,766,766,766,766,766,766,766,766,766,766,766,766,766,766,766,766,766,766,766,766,766,766,766,766,766,766,766,766,766,766,766,766,766,766,766,766,766,766,766,766,766,766,766,766,766,766,766,766,766,766,766,766,766,766,766,766,766,766,766,766,766,766,766,766,766,766,766,766,766,766,766,766,766,766,766,766,766,766,766,766,766,766,766,766,766,766,766,766,766,766,766,766,766,766,766,766,766,766,766,766,766,766,766,766,766,766,766,766,766,766,766,766,766,766,766,766,766,766,766,766,766,766,766,766,766,766,766,766,766,766,766,766,766,766,766,766,766,766,766,766,766,766,766,766,766,766,766,766,766,766,766,766,766,766,766,766,766,766,766,766,766,766,766,766,766,766,766,766,766,766,766,766,766,766,766,766,766,766,766,766,766,766,766,766,766,766,766,766,766,766,766,766,766,766,766,766,766,766,766,766,766,766,766,766,766,766,766,766,766,766,766,766,766,766,766,766,766,766,766,766,766,766,766,766,766,766,766,766,766,766,766,766,766,766,766,766,766,766,766,766,766,766,766,766,766,766,766,766,766,766,766,766,766,766,766,766,766,766,766,766,766,766,766,766,766,766,766,766,766,766,766,766,766,766,766,766,766,766,766,766,766,766,766,766,766,766,766,766,766,766,766,766,766,766,766,766,766,766,766,766,766,766,766,766,766,766,766,766,766,766,766,766,766,766,766,766,766,766,766,766,766,766,766,766,766,766,766,766,766,766,766,766,766,766,766,766,766,766,766,766,766,766,766,766,766,766,766,766,766,766,766,766,766,766,766,766,766,766,766,766,766,766,766,766,766,766,766,766,766,766,766,766,766,766,766,766,766,766,766,766,766,766,766,766,766,766,766,766,766,766,766,766,766,766,766,766,766,766,766,766,766,766,766,766,766,766,766,766,766,766,766,766,766,766,766,766,766,766,766,766,766,766,766,766,766,766,766,766,766,766,766,766,766,766,766,766,766,766,766,766,766,766,766,766,766,766,766,766,766,766,766,766,766,766,766,766,766,766,766,766,766,766,766,766,766,766,766,766,766,766,766,766,766,766,766,766,766,766,766,766,766,766,766,766,766,766,766,766,766,766,766,766,766,766,766,766,766,766,766,766,766,766,766,766,766,766,766,766,766,766,766,766,766,766,766,766,766,766,766,766,766,766,766,766,766,766,766,766,766,766,766,766,766,766,766,766,766,766,766,766,766,766,766,766,766,766,766,766,766,766,766,766,766,766,766,766,766,766,766,766,766,766,766,766,766,766,766,766,766,766,766,766,766,766,766,766,766,766,766,766,766,766,766,766,766,766,766,766,766,766,766,766,766,766,766,766,766,766,766,766,766,766,766,766,766,766,766,766,766,766,766,766,766,766,766,766,766,766,766,766,766,766,766,766,766,766,766,766,766,766,766,766,766,766,766,766,766,766,766,766,766,766,766,766,766,766,766,766,766,766,766,766,766,766,766,766,766,766,766,766,766,766,766,766,766,766,766,766,766,766,766,766,766,766,766,766,766,766,766,766,766,766,766,766,766,766,766,766,766,766,766,766,766,766,766,766,766,766,766,766,766,766,766,766,766,766,766,766,766,766,766,766,766,766,766,766,766,766,766,766,766,766,766,766,766,766,766,766,766,766,766,766,766,766,766,766,766,766,766,766,766,766,766,766,766,766,766,766,766,766,766,766,766,766,766,766,766,766,766,766,766,766,766,766,766,766,766,766,766,766,766,766,766,766,766,766,766,766,766,766,766,766,766,766,766,766,766,766,766,766,766,766,766,766,766,766,766,766,766,766,766,766,766,766,766,766,766,766,766,766,766,766,766,766,766,766,766,766,766,766,766,766,766,766,766,766,766,766,766,766,766,766,766,766,766,766,766,766,766,766,766,766,766,766,766,766,766,766,766,766,766,766,766,766,766,766,766,766,766,766,766,766,766,766,766,766,766,766,766,766,766,766,766,766,766,766,766,766,766,766,766,766,766,766,766,766,766,766,766,766,766,766,766,766,766,766,766,766,766,766,766,766,766,766,766,766,766,766,766,766,766,766,766,766,766,766,766,766,766,766,766,766,766,766,766,766,766,766,766,766,766,766,766,766,766,766,766,766,766,766,766,766,766,766,766,766,766,766,766,766,766,766,766,766,766,766,766,766,766,766,766,766,766,766,766,766,766,766,766,766,766,766,766,766,766,766,766,766,766,766,766,766,766,766,766,766,766,766,766,766,766,766,766,766,766,766,766,766,766,766,766,766,766,766,766,766,766,766,766,766,766,766,766,766,766,766,766,766,766,766,766,766,766,766,766,766,766,766,766,766,766,766,766,766,766,766,766,766,766,766,766,766,766,766,766,766,766,766,766,766,766,766,766,766,766,766,766,766,766,766,766,766,766,766,766,766,766,766,766,766,766,766,766,766,766,766,766,766,766,766,766,766,766,766,766,766,766,766,766,766,766,766,766,766,766,766,766,766,766,766,766,766,766,766,766,766,766,766,766,766,766,766,766,766,766,766,766,766,766,766,766,766,766,766,766,766,766,766,766,766,766,766,766,766,766,766,766,766,766,766,766,766,766,766,766,766,766,766,766,766,766,766,766,766,766,766,766,766,766,766,766,766,766,766,766,766,766,766,766,764,781,821,875,945,965,979,978,972,965,956,958,973,988,999,1028,1037,1045,1050,1055,1063,1065,1066,1066,1064,1064,1064,1066,1070,1072],"ymouse":[674,677,681,682,683,683,683,683,683,683,683,683,683,683,682,682,681,679,678,678,676,673,670,665,661,656,652,644,639,633,627,622,622,622,622,622,622,624,627,629,631,632,635,635,635,635,635,635,635,635,635,635,635,635,635,634,634,633,632,631,629,628,626,626,624,623,621,618,615,611,610,606,599,597,595,594,592,591,591,590,589,588,588,587,585,583,581,579,579,579,579,579,579,579,579,579,579,579,579,579,579,579,579,579,579,579,579,579,579,579,579,578,577,577,576,575,574,573,572,572,572,572,572,572,572,572,572,572,571,570,568,568,566,566,566,565,565,564,564,563,563,563,562,561,561,561,561,560,560,560,560,560,560,560,560,560,559,559,559,559,559,559,558,558,557,557,557,557,557,557,557,557,557,557,558,558,560,560,560,560,560,560,560,560,560,560,560,560,560,560,560,561,561,561,561,560,560,559,559,559,558,558,557,556,556,556,556,556,556,556,556,556,556,556,556,556,556,556,555,554,554,554,554,554,554,554,554,553,553,552,550,548,547,547,547,547,547,555,560,567,593,601,626,630,634,640,641,635,625,621,619,618,618,618,618,618,618,618,621,626,631,634,650,650,640,629,615,609,609,609,609,609,610,620,621,622,622,618,616,616,616,616,606,602,600,598,598,593,587,580,573,563,556,551,549,549,549,549,549,549,549,549,549,558,561,564,565,566,566,566,566,566,566,566,566,566,566,566,566,566,566,566,566,566,566,566,566,566,566,566,566,566,566,566,566,566,566,566,566,566,566,566,566,566,566,566,566,566,566,566,566,566,566,566,566,566,566,566,566,566,566,566,566,566,566,566,566,566,566,566,566,566,566,566,566,566,566,566,566,566,566,566,566,566,566,566,566,566,566,566,566,566,566,566,566,566,566,566,566,566,566,566,566,566,566,566,566,566,566,566,566,566,566,566,566,566,566,566,566,566,566,566,566,566,566,566,566,566,566,566,566,566,566,566,566,566,566,566,566,566,566,566,566,566,566,566,566,566,566,566,566,566,566,566,566,566,566,566,566,566,566,566,566,566,566,566,566,566,566,566,566,566,566,566,566,566,566,566,566,566,566,566,566,566,566,566,566,566,566,566,566,566,566,566,566,566,566,566,566,566,566,566,566,566,566,566,566,566,566,566,566,566,566,566,566,566,566,566,566,566,566,566,566,566,566,566,566,566,566,566,566,566,566,566,566,566,566,566,566,566,566,566,566,566,566,566,566,566,566,566,566,566,566,566,566,566,566,566,566,566,566,566,566,566,566,566,566,566,566,566,566,566,566,566,566,566,566,566,566,566,566,566,566,566,566,566,566,566,566,566,566,566,566,566,566,566,566,566,566,566,566,566,566,566,566,566,566,566,566,566,566,566,566,566,566,566,566,566,566,566,566,566,566,566,566,566,566,566,566,566,566,566,566,566,566,566,566,566,566,566,566,566,566,566,566,566,566,566,566,566,566,566,566,566,566,566,566,566,566,566,566,566,566,566,566,566,566,566,566,566,566,566,566,566,566,566,566,566,566,566,566,566,566,566,566,566,566,566,566,566,566,566,566,566,566,566,566,566,566,566,566,566,566,566,566,566,566,566,566,566,566,566,566,566,566,566,566,566,566,566,566,566,566,566,566,566,566,566,566,566,566,566,566,566,566,566,566,566,566,566,566,566,566,566,566,566,566,566,566,566,566,566,566,566,566,566,566,566,566,566,566,566,566,566,566,566,566,566,566,566,566,566,566,566,566,566,566,566,566,566,566,566,566,566,566,566,566,566,566,566,566,566,566,566,566,566,566,566,566,566,566,566,566,566,566,566,566,566,566,566,566,566,566,566,566,566,566,566,566,566,566,566,566,566,566,566,566,566,566,566,566,566,566,566,566,566,566,566,566,566,566,566,566,566,566,566,566,566,566,566,566,566,566,566,566,566,566,566,566,566,566,566,566,566,566,566,566,566,566,566,566,566,566,566,566,566,566,566,566,566,566,566,566,566,566,566,566,566,566,566,566,566,566,566,566,566,566,566,566,566,566,566,566,566,566,566,566,566,566,566,566,566,566,566,566,566,566,566,566,566,566,566,566,566,566,566,566,566,566,566,566,566,566,566,566,566,566,566,566,566,566,566,566,566,566,566,566,566,566,566,566,566,566,566,566,566,566,566,566,566,566,566,566,566,566,566,566,566,566,566,566,566,566,566,566,566,566,566,566,566,566,566,566,566,566,566,566,566,566,566,566,566,566,566,566,566,566,566,566,566,566,566,566,566,566,566,566,566,566,566,566,566,566,566,566,566,566,566,566,566,566,566,566,566,566,566,566,566,566,566,566,566,566,566,566,566,566,566,566,566,566,566,566,566,566,566,566,566,566,566,566,566,566,566,566,566,566,566,566,566,566,566,566,566,566,566,566,566,566,566,566,566,566,566,566,566,566,566,566,566,566,566,566,566,566,566,566,566,566,566,566,566,566,566,566,566,566,566,566,566,566,566,566,566,566,566,566,566,566,566,566,566,566,566,566,566,566,566,566,566,566,566,566,566,566,566,566,566,566,566,566,566,566,566,566,566,566,566,566,566,566,566,566,566,566,566,566,566,566,566,566,566,566,566,566,566,566,566,566,566,566,566,566,566,566,566,566,566,566,566,566,566,566,566,566,566,566,566,566,566,566,566,566,566,566,566,566,566,566,566,566,566,566,566,566,566,566,566,566,566,566,566,566,566,566,566,566,566,566,566,566,566,566,566,566,566,566,566,566,566,566,566,566,566,566,566,566,566,566,566,566,566,566,566,566,566,566,566,566,566,566,566,566,566,566,566,566,566,566,566,566,566,566,566,566,566,566,566,566,566,566,566,566,566,566,566,566,566,566,566,566,566,566,566,566,566,566,566,566,566,566,566,566,566,566,566,566,566,566,566,566,566,566,566,566,566,566,566,566,566,566,566,566,566,566,566,566,566,566,566,566,566,566,566,566,566,566,566,566,566,566,566,566,566,566,566,566,566,566,566,566,566,566,566,566,566,566,566,566,566,566,566,566,566,566,566,566,566,566,566,566,566,566,566,566,566,566,566,566,566,566,566,566,566,566,566,566,566,566,566,566,566,566,566,566,566,566,566,566,566,566,566,566,566,566,566,566,566,566,566,566,566,566,566,566,566,566,566,566,566,566,566,566,566,566,566,566,566,566,566,566,566,566,566,566,566,566,566,566,566,566,566,566,566,566,566,566,566,566,566,566,566,566,566,566,566,566,566,566,566,566,566,566,566,566,566,566,566,566,566,566,566,566,566,566,566,566,566,566,566,566,566,566,566,566,566,566,566,566,566,566,566,566,566,566,566,566,566,566,566,566,566,566,566,566,566,566,566,566,566,566,566,566,566,566,566,566,566,566,566,566,566,566,566,566,566,566,566,566,566,566,566,566,566,566,566,566,566,566,566,566,566,566,566,566,566,566,566,566,566,566,566,566,566,566,566,566,566,566,566,566,566,566,566,566,566,566,566,566,566,566,566,566,566,566,566,566,566,566,566,566,566,566,566,566,566,566,566,566,566,566,566,566,566,566,566,566,566,566,566,566,566,566,566,566,566,566,566,566,566,566,566,566,566,566,566,566,566,566,566,566,566,566,566,566,566,566,566,566,566,566,566,566,566,566,566,566,566,566,566,566,566,566,566,566,566,566,566,566,566,566,566,566,566,566,566,566,566,566,566,566,566,566,566,566,566,566,566,566,566,566,566,566,566,566,566,566,566,566,566,566,566,566,566,566,566,566,566,566,566,566,566,566,566,566,566,566,566,566,566,566,566,566,566,566,566,566,566,566,566,566,566,566,566,566,566,566,566,566,566,566,566,566,566,566,566,566,566,566,566,566,566,566,566,566,566,566,566,566,566,566,566,566,566,566,566,566,566,566,566,566,566,566,566,566,566,566,566,566,566,566,566,566,566,566,566,566,566,566,566,566,566,566,566,566,566,566,566,566,566,566,566,566,566,566,566,566,566,566,566,566,566,566,566,566,566,566,566,566,566,566,566,566,566,566,566,566,566,566,566,566,566,566,566,566,566,566,566,566,566,566,566,566,566,566,566,566,566,566,566,566,566,566,566,566,566,566,566,566,566,566,566,566,566,566,566,566,566,566,566,566,566,566,566,566,566,566,566,566,566,566,566,566,566,566,566,566,566,566,566,566,566,566,566,566,566,566,566,566,566,566,566,566,566,566,566,566,566,566,566,566,566,566,566,566,566,566,566,566,566,566,566,566,566,566,566,566,566,566,566,566,566,566,566,566,566,566,566,566,566,566,566,566,566,566,566,566,566,566,566,566,566,566,566,566,566,566,566,566,566,566,566,566,566,566,566,566,566,566,566,566,566,566,566,566,566,566,566,566,566,566,566,566,566,566,566,566,566,566,566,566,566,566,566,566,566,566,566,566,566,566,566,566,566,566,566,566,566,566,566,566,566,566,566,566,566,566,566,566,566,566,566,566,566,566,566,566,566,566,566,566,566,566,566,566,566,566,566,566,566,566,566,566,566,566,566,566,566,566,566,566,566,566,566,566,566,566,566,566,566,566,566,566,566,566,566,566,566,566,566,566,566,566,566,566,566,566,566,566,566,566,566,566,566,566,566,566,566,566,566,566,566,566,566,566,566,566,566,566,566,566,566,566,566,566,566,566,566,566,566,566,566,566,566,566,566,566,566,566,566,566,566,566,566,566,566,566,566,566,566,566,566,566,566,566,566,566,566,566,566,566,566,566,566,566,566,566,566,566,566,566,566,566,566,571,593,622,628,626,623,616,601,604,616,646,659,662,630,582,538,497,484,480,517,545,584,606,595,551,492,428,392,386,387,410,433,439,439,437,431,430,424,424,435,451,453,453,451,422,401,393,388,389,422,436,440,442,442,440,435,434,434,434,434,463,482,506,531,532,532,532,549,585,606,608,614,614,614,614,614,614,614,663,648,556,497,470,443,433,440,461,479,527,501,459,439,408,369,374,398,426,451,463,449,435,421,401,408,444,471,477,510,482,441,426,424,424,454,502,571,582,628,624,586,544,520,518,548,603,673,746,799,819,699,609,542,533,554,602,664,739,766,771,734,722,721,721,750,777,796,813,824,830,818,782,721,655,547,521,517,517,517,515,524,539,559,581,610,614,615,615,615,617,618,621,623,625,627,627,627,627,627,627,627,627,627,627,625,622,619,617,617,616,616,616,616,616,616,616,616,616,616,616,617,617,617,617,617,617,617,617,617,617,617,617,617,617,617,617,618,619,620,623,623,623,623,623,623,623,623,623,623,623,623,623,623,623,623,624,624,624,624,624,624,624,624,624,624,624,624,624,624,624,624,627,633,641,647,647,647,647,647,647,647,647,647,647,647,647,647,647,647,647,647,647,647,647,647,647,647,647,647,647,647,647,647,647,647,647,647,647,647,647,647,647,647,647,647,647,647,647,647,647,647,647,647,647,647,647,647,647,647,647,647,647,647,647,647,647,647,647,647,647,647,647,647,647,647,647,647,647,647,647,647,647,647,647,647,647,647,647,647,647,647,647,647,647,647,647,647,647,647,647,647,647,647,647,647,647,647,647,647,647,647,647,647,647,647,647,647,647,647,647,647,647,647,647,647,647,647,647,647,647,647,647,647,647,647,647,647,647,647,647,647,647,647,647,647,647,647,647,647,647,647,647,647,647,647,647,647,647,647,647,647,647,647,647,647,647,647,647,647,647,647,647,647,647,647,647,647,647,647,647,647,647,647,647,647,647,647,647,647,647,647,647,647,647,647,647,647,647,647,647,647,647,647,647,647,647,647,647,647,647,647,647,647,647,647,647,647,647,647,647,647,647,647,647,647,647,647,647,647,647,647,647,647,647,647,647,647,647,647,647,647,647,647,647,647,647,647,647,647,647,647,647,647,647,647,647,647,647,647,647,647,647,647,647,647,647,647,647,647,647,647,647,647,647,647,647,647,647,647,647,647,647,647,647,647,647,647,647,647,647,647,647,647,647,647,647,647,647,647,647,647,647,647,647,647,647,647,647,647,647,647,647,647,647,647,647,647,647,647,647,647,647,647,647,647,647,647,647,647,647,647,647,647,647,647,647,647,647,647,647,647,647,647,647,647,647,647,647,647,647,647,647,647,647,647,647,647,647,647,647,647,647,647,647,647,647,647,647,647,647,647,647,647,647,647,647,647,647,647,647,647,647,647,647,647,647,647,647,647,647,647,647,647,647,647,647,647,647,647,647,647,647,647,647,647,647,647,647,647,647,647,647,647,647,647,647,647,647,647,647,647,647,647,647,647,647,647,647,647,647,647,647,647,647,647,647,647,647,647,647,647,647,647,647,647,647,647,647,647,647,647,647,647,647,647,647,647,647,647,647,647,647,647,647,647,647,647,647,647,647,647,647,647,647,647,647,647,647,647,647,647,647,647,647,647,647,647,647,647,647,647,647,647,647,647,647,647,647,647,647,647,647,647,647,647,647,647,647,647,647,647,647,647,647,647,647,647,647,647,647,647,647,647,647,647,647,647,647,647,647,647,647,647,647,647,647,647,647,647,647,647,647,647,647,647,647,647,647,647,647,647,647,647,647,647,647,647,647,647,647,647,647,647,647,647,647,647,647,647,647,647,647,647,647,647,647,647,647,647,647,647,647,647,647,647,647,647,647,647,647,647,647,647,647,647,647,647,647,647,647,647,647,647,647,647,647,647,647,647,647,647,647,647,647,647,647,647,647,647,647,647,647,647,647,647,647,647,647,647,647,647,647,647,647,647,647,647,647,647,647,647,647,647,647,647,647,647,647,647,647,647,647,647,647,647,647,647,647,647,647,647,647,647,647,647,647,647,647,647,647,647,647,647,647,647,647,647,647,647,647,647,647,647,647,647,647,647,647,647,647,647,647,647,647,647,647,647,647,647,647,647,647,647,647,647,647,647,647,647,647,647,647,647,647,647,647,647,647,647,647,647,647,647,647,647,647,647,647,647,647,647,647,647,647,647,647,647,647,647,647,647,647,647,647,647,647,647,647,647,647,647,647,647,647,647,647,647,647,647,647,647,647,647,647,647,647,647,647,647,647,647,647,647,647,647,647,647,647,647,647,647,647,647,647,647,647,647,647,647,647,647,647,647,647,647,647,647,647,647,647,647,647,647,647,647,647,647,647,647,647,647,647,647,647,647,647,647,647,647,647,647,647,647,647,647,647,647,647,647,647,647,647,647,647,647,647,647,647,647,647,647,647,647,647,647,647,647,647,647,647,647,647,647,647,647,647,647,647,647,647,647,647,647,647,647,647,647,647,647,647,647,647,647,647,647,647,647,647,647,647,647,647,647,647,647,647,647,647,647,647,647,647,647,647,647,647,647,647,647,647,647,647,647,647,647,647,647,647,647,647,647,647,647,647,647,647,647,647,647,647,647,647,647,647,647,647,647,647,647,647,647,647,647,647,647,647,647,647,647,647,647,647,647,647,647,647,647,647,647,647,647,647,647,647,647,647,647,647,647,647,647,647,647,647,647,647,647,647,647,647,647,647,647,647,647,647,647,647,647,647,647,647,647,647,647,647,647,647,647,647,647,647,647,647,647,647,647,647,647,647,647,647,647,647,647,647,647,647,647,647,647,647,647,647,647,647,647,647,647,647,647,647,647,647,647,647,647,647,647,647,647,647,647,647,647,647,647,647,647,647,647,647,647,647,647,647,647,647,647,647,647,647,647,647,647,647,647,647,647,647,647,647,647,647,647,647,647,647,647,647,647,647,647,647,647,647,647,647,647,647,647,647,647,647,647,647,647,647,647,647,647,647,647,647,647,647,647,647,647,647,647,647,647,647,647,647,647,647,647,647,647,647,647,647,647,647,647,647,647,647,647,647,647,647,647,647,647,647,647,647,647,647,647,647,647,647,647,647,647,647,647,647,647,647,647,647,647,647,647,647,647,647,647,647,647,647,647,647,647,647,647,647,647,647,647,647,647,647,647,647,647,647,647,647,647,647,647,647,647,647,647,647,647,632,600,551,483,472,472,474,474,474,471,469,459,446,428,376,353,327,306,279,223,205,197,187,172,133,119,107,102,98],"timestamp_mouse":[4,31,42,63,82,103,123,143,163,182,203,223,242,262,282,303,322,342,362,382,402,422,441,462,482,503,522,543,563,582,602,623,643,663,682,703,722,742,763,782,802,823,842,862,882,902,922,941,963,983,1002,1023,1042,1062,1082,1102,1122,1143,1162,1182,1203,1223,1242,1263,1282,1303,1322,1342,1363,1383,1402,1423,1442,1463,1483,1502,1522,1543,1563,1583,1603,1622,1643,1662,1682,1703,1723,1742,1762,1782,1802,1823,1842,1862,1883,1903,1922,1942,1963,1983,2003,2022,2042,2062,2083,2103,2123,2142,2162,2182,2203,2222,2242,2262,2282,2302,2323,2342,2362,2382,2403,2423,2442,2462,2483,2502,2523,2542,2562,2583,2603,2623,2643,2662,2682,2702,2722,2742,2763,2783,2802,2823,2843,2863,2883,2903,2922,2942,2962,2982,3002,3022,3043,3062,3083,3102,3122,3143,3162,3182,3203,3223,3242,3262,3282,3302,3322,3343,3363,3383,3403,3422,3443,3462,3482,3502,3523,3542,3562,3583,3602,3623,3643,3663,3683,3702,3723,3742,3763,3783,3802,3822,3842,3863,3882,3903,3922,3942,3962,3982,4002,4022,4042,4063,4083,4102,4123,4142,4162,4183,4202,4223,4243,4263,4281,4303,4323,4342,4363,4383,4403,4422,4442,4463,4483,4503,4523,4542,4562,4583,4603,4623,4642,4662,4682,4703,4723,4742,4763,4783,4803,4823,4842,4862,4882,4903,4922,4942,4963,4983,5002,5023,5043,5063,5082,5102,5123,5142,5163,5182,5202,5222,5242,5263,5282,5302,5323,5342,5362,5382,5403,5423,5442,5462,5482,5502,5523,5542,5562,5583,5603,5622,5642,5662,5682,5702,5722,5742,5762,5782,5802,5823,5842,5862,5882,5903,5922,5943,5962,5983,6002,6022,6042,6062,6082,6103,6123,6142,6163,6183,6203,6222,6242,6261,6282,6302,6323,6343,6363,6383,6403,6423,6443,6462,6483,6503,6523,6543,6563,6583,6603,6622,6643,6661,6683,6702,6723,6742,6762,6783,6802,6823,6842,6862,6882,6903,6922,6942,6961,6983,7003,7023,7042,7062,7083,7102,7123,7143,7163,7183,7202,7223,7242,7263,7282,7303,7323,7343,7362,7383,7402,7423,7443,7463,7482,7502,7522,7543,7563,7582,7602,7623,7642,7662,7683,7703,7723,7743,7762,7782,7802,7823,7843,7862,7882,7903,7922,7942,7963,7982,8003,8023,8043,8063,8082,8103,8122,8143,8163,8183,8203,8223,8243,8262,8283,8302,8323,8342,8363,8383,8402,8423,8442,8462,8481,8501,8522,8542,8562,8582,8603,8623,8642,8662,8683,8703,8723,8743,8763,8782,8803,8822,8843,8862,8883,8903,8922,8943,8962,8983,9002,9023,9043,9063,9082,9103,9123,9142,9162,9182,9202,9223,9242,9262,9283,9303,9323,9342,9362,9382,9403,9422,9443,9462,9482,9503,9522,9543,9563,9583,9603,9623,9642,9662,9683,9703,9722,9742,9763,9783,9802,9822,9844,9862,9882,9902,9923,9942,9963,9983,10002,10022,10042,10062,10083,10103,10123,10143,10163,10183,10202,10223,10243,10263,10283,10303,10323,10343,10362,10382,10402,10422,10442,10463,10482,10503,10523,10543,10562,10582,10603,10623,10643,10662,10682,10702,10722,10742,10763,10783,10802,10823,10843,10863,10883,10902,10923,10942,10963,10983,11003,11022,11043,11062,11082,11102,11122,11143,11162,11182,11202,11223,11243,11263,11283,11303,11323,11343,11363,11382,11402,11423,11441,11462,11483,11503,11522,11543,11563,11583,11603,11623,11643,11662,11683,11702,11722,11743,11763,11783,11803,11823,11842,11862,11883,11903,11923,11942,11962,11982,12003,12023,12043,12063,12083,12103,12122,12143,12163,12183,12203,12222,12243,12262,12283,12302,12323,12342,12362,12383,12403,12423,12443,12462,12482,12502,12523,12543,12563,12582,12603,12621,12643,12663,12682,12703,12722,12743,12762,12783,12802,12823,12841,12862,12882,12902,12922,12943,12963,12983,13002,13022,13043,13063,13082,13103,13122,13143,13162,13183,13203,13222,13243,13262,13282,13302,13323,13342,13363,13383,13402,13422,13443,13463,13483,13502,13523,13543,13562,13582,13602,13623,13643,13662,13682,13703,13722,13742,13762,13782,13803,13823,13842,13862,13883,13902,13922,13942,13963,13983,14003,14023,14042,14062,14082,14102,14123,14143,14162,14181,14203,14223,14243,14263,14282,14302,14323,14342,14363,14382,14402,14422,14443,14462,14482,14503,14522,14543,14563,14582,14603,14623,14643,14662,14683,14702,14723,14742,14763,14783,14803,14823,14843,14863,14883,14903,14923,14942,14963,14983,15002,15022,15043,15062,15083,15103,15123,15143,15162,15182,15203,15223,15243,15263,15283,15302,15322,15342,15362,15382,15402,15422,15442,15462,15482,15503,15522,15542,15563,15581,15603,15623,15642,15662,15682,15702,15723,15743,15763,15782,15802,15823,15842,15862,15881,15903,15922,15942,15963,15983,16002,16022,16042,16062,16082,16102,16122,16143,16163,16182,16202,16222,16243,16263,16283,16303,16323,16342,16363,16382,16403,16422,16442,16462,16482,16502,16523,16542,16562,16582,16602,16622,16642,16663,16683,16703,16722,16742,16762,16782,16802,16822,16843,16862,16882,16903,16922,16942,16963,16982,17003,17022,17043,17063,17082,17103,17123,17143,17162,17183,17203,17222,17242,17263,17283,17302,17323,17342,17362,17383,17402,17423,17442,17463,17483,17502,17523,17543,17562,17582,17603,17622,17643,17663,17683,17702,17723,17743,17763,17782,17802,17823,17843,17862,17883,17902,17922,17943,17963,17983,18002,18023,18042,18063,18081,18102,18122,18142,18163,18183,18203,18222,18242,18263,18282,18302,18323,18343,18362,18383,18402,18423,18443,18462,18483,18503,18522,18542,18563,18582,18602,18623,18643,18663,18682,18703,18723,18743,18762,18783,18802,18822,18842,18863,18882,18902,18922,18942,18962,18983,19003,19023,19043,19062,19083,19102,19123,19143,19162,19182,19203,19222,19242,19262,19283,19302,19323,19342,19363,19382,19402,19423,19442,19462,19483,19503,19523,19543,19563,19582,19603,19622,19643,19662,19683,19703,19722,19742,19763,19782,19802,19822,19842,19863,19882,19902,19922,19943,19962,19983,20003,20023,20042,20063,20083,20102,20123,20143,20162,20183,20203,20222,20243,20262,20282,20303,20322,20343,20362,20382,20403,20423,20443,20463,20482,20503,20523,20543,20563,20583,20603,20623,20643,20663,20683,20702,20722,20742,20763,20782,20803,20822,20843,20863,20882,20903,20923,20943,20963,20983,21003,21023,21043,21062,21083,21102,21123,21142,21163,21182,21203,21223,21242,21263,21283,21302,21323,21343,21362,21382,21402,21423,21443,21463,21482,21503,21522,21542,21563,21583,21603,21622,21643,21662,21682,21702,21722,21743,21763,21783,21803,21823,21843,21863,21883,21902,21922,21942,21963,21982,22002,22023,22042,22063,22082,22103,22122,22143,22163,22182,22203,22223,22243,22263,22282,22303,22322,22342,22362,22382,22402,22423,22442,22462,22482,22503,22523,22543,22563,22582,22602,22623,22642,22663,22682,22703,22723,22743,22762,22782,22802,22823,22842,22862,22882,22903,22922,22943,22962,22982,23002,23022,23042,23063,23082,23103,23123,23143,23163,23182,23203,23222,23242,23263,23282,23302,23323,23342,23363,23382,23402,23423,23442,23462,23483,23502,23523,23542,23562,23582,23602,23622,23642,23663,23683,23703,23722,23743,23763,23783,23803,23822,23843,23863,23882,23902,23922,23942,23963,23983,24003,24023,24043,24063,24083,24111,24123,24143,24163,24182,24203,24222,24243,24263,24283,24303,24323,24343,24362,24381,24402,24423,24442,24463,24482,24503,24521,24541,24563,24583,24603,24622,24643,24663,24683,24703,24722,24743,24762,24783,24802,24822,24842,24862,24882,24903,24922,24943,24963,24983,25002,25023,25042,25063,25082,25103,25122,25143,25162,25183,25202,25222,25243,25262,25283,25303,25322,25343,25362,25383,25401,25422,25442,25462,25483,25502,25523,25543,25563,25583,25602,25623,25642,25663,25682,25702,25722,25743,25762,25782,25802,25823,25843,25863,25883,25902,25923,25943,25963,25982,26002,26022,26042,26062,26083,26102,26122,26143,26163,26183,26203,26222,26242,26263,26283,26303,26322,26343,26362,26383,26402,26423,26442,26463,26482,26503,26522,26543,26562,26583,26603,26622,26643,26662,26683,26703,26721,26743,26762,26783,26803,26823,26843,26862,26882,26902,26922,26943,26963,26983,27003,27023,27043,27062,27083,27102,27122,27142,27162,27182,27202,27222,27241,27262,27283,27302,27322,27343,27362,27383,27403,27421,27442,27463,27483,27502,27522,27542,27563,27582,27603,27622,27643,27662,27683,27702,27722,27743,27762,27782,27802,27823,27841,27863,27883,27903,27923,27942,27963,27982,28002,28023,28043,28063,28082,28101,28122,28142,28163,28183,28203,28223,28243,28263,28283,28302,28322,28342,28362,28382,28402,28423,28442,28462,28483,28503,28523,28543,28562,28583,28603,28622,28643,28663,28682,28702,28722,28743,28762,28783,28803,28822,28843,28862,28883,28903,28923,28943,28962,28983,29002,29023,29042,29062,29083,29102,29123,29142,29162,29183,29202,29223,29242,29263,29283,29301,29323,29343,29362,29383,29402,29423,29441,29463,29483,29502,29523,29542,29562,29583,29602,29623,29643,29663,29682,29702,29723,29742,29763,29783,29803,29823,29843,29863,29883,29903,29922,29942,29963,29983,30002,30022,30042,30062,30082,30102,30122,30143,30163,30183,30202,30223,30242,30263,30283,30303,30322,30342,30362,30382,30402,30423,30443,30463,30483,30502,30523,30542,30563,30583,30603,30623,30642,30662,30682,30702,30722,30743,30762,30782,30803,30822,30843,30863,30882,30903,30923,30942,30963,30983,31002,31023,31043,31063,31083,31102,31122,31143,31162,31182,31203,31222,31242,31263,31282,31302,31323,31342,31363,31383,31402,31423,31443,31462,31483,31503,31523,31543,31563,31583,31602,31621,31642,31662,31683,31702,31722,31742,31762,31783,31802,31822,31842,31862,31882,31902,31922,31942,31963,31983,32003,32023,32043,32062,32083,32103,32122,32143,32163,32183,32203,32222,32243,32263,32282,32303,32323,32343,32363,32383,32402,32422,32442,32463,32483,32503,32523,32543,32562,32583,32603,32623,32643,32663,32683,32702,32722,32743,32762,32783,32803,32822,32843,32862,32883,32902,32922,32943,32961,32983,33002,33023,33043,33063,33082,33102,33122,33143,33162,33183,33203,33222,33242,33262,33282,33303,33322,33343,33363,33382,33403,33422,33442,33463,33482,33503,33523,33543,33562,33583,33602,33623,33643,33663,33682,33702,33722,33743,33762,33782,33803,33822,33843,33862,33882,33903,33923,33943,33963,33982,34002,34022,34042,34063,34083,34102,34122,34142,34162,34183,34204,34222,34242,34263,34282,34303,34322,34342,34363,34383,34403,34423,34443,34463,34483,34502,34523,34543,34563,34582,34603,34622,34643,34662,34682,34703,34723,34743,34763,34783,34802,34822,34842,34863,34882,34902,34923,34943,34962,34983,35003,35023,35043,35063,35082,35103,35123,35142,35162,35183,35203,35223,35242,35262,35282,35303,35322,35342,35363,35382,35403,35423,35442,35462,35482,35502,35522,35543,35563,35582,35603,35623,35642,35662,35682,35703,35723,35743,35763,35783,35803,35822,35843,35861,35882,35903,35922,35942,35963,35983,36002,36022,36042,36063,36082,36103,36122,36143,36163,36182,36203,36222,36242,36263,36283,36302,36323,36343,36363,36382,36403,36423,36443,36462,36482,36502,36521,36543,36563,36583,36603,36623,36643,36663,36682,36703,36722,36741,36763,36782,36802,36822,36842,36863,36882,36903,36923,36943,36962,36982,37003,37022,37042,37062,37082,37102,37123,37142,37162,37182,37204,37222,37242,37262,37283,37303,37322,37342,37363,37382,37403,37422,37443,37463,37482,37503,37523,37543,37562,37582,37602,37623,37642,37663,37682,37703,37722,37743,37763,37783,37803,37823,37842,37863,37881,37902,37923,37943,37962,37983,38003,38022,38043,38063,38082,38102,38122,38143,38162,38182,38203,38222,38242,38262,38282,38302,38323,38342,38363,38382,38401,38422,38442,38463,38482,38502,38522,38542,38562,38583,38603,38623,38643,38663,38683,38702,38723,38743,38763,38783,38803,38822,38843,38861,38882,38903,38923,38942,38963,38983,39003,39022,39043,39063,39083,39102,39123,39143,39163,39183,39203,39222,39243,39262,39282,39303,39323,39342,39361,39383,39403,39422,39443,39462,39483,39502,39522,39543,39563,39582,39602,39622,39642,39662,39682,39703,39722,39742,39763,39782,39803,39823,39842,39863,39881,39903,39922,39941,39963,39982,40003,40022,40042,40063,40082,40103,40123,40143,40163,40183,40203,40222,40243,40263,40283,40303,40322,40343,40363,40383,40402,40422,40442,40463,40482,40503,40522,40542,40563,40582,40601,40623,40642,40663,40683,40703,40722,40743,40762,40782,40803,40822,40842,40863,40883,40903,40923,40943,40962,40982,41002,41022,41042,41063,41082,41101,41123,41143,41162,41183,41202,41222,41242,41263,41283,41302,41323,41343,41362,41382,41403,41423,41442,41462,41483,41503,41522,41542,41562,41582,41603,41623,41643,41663,41683,41703,41722,41743,41763,41782,41802,41823,41842,41862,41881,41902,41923,41943,41963,41982,42002,42023,42042,42062,42083,42103,42122,42142,42163,42183,42204,42223,42243,42263,42283,42303,42322,42343,42363,42382,42403,42423,42443,42462,42482,42503,42523,42542,42563,42583,42603,42624,42642,42663,42682,42703,42723,42742,42763,42783,42803,42823,42843,42862,42882,42903,42923,42942,42962,42982,43002,43023,43042,43062,43083,43103,43122,43143,43162,43182,43203,43223,43242,43262,43282,43303,43322,43343,43362,43382,43403,43422,43443,43462,43483,43502,43523,43542,43562,43582,43602,43622,43642,43663,43682,43703,43723,43743,43762,43782,43803,43823,43842,43863,43883,43902,43923,43943,43962,43982,44003,44023,44042,44063,44082,44103,44123,44143,44162,44183,44203,44221,44242,44263,44282,44303,44322,44343,44362,44383,44402,44423,44442,44462,44483,44502,44523,44543,44562,44583,44603,44624,44642,44662,44683,44702,44723,44742,44762,44782,44802,44823,44843,44862,44882,44902,44923,44942,44962,44982,45003,45023,45043,45063,45082,45103,45123,45142,45163,45183,45202,45222,45243,45262,45282,45302,45322,45342,45362,45383,45403,45423,45442,45462,45482,45502,45523,45542,45564,45582,45602,45621,45642,45662,45683,45702,45723,45742,45762,45782,45801,45823,45842,45863,45882,45902,45923,45942,45963,45983,46003,46022,46043,46063,46083,46102,46123,46143,46162,46182,46203,46222,46242,46262,46283,46302,46322,46343,46362,46383,46402,46423,46442,46463,46482,46502,46522,46542,46562,46582,46603,46623,46642,46663,46682,46702,46723,46743,46763,46782,46802,46822,46842,46862,46883,46902,46922,46942,46963,46982,47003,47023,47043,47063,47082,47102,47123,47142,47163,47182,47202,47223,47242,47262,47282,47303,47322,47342,47363,47383,47403,47423,47442,47462,47482,47502,47522,47542,47563,47582,47602,47623,47642,47663,47682,47702,47723,47742,47762,47782,47803,47822,47842,47862,47882,47902,47923,47942,47962,47983,48003,48022,48042,48063,48083,48102,48123,48142,48162,48183,48203,48223,48242,48263,48282,48302,48322,48342,48363,48382,48402,48422,48443,48462,48482,48502,48523,48543,48562,48582,48603,48622,48642,48663,48683,48703,48722,48742,48763,48782,48803,48823,48842,48863,48882,48902,48923,48942,48963,48983,49003,49023,49042,49062,49083,49102,49122,49142,49163,49182,49203,49222,49242,49263,49283,49302,49323,49343,49363,49383,49403,49423,49443,49463,49483,49502,49523,49543,49563,49583,49603,49623,49643,49663,49683,49703,49723,49742,49762,49783,49803,49823,49842,49862,49883,49903,49922,49942,49963,49983,50001,50023,50042,50062,50083,50102,50123,50143,50162,50183,50202,50223,50242,50262,50283,50301,50322,50342,50363,50383,50402,50422,50442,50463,50483,50502,50522,50543,50562,50582,50602,50623,50643,50663,50682,50702,50722,50743,50761,50782,50802,50822,50843,50862,50883,50903,50923,50942,50963,50983,51002,51023,51042,51063,51083,51103,51123,51143,51163,51183,51202,51223,51242,51262,51283,51302,51322,51342,51363,51382,51403,51423,51443,51462,51483,51502,51522,51543,51563,51583,51603,51623,51642,51662,51683,51703,51723,51743,51762,51782,51802,51822,51843,51862,51883,51903,51922,51943,51963,51982,52002,52022,52043,52062,52082,52103,52122,52143,52161,52183,52202,52223,52243,52262,52283,52302,52322,52343,52362,52382,52402,52422,52442,52462,52483,52503,52522,52542,52561,52581,52602,52623,52642,52662,52682,52702,52722,52742,52762,52783,52803,52822,52843,52862,52882,52903,52922,52943,52962,52982,53001,53023,53043,53062,53082,53101,53123,53143,53162,53182,53203,53223,53242,53261,53282,53303,53322,53343,53363,53382,53402,53423,53442,53462,53482,53502,53523,53542,53562,53583,53602,53622,53643,53662,53683,53703,53723,53743,53762,53782,53802,53822,53842,53862,53883,53903,53922,53943,53962,53983,54003,54023,54043,54062,54082,54103,54123,54142,54162,54182,54203,54222,54243,54261,54283,54302,54322,54342,54363,54383,54402,54421,54442,54463,54483,54502,54521,54543,54563,54583,54601,54622,54643,54663,54681,54702,54723,54742,54762,54783,54802,54823,54843,54862,54883,54902,54922,54942,54962,54982,55003,55023,55042,55062,55083,55103,55123,55143,55163,55182,55202,55223,55243,55262,55282,55303,55323,55341,55362,55383,55402,55422,55443,55462,55481,55503,55523,55543,55562,55582,55603,55622,55642,55662,55683,55701,55723,55743,55762,55782,55801,55822,55841,55862,55883,55903,55923,55942,55962,55982,56002,56022,56043,56062,56083,56103,56123,56143,56163,56182,56203,56223,56243,56263,56281,56303,56323,56343,56362,56382,56403,56423,56443,56462,56482,56502,56523,56542,56562,56581,56603,56623,56643,56662,56682,56703,56723,56742,56762,56782,56803,56822,56842,56862,56882,56903,56922,56943,56962,56983,57002,57023,57043,57062,57083,57102,57123,57142,57162,57182,57202,57222,57242,57262,57283,57302,57322,57342,57363,57382,57402,57422,57443,57462,57482,57503,57522,57543,57562,57582,57603,57622,57643,57662,57683,57702,57723,57743,57762,57782,57802,57823,57842,57862,57883,57903,57922,57942,57962,57983,58002,58023,58043,58062,58083,58103,58123,58142,58162,58182,58202,58223,58243,58262,58282,58303,58323,58341,58362,58382,58403,58422,58443,58463,58482,58502,58523,58542,58561,58583,58603,58623,58643,58662,58683,58703,58722,58742,58763,58783,58803,58823,58843,58862,58883,58903,58923,58943,58962,58983,59003,59023,59043,59062,59083,59103,59123,59143,59162,59182,59203,59222,59243,59262,59283,59303,59323,59341,59363,59383,59402,59423,59443,59463,59482,59502,59522,59543,59562,59582,59602,59623,59643,59662,59683,59702,59723,59743,59763,59783,59802,59823,59842,59862,59883,59902,59922,59942,59962,59982,60002,60021,60042,60063,60083,60102,60123,60143,60162,60183,60204,60222,60242,60262,60283,60302,60323,60343,60363,60381,60402,60421,60442,60462,60483,60503,60523,60542,60563,60583,60602,60621,60642,60662,60682,60702,60722,60742,60762,60782,60802,60822,60842,60862,60882,60902,60923,60943,60962,60983,61003,61022,61042,61063,61082,61102,61121,61143,61163,61182,61203,61223,61242,61263,61282,61303,61323,61343,61363,61382,61402,61423,61442,61462,61482,61503,61523,61542,61562,61582,61603,61622,61642,61663,61682,61703,61723,61743,61763,61782,61802,61823,61843,61862,61882,61903,61923,61943,61962,61983,62003,62021,62043,62063,62082,62102,62123,62143,62162,62183,62204,62223,62242,62263,62282,62303,62322,62342,62362,62382,62402,62423,62442,62462,62483,62503,62522,62542,62562,62582,62602,62622,62643,62662,62683,62702,62723,62742,62763,62782,62802,62823,62843,62863,62882,62902,62923,62943,62962,62982,63002,63023,63043,63062,63082,63103,63122,63143,63163,63182,63203,63223,63243,63263,63282,63303,63322,63343,63363,63383,63403,63423,63443,63462,63482,63501,63523,63543,63563,63582,63603,63622,63643,63663,63681,63703,63723,63741,63762,63782,63803,63822,63841,63863,63883,63902,63921,63943,63963,63983,64003,64023,64042,64063,64082,64102,64122,64141,64162,64183,64202,64222,64242,64263,64281,64302,64322,64343,64363,64382,64402,64422,64442,64463,64482,64503,64523,64543,64563,64583,64602,64622,64643,64662,64682,64703,64722,64742,64762,64782,64803,64822,64843,64863,64882,64902,64921,64942,64963,64982,65003,65023,65042,65063,65082,65103,65122,65143,65163,65182,65202,65221,65243,65262,65282,65303,65323,65343,65362,65382,65402,65423,65442,65461,65482,65503,65523,65543,65563,65582,65603,65622,65643,65663,65682,65702,65721,65742,65762,65782,65802,65823,65842,65863,65882,65902,65923,65943,65963,65981,66003,66022,66042,66062,66082,66102,66123,66143,66162,66182,66203,66222,66242,66262,66282,66303,66322,66343,66362,66382,66402,66423,66442,66462,66482,66502,66523,66542,66562,66582,66602,66623,66641,66663,66682,66703,66722,66742,66763,66782,66802,66822,66842,66862,66882,66902,66922,66943,66962,66982,67002,67023,67042,67062,67083,67102,67123,67142,67163,67182,67203,67223,67241,67263,67282,67302,67322,67342,67363,67382,67403,67423,67443,67462,67482,67503,67523,67542,67562,67581,67603,67623,67642,67662,67682,67703,67723,67743,67762,67783,67802,67822,67843,67862,67882,67903,67922,67943,67963,67983,68003,68022,68042,68062,68083,68103,68122,68142,68162,68181,68202,68222,68242,68262,68283,68303,68322,68343,68363,68383,68402,68422,68443,68463,68483,68503,68523,68543,68563,68583,68602,68623,68643,68663,68682,68703,68723,68743,68763,68783,68802,68831,68843,68861,68883,68903,68921,68943,68962,68983,69002,69023,69043,69063,69083,69102,69123,69143,69162,69181,69202,69222,69243,69262,69281,69302,69323,69343,69362,69381,69402,69423,69442,69462,69483,69502,69522,69543,69562,69583,69601,69623,69643,69663,69682,69702,69722,69743,69762,69783,69803,69822,69841,69863,69883,69903,69923,69943,69962,69983,70002,70022,70043,70063,70082,70103,70123,70143,70163,70182,70202,70222,70242,70262,70282,70302,70323,70341,70363,70383,70402,70422,70443,70462,70481,70502,70522,70542,70563,70581,70602,70623,70643,70662,70682,70703,70723,70742,70763,70782,70803,70822,70842,70862,70883,70903,70922,70943,70963,70982,71003,71022,71042,71062,71082,71102,71123,71142,71163,71181,71202,71223,71243,71262,71283,71301,71322,71342,71362,71382,71401,71422,71443,71463,71483],"xSR":741.5,"ySR":573.95,"xT1":424.9,"yT1":0,"xT2":1058.1,"yT2":0,"toosoon":0,"cond_shown":"Congruent","ratio_trial":100,"L_num":2,"L_den":5,"R_num":6,"R_den":12,"correct_side":2,"subjID":"Sarasofiabohorquezbulla31","gender":"1","school":"4","age":"8"},{"start_time":1552069055813,"click_time":1552069058672,"finger_time":1552069058151,"fix_duration":1061.2664836149936,"trial":2,"RT":2338,"MT":521,"sideResp":2,"stimulus":[],"xmouse":[787,787,787,787,787,787,787,787,787,787,787,787,787,787,787,787,787,787,787,787,787,787,787,787,787,787,787,787,787,787,787,787,787,787,787,787,787,787,787,787,787,787,787,787,787,787,787,787,787,787,787,787,787,787,787,787,787,787,787,787,787,787,787,787,787,787,787,787,787,787,787,787,787,787,787,787,787,787,787,787,787,787,787,787,787,787,787,787,787,787,787,787,787,787,787,787,787,787,787,787,787,787,787,787,787,787,787,787,787,787,787,787,787,787,786,786,845,916,986,1025,1042,1045,1046,1047,1049,1049,1050,1050,1046,1042,1042,1042,1042,1043,1046,1051,1053,1058,1066,1074,1080,1083,1088],"ymouse":[595,595,595,595,595,595,595,595,595,595,595,595,595,595,595,595,595,595,595,595,595,595,595,595,595,595,595,595,595,595,595,595,595,595,595,595,595,595,595,595,595,595,595,595,595,595,595,595,595,595,595,595,595,595,595,595,595,595,595,595,595,595,595,595,595,595,595,595,595,595,595,595,595,595,595,595,595,595,595,595,595,595,595,595,595,595,595,595,595,595,595,595,595,595,595,595,595,595,595,595,595,595,595,595,595,595,595,595,595,595,595,595,595,595,593,591,576,564,556,547,539,534,530,520,503,494,468,453,433,416,400,373,360,343,324,289,244,215,186,158,136,121,90],"timestamp_mouse":[18,46,58,79,98,118,138,159,179,198,219,237,258,278,299,318,337,358,379,398,419,438,458,479,498,519,538,558,579,599,619,637,658,679,699,718,738,758,778,798,819,838,858,879,898,918,938,959,977,999,1018,1038,1058,1078,1099,1119,1138,1157,1179,1198,1218,1238,1258,1279,1298,1318,1338,1358,1378,1399,1418,1438,1457,1479,1499,1519,1538,1558,1579,1598,1619,1638,1658,1679,1698,1719,1738,1757,1779,1799,1818,1838,1859,1879,1897,1919,1938,1958,1978,1999,2018,2039,2059,2077,2099,2118,2138,2158,2179,2198,2218,2238,2258,2278,2299,2319,2338,2358,2378,2398,2418,2438,2457,2478,2498,2519,2538,2558,2579,2598,2619,2639,2658,2678,2699,2719,2738,2758,2778,2798,2819,2839,2859],"xSR":741.5,"ySR":573.95,"xT1":424.9,"yT1":0,"xT2":1058.1,"yT2":0,"toosoon":0,"cond_shown":"Incongruent","ratio_trial":300,"L_num":1,"L_den":2,"R_num":3,"R_den":15,"correct_side":1,"subjID":"Sarasofiabohorquezbulla31","gender":"1","school":"4","age":"8"},{"start_time":1552069150805,"click_time":1552069158972,"finger_time":1552069158270,"fix_duration":250,"trial":3,"RT":7465,"MT":702,"sideResp":2,"stimulus":[],"xmouse":[789,789,789,788,788,788,788,788,788,788,788,788,788,788,788,788,788,788,788,788,788,788,788,788,788,788,788,788,788,788,788,788,788,788,788,788,788,788,788,788,788,788,788,788,788,788,788,788,788,788,788,788,788,788,788,788,788,788,788,788,788,788,788,788,788,788,788,788,788,788,788,788,788,788,788,788,788,788,788,788,788,788,788,788,788,788,788,788,788,788,788,788,788,788,788,788,788,788,788,788,788,788,788,788,788,788,788,788,788,788,788,788,788,788,788,788,788,788,788,788,788,788,788,788,788,788,788,788,788,788,788,788,788,788,788,788,788,788,788,788,788,788,788,788,788,788,788,788,788,788,788,788,788,788,788,788,788,788,788,788,788,788,788,788,788,788,788,788,788,788,788,788,788,788,788,788,788,788,788,788,788,788,788,788,788,788,788,788,788,788,788,788,788,788,788,788,788,788,788,788,788,788,788,788,788,788,788,788,788,788,788,788,788,788,788,788,788,788,788,788,788,788,788,788,788,788,788,788,788,788,788,788,788,788,788,788,788,788,788,788,788,788,788,788,788,788,788,788,788,788,788,788,788,788,788,788,788,788,788,788,788,788,788,788,788,788,788,788,788,788,788,788,788,788,788,788,788,788,788,788,788,788,788,788,788,788,788,788,788,788,788,788,788,788,788,788,788,788,788,788,788,788,788,788,788,788,788,788,788,788,788,788,788,788,788,788,788,788,788,788,788,788,788,788,788,788,788,788,788,788,788,788,788,788,788,788,788,788,788,788,788,788,788,788,788,788,788,788,788,788,788,788,788,788,788,788,788,788,788,788,788,788,788,788,788,788,788,786,785,789,791,799,810,823,858,874,889,901,914,927,937,947,955,959,958,955,952,952,953,965,971,977,985,995,1014,1016,1017,1017,1017,1018,1019,1021,1024,1025,1028,1029,1032,1042,1061],"ymouse":[614,614,614,614,614,614,614,614,614,614,614,614,614,614,614,614,614,614,614,614,614,614,614,614,614,614,614,614,614,614,614,614,614,614,614,614,614,614,614,614,614,614,614,614,614,614,614,614,614,614,614,614,614,614,614,614,614,614,614,614,614,614,614,614,614,614,614,614,614,614,614,614,614,614,614,614,614,614,614,614,614,614,614,614,614,614,614,614,614,614,614,614,614,614,614,614,614,614,614,614,614,614,614,614,614,614,614,614,614,614,614,614,614,614,614,614,614,614,614,614,614,614,614,614,614,614,614,614,614,614,614,614,614,614,614,614,614,614,614,614,614,614,614,614,614,614,614,614,614,614,614,614,614,614,614,614,614,614,614,614,614,614,614,614,614,614,614,614,614,614,614,614,614,614,614,614,614,614,614,614,614,614,614,614,614,614,614,614,614,614,614,614,614,614,614,614,614,614,614,614,614,614,614,614,614,614,614,614,614,614,614,614,614,614,614,614,614,614,614,614,614,614,614,614,614,614,614,614,614,614,614,614,614,614,614,614,614,614,614,614,614,614,614,614,614,614,614,614,614,614,614,614,614,614,614,614,614,614,614,614,614,614,614,614,614,614,614,614,614,614,614,614,614,614,614,614,614,614,614,614,614,614,614,614,614,614,614,614,614,614,614,614,614,614,614,614,614,614,614,614,614,614,614,614,614,614,614,614,614,614,614,614,614,614,614,614,614,614,614,614,614,614,614,614,614,614,614,614,614,614,614,614,614,614,614,614,614,614,614,614,614,614,614,614,614,614,614,614,614,614,614,614,614,614,614,614,614,614,614,614,614,614,614,614,614,614,611,605,592,585,584,581,577,573,558,544,532,520,498,388,312,244,187,146,95,68,45,31,24,16,16,16,17,20,27,28,29,29,29,29,30,31,33,33,34,35,35,38,41],"timestamp_mouse":[13,37,45,66,86,105,126,147,165,186,205,227,245,267,285,306,326,345,365,387,407,427,446,466,487,507,526,547,567,586,606,627,646,665,685,706,727,746,765,785,806,827,845,865,886,907,925,946,965,985,1007,1027,1046,1066,1086,1107,1126,1146,1165,1187,1206,1227,1247,1266,1287,1305,1326,1346,1366,1386,1405,1426,1447,1466,1486,1507,1526,1546,1566,1587,1607,1626,1645,1665,1685,1706,1727,1747,1766,1785,1805,1827,1847,1866,1886,1907,1926,1946,1965,1986,2006,2027,2046,2066,2086,2106,2127,2146,2166,2186,2206,2226,2246,2266,2287,2306,2326,2347,2366,2387,2406,2425,2445,2466,2487,2506,2526,2547,2566,2585,2607,2625,2647,2666,2686,2705,2727,2747,2766,2786,2805,2826,2845,2866,2887,2906,2927,2946,2965,2987,3007,3026,3045,3065,3086,3107,3126,3146,3166,3187,3205,3226,3245,3266,3287,3307,3327,3346,3366,3387,3405,3426,3447,3466,3486,3506,3527,3546,3566,3585,3606,3625,3647,3667,3686,3706,3725,3747,3766,3787,3806,3826,3845,3865,3887,3907,3926,3946,3967,3986,4005,4026,4046,4067,4085,4106,4126,4146,4165,4186,4207,4227,4247,4267,4287,4307,4326,4346,4367,4387,4406,4427,4446,4466,4485,4507,4526,4547,4567,4587,4606,4627,4646,4667,4685,4706,4725,4747,4766,4785,4806,4825,4847,4865,4885,4906,4927,4945,4967,4985,5007,5026,5046,5065,5087,5107,5127,5146,5165,5185,5206,5226,5245,5267,5285,5305,5327,5347,5367,5385,5405,5427,5445,5466,5486,5506,5526,5546,5565,5585,5605,5627,5646,5667,5687,5707,5725,5747,5767,5786,5805,5827,5847,5866,5885,5907,5927,5946,5965,5986,6007,6026,6047,6065,6087,6106,6127,6146,6166,6185,6207,6227,6246,6266,6286,6307,6327,6346,6367,6387,6405,6425,6446,6466,6486,6507,6527,6546,6566,6585,6606,6626,6645,6667,6686,6706,6727,6747,6767,6786,6806,6826,6846,6866,6886,6906,6926,6947,6967,6986,7007,7027,7047,7066,7086,7107,7125,7146,7167,7186,7206,7227,7246,7266,7285,7307,7326,7346,7366,7386,7407,7426,7446,7465,7485,7506,7525,7546,7565,7585,7607,7625,7646,7666,7685,7705,7726,7747,7767,7786,7806,7826,7846,7867,7885,7905,7926,7947,7966,7986,8007,8026,8046,8065,8085,8107,8125,8146,8167],"xSR":741.5,"ySR":573.95,"xT1":424.9,"yT1":0,"xT2":1058.1,"yT2":0,"toosoon":0,"cond_shown":"Incongruent","ratio_trial":300,"L_num":13,"L_den":26,"R_num":12,"R_den":15,"correct_side":2,"subjID":"Sarasofiabohorquezbulla31","gender":"1","school":"4","age":"8"},{"start_time":1552069162282,"click_time":1552069170950,"finger_time":1552069169971,"fix_duration":589.175962439154,"trial":4,"RT":7689,"MT":979,"sideResp":2,"stimulus":[],"xmouse":[788,789,789,790,791,791,791,791,791,791,791,791,791,791,791,792,792,792,792,792,792,792,792,792,792,792,792,792,792,792,792,792,792,792,792,792,792,792,792,792,792,792,792,792,792,792,792,792,792,792,792,792,792,792,792,792,792,792,792,792,792,792,792,792,792,792,792,792,792,792,792,792,792,792,792,792,792,792,792,792,792,792,792,792,792,792,792,792,792,792,792,792,792,792,792,792,792,792,792,792,792,792,792,792,792,792,792,792,792,792,792,792,792,792,792,792,792,792,792,792,792,792,792,792,792,792,792,792,792,792,792,792,792,792,792,792,792,792,792,792,792,792,792,792,792,792,792,792,792,792,792,792,792,792,792,792,792,792,792,792,792,792,792,792,792,792,792,792,792,792,792,792,792,792,792,792,792,792,792,792,792,792,792,792,792,792,792,792,792,792,792,792,792,792,792,792,792,792,792,792,792,792,792,792,792,792,792,792,792,792,792,792,792,792,792,792,792,792,792,792,792,792,792,792,792,792,792,792,792,792,792,792,792,792,792,792,792,792,792,792,792,792,792,792,792,792,792,792,792,792,792,792,792,792,792,792,792,792,792,792,792,792,792,792,792,792,792,792,792,792,792,792,792,792,792,792,792,792,792,792,792,792,792,792,792,792,792,792,792,792,792,792,792,792,792,792,792,792,792,792,792,792,792,792,792,792,792,792,792,792,792,792,792,792,792,792,792,792,792,792,792,792,792,792,792,792,792,792,792,792,792,792,792,792,792,792,792,792,792,792,792,792,792,792,792,792,792,792,792,792,792,792,792,792,792,792,792,792,792,792,792,792,792,792,792,792,792,792,792,792,792,792,792,792,792,792,792,792,792,792,792,793,809,832,855,871,880,883,886,890,892,910,918,925,930,934,943,947,952,956,958,958,958,958,958,958,962,967,974,984,1005,1038,1047,1055,1058,1060,1065,1067,1069,1071,1071,1072,1072,1073,1074,1076,1078,1087,1092,1094,1095,1098,1099,1101],"ymouse":[644,644,644,644,644,644,644,644,644,644,644,644,644,644,644,644,644,644,644,644,644,644,644,644,644,644,644,644,644,644,644,644,644,644,644,644,644,644,644,644,644,644,644,644,644,644,644,644,644,644,644,644,644,644,644,644,644,644,644,644,644,644,644,644,644,644,644,644,644,644,644,644,644,644,644,644,644,644,644,644,644,644,644,644,644,644,644,644,644,644,644,644,644,644,644,644,644,644,644,644,644,644,644,644,644,644,644,644,644,644,644,644,644,644,644,644,644,644,644,644,644,644,644,644,644,644,644,644,644,644,644,644,644,644,644,644,644,644,644,644,644,644,644,644,644,644,644,644,644,644,644,644,644,644,644,644,644,644,644,644,644,644,644,644,644,644,644,644,644,644,644,644,644,644,644,644,644,644,644,644,644,644,644,644,644,644,644,644,644,644,644,644,644,644,644,644,644,644,644,644,644,644,644,644,644,644,644,644,644,644,644,644,644,644,644,644,644,644,644,644,644,644,644,644,644,644,644,644,644,644,644,644,644,644,644,644,644,644,644,644,644,644,644,644,644,644,644,644,644,644,644,644,644,644,644,644,644,644,644,644,644,644,644,644,644,644,644,644,644,644,644,644,644,644,644,644,644,644,644,644,644,644,644,644,644,644,644,644,644,644,644,644,644,644,644,644,644,644,644,644,644,644,644,644,644,644,644,644,644,644,644,644,644,644,644,644,644,644,644,644,644,644,644,644,644,644,644,644,644,644,644,644,644,644,644,644,644,644,644,644,644,644,644,644,644,644,644,644,644,644,644,644,644,644,644,644,644,644,644,644,644,644,644,644,644,644,644,644,644,644,644,644,644,644,644,644,644,644,644,644,644,644,643,638,631,627,623,620,617,613,610,588,575,563,553,541,518,508,493,484,478,476,475,475,474,473,462,444,424,397,345,269,249,234,227,221,211,208,205,202,200,197,193,187,182,176,167,146,131,124,117,106,103,99],"timestamp_mouse":[13,44,49,68,89,109,129,148,169,189,209,228,248,268,289,309,329,348,369,388,410,430,448,469,488,509,528,549,568,589,610,630,649,668,689,710,730,748,768,789,810,830,848,869,888,909,930,949,968,989,1009,1028,1048,1069,1089,1108,1129,1150,1169,1188,1209,1228,1248,1268,1288,1308,1329,1348,1370,1390,1410,1430,1449,1469,1489,1510,1529,1550,1570,1589,1609,1630,1650,1669,1689,1710,1730,1748,1770,1788,1808,1828,1849,1869,1888,1908,1928,1949,1970,1990,2010,2030,2049,2068,2089,2108,2128,2149,2170,2188,2208,2228,2248,2268,2289,2309,2330,2349,2369,2390,2410,2430,2448,2469,2488,2509,2529,2550,2570,2590,2608,2628,2649,2669,2689,2708,2728,2749,2769,2790,2809,2830,2848,2870,2888,2908,2928,2950,2970,2988,3010,3030,3050,3069,3089,3108,3128,3150,3168,3189,3209,3230,3249,3268,3288,3308,3329,3350,3368,3389,3409,3429,3450,3468,3490,3510,3529,3550,3568,3589,3610,3628,3648,3670,3689,3710,3730,3748,3770,3789,3808,3829,3849,3869,3890,3908,3928,3948,3970,3990,4008,4029,4050,4070,4089,4108,4129,4149,4170,4190,4209,4229,4249,4268,4288,4310,4329,4349,4369,4388,4410,4429,4448,4470,4490,4508,4528,4549,4569,4590,4610,4628,4649,4668,4688,4709,4729,4750,4770,4790,4810,4828,4848,4869,4889,4909,4929,4948,4969,4989,5008,5030,5048,5069,5090,5108,5130,5150,5168,5189,5209,5230,5249,5269,5289,5310,5329,5349,5369,5392,5408,5428,5448,5469,5490,5508,5528,5548,5570,5589,5609,5628,5649,5670,5689,5710,5729,5749,5770,5790,5809,5828,5848,5869,5889,5908,5930,5950,5968,5988,6009,6029,6050,6070,6090,6108,6129,6149,6169,6188,6210,6229,6249,6269,6288,6308,6328,6350,6368,6388,6409,6428,6449,6469,6490,6508,6528,6549,6568,6590,6609,6629,6650,6669,6688,6709,6728,6749,6769,6789,6810,6828,6848,6869,6890,6909,6929,6948,6970,6988,7009,7029,7050,7070,7090,7110,7128,7149,7170,7188,7209,7229,7249,7268,7289,7308,7329,7349,7369,7389,7410,7429,7448,7469,7488,7509,7528,7549,7570,7589,7609,7629,7648,7668,7689,7709,7729,7748,7769,7790,7810,7828,7849,7869,7889,7909,7928,7950,7969,7988,8009,8029,8049,8070,8089,8108,8129,8148,8168,8188,8208,8228,8249,8268,8288,8309,8328,8349,8369,8388,8408,8428,8450,8469,8490,8510,8529,8548,8570,8590,8609,8628,8649,8668],"xSR":741.5,"ySR":573.95,"xT1":424.9,"yT1":0,"xT2":1058.1,"yT2":0,"toosoon":0,"cond_shown":"Congruent","ratio_trial":300,"L_num":1,"L_den":5,"R_num":3,"R_den":6,"correct_side":2,"subjID":"Sarasofiabohorquezbulla31","gender":"1","school":"4","age":"8"},{"start_time":1552069172884,"click_time":1552069176872,"finger_time":1552069176372,"fix_duration":250,"trial":5,"RT":3488,"MT":500,"sideResp":1,"stimulus":[],"xmouse":[779,779,779,779,779,779,779,779,779,779,779,779,779,779,779,779,779,779,779,779,779,778,778,778,778,778,778,778,778,778,778,778,778,778,778,778,778,778,778,778,778,778,778,778,778,778,778,778,778,778,778,778,778,778,778,778,778,778,778,778,778,778,778,778,778,778,778,778,778,778,778,778,778,778,778,778,778,778,778,778,778,778,778,778,778,778,778,778,778,778,778,778,778,778,778,778,778,778,778,778,778,778,778,778,778,778,778,778,778,778,778,778,778,778,778,778,778,778,778,778,778,778,778,778,778,778,778,778,778,778,778,778,778,778,778,778,778,778,778,778,778,778,778,778,778,778,778,778,778,778,778,778,778,778,778,778,778,778,778,778,778,778,778,778,778,778,778,778,778,778,778,777,763,748,727,696,665,635,635,635,635,635,632,628,624,620,617,611,606,601,595,593,584,583,581,580,577,557,541,524],"ymouse":[618,618,618,618,618,618,618,618,618,618,618,618,618,618,618,618,618,618,618,618,618,619,619,619,619,619,619,619,619,619,619,619,619,619,619,619,619,619,619,619,619,619,619,619,619,619,619,619,619,619,619,619,619,619,619,619,619,619,619,619,619,619,619,619,619,619,619,619,619,619,619,619,619,619,619,619,619,619,619,619,619,619,619,619,619,619,619,619,619,619,619,619,619,619,619,619,619,619,619,619,619,619,619,619,619,619,619,619,619,619,619,619,619,619,619,619,619,619,619,619,619,619,619,619,619,619,619,619,619,619,619,619,619,619,619,619,619,619,619,619,619,619,619,619,619,619,619,619,619,619,619,619,619,619,619,619,619,619,619,619,619,619,619,619,619,619,619,619,619,619,619,619,607,588,564,524,484,422,407,398,391,385,364,350,334,319,292,245,222,199,182,170,153,148,145,143,137,110,97,84],"timestamp_mouse":[14,26,47,66,87,108,126,147,168,187,207,226,246,267,286,307,326,347,366,387,407,427,448,467,486,506,527,548,566,586,606,628,647,666,688,707,728,746,767,786,807,827,848,867,888,907,926,948,967,986,1007,1026,1047,1068,1086,1106,1127,1146,1167,1188,1207,1227,1246,1268,1288,1308,1327,1347,1368,1387,1407,1427,1447,1466,1487,1507,1528,1547,1567,1588,1606,1627,1648,1667,1686,1706,1727,1748,1766,1787,1807,1827,1847,1868,1887,1908,1928,1946,1967,1988,2008,2026,2047,2066,2086,2108,2126,2146,2168,2188,2207,2228,2246,2267,2288,2306,2326,2347,2367,2387,2406,2427,2447,2468,2488,2508,2527,2547,2567,2587,2607,2627,2646,2667,2688,2707,2727,2747,2767,2788,2807,2826,2846,2867,2888,2906,2927,2947,2966,2986,3008,3028,3046,3067,3088,3106,3127,3148,3166,3187,3208,3226,3247,3267,3286,3306,3327,3348,3366,3386,3407,3427,3447,3467,3488,3506,3527,3546,3568,3586,3606,3627,3647,3668,3686,3706,3727,3746,3767,3786,3806,3828,3848,3866,3886,3906,3927,3947,3966,3987],"xSR":741.5,"ySR":573.95,"xT1":424.9,"yT1":0,"xT2":1058.1,"yT2":0,"toosoon":0,"cond_shown":"Congruent","ratio_trial":300,"L_num":11,"L_den":22,"R_num":4,"R_den":20,"correct_side":1,"subjID":"Sarasofiabohorquezbulla31","gender":"1","school":"4","age":"8"},{"start_time":1552069179829,"click_time":1552069182431,"finger_time":1552069181570,"fix_duration":1155.0739141299673,"trial":6,"RT":1741,"MT":861,"sideResp":2,"stimulus":[],"xmouse":[783,783,783,783,783,783,783,783,783,783,783,783,783,783,783,783,783,783,783,783,783,783,783,783,783,783,783,783,783,783,783,783,783,783,783,783,783,783,783,783,783,783,783,783,783,783,783,783,783,783,783,783,783,783,783,783,783,783,783,783,783,783,783,783,783,783,783,783,783,783,783,783,783,783,783,783,783,783,783,783,783,783,783,783,783,790,872,986,1085,1206,1270,1346,1408,1419,1443,1445,1438,1412,1400,1390,1387,1383,1378,1372,1363,1348,1341,1326,1315,1302,1297,1292,1288,1287,1282,1279,1278,1277,1269,1260,1244,1236,1229,1222,1218,1205,1194,1178,1165,1155],"ymouse":[647,647,647,647,647,647,647,647,647,647,647,647,647,647,647,647,647,647,647,647,647,647,647,647,647,647,647,647,647,647,647,647,647,647,647,647,647,647,647,647,647,647,647,647,647,647,647,647,647,647,647,647,647,647,647,647,647,647,647,647,647,647,647,647,647,647,647,647,647,647,647,647,647,647,647,647,647,647,647,647,647,647,647,647,647,646,668,684,691,696,694,672,645,618,506,462,427,384,364,318,292,271,256,242,231,224,222,219,217,213,210,206,200,195,180,173,172,170,156,143,113,97,86,77,74,69,65,62,61,59],"timestamp_mouse":[21,43,61,83,102,121,142,162,183,202,223,243,262,281,302,323,342,362,381,402,422,441,463,483,502,523,541,563,583,602,622,641,662,683,701,722,741,762,783,802,822,842,862,882,901,923,943,963,983,1002,1022,1043,1063,1081,1102,1123,1142,1161,1182,1201,1223,1243,1262,1283,1303,1323,1341,1362,1383,1401,1421,1441,1462,1482,1503,1523,1542,1561,1582,1603,1623,1642,1662,1682,1703,1723,1741,1761,1781,1802,1822,1842,1863,1883,1903,1921,1942,1962,1981,2003,2021,2042,2061,2082,2102,2121,2142,2162,2181,2203,2221,2242,2261,2281,2303,2322,2342,2362,2383,2402,2422,2442,2463,2483,2503,2523,2542,2563,2583,2602],"xSR":741.5,"ySR":573.95,"xT1":424.9,"yT1":0,"xT2":1058.1,"yT2":0,"toosoon":0,"cond_shown":"Incongruent","ratio_trial":200,"L_num":11,"L_den":20,"R_num":3,"R_den":4,"correct_side":2,"subjID":"Sarasofiabohorquezbulla31","gender":"1","school":"4","age":"8"},{"start_time":1552069184177,"click_time":1552069185950,"finger_time":1552069185670,"fix_duration":383.6370046281144,"trial":7,"RT":1493,"MT":280,"sideResp":1,"stimulus":[],"xmouse":[795,795,795,795,795,795,795,795,795,795,795,795,795,795,795,795,795,795,795,795,795,795,795,795,795,795,795,795,795,795,795,795,795,795,795,795,795,795,795,795,795,795,795,795,795,795,795,795,795,795,795,795,795,795,795,795,795,795,795,795,795,795,795,795,795,795,795,795,795,795,795,795,793,783,775,767,764,757,739,716,681,642,604,584,558,552,547,538,509],"ymouse":[626,626,626,626,626,626,626,626,626,626,626,626,626,626,626,626,626,626,626,626,626,626,626,626,626,626,626,626,626,626,626,626,626,626,626,626,626,626,626,626,626,626,626,626,626,626,626,626,626,626,626,626,626,626,626,626,626,626,626,626,626,626,626,626,626,626,626,626,626,626,626,626,621,592,573,556,540,514,461,416,367,319,273,239,178,156,139,115,83],"timestamp_mouse":[15,35,54,74,93,113,134,154,174,194,213,235,253,273,295,313,334,354,373,394,413,435,454,474,493,514,535,554,573,594,614,634,655,673,694,715,734,754,774,795,815,834,854,874,894,913,933,955,975,993,1013,1033,1053,1075,1094,1113,1133,1154,1175,1194,1214,1233,1255,1274,1295,1314,1333,1354,1375,1394,1415,1434,1454,1474,1493,1514,1533,1553,1573,1593,1614,1635,1653,1673,1693,1714,1734,1755,1773],"xSR":741.5,"ySR":573.95,"xT1":424.9,"yT1":0,"xT2":1058.1,"yT2":0,"toosoon":0,"cond_shown":"Incongruent","ratio_trial":200,"L_num":4,"L_den":5,"R_num":6,"R_den":10,"correct_side":1,"subjID":"Sarasofiabohorquezbulla31","gender":"1","school":"4","age":"8"},{"start_time":1552069188332,"click_time":1552069190851,"finger_time":1552069190491,"fix_duration":1398.9925533078415,"trial":8,"RT":2159,"MT":360,"sideResp":1,"stimulus":[],"xmouse":[790,790,790,790,790,790,790,790,790,790,790,790,790,790,790,790,790,790,790,790,790,790,790,790,790,790,790,790,790,790,790,790,790,790,790,790,790,790,790,790,790,790,790,790,790,790,790,790,790,790,790,790,790,790,790,790,790,790,790,790,790,790,790,790,790,790,790,790,790,790,790,790,790,790,790,790,790,790,790,790,790,790,790,790,790,790,790,790,790,790,790,790,790,790,790,790,790,790,790,790,790,790,790,790,790,788,784,755,717,677,652,651,651,651,650,626,604,575,546,537,534,533,533,531,528,516],"ymouse":[631,631,631,631,631,631,631,631,631,631,631,631,631,631,631,631,631,631,631,631,631,631,631,