[{"start_time":1552308599414,"click_time":1552308602462,"finger_time":1552308599424,"fix_duration":486.3749850717499,"trial":0,"RT":10,"MT":3038,"sideResp":1,"stimulus":[],"xmouse":[812,812,812,812,812,812,812,812,812,812,812,812,809,805,795,769,758,750,743,738,730,730,730,730,730,730,730,730,730,730,730,730,730,730,730,730,730,730,730,730,730,730,730,730,730,730,730,730,730,730,730,730,730,730,730,730,730,730,730,730,730,730,730,730,730,730,730,730,730,730,730,730,730,730,730,730,730,730,730,730,730,730,730,730,730,730,730,730,730,730,730,730,730,730,730,730,730,730,730,730,730,730,730,730,730,730,730,730,730,730,730,730,730,730,730,730,730,730,730,730,730,730,730,730,730,730,730,730,730,730,730,730,730,730,730,730,730,730,730,730,730,759,771,771,764,748,686,652,627,590,568,537,524],"ymouse":[553,553,553,553,553,553,553,553,553,553,553,553,547,536,519,486,470,457,445,434,424,424,424,424,424,424,424,424,424,424,424,424,424,424,424,424,424,424,424,424,424,424,424,424,424,423,423,423,423,423,423,423,423,423,423,423,423,423,423,423,423,423,423,423,423,423,423,423,423,423,423,423,423,423,423,423,423,423,423,423,423,423,423,423,423,423,423,423,423,423,423,423,423,423,423,423,423,423,423,423,423,423,423,423,423,423,423,423,423,423,423,423,423,423,423,423,423,423,423,423,423,423,423,423,423,423,423,423,423,423,423,423,423,423,423,423,423,423,423,419,383,226,212,205,200,193,155,132,114,90,83,80,83],"timestamp_mouse":[10,29,48,69,89,110,129,150,169,189,209,228,249,270,289,309,329,350,369,389,409,428,449,469,489,509,530,549,569,588,608,628,649,668,688,709,729,749,769,789,809,829,849,869,889,909,928,950,969,990,1009,1028,1049,1069,1089,1108,1130,1150,1169,1188,1209,1229,1249,1270,1290,1310,1329,1350,1369,1388,1409,1429,1450,1469,1489,1510,1528,1549,1569,1589,1610,1630,1649,1668,1690,1709,1729,1749,1768,1790,1809,1828,1850,1870,1888,1908,1929,1948,1969,1990,2010,2028,2049,2070,2089,2109,2130,2148,2170,2190,2209,2229,2248,2270,2290,2309,2329,2349,2370,2390,2409,2429,2450,2470,2489,2509,2529,2549,2570,2589,2610,2628,2648,2668,2689,2708,2730,2749,2768,2788,2809,2829,2849,2869,2889,2909,2928,2948,2969,2990,3009,3029,3048],"xSR":741.5,"ySR":501.8,"xT1":424.9,"yT1":0,"xT2":1058.1,"yT2":0,"toosoon":0,"cond_shown":"Congruent","ratio_trial":100,"L_num":7,"L_den":14,"R_num":15,"R_den":25,"correct_side":2,"subjID":"SaritaPulidoBonilla28","gender":"saritapulidobonilla","age":"No_age","school":"9","test":{"fix_dur":[250,1500],"timestim":1000,"targets_dim":[100,100],"targets_relative_coord":[0.3,0.7],"size_stim":[880,420],"start_dim":[100,100],"size_start":[300,300],"size_fix":60,"samplingrate":20,"img_types":["Congruent","Incongruent"],"ratios":[100,200,300],"rep_conds":19,"nTrials":120,"trials_to_rest":500,"Trials_order":[72,15,81,117,91,23,99,8,85,43,57,11,22,66,87,48,60,68,116,109,101,98,105,62,2,35,102,77,90,26,52,59,6,94,56,41,42,34,88,1,114,65,115,55,28,30,47,79,19,112,49,108,3,74,86,10,9,83,38,100,51,32,58,27,93,45,82,64,119,18,73,46,4,75,103,44,40,71,118,12,53,0,106,29,80,97,67,54,20,39,63,89,14,24,111,113,84,104,110,76,25,21,36,69,50,33,7,95,61,31,17,37,92,78,70,96,13,5,16,107],"cond_shown":["Congruent","Incongruent","Incongruent","Incongruent","Incongruent","Incongruent","Incongruent","Congruent","Incongruent","Incongruent","Incongruent","Incongruent","Congruent","Congruent","Incongruent","Congruent","Congruent","Congruent","Congruent","Incongruent","Incongruent","Congruent","Incongruent","Congruent","Congruent","Incongruent","Congruent","Incongruent","Congruent","Congruent","Congruent","Incongruent","Congruent","Congruent","Congruent","Incongruent","Congruent","Congruent","Congruent","Incongruent","Congruent","Incongruent","Incongruent","Incongruent","Congruent","Congruent","Incongruent","Incongruent","Incongruent","Congruent","Incongruent","Congruent","Incongruent","Congruent","Congruent","Congruent","Incongruent","Incongruent","Congruent","Congruent","Incongruent","Congruent","Congruent","Incongruent","Incongruent","Incongruent","Congruent","Congruent","Incongruent","Congruent","Incongruent","Congruent","Congruent","Incongruent","Incongruent","Congruent","Congruent","Incongruent","Congruent","Congruent","Incongruent","Congruent","Congruent","Incongruent","Congruent","Incongruent","Incongruent","Congruent","Congruent","Incongruent","Incongruent","Incongruent","Congruent","Congruent","Incongruent","Incongruent","Congruent","Congruent","Congruent","Congruent","Incongruent","Incongruent","Congruent","Incongruent","Congruent","Incongruent","Incongruent","Incongruent","Incongruent","Incongruent","Incongruent","Incongruent","Congruent","Congruent","Congruent","Congruent","Incongruent","Incongruent","Congruent","Incongruent"],"ratio_trial":[100,200,200,200,100,300,200,200,100,100,200,300,300,100,200,100,100,200,200,100,300,200,200,200,200,300,100,300,100,200,300,300,100,300,200,300,100,300,300,100,100,300,100,100,300,100,300,100,100,300,100,100,200,200,200,300,200,300,200,300,200,200,300,200,200,200,300,300,300,100,100,300,300,200,100,200,300,300,300,100,300,100,300,300,200,100,100,100,200,200,200,300,200,100,200,300,100,200,200,300,100,200,100,200,200,200,100,300,100,100,300,100,200,100,300,100,100,300,300,300],"left_num":[7,14,4,7,8,4,4,9,9,12,1,4,4,12,1,11,11,3,8,9,3,6,7,9,1,1,9,13,9,3,11,13,8,5,8,8,7,20,18,6,6,13,9,9,2,8,4,6,6,3,12,15,1,16,9,1,7,13,12,20,4,7,20,7,14,14,24,20,1,3,12,2,20,3,6,6,24,8,12,1,8,15,11,13,5,10,6,15,1,6,7,1,20,11,4,8,7,3,6,5,4,4,6,7,12,7,9,1,2,9,13,6,20,4,24,15,6,8,3,8],"right_num":[15,6,6,12,1,2,1,13,20,2,2,2,1,13,2,6,4,14,3,6,4,3,14,13,21,3,8,12,8,7,1,12,2,7,2,14,9,13,9,13,5,12,13,13,12,2,8,13,3,11,2,13,2,9,4,11,14,12,6,5,1,2,14,12,6,12,2,13,3,4,2,10,5,1,3,11,8,14,2,3,9,13,1,12,14,9,7,13,21,3,14,3,9,4,6,9,15,11,7,6,8,14,15,8,6,12,14,3,8,20,12,3,9,15,8,13,13,14,11,14],"left_den":[14,30,5,10,20,20,30,30,10,30,3,20,10,30,3,22,22,6,15,18,6,15,10,30,2,2,15,26,15,10,22,26,16,25,15,10,14,25,20,10,20,26,15,15,10,16,5,10,12,12,30,25,3,30,20,5,10,26,15,25,30,21,25,10,30,30,30,25,2,20,30,20,25,10,12,20,30,10,24,2,10,25,22,26,10,25,10,25,2,20,10,2,25,22,5,10,14,10,12,25,8,6,12,10,15,10,15,2,4,10,26,12,25,10,30,25,10,10,12,10],"right_den":[25,9,10,24,2,4,3,26,25,4,15,4,10,26,15,15,10,20,9,10,20,15,28,26,30,15,16,15,16,14,5,15,5,14,6,28,15,26,15,26,25,15,26,26,24,5,16,26,5,20,4,26,15,27,16,22,28,15,10,10,3,15,28,24,9,18,4,26,15,16,4,25,10,2,5,22,16,28,10,5,18,26,5,15,20,18,14,26,30,6,28,15,15,10,10,18,25,22,10,12,20,30,25,16,10,24,28,15,20,25,15,5,15,30,16,26,26,28,20,28],"correct_side":[2,2,1,1,2,2,2,2,1,2,1,2,1,2,1,1,1,2,1,2,1,1,1,2,2,1,1,2,1,2,1,2,1,2,1,1,2,1,1,1,1,2,1,1,2,1,1,1,2,2,2,1,1,1,1,2,1,2,1,1,2,1,1,1,2,2,1,1,1,2,2,2,1,2,2,2,1,1,1,2,1,1,1,2,2,2,1,1,2,2,1,1,1,1,1,1,2,2,2,2,1,1,2,1,1,1,1,1,1,1,2,2,1,2,1,1,1,1,2,1],"img_shown":["img2/100/Congruent/R/C_Dist_100_LN_7_LD_14_RN_15_RD_25_1.png","img2/200/Incongruent/R/I_Dist_200_LN_14_LD_30_RN_6_RD_9_1.png","img2/200/Incongruent/L/I_Dist_200_LN_4_LD_5_RN_6_RD_10_0.png","img2/200/Incongruent/L/I_Dist_200_LN_7_LD_10_RN_12_RD_24_0.png","img2/100/Incongruent/R/I_Dist_100_LN_8_LD_20_RN_1_RD_2_1.png","img2/300/Incongruent/R/I_Dist_300_LN_4_LD_20_RN_2_RD_4_1.png","img2/200/Incongruent/R/I_Dist_200_LN_4_LD_30_RN_1_RD_3_1.png","img2/200/Congruent/R/C_Dist_200_LN_9_LD_30_RN_13_RD_26_1.png","img2/100/Incongruent/L/I_Dist_100_LN_9_LD_10_RN_20_RD_25_0.png","img2/100/Incongruent/R/I_Dist_100_LN_12_LD_30_RN_2_RD_4_1.png","img2/200/Incongruent/L/I_Dist_200_LN_1_LD_3_RN_2_RD_15_0.png","img2/300/Incongruent/R/I_Dist_300_LN_4_LD_20_RN_2_RD_4_1.png","img2/300/Congruent/L/C_Dist_300_LN_4_LD_10_RN_1_RD_10_0.png","img2/100/Congruent/R/C_Dist_100_LN_12_LD_30_RN_13_RD_26_1.png","img2/200/Incongruent/L/I_Dist_200_LN_1_LD_3_RN_2_RD_15_0.png","img2/100/Congruent/L/C_Dist_100_LN_11_LD_22_RN_6_RD_15_0.png","img2/100/Congruent/L/C_Dist_100_LN_11_LD_22_RN_4_RD_10_0.png","img2/200/Congruent/R/C_Dist_200_LN_3_LD_6_RN_14_RD_20_1.png","img2/200/Congruent/L/C_Dist_200_LN_8_LD_15_RN_3_RD_9_0.png","img2/100/Incongruent/R/I_Dist_100_LN_9_LD_18_RN_6_RD_10_1.png","img2/300/Incongruent/L/I_Dist_300_LN_3_LD_6_RN_4_RD_20_0.png","img2/200/Congruent/L/C_Dist_200_LN_6_LD_15_RN_3_RD_15_0.png","img2/200/Incongruent/L/I_Dist_200_LN_7_LD_10_RN_14_RD_28_0.png","img2/200/Congruent/R/C_Dist_200_LN_9_LD_30_RN_13_RD_26_1.png","img2/200/Congruent/R/C_Dist_200_LN_1_LD_2_RN_21_RD_30_1.png","img2/300/Incongruent/L/I_Dist_300_LN_1_LD_2_RN_3_RD_15_0.png","img2/100/Congruent/L/C_Dist_100_LN_9_LD_15_RN_8_RD_16_0.png","img2/300/Incongruent/R/I_Dist_300_LN_13_LD_26_RN_12_RD_15_1.png","img2/100/Congruent/L/C_Dist_100_LN_9_LD_15_RN_8_RD_16_0.png","img2/200/Congruent/R/C_Dist_200_LN_3_LD_10_RN_7_RD_14_1.png","img2/300/Congruent/L/C_Dist_300_LN_11_LD_22_RN_1_RD_5_0.png","img2/300/Incongruent/R/I_Dist_300_LN_13_LD_26_RN_12_RD_15_1.png","img2/100/Congruent/L/C_Dist_100_LN_8_LD_16_RN_2_RD_5_0.png","img2/300/Congruent/R/C_Dist_300_LN_5_LD_25_RN_7_RD_14_1.png","img2/200/Congruent/L/C_Dist_200_LN_8_LD_15_RN_2_RD_6_0.png","img2/300/Incongruent/L/I_Dist_300_LN_8_LD_10_RN_14_RD_28_0.png","img2/100/Congruent/R/C_Dist_100_LN_7_LD_14_RN_9_RD_15_1.png","img2/300/Congruent/L/C_Dist_300_LN_20_LD_25_RN_13_RD_26_0.png","img2/300/Congruent/L/C_Dist_300_LN_18_LD_20_RN_9_RD_15_0.png","img2/100/Incongruent/L/I_Dist_100_LN_6_LD_10_RN_13_RD_26_0.png","img2/100/Congruent/L/C_Dist_100_LN_6_LD_20_RN_5_RD_25_0.png","img2/300/Incongruent/R/I_Dist_300_LN_13_LD_26_RN_12_RD_15_1.png","img2/100/Incongruent/L/I_Dist_100_LN_9_LD_15_RN_13_RD_26_0.png","img2/100/Incongruent/L/I_Dist_100_LN_9_LD_15_RN_13_RD_26_0.png","img2/300/Congruent/R/C_Dist_300_LN_2_LD_10_RN_12_RD_24_1.png","img2/100/Congruent/L/C_Dist_100_LN_8_LD_16_RN_2_RD_5_0.png","img2/300/Incongruent/L/I_Dist_300_LN_4_LD_5_RN_8_RD_16_0.png","img2/100/Incongruent/L/I_Dist_100_LN_6_LD_10_RN_13_RD_26_0.png","img2/100/Incongruent/R/I_Dist_100_LN_6_LD_12_RN_3_RD_5_1.png","img2/300/Congruent/R/C_Dist_300_LN_3_LD_12_RN_11_RD_20_1.png","img2/100/Incongruent/R/I_Dist_100_LN_12_LD_30_RN_2_RD_4_1.png","img2/100/Congruent/L/C_Dist_100_LN_15_LD_25_RN_13_RD_26_0.png","img2/200/Incongruent/L/I_Dist_200_LN_1_LD_3_RN_2_RD_15_0.png","img2/200/Congruent/L/C_Dist_200_LN_16_LD_30_RN_9_RD_27_0.png","img2/200/Congruent/L/C_Dist_200_LN_9_LD_20_RN_4_RD_16_0.png","img2/300/Congruent/R/C_Dist_300_LN_1_LD_5_RN_11_RD_22_1.png","img2/200/Incongruent/L/I_Dist_200_LN_7_LD_10_RN_14_RD_28_0.png","img2/300/Incongruent/R/I_Dist_300_LN_13_LD_26_RN_12_RD_15_1.png","img2/200/Congruent/L/C_Dist_200_LN_12_LD_15_RN_6_RD_10_0.png","img2/300/Congruent/L/C_Dist_300_LN_20_LD_25_RN_5_RD_10_0.png","img2/200/Incongruent/R/I_Dist_200_LN_4_LD_30_RN_1_RD_3_1.png","img2/200/Congruent/L/C_Dist_200_LN_7_LD_21_RN_2_RD_15_0.png","img2/300/Congruent/L/C_Dist_300_LN_20_LD_25_RN_14_RD_28_0.png","img2/200/Incongruent/L/I_Dist_200_LN_7_LD_10_RN_12_RD_24_0.png","img2/200/Incongruent/R/I_Dist_200_LN_14_LD_30_RN_6_RD_9_1.png","img2/200/Incongruent/R/I_Dist_200_LN_14_LD_30_RN_12_RD_18_1.png","img2/300/Congruent/L/C_Dist_300_LN_24_LD_30_RN_2_RD_4_0.png","img2/300/Congruent/L/C_Dist_300_LN_20_LD_25_RN_13_RD_26_0.png","img2/300/Incongruent/L/I_Dist_300_LN_1_LD_2_RN_3_RD_15_0.png","img2/100/Congruent/R/C_Dist_100_LN_3_LD_20_RN_4_RD_16_1.png","img2/100/Incongruent/R/I_Dist_100_LN_12_LD_30_RN_2_RD_4_1.png","img2/300/Congruent/R/C_Dist_300_LN_2_LD_20_RN_10_RD_25_1.png","img2/300/Congruent/L/C_Dist_300_LN_20_LD_25_RN_5_RD_10_0.png","img2/200/Incongruent/R/I_Dist_200_LN_3_LD_10_RN_1_RD_2_1.png","img2/100/Incongruent/R/I_Dist_100_LN_6_LD_12_RN_3_RD_5_1.png","img2/200/Congruent/R/C_Dist_200_LN_6_LD_20_RN_11_RD_22_1.png","img2/300/Congruent/L/C_Dist_300_LN_24_LD_30_RN_8_RD_16_0.png","img2/300/Incongruent/L/I_Dist_300_LN_8_LD_10_RN_14_RD_28_0.png","img2/300/Congruent/L/C_Dist_300_LN_12_LD_24_RN_2_RD_10_0.png","img2/100/Congruent/R/C_Dist_100_LN_1_LD_2_RN_3_RD_5_1.png","img2/300/Incongruent/L/I_Dist_300_LN_8_LD_10_RN_9_RD_18_0.png","img2/100/Congruent/L/C_Dist_100_LN_15_LD_25_RN_13_RD_26_0.png","img2/300/Congruent/L/C_Dist_300_LN_11_LD_22_RN_1_RD_5_0.png","img2/300/Incongruent/R/I_Dist_300_LN_13_LD_26_RN_12_RD_15_1.png","img2/200/Congruent/R/C_Dist_200_LN_5_LD_10_RN_14_RD_20_1.png","img2/100/Incongruent/R/I_Dist_100_LN_10_LD_25_RN_9_RD_18_1.png","img2/100/Incongruent/L/I_Dist_100_LN_6_LD_10_RN_7_RD_14_0.png","img2/100/Congruent/L/C_Dist_100_LN_15_LD_25_RN_13_RD_26_0.png","img2/200/Congruent/R/C_Dist_200_LN_1_LD_2_RN_21_RD_30_1.png","img2/200/Incongruent/R/I_Dist_200_LN_6_LD_20_RN_3_RD_6_1.png","img2/200/Incongruent/L/I_Dist_200_LN_7_LD_10_RN_14_RD_28_0.png","img2/300/Incongruent/L/I_Dist_300_LN_1_LD_2_RN_3_RD_15_0.png","img2/200/Congruent/L/C_Dist_200_LN_20_LD_25_RN_9_RD_15_0.png","img2/100/Congruent/L/C_Dist_100_LN_11_LD_22_RN_4_RD_10_0.png","img2/200/Incongruent/L/I_Dist_200_LN_4_LD_5_RN_6_RD_10_0.png","img2/300/Incongruent/L/I_Dist_300_LN_8_LD_10_RN_9_RD_18_0.png","img2/100/Congruent/R/C_Dist_100_LN_7_LD_14_RN_15_RD_25_1.png","img2/200/Congruent/R/C_Dist_200_LN_3_LD_10_RN_11_RD_22_1.png","img2/200/Congruent/R/C_Dist_200_LN_6_LD_12_RN_7_RD_10_1.png","img2/300/Congruent/R/C_Dist_300_LN_5_LD_25_RN_6_RD_12_1.png","img2/100/Incongruent/L/I_Dist_100_LN_4_LD_8_RN_8_RD_20_0.png","img2/200/Incongruent/L/I_Dist_200_LN_4_LD_6_RN_14_RD_30_0.png","img2/100/Congruent/R/C_Dist_100_LN_6_LD_12_RN_15_RD_25_1.png","img2/200/Incongruent/L/I_Dist_200_LN_7_LD_10_RN_8_RD_16_0.png","img2/200/Congruent/L/C_Dist_200_LN_12_LD_15_RN_6_RD_10_0.png","img2/200/Incongruent/L/I_Dist_200_LN_7_LD_10_RN_12_RD_24_0.png","img2/100/Incongruent/L/I_Dist_100_LN_9_LD_15_RN_14_RD_28_0.png","img2/300/Incongruent/L/I_Dist_300_LN_1_LD_2_RN_3_RD_15_0.png","img2/100/Incongruent/L/I_Dist_100_LN_2_LD_4_RN_8_RD_20_0.png","img2/100/Incongruent/L/I_Dist_100_LN_9_LD_10_RN_20_RD_25_0.png","img2/300/Incongruent/R/I_Dist_300_LN_13_LD_26_RN_12_RD_15_1.png","img2/100/Incongruent/R/I_Dist_100_LN_6_LD_12_RN_3_RD_5_1.png","img2/200/Congruent/L/C_Dist_200_LN_20_LD_25_RN_9_RD_15_0.png","img2/100/Congruent/R/C_Dist_100_LN_4_LD_10_RN_15_RD_30_1.png","img2/300/Congruent/L/C_Dist_300_LN_24_LD_30_RN_8_RD_16_0.png","img2/100/Congruent/L/C_Dist_100_LN_15_LD_25_RN_13_RD_26_0.png","img2/100/Incongruent/L/I_Dist_100_LN_6_LD_10_RN_13_RD_26_0.png","img2/300/Incongruent/L/I_Dist_300_LN_8_LD_10_RN_14_RD_28_0.png","img2/300/Congruent/R/C_Dist_300_LN_3_LD_12_RN_11_RD_20_1.png","img2/300/Incongruent/L/I_Dist_300_LN_8_LD_10_RN_14_RD_28_0.png"],"dist100_C":[["C_Dist_100_LN_10_LD_25_RN_3_RD_10_0.png","C_Dist_100_LN_11_LD_22_RN_4_RD_10_0.png","C_Dist_100_LN_11_LD_22_RN_6_RD_15_0.png","C_Dist_100_LN_15_LD_25_RN_13_RD_26_0.png","C_Dist_100_LN_3_LD_6_RN_2_RD_5_0.png","C_Dist_100_LN_6_LD_20_RN_5_RD_25_0.png","C_Dist_100_LN_8_LD_16_RN_2_RD_5_0.png","C_Dist_100_LN_9_LD_15_RN_8_RD_16_0.png"],["C_Dist_100_LN_1_LD_2_RN_18_RD_30_1.png","C_Dist_100_LN_1_LD_2_RN_3_RD_5_1.png","C_Dist_100_LN_12_LD_30_RN_13_RD_26_1.png","C_Dist_100_LN_2_LD_5_RN_11_RD_22_1.png","C_Dist_100_LN_2_LD_5_RN_6_RD_12_1.png","C_Dist_100_LN_3_LD_20_RN_4_RD_16_1.png","C_Dist_100_LN_4_LD_10_RN_15_RD_30_1.png","C_Dist_100_LN_4_LD_8_RN_6_RD_10_1.png","C_Dist_100_LN_6_LD_12_RN_15_RD_25_1.png","C_Dist_100_LN_7_LD_14_RN_15_RD_25_1.png","C_Dist_100_LN_7_LD_14_RN_9_RD_15_1.png"]],"dist100_I":[["I_Dist_100_LN_1_LD_2_RN_8_RD_20_0.png","I_Dist_100_LN_2_LD_4_RN_6_RD_15_0.png","I_Dist_100_LN_2_LD_4_RN_8_RD_20_0.png","I_Dist_100_LN_3_LD_5_RN_11_RD_22_0.png","I_Dist_100_LN_3_LD_5_RN_8_RD_16_0.png","I_Dist_100_LN_3_LD_6_RN_4_RD_10_0.png","I_Dist_100_LN_3_LD_9_RN_7_RD_30_0.png","I_Dist_100_LN_4_LD_8_RN_8_RD_20_0.png","I_Dist_100_LN_6_LD_10_RN_11_RD_22_0.png","I_Dist_100_LN_6_LD_10_RN_13_RD_26_0.png","I_Dist_100_LN_6_LD_10_RN_7_RD_14_0.png","I_Dist_100_LN_9_LD_10_RN_20_RD_25_0.png","I_Dist_100_LN_9_LD_15_RN_13_RD_26_0.png","I_Dist_100_LN_9_LD_15_RN_14_RD_28_0.png"],["I_Dist_100_LN_10_LD_25_RN_8_RD_16_1.png","I_Dist_100_LN_10_LD_25_RN_9_RD_18_1.png","I_Dist_100_LN_11_LD_22_RN_9_RD_15_1.png","I_Dist_100_LN_12_LD_24_RN_9_RD_15_1.png","I_Dist_100_LN_12_LD_30_RN_2_RD_4_1.png","I_Dist_100_LN_13_LD_26_RN_12_RD_20_1.png","I_Dist_100_LN_13_LD_26_RN_6_RD_10_1.png","I_Dist_100_LN_17_LD_30_RN_10_RD_15_1.png","I_Dist_100_LN_6_LD_12_RN_3_RD_5_1.png","I_Dist_100_LN_8_LD_16_RN_6_RD_10_1.png","I_Dist_100_LN_8_LD_20_RN_1_RD_2_1.png","I_Dist_100_LN_9_LD_18_RN_6_RD_10_1.png"]],"dist100_S":[["E_Dist_100_LN_2_LD_12_RN_2_RD_30_0.png","E_Dist_100_LN_6_LD_10_RN_6_RD_12_0.png"],["E_Dist_100_LN_6_LD_12_RN_6_RD_10_1.png"]],"dist200_C":[["C_Dist_200_LN_11_LD_22_RN_3_RD_10_0.png","C_Dist_200_LN_12_LD_15_RN_6_RD_10_0.png","C_Dist_200_LN_12_LD_20_RN_6_RD_15_0.png","C_Dist_200_LN_14_LD_28_RN_6_RD_20_0.png","C_Dist_200_LN_15_LD_25_RN_4_RD_10_0.png","C_Dist_200_LN_16_LD_20_RN_12_RD_20_0.png","C_Dist_200_LN_16_LD_30_RN_9_RD_27_0.png","C_Dist_200_LN_20_LD_25_RN_9_RD_15_0.png","C_Dist_200_LN_21_LD_30_RN_2_RD_4_0.png","C_Dist_200_LN_4_LD_10_RN_3_RD_15_0.png","C_Dist_200_LN_4_LD_8_RN_3_RD_10_0.png","C_Dist_200_LN_6_LD_15_RN_3_RD_15_0.png","C_Dist_200_LN_7_LD_21_RN_2_RD_15_0.png","C_Dist_200_LN_8_LD_15_RN_2_RD_6_0.png","C_Dist_200_LN_8_LD_15_RN_3_RD_9_0.png","C_Dist_200_LN_8_LD_15_RN_7_RD_21_0.png","C_Dist_200_LN_9_LD_20_RN_4_RD_16_0.png"],["C_Dist_200_LN_1_LD_2_RN_21_RD_30_1.png","C_Dist_200_LN_13_LD_26_RN_14_RD_20_1.png","C_Dist_200_LN_3_LD_10_RN_11_RD_22_1.png","C_Dist_200_LN_3_LD_10_RN_14_RD_28_1.png","C_Dist_200_LN_3_LD_10_RN_7_RD_14_1.png","C_Dist_200_LN_3_LD_12_RN_9_RD_20_1.png","C_Dist_200_LN_3_LD_6_RN_14_RD_20_1.png","C_Dist_200_LN_5_LD_10_RN_14_RD_20_1.png","C_Dist_200_LN_6_LD_12_RN_7_RD_10_1.png","C_Dist_200_LN_6_LD_20_RN_11_RD_22_1.png","C_Dist_200_LN_7_LD_15_RN_18_RD_27_1.png","C_Dist_200_LN_9_LD_30_RN_13_RD_26_1.png"]],"dist200_I":[["I_Dist_200_LN_1_LD_2_RN_3_RD_10_0.png","I_Dist_200_LN_1_LD_3_RN_2_RD_15_0.png","I_Dist_200_LN_3_LD_4_RN_11_RD_20_0.png","I_Dist_200_LN_4_LD_5_RN_6_RD_10_0.png","I_Dist_200_LN_4_LD_6_RN_14_RD_30_0.png","I_Dist_200_LN_7_LD_10_RN_12_RD_24_0.png","I_Dist_200_LN_7_LD_10_RN_14_RD_28_0.png","I_Dist_200_LN_7_LD_10_RN_8_RD_16_0.png"],["I_Dist_200_LN_11_LD_20_RN_3_RD_4_1.png","I_Dist_200_LN_14_LD_30_RN_12_RD_18_1.png","I_Dist_200_LN_14_LD_30_RN_6_RD_9_1.png","I_Dist_200_LN_3_LD_10_RN_1_RD_2_1.png","I_Dist_200_LN_4_LD_30_RN_1_RD_3_1.png","I_Dist_200_LN_6_LD_20_RN_3_RD_6_1.png","I_Dist_200_LN_7_LD_15_RN_4_RD_6_1.png","I_Dist_200_LN_7_LD_15_RN_6_RD_9_1.png","I_Dist_200_LN_9_LD_15_RN_8_RD_10_1.png"]],"dist200_S":[["E_Dist_200_LN_3_LD_6_RN_3_RD_10_0.png"],["E_Dist_200_LN_3_LD_10_RN_3_RD_6_1.png"]],"dist300_C":[["C_Dist_300_LN_11_LD_22_RN_1_RD_5_0.png","C_Dist_300_LN_11_LD_22_RN_2_RD_10_0.png","C_Dist_300_LN_11_LD_22_RN_4_RD_20_0.png","C_Dist_300_LN_12_LD_24_RN_2_RD_10_0.png","C_Dist_300_LN_18_LD_20_RN_9_RD_15_0.png","C_Dist_300_LN_20_LD_25_RN_13_RD_26_0.png","C_Dist_300_LN_20_LD_25_RN_14_RD_28_0.png","C_Dist_300_LN_20_LD_25_RN_5_RD_10_0.png","C_Dist_300_LN_20_LD_25_RN_8_RD_16_0.png","C_Dist_300_LN_20_LD_25_RN_9_RD_18_0.png","C_Dist_300_LN_24_LD_30_RN_2_RD_4_0.png","C_Dist_300_LN_24_LD_30_RN_8_RD_16_0.png","C_Dist_300_LN_3_LD_6_RN_2_RD_10_0.png","C_Dist_300_LN_4_LD_10_RN_1_RD_10_0.png","C_Dist_300_LN_4_LD_5_RN_2_RD_4_0.png","C_Dist_300_LN_8_LD_16_RN_1_RD_5_0.png","C_Dist_300_LN_9_LD_10_RN_3_RD_5_0.png"],["C_Dist_300_LN_1_LD_20_RN_7_RD_20_1.png","C_Dist_300_LN_1_LD_3_RN_19_RD_30_1.png","C_Dist_300_LN_1_LD_30_RN_8_RD_24_1.png","C_Dist_300_LN_1_LD_5_RN_11_RD_22_1.png","C_Dist_300_LN_1_LD_5_RN_3_RD_6_1.png","C_Dist_300_LN_1_LD_5_RN_6_RD_12_1.png","C_Dist_300_LN_2_LD_10_RN_12_RD_24_1.png","C_Dist_300_LN_2_LD_20_RN_10_RD_25_1.png","C_Dist_300_LN_3_LD_12_RN_11_RD_20_1.png","C_Dist_300_LN_3_LD_6_RN_4_RD_5_1.png","C_Dist_300_LN_4_LD_20_RN_13_RD_26_1.png","C_Dist_300_LN_5_LD_25_RN_6_RD_12_1.png","C_Dist_300_LN_5_LD_25_RN_7_RD_14_1.png","C_Dist_300_LN_7_LD_14_RN_20_RD_25_1.png","C_Dist_300_LN_8_LD_15_RN_10_RD_12_1.png"]],"dist300_I":[["I_Dist_300_LN_1_LD_2_RN_2_RD_10_0.png","I_Dist_300_LN_1_LD_2_RN_3_RD_15_0.png","I_Dist_300_LN_2_LD_4_RN_6_RD_30_0.png","I_Dist_300_LN_3_LD_6_RN_4_RD_20_0.png","I_Dist_300_LN_4_LD_5_RN_6_RD_12_0.png","I_Dist_300_LN_4_LD_5_RN_8_RD_16_0.png","I_Dist_300_LN_7_LD_10_RN_8_RD_20_0.png","I_Dist_300_LN_8_LD_10_RN_14_RD_28_0.png","I_Dist_300_LN_8_LD_10_RN_9_RD_18_0.png"],["I_Dist_300_LN_13_LD_26_RN_12_RD_15_1.png","I_Dist_300_LN_4_LD_20_RN_2_RD_4_1.png"]],"dist300_S":[["E_Dist_300_LN_9_LD_12_RN_9_RD_20_0.png"],["E_Dist_300_LN_18_LD_30_RN_18_RD_20_1.png","E_Dist_300_LN_3_LD_10_RN_3_RD_5_1.png","E_Dist_300_LN_9_LD_20_RN_9_RD_12_1.png"]],"dist500_C":[["C_Dist_500_LN_10_LD_13_RN_7_RD_26_0.png","C_Dist_500_LN_10_LD_15_RN_4_RD_24_0.png","C_Dist_500_LN_12_LD_16_RN_3_RD_12_0.png","C_Dist_500_LN_12_LD_18_RN_4_RD_24_0.png","C_Dist_500_LN_15_LD_18_RN_5_RD_15_0.png","C_Dist_500_LN_15_LD_20_RN_1_RD_4_0.png","C_Dist_500_LN_18_LD_27_RN_1_RD_6_0.png","C_Dist_500_LN_20_LD_24_RN_1_RD_3_0.png","C_Dist_500_LN_20_LD_24_RN_3_RD_9_0.png","C_Dist_500_LN_20_LD_24_RN_7_RD_21_0.png","C_Dist_500_LN_20_LD_28_RN_3_RD_14_0.png","C_Dist_500_LN_21_LD_28_RN_6_RD_24_0.png","C_Dist_500_LN_22_LD_28_RN_2_RD_7_0.png","C_Dist_500_LN_25_LD_30_RN_9_RD_27_0.png","C_Dist_500_LN_4_LD_6_RN_1_RD_6_0.png","C_Dist_500_LN_5_LD_6_RN_2_RD_6_0.png","C_Dist_500_LN_6_LD_9_RN_1_RD_6_0.png","C_Dist_500_LN_7_LD_10_RN_1_RD_5_0.png","C_Dist_500_LN_8_LD_12_RN_1_RD_6_0.png","C_Dist_500_LN_8_LD_12_RN_4_RD_24_0.png"],["C_Dist_500_LN_1_LD_4_RN_12_RD_16_1.png","C_Dist_500_LN_1_LD_4_RN_9_RD_12_1.png","C_Dist_500_LN_1_LD_9_RN_11_RD_18_1.png","C_Dist_500_LN_10_LD_24_RN_22_RD_24_1.png","C_Dist_500_LN_2_LD_12_RN_10_RD_15_1.png","C_Dist_500_LN_2_LD_12_RN_12_RD_18_1.png","C_Dist_500_LN_2_LD_12_RN_4_RD_6_1.png","C_Dist_500_LN_2_LD_24_RN_7_RD_12_1.png","C_Dist_500_LN_2_LD_5_RN_18_RD_20_1.png","C_Dist_500_LN_2_LD_5_RN_9_RD_10_1.png","C_Dist_500_LN_2_LD_8_RN_12_RD_16_1.png","C_Dist_500_LN_2_LD_8_RN_21_RD_28_1.png","C_Dist_500_LN_3_LD_10_RN_4_RD_5_1.png","C_Dist_500_LN_3_LD_12_RN_15_RD_20_1.png","C_Dist_500_LN_3_LD_30_RN_6_RD_10_1.png","C_Dist_500_LN_3_LD_8_RN_14_RD_16_1.png","C_Dist_500_LN_4_LD_16_RN_15_RD_20_1.png","C_Dist_500_LN_4_LD_24_RN_12_RD_18_1.png","C_Dist_500_LN_5_LD_14_RN_6_RD_7_1.png","C_Dist_500_LN_7_LD_21_RN_20_RD_24_1.png","C_Dist_500_LN_7_LD_28_RN_12_RD_16_1.png","C_Dist_500_LN_7_LD_28_RN_9_RD_12_1.png","C_Dist_500_LN_9_LD_27_RN_20_RD_24_1.png"]],"dist500_I":[["I_Dist_500_LN_2_LD_3_RN_4_RD_24_0.png","I_Dist_500_LN_5_LD_6_RN_6_RD_18_0.png","I_Dist_500_LN_7_LD_8_RN_9_RD_24_0.png"],["I_Dist_500_LN_7_LD_21_RN_5_RD_6_1.png"]],"dist500_S":[["E_Dist_500_LN_6_LD_8_RN_6_RD_24_0.png"],["E_Dist_500_LN_2_LD_12_RN_2_RD_3_1.png","E_Dist_500_LN_6_LD_24_RN_6_RD_8_1.png"]]}},{"start_time":1552308605493,"click_time":1552308614343,"finger_time":1552308606023,"fix_duration":308.4535061936291,"trial":1,"RT":530,"MT":8320,"sideResp":1,"stimulus":[],"xmouse":[810,810,810,810,810,810,810,810,810,810,810,810,810,810,810,810,810,810,810,810,810,810,810,802,794,776,694,669,650,642,638,637,637,637,637,637,637,637,637,637,637,637,637,637,635,631,630,630,630,630,630,630,630,636,644,651,667,671,676,680,682,683,683,684,684,687,694,700,705,711,725,731,734,738,740,741,743,744,744,744,748,753,760,765,768,769,769,769,769,769,769,769,769,769,769,769,769,769,769,769,769,769,769,769,769,769,772,772,774,775,775,777,778,778,778,778,778,778,778,778,778,778,778,778,778,778,778,778,778,778,778,778,778,778,778,778,778,778,778,778,778,778,778,778,778,778,778,778,778,778,778,778,778,778,778,778,778,778,778,778,778,778,778,778,778,778,778,778,778,778,778,778,778,778,778,778,778,778,778,778,778,778,778,778,778,778,778,778,778,778,778,778,778,778,778,778,778,778,778,778,778,778,778,778,778,778,778,778,778,778,778,778,778,778,778,778,778,778,778,778,778,778,778,778,778,778,778,778,778,778,778,778,778,778,778,778,778,778,778,778,778,778,778,778,778,778,778,778,778,778,778,778,778,778,778,778,778,778,778,778,778,778,785,790,794,794,784,781,780,780,780,780,780,780,780,780,780,780,780,780,779,779,779,778,777,777,777,777,777,778,780,780,780,780,780,780,781,781,781,781,781,781,781,781,781,781,781,781,781,781,781,781,782,783,783,783,784,784,784,784,784,784,784,784,784,784,784,784,784,784,784,784,784,784,784,784,784,784,784,784,784,784,784,784,784,784,784,784,784,784,784,784,784,784,784,784,784,784,784,788,790,796,798,799,800,800,800,800,800,800,800,800,801,800,796,795,791,790,790,789,789,789,789,789,789,789,789,789,789,789,789,789,789,789,789,789,789,789,789,789,789,789,789,789,789,789,789,789,789,789,783,751,704,652,607,570,561,561,561,563,564,571,571,574,577,579,579,578,574,569,563,550,547,545,543,543,543,543,543,543,540,515],"ymouse":[604,604,604,604,604,604,604,604,604,604,604,604,604,604,604,604,604,604,604,604,604,604,604,591,579,554,461,423,396,378,366,354,350,347,347,347,347,347,347,347,347,347,347,347,346,346,346,346,346,346,346,346,353,370,388,405,439,450,462,471,481,483,484,487,492,502,533,550,563,574,598,609,614,619,622,623,626,626,626,626,628,628,629,629,629,629,629,629,629,629,629,629,629,629,629,629,629,629,629,629,629,629,629,629,629,629,625,622,618,614,612,607,605,604,603,603,603,603,603,603,603,603,603,603,603,603,603,603,603,603,603,603,603,603,603,603,603,603,603,603,603,603,603,603,603,603,603,603,603,603,603,603,603,603,603,603,603,603,603,603,603,603,603,603,603,603,603,603,603,603,603,603,603,603,603,603,603,603,603,603,603,603,603,603,603,603,603,603,603,603,603,603,603,603,603,603,603,603,603,603,603,603,603,603,603,603,603,603,603,603,603,603,603,603,603,603,603,603,603,603,603,603,603,603,603,603,603,603,603,603,603,603,603,603,603,603,603,603,603,603,603,603,603,603,603,603,603,603,603,603,603,603,603,603,603,603,603,603,603,603,603,603,592,582,569,536,512,504,499,497,497,497,497,497,497,497,497,497,497,497,497,497,497,497,517,517,558,576,592,611,624,645,652,657,660,664,665,665,665,665,665,665,665,665,665,665,665,665,665,666,664,660,655,652,648,646,643,642,640,639,638,636,635,633,632,632,632,632,632,632,632,632,632,632,632,632,632,632,632,632,632,632,632,632,632,632,632,632,632,632,632,632,632,632,632,632,632,632,632,622,617,602,595,589,585,585,585,585,585,585,585,585,585,587,593,596,611,614,617,618,619,619,619,619,619,619,619,619,619,619,619,619,619,619,619,619,619,619,619,619,619,619,619,619,619,619,619,619,619,619,612,570,514,448,385,319,281,265,251,239,230,211,204,192,181,167,150,143,133,121,109,89,84,79,77,77,77,77,77,77,75,57],"timestamp_mouse":[9,51,71,89,109,130,151,171,191,210,230,250,270,291,310,330,350,369,391,411,431,451,471,490,511,530,551,570,589,609,629,650,670,691,711,731,751,771,790,811,830,850,870,890,910,931,950,970,990,1011,1029,1049,1069,1090,1111,1129,1150,1170,1189,1209,1230,1250,1270,1290,1311,1330,1349,1370,1390,1410,1431,1450,1470,1490,1509,1530,1551,1569,1589,1611,1630,1650,1670,1689,1710,1730,1751,1770,1791,1810,1830,1849,1870,1891,1909,1931,1949,1970,1990,2009,2030,2051,2071,2089,2111,2130,2150,2170,2189,2210,2230,2250,2270,2290,2310,2330,2350,2370,2390,2410,2430,2450,2470,2489,2511,2529,2550,2571,2589,2611,2631,2649,2669,2689,2709,2730,2751,2770,2790,2810,2830,2850,2870,2891,2911,2931,2949,2970,2991,3009,3031,3050,3070,3089,3111,3131,3151,3170,3191,3211,3230,3250,3270,3290,3311,3330,3351,3370,3389,3409,3429,3450,3469,3490,3511,3530,3550,3570,3590,3610,3630,3650,3671,3691,3711,3730,3750,3770,3789,3811,3829,3850,3869,3890,3911,3930,3950,3970,3991,4011,4031,4050,4069,4090,4109,4131,4150,4169,4190,4210,4231,4250,4270,4291,4310,4329,4349,4370,4391,4410,4430,4450,4471,4490,4509,4530,4551,4571,4591,4610,4631,4650,4670,4691,4711,4731,4749,4771,4790,4810,4830,4850,4870,4891,4911,4930,4951,4970,4991,5010,5030,5051,5071,5089,5111,5130,5150,5170,5189,5209,5231,5249,5270,5290,5309,5331,5350,5369,5390,5410,5430,5449,5470,5489,5509,5531,5549,5570,5590,5609,5631,5649,5670,5695,5711,5730,5750,5770,5790,5810,5831,5850,5871,5890,5910,5930,5951,5970,5991,6011,6030,6051,6070,6091,6109,6130,6150,6171,6191,6210,6230,6250,6270,6289,6310,6330,6349,6370,6390,6410,6429,6451,6471,6490,6510,6530,6550,6571,6589,6611,6629,6650,6670,6691,6710,6731,6749,6771,6791,6811,6830,6851,6870,6891,6911,6930,6949,6970,6990,7010,7031,7051,7070,7089,7110,7131,7150,7170,7190,7210,7230,7250,7271,7290,7310,7330,7350,7371,7390,7410,7429,7449,7471,7490,7510,7530,7550,7570,7591,7610,7631,7650,7670,7690,7710,7731,7750,7771,7790,7810,7831,7850,7870,7891,7910,7930,7950,7970,7989,8010,8029,8051,8070,8091,8110,8129,8151,8171,8190,8209,8230,8249,8271,8290,8310,8330,8350,8370,8390,8410,8429,8450,8471,8490,8511,8530,8549,8569,8589,8611,8630,8650,8670,8690,8710,8729,8750,8771,8790,8810,8829,8850],"xSR":741.5,"ySR":573.95,"xT1":424.9,"yT1":0,"xT2":1058.1,"yT2":0,"toosoon":0,"cond_shown":"Incongruent","ratio_trial":200,"L_num":14,"L_den":30,"R_num":6,"R_den":9,"correct_side":2,"subjID":"SaritaPulidoBonilla28","gender":"saritapulidobonilla","school":"9","age":"No_age"},{"start_time":1552308616371,"click_time":1552308617343,"finger_time":1552308616724,"fix_duration":926.9147470527641,"trial":2,"RT":353,"MT":619,"sideResp":2,"stimulus":[],"xmouse":[779,779,779,779,779,779,779,779,779,779,779,779,779,779,789,797,805,829,836,840,843,845,859,868,879,886,892,899,901,904,907,911,914,927,937,949,964,978,1001,1012,1021,1031,1054,1062,1069,1075,1082,1087,1099],"ymouse":[633,633,633,633,633,633,633,633,633,633,633,633,633,633,626,615,598,554,532,513,495,477,433,412,388,366,348,322,315,307,302,295,288,273,266,262,259,256,244,236,227,215,177,163,147,133,116,102,74],"timestamp_mouse":[12,35,52,71,93,113,132,153,173,191,213,231,251,273,292,312,332,353,371,392,412,431,453,471,492,511,532,553,571,593,612,632,652,672,692,712,732,752,772,791,812,832,853,871,891,913,932,953,972],"xSR":741.5,"ySR":573.95,"xT1":424.9,"yT1":0,"xT2":1058.1,"yT2":0,"toosoon":0,"cond_shown":"Incongruent","ratio_trial":200,"L_num":4,"L_den":5,"R_num":6,"R_den":10,"correct_side":1,"subjID":"SaritaPulidoBonilla28","gender":"saritapulidobonilla","school":"9","age":"No_age"},{"start_time":1552308620808,"click_time":1552308622183,"finger_time":1552308621303,"fix_duration":462.5374708130837,"trial":3,"RT":495,"MT":880,"sideResp":2,"stimulus":[],"xmouse":[762,762,762,762,762,762,762,762,762,762,762,762,762,762,762,762,762,765,765,767,769,771,775,776,778,787,793,797,800,802,806,816,823,835,849,866,903,923,945,968,998,1105,1144,1175,1195,1212,1228,1230,1230,1230,1230,1230,1228,1227,1224,1217,1215,1212,1209,1208,1205,1201,1199,1195,1192,1182,1176,1168,1157],"ymouse":[603,603,603,603,603,603,603,603,603,603,603,603,603,603,603,603,603,602,601,598,589,584,579,574,567,545,528,510,491,474,452,408,392,376,359,337,260,215,163,119,75,0,0,0,0,0,0,0,0,0,0,3,9,14,19,27,29,32,35,37,41,42,43,43,43,43,43,43,43],"timestamp_mouse":[15,46,55,75,95,116,134,156,174,196,214,234,254,276,296,314,335,355,375,394,416,436,455,474,495,516,535,556,575,596,616,636,655,674,695,715,734,755,774,794,815,835,854,876,895,914,935,955,975,995,1016,1035,1055,1076,1095,1117,1135,1155,1176,1195,1214,1234,1254,1275,1295,1316,1335,1355,1375],"xSR":741.5,"ySR":573.95,"xT1":424.9,"yT1":0,"xT2":1058.1,"yT2":0,"toosoon":0,"cond_shown":"Incongruent","ratio_trial":200,"L_num":7,"L_den":10,"R_num":12,"R_den":24,"correct_side":1,"subjID":"SaritaPulidoBonilla28","gender":"saritapulidobonilla","school":"9","age":"No_age"},{"start_time":1552308625414,"click_time":1552308626244,"finger_time":1552308625763,"fix_duration":1490.867863773104,"trial":4,"RT":349,"MT":481,"sideResp":1,"stimulus":[],"xmouse":[830,830,830,830,830,830,830,830,830,830,830,830,830,830,830,830,828,817,794,764,651,609,576,554,544,536,535,534,533,533,533,533,533,533,533,532,532,532,532,532,531,518],"ymouse":[591,591,591,591,591,591,591,591,591,591,591,591,591,591,591,591,591,570,530,480,314,254,205,163,135,93,75,60,47,38,36,32,29,27,25,23,23,23,23,23,23,23],"timestamp_mouse":[10,41,49,69,89,109,130,148,170,190,209,228,250,268,288,309,329,349,369,389,410,428,449,470,489,510,529,549,569,588,609,629,649,669,689,710,730,750,768,788,809,830],"xSR":741.5,"ySR":573.95,"xT1":424.9,"yT1":0,"xT2":1058.1,"yT2":0,"toosoon":0,"cond_shown":"Incongruent","ratio_trial":100,"L_num":8,"L_den":20,"R_num":1,"R_den":2,"correct_side":2,"subjID":"SaritaPulidoBonilla28","gender":"saritapulidobonilla","school":"9","age":"No_age"},{"start_time":1552308629291,"click_time":1552308630143,"finger_time":1552308629723,"fix_duration":766.265665841397,"trial":5,"RT":432,"MT":420,"sideResp":1,"stimulus":[],"xmouse":[777,777,777,777,777,777,777,777,777,777,777,777,777,777,777,777,777,777,777,774,767,736,623,559,509,486,478,476,477,477,478,478,478,478,478,478,478,481,482,483,484,485,485],"ymouse":[603,603,603,603,603,603,603,603,603,603,603,603,603,603,603,603,603,603,603,601,586,538,384,307,238,203,185,170,168,167,166,165,162,160,159,158,156,150,144,138,127,112,83],"timestamp_mouse":[12,31,53,75,93,112,133,152,171,192,211,231,251,272,293,313,333,352,371,393,412,432,452,472,492,513,532,553,571,592,611,633,652,672,692,712,732,753,772,792,812,832,852],"xSR":741.5,"ySR":573.95,"xT1":424.9,"yT1":0,"xT2":1058.1,"yT2":0,"toosoon":0,"cond_shown":"Incongruent","ratio_trial":300,"L_num":4,"L_den":20,"R_num":2,"R_den":4,"correct_side":2,"subjID":"SaritaPulidoBonilla28","gender":"saritapulidobonilla","school":"9","age":"No_age"},{"start_time":1552308632632,"click_time":1552308633942,"finger_time":1552308633102,"fix_duration":807.5990006703636,"trial":6,"RT":470,"MT":840,"sideResp":2,"stimulus":[],"xmouse":[798,798,799,800,800,800,800,800,800,800,800,800,800,800,800,800,800,800,800,800,800,800,805,811,813,804,798,794,794,797,814,821,826,829,832,835,835,836,838,843,873,892,910,925,948,954,959,965,970,980,1006,1011,1013,1014,1016,1018,1020,1021,1024,1029,1037,1043,1049,1055,1072,1085],"ymouse":[619,619,619,619,619,619,619,619,619,619,619,619,619,619,619,619,619,619,619,619,619,614,593,567,540,449,398,360,332,293,248,230,211,199,190,185,184,184,183,183,182,182,182,182,182,182,182,182,182,182,176,174,172,169,164,161,157,155,151,144,133,127,121,116,100,91],"timestamp_mouse":[11,38,52,71,92,111,130,151,171,191,212,230,250,272,291,310,331,352,372,391,411,429,450,470,491,510,530,550,571,590,610,631,650,670,690,711,730,749,770,790,810,831,851,870,891,909,931,950,971,990,1010,1031,1050,1071,1091,1110,1130,1150,1170,1189,1210,1230,1250,1270,1291,1309],"xSR":741.5,"ySR":573.95,"xT1":424.9,"yT1":0,"xT2":1058.1,"yT2":0,"toosoon":0,"cond_shown":"Incongruent","ratio_trial":200,"L_num":4,"L_den":30,"R_num":1,"R_den":3,"correct_side":2,"subjID":"SaritaPulidoBonilla28","gender":"saritapulidobonilla","school":"9","age":"No_age"},{"start_time":1552308636251,"click_time":1552308637042,"finger_time":1552308636682,"fix_duration":1227.3446654880356,"trial":7,"RT":431,"MT":360,"sideResp":2,"stimulus":[],"xmouse":[789,789,789,789,789,789,789,789,789,789,789,789,789,789,789,789,789,789,789,789,787,784,781,780,780,784,791,796,812,837,854,879,909,963,988,1015,1030,1041,1047,1060],"ymouse":[631,631,631,631,631,631,631,631,631,631,631,631,631,631,631,631,631,631,631,621,592,569,550,533,504,486,463,440,386,299,261,227,194,142,118,97,79,60,43,21],"timestamp_mouse":[11,41,51,72,92,110,130,151,171,192,212,230,251,272,292,311,331,351,372,391,411,431,451,470,491,512,531,551,571,591,612,631,651,672,691,711,731,751,771,791],"xSR":741.5,"ySR":573.95,"xT1":424.9,"yT1":0,"xT2":1058.1,"yT2":0,"toosoon":0,"cond_shown":"Congruent","ratio_trial":200,"L_num":9,"L_den":30,"R_num":13,"R_den":26,"correct_side":2,"subjID":"SaritaPulidoBonilla28","gender":"saritapulidobonilla","school":"9","age":"No_age"},{"start_time":1552308638785,"click_time":1552308639602,"finger_time":1552308639182,"fix_duration":660.3214424615772,"trial":8,"RT":397,"MT":420,"sideResp":2,"stimulus":[],"xmouse":[775,775,775,775,775,775,775,775,775,775,775,775,775,775,775,775,776,781,787,792,800,817,824,834,846,859,873,908,925,942,958,978,996,1003,1012,1019,1026,1041,1048,1055,1061],"ymouse":[620,620,620,620,620,620,620,620,620,620,620,620,620,620,620,620,617,604,590,573,546,505,485,464,443,422,398,346,321,290,259,218,179,163,146,134,122,96,83,71,60],"timestamp_mouse":[18,37,58,77,97,118,137,157,176,197,216,238,257,278,296,318,337,357,377,397,417,438,457,477,497,517,537,557,577,597,616,637,657,677,696,717,738,757,777,798,817],"xSR":741.5,"ySR":573.95,"xT1":424.9,"yT1":0,"xT2":1058.1,"yT2":0,"toosoon":0,"cond_shown":"Incongruent","ratio_trial":100,"L_num":9,"L_den":10,"R_num":20,"R_den":25,"correct_side":1,"subjID":"SaritaPulidoBonilla28","gender":"saritapulidobonilla","school":"9","age":"No_age"},{"start_time":1552308641643,"click_time":1552308642623,"finger_time":1552308642222,"fix_duration":839.6854129614857,"trial":9,"RT":579,"MT":401,"sideResp":1,"stimulus":[],"xmouse":[838,839,839,839,839,839,839,839,839,839,839,839,839,839,839,839,839,839,839,839,839,839,839,839,839,839,839,838,823,784,701,687,681,678,677,675,674,672,671,667,653,644,633,620,593,580,568,557,545,516],"ymouse":[599,598,597,597,597,597,597,597,597,597,597,597,597,597,597,597,597,597,597,597,597,597,597,597,597,597,597,592,576,530,430,411,400,391,375,366,357,347,337,325,287,273,255,239,201,183,165,149,129,81],"timestamp_mouse":[1,22,50,58,79,98,120,140,160,179,199,219,240,260,279,299,319,339,358,379,400,420,440,459,480,498,518,539,559,579,599,619,638,659,680,698,719,739,759,779,798,819,840,859,880,899,918,938,959,980],"xSR":741.5,"ySR":573.95,"xT1":424.9,"yT1":0,"xT2":1058.1,"yT2":0,"toosoon":0,"cond_shown":"Incongruent","ratio_trial":100,"L_num":12,"L_den":30,"R_num":2,"R_den":4,"correct_side":2,"subjID":"SaritaPulidoBonilla28","gender":"saritapulidobonilla","school":"9","age":"No_age"},{"start_time":1552308653832,"click_time":1552308654803,"finger_time":1552308654363,"fix_duration":506.25372689502547,"trial":10,"RT":531,"MT":440,"sideResp":2,"stimulus":[],"xmouse":[841,841,841,841,841,840,839,838,835,828,823,821,817,816,816,816,816,816,816,816,816,816,816,816,816,827,835,843,853,871,882,890,900,911,924,946,957,966,971,984,1000,1009,1021,1033,1052,1061,1066,1071,1075],"ymouse":[591,591,591,591,591,591,591,591,591,592,594,594,596,597,597,597,597,597,597,597,597,597,597,597,591,574,556,536,514,471,441,420,399,380,364,338,324,312,299,269,246,230,214,198,164,144,126,109,93],"timestamp_mouse":[10,40,50,70,91,110,131,150,170,191,211,230,249,270,290,311,331,351,371,389,410,430,449,471,491,510,531,550,570,590,610,631,650,670,690,710,736,750,769,791,810,830,850,870,890,910,931,950,971],"xSR":741.5,"ySR":573.95,"xT1":424.9,"yT1":0,"xT2":1058.1,"yT2":0,"toosoon":0,"cond_shown":"Incongruent","ratio_trial":200,"L_num":1,"L_den":3,"R_num":2,"R_den":15,"correct_side":1,"subjID":"SaritaPulidoBonilla28","gender":"saritapulidobonilla","school":"9","age":"No_age"},{"start_time":1552308657784,"click_time":1552308659043,"finger_time":1552308658642,"fix_duration":1420.0365536851539,"trial":11,"RT":858,"MT":401,"sideResp":2,"stimulus":[],"xmouse":[780,780,780,780,780,780,780,780,780,780,780,780,780,780,780,780,780,780,780,780,780,780,780,780,780,780,780,780,780,780,780,780,780,780,780,780,780,780,780,780,789,815,833,846,857,866,877,906,919,933,948,992,1005,1017,1028,1038,1045,1058,1066,1076,1087,1100,1124],"ymouse":[621,621,621,621,621,621,621,621,621,621,621,621,621,621,621,621,621,621,621,621,621,621,621,621,621,621,621,621,621,621,621,621,621,621,621,621,621,621,621,621,612,581,560,539,518,497,477,429,410,392,373,325,304,283,265,247,228,200,183,167,147,123,69],"timestamp_mouse":[19,39,58,78,99,118,138,157,179,198,219,238,257,278,297,318,339,359,379,399,418,439,459,479,497,518,539,558,578,598,619,638,659,679,698,718,737,759,779,798,818,839,858,878,899,918,938,957,979,998,1019,1039,1058,1078,1098,1118,1138,1158,1179,1199,1219,1238,1259],"xSR":741.5,"ySR":573.95,"xT1":424.9,"yT1":0,"xT2":1058.1,"yT2":0,"toosoon":0,"cond_shown":"Incongruent","ratio_trial":300,"L_num":4,"L_den":20,"R_num":2,"R_den":4,"correct_side":2,"subjID":"SaritaPulidoBonilla28","gender":"saritapulidobonilla","school":"9","age":"No_age"},{"start_time":1552308660584,"click_time":1552308661442,"finger_time":1552308661182,"fix_duration":639.1013477796258,"trial":12,"RT":598,"MT":260,"sideResp":1,"stimulus":[],"xmouse":[808,807,807,800,797,794,789,789,789,789,789,789,789,789,789,789,789,789,789,789,789,789,789,789,789,789,781,768,753,729,686,646,622,609,601,596,593,586,578,561,543,529,510],"ymouse":[668,662,662,647,639,632,624,623,623,623,623,623,623,623,623,623,623,623,623,623,623,623,623,623,623,623,613,597,581,561,521,483,452,435,419,405,387,337,297,238,175,124,55],"timestamp_mouse":[19,54,57,77,99,119,139,157,178,199,218,238,257,278,298,318,337,358,378,398,417,439,459,478,499,518,539,558,578,598,618,639,657,678,699,718,739,758,778,798,818,838,857],"xSR":741.5,"ySR":573.95,"xT1":424.9,"yT1":0,"xT2":1058.1,"yT2":0,"toosoon":0,"cond_shown":"Congruent","ratio_trial":300,"L_num":4,"L_den":10,"R_num":1,"R_den":10,"correct_side":1,"subjID":"SaritaPulidoBonilla28","gender":"saritapulidobonilla","school":"9","age":"No_age"},{"start_time":1552308667051,"click_time":1552308667942,"finger_time":1552308667341,"fix_duration":1067.9749272252873,"trial":13,"RT":290,"MT":601,"sideResp":2,"stimulus":[],"xmouse":[804,805,805,805,806,806,806,807,807,808,808,808,809,810,814,819,825,837,865,891,909,926,945,958,969,976,977,977,977,977,978,981,983,985,985,985,985,985,985,985,985,987,1001,1054,1092],"ymouse":[601,599,598,598,595,594,592,591,590,587,586,584,582,577,565,555,541,523,483,444,415,384,336,277,189,152,117,87,76,68,64,57,53,50,49,49,49,49,49,49,49,48,48,61,72],"timestamp_mouse":[14,32,53,72,91,110,132,151,171,192,211,232,251,271,290,311,331,350,372,391,411,432,451,471,491,512,531,552,571,591,611,631,652,672,691,711,730,750,772,791,811,831,851,872,891],"xSR":741.5,"ySR":573.95,"xT1":424.9,"yT1":0,"xT2":1058.1,"yT2":0,"toosoon":0,"cond_shown":"Congruent","ratio_trial":100,"L_num":12,"L_den":30,"R_num":13,"R_den":26,"correct_side":2,"subjID":"SaritaPulidoBonilla28","gender":"saritapulidobonilla","school":"9","age":"No_age"},{"start_time":1552308669714,"click_time":1552308670623,"finger_time":1552308670283,"fix_duration":729.8059586871626,"trial":14,"RT":569,"MT":340,"sideResp":2,"stimulus":[],"xmouse":[793,793,793,793,793,793,793,793,793,793,793,793,793,793,793,793,793,793,793,793,793,793,792,792,792,792,795,801,807,815,838,852,868,886,902,953,971,986,1002,1017,1043,1054,1062,1069,1077,1096],"ymouse":[628,628,628,628,628,628,628,628,628,628,628,628,628,628,628,628,628,628,628,628,625,616,612,610,608,599,591,579,566,547,492,460,417,374,341,282,260,239,216,195,158,141,126,114,105,85],"timestamp_mouse":[14,39,48,67,89,108,129,147,169,188,208,228,249,268,289,308,328,348,369,388,408,428,449,468,488,509,528,548,569,589,609,627,648,668,688,709,727,748,769,789,809,827,848,868,888,908],"xSR":741.5,"ySR":573.95,"xT1":424.9,"yT1":0,"xT2":1058.1,"yT2":0,"toosoon":0,"cond_shown":"Incongruent","ratio_trial":200,"L_num":1,"L_den":3,"R_num":2,"R_den":15,"correct_side":1,"subjID":"SaritaPulidoBonilla28","gender":"saritapulidobonilla","school":"9","age":"No_age"},{"start_time":1552308672959,"click_time":1552308673883,"finger_time":1552308673562,"fix_duration":936.3415239028676,"trial":15,"RT":603,"MT":321,"sideResp":2,"stimulus":[],"xmouse":[827,827,827,827,827,827,827,827,827,827,827,827,827,827,827,827,827,827,827,827,827,827,827,827,827,827,827,827,828,838,852,875,906,957,1010,1024,1037,1045,1055,1073,1083,1092,1098,1105,1110,1113,1116],"ymouse":[615,615,615,615,615,615,615,615,615,615,615,615,615,615,615,615,615,615,615,615,615,615,615,615,615,615,615,615,615,603,581,549,505,434,350,323,299,279,255,212,189,170,155,137,115,105,97],"timestamp_mouse":[9,23,43,64,83,104,123,143,163,183,202,224,243,263,284,303,324,344,363,384,404,424,443,463,484,504,523,544,563,583,602,624,643,663,683,704,724,743,763,783,804,823,843,863,883,903,924],"xSR":741.5,"ySR":573.95,"xT1":424.9,"yT1":0,"xT2":1058.1,"yT2":0,"toosoon":0,"cond_shown":"Congruent","ratio_trial":100,"L_num":11,"L_den":22,"R_num":6,"R_den":15,"correct_side":1,"subjID":"SaritaPulidoBonilla28","gender":"saritapulidobonilla","school":"9","age":"No_age"},{"start_time":1552308678936,"click_time":1552308679623,"finger_time":1552308679303,"fix_duration":510.94232830284216,"trial":16,"RT":367,"MT":320,"sideResp":1,"stimulus":[],"xmouse":[761,761,761,761,761,761,761,761,761,761,761,761,761,761,761,761,761,759,748,707,684,667,655,647,637,632,625,617,606,591,565,554,544,533,505],"ymouse":[642,642,642,642,642,642,642,642,642,642,642,642,642,642,642,641,624,598,563,468,424,386,358,339,289,263,235,211,187,163,128,117,106,96,77],"timestamp_mouse":[9,40,45,65,86,105,127,146,167,187,206,227,247,266,287,306,326,347,367,387,406,426,445,466,487,505,527,546,566,587,606,626,646,666,687],"xSR":741.5,"ySR":573.95,"xT1":424.9,"yT1":0,"xT2":1058.1,"yT2":0,"toosoon":0,"cond_shown":"Congruent","ratio_trial":100,"L_num":11,"L_den":22,"R_num":4,"R_den":10,"correct_side":1,"subjID":"SaritaPulidoBonilla28","gender":"saritapulidobonilla","school":"9","age":"No_age"},{"start_time":1552308681958,"click_time":1552308682742,"finger_time":1552308682242,"fix_duration":1133.2421301217048,"trial":17,"RT":284,"MT":500,"sideResp":1,"stimulus":[],"xmouse":[827,827,827,827,827,827,827,827,827,827,827,827,827,821,756,712,677,659,653,654,663,674,681,685,685,683,681,679,678,673,669,662,653,642,610,596,581,564,548,519],"ymouse":[647,647,647,647,647,647,647,647,647,647,647,647,639,631,552,500,454,424,387,362,327,288,254,195,178,165,158,152,147,138,131,123,113,104,82,74,65,57,47,29],"timestamp_mouse":[9,23,44,64,84,104,124,143,165,184,205,224,245,264,284,303,325,344,365,385,404,424,444,465,484,503,523,544,564,584,604,625,644,663,683,704,724,745,765,784],"xSR":741.5,"ySR":573.95,"xT1":424.9,"yT1":0,"xT2":1058.1,"yT2":0,"toosoon":0,"cond_shown":"Congruent","ratio_trial":200,"L_num":3,"L_den":6,"R_num":14,"R_den":20,"correct_side":2,"subjID":"SaritaPulidoBonilla28","gender":"saritapulidobonilla","school":"9","age":"No_age"},{"start_time":1552308686050,"click_time":1552308686663,"finger_time":1552308686522,"fix_duration":447.85353790844385,"trial":18,"RT":472,"MT":141,"sideResp":2,"stimulus":[],"xmouse":[836,836,836,836,836,836,836,836,836,836,827,809,796,789,787,787,787,787,787,787,786,787,796,807,848,875,910,952,1015,1049,1069],"ymouse":[648,648,648,648,648,648,648,648,648,648,648,644,640,638,637,637,637,637,637,637,635,617,598,572,501,451,387,322,206,129,78],"timestamp_mouse":[11,39,51,73,92,113,132,153,171,192,212,232,253,272,293,311,331,353,373,392,412,433,453,472,492,512,532,552,573,591,613],"xSR":741.5,"ySR":573.95,"xT1":424.9,"yT1":0,"xT2":1058.1,"yT2":0,"toosoon":0,"cond_shown":"Congruent","ratio_trial":200,"L_num":8,"L_den":15,"R_num":3,"R_den":9,"correct_side":1,"subjID":"SaritaPulidoBonilla28","gender":"saritapulidobonilla","school":"9","age":"No_age"},{"start_time":1552308689508,"click_time":1552308690423,"finger_time":1552308689942,"fix_duration":1145.5245326361699,"trial":19,"RT":434,"MT":481,"sideResp":1,"stimulus":[],"xmouse":[802,802,802,802,802,802,802,802,802,802,802,802,802,802,802,802,802,802,802,799,793,729,682,620,557,499,422,419,419,419,419,419,419,419,419,419,419,419,419,419,419,419,419,419,419,425],"ymouse":[627,627,627,627,627,627,627,627,627,627,627,627,627,627,627,627,627,627,627,621,606,500,434,354,272,190,51,24,11,0,0,0,0,0,0,0,0,0,0,0,0,0,0,0,2,23],"timestamp_mouse":[15,42,53,73,94,114,133,154,175,195,214,234,254,275,295,313,333,355,375,394,413,434,454,475,494,514,535,554,575,594,615,635,654,674,694,715,734,755,775,795,815,833,855,874,895,915],"xSR":741.5,"ySR":573.95,"xT1":424.9,"yT1":0,"xT2":1058.1,"yT2":0,"toosoon":0,"cond_shown":"Incongruent","ratio_trial":100,"L_num":9,"L_den":18,"R_num":6,"R_den":10,"correct_side":2,"subjID":"SaritaPulidoBonilla28","gender":"saritapulidobonilla","school":"9","age":"No_age"},{"start_time":1552308696813,"click_time":1552308697741,"finger_time":1552308697221,"fix_duration":1131.8651465268088,"trial":20,"RT":408,"MT":520,"sideResp":2,"stimulus":[],"xmouse":[761,761,761,761,761,761,761,761,761,761,761,761,761,761,761,761,761,773,794,826,888,916,930,944,956,964,976,982,989,994,1013,1018,1022,1025,1026,1026,1027,1027,1027,1027,1027,1027,1027,1029,1033,1057,1067],"ymouse":[648,648,648,648,648,648,648,648,648,648,648,648,648,648,648,648,648,638,617,584,494,428,388,349,317,291,246,224,200,181,130,114,104,94,87,84,83,83,83,83,83,83,83,81,77,66,62],"timestamp_mouse":[11,28,48,69,87,108,129,148,167,187,207,229,249,268,287,308,328,347,369,388,408,427,449,467,487,508,527,548,568,588,609,628,648,668,688,707,727,747,769,788,807,827,847,867,888,908,927],"xSR":741.5,"ySR":573.95,"xT1":424.9,"yT1":0,"xT2":1058.1,"yT2":0,"toosoon":0,"cond_shown":"Incongruent","ratio_trial":300,"L_num":3,"L_den":6,"R_num":4,"R_den":20,"correct_side":1,"subjID":"SaritaPulidoBonilla28","gender":"saritapulidobonilla","school":"9","age":"No_age"},{"start_time":1552308700649,"click_time":1552308701601,"finger_time":1552308701122,"fix_duration":1247.1062023905913,"trial":21,"RT":473,"MT":479,"sideResp":1,"stimulus":[],"xmouse":[785,785,785,785,785,785,785,785,785,785,785,785,785,785,785,785,785,785,785,785,785,785,777,751,720,688,663,650,640,634,631,627,623,616,613,611,608,605,602,583,574,565,556,541,535,528,525,524],"ymouse":[603,603,603,603,603,603,603,603,603,603,603,603,603,603,603,603,603,603,603,603,603,603,589,552,517,482,450,432,405,367,346,320,295,248,230,215,195,174,154,99,77,58,42,20,14,10,8,8],"timestamp_mouse":[11,43,52,71,92,111,131,152,171,192,212,232,253,273,292,313,333,353,373,393,412,432,451,473,491,512,532,552,571,592,612,631,652,672,692,712,733,751,772,792,812,831,852,872,891,912,931,952],"xSR":741.5,"ySR":573.95,"xT1":424.9,"yT1":0,"xT2":1058.1,"yT2":0,"toosoon":0,"cond_shown":"Congruent","ratio_trial":200,"L_num":6,"L_den":15,"R_num":3,"R_den":15,"correct_side":1,"subjID":"SaritaPulidoBonilla28","gender":"saritapulidobonilla","school":"9","age":"No_age"},{"start_time":1552308705323,"click_time":1552308706441,"finger_time":1552308705841,"fix_duration":761.9185632867338,"trial":22,"RT":518,"MT":600,"sideResp":2,"stimulus":[],"xmouse":[748,749,749,750,750,750,750,750,750,750,750,750,750,750,750,751,751,751,751,751,751,751,757,760,771,814,850,895,935,966,991,991,988,986,986,986,986,986,986,990,999,1005,1012,1016,1016,1016,1019,1024,1031,1038,1047,1048,1048,1049,1050,1060],"ymouse":[593,597,597,598,599,599,599,599,599,599,599,599,599,599,600,601,601,601,601,601,601,601,601,599,590,552,509,446,377,304,156,91,51,32,27,27,27,27,27,26,24,24,23,22,22,22,23,31,38,41,41,41,41,41,41,41],"timestamp_mouse":[19,40,59,79,98,119,138,157,178,199,217,237,258,279,297,318,338,357,377,398,419,439,457,477,498,518,537,558,577,598,618,638,658,678,698,717,737,758,777,799,818,838,857,877,899,918,937,959,978,998,1017,1037,1058,1078,1097,1117],"xSR":741.5,"ySR":573.95,"xT1":424.9,"yT1":0,"xT2":1058.1,"yT2":0,"toosoon":0,"cond_shown":"Incongruent","ratio_trial":200,"L_num":7,"L_den":10,"R_num":14,"R_den":28,"correct_side":1,"subjID":"SaritaPulidoBonilla28","gender":"saritapulidobonilla","school":"9","age":"No_age"},{"start_time":1552308709635,"click_time":1552308710521,"finger_time":1552308710100,"fix_duration":592.8877951557531,"trial":23,"RT":465,"MT":421,"sideResp":1,"stimulus":[],"xmouse":[816,816,816,816,816,816,816,816,816,816,816,816,816,816,816,816,816,816,816,817,818,818,812,804,779,768,761,755,752,750,744,739,733,725,714,684,668,651,637,614,588,571,555,541,519],"ymouse":[618,618,618,618,618,618,618,618,618,618,618,618,618,618,618,618,618,618,618,618,609,597,576,556,513,494,476,465,457,451,435,425,412,397,377,334,313,288,262,214,153,122,97,75,43],"timestamp_mouse":[7,37,45,66,86,107,126,145,165,186,207,226,246,266,287,306,325,345,367,385,407,425,445,465,486,506,525,545,565,585,605,626,646,666,685,706,726,745,767,785,806,826,845,866,886],"xSR":741.5,"ySR":573.95,"xT1":424.9,"yT1":0,"xT2":1058.1,"yT2":0,"toosoon":0,"cond_shown":"Congruent","ratio_trial":200,"L_num":9,"L_den":30,"R_num":13,"R_den":26,"correct_side":2,"subjID":"SaritaPulidoBonilla28","gender":"saritapulidobonilla","school":"9","age":"No_age"},{"start_time":1552308712505,"click_time":1552308713381,"finger_time":1552308712981,"fix_duration":323.4282397324998,"trial":24,"RT":476,"MT":400,"sideResp":2,"stimulus":[],"xmouse":[792,792,792,792,792,792,792,792,792,792,792,792,792,792,792,792,792,792,792,792,793,811,838,876,917,943,962,962,962,965,970,983,990,996,1002,1015,1017,1022,1026,1031,1036,1047,1054,1061],"ymouse":[630,630,630,630,630,630,630,630,630,630,630,630,630,630,630,630,630,630,630,630,629,606,579,546,502,452,343,313,293,280,267,236,221,208,193,163,153,144,134,128,121,105,98,89],"timestamp_mouse":[15,40,56,76,95,115,136,156,175,196,215,236,256,275,296,316,336,355,377,395,415,435,457,476,497,516,537,555,576,596,616,635,657,676,696,717,735,757,775,795,817,836,856,876],"xSR":741.5,"ySR":573.95,"xT1":424.9,"yT1":0,"xT2":1058.1,"yT2":0,"toosoon":0,"cond_shown":"Congruent","ratio_trial":200,"L_num":1,"L_den":2,"R_num":21,"R_den":30,"correct_side":2,"subjID":"SaritaPulidoBonilla28","gender":"saritapulidobonilla","school":"9","age":"No_age"},{"start_time":1552308716807,"click_time":1552308717301,"finger_time":1552308717221,"fix_duration":644.046887732515,"trial":25,"RT":414,"MT":80,"sideResp":1,"stimulus":[],"xmouse":[815,815,815,815,815,815,815,815,815,815,815,815,815,815,815,815,815,815,815,815,805,725,654,568,477],"ymouse":[608,608,608,608,608,608,608,608,608,608,608,608,608,608,608,608,608,608,608,608,571,422,314,203,93],"timestamp_mouse":[13,35,54,73,112,114,133,153,174,195,214,233,253,274,295,315,333,353,375,394,414,435,454,475,494],"xSR":741.5,"ySR":573.95,"xT1":424.9,"yT1":0,"xT2":1058.1,"yT2":0,"toosoon":0,"cond_shown":"Incongruent","ratio_trial":300,"L_num":1,"L_den":2,"R_num":3,"R_den":15,"correct_side":1,"subjID":"SaritaPulidoBonilla28","gender":"saritapulidobonilla","school":"9","age":"No_age"},{"start_time":1552308721354,"click_time":1552308722221,"finger_time":1552308721720,"fix_duration":452.92734300682815,"trial":26,"RT":366,"MT":501,"sideResp":2,"stimulus":[],"xmouse":[788,788,788,788,788,788,788,788,788,788,788,788,788,788,788,791,796,803,814,834,845,857,870,888,913,925,938,951,963,990,998,1005,1010,1016,1029,1036,1044,1053,1073,1083,1091,1098,1107,1133],"ymouse":[600,600,600,600,600,600,600,600,600,600,600,600,600,600,600,598,589,577,561,525,507,487,467,435,393,370,347,324,302,265,249,233,222,211,192,185,178,173,159,151,143,133,123,97],"timestamp_mouse":[10,45,46,67,88,107,128,147,167,187,206,227,246,266,286,306,327,347,366,386,407,427,446,466,487,507,527,546,568,586,606,627,647,667,688,707,727,747,767,787,808,827,848,867],"xSR":741.5,"ySR":573.95,"xT1":424.9,"yT1":0,"xT2":1058.1,"yT2":0,"toosoon":0,"cond_shown":"Congruent","ratio_trial":100,"L_num":9,"L_den":15,"R_num":8,"R_den":16,"correct_side":1,"subjID":"SaritaPulidoBonilla28","gender":"saritapulidobonilla","school":"9","age":"No_age"},{"start_time":1552308724176,"click_time":1552308725220,"finger_time":1552308724702,"fix_duration":612.6292882267187,"trial":27,"RT":526,"MT":518,"sideResp":1,"stimulus":[],"xmouse":[806,806,806,806,806,806,806,806,806,806,806,806,806,806,806,806,806,806,806,806,806,806,806,806,806,803,798,790,785,782,778,776,772,765,760,749,739,719,710,700,687,671,630,618,605,592,579,564,547,540,535,529,519],"ymouse":[601,601,601,601,601,601,601,601,601,601,601,601,601,601,601,601,601,601,601,601,601,601,601,601,601,577,553,508,485,461,439,419,401,362,344,321,303,270,255,238,220,199,147,131,116,101,89,75,59,51,46,39,29],"timestamp_mouse":[13,25,46,64,85,106,124,146,164,184,205,225,244,265,286,305,325,345,365,385,405,425,446,465,484,505,526,546,564,585,605,624,644,666,686,705,724,745,765,786,804,824,846,864,885,905,924,945,964,985,1005,1024,1044],"xSR":741.5,"ySR":573.95,"xT1":424.9,"yT1":0,"xT2":1058.1,"yT2":0,"toosoon":0,"cond_shown":"Incongruent","ratio_trial":300,"L_num":13,"L_den":26,"R_num":12,"R_den":15,"correct_side":2,"subjID":"SaritaPulidoBonilla28","gender":"saritapulidobonilla","school":"9","age":"No_age"},{"start_time":1552308731474,"click_time":1552308732261,"finger_time":1552308731922,"fix_duration":751.2823138308933,"trial":28,"RT":448,"MT":339,"sideResp":2,"stimulus":[],"xmouse":[776,776,776,776,776,776,776,776,776,776,776,776,776,776,776,776,776,776,776,777,786,798,849,898,948,1002,1044,1090,1089,1083,1077,1076,1076,1076,1076,1076,1081,1091,1093,1094],"ymouse":[621,621,621,621,621,621,621,621,621,621,621,621,621,621,621,621,621,621,621,621,617,610,572,536,490,430,372,232,193,169,156,155,155,155,154,152,143,111,101,95],"timestamp_mouse":[10,26,48,67,87,106,127,146,166,187,206,226,248,267,287,307,326,348,367,387,407,427,448,466,486,506,526,548,566,587,606,626,646,666,687,706,727,748,766,787],"xSR":741.5,"ySR":573.95,"xT1":424.9,"yT1":0,"xT2":1058.1,"yT2":0,"toosoon":0,"cond_shown":"Congruent","ratio_trial":100,"L_num":9,"L_den":15,"R_num":8,"R_den":16,"correct_side":1,"subjID":"SaritaPulidoBonilla28","gender":"saritapulidobonilla","school":"9","age":"No_age"},{"start_time":1552308734798,"click_time":1552308736182,"finger_time":1552308735240,"fix_duration":1094.0047319347505,"trial":29,"RT":442,"MT":942,"sideResp":1,"stimulus":[],"xmouse":[777,777,777,777,777,777,777,777,777,777,777,777,777,777,777,777,777,777,777,777,777,777,774,764,750,722,690,632,611,597,587,575,574,570,567,563,551,545,540,537,536,536,536,539,542,545,546,547,547,547,547,547,547,546,546,544,543,541,539,539,538,538,538,538,538,538,538,538,530,512],"ymouse":[610,610,610,610,610,610,610,610,610,610,610,610,610,610,610,610,610,610,610,610,610,603,565,532,490,437,384,301,273,255,240,223,218,210,201,187,156,143,132,125,123,123,123,120,118,115,114,110,106,101,96,91,79,75,73,71,68,65,63,62,61,61,61,61,61,61,61,61,59,54],"timestamp_mouse":[11,22,42,62,83,102,124,144,163,182,204,223,242,264,284,303,322,342,362,383,404,422,442,463,484,503,522,542,564,583,604,624,642,663,682,702,723,743,763,783,803,822,843,862,883,902,923,943,963,982,1003,1023,1042,1063,1083,1103,1122,1143,1163,1184,1204,1223,1243,1262,1283,1302,1322,1342,1363,1384],"xSR":741.5,"ySR":573.95,"xT1":424.9,"yT1":0,"xT2":1058.1,"yT2":0,"toosoon":0,"cond_shown":"Congruent","ratio_trial":200,"L_num":3,"L_den":10,"R_num":7,"R_den":14,"correct_side":2,"subjID":"SaritaPulidoBonilla28","gender":"saritapulidobonilla","school":"9","age":"No_age"},{"start_time":1552308739209,"click_time":1552308739780,"finger_time":1552308739561,"fix_duration":1367.1866346938452,"trial":30,"RT":352,"MT":219,"sideResp":2,"stimulus":[],"xmouse":[814,814,814,814,814,814,814,814,814,814,814,814,814,814,814,815,833,851,887,928,965,1010,1019,1027,1036,1045,1062,1069,1073],"ymouse":[631,631,631,631,631,631,631,631,631,631,631,631,631,631,631,630,612,597,569,523,446,236,186,165,149,137,118,108,98],"timestamp_mouse":[11,31,62,72,92,112,131,153,173,192,212,232,253,273,291,312,331,352,372,391,412,432,451,471,492,512,531,551,571],"xSR":741.5,"ySR":573.95,"xT1":424.9,"yT1":0,"xT2":1058.1,"yT2":0,"toosoon":0,"cond_shown":"Congruent","ratio_trial":300,"L_num":11,"L_den":22,"R_num":1,"R_den":5,"correct_side":1,"subjID":"SaritaPulidoBonilla28","gender":"saritapulidobonilla","school":"9","age":"No_age"},{"start_time":1552308742813,"click_time":1552308743840,"finger_time":1552308743242,"fix_duration":1011.2357135798896,"trial":31,"RT":429,"MT":598,"sideResp":1,"stimulus":[],"xmouse":[796,796,796,796,796,796,796,796,796,796,796,796,796,796,796,796,796,796,796,796,792,785,774,766,760,754,752,749,741,738,717,711,709,706,702,691,683,674,664,651,648,646,645,640,624,616,607,598,582,528,511],"ymouse":[592,592,592,592,592,592,592,592,592,592,592,592,592,592,592,592,592,592,592,579,522,481,445,420,401,379,368,355,330,321,271,257,249,242,236,214,200,186,172,155,151,148,145,139,124,116,108,99,82,40,27],"timestamp_mouse":[33,48,68,89,108,128,147,167,188,207,229,248,267,288,308,327,347,368,387,408,429,448,467,488,507,528,547,567,588,607,628,648,668,688,707,727,747,767,788,808,828,847,868,888,908,927,947,967,988,1009,1027],"xSR":741.5,"ySR":573.95,"xT1":424.9,"yT1":0,"xT2":1058.1,"yT2":0,"toosoon":0,"cond_shown":"Incongruent","ratio_trial":300,"L_num":13,"L_den":26,"R_num":12,"R_den":15,"correct_side":2,"subjID":"SaritaPulidoBonilla28","gender":"saritapulidobonilla","school":"9","age":"No_age"},{"start_time":1552308745354,"click_time":1552308746221,"finger_time":1552308745721,"fix_duration":252.8814256013193,"trial":32,"RT":367,"MT":500,"sideResp":2,"stimulus":[],"xmouse":[815,815,815,815,815,815,815,815,815,815,815,815,815,815,815,816,824,836,868,888,909,930,959,993,1020,1024,1027,1030,1033,1038,1041,1045,1048,1054,1065,1068,1070,1073,1080,1083,1088,1094,1101,1110],"ymouse":[626,626,626,626,626,626,626,626,626,626,626,626,626,626,626,626,621,609,584,569,552,530,495,434,351,324,298,278,262,238,226,216,205,184,156,149,143,138,128,123,117,111,103,91],"timestamp_mouse":[10,41,48,67,88,106,127,147,168,186,207,227,246,267,288,306,328,346,367,387,407,426,447,467,487,507,527,546,566,586,606,626,647,667,687,707,726,747,767,787,808,827,847,867],"xSR":741.5,"ySR":573.95,"xT1":424.9,"yT1":0,"xT2":1058.1,"yT2":0,"toosoon":0,"cond_shown":"Congruent","ratio_trial":100,"L_num":8,"L_den":16,"R_num":2,"R_den":5,"correct_side":1,"subjID":"SaritaPulidoBonilla28","gender":"saritapulidobonilla","school":"9","age":"No_age"},{"start_time":1552308749123,"click_time":1552308750100,"finger_time":1552308749461,"fix_duration":339.2320070793855,"trial":33,"RT":338,"MT":639,"sideResp":1,"stimulus":[],"xmouse":[795,795,795,795,792,790,790,789,789,789,789,789,789,789,789,788,784,774,752,724,662,635,618,610,608,608,608,608,608,608,608,608,608,608,608,608,608,608,608,583,575,573,572,571,569,551,537,525,517],"ymouse":[606,606,606,606,597,593,590,587,587,587,587,587,587,587,587,583,564,527,466,402,236,162,102,72,49,48,48,48,48,48,48,48,48,48,48,48,48,48,48,47,45,45,45,45,45,45,43,43,43],"timestamp_mouse":[18,39,57,78,99,119,138,159,177,198,218,239,259,277,298,318,338,359,377,398,418,438,458,478,498,517,538,557,577,598,618,638,657,677,698,718,738,758,777,798,818,838,858,877,897,917,938,958,977],"xSR":741.5,"ySR":573.95,"xT1":424.9,"yT1":0,"xT2":1058.1,"yT2":0,"toosoon":0,"cond_shown":"Congruent","ratio_trial":300,"L_num":5,"L_den":25,"R_num":7,"R_den":14,"correct_side":2,"subjID":"SaritaPulidoBonilla28","gender":"saritapulidobonilla","school":"9","age":"No_age"},{"start_time":1552308752549,"click_time":1552308753182,"finger_time":1552308752820,"fix_duration":1207.0475273523286,"trial":34,"RT":271,"MT":362,"sideResp":2,"stimulus":[],"xmouse":[821,821,821,821,821,821,821,824,827,828,830,835,841,853,888,908,936,966,993,1037,1052,1060,1065,1077,1081,1083,1083,1083,1083,1083,1085,1086],"ymouse":[609,609,609,609,609,609,609,604,601,598,596,591,585,573,543,523,491,454,413,334,301,279,264,221,206,191,176,159,130,117,106,97],"timestamp_mouse":[14,32,53,72,91,111,132,151,173,191,212,231,251,271,293,313,332,351,371,391,412,432,452,472,491,512,533,552,573,591,612,633],"xSR":741.5,"ySR":573.95,"xT1":424.9,"yT1":0,"xT2":1058.1,"yT2":0,"toosoon":0,"cond_shown":"Congruent","ratio_trial":200,"L_num":8,"L_den":15,"R_num":2,"R_den":6,"correct_side":1,"subjID":"SaritaPulidoBonilla28","gender":"saritapulidobonilla","school":"9","age":"No_age"},{"start_time":1552308754643,"click_time":1552308758642,"finger_time":1552308758201,"fix_duration":299.89649690236496,"trial":35,"RT":3558,"MT":441,"sideResp":1,"stimulus":[],"xmouse":[797,797,797,797,797,797,797,797,797,797,797,797,797,797,797,797,797,797,797,797,797,797,797,797,797,797,797,797,797,797,797,797,797,797,797,797,797,797,797,797,797,797,797,797,797,797,797,797,797,797,797,797,797,797,797,797,797,797,797,797,797,797,797,797,797,797,797,797,797,798,799,799,799,799,799,799,799,799,799,799,799,799,799,799,799,799,799,799,799,799,799,799,799,799,799,799,799,799,799,799,799,799,799,799,799,799,799,799,799,799,799,799,799,799,799,799,799,799,799,799,799,799,799,799,799,799,799,799,799,799,799,799,799,799,799,799,799,799,799,799,799,799,799,799,799,799,799,799,799,799,799,799,799,799,799,799,799,799,799,799,799,799,799,799,799,799,799,799,799,799,799,799,799,799,799,799,799,799,799,796,752,716,670,627,591,562,558,557,557,557,557,557,557,557,557,557,557,557,557,556,524],"ymouse":[603,603,603,603,603,603,603,603,603,603,603,603,603,603,603,603,603,603,603,603,603,603,603,603,603,603,603,603,603,603,603,603,603,603,603,603,603,603,603,603,603,603,603,603,603,603,603,603,603,603,603,603,603,603,603,603,603,603,603,603,603,603,603,603,603,603,603,603,600,597,595,594,593,593,593,593,593,593,593,593,593,593,593,593,593,593,593,593,593,593,593,593,593,593,593,593,593,593,593,593,593,593,593,593,593,593,593,593,593,593,593,593,593,593,593,593,593,593,593,593,593,593,593,593,593,593,593,588,586,584,584,584,584,584,584,584,584,584,584,584,584,584,584,584,584,584,584,584,584,584,584,584,584,584,584,584,584,584,584,584,584,584,584,584,584,584,584,584,584,584,584,584,584,584,584,584,584,580,569,546,423,340,262,187,138,92,84,83,83,83,83,83,83,83,83,83,83,83,83,81,70],"timestamp_mouse":[1,18,41,59,80,98,118,140,159,179,198,219,239,258,278,298,318,338,358,378,399,418,438,459,478,500,518,538,558,579,598,619,638,659,680,698,718,739,759,779,799,820,838,858,878,900,918,939,958,979,998,1019,1039,1059,1080,1099,1119,1139,1159,1179,1198,1219,1238,1260,1279,1299,1319,1338,1359,1379,1398,1419,1439,1458,1479,1499,1518,1539,1559,1578,1598,1618,1638,1658,1678,1698,1719,1738,1758,1779,1798,1818,1838,1859,1878,1900,1919,1938,1958,1979,1998,2018,2040,2059,2078,2098,2119,2139,2159,2179,2198,2219,2239,2259,2278,2298,2318,2339,2358,2378,2398,2420,2440,2458,2479,2499,2518,2538,2558,2579,2599,2618,2639,2658,2678,2699,2719,2738,2760,2779,2799,2819,2839,2859,2878,2899,2919,2939,2959,2979,2998,3018,3038,3058,3079,3099,3119,3139,3160,3178,3199,3219,3239,3259,3278,3298,3319,3339,3358,3378,3398,3418,3438,3458,3479,3498,3518,3538,3558,3579,3599,3618,3638,3658,3678,3698,3719,3740,3758,3780,3800,3819,3838,3858,3880,3900,3920,3938,3958,3978,3999],"xSR":741.5,"ySR":573.95,"xT1":424.9,"yT1":0,"xT2":1058.1,"yT2":0,"toosoon":0,"cond_shown":"Incongruent","ratio_trial":300,"L_num":8,"L_den":10,"R_num":14,"R_den":28,"correct_side":1,"subjID":"SaritaPulidoBonilla28","gender":"saritapulidobonilla","school":"9","age":"No_age"},{"start_time":1552308760018,"click_time":1552308760841,"finger_time":1552308760461,"fix_duration":294.74594773933484,"trial":36,"RT":443,"MT":380,"sideResp":1,"stimulus":[],"xmouse":[778,781,783,784,785,785,785,785,785,785,785,785,785,785,785,785,785,785,785,786,786,785,780,774,769,762,749,743,740,737,735,727,719,701,674,609,586,572,559,543,518,512],"ymouse":[632,632,631,629,629,629,629,629,629,629,629,629,629,629,629,629,629,629,629,623,607,586,571,558,546,533,507,496,488,484,479,460,447,414,366,259,224,201,181,152,108,93],"timestamp_mouse":[4,24,43,64,83,103,125,144,164,184,203,224,244,264,283,304,324,344,363,384,404,423,443,463,484,503,523,544,564,583,603,624,643,663,684,704,723,744,764,784,804,823],"xSR":741.5,"ySR":573.95,"xT1":424.9,"yT1":0,"xT2":1058.1,"yT2":0,"toosoon":0,"cond_shown":"Congruent","ratio_trial":100,"L_num":7,"L_den":14,"R_num":9,"R_den":15,"correct_side":2,"subjID":"SaritaPulidoBonilla28","gender":"saritapulidobonilla","school":"9","age":"No_age"},{"start_time":1552308764331,"click_time":1552308765202,"finger_time":1552308764682,"fix_duration":926.9098184621835,"trial":37,"RT":351,"MT":520,"sideResp":2,"stimulus":[],"xmouse":[772,772,772,772,772,772,772,772,772,772,772,772,772,772,772,781,798,820,846,873,919,938,945,951,955,969,973,975,977,980,981,982,984,985,986,1000,1009,1015,1020,1029,1042,1051,1056,1060],"ymouse":[606,606,606,606,606,606,606,606,606,606,606,606,606,606,606,599,588,570,544,507,407,344,282,216,202,154,143,134,129,120,116,113,111,108,107,105,103,102,101,98,96,95,93,92],"timestamp_mouse":[10,42,51,70,90,110,130,150,170,190,211,230,251,270,290,311,330,351,371,390,410,431,450,470,491,510,531,551,570,591,610,630,650,671,690,710,730,751,771,790,810,830,850,871],"xSR":741.5,"ySR":573.95,"xT1":424.9,"yT1":0,"xT2":1058.1,"yT2":0,"toosoon":0,"cond_shown":"Congruent","ratio_trial":300,"L_num":20,"L_den":25,"R_num":13,"R_den":26,"correct_side":1,"subjID":"SaritaPulidoBonilla28","gender":"saritapulidobonilla","school":"9","age":"No_age"},{"start_time":1552308766699,"click_time":1552308767741,"finger_time":1552308767282,"fix_duration":275.7917862686672,"trial":38,"RT":583,"MT":459,"sideResp":1,"stimulus":[],"xmouse":[841,841,841,841,841,841,841,841,841,841,841,841,841,841,841,840,838,831,827,825,823,815,808,799,792,788,786,785,783,771,739,617,530,445,381,350,343,343,343,343,343,343,343,343,343,343,343,343,353,373,396,420,454],"ymouse":[585,585,585,585,585,585,585,585,585,585,585,585,585,585,585,587,587,589,590,591,591,594,597,598,600,600,600,599,582,541,461,199,28,0,0,0,0,0,0,0,0,0,0,0,0,0,0,0,17,39,56,71,90],"timestamp_mouse":[10,23,51,64,83,102,124,142,162,182,202,224,242,262,283,303,323,343,362,383,403,423,442,464,482,502,522,542,562,583,602,623,642,662,682,702,723,742,763,783,802,822,843,862,883,902,923,942,962,983,1002,1022,1042],"xSR":741.5,"ySR":573.95,"xT1":424.9,"yT1":0,"xT2":1058.1,"yT2":0,"toosoon":0,"cond_shown":"Congruent","ratio_trial":300,"L_num":18,"L_den":20,"R_num":9,"R_den":15,"correct_side":1,"subjID":"SaritaPulidoBonilla28","gender":"saritapulidobonilla","school":"9","age":"No_age"},{"start_time":1552308769614,"click_time":1552308770302,"finger_time":1552308769961,"fix_duration":250,"trial":39,"RT":347,"MT":341,"sideResp":2,"stimulus":[],"xmouse":[779,779,779,779,779,779,779,779,779,779,779,782,786,791,798,808,830,844,858,872,901,944,964,985,1010,1033,1038,1039,1039,1039,1048,1052,1056,1058,1060],"ymouse":[624,624,624,624,624,624,624,624,624,624,624,621,619,615,610,601,581,566,549,528,480,406,373,343,307,251,219,188,159,136,98,84,70,57,42],"timestamp_mouse":[9,27,55,67,88,107,127,147,167,187,208,228,247,267,288,309,327,347,367,388,407,427,447,467,487,508,527,547,567,588,608,627,647,668,687],"xSR":741.5,"ySR":573.95,"xT1":424.9,"yT1":0,"xT2":1058.1,"yT2":0,"toosoon":0,"cond_shown":"Incongruent","ratio_trial":100,"L_num":6,"L_den":10,"R_num":13,"R_den":26,"correct_side":1,"subjID":"SaritaPulidoBonilla28","gender":"saritapulidobonilla","school":"9","age":"No_age"},{"start_time":1552308773466,"click_time":1552308774481,"finger_time":1552308773842,"fix_duration":1483.7554389028098,"trial":40,"RT":376,"MT":639,"sideResp":1,"stimulus":[],"xmouse":[766,766,766,766,766,766,766,766,766,766,766,766,766,766,766,766,766,765,754,751,747,740,724,714,704,693,675,638,592,580,571,569,568,566,565,562,559,556,556,556,556,556,556,557,557,557,557,557,544,534,524],"ymouse":[606,606,606,606,606,606,606,606,606,606,606,606,606,606,606,606,600,596,570,564,554,538,499,482,462,441,417,371,315,297,282,272,261,255,245,234,222,202,198,193,189,186,180,178,176,172,165,157,122,106,93],"timestamp_mouse":[15,44,56,77,96,115,136,157,176,195,215,237,257,275,295,315,336,355,376,395,415,435,456,476,495,515,535,556,577,595,615,636,656,675,695,715,736,756,775,795,816,835,856,875,895,916,935,955,975,995,1015],"xSR":741.5,"ySR":573.95,"xT1":424.9,"yT1":0,"xT2":1058.1,"yT2":0,"toosoon":0,"cond_shown":"Congruent","ratio_trial":100,"L_num":6,"L_den":20,"R_num":5,"R_den":25,"correct_side":1,"subjID":"SaritaPulidoBonilla28","gender":"saritapulidobonilla","school":"9","age":"No_age"},{"start_time":1552308782414,"click_time":1552308783141,"finger_time":1552308782782,"fix_duration":1190.5719732982484,"trial":41,"RT":368,"MT":359,"sideResp":2,"stimulus":[],"xmouse":[787,787,787,787,787,787,787,787,787,787,787,787,787,787,787,787,796,810,825,843,868,885,888,892,895,899,919,932,948,961,982,1009,1022,1034,1046,1077,1095],"ymouse":[608,608,608,608,608,608,608,608,608,608,608,608,608,608,608,608,599,585,568,546,507,458,433,412,395,379,343,326,308,290,260,215,192,173,157,117,99],"timestamp_mouse":[12,37,47,68,89,108,128,148,169,187,208,227,248,267,288,307,327,348,368,387,407,427,448,467,487,508,527,548,568,588,607,628,648,668,687,708,727],"xSR":741.5,"ySR":573.95,"xT1":424.9,"yT1":0,"xT2":1058.1,"yT2":0,"toosoon":0,"cond_shown":"Incongruent","ratio_trial":300,"L_num":13,"L_den":26,"R_num":12,"R_den":15,"correct_side":2,"subjID":"SaritaPulidoBonilla28","gender":"saritapulidobonilla","school":"9","age":"No_age"},{"start_time":1552308785114,"click_time":1552308785982,"finger_time":1552308785522,"fix_duration":851.2801524796399,"trial":42,"RT":408,"MT":460,"sideResp":2,"stimulus":[],"xmouse":[830,830,830,830,830,830,830,830,830,830,830,830,830,830,830,830,830,830,830,835,875,904,928,944,957,967,992,998,1003,1006,1013,1018,1025,1030,1035,1039,1047,1050,1053,1057,1072,1085,1096,1108],"ymouse":[614,614,614,614,614,614,614,614,614,614,614,614,614,614,614,614,614,614,607,601,539,489,430,375,331,298,244,232,224,219,212,207,198,191,182,175,163,160,158,155,143,129,113,95],"timestamp_mouse":[14,30,47,67,87,107,128,147,167,187,207,229,247,268,287,307,328,348,368,388,408,427,448,468,487,507,527,548,567,587,608,627,648,668,687,707,727,747,767,788,808,827,848,868],"xSR":741.5,"ySR":573.95,"xT1":424.9,"yT1":0,"xT2":1058.1,"yT2":0,"toosoon":0,"cond_shown":"Incongruent","ratio_trial":100,"L_num":9,"L_den":15,"R_num":13,"R_den":26,"correct_side":1,"subjID":"SaritaPulidoBonilla28","gender":"saritapulidobonilla","school":"9","age":"No_age"},{"start_time":1552308788205,"click_time":1552308788762,"finger_time":1552308788642,"fix_duration":1061.2281444935925,"trial":43,"RT":437,"MT":120,"sideResp":2,"stimulus":[],"xmouse":[787,788,789,789,790,791,792,792,793,793,794,794,795,795,795,795,797,797,798,804,806,843,868,903,940,976,1039,1063],"ymouse":[637,635,635,634,633,632,631,630,627,626,624,624,623,622,621,620,617,616,614,608,605,562,521,453,377,288,135,86],"timestamp_mouse":[16,36,57,78,96,116,136,156,176,196,218,237,256,277,296,316,336,357,377,396,417,437,457,476,496,517,536,556],"xSR":741.5,"ySR":573.95,"xT1":424.9,"yT1":0,"xT2":1058.1,"yT2":0,"toosoon":0,"cond_shown":"Incongruent","ratio_trial":100,"L_num":9,"L_den":15,"R_num":13,"R_den":26,"correct_side":1,"subjID":"SaritaPulidoBonilla28","gender":"saritapulidobonilla","school":"9","age":"No_age"},{"start_time":1552308790948,"click_time":1552308791701,"finger_time":1552308791322,"fix_duration":484.2366214916791,"trial":44,"RT":374,"MT":379,"sideResp":2,"stimulus":[],"xmouse":[810,810,810,810,810,810,810,810,810,810,810,810,810,810,812,817,826,838,863,875,889,907,932,957,994,998,1003,1008,1012,1024,1029,1036,1042,1046,1056,1057,1058,1059],"ymouse":[627,627,627,627,627,627,627,627,627,627,627,627,627,627,624,616,605,592,557,534,509,477,432,378,255,231,217,208,197,176,164,151,137,124,100,96,94,93],"timestamp_mouse":[16,46,53,74,95,114,133,153,173,193,214,234,255,274,293,313,334,354,374,393,414,434,453,474,495,514,533,553,574,593,613,634,654,673,694,714,733,753],"xSR":741.5,"ySR":573.95,"xT1":424.9,"yT1":0,"xT2":1058.1,"yT2":0,"toosoon":0,"cond_shown":"Congruent","ratio_trial":300,"L_num":2,"L_den":10,"R_num":12,"R_den":24,"correct_side":2,"subjID":"SaritaPulidoBonilla28","gender":"saritapulidobonilla","school":"9","age":"No_age"},{"start_time":1552308796563,"click_time":1552308797702,"finger_time":1552308797341,"fix_duration":540.4295185853601,"trial":45,"RT":778,"MT":361,"sideResp":2,"stimulus":[],"xmouse":[791,791,791,791,791,791,791,791,791,791,791,791,791,792,792,792,793,793,793,793,793,793,793,793,793,793,793,793,793,793,793,793,793,793,794,799,807,832,850,867,880,895,921,941,955,966,977,998,1008,1018,1029,1037,1054,1062,1063,1066,1070],"ymouse":[627,627,627,627,627,627,627,627,627,626,626,625,623,621,620,620,619,619,619,619,619,619,619,619,619,619,619,619,619,619,619,619,619,619,618,612,603,574,553,533,512,492,456,432,418,406,393,362,346,329,312,294,247,206,164,124,89],"timestamp_mouse":[18,41,59,80,99,119,139,159,178,199,218,239,258,278,299,319,338,358,379,398,419,438,459,479,499,519,540,559,578,599,619,639,658,679,698,718,739,759,778,798,819,839,859,878,899,918,938,959,978,999,1019,1038,1059,1078,1098,1118,1139],"xSR":741.5,"ySR":573.95,"xT1":424.9,"yT1":0,"xT2":1058.1,"yT2":0,"toosoon":0,"cond_shown":"Congruent","ratio_trial":100,"L_num":8,"L_den":16,"R_num":2,"R_den":5,"correct_side":1,"subjID":"SaritaPulidoBonilla28","gender":"saritapulidobonilla","school":"9","age":"No_age"},{"start_time":1552308800915,"click_time":1552308801941,"finger_time":1552308801442,"fix_duration":771.2175675280896,"trial":46,"RT":527,"MT":499,"sideResp":1,"stimulus":[],"xmouse":[808,808,808,808,808,808,808,808,808,808,808,808,808,808,808,808,808,808,808,808,808,808,805,802,795,791,763,739,713,690,677,652,643,631,619,580,564,553,546,544,544,543,543,543,543,543,543,543,543,543,533,521],"ymouse":[632,632,632,632,632,632,632,632,632,632,632,632,632,632,632,632,632,632,632,632,632,632,626,619,599,590,498,437,375,324,280,216,191,167,143,80,61,43,34,30,30,29,29,29,29,29,29,29,29,29,28,28],"timestamp_mouse":[10,39,46,67,86,107,126,146,167,187,207,226,247,266,286,306,327,346,368,387,406,427,447,467,486,506,527,546,566,587,606,626,646,666,687,707,726,746,766,787,806,827,847,866,887,907,926,947,967,988,1008,1026],"xSR":741.5,"ySR":573.95,"xT1":424.9,"yT1":0,"xT2":1058.1,"yT2":0,"toosoon":0,"cond_shown":"Incongruent","ratio_trial":300,"L_num":4,"L_den":5,"R_num":8,"R_den":16,"correct_side":1,"subjID":"SaritaPulidoBonilla28","gender":"saritapulidobonilla","school":"9","age":"No_age"},{"start_time":1552308804166,"click_time":1552308805861,"finger_time":1552308804842,"fix_duration":1063.5015666612283,"trial":47,"RT":676,"MT":1019,"sideResp":1,"stimulus":[],"xmouse":[797,797,797,797,797,797,797,797,797,797,797,797,797,797,797,797,797,797,797,797,797,797,797,797,797,797,797,797,797,797,795,792,783,754,741,732,724,708,693,671,640,608,557,552,548,546,545,545,540,536,533,531,529,528,527,527,527,527,527,527,527,527,527,527,527,527,527,527,527,527,527,527,527,527,527,527,527,527,527,527,527,527,527,527,519],"ymouse":[625,625,625,625,625,625,625,625,625,625,625,625,625,625,625,625,625,625,625,625,625,625,625,625,625,625,625,625,625,625,625,620,603,545,524,506,488,449,421,384,333,287,207,192,179,168,157,144,113,96,80,67,54,48,46,46,46,46,46,46,46,46,46,46,46,46,46,46,46,46,46,46,46,46,46,46,46,46,46,46,46,46,46,46,47],"timestamp_mouse":[18,41,56,76,95,115,136,155,175,195,215,235,255,276,295,316,337,355,375,395,416,437,455,475,496,515,536,556,575,597,615,636,656,676,696,715,736,756,775,796,815,835,856,875,896,915,936,955,975,995,1015,1035,1055,1076,1096,1116,1136,1156,1175,1196,1216,1235,1256,1275,1296,1315,1335,1356,1375,1396,1416,1435,1455,1475,1496,1516,1536,1556,1576,1595,1615,1636,1656,1675,1695],"xSR":741.5,"ySR":573.95,"xT1":424.9,"yT1":0,"xT2":1058.1,"yT2":0,"toosoon":0,"cond_shown":"Incongruent","ratio_trial":100,"L_num":6,"L_den":10,"R_num":13,"R_den":26,"correct_side":1,"subjID":"SaritaPulidoBonilla28","gender":"saritapulidobonilla","school":"9","age":"No_age"},{"start_time":1552308808227,"click_time":1552308809321,"finger_time":1552308808761,"fix_duration":1184.104618639243,"trial":48,"RT":534,"MT":560,"sideResp":1,"stimulus":[],"xmouse":[773,773,773,773,773,773,773,773,773,772,770,769,768,767,766,766,765,764,763,762,761,761,761,761,752,745,739,734,729,721,707,696,681,665,648,619,604,590,579,569,539,525,510,496,483,476,475,474,473,468,465,463,461,460,460],"ymouse":[623,623,623,623,623,623,623,623,623,623,623,624,624,624,625,625,625,625,625,626,626,626,626,626,604,589,576,567,557,538,494,465,428,399,372,330,311,295,281,269,241,230,217,204,194,183,178,174,168,149,139,128,117,103,90],"timestamp_mouse":[14,43,54,75,95,115,135,154,175,194,214,234,255,274,294,315,335,354,374,394,415,434,456,474,495,514,534,554,574,594,614,634,654,674,694,714,735,754,774,794,814,834,854,874,894,914,934,955,974,995,1014,1034,1054,1074,1094],"xSR":741.5,"ySR":573.95,"xT1":424.9,"yT1":0,"xT2":1058.1,"yT2":0,"toosoon":0,"cond_shown":"Incongruent","ratio_trial":100,"L_num":6,"L_den":12,"R_num":3,"R_den":5,"correct_side":2,"subjID":"SaritaPulidoBonilla28","gender":"saritapulidobonilla","school":"9","age":"No_age"},{"start_time":1552308813944,"click_time":1552308814924,"finger_time":1552308814502,"fix_duration":1218.836489772218,"trial":49,"RT":558,"MT":422,"sideResp":2,"stimulus":[],"xmouse":[787,787,787,787,787,787,787,787,787,787,787,787,787,787,787,787,787,787,787,787,787,787,787,787,787,792,802,813,827,844,877,888,899,910,932,939,945,950,958,978,989,998,1004,1010,1022,1026,1034,1039,1046,1062],"ymouse":[620,620,620,620,620,620,620,620,620,620,620,620,620,620,620,620,620,620,620,620,620,620,620,620,620,611,597,581,561,537,488,463,438,414,358,335,313,294,274,239,219,201,184,162,111,96,82,72,62,52],"timestamp_mouse":[1,20,42,60,79,98,119,140,159,179,200,219,238,258,278,300,318,340,360,379,399,418,439,459,479,499,518,539,558,580,598,619,639,658,679,698,720,739,759,779,799,818,839,859,879,898,919,940,958,979],"xSR":741.5,"ySR":573.95,"xT1":424.9,"yT1":0,"xT2":1058.1,"yT2":0,"toosoon":0,"cond_shown":"Congruent","ratio_trial":300,"L_num":3,"L_den":12,"R_num":11,"R_den":20,"correct_side":2,"subjID":"SaritaPulidoBonilla28","gender":"saritapulidobonilla","school":"9","age":"No_age"},{"start_time":1552308816525,"click_time":1552308817543,"finger_time":1552308817163,"fix_duration":582.1356428546032,"trial":50,"RT":638,"MT":380,"sideResp":2,"stimulus":[],"xmouse":[786,786,786,786,786,786,786,786,786,786,786,786,786,786,786,786,786,786,786,786,786,786,786,786,786,786,786,783,776,755,745,736,730,728,727,727,727,728,741,762,818,852,887,919,976,1035,1067,1092,1115,1133,1151],"ymouse":[647,647,647,647,647,647,647,647,647,647,647,647,647,647,647,647,647,647,647,647,647,647,647,647,647,647,647,640,623,590,574,562,554,549,548,547,546,543,539,536,524,512,497,477,425,319,263,206,150,100,3],"timestamp_mouse":[17,37,58,78,97,119,139,158,177,197,218,238,259,278,298,318,337,358,379,399,419,439,458,478,497,518,537,558,578,599,617,638,658,678,697,718,737,758,778,798,817,838,857,878,897,917,937,957,978,997,1018],"xSR":741.5,"ySR":573.95,"xT1":424.9,"yT1":0,"xT2":1058.1,"yT2":0,"toosoon":0,"cond_shown":"Incongruent","ratio_trial":100,"L_num":12,"L_den":30,"R_num":2,"R_den":4,"correct_side":2,"subjID":"SaritaPulidoBonilla28","gender":"saritapulidobonilla","school":"9","age":"No_age"},{"start_time":1552308819855,"click_time":1552308821363,"finger_time":1552308820804,"fix_duration":310.0892061224314,"trial":51,"RT":949,"MT":559,"sideResp":2,"stimulus":[],"xmouse":[756,756,757,768,770,772,772,773,773,773,773,773,773,773,773,773,773,774,777,778,778,778,779,779,779,779,779,779,779,779,779,779,779,779,779,779,779,779,779,779,779,779,779,779,779,782,802,856,878,883,887,893,899,906,926,935,943,951,967,979,983,984,985,988,992,1000,1008,1018,1041,1047,1052,1053,1058,1067,1072,1078],"ymouse":[639,639,639,634,631,628,627,626,626,626,626,626,626,626,626,626,626,626,627,628,628,628,628,628,628,628,628,628,628,628,628,628,628,628,628,628,628,628,628,628,628,628,628,628,628,627,611,545,487,449,430,413,400,386,356,339,322,302,275,251,244,241,239,232,225,217,208,197,168,157,147,139,129,110,101,91],"timestamp_mouse":[10,27,51,68,87,107,127,148,169,187,208,229,249,268,287,309,329,348,368,388,409,428,447,469,488,507,527,547,569,587,608,628,647,668,689,709,728,748,767,788,809,827,848,869,888,907,929,949,968,988,1008,1028,1048,1068,1087,1108,1128,1148,1167,1187,1208,1228,1248,1268,1288,1308,1327,1348,1368,1387,1408,1428,1449,1468,1488,1508],"xSR":741.5,"ySR":573.95,"xT1":424.9,"yT1":0,"xT2":1058.1,"yT2":0,"toosoon":0,"cond_shown":"Congruent","ratio_trial":100,"L_num":15,"L_den":25,"R_num":13,"R_den":26,"correct_side":1,"subjID":"SaritaPulidoBonilla28","gender":"saritapulidobonilla","school":"9","age":"No_age"},{"start_time":1552308824236,"click_time":1552308825543,"finger_time":1552308824942,"fix_duration":250,"trial":52,"RT":706,"MT":601,"sideResp":1,"stimulus":[],"xmouse":[789,789,789,789,789,789,789,789,789,789,789,789,789,789,789,789,789,789,789,789,789,789,789,789,789,789,789,789,789,789,789,789,789,789,789,789,789,789,789,789,784,781,777,768,742,727,716,703,665,584,546,530,499,488,483,479,479,479,479,479,479,479,479,479,479,477],"ymouse":[587,587,587,587,587,587,587,587,587,587,587,587,587,587,587,587,587,587,587,587,587,587,587,587,587,587,587,587,587,587,587,584,581,578,575,568,566,563,560,551,538,528,515,499,461,439,420,389,292,138,67,33,0,0,0,0,0,0,0,0,0,0,0,0,0,1],"timestamp_mouse":[20,39,46,67,86,107,126,148,167,187,207,226,248,266,286,306,326,346,368,387,406,427,446,466,487,506,528,547,566,588,608,626,647,666,686,706,727,747,767,787,806,828,846,866,887,907,928,947,967,987,1007,1026,1047,1068,1087,1106,1127,1147,1166,1187,1207,1226,1248,1267,1288,1307],"xSR":741.5,"ySR":573.95,"xT1":424.9,"yT1":0,"xT2":1058.1,"yT2":0,"toosoon":0,"cond_shown":"Incongruent","ratio_trial":200,"L_num":1,"L_den":3,"R_num":2,"R_den":15,"correct_side":1,"subjID":"SaritaPulidoBonilla28","gender":"saritapulidobonilla","school":"9","age":"No_age"},{"start_time":1552308830495,"click_time":1552308831343,"finger_time":1552308830923,"fix_duration":371.3109581270305,"trial":53,"RT":428,"MT":420,"sideResp":2,"stimulus":[],"xmouse":[783,783,783,783,783,783,783,783,783,783,783,783,783,783,783,783,791,801,808,812,816,828,840,853,867,876,896,906,914,921,929,937,954,963,972,979,995,1007,1015,1024,1034,1045,1069],"ymouse":[634,634,634,634,634,634,634,634,634,634,634,634,634,634,634,634,622,610,599,590,580,551,528,498,468,442,378,355,337,320,303,288,257,242,225,206,171,148,133,119,109,99,82],"timestamp_mouse":[11,27,47,69,88,108,129,147,168,189,208,228,248,268,287,308,328,348,367,388,408,428,447,467,487,507,528,547,568,588,608,628,647,668,688,708,728,747,767,788,807,828,847],"xSR":741.5,"ySR":573.95,"xT1":424.9,"yT1":0,"xT2":1058.1,"yT2":0,"toosoon":0,"cond_shown":"Congruent","ratio_trial":200,"L_num":16,"L_den":30,"R_num":9,"R_den":27,"correct_side":1,"subjID":"SaritaPulidoBonilla28","gender":"saritapulidobonilla","school":"9","age":"No_age"},{"start_time":1552308833858,"click_time":1552308834823,"finger_time":1552308834303,"fix_duration":1274.587622998119,"trial":54,"RT":445,"MT":520,"sideResp":1,"stimulus":[],"xmouse":[805,805,805,805,805,805,805,805,805,805,805,805,805,805,805,805,805,805,802,801,798,796,792,778,764,746,721,693,630,608,592,579,569,559,557,556,552,550,547,543,542,541,540,536,535,531,529,526,519],"ymouse":[648,648,648,648,648,648,648,648,648,648,648,648,648,648,648,648,648,641,614,605,592,577,558,517,490,458,420,386,320,299,282,265,252,232,226,217,208,201,189,171,163,154,144,122,110,96,83,71,42],"timestamp_mouse":[9,39,45,65,85,105,125,144,165,186,205,224,245,266,284,305,324,346,365,385,404,424,445,465,484,505,524,545,566,584,605,625,644,665,684,704,724,745,765,786,805,824,844,865,885,905,925,945,965],"xSR":741.5,"ySR":573.95,"xT1":424.9,"yT1":0,"xT2":1058.1,"yT2":0,"toosoon":0,"cond_shown":"Congruent","ratio_trial":200,"L_num":9,"L_den":20,"R_num":4,"R_den":16,"correct_side":1,"subjID":"SaritaPulidoBonilla28","gender":"saritapulidobonilla","school":"9","age":"No_age"},{"start_time":1552308842380,"click_time":1552308843243,"finger_time":1552308842803,"fix_duration":956.5988073170945,"trial":55,"RT":423,"MT":440,"sideResp":2,"stimulus":[],"xmouse":[774,774,774,774,774,774,774,774,774,774,774,774,774,774,774,774,774,774,774,781,784,795,800,839,854,872,896,943,963,983,996,1006,1013,1031,1038,1041,1043,1045,1045,1045,1045,1045,1054,1063],"ymouse":[615,615,615,615,615,615,615,615,615,615,615,615,615,615,615,615,615,615,615,602,593,560,541,405,341,281,219,119,84,50,25,7,0,0,0,0,0,0,0,0,0,0,4,7],"timestamp_mouse":[6,23,43,63,83,102,123,143,164,182,202,222,242,263,284,303,322,342,364,384,402,423,442,463,482,502,522,543,562,582,602,622,642,663,683,702,722,746,762,783,803,823,844,863],"xSR":741.5,"ySR":573.95,"xT1":424.9,"yT1":0,"xT2":1058.1,"yT2":0,"toosoon":0,"cond_shown":"Congruent","ratio_trial":300,"L_num":1,"L_den":5,"R_num":11,"R_den":22,"correct_side":2,"subjID":"SaritaPulidoBonilla28","gender":"saritapulidobonilla","school":"9","age":"No_age"},{"start_time":1552308847295,"click_time":1552308848324,"finger_time":1552308847743,"fix_duration":811.8372543451873,"trial":56,"RT":448,"MT":581,"sideResp":2,"stimulus":[],"xmouse":[785,785,785,785,785,785,785,785,785,785,785,785,785,785,785,785,785,785,785,785,796,803,844,864,889,910,933,972,984,994,1006,1015,1025,1028,1029,1029,1029,1030,1031,1031,1033,1033,1033,1034,1034,1035,1037,1040,1044,1053,1064,1085],"ymouse":[639,639,639,639,639,639,639,639,639,639,639,639,639,639,639,639,639,639,639,639,628,621,576,551,520,490,452,385,363,346,326,306,272,258,249,243,234,223,218,210,201,191,175,169,163,158,147,136,129,118,109,92],"timestamp_mouse":[20,44,47,67,89,108,129,148,167,187,207,229,248,267,288,309,329,348,367,387,407,427,448,469,488,509,527,547,568,587,608,628,647,667,688,707,727,749,769,789,808,828,847,867,888,908,928,947,968,987,1008,1028],"xSR":741.5,"ySR":573.95,"xT1":424.9,"yT1":0,"xT2":1058.1,"yT2":0,"toosoon":0,"cond_shown":"Incongruent","ratio_trial":200,"L_num":7,"L_den":10,"R_num":14,"R_den":28,"correct_side":1,"subjID":"SaritaPulidoBonilla28","gender":"saritapulidobonilla","school":"9","age":"No_age"},{"start_time":1552308852082,"click_time":1552308852964,"finger_time":1552308852542,"fix_duration":737.9747873717945,"trial":57,"RT":460,"MT":422,"sideResp":1,"stimulus":[],"xmouse":[793,793,793,793,793,793,793,793,793,793,793,793,793,793,793,793,793,793,793,793,793,793,791,784,777,765,753,713,697,682,656,630,575,551,530,516,506,501,498,497,493,488,476,473,471],"ymouse":[595,595,595,595,595,595,595,595,595,595,595,595,595,595,595,595,595,595,595,595,595,595,575,554,531,506,477,404,375,347,311,275,208,183,161,144,137,132,128,127,123,117,106,102,99],"timestamp_mouse":[10,22,42,61,80,102,121,141,160,181,202,222,241,260,280,300,320,341,362,381,402,420,441,460,480,500,522,541,561,581,600,620,641,660,681,701,721,741,761,781,800,821,841,861,882],"xSR":741.5,"ySR":573.95,"xT1":424.9,"yT1":0,"xT2":1058.1,"yT2":0,"toosoon":0,"cond_shown":"Incongruent","ratio_trial":300,"L_num":13,"L_den":26,"R_num":12,"R_den":15,"correct_side":2,"subjID":"SaritaPulidoBonilla28","gender":"saritapulidobonilla","school":"9","age":"No_age"},{"start_time":1552308856769,"click_time":1552308899503,"finger_time":1552308871503,"fix_duration":1284.2333077917312,"trial":58,"RT":14734,"MT":28000,"sideResp":1,"stimulus":[],"xmouse":[763,763,763,763,763,763,763,763,763,763,763,763,763,763,763,763,763,763,763,763,763,763,763,763,763,763,763,763,763,763,763,763,763,763,763,763,763,763,763,763,763,763,763,763,763,763,763,763,763,763,763,763,763,763,763,763,763,763,763,763,763,763,763,763,763,763,763,763,763,763,763,763,763,763,763,763,763,763,763,763,763,763,763,763,763,763,763,763,763,763,763,763,763,763,763,763,763,763,763,763,763,763,763,763,763,763,763,763,763,763,763,763,763,763,763,763,763,763,763,763,763,763,763,763,763,763,763,763,763,763,763,763,763,763,763,763,763,763,763,763,763,763,763,763,763,763,763,763,763,763,763,763,763,763,763,763,763,763,763,763,763,763,763,763,763,763,763,763,763,763,763,763,763,763,763,763,763,763,763,763,763,763,763,763,763,763,763,763,763,763,763,763,763,763,763,763,763,763,763,763,763,763,763,763,763,763,763,763,763,763,763,763,763,763,763,763,763,763,763,763,763,763,763,763,763,763,763,763,763,763,763,763,763,763,763,763,763,763,763,763,763,763,763,763,763,763,763,763,763,763,763,763,763,763,763,763,763,763,763,763,763,763,763,763,763,763,763,763,763,763,763,763,763,763,763,763,763,763,763,763,763,763,763,763,763,763,763,763,763,763,763,763,763,763,763,763,763,763,763,763,763,763,763,763,763,763,763,763,763,763,763,763,763,763,763,763,763,763,763,763,763,763,763,763,763,763,763,763,763,763,763,763,763,763,763,763,763,763,763,763,763,763,763,763,763,763,763,763,763,763,763,763,763,763,763,763,763,763,763,763,763,763,763,763,763,763,763,763,763,763,763,763,763,763,763,763,763,763,763,763,763,763,763,763,763,763,763,763,763,763,763,763,763,763,763,763,763,763,763,763,763,763,763,763,763,763,763,763,763,763,763,763,763,763,763,763,763,763,763,763,763,763,763,763,763,763,763,763,763,763,763,763,763,763,763,763,763,763,763,763,763,763,763,763,763,763,763,763,763,763,763,763,763,763,763,763,763,763,763,763,763,763,763,763,763,763,763,763,763,763,763,763,763,763,763,763,763,763,763,763,763,763,763,763,763,763,763,768,769,769,769,769,769,765,762,759,758,755,753,752,750,750,750,750,750,750,750,750,750,750,753,754,758,759,759,759,760,760,760,760,760,760,760,760,760,760,760,760,760,760,760,760,760,760,760,760,760,760,760,760,760,760,760,760,760,760,760,763,764,764,765,765,766,767,768,768,768,768,768,768,768,768,768,768,768,768,768,768,768,768,768,768,768,768,768,768,768,768,768,768,768,768,768,768,768,768,768,768,768,768,768,768,768,768,768,768,768,768,768,768,768,768,768,768,768,768,768,768,768,768,768,768,768,768,768,768,768,768,768,768,768,768,768,768,768,768,768,768,768,768,768,768,768,768,768,768,768,768,768,768,768,768,768,768,768,768,768,768,768,768,768,768,767,767,767,767,767,767,767,766,766,766,766,766,766,766,766,766,766,766,766,766,766,766,766,766,766,766,766,766,766,766,766,766,766,766,766,766,766,766,766,765,765,765,765,765,765,765,765,765,765,765,765,765,765,765,765,765,765,765,765,765,765,765,765,765,765,765,765,765,765,765,765,765,765,765,765,765,765,765,765,765,768,793,813,839,866,911,920,920,920,920,923,925,926,928,929,931,934,935,935,935,943,949,953,954,954,954,955,955,955,955,955,955,955,955,955,955,955,955,955,955,955,955,955,955,955,955,955,955,955,955,955,962,963,964,968,975,980,983,986,987,991,994,996,996,995,993,993,988,976,957,926,895,885,878,870,860,853,847,842,836,836,833,833,833,833,833,833,833,833,833,833,833,833,833,833,833,833,833,833,833,833,833,833,833,833,833,833,833,833,833,830,806,785,762,740,720,720,720,720,720,720,720,720,720,720,720,720,720,728,737,790,814,835,851,858,863,867,868,868,868,868,868,868,868,868,868,868,868,868,865,847,838,832,831,831,831,831,831,831,831,831,831,831,831,831,831,829,820,809,799,787,785,785,785,785,785,785,785,785,785,785,785,785,785,785,785,785,785,785,785,785,785,785,785,785,785,785,785,785,785,785,785,785,785,785,785,785,785,785,785,785,785,785,785,785,785,785,785,785,785,785,785,785,785,785,785,785,785,785,785,785,785,785,785,785,785,785,785,785,785,785,785,785,785,785,785,785,785,785,785,785,785,785,785,785,785,785,785,785,785,785,785,785,785,785,785,785,785,785,785,785,785,785,785,785,785,785,785,785,785,784,778,776,775,775,775,775,775,774,773,771,770,769,769,769,769,769,769,769,769,769,769,769,769,769,769,769,769,769,769,769,769,769,769,769,769,769,770,770,771,771,771,771,772,774,776,778,782,788,799,805,813,815,817,818,819,819,819,819,819,819,819,819,819,819,818,817,815,815,814,814,814,814,814,813,811,810,808,807,805,803,803,803,803,803,803,802,802,802,802,802,802,802,802,802,802,802,802,802,802,802,802,802,802,802,802,802,802,802,802,802,802,802,802,802,802,802,802,802,802,802,802,802,802,802,802,802,802,802,802,802,802,802,801,801,801,801,801,801,801,801,801,801,801,801,801,801,801,801,801,801,801,801,801,801,801,801,801,801,801,801,801,801,801,801,801,801,801,801,801,801,801,801,801,801,801,801,799,798,797,797,797,797,797,797,795,795,794,794,794,794,794,794,794,794,794,794,794,794,794,794,794,794,794,794,794,794,794,794,794,794,794,794,794,794,794,794,794,794,794,794,794,794,794,794,794,794,794,794,794,794,794,794,794,794,794,794,794,794,794,794,794,794,794,794,794,794,794,794,794,794,794,794,794,794,794,794,794,794,794,794,794,794,794,794,794,794,794,794,794,794,794,794,794,794,794,794,794,794,794,794,794,794,794,794,794,794,794,794,794,794,794,794,794,794,794,794,794,794,794,794,794,794,794,794,794,794,794,794,794,794,794,794,794,794,794,794,794,794,794,794,794,794,794,794,794,794,794,794,794,794,794,794,794,794,794,794,794,794,794,794,794,794,794,794,794,794,794,794,794,794,794,794,794,794,794,794,794,794,794,794,794,794,794,794,794,794,794,794,794,794,794,794,794,794,794,794,794,794,794,794,794,794,794,794,794,794,794,794,794,794,794,794,794,794,794,794,794,794,794,794,794,794,794,794,794,794,794,794,794,794,794,794,794,794,794,794,794,794,794,794,794,794,794,794,794,794,794,794,794,794,794,794,794,794,794,794,794,794,794,794,794,794,794,794,794,794,794,794,794,794,794,794,794,794,794,794,794,794,794,794,794,794,794,794,794,794,794,794,794,794,794,794,794,794,794,794,794,794,794,794,794,794,794,794,794,794,794,794,794,794,794,794,794,794,794,794,794,794,794,794,794,794,794,794,794,794,794,794,794,794,794,794,794,794,794,794,794,794,794,794,794,794,794,794,794,794,794,794,794,794,794,794,794,794,794,794,794,794,794,794,794,794,794,794,794,794,794,794,794,794,794,794,794,794,794,794,794,794,794,794,794,794,794,794,794,794,794,794,794,794,794,794,794,794,794,794,794,794,794,794,794,794,794,794,794,794,794,794,794,794,794,794,794,794,794,794,794,794,794,794,794,794,794,794,794,794,794,794,794,794,794,794,794,794,794,794,794,794,794,794,794,794,794,794,794,794,794,794,794,794,794,794,794,794,794,794,794,794,794,794,794,794,794,794,794,794,794,794,794,794,794,794,794,794,794,794,794,794,794,794,794,794,794,794,794,794,794,794,794,794,794,794,794,794,794,794,794,794,794,794,794,794,794,794,794,794,794,794,794,794,794,794,794,794,794,794,794,794,794,794,794,794,794,794,794,794,794,794,794,794,794,794,794,794,794,794,794,794,794,794,794,794,794,794,794,794,794,794,794,794,794,794,794,794,794,794,794,794,794,794,794,794,794,794,794,794,794,794,794,794,794,794,794,794,794,794,794,794,794,794,794,794,794,794,794,794,794,794,794,794,794,794,794,794,794,794,794,794,794,794,794,794,794,794,794,794,794,794,794,794,794,794,794,794,794,794,794,794,794,794,794,794,794,794,794,794,794,794,794,794,794,794,794,794,794,794,794,794,794,794,794,794,794,794,794,794,794,794,794,794,794,794,794,794,794,794,794,794,794,794,794,794,794,794,794,794,794,794,794,794,794,794,794,794,794,794,794,794,794,794,794,794,794,794,794,794,794,794,794,794,794,794,794,794,794,794,794,794,794,794,794,794,794,794,794,794,794,794,794,794,794,794,794,794,794,794,794,794,794,794,794,794,794,794,794,794,794,794,794,794,794,794,794,794,794,794,794,794,794,794,794,794,794,794,794,794,794,794,794,794,794,794,794,794,794,794,794,794,794,794,794,794,794,794,794,794,794,794,794,794,794,794,794,794,794,794,794,794,794,794,794,794,794,794,794,794,794,794,794,794,794,794,794,794,794,794,794,799,810,818,796,785,781,756,670,658,642,633,623,615,619,621,621,621,621,621,621,621,621,620,626,645,676,706,735,740,741,741,741,742,746,751,762,780,796,797,798,800,803,805,805,800,798,794,792,791,791,791,791,791,791,791,791,791,791,791,791,791,791,791,791,791,791,791,791,791,791,791,791,791,791,791,791,791,791,791,791,791,791,791,791,791,791,791,790,788,786,784,782,777,775,775,775,775,779,795,795,795,795,795,795,795,795,795,795,795,795,795,795,795,795,795,795,795,795,795,795,795,795,795,795,795,795,792,775,699,672,652,623,597,597,597,597,597,597,597,595,592,587,564,544,521,495,478],"ymouse":[655,655,655,655,655,655,655,655,655,655,655,655,655,655,655,655,655,655,655,655,655,655,655,655,655,655,655,655,655,655,655,655,655,655,655,655,655,655,655,655,655,655,655,655,655,655,655,655,655,655,655,655,655,655,655,655,655,655,655,655,655,655,655,655,655,655,655,655,655,655,655,655,655,655,655,655,655,655,655,655,655,655,655,655,655,655,655,655,655,655,655,655,655,655,655,655,655,655,655,655,655,655,655,655,655,655,655,655,655,655,655,655,655,655,655,655,655,655,655,655,655,655,655,655,655,655,655,655,655,655,655,655,655,655,655,655,655,655,655,655,655,655,655,655,655,655,655,655,655,655,655,655,655,655,655,655,655,655,655,655,655,655,655,655,655,655,655,655,655,655,655,655,655,655,655,655,655,655,655,655,655,655,655,655,655,655,655,655,655,655,655,655,655,655,655,655,655,655,655,655,655,655,655,655,655,655,655,655,655,655,655,655,655,655,655,655,655,655,655,655,655,655,655,655,655,655,655,655,655,655,655,655,655,655,655,655,655,655,655,655,655,655,655,655,655,655,655,655,655,655,655,655,655,655,655,655,655,655,655,655,655,655,655,655,655,655,655,655,655,655,655,655,655,655,655,655,655,655,655,655,655,655,655,655,655,655,655,655,655,655,655,655,655,655,655,655,655,655,655,655,655,655,655,655,655,655,655,655,655,655,655,655,655,655,655,655,655,655,655,655,655,655,655,655,655,655,655,655,655,655,655,655,655,655,655,655,655,655,655,655,655,655,655,655,655,655,655,655,655,655,655,655,655,655,655,655,655,655,655,655,655,655,655,655,655,65