[{"start_time":1552309322542,"click_time":1552309332858,"finger_time":1552309323078,"fix_duration":1138.0895373671322,"trial":0,"RT":536,"MT":9780,"sideResp":1,"stimulus":"img/250/equaldotanddens/L/1_Ratio_250_L_8_R_2.png","xmouse":[801,801,801,801,801,801,801,801,801,801,801,801,801,801,801,801,801,801,801,801,801,801,801,801,791,778,749,734,722,717,716,716,716,716,719,734,754,763,775,788,810,884,923,950,971,996,1013,1014,1014,1014,1014,997,980,954,934,896,850,834,824,817,811,800,798,795,792,786,776,774,774,774,774,774,774,774,772,770,769,769,769,769,769,769,770,771,772,775,779,781,782,783,785,787,788,790,790,792,792,792,793,793,793,793,793,793,793,793,793,793,793,793,793,793,793,793,793,793,793,793,793,793,793,793,793,793,793,793,793,793,793,793,793,793,793,793,793,793,793,793,793,793,793,793,793,793,793,793,793,793,793,793,793,793,793,793,793,793,793,793,793,793,793,793,793,793,793,793,793,793,793,793,793,793,793,793,793,793,793,793,793,793,793,793,793,793,793,793,793,793,793,793,793,793,793,793,793,793,793,793,793,793,793,793,793,793,793,793,793,793,793,793,793,793,793,793,793,793,793,793,793,793,793,793,793,793,793,793,793,793,793,793,793,793,793,793,793,793,793,793,793,793,793,793,793,793,793,793,793,793,793,793,793,793,793,793,793,793,793,793,793,793,793,793,793,793,793,793,793,793,793,793,793,793,793,793,793,793,793,793,793,793,790,787,782,777,775,773,773,773,773,773,773,773,773,773,773,773,773,773,773,773,773,773,773,773,773,773,773,773,773,773,773,773,773,773,773,773,773,773,773,773,773,773,773,773,773,773,773,773,773,773,773,773,773,773,773,773,773,773,773,773,773,773,773,773,773,773,773,773,773,773,773,773,773,773,773,773,773,773,773,773,773,773,773,773,773,774,774,774,774,774,774,774,774,774,774,774,774,774,774,776,777,783,787,789,790,792,794,794,794,794,794,794,794,794,794,794,794,794,794,794,794,791,790,785,783,779,777,777,777,777,777,777,778,780,780,781,781,781,781,781,781,781,781,781,781,781,781,781,781,781,781,781,781,781,781,781,781,781,781,781,781,781,782,782,782,782,782,782,782,782,782,782,782,782,782,782,782,782,782,782,782,782,782,782,782,782,782,782,782,782,782,782,782,782,782,782,782,782,782,782,782,782,782,782,782,782,782,776,768,758,748,725,715,707,698,690,675,663,650,638,626,599,584,565,535,516,496,495,494,494,494,494,494,494,495,498,500],"ymouse":[552,552,552,552,552,552,552,552,552,552,552,552,552,552,552,552,552,552,552,552,552,552,552,552,539,520,481,463,448,442,441,440,439,438,433,418,392,378,363,351,340,324,317,311,298,278,247,238,234,233,233,235,257,293,321,370,459,492,525,551,570,588,589,589,589,589,589,589,589,589,589,589,589,589,589,587,583,582,581,580,578,575,574,573,571,567,562,559,557,555,553,548,546,544,542,540,538,537,536,536,536,536,536,536,536,536,536,536,536,536,536,536,536,536,536,536,536,536,536,536,536,536,536,536,536,536,536,536,536,536,536,536,536,536,536,536,536,536,536,536,536,536,536,536,536,536,536,536,536,536,536,536,536,536,536,536,536,536,536,536,536,536,536,536,536,536,536,536,536,536,536,536,536,536,536,536,536,536,536,536,536,536,536,536,536,536,536,536,536,536,536,536,536,536,536,536,536,536,536,536,536,536,536,536,536,536,536,536,536,536,536,536,536,536,536,536,536,536,536,536,536,536,536,536,536,536,536,536,536,536,536,536,536,536,536,536,536,536,536,536,536,536,536,536,536,536,536,536,536,536,536,536,536,536,536,536,536,536,536,536,536,536,536,536,536,536,536,536,536,536,536,536,536,536,536,536,536,536,536,536,535,533,531,527,526,525,525,525,525,525,525,525,525,525,525,525,525,525,525,525,525,525,525,525,525,525,525,525,525,525,525,525,525,525,525,525,525,525,525,525,525,525,525,525,525,525,525,525,525,525,525,525,525,525,525,525,525,525,525,525,525,525,525,525,525,525,525,525,525,525,525,525,525,525,525,525,525,525,525,525,525,525,525,525,522,519,511,504,500,497,492,487,486,484,483,482,479,477,475,471,465,445,432,419,407,391,383,381,381,381,380,380,380,380,380,380,380,380,380,380,380,383,385,394,401,409,428,439,449,458,466,479,485,492,494,495,495,495,495,495,495,495,495,495,495,495,495,495,495,495,495,495,495,495,495,495,495,495,495,495,497,499,501,502,503,503,503,503,503,503,503,503,503,503,503,503,503,503,503,503,503,503,503,503,503,503,503,503,503,503,503,503,503,503,503,503,503,503,503,503,503,503,503,503,503,503,503,492,476,459,439,401,385,370,355,340,315,299,281,265,247,209,194,178,154,140,123,120,116,113,112,111,111,109,108,103,97],"timestamp_mouse":[0,16,41,56,76,96,116,137,156,176,197,216,237,256,277,296,316,337,356,377,396,416,436,457,477,497,516,536,556,577,596,616,636,657,677,697,716,737,756,776,796,817,837,857,877,895,916,937,956,976,997,1016,1036,1057,1076,1096,1116,1136,1157,1176,1196,1216,1236,1256,1276,1297,1316,1336,1356,1377,1395,1417,1437,1456,1477,1497,1516,1536,1556,1577,1596,1616,1636,1656,1677,1696,1716,1736,1756,1776,1796,1816,1835,1857,1877,1896,1916,1936,1956,1977,1996,2016,2036,2056,2077,2095,2117,2136,2157,2176,2197,2216,2237,2256,2276,2296,2316,2337,2357,2376,2396,2416,2436,2456,2476,2496,2516,2536,2556,2577,2596,2616,2637,2656,2677,2697,2716,2737,2757,2776,2796,2816,2837,2857,2875,2896,2916,2936,2957,2977,2996,3016,3035,3057,3076,3097,3116,3137,3157,3177,3196,3216,3235,3256,3276,3296,3316,3336,3356,3376,3397,3416,3436,3456,3476,3496,3516,3537,3557,3576,3596,3616,3636,3657,3676,3697,3716,3737,3757,3776,3796,3816,3837,3856,3877,3896,3916,3937,3956,3976,3996,4016,4036,4056,4076,4096,4116,4137,4157,4176,4197,4216,4236,4257,4276,4297,4316,4337,4357,4377,4396,4415,4437,4456,4476,4496,4517,4537,4557,4577,4596,4616,4637,4656,4677,4696,4716,4736,4757,4776,4796,4816,4836,4857,4876,4896,4916,4937,4957,4977,4996,5016,5036,5057,5076,5096,5116,5136,5157,5176,5197,5216,5236,5256,5277,5296,5316,5337,5357,5376,5396,5416,5436,5457,5477,5497,5516,5536,5557,5577,5597,5616,5637,5656,5677,5696,5715,5737,5757,5776,5796,5817,5837,5856,5877,5896,5916,5936,5957,5976,5996,6016,6037,6057,6077,6097,6116,6137,6156,6178,6195,6215,6237,6257,6276,6297,6316,6336,6356,6377,6397,6417,6437,6456,6476,6497,6517,6537,6556,6576,6596,6617,6636,6657,6677,6696,6716,6736,6757,6776,6797,6816,6837,6857,6877,6896,6916,6937,6957,6977,6996,7016,7036,7056,7075,7097,7116,7137,7157,7177,7196,7216,7237,7257,7277,7296,7316,7337,7356,7377,7396,7417,7436,7456,7476,7496,7516,7537,7556,7577,7597,7617,7637,7657,7677,7696,7716,7736,7757,7777,7797,7816,7836,7856,7876,7895,7915,7936,7956,7976,7996,8015,8036,8057,8077,8097,8116,8136,8156,8176,8195,8216,8237,8256,8277,8296,8316,8336,8357,8377,8396,8416,8436,8457,8476,8497,8516,8536,8555,8577,8596,8616,8636,8656,8677,8696,8716,8736,8756,8776,8796,8817,8837,8855,8877,8896,8916,8937,8956,8977,8996,9016,9037,9056,9077,9097,9116,9137,9157,9176,9196,9217,9237,9256,9277,9297,9316,9336,9357,9376,9396,9416,9436,9455,9477,9496,9516,9536,9557,9576,9596,9616,9635,9657,9677,9696,9716,9737,9755,9777,9797,9817,9837,9857,9875,9896,9916,9937,9956,9976,9996,10016,10037,10056,10077,10096,10117,10137,10157,10177,10197,10216,10237,10256,10275,10297,10315],"xSR":741.5,"ySR":501.8,"xT1":424.9,"yT1":0,"xT2":1058.1,"yT2":0,"toosoon":0,"cond_shown":"equaldotanddens","ratio_trial":250,"smaller_num":"2","larger_num":"8","correct_side":1,"subjID":"saritapulidobonilla28","gender":"1","age":"9","school":"4","test":{"fix_dur":[250,1500],"timestim":300,"targets_dim":[100,100],"targets_relative_coord":[0.3,0.7],"size_stim":[880,420],"start_dim":[100,100],"size_start":[300,300],"size_fix":60,"samplingrate":20,"img_types":["equaldotsize","equaldotanddens","randomdotsizeEA"],"ratios":[250,500,750,900],"rep_conds":9,"nTrials":120,"trials_to_rest":500,"Trials_order":[85,19,13,116,42,107,89,20,105,3,39,8,90,84,71,34,38,111,87,99,37,106,52,64,100,12,50,9,115,23,108,112,56,15,54,51,33,18,69,83,49,73,113,43,6,26,78,2,48,28,77,58,17,53,14,86,45,114,68,66,22,62,1,94,0,55,88,96,81,4,7,31,117,60,80,29,11,24,41,95,35,16,27,72,21,40,63,91,109,59,10,118,65,36,25,67,76,5,46,102,103,30,92,32,93,44,119,47,98,110,82,61,101,74,97,104,70,79,75,57],"cond_shown":["equaldotanddens","equaldotanddens","equaldotanddens","randomdotsizeEA","equaldotsize","randomdotsizeEA","randomdotsizeEA","randomdotsizeEA","equaldotsize","equaldotsize","equaldotsize","randomdotsizeEA","equaldotsize","equaldotsize","randomdotsizeEA","equaldotanddens","randomdotsizeEA","equaldotsize","equaldotsize","equaldotsize","equaldotanddens","equaldotanddens","equaldotanddens","equaldotanddens","equaldotanddens","equaldotsize","randomdotsizeEA","equaldotsize","equaldotanddens","randomdotsizeEA","equaldotsize","equaldotanddens","randomdotsizeEA","equaldotsize","equaldotsize","equaldotsize","equaldotsize","equaldotsize","equaldotsize","randomdotsizeEA","equaldotanddens","equaldotanddens","randomdotsizeEA","equaldotanddens","equaldotsize","randomdotsizeEA","equaldotsize","randomdotsizeEA","equaldotsize","equaldotanddens","randomdotsizeEA","equaldotanddens","randomdotsizeEA","randomdotsizeEA","randomdotsizeEA","randomdotsizeEA","equaldotsize","equaldotsize","randomdotsizeEA","equaldotsize","equaldotanddens","randomdotsizeEA","equaldotanddens","equaldotanddens","equaldotsize","equaldotanddens","equaldotanddens","equaldotsize","equaldotsize","equaldotanddens","equaldotanddens","equaldotanddens","equaldotsize","equaldotsize","randomdotsizeEA","randomdotsizeEA","randomdotsizeEA","equaldotsize","randomdotsizeEA","randomdotsizeEA","randomdotsizeEA","equaldotanddens","equaldotsize","equaldotsize","equaldotsize","equaldotanddens","equaldotsize","equaldotanddens","equaldotanddens","randomdotsizeEA","equaldotanddens","equaldotanddens","randomdotsizeEA","equaldotsize","equaldotanddens","equaldotanddens","equaldotanddens","randomdotsizeEA","equaldotanddens","equaldotsize","equaldotanddens","equaldotsize","randomdotsizeEA","randomdotsizeEA","equaldotsize","randomdotsizeEA","randomdotsizeEA","randomdotsizeEA","randomdotsizeEA","randomdotsizeEA","equaldotanddens","equaldotanddens","randomdotsizeEA","randomdotsizeEA","equaldotanddens","randomdotsizeEA","equaldotanddens","equaldotanddens","equaldotsize","equaldotsize"],"ratio_trial":[250,750,250,750,750,900,500,750,900,500,500,750,750,250,900,900,250,500,500,500,250,900,500,500,500,250,250,900,750,900,250,500,750,500,750,500,900,750,900,900,250,250,500,750,750,250,750,250,250,500,500,900,500,500,250,250,900,750,750,750,900,250,250,900,250,750,500,250,900,500,750,750,900,250,750,500,900,250,500,900,900,500,500,250,900,500,500,750,250,900,900,900,500,250,250,750,500,500,900,750,750,750,750,750,900,750,900,900,250,250,900,250,500,250,250,750,900,750,500,900],"smaller_num":["2","15","1","6","6","9","9","9","18","10","2","3","12","2","18","9","6","5","10","1","3","9","4","5","6","3","1","9","15","18","4","6","6","3","3","9","18","15","18","18","2","1","6","6","3","2","3","6","2","5","9","18","2","5","3","3","9","3","3","12","18","6","3","18","3","3","2","3","9","1","9","6","18","6","6","2","18","2","9","9","18","9","2","6","18","9","2","18","6","9","9","18","1","4","3","15","5","5","18","15","15","3","15","3","18","6","18","9","4","4","18","1","2","3","3","3","9","15","2","9"],"larger_num":["8","20","4","8","8","10","18","12","20","20","4","4","16","8","20","10","24","10","20","2","12","10","8","10","12","12","4","10","20","20","16","12","8","6","4","18","20","20","20","20","8","4","12","8","4","8","4","24","8","10","18","20","4","10","12","12","10","4","4","16","20","24","12","20","12","4","4","12","10","2","12","8","20","24","8","4","20","8","18","10","20","18","4","24","20","18","4","24","24","10","10","20","2","16","12","20","10","10","20","20","20","4","20","4","20","8","20","10","16","16","20","4","4","12","12","4","10","20","4","10"],"correct_side":[1,1,2,1,1,2,2,2,1,2,1,1,2,1,1,1,1,2,2,2,2,2,1,2,1,1,2,2,2,1,2,1,1,2,1,2,1,2,1,1,1,2,1,1,2,1,1,1,2,1,2,1,2,2,1,2,1,2,1,2,2,1,1,2,2,2,1,1,2,2,2,2,2,1,1,1,2,2,1,2,1,2,1,2,2,2,2,1,1,1,2,1,2,2,1,2,1,2,1,2,2,2,2,1,1,2,2,2,2,2,2,2,1,2,1,1,2,2,1,1],"img_shown":["img/250/equaldotanddens/L/1_Ratio_250_L_8_R_2.png","img/750/equaldotanddens/L/1_Ratio_750_L_20_R_15.png","img/250/equaldotanddens/R/8_Ratio_250_L_1_R_4.png","img/750/randomdotsizeEA/L/14_Ratio_750_L_8_R_6.png","img/750/equaldotsize/L/13_Ratio_750_L_8_R_6.png","img/900/randomdotsizeEA/R/3_Ratio_900_L_9_R_10.png","img/500/randomdotsizeEA/R/6_Ratio_500_L_9_R_18.png","img/750/randomdotsizeEA/R/15_Ratio_750_L_9_R_12.png","img/900/equaldotsize/L/10_Ratio_900_L_20_R_18.png","img/500/equaldotsize/R/3_Ratio_500_L_10_R_20.png","img/500/equaldotsize/L/10_Ratio_500_L_4_R_2.png","img/750/randomdotsizeEA/L/10_Ratio_750_L_4_R_3.png","img/750/equaldotsize/R/11_Ratio_750_L_12_R_16.png","img/250/equaldotsize/L/7_Ratio_250_L_8_R_2.png","img/900/randomdotsizeEA/L/4_Ratio_900_L_20_R_18.png","img/900/equaldotanddens/L/1_Ratio_900_L_10_R_9.png","img/250/randomdotsizeEA/L/5_Ratio_250_L_24_R_6.png","img/500/equaldotsize/R/14_Ratio_500_L_5_R_10.png","img/500/equaldotsize/R/3_Ratio_500_L_10_R_20.png","img/500/equaldotsize/R/15_Ratio_500_L_1_R_2.png","img/250/equaldotanddens/R/4_Ratio_250_L_3_R_12.png","img/900/equaldotanddens/R/15_Ratio_900_L_9_R_10.png","img/500/equaldotanddens/L/8_Ratio_500_L_8_R_4.png","img/500/equaldotanddens/R/14_Ratio_500_L_5_R_10.png","img/500/equaldotanddens/L/11_Ratio_500_L_12_R_6.png","img/250/equaldotsize/L/14_Ratio_250_L_12_R_3.png","img/250/randomdotsizeEA/R/8_Ratio_250_L_1_R_4.png","img/900/equaldotsize/R/15_Ratio_900_L_9_R_10.png","img/750/equaldotanddens/R/3_Ratio_750_L_15_R_20.png","img/900/randomdotsizeEA/L/2_Ratio_900_L_20_R_18.png","img/250/equaldotsize/R/10_Ratio_250_L_4_R_16.png","img/500/equaldotanddens/L/13_Ratio_500_L_12_R_6.png","img/750/randomdotsizeEA/L/14_Ratio_750_L_8_R_6.png","img/500/equaldotsize/R/2_Ratio_500_L_3_R_6.png","img/750/equaldotsize/L/9_Ratio_750_L_4_R_3.png","img/500/equaldotsize/R/1_Ratio_500_L_9_R_18.png","img/900/equaldotsize/L/4_Ratio_900_L_20_R_18.png","img/750/equaldotsize/R/4_Ratio_750_L_15_R_20.png","img/900/equaldotsize/L/2_Ratio_900_L_20_R_18.png","img/900/randomdotsizeEA/L/10_Ratio_900_L_20_R_18.png","img/250/equaldotanddens/L/1_Ratio_250_L_8_R_2.png","img/250/equaldotanddens/R/8_Ratio_250_L_1_R_4.png","img/500/randomdotsizeEA/L/11_Ratio_500_L_12_R_6.png","img/750/equaldotanddens/L/14_Ratio_750_L_8_R_6.png","img/750/equaldotsize/R/7_Ratio_750_L_3_R_4.png","img/250/randomdotsizeEA/L/1_Ratio_250_L_8_R_2.png","img/750/equaldotsize/L/10_Ratio_750_L_4_R_3.png","img/250/randomdotsizeEA/L/5_Ratio_250_L_24_R_6.png","img/250/equaldotsize/R/13_Ratio_250_L_2_R_8.png","img/500/equaldotanddens/L/7_Ratio_500_L_10_R_5.png","img/500/randomdotsizeEA/R/6_Ratio_500_L_9_R_18.png","img/900/equaldotanddens/L/8_Ratio_900_L_20_R_18.png","img/500/randomdotsizeEA/R/9_Ratio_500_L_2_R_4.png","img/500/randomdotsizeEA/R/14_Ratio_500_L_5_R_10.png","img/250/randomdotsizeEA/L/15_Ratio_250_L_12_R_3.png","img/250/randomdotsizeEA/R/9_Ratio_250_L_3_R_12.png","img/900/equaldotsize/L/1_Ratio_900_L_10_R_9.png","img/750/equaldotsize/R/7_Ratio_750_L_3_R_4.png","img/750/randomdotsizeEA/L/8_Ratio_750_L_4_R_3.png","img/750/equaldotsize/R/11_Ratio_750_L_12_R_16.png","img/900/equaldotanddens/R/9_Ratio_900_L_18_R_20.png","img/250/randomdotsizeEA/L/5_Ratio_250_L_24_R_6.png","img/250/equaldotanddens/L/15_Ratio_250_L_12_R_3.png","img/900/equaldotanddens/R/13_Ratio_900_L_18_R_20.png","img/250/equaldotsize/R/9_Ratio_250_L_3_R_12.png","img/750/equaldotanddens/R/7_Ratio_750_L_3_R_4.png","img/500/equaldotanddens/L/5_Ratio_500_L_4_R_2.png","img/250/equaldotsize/L/14_Ratio_250_L_12_R_3.png","img/900/equaldotsize/R/15_Ratio_900_L_9_R_10.png","img/500/equaldotanddens/R/12_Ratio_500_L_1_R_2.png","img/750/equaldotanddens/R/15_Ratio_750_L_9_R_12.png","img/750/equaldotanddens/R/2_Ratio_750_L_6_R_8.png","img/900/equaldotsize/R/12_Ratio_900_L_18_R_20.png","img/250/equaldotsize/L/5_Ratio_250_L_24_R_6.png","img/750/randomdotsizeEA/L/13_Ratio_750_L_8_R_6.png","img/500/randomdotsizeEA/L/5_Ratio_500_L_4_R_2.png","img/900/randomdotsizeEA/R/13_Ratio_900_L_18_R_20.png","img/250/equaldotsize/R/13_Ratio_250_L_2_R_8.png","img/500/randomdotsizeEA/L/4_Ratio_500_L_18_R_9.png","img/900/randomdotsizeEA/R/15_Ratio_900_L_9_R_10.png","img/900/randomdotsizeEA/L/2_Ratio_900_L_20_R_18.png","img/500/equaldotanddens/R/6_Ratio_500_L_9_R_18.png","img/500/equaldotsize/L/10_Ratio_500_L_4_R_2.png","img/250/equaldotsize/R/6_Ratio_250_L_6_R_24.png","img/900/equaldotsize/R/9_Ratio_900_L_18_R_20.png","img/500/equaldotanddens/R/1_Ratio_500_L_9_R_18.png","img/500/equaldotsize/R/9_Ratio_500_L_2_R_4.png","img/750/equaldotanddens/L/6_Ratio_750_L_24_R_18.png","img/250/equaldotanddens/L/5_Ratio_250_L_24_R_6.png","img/900/randomdotsizeEA/L/1_Ratio_900_L_10_R_9.png","img/900/equaldotanddens/R/6_Ratio_900_L_9_R_10.png","img/900/equaldotanddens/L/10_Ratio_900_L_20_R_18.png","img/500/randomdotsizeEA/R/12_Ratio_500_L_1_R_2.png","img/250/equaldotsize/R/10_Ratio_250_L_4_R_16.png","img/250/equaldotanddens/L/14_Ratio_250_L_12_R_3.png","img/750/equaldotanddens/R/5_Ratio_750_L_15_R_20.png","img/500/equaldotanddens/L/7_Ratio_500_L_10_R_5.png","img/500/randomdotsizeEA/R/14_Ratio_500_L_5_R_10.png","img/900/equaldotanddens/L/4_Ratio_900_L_20_R_18.png","img/750/equaldotsize/R/4_Ratio_750_L_15_R_20.png","img/750/equaldotanddens/R/5_Ratio_750_L_15_R_20.png","img/750/equaldotsize/R/7_Ratio_750_L_3_R_4.png","img/750/randomdotsizeEA/R/4_Ratio_750_L_15_R_20.png","img/750/randomdotsizeEA/L/10_Ratio_750_L_4_R_3.png","img/900/equaldotsize/L/10_Ratio_900_L_20_R_18.png","img/750/randomdotsizeEA/R/2_Ratio_750_L_6_R_8.png","img/900/randomdotsizeEA/R/14_Ratio_900_L_18_R_20.png","img/900/randomdotsizeEA/R/15_Ratio_900_L_9_R_10.png","img/250/randomdotsizeEA/R/10_Ratio_250_L_4_R_16.png","img/250/randomdotsizeEA/R/10_Ratio_250_L_4_R_16.png","img/900/equaldotanddens/R/12_Ratio_900_L_18_R_20.png","img/250/equaldotanddens/R/8_Ratio_250_L_1_R_4.png","img/500/randomdotsizeEA/L/5_Ratio_500_L_4_R_2.png","img/250/randomdotsizeEA/R/9_Ratio_250_L_3_R_12.png","img/250/equaldotanddens/L/15_Ratio_250_L_12_R_3.png","img/750/randomdotsizeEA/L/8_Ratio_750_L_4_R_3.png","img/900/equaldotanddens/R/3_Ratio_900_L_9_R_10.png","img/750/equaldotanddens/R/4_Ratio_750_L_15_R_20.png","img/500/equaldotsize/L/5_Ratio_500_L_4_R_2.png","img/900/equaldotsize/L/1_Ratio_900_L_10_R_9.png"],"Rat0":[["12_Ratio_0_L_9_R_0.png","13_Ratio_0_L_6_R_0.png","5_Ratio_0_L_2_R_0.png","6_Ratio_0_L_4_R_0.png","8_Ratio_0_L_6_R_0.png"],["1_Ratio_0_L_0_R_17.png","10_Ratio_0_L_0_R_22.png","11_Ratio_0_L_0_R_1.png","14_Ratio_0_L_0_R_24.png","15_Ratio_0_L_0_R_4.png","2_Ratio_0_L_0_R_5.png","3_Ratio_0_L_0_R_17.png","4_Ratio_0_L_0_R_7.png","7_Ratio_0_L_0_R_19.png","9_Ratio_0_L_0_R_15.png"]],"Rat250":[["1_Ratio_250_L_8_R_2.png","14_Ratio_250_L_12_R_3.png","15_Ratio_250_L_12_R_3.png","2_Ratio_250_L_16_R_4.png","3_Ratio_250_L_8_R_2.png","5_Ratio_250_L_24_R_6.png","7_Ratio_250_L_8_R_2.png"],["10_Ratio_250_L_4_R_16.png","11_Ratio_250_L_3_R_12.png","12_Ratio_250_L_5_R_20.png","13_Ratio_250_L_2_R_8.png","4_Ratio_250_L_3_R_12.png","6_Ratio_250_L_6_R_24.png","8_Ratio_250_L_1_R_4.png","9_Ratio_250_L_3_R_12.png"]],"Rat500":[["10_Ratio_500_L_4_R_2.png","11_Ratio_500_L_12_R_6.png","13_Ratio_500_L_12_R_6.png","4_Ratio_500_L_18_R_9.png","5_Ratio_500_L_4_R_2.png","7_Ratio_500_L_10_R_5.png","8_Ratio_500_L_8_R_4.png"],["1_Ratio_500_L_9_R_18.png","12_Ratio_500_L_1_R_2.png","14_Ratio_500_L_5_R_10.png","15_Ratio_500_L_1_R_2.png","2_Ratio_500_L_3_R_6.png","3_Ratio_500_L_10_R_20.png","6_Ratio_500_L_9_R_18.png","9_Ratio_500_L_2_R_4.png"]],"Rat750":[["1_Ratio_750_L_20_R_15.png","10_Ratio_750_L_4_R_3.png","13_Ratio_750_L_8_R_6.png","14_Ratio_750_L_8_R_6.png","6_Ratio_750_L_24_R_18.png","8_Ratio_750_L_4_R_3.png","9_Ratio_750_L_4_R_3.png"],["11_Ratio_750_L_12_R_16.png","12_Ratio_750_L_3_R_4.png","15_Ratio_750_L_9_R_12.png","2_Ratio_750_L_6_R_8.png","3_Ratio_750_L_15_R_20.png","4_Ratio_750_L_15_R_20.png","5_Ratio_750_L_15_R_20.png","7_Ratio_750_L_3_R_4.png"]],"Rat900":[["1_Ratio_900_L_10_R_9.png","10_Ratio_900_L_20_R_18.png","2_Ratio_900_L_20_R_18.png","4_Ratio_900_L_20_R_18.png","8_Ratio_900_L_20_R_18.png"],["11_Ratio_900_L_18_R_20.png","12_Ratio_900_L_18_R_20.png","13_Ratio_900_L_18_R_20.png","14_Ratio_900_L_18_R_20.png","15_Ratio_900_L_9_R_10.png","3_Ratio_900_L_9_R_10.png","5_Ratio_900_L_9_R_10.png","6_Ratio_900_L_9_R_10.png","7_Ratio_900_L_9_R_10.png","9_Ratio_900_L_18_R_20.png"]],"Rat1000":[["10_Ratio_1000_L_16_R_16.png","11_Ratio_1000_L_6_R_6.png","12_Ratio_1000_L_14_R_14.png","13_Ratio_1000_L_20_R_20.png","15_Ratio_1000_L_15_R_15.png","2_Ratio_1000_L_17_R_17.png","4_Ratio_1000_L_9_R_9.png","5_Ratio_1000_L_6_R_6.png","6_Ratio_1000_L_19_R_19.png","8_Ratio_1000_L_14_R_14.png","9_Ratio_1000_L_25_R_25.png"],["1_Ratio_1000_L_1_R_1.png","14_Ratio_1000_L_17_R_17.png","3_Ratio_1000_L_17_R_17.png","7_Ratio_1000_L_6_R_6.png"]]}},{"start_time":1552309334552,"click_time":1552309340238,"finger_time":1552309335179,"fix_duration":712.6337150580712,"trial":1,"RT":627,"MT":5059,"sideResp":2,"stimulus":"img/750/equaldotanddens/L/1_Ratio_750_L_20_R_15.png","xmouse":[796,796,796,796,796,796,796,796,796,796,796,796,796,796,796,796,796,796,796,796,796,796,796,796,796,796,796,795,798,800,819,830,840,850,868,897,911,924,937,948,958,958,958,958,947,910,880,840,798,764,724,713,706,702,699,696,695,694,693,692,691,691,691,691,691,691,691,691,691,694,700,703,704,706,709,713,714,718,722,727,733,753,776,786,807,823,826,827,827,827,827,827,827,827,827,827,823,820,818,816,812,811,810,810,810,809,808,806,804,804,802,802,802,802,802,802,802,802,802,802,802,802,802,802,802,805,807,810,811,812,813,813,813,814,814,814,814,812,811,808,805,804,804,804,804,804,804,804,804,804,804,804,804,804,804,804,804,804,804,804,804,804,804,804,804,804,804,804,804,804,804,804,804,804,804,804,804,804,804,804,804,804,804,804,804,804,804,804,804,804,804,804,804,804,804,804,804,804,804,804,804,804,804,804,804,804,804,804,804,804,804,804,804,804,804,804,804,804,804,804,804,804,804,804,804,804,804,804,804,804,804,804,804,804,804,804,804,804,804,804,804,804,804,804,804,804,804,804,804,804,804,804,804,804,804,804,804,804,804,804,804,804,804,804,804,804,804,807,812,825,859,884,909,930,958,988,1000,1008,1016,1022,1039,1049,1060,1072,1090],"ymouse":[519,519,519,519,519,519,519,519,519,519,519,519,519,519,519,519,519,519,519,519,519,519,519,519,519,519,519,520,514,510,474,455,435,415,384,345,325,307,287,274,260,259,259,258,269,314,349,389,422,449,489,503,513,521,524,528,530,532,533,535,538,538,539,539,539,539,539,540,540,540,540,541,541,541,541,541,542,542,542,542,542,538,528,524,514,504,501,501,501,501,501,501,501,501,501,501,503,506,508,511,517,518,519,519,519,520,521,523,526,528,531,532,532,532,532,532,532,532,532,532,532,532,532,532,532,527,523,519,517,515,513,513,513,512,512,512,512,517,520,527,536,538,538,538,538,538,538,538,538,538,538,538,538,538,538,538,538,538,538,538,538,538,538,538,538,538,538,538,538,538,538,538,538,538,538,538,538,538,538,538,538,538,538,538,538,538,538,538,538,538,538,538,538,538,538,538,538,538,538,538,538,538,538,538,538,538,538,538,538,538,538,538,538,538,538,538,538,538,538,538,538,538,538,538,538,538,538,538,538,538,538,538,538,538,538,538,538,538,538,538,538,538,538,538,538,538,538,538,538,538,538,538,538,538,538,538,538,538,538,538,538,538,538,538,538,538,535,530,519,503,462,430,392,355,300,247,229,211,196,186,160,149,136,122,99],"timestamp_mouse":[10,41,47,67,86,106,127,147,167,187,207,226,246,267,286,306,327,347,367,385,406,427,446,466,486,506,527,546,567,586,606,627,646,667,687,706,726,746,767,786,806,825,846,867,886,906,926,946,967,987,1006,1026,1046,1067,1086,1106,1126,1146,1166,1187,1206,1226,1246,1267,1287,1306,1326,1346,1366,1386,1406,1426,1446,1467,1487,1506,1525,1546,1566,1585,1606,1627,1646,1666,1686,1706,1725,1747,1766,1787,1806,1826,1846,1867,1886,1907,1925,1947,1966,1987,2006,2026,2046,2067,2087,2106,2127,2146,2166,2187,2206,2226,2247,2265,2287,2307,2326,2347,2367,2385,2407,2426,2447,2467,2486,2506,2527,2546,2567,2587,2606,2627,2645,2667,2687,2706,2726,2747,2767,2786,2806,2826,2846,2867,2886,2906,2927,2947,2967,2987,3006,3025,3047,3066,3087,3106,3127,3147,3168,3187,3206,3227,3245,3266,3287,3307,3327,3346,3367,3387,3406,3426,3446,3467,3486,3507,3527,3547,3567,3586,3606,3626,3646,3666,3687,3707,3727,3746,3767,3787,3806,3826,3846,3865,3887,3907,3927,3947,3966,3986,4006,4026,4047,4065,4087,4106,4127,4146,4166,4187,4207,4226,4246,4267,4287,4305,4327,4347,4365,4387,4407,4427,4447,4466,4486,4507,4526,4547,4567,4585,4606,4627,4647,4667,4687,4706,4726,4747,4767,4786,4806,4827,4847,4867,4886,4906,4927,4946,4966,4986,5007,5027,5047,5066,5086,5106,5127,5147,5167,5186,5206,5227,5247,5267,5287,5305,5327,5346,5367,5387,5406,5425,5447,5466,5486,5506,5526,5546,5566,5587,5606,5627,5646,5666,5685],"xSR":741.5,"ySR":469.95,"xT1":424.9,"yT1":0,"xT2":1058.1,"yT2":0,"toosoon":0,"cond_shown":"equaldotanddens","ratio_trial":750,"smaller_num":"15","larger_num":"20","correct_side":1,"subjID":"saritapulidobonilla28","gender":"1","age":"9","school":"4"},{"start_time":1552309341609,"click_time":1552309342898,"finger_time":1552309342638,"fix_duration":250,"trial":2,"RT":1029,"MT":260,"sideResp":2,"stimulus":"img/250/equaldotanddens/R/8_Ratio_250_L_1_R_4.png","xmouse":[778,778,778,778,778,778,778,778,778,778,778,778,778,778,778,778,778,778,778,778,778,778,778,778,778,778,778,778,778,778,778,778,778,778,778,778,778,778,778,778,778,778,778,778,778,778,778,778,785,792,810,849,922,957,983,1006,1024,1053,1068,1091,1099,1119,1136,1145,1150],"ymouse":[511,511,511,511,511,511,511,511,511,511,511,511,511,511,511,511,511,511,511,513,513,513,514,514,514,514,514,514,514,514,514,514,514,514,514,514,514,514,514,514,514,514,514,514,514,514,514,514,510,505,490,461,407,376,348,323,300,257,237,204,193,162,121,101,81],"timestamp_mouse":[12,30,50,69,90,109,129,149,169,189,208,230,250,269,289,309,329,350,369,389,409,429,450,469,490,509,529,549,569,589,609,629,649,669,688,709,729,749,770,790,809,829,849,870,890,910,929,948,970,990,1009,1029,1049,1070,1090,1110,1129,1149,1170,1190,1210,1229,1249,1269,1289],"xSR":741.5,"ySR":469.95,"xT1":424.9,"yT1":0,"xT2":1058.1,"yT2":0,"toosoon":0,"cond_shown":"equaldotanddens","ratio_trial":250,"smaller_num":"1","larger_num":"4","correct_side":2,"subjID":"saritapulidobonilla28","gender":"1","age":"9","school":"4"},{"start_time":1552309344678,"click_time":1552309345758,"finger_time":1552309345178,"fix_duration":818.0971699108408,"trial":3,"RT":500,"MT":580,"sideResp":2,"stimulus":"img/750/randomdotsizeEA/L/14_Ratio_750_L_8_R_6.png","xmouse":[781,781,781,781,781,781,781,781,781,781,781,781,781,781,781,781,781,781,781,781,781,781,781,781,804,859,961,997,1119,1231,1246,1246,1246,1246,1246,1246,1246,1246,1246,1246,1246,1246,1246,1246,1246,1246,1246,1246,1246,1246,1179,1173,1168,1164,1158],"ymouse":[503,503,503,503,503,503,503,503,503,503,503,503,503,503,503,503,503,503,503,503,503,503,503,503,490,454,355,314,178,29,0,0,0,0,0,0,0,0,0,0,0,0,0,0,0,0,0,0,0,0,1,6,13,18,25],"timestamp_mouse":[9,19,40,61,80,100,121,140,160,181,200,221,241,260,281,299,320,341,360,380,400,421,440,461,481,500,520,541,561,580,600,621,641,660,681,700,720,740,760,781,800,821,841,860,880,900,920,940,961,980,1000,1021,1040,1059,1080],"xSR":741.5,"ySR":469.95,"xT1":424.9,"yT1":0,"xT2":1058.1,"yT2":0,"toosoon":0,"cond_shown":"randomdotsizeEA","ratio_trial":750,"smaller_num":"6","larger_num":"8","correct_side":1,"subjID":"saritapulidobonilla28","gender":"1","age":"9","school":"4"},{"start_time":1552309347590,"click_time":1552309348238,"finger_time":1552309347977,"fix_duration":551.3736370809481,"trial":4,"RT":387,"MT":261,"sideResp":1,"stimulus":"img/750/equaldotsize/L/13_Ratio_750_L_8_R_6.png","xmouse":[816,816,816,816,816,816,816,816,816,816,816,816,816,816,816,816,816,816,803,788,756,739,688,629,607,588,571,559,537,527,519,506,500],"ymouse":[489,489,489,489,489,489,489,489,489,489,489,489,489,489,489,489,489,489,476,461,431,417,372,305,276,246,222,201,162,145,128,107,97],"timestamp_mouse":[9,38,49,69,88,109,129,149,169,189,208,229,249,268,289,309,328,348,368,387,408,428,448,468,488,507,528,548,568,589,608,629,648],"xSR":741.5,"ySR":469.95,"xT1":424.9,"yT1":0,"xT2":1058.1,"yT2":0,"toosoon":0,"cond_shown":"equaldotsize","ratio_trial":750,"smaller_num":"6","larger_num":"8","correct_side":1,"subjID":"saritapulidobonilla28","gender":"1","age":"9","school":"4"},{"start_time":1552309349649,"click_time":1552309350658,"finger_time":1552309350179,"fix_duration":250,"trial":5,"RT":530,"MT":479,"sideResp":1,"stimulus":"img/900/randomdotsizeEA/R/3_Ratio_900_L_9_R_10.png","xmouse":[783,783,783,783,783,783,783,783,783,783,783,783,783,783,783,783,783,783,783,783,783,783,783,783,781,764,745,689,667,580,488,466,455,449,445,442,439,435,432,423,413,413,413,413,414,416,418,423,429,433,442],"ymouse":[519,519,519,519,519,519,519,519,519,519,519,519,519,519,519,519,519,519,519,519,519,519,519,519,511,485,464,414,396,337,270,251,240,232,225,215,201,190,183,159,132,125,120,118,117,115,113,110,105,100,92],"timestamp_mouse":[12,39,50,68,89,109,130,150,169,189,210,229,250,270,289,309,329,350,370,389,410,429,450,470,490,510,530,549,570,589,609,628,649,669,689,709,729,748,769,790,808,830,849,870,890,909,929,950,969,989,1009],"xSR":741.5,"ySR":469.95,"xT1":424.9,"yT1":0,"xT2":1058.1,"yT2":0,"toosoon":0,"cond_shown":"randomdotsizeEA","ratio_trial":900,"smaller_num":"9","larger_num":"10","correct_side":2,"subjID":"saritapulidobonilla28","gender":"1","age":"9","school":"4"},{"start_time":1552309352517,"click_time":1552309353359,"finger_time":1552309353038,"fix_duration":257.00414097442734,"trial":6,"RT":521,"MT":321,"sideResp":2,"stimulus":"img/500/randomdotsizeEA/R/6_Ratio_500_L_9_R_18.png","xmouse":[758,758,758,758,758,758,758,758,758,758,758,758,758,758,758,758,758,758,758,758,758,758,764,770,778,795,810,860,884,898,913,926,952,964,975,983,995,1016,1024,1032,1042,1051,1068],"ymouse":[567,567,567,567,567,567,567,567,567,567,567,567,567,567,567,567,567,567,567,567,567,567,557,546,530,495,464,395,362,333,313,294,255,240,226,211,189,155,139,125,109,94,70],"timestamp_mouse":[9,21,42,61,82,102,121,141,161,181,202,221,241,262,282,302,322,342,362,381,402,421,442,461,482,500,521,541,562,581,602,622,641,661,682,701,721,741,760,781,802,822,841],"xSR":741.5,"ySR":469.95,"xT1":424.9,"yT1":0,"xT2":1058.1,"yT2":0,"toosoon":0,"cond_shown":"randomdotsizeEA","ratio_trial":500,"smaller_num":"9","larger_num":"18","correct_side":2,"subjID":"saritapulidobonilla28","gender":"1","age":"9","school":"4"},{"start_time":1552309358858,"click_time":1552309360139,"finger_time":1552309359458,"fix_duration":378.9898258894695,"trial":7,"RT":600,"MT":681,"sideResp":1,"stimulus":"img/750/randomdotsizeEA/R/15_Ratio_750_L_9_R_12.png","xmouse":[798,798,798,798,798,798,798,798,798,798,798,798,798,798,798,798,798,798,798,798,798,798,798,798,798,798,798,798,797,790,744,712,675,643,624,603,595,584,565,528,463,436,418,412,411,410,410,410,410,410,414,415,417,420,423,431,433,436,441,444,447,448,450,450,452],"ymouse":[522,522,522,522,522,522,522,522,522,522,522,522,522,522,522,522,522,522,522,522,522,522,522,522,522,522,522,522,521,511,459,426,395,368,354,332,320,309,297,276,244,233,222,218,216,210,204,198,192,182,170,165,161,156,152,139,133,127,118,113,107,104,101,100,98],"timestamp_mouse":[10,21,40,60,81,100,120,140,160,180,201,221,240,260,280,299,321,340,360,381,400,420,440,461,480,501,521,540,561,581,599,621,639,661,680,700,720,741,759,780,800,820,840,861,881,901,921,941,960,980,1000,1019,1040,1060,1080,1099,1121,1140,1161,1181,1200,1221,1241,1260,1281],"xSR":741.5,"ySR":469.95,"xT1":424.9,"yT1":0,"xT2":1058.1,"yT2":0,"toosoon":0,"cond_shown":"randomdotsizeEA","ratio_trial":750,"smaller_num":"9","larger_num":"12","correct_side":2,"subjID":"saritapulidobonilla28","gender":"1","age":"9","school":"4"},{"start_time":1552309363411,"click_time":1552309364159,"finger_time":1552309363558,"fix_duration":250,"trial":8,"RT":147,"MT":601,"sideResp":2,"stimulus":"img/900/equaldotsize/L/10_Ratio_900_L_20_R_18.png","xmouse":[827,827,827,827,827,829,832,838,839,840,842,843,846,849,851,854,857,862,868,874,885,889,894,897,901,904,910,930,944,957,976,992,1013,1024,1035,1043,1051,1065],"ymouse":[483,483,483,483,483,479,474,465,461,459,457,454,447,442,437,430,425,408,393,382,360,350,331,319,309,296,282,246,221,199,169,148,111,92,75,62,50,27],"timestamp_mouse":[10,27,51,68,87,108,128,147,168,186,206,227,248,267,287,308,327,347,367,387,407,428,447,467,487,508,528,547,568,588,608,628,647,668,688,708,727,747],"xSR":741.5,"ySR":469.95,"xT1":424.9,"yT1":0,"xT2":1058.1,"yT2":0,"toosoon":0,"cond_shown":"equaldotsize","ratio_trial":900,"smaller_num":"18","larger_num":"20","correct_side":1,"subjID":"saritapulidobonilla28","gender":"1","age":"9","school":"4"},{"start_time":1552309366735,"click_time":1552309367219,"finger_time":1552309367119,"fix_duration":1075.8334134787685,"trial":9,"RT":384,"MT":100,"sideResp":1,"stimulus":"img/500/equaldotsize/R/3_Ratio_500_L_10_R_20.png","xmouse":[824,824,824,824,824,824,824,824,824,824,824,824,824,824,824,824,824,824,816,790,753,660,612,536,510],"ymouse":[512,512,512,512,512,512,512,512,512,512,512,512,512,512,512,512,512,512,500,459,407,286,215,108,78],"timestamp_mouse":[9,23,43,64,83,102,123,143,164,183,202,223,243,264,284,303,323,343,363,384,404,423,443,464,484],"xSR":741.5,"ySR":469.95,"xT1":424.9,"yT1":0,"xT2":1058.1,"yT2":0,"toosoon":0,"cond_shown":"equaldotsize","ratio_trial":500,"smaller_num":"10","larger_num":"20","correct_side":2,"subjID":"saritapulidobonilla28","gender":"1","age":"9","school":"4"},{"start_time":1552309369971,"click_time":1552309370958,"finger_time":1552309370298,"fix_duration":1092.1663836733926,"trial":10,"RT":327,"MT":660,"sideResp":2,"stimulus":"img/500/equaldotsize/L/10_Ratio_500_L_4_R_2.png","xmouse":[768,768,768,768,768,768,771,772,773,775,777,780,783,789,806,818,829,841,855,884,901,913,929,943,965,977,991,1000,1010,1024,1030,1033,1037,1039,1043,1044,1045,1048,1050,1057,1057,1057,1057,1057,1057,1057,1057,1057,1072,1081],"ymouse":[554,554,554,554,554,554,549,546,544,540,537,533,528,517,490,473,455,434,412,360,331,304,268,245,198,175,149,128,107,67,51,39,25,20,13,11,9,6,5,0,0,0,0,0,0,0,0,0,0,3],"timestamp_mouse":[14,29,47,68,88,107,127,146,167,187,208,227,247,268,287,307,327,348,367,388,407,428,448,468,487,507,527,547,567,588,608,627,648,666,686,706,728,747,767,787,806,827,847,868,887,907,927,948,967,987],"xSR":741.5,"ySR":469.95,"xT1":424.9,"yT1":0,"xT2":1058.1,"yT2":0,"toosoon":0,"cond_shown":"equaldotsize","ratio_trial":500,"smaller_num":"2","larger_num":"4","correct_side":1,"subjID":"saritapulidobonilla28","gender":"1","age":"9","school":"4"},{"start_time":1552309377025,"click_time":1552309377938,"finger_time":1552309377518,"fix_duration":285.82908813248685,"trial":11,"RT":493,"MT":420,"sideResp":1,"stimulus":"img/750/randomdotsizeEA/L/10_Ratio_750_L_4_R_3.png","xmouse":[789,789,789,789,789,789,789,789,789,789,789,789,789,789,789,789,789,789,789,789,789,788,769,745,714,681,607,588,576,567,560,556,554,550,547,541,530,526,525,524,524,524,524,516,506,497],"ymouse":[515,515,515,515,515,515,515,515,515,515,515,515,515,515,515,515,515,515,515,515,515,515,494,472,449,425,378,363,353,345,337,328,324,317,308,298,271,260,252,249,240,212,184,150,114,89],"timestamp_mouse":[14,46,54,73,93,114,133,153,174,194,214,234,254,273,292,313,333,353,372,392,412,433,452,474,493,512,533,553,574,593,614,633,653,672,694,713,733,753,774,793,813,834,854,874,894,913],"xSR":741.5,"ySR":469.95,"xT1":424.9,"yT1":0,"xT2":1058.1,"yT2":0,"toosoon":0,"cond_shown":"randomdotsizeEA","ratio_trial":750,"smaller_num":"3","larger_num":"4","correct_side":1,"subjID":"saritapulidobonilla28","gender":"1","age":"9","school":"4"},{"start_time":1552309379772,"click_time":1552309381118,"finger_time":1552309380318,"fix_duration":792.6934460365767,"trial":12,"RT":546,"MT":800,"sideResp":2,"stimulus":"img/750/equaldotsize/R/11_Ratio_750_L_12_R_16.png","xmouse":[789,789,789,789,789,789,790,790,790,791,791,791,791,792,793,793,793,793,793,794,796,796,797,797,797,797,803,816,833,875,897,917,924,942,961,969,976,981,985,984,981,980,980,980,984,987,990,992,998,1007,1012,1015,1018,1024,1045,1052,1054,1055,1055,1055,1055,1055,1055,1055,1055,1055,1057,1060],"ymouse":[476,476,476,476,476,476,476,476,476,476,476,476,477,478,478,478,478,478,479,479,479,480,480,480,480,480,478,466,446,405,385,366,358,335,308,295,279,261,242,195,168,150,135,116,96,87,76,65,54,39,32,29,26,20,14,12,12,11,11,11,11,11,11,11,11,11,11,11],"timestamp_mouse":[10,41,46,75,86,107,127,146,167,185,207,225,247,266,286,306,327,346,366,387,407,426,447,466,486,505,526,546,566,587,606,627,647,667,686,706,726,747,767,786,805,827,846,867,886,907,927,946,965,985,1005,1026,1046,1067,1086,1106,1126,1146,1167,1186,1206,1226,1245,1267,1286,1306,1326,1346],"xSR":741.5,"ySR":469.95,"xT1":424.9,"yT1":0,"xT2":1058.1,"yT2":0,"toosoon":0,"cond_shown":"equaldotsize","ratio_trial":750,"smaller_num":"12","larger_num":"16","correct_side":2,"subjID":"saritapulidobonilla28","gender":"1","age":"9","school":"4"},{"start_time":1552309386631,"click_time":1552309387558,"finger_time":1552309387099,"fix_duration":250,"trial":13,"RT":468,"MT":459,"sideResp":1,"stimulus":"img/250/equaldotsize/L/7_Ratio_250_L_8_R_2.png","xmouse":[806,806,806,806,806,806,806,806,806,806,806,806,806,806,806,806,806,806,806,806,806,789,766,730,670,609,534,526,523,520,519,515,511,507,499,492,485,485,485,485,487,487,489,490,490,491,493],"ymouse":[535,535,535,535,535,535,535,535,535,535,535,535,535,535,535,535,535,535,535,535,535,520,504,478,437,393,338,331,324,312,305,288,279,265,248,233,214,206,196,177,164,134,122,116,110,105,99],"timestamp_mouse":[10,34,47,68,87,108,126,148,168,187,207,227,246,267,288,307,327,347,367,387,407,427,446,468,487,507,527,547,568,587,608,627,648,667,686,706,727,747,768,787,807,826,848,868,886,908,927],"xSR":741.5,"ySR":469.95,"xT1":424.9,"yT1":0,"xT2":1058.1,"yT2":0,"toosoon":0,"cond_shown":"equaldotsize","ratio_trial":250,"smaller_num":"2","larger_num":"8","correct_side":1,"subjID":"saritapulidobonilla28","gender":"1","age":"9","school":"4"},{"start_time":1552309398790,"click_time":1552309399838,"finger_time":1552309399439,"fix_duration":250,"trial":14,"RT":649,"MT":399,"sideResp":1,"stimulus":"img/900/randomdotsizeEA/L/4_Ratio_900_L_20_R_18.png","xmouse":[789,789,789,789,789,789,789,789,789,789,789,789,789,789,789,789,789,789,789,789,789,789,789,789,789,789,789,789,789,782,765,743,710,675,669,665,664,663,661,656,650,641,624,583,565,547,529,519,504,498,490,484,480],"ymouse":[544,544,544,544,543,543,534,522,517,517,517,517,517,517,517,517,517,517,517,517,517,517,517,517,517,517,517,517,517,507,489,474,453,434,431,430,428,428,426,417,402,382,345,276,251,226,201,184,153,138,124,110,94],"timestamp_mouse":[9,43,48,68,88,108,129,149,167,188,209,228,249,268,288,308,329,348,369,387,408,428,448,469,489,508,528,548,568,588,608,628,649,668,688,709,728,747,768,788,809,828,849,867,888,908,929,948,968,988,1007,1028,1048],"xSR":741.5,"ySR":469.95,"xT1":424.9,"yT1":0,"xT2":1058.1,"yT2":0,"toosoon":0,"cond_shown":"randomdotsizeEA","ratio_trial":900,"smaller_num":"18","larger_num":"20","correct_side":1,"subjID":"saritapulidobonilla28","gender":"1","age":"9","school":"4"},{"start_time":1552309403278,"click_time":1552309404279,"finger_time":1552309403657,"fix_duration":1299.5950303296142,"trial":15,"RT":379,"MT":622,"sideResp":2,"stimulus":"img/900/equaldotanddens/L/1_Ratio_900_L_10_R_9.png","xmouse":[781,781,781,781,781,781,781,781,781,781,781,781,781,781,788,792,797,800,806,819,825,832,840,848,866,876,885,893,906,918,926,932,938,945,957,964,972,977,986,1003,1012,1018,1026,1032,1044,1049,1063,1067,1075,1082,1085],"ymouse":[552,552,552,552,552,552,552,552,552,552,552,551,551,551,526,518,507,501,485,458,442,426,410,394,361,344,330,320,303,286,276,269,263,256,247,242,237,233,225,210,202,195,185,176,157,148,129,125,113,102,97],"timestamp_mouse":[2,20,44,60,79,100,121,141,159,181,200,220,240,259,279,301,320,340,361,379,401,420,441,461,480,499,521,540,561,580,600,620,641,660,680,699,720,741,761,779,800,820,840,860,880,900,920,940,961,979,1001],"xSR":741.5,"ySR":469.95,"xT1":424.9,"yT1":0,"xT2":1058.1,"yT2":0,"toosoon":0,"cond_shown":"equaldotanddens","ratio_trial":900,"smaller_num":"9","larger_num":"10","correct_side":1,"subjID":"saritapulidobonilla28","gender":"1","age":"9","school":"4"},{"start_time":1552309414208,"click_time":1552309415339,"finger_time":1552309414958,"fix_duration":1327.266811596808,"trial":16,"RT":750,"MT":381,"sideResp":2,"stimulus":"img/250/randomdotsizeEA/L/5_Ratio_250_L_24_R_6.png","xmouse":[812,812,812,812,812,812,812,812,812,812,812,812,812,812,812,812,812,812,812,812,812,812,812,812,812,812,812,812,812,812,812,812,812,812,812,817,821,844,856,865,880,890,898,922,935,949,971,1013,1032,1054,1062,1090,1099,1105,1109,1112,1112],"ymouse":[515,515,515,515,515,515,515,515,515,515,515,515,515,515,515,515,515,515,515,515,515,515,515,515,515,515,515,515,515,515,515,515,515,515,515,495,484,442,423,407,386,373,362,332,318,301,277,228,208,183,174,139,126,116,107,100,97],"timestamp_mouse":[10,30,49,79,89,111,130,151,169,191,210,231,249,270,291,310,331,351,369,391,411,430,451,469,491,511,531,551,570,591,610,630,649,669,691,710,730,750,770,791,810,830,850,870,891,910,931,950,970,990,1011,1033,1050,1070,1090,1111,1131],"xSR":741.5,"ySR":469.95,"xT1":424.9,"yT1":0,"xT2":1058.1,"yT2":0,"toosoon":0,"cond_shown":"randomdotsizeEA","ratio_trial":250,"smaller_num":"6","larger_num":"24","correct_side":1,"subjID":"saritapulidobonilla28","gender":"1","age":"9","school":"4"},{"start_time":1552309418280,"click_time":1552309426278,"finger_time":1552309424999,"fix_duration":899.7269265165829,"trial":17,"RT":6719,"MT":1279,"sideResp":1,"stimulus":"img/500/equaldotsize/R/14_Ratio_500_L_5_R_10.png","xmouse":[820,820,820,820,820,821,822,822,822,822,822,822,822,822,822,822,822,822,821,815,807,801,798,796,796,796,796,796,796,796,796,796,796,796,796,796,796,796,796,796,796,796,796,796,796,796,796,796,796,796,796,796,796,796,796,796,796,796,796,796,796,796,796,795,795,795,795,795,795,795,795,795,795,795,795,795,795,795,795,795,795,795,795,795,795,795,795,795,795,795,795,795,795,795,795,795,795,795,795,795,795,795,795,795,795,795,795,795,795,795,795,795,795,795,795,795,795,795,795,795,795,795,795,795,795,795,795,795,795,795,795,795,795,795,795,795,795,795,795,795,795,795,795,795,795,795,795,795,795,795,795,795,795,795,795,795,795,795,795,795,795,795,795,795,795,795,795,795,795,795,795,795,795,795,795,795,795,795,795,795,795,795,795,795,795,795,795,795,795,795,795,795,795,795,795,795,795,795,795,795,795,795,795,795,795,795,795,795,795,795,795,795,795,795,795,795,795,795,795,795,795,795,795,795,795,795,795,795,795,795,795,795,795,795,795,795,795,795,795,795,795,795,795,795,795,795,795,795,795,795,795,795,795,795,795,795,795,795,795,795,795,795,795,795,795,795,795,795,795,795,795,795,795,795,795,795,795,795,795,795,795,795,795,795,795,795,795,795,795,795,795,795,796,796,796,796,796,796,796,796,796,796,796,796,796,796,796,796,796,796,796,796,796,796,796,796,796,796,796,796,796,796,796,796,796,796,796,796,796,796,796,796,796,796,797,790,757,729,681,666,656,647,641,638,638,638,638,638,638,638,638,638,635,615,595,574,550,522,488,476,468,463,462,462,462,462,462,462,462,462,462,462,462,462,462,462,462,462,462,462,462,462,462,462,462,462,462,462,462,462,462,462,462,462,462,462,462,462,462,462],"ymouse":[510,510,510,510,510,510,511,511,511,511,511,511,511,511,511,511,511,511,504,499,495,491,490,489,489,489,489,489,489,489,489,489,489,489,489,489,489,489,489,489,489,489,489,489,489,489,489,489,489,489,489,489,489,489,489,489,489,489,489,489,482,478,476,476,476,476,476,476,476,476,476,476,476,476,476,476,476,476,476,476,476,476,476,476,476,476,476,476,476,476,476,476,476,476,476,476,476,476,476,476,476,476,476,476,476,476,476,476,476,476,476,476,476,476,476,476,476,476,476,476,476,476,476,476,476,476,476,476,476,476,476,476,476,476,476,476,476,476,476,476,476,476,476,476,476,476,476,476,476,476,476,476,476,476,476,476,476,476,476,476,476,476,476,476,476,476,476,476,476,476,476,476,476,476,476,476,476,476,476,476,476,476,476,476,476,476,476,476,476,476,476,476,476,476,476,476,476,476,476,476,476,476,476,476,476,476,476,476,476,476,476,476,476,476,476,476,476,476,476,476,476,476,476,476,476,476,476,476,476,476,476,476,476,476,476,476,476,476,476,476,476,476,476,476,476,476,476,476,476,476,476,476,476,476,476,476,476,476,476,476,476,476,476,476,476,476,476,476,476,476,476,476,476,476,476,476,476,476,476,476,476,476,476,476,476,476,476,476,476,476,476,476,476,485,489,489,489,489,489,489,490,490,490,490,490,490,490,490,490,490,490,490,490,490,490,490,490,490,490,490,490,490,490,490,490,490,490,490,490,490,490,490,490,490,476,459,403,367,309,290,276,266,258,256,256,256,256,256,256,256,256,256,250,225,211,199,185,164,141,131,125,122,120,119,118,118,118,118,118,118,118,118,118,115,111,109,108,106,105,105,105,105,105,104,103,102,101,100,100,100,100,100,100,100,100,100,100,100,100,96],"timestamp_mouse":[18,40,57,78,98,117,138,159,179,198,217,238,257,278,298,317,338,357,378,398,417,438,459,479,497,518,539,559,578,599,619,638,658,678,699,719,738,758,778,798,819,837,859,879,898,919,938,958,977,999,1018,1039,1058,1078,1099,1118,1139,1158,1177,1199,1219,1238,1257,1278,1299,1318,1338,1359,1378,1397,1418,1439,1458,1478,1499,1517,1539,1558,1578,1599,1617,1639,1658,1678,1699,1719,1739,1758,1778,1797,1818,1838,1858,1878,1897,1918,1939,1958,1978,1998,2018,2037,2058,2078,2099,2117,2139,2158,2178,2199,2218,2239,2258,2278,2298,2317,2339,2358,2378,2399,2418,2439,2458,2478,2499,2519,2538,2558,2578,2599,2619,2639,2658,2678,2698,2718,2738,2759,2778,2798,2818,2838,2858,2878,2899,2918,2939,2958,2978,2999,3019,3038,3058,3077,3099,3118,3137,3158,3178,3198,3219,3238,3258,3279,3298,3318,3337,3359,3378,3398,3419,3438,3457,3477,3499,3519,3538,3559,3578,3597,3619,3639,3658,3678,3698,3719,3738,3758,3777,3799,3818,3838,3858,3877,3898,3919,3939,3958,3979,3999,4019,4038,4059,4078,4099,4119,4139,4159,4178,4198,4219,4239,4259,4279,4298,4319,4339,4359,4379,4398,4419,4438,4458,4478,4499,4517,4537,4558,4579,4598,4619,4639,4658,4677,4697,4719,4737,4759,4778,4799,4818,4838,4858,4878,4898,4918,4939,4957,4978,4998,5019,5038,5058,5078,5098,5119,5138,5158,5178,5199,5219,5239,5259,5278,5298,5318,5337,5358,5378,5397,5419,5439,5458,5477,5499,5519,5539,5558,5578,5599,5617,5638,5658,5677,5698,5719,5739,5758,5778,5798,5818,5839,5858,5878,5898,5917,5939,5958,5978,5998,6018,6039,6057,6078,6098,6118,6138,6158,6179,6198,6219,6239,6258,6278,6298,6318,6338,6357,6378,6399,6419,6437,6459,6478,6499,6519,6538,6558,6578,6597,6619,6639,6658,6677,6699,6719,6738,6759,6778,6798,6818,6838,6858,6878,6899,6918,6938,6959,6977,6999,7019,7038,7058,7078,7099,7118,7138,7157,7177,7198,7219,7238,7259,7278,7298,7317,7337,7359,7378,7399,7419,7439,7460,7478,7498,7518,7539,7558,7578,7598,7618,7638,7659,7677,7699,7718,7739,7757,7777,7799,7819,7839,7859,7877,7897,7918,7937,7959,7978,7998],"xSR":741.5,"ySR":469.95,"xT1":424.9,"yT1":0,"xT2":1058.1,"yT2":0,"toosoon":0,"cond_shown":"equaldotsize","ratio_trial":500,"smaller_num":"5","larger_num":"10","correct_side":2,"subjID":"saritapulidobonilla28","gender":"1","age":"9","school":"4"},{"start_time":1552309435672,"click_time":1552309437038,"finger_time":1552309436318,"fix_duration":472.6229614794947,"trial":18,"RT":646,"MT":720,"sideResp":2,"stimulus":"img/500/equaldotsize/R/3_Ratio_500_L_10_R_20.png","xmouse":[807,807,807,807,807,807,807,807,806,805,805,805,805,805,805,805,805,805,805,805,805,805,805,805,805,805,805,805,805,813,821,830,845,859,881,890,892,894,897,898,898,899,900,901,906,909,912,919,929,946,961,977,998,1018,1053,1071,1088,1110,1118,1124,1125,1126,1127,1127,1128,1128,1125,1121,1117],"ymouse":[527,527,527,527,527,527,527,526,519,517,517,517,517,517,517,517,517,517,517,517,517,517,517,517,517,517,517,517,517,504,491,474,452,432,394,365,356,339,315,288,278,270,263,255,240,235,230,221,216,206,201,197,192,187,181,177,171,163,160,151,147,145,142,137,128,121,112,105,95],"timestamp_mouse":[13,36,45,67,87,107,125,145,166,186,205,227,247,266,285,306,326,346,367,386,406,427,446,466,486,507,527,545,565,586,606,626,646,666,686,706,727,746,766,785,807,826,847,867,886,905,927,946,966,987,1006,1025,1046,1065,1086,1106,1127,1147,1167,1186,1205,1226,1246,1266,1286,1307,1327,1345,1366],"xSR":741.5,"ySR":469.95,"xT1":424.9,"yT1":0,"xT2":1058.1,"yT2":0,"toosoon":0,"cond_shown":"equaldotsize","ratio_trial":500,"smaller_num":"10","larger_num":"20","correct_side":2,"subjID":"saritapulidobonilla28","gender":"1","age":"9","school":"4"},{"start_time":1552309445290,"click_time":1552309447057,"finger_time":1552309445778,"fix_duration":250,"trial":19,"RT":488,"MT":1279,"sideResp":2,"stimulus":"img/500/equaldotsize/R/15_Ratio_500_L_1_R_2.png","xmouse":[774,774,774,774,774,774,774,774,774,774,774,774,774,774,774,774,774,774,774,774,774,774,772,772,772,772,776,778,786,791,798,808,818,842,855,864,872,882,894,903,913,919,921,921,921,921,921,921,921,921,921,921,921,922,930,952,997,1049,1189,1254,1302,1333,1345,1345,1345,1345,1345,1345,1346,1346,1345,1342,1340,1325,1313,1298,1280,1269,1244,1235,1231,1231,1231,1231,1231,1229,1218,1204,1148],"ymouse":[544,544,544,544,544,544,544,544,544,544,544,544,544,544,544,544,544,544,544,539,527,516,505,482,467,452,428,411,374,354,332,307,283,226,194,165,146,119,96,83,70,64,63,63,63,63,63,63,63,63,63,63,63,63,63,63,63,63,69,77,86,91,93,93,93,93,93,93,93,93,94,95,96,98,98,98,97,94,87,84,83,83,83,83,83,82,80,77,69],"timestamp_mouse":[10,40,47,67,87,106,127,147,168,186,208,228,246,266,287,307,327,348,367,387,407,427,448,467,488,508,527,547,568,587,607,627,648,667,688,707,727,748,768,788,806,827,846,867,887,907,928,947,967,987,1008,1026,1048,1067,1088,1107,1127,1147,1168,1187,1207,1227,1247,1267,1287,1308,1328,1347,1366,1387,1408,1427,1448,1467,1487,1508,1527,1548,1566,1587,1608,1627,1647,1666,1687,1707,1727,1748,1766],"xSR":741.5,"ySR":469.95,"xT1":424.9,"yT1":0,"xT2":1058.1,"yT2":0,"toosoon":0,"cond_shown":"equaldotsize","ratio_trial":500,"smaller_num":"1","larger_num":"2","correct_side":2,"subjID":"saritapulidobonilla28","gender":"1","age":"9","school":"4"},{"start_time":1552309454368,"click_time":1552309455038,"finger_time":1552309454838,"fix_duration":929.6857401432038,"trial":20,"RT":470,"MT":200,"sideResp":2,"stimulus":"img/250/equaldotanddens/R/4_Ratio_250_L_3_R_12.png","xmouse":[764,764,764,764,764,764,764,759,756,749,749,749,749,749,749,749,749,749,756,773,792,810,829,852,878,893,913,932,963,1016,1039,1062,1080,1098],"ymouse":[527,527,527,527,527,527,527,526,525,525,525,525,525,525,525,525,525,525,524,519,510,501,490,468,425,397,360,326,284,214,180,150,122,92],"timestamp_mouse":[10,41,49,70,90,110,128,149,170,189,209,229,250,268,290,309,330,349,370,389,409,429,450,470,489,510,529,550,570,588,610,629,650,669],"xSR":741.5,"ySR":469.95,"xT1":424.9,"yT1":0,"xT2":1058.1,"yT2":0,"toosoon":0,"cond_shown":"equaldotanddens","ratio_trial":250,"smaller_num":"3","larger_num":"12","correct_side":2,"subjID":"saritapulidobonilla28","gender":"1","age":"9","school":"4"},{"start_time":1552309457008,"click_time":1552309457817,"finger_time":1552309457498,"fix_duration":250,"trial":21,"RT":490,"MT":319,"sideResp":2,"stimulus":"img/900/equaldotanddens/R/15_Ratio_900_L_9_R_10.png","xmouse":[816,816,816,816,816,816,816,816,816,816,816,816,816,816,816,816,816,816,816,816,816,816,816,816,821,832,855,900,917,934,949,957,974,983,994,1008,1027,1073,1095,1112,1128],"ymouse":[472,472,472,472,472,472,472,472,472,472,472,472,472,472,472,472,472,472,472,472,472,472,472,472,468,460,445,412,395,378,353,338,307,290,271,248,223,172,142,118,87],"timestamp_mouse":[10,32,49,69,90,110,130,150,169,189,209,229,249,268,290,308,329,349,369,389,410,429,449,470,490,508,530,550,570,589,609,629,648,670,690,709,730,749,770,790,809],"xSR":741.5,"ySR":469.95,"xT1":424.9,"yT1":0,"xT2":1058.1,"yT2":0,"toosoon":0,"cond_shown":"equaldotanddens","ratio_trial":900,"smaller_num":"9","larger_num":"10","correct_side":2,"subjID":"saritapulidobonilla28","gender":"1","age":"9","school":"4"},{"start_time":1552309460183,"click_time":1552309461418,"finger_time":1552309460697,"fix_duration":1025.931372763075,"trial":22,"RT":514,"MT":721,"sideResp":1,"stimulus":"img/500/equaldotanddens/L/8_Ratio_500_L_8_R_4.png","xmouse":[819,819,819,819,819,819,819,819,819,819,819,819,819,819,819,819,819,819,819,819,819,819,819,819,819,819,816,806,785,768,744,715,674,638,612,612,612,612,612,612,612,612,612,612,612,612,612,612,612,612,393,391,391,394,396,397,400,402,410,416,422,432],"ymouse":[473,473,473,473,473,473,473,473,473,473,473,473,473,473,473,473,473,473,473,473,473,473,473,473,473,469,457,424,375,338,287,229,145,66,7,7,7,7,7,7,7,7,7,7,7,7,7,7,7,7,4,20,31,41,43,43,43,43,43,43,43,43],"timestamp_mouse":[16,40,54,74,93,114,135,154,173,194,214,234,255,274,294,313,334,354,375,395,415,435,454,475,493,514,534,555,574,594,615,634,654,674,694,714,735,755,775,794,814,835,855,875,894,914,934,954,975,994,1015,1035,1054,1074,1094,1114,1134,1155,1173,1194,1214,1235],"xSR":741.5,"ySR":469.95,"xT1":424.9,"yT1":0,"xT2":1058.1,"yT2":0,"toosoon":0,"cond_shown":"equaldotanddens","ratio_trial":500,"smaller_num":"4","larger_num":"8","correct_side":1,"subjID":"saritapulidobonilla28","gender":"1","age":"9","school":"4"},{"start_time":1552309465722,"click_time":1552309466498,"finger_time":1552309466177,"fix_duration":522.976536556754,"trial":23,"RT":455,"MT":321,"sideResp":1,"stimulus":"img/500/equaldotanddens/R/14_Ratio_500_L_5_R_10.png","xmouse":[771,771,771,771,771,771,771,771,771,771,771,771,771,771,771,771,771,771,771,771,771,764,747,718,713,701,694,694,694,694,693,690,684,672,664,635,560,530,506],"ymouse":[545,545,545,545,545,545,545,545,545,545,545,545,545,545,545,545,545,545,545,545,537,507,467,401,385,339,303,294,285,280,276,266,255,234,224,187,123,96,75],"timestamp_mouse":[15,44,56,76,95,116,135,156,176,195,216,235,255,276,296,315,336,354,375,395,415,435,455,475,495,514,536,556,575,595,615,635,656,675,696,715,735,756,776],"xSR":741.5,"ySR":469.95,"xT1":424.9,"yT1":0,"xT2":1058.1,"yT2":0,"toosoon":0,"cond_shown":"equaldotanddens","ratio_trial":500,"smaller_num":"5","larger_num":"10","correct_side":2,"subjID":"saritapulidobonilla28","gender":"1","age":"9","school":"4"},{"start_time":1552309468748,"click_time":1552309473678,"finger_time":1552309473097,"fix_duration":889.3344980086537,"trial":24,"RT":4349,"MT":581,"sideResp":1,"stimulus":"img/500/equaldotanddens/L/11_Ratio_500_L_12_R_6.png","xmouse":[770,770,770,770,770,772,772,772,772,772,772,772,772,772,772,772,772,772,772,772,772,772,772,773,774,776,777,777,777,777,777,777,777,777,777,777,776,776,776,776,776,776,776,776,776,776,776,776,776,776,776,776,776,776,776,776,776,776,776,776,776,776,776,776,776,776,776,776,776,776,776,776,776,776,776,776,776,776,776,776,776,776,776,776,776,776,776,776,776,776,776,776,776,776,776,776,776,776,776,776,776,776,776,776,776,776,776,776,775,775,775,775,775,775,775,775,775,775,775,775,775,775,775,775,775,775,775,775,775,775,775,775,775,775,775,775,775,775,775,775,775,775,775,775,775,775,775,775,775,775,775,775,775,775,775,775,775,775,775,775,775,775,775,775,775,775,775,775,775,775,775,775,775,775,775,775,775,775,775,775,775,775,775,775,775,775,775,775,775,775,775,775,775,775,775,775,775,775,775,775,775,775,775,775,775,775,775,775,775,775,775,775,775,775,775,767,751,733,713,688,658,651,649,647,646,642,637,632,625,619,612,609,607,602,599,592,589,589,588,586,584,582,578,571,562,535,522],"ymouse":[541,541,541,541,541,540,540,540,540,540,540,540,540,540,540,540,540,540,540,540,540,540,540,537,534,528,526,525,524,524,524,524,524,524,524,519,518,518,518,518,518,518,518,518,518,518,518,518,518,518,518,518,518,518,518,518,518,518,518,518,518,518,518,518,518,518,518,518,518,518,518,518,518,518,518,518,518,518,518,518,518,518,518,518,518,518,518,518,518,518,518,518,518,518,518,518,518,518,518,518,518,518,518,518,518,518,518,519,520,521,523,523,523,523,523,523,523,524,524,524,524,524,524,524,524,524,524,524,524,524,524,524,524,524,524,524,524,524,524,524,524,524,524,524,524,524,524,524,524,524,524,524,524,524,524,524,524,524,524,524,524,524,524,524,524,524,524,524,524,524,524,524,524,524,524,524,524,524,524,524,524,524,524,524,524,524,524,524,524,524,524,524,524,524,524,524,524,524,524,524,524,524,524,524,524,524,524,524,524,524,524,524,524,524,524,509,489,463,437,407,373,365,362,360,359,354,348,341,332,319,295,283,267,245,230,202,192,184,178,173,165,161,155,146,135,104,89],"timestamp_mouse":[13,46,49,70,89,109,129,150,169,189,209,229,248,270,290,309,329,349,369,390,410,429,449,469,490,510,529,549,569,590,609,630,650,670,689,709,729,749,770,790,809,830,850,869,890,909,929,948,970,989,1009,1030,1050,1070,1089,1109,1130,1150,1168,1188,1209,1229,1250,1270,1289,1309,1328,1349,1369,1390,1408,1429,1450,1469,1489,1509,1530,1549,1570,1590,1609,1629,1650,1669,1689,1709,1730,1749,1769,1789,1809,1829,1850,1869,1889,1909,1929,1950,1969,1989,2009,2029,2050,2068,2090,2109,2129,2150,2169,2188,2209,2228,2250,2269,2289,2309,2329,2350,2370,2389,2409,2429,2449,2469,2489,2509,2530,2549,2569,2588,2609,2629,2650,2670,2689,2709,2729,2749,2770,2790,2809,2829,2850,2869,2890,2909,2928,2950,2969,2989,3008,3029,3050,3070,3089,3108,3130,3149,3170,3188,3208,3229,3249,3270,3288,3309,3329,3350,3369,3390,3409,3429,3450,3470,3488,3509,3529,3550,3568,3589,3609,3629,3649,3670,3688,3709,3730,3749,3770,3790,3809,3829,3850,3870,3889,3909,3929,3948,3969,3990,4010,4028,4049,4070,4089,4110,4129,4150,4170,4189,4209,4229,4250,4269,4289,4309,4329,4349,4369,4389,4410,4428,4450,4470,4490,4509,4529,4548,4569,4589,4609,4629,4650,4669,4690,4709,4729,4749,4769,4790,4809,4829,4849,4869,4890,4909,4930],"xSR":741.5,"ySR":469.95,"xT1":424.9,"yT1":0,"xT2":1058.1,"yT2":0,"toosoon":0,"cond_shown":"equaldotanddens","ratio_trial":500,"smaller_num":"6","larger_num":"12","correct_side":1,"subjID":"saritapulidobonilla28","gender":"1","age":"9","school":"4"},{"start_time":1552309475310,"click_time":1552309476078,"finger_time":1552309475897,"fix_duration":250,"trial":25,"RT":587,"MT":181,"sideResp":1,"stimulus":"img/250/equaldotsize/L/14_Ratio_250_L_12_R_3.png","xmouse":[818,818,818,818,818,818,818,818,818,818,818,818,818,818,818,818,818,818,818,818,818,818,813,801,786,777,768,760,757,751,742,729,681,652,602,587,560,520,498],"ymouse":[515,515,515,515,515,515,515,515,515,515,515,515,515,515,515,515,515,515,515,515,515,515,513,511,504,499,491,479,470,458,441,419,355,313,244,222,180,114,77],"timestamp_mouse":[10,28,48,68,88,108,128,147,168,188,208,228,248,267,288,308,328,348,368,387,407,427,447,467,487,507,527,548,567,587,608,626,647,668,687,707,728,747,768],"xSR":741.5,"ySR":469.95,"xT1":424.9,"yT1":0,"xT2":1058.1,"yT2":0,"toosoon":0,"cond_shown":"equaldotsize","ratio_trial":250,"smaller_num":"3","larger_num":"12","correct_side":1,"subjID":"saritapulidobonilla28","gender":"1","age":"9","school":"4"},{"start_time":1552309479555,"click_time":1552309480477,"finger_time":1552309480157,"fix_duration":774.3005635879067,"trial":26,"RT":602,"MT":320,"sideResp":2,"stimulus":"img/250/randomdotsizeEA/R/8_Ratio_250_L_1_R_4.png","xmouse":[785,785,785,785,785,785,785,785,785,785,785,785,785,785,785,785,785,785,785,785,785,785,785,785,784,774,773,773,776,796,855,912,976,1035,1101,1135,1136,1136,1136,1136,1139,1140,1142,1143,1144,1137,1134],"ymouse":[513,513,513,513,513,513,513,513,513,513,513,513,513,513,513,513,513,513,513,513,513,513,513,511,507,495,488,483,476,470,453,436,414,387,333,254,215,180,157,142,127,125,122,118,112,100,96],"timestamp_mouse":[13,25,42,67,82,103,122,142,162,182,201,223,243,261,282,302,322,342,362,383,402,422,442,462,483,502,522,542,563,582,602,622,642,663,684,702,722,742,762,783,802,822,843,862,883,902,922],"xSR":741.5,"ySR":469.95,"xT1":424.9,"yT1":0,"xT2":1058.1,"yT2":0,"toosoon":0,"cond_shown":"randomdotsizeEA","ratio_trial":250,"smaller_num":"1","larger_num":"4","correct_side":2,"subjID":"saritapulidobonilla28","gender":"1","age":"9","school":"4"},{"start_time":1552309483055,"click_time":1552309484158,"finger_time":1552309483797,"fix_duration":934.5501145983492,"trial":27,"RT":742,"MT":361,"sideResp":1,"stimulus":"img/900/equaldotsize/R/15_Ratio_900_L_9_R_10.png","xmouse":[797,797,797,797,797,797,797,797,797,797,797,797,797,797,797,797,797,797,797,797,797,797,797,797,796,791,788,787,787,787,787,787,787,787,787,787,790,793,794,794,781,764,739,716,700,685,683,682,680,678,667,651,628,596,567,521],"ymouse":[516,516,516,516,516,516,516,516,516,516,516,516,516,516,516,516,516,516,516,516,516,516,516,516,517,509,504,500,500,500,500,500,500,500,498,492,483,465,456,428,376,340,300,269,249,225,216,215,209,205,192,180,164,141,121,89],"timestamp_mouse":[9,22,41,63,83,101,122,143,163,183,202,223,242,263,282,302,322,343,363,381,403,423,441,462,482,502,522,542,562,582,602,622,643,662,683,702,723,742,763,783,802,822,842,862,882,902,921,943,963,983,1002,1022,1042,1062,1082,1102],"xSR":741.5,"ySR":469.95,"xT1":424.9,"yT1":0,"xT2":1058.1,"yT2":0,"toosoon":0,"cond_shown":"equaldotsize","ratio_trial":900,"smaller_num":"9","larger_num":"10","correct_side":2,"subjID":"saritapulidobonilla28","gender":"1","age":"9","school":"4"},{"start_time":1552309486689,"click_time":1552309487557,"finger_time":1552309487257,"fix_duration":1410.5658390785593,"trial":28,"RT":568,"MT":300,"sideResp":2,"stimulus":"img/750/equaldotanddens/R/3_Ratio_750_L_15_R_20.png","xmouse":[793,793,793,793,793,793,793,793,793,793,793,792,791,786,784,784,784,784,784,784,784,784,784,783,786,792,801,814,838,852,867,882,898,935,956,980,1001,1027,1056,1067,1081,1095,1105,1120],"ymouse":[540,540,540,540,540,540,540,540,540,540,540,540,540,542,544,544,544,544,544,544,544,544,544,542,534,523,510,485,451,431,411,392,374,327,301,275,253,223,182,166,149,133,119,95],"timestamp_mouse":[9,42,48,68,88,109,129,148,169,188,209,228,248,268,287,309,328,348,369,388,409,428,448,468,488,507,529,548,568,588,608,629,649,668,688,708,728,748,768,788,808,828,849,868],"xSR":741.5,"ySR":469.95,"xT1":424.9,"yT1":0,"xT2":1058.1,"yT2":0,"toosoon":0,"cond_shown":"equaldotanddens","ratio_trial":750,"smaller_num":"15","larger_num":"20","correct_side":2,"subjID":"saritapulidobonilla28","gender":"1","age":"9","school":"4"},{"start_time":1552309491739,"click_time":1552309492798,"finger_time":1552309492257,"fix_duration":1140.7519903962532,"trial":29,"RT":518,"MT":541,"sideResp":1,"stimulus":"img/900/randomdotsizeEA/L/2_Ratio_900_L_20_R_18.png","xmouse":[767,767,767,767,767,767,767,767,767,767,767,767,767,767,767,767,767,767,767,767,767,767,767,767,767,760,754,749,745,742,735,731,727,727,719,689,665,637,615,601,585,580,574,561,554,546,545,544,542,541,532,526,520],"ymouse":[515,515,515,515,515,515,515,515,515,515,515,515,515,515,515,515,515,515,515,515,515,515,515,513,501,469,450,431,418,405,387,381,375,374,365,336,318,298,282,268,245,232,219,198,184,161,149,138,124,112,84,71,61],"timestamp_mouse":[18,42,58,79,98,119,138,159,178,198,219,239,258,279,298,318,338,359,379,397,418,438,458,477,498,518,539,558,578,598,617,638,658,678,698,718,739,759,778,798,818,838,857,878,898,917,938,958,978,998,1018,1038,1059],"xSR":741.5,"ySR":469.95,"xT1":424.9,"yT1":0,"xT2":1058.1,"yT2":0,"toosoon":0,"cond_shown":"randomdotsizeEA","ratio_trial":900,"smaller_num":"18","larger_num":"20","correct_side":1,"subjID":"saritapulidobonilla28","gender":"1","age":"9","school":"4"},{"start_time":1552309495718,"click_time":1552309496837,"finger_time":1552309496218,"fix_duration":1160.9147264984008,"trial":30,"RT":500,"MT":619,"sideResp":2,"stimulus":"img/250/equaldotsize/R/10_Ratio_250_L_4_R_16.png","xmouse":[799,799,799,799,799,799,799,799,799,799,799,799,799,799,799,799,799,799,799,802,806,816,824,831,843,863,892,912,934,955,977,1011,1028,1043,1054,1066,1077,1081,1083,1086,1089,1091,1093,1096,1097,1099,1099,1100,1100,1100,1100,1100,1100,1100,1100,1100],"ymouse":[502,502,502,502,502,502,502,502,502,502,502,502,502,502,502,502,502,502,502,502,500,491,485,478,470,455,428,410,393,375,352,310,286,266,249,231,212,204,199,193,187,172,161,146,142,132,124,120,118,115,112,108,105,103,101,99],"timestamp_mouse":[19,43,59,80,98,120,140,160,179,200,220,238,260,279,300,320,339,360,379,399,419,439,459,479,500,519,539,559,579,599,620,639,658,679,700,719,740,760,779,799,818,840,860,879,899,919,939,959,980,1000,1020,1039,1059,1079,1100,1119],"xSR":741.5,"ySR":469.95,"xT1":424.9,"yT1":0,"xT2":1058.1,"yT2":0,"toosoon":0,"cond_shown":"equaldotsize","ratio_trial":250,"smaller_num":"4","larger_num":"16","correct_side":2,"subjID":"saritapulidobonilla28","gender":"1","age":"9","school":"4"},{"start_time":1552309498957,"click_time":1552309499937,"finger_time":1552309499516,"fix_duration":637.253059300968,"trial":31,"RT":559,"MT":421,"sideResp":1,"stimulus":"img/500/equaldotanddens/L/13_Ratio_500_L_12_R_6.png","xmouse":[746,746,746,746,746,746,746,746,746,746,746,746,746,746,746,746,746,746,746,746,746,746,746,746,746,745,744,742,740,736,736,735,735,735,735,735,735,735,736,736,737,737,734,724,697,627,589,556,529,511],"ymouse":[514,514,514,514,514,514,514,514,514,514,514,514,514,514,514,514,514,514,514,514,514,514,514,514,514,507,496,483,469,458,445,440,438,437,435,434,432,429,426,422,415,408,394,373,328,231,186,148,114,88],"timestamp_mouse":[10,19,39,60,80,100,118,139,160,179,200,218,240,259,280,298,319,340,360,380,400,419,440,460,480,499,519,540,559,580,600,620,639,660,679,699,719,740,760,779,799,818,840,859,880,899,919,939,960,980],"xSR":741.5,"ySR":469.95,"xT1":424.9,"yT1":0,"xT2":1058.1,"yT2":0,"toosoon":0,"cond_shown":"equaldotanddens","ratio_trial":500,"smaller_num":"6","larger_num":"12","correct_side":1,"subjID":"saritapulidobonilla28","gender":"1","age":"9","school":"4"},{"start_time":1552309502374,"click_time":1552309502997,"finger_time":1552309502756,"fix_duration":1036.963659877545,"trial":32,"RT":382,"MT":241,"sideResp":2,"stimulus":"img/750/randomdotsizeEA/L/14_Ratio_750_L_8_R_6.png","xmouse":[782,782,782,782,782,782,782,782,782,782,782,782,782,782,785,793,802,814,823,839,849,865,881,912,961,992,1018,1036,1047,1063,1073,1089],"ymouse":[498,498,498,498,498,498,498,498,498,498,498,498,498,498,499,495,490,483,477,463,450,433,412,369,308,271,237,208,184,144,126,99],"timestamp_mouse":[12,36,42,62,82,102,121,142,162,183,203,222,242,263,282,301,321,343,363,382,401,423,442,462,481,502,522,542,563,582,602,622],"xSR":741.5,"ySR":469.95,"xT1":424.9,"yT1":0,"xT2":1058.1,"yT2":0,"toosoon":0,"cond_shown":"randomdotsizeEA","ratio_trial":750,"smaller_num":"6","larger_num":"8","correct_side":1,"subjID":"saritapulidobonilla28","gender":"1","age":"9","school":"4"},{"start_time":1552309504280,"click_time":1552309505897,"finger_time":1552309504976,"fix_duration":261.0810292235668,"trial":33,"RT":696,"MT":921,"sideResp":2,"stimulus":"img/500/equaldotsize/R/2_Ratio_500_L_3_R_6.png","xmouse":[775,775,775,775,775,775,775,775,775,775,775,775,775,775,775,775,775,775,775,775,775,775,775,775,775,776,778,779,780,781,781,782,782,782,781,780,779,779,773,771,767,761,757,756,756,757,790,849,1017,1085,1140,1168,1187,1207,1211,1217,1219,1226,1233,1233,1233,1229,1225,1221,1219,1217,1216,1213,1206,1204,1202,1201,1199,1193,1188,1183,1180,1179,1171,1164,1155],"ymouse":[514,514,514,514,515,515,515,515,515,515,515,515,515,515,515,515,515,515,515,515,515,515,515,515,515,515,513,511,507,505,501,497,491,475,466,458,451,442,423,416,403,390,381,377,376,376,382,399,430,433,433,421,403,348,316,258,243,195,133,111,88,72,60,50,46,45,42,39,36,35,34,34,34,33,33,33,33,33,33,33,33],"timestamp_mouse":[21,37,57,77,97,117,135,156,176,197,215,236,255,276,296,317,337,355,375,396,417,437,457,477,496,516,535,556,576,596,616,637,657,676,696,716,736,755,776,796,816,836,856,876,896,916,936,956,976,996,1016,1036,1057,1076,1096,1116,1137,1156,1176,1196,1216,1236,1256,1276,1296,1316,1337,1356,1376,1396,1416,1436,1456,1475,1496,1516,1537,1557,1576,1596,1617],"xSR":741.5,"ySR":469.95,"xT1":424.9,"yT1":0,"xT2":1058.1,"yT2":0,"toosoon":0,"cond_shown":"equaldotsize","ratio_trial":500,"smaller_num":"3","larger_num":"6","correct_side":2,"subjID":"saritapulidobonilla28","gender":"1","age":"9","school":"4"},{"start_time":1552309508101,"click_time":1552309508856,"finger_time":1552309508537,"fix_duration":1343.7671315365349,"trial":34,"RT":436,"MT":319,"sideResp":2,"stimulus":"img/750/equaldotsize/L/9_Ratio_750_L_4_R_3.png","xmouse":[784,784,784,784,784,784,784,784,784,784,784,784,785,785,785,787,789,800,808,821,834,845,875,888,904,920,939,962,970,979,987,996,1013,1024,1033,1050,1060,1084],"ymouse":[546,546,546,546,546,546,546,546,546,546,546,546,546,546,546,546,546,541,536,528,518,507,467,444,418,389,352,313,292,273,252,231,197,179,164,137,119,88],"timestamp_mouse":[14,43,54,74,94,116,136,156,175,196,215,236,255,276,296,316,335,355,375,394,416,436,456,475,495,514,535,555,575,595,615,636,655,674,696,716,735,754],"xSR":741.5,"ySR":469.95,"xT1":424.9,"yT1":0,"xT2":1058.1,"yT2":0,"toosoon":0,"cond_shown":"equaldotsize","ratio_trial":750,"smaller_num":"3","larger_num":"4","correct_side":1,"subjID":"saritapulidobonilla28","gender":"1","age":"9","school":"4"},{"start_time":1552309512771,"click_time":1552309513438,"finger_time":1552309513176,"fix_duration":1313.1853414253362,"trial":35,"RT":405,"MT":262,"sideResp":1,"stimulus":"img/500/equaldotsize/R/1_Ratio_500_L_9_R_18.png","xmouse":[803,803,803,803,803,804,804,804,804,804,804,804,804,804,804,804,804,791,782,749,732,724,714,708,692,682,672,660,636,599,579,566,552,523],"ymouse":[529,529,529,529,529,529,529,529,529,529,529,529,529,529,529,529,529,518,510,485,471,462,444,429,392,370,347,319,270,186,143,106,69,3],"timestamp_mouse":[12,32,45,66,86,106,126,145,166,186,206,225,245,266,286,306,326,345,366,385,405,426,445,466,484,505,525,545,566,584,605,625,645,667],"xSR":741.5,"ySR":469.95,"xT1":424.9,"yT1":0,"xT2":1058.1,"yT2":0,"toosoon":0,"cond_shown":"equaldotsize","ratio_trial":500,"smaller_num":"9","larger_num":"18","correct_side":2,"subjID":"saritapulidobonilla28","gender":"1","age":"9","school":"4"},{"start_time":1552309515651,"click_time":1552309516936,"finger_time":1552309516336,"fix_duration":1052.0624917879034,"trial":36,"RT":685,"MT":600,"sideResp":1,"stimulus":"img/900/equaldotsize/L/4_Ratio_900_L_20_R_18.png","xmouse":[776,776,776,776,776,776,776,776,776,776,776,776,776,776,776,776,776,776,776,776,776,776,776,776,776,776,776,776,776,776,776,776,776,774,767,737,723,710,699,690,680,676,674,669,666,651,637,622,605,595,572,563,550,537,529,525,525,525,525,525,525,525,525,525,524],"ymouse":[508,508,508,508,508,508,508,508,508,508,508,508,508,508,508,508,508,508,508,508,508,508,508,508,508,508,508,508,508,508,508,508,501,486,469,424,406,387,369,347,323,312,302,293,286,270,257,243,225,212,182,168,150,132,118,106,102,100,98,98,96,94,90,87,83],"timestamp_mouse":[9,36,45,65,86,106,126,144,165,185,204,225,244,266,284,305,326,345,365,385,406,424,444,466,485,506,524,545,566,585,605,625,645,666,685,705,726,746,765,785,805,825,845,865,885,905,925,946,966,986,1006,1026,1045,1065,1085,1105,1125,1145,1164,1185,1206,1226,1246,1265,1285],"xSR":741.5,"ySR":469.95,"xT1":424.9,"yT1":0,"xT2":1058.1,"yT2":0,"toosoon":0,"cond_shown":"equaldotsize","ratio_trial":900,"smaller_num":"18","larger_num":"20","correct_side":1,"subjID":"saritapulidobonilla28","gender":"1","age":"9","school":"4"},{"start_time":1552309519573,"click_time":1552309520756,"finger_time":1552309520337,"fix_duration":1374.8865229130397,"trial":37,"RT":764,"MT":419,"sideResp":2,"stimulus":"img/750/equaldotsize/R/4_Ratio_750_L_15_R_20.png","xmouse":[780,780,780,780,780,780,780,780,780,780,780,780,780,780,780,780,780,780,780,780,780,780,780,780,780,780,780,780,780,780,780,780,781,782,783,784,786,788,790,800,809,827,835,867,915,931,940,946,950,963,969,986,988,1000,1025,1036,1048,1057,1068,1089],"ymouse":[484,484,484,484,484,484,484,484,484,484,484,484,484,484,484,484,484,484,484,484,484,484,484,484,484,484,484,484,484,484,484,484,484,484,483,482,479,474,469,455,446,427,418,390,329,305,291,283,276,261,255,240,237,220,185,163,141,120,100,71],"timestamp_mouse":[9,22,44,65,83,104,122,144,163,183,203,224,243,264,283,303,322,343,364,384,404,424,443,464,484,503,522,543,564,584,603,623,644,662,683,703,722,743,764,783,803,823,843,864,883,904,923,943,963,983,1003,1023,1043,1063,1082,1103,1123,1144,1163,1183],"xSR":741.5,"ySR":469.95,"xT1":424.9,"yT1":0,"xT2":1058.1,"yT2":0,"toosoon":0,"cond_shown":"equaldotsize","ratio_trial":750,"smaller_num":"15","larger_num":"20","correct_side":2,"subjID":"saritapulidobonilla28","gender":"1","age":"9","school":"4"},{"start_time":1552309522491,"click_time":1552309523577,"finger_time":1552309523136,"fix_duration":534.116686829024,"trial":38,"RT":645,"MT":441,"sideResp":1,"stimulus":"img/900/equaldotsize/L/2_Ratio_900_L_20_R_18.png","xmouse":[788,788,788,788,788,788,788,788,788,788,788,788,788,788,788,788,788,788,788,788,788,788,788,788,788,788,788,788,788,781,771,759,745,724,717,711,711,709,705,704,699,693,689,667,653,638,624,602,578,572,564,554,546,523,515],"ymouse":[531,531,531,531,531,531,527,524,520,520,519,519,519,519,519,519,519,519,519,519,519,519,519,519,519,519,519,519,514,504,492,477,462,438,427,412,409,400,381,370,357,340,325,283,263,246,232,212,186,175,161,147,135,107,96],"timestamp_mouse":[9,26,47,66,85,105,126,145,165,185,205,226,245,265,284,304,324,345,366,386,404,425,446,465,485,505,526,544,566,585,605,626,645,665,685,705,726,747,765,785,805,825,845,865,885,906,926,945,965,985,1005,1026,1045,1065,1086],"xSR":741.5,"ySR":469.95,"xT1":424.9,"yT1":0,"xT2":1058.1,"yT2":0,"toosoon":0,"cond_shown":"equaldotsize","ratio_trial":900,"smaller_num":"18","larger_num":"20","correct_side":1,"subjID":"saritapulidobonilla28","gender":"1","age":"9","school":"4"},{"start_time":1552309527094,"click_time":1552309528116,"finger_time":1552309527517,"fix_duration":836.0891091493598,"trial":39,"RT":423,"MT":599,"sideResp":2,"stimulus":"img/900/randomdotsizeEA/L/10_Ratio_900_L_20_R_18.png","xmouse":[816,816,816,816,816,816,816,816,816,816,816,816,816,816,816,816,816,816,816,817,829,842,858,890,903,915,936,950,978,995,1012,1033,1057,1092,1105,1118,1121,1124,1124,1124,1124,1125,1125,1125,1125,1125,1124,1124,1123,1122,1122,1122],"ymouse":[546,546,546,546,546,546,546,546,546,546,546,546,546,546,546,546,546,546,546,545,534,521,506,471,455,436,406,387,348,325,306,285,263,221,202,177,170,153,139,134,130,126,124,121,120,118,118,117,111,107,104,99],"timestamp_mouse":[11,21,42,62,81,103,123,141,162,182,202,223,242,263,283,302,323,342,361,382,402,423,442,462,483,502,523,542,562,582,603,623,642,662,682,702,723,742,762,782,802,822,843,862,883,903,922,942,962,982,1003,1022],"xSR":741.5,"ySR":469.95,"xT1":424.9,"yT1":0,"xT2":1058.1,"yT2":0,"toosoon":0,"cond_shown":"randomdotsizeEA","ratio_trial":900,"smaller_num":"18","larger_num":"20","correct_side":1,"subjID":"saritapulidobonilla28","gender":"1","age":"9","school":"4"},{"start_time":1552309529389,"click_time":1552309531876,"finger_time":1552309531417,"fix_duration":250,"trial":40,"RT":2028,"MT":459,"sideResp":1,"stimulus":"img/250/equaldotanddens/L/1_Ratio_250_L_8_R_2.png","xmouse":[806,806,806,806,806,806,806,806,806,806,806,806,806,806,806,806,806,806,806,806,806,806,806,806,806,806,806,806,806,806,806,806,806,806,806,806,806,806,806,806,806,806,806,806,806,806,806,806,806,806,795,788,771,767,767,766,766,766,765,763,763,760,758,756,756,756,756,756,756,756,756,756,756,756,756,756,756,761,781,794,805,813,814,814,814,814,814,814,814,814,814,814,814,814,814,814,814,814,814,811,804,789,776,767,766,764,763,761,748,738,723,703,671,638,618,594,570,557,542,538,536,536,534,528,524],"ymouse":[521,521,521,521,521,521,521,521,521,521,521,521,521,521,521,521,521,521,521,521,521,521,521,521,521,521,521,521,521,521,521,521,521,521,521,521,521,521,521,521,521,521,521,521,521,521,521,521,521,521,521,520,515,513,513,511,507,503,493,488,485,480,478,476,476,476,476,476,476,476,476,476,476,476,476,476,475,478,490,498,504,509,511,511,511,511,511,511,511,511,511,511,511,511,511,511,511,511,510,496,480,456,440,425,420,415,407,397,371,357,339,322,296,274,259,243,222,209,179,166,152,140,121,90,76],"timestamp_mouse":[13,36,47,66,87,108,127,148,167,187,207,227,247,267,288,307,327,348,367,388,407,426,447,467,488,507,528,547,566,588,607,626,646,666,686,706,727,748,768,787,807,827,846,867,888,908,926,948,967,988,1007,1027,1047,1067,1087,1108,1128,1147,1167,1187,1207,1227,1247,1267,1288,1306,1328,1346,1367,1388,1407,1427,1447,1466,1488,1507,1527,1547,1566,1588,1608,1628,1647,1667,1688,1708,1727,1748,1767,1786,1808,1828,1848,1866,1888,1907,1927,1948,1967,1986,2007,2028,2047,2067,2087,2107,2127,2147,2167,2188,2208,2228,2247,2267,2287,2308,2327,2348,2367,2387,2406,2426,2447,2467,2487],"xSR":741.5,"ySR":469.95,"xT1":424.9,"yT1":0,"xT2":1058.1,"yT2":0,"toosoon":0,"cond_shown":"equaldotanddens","ratio_trial":250,"smaller_num":"2","larger_num":"8","correct_side":1,"subjID":"saritapulidobonilla28","gender":"1","age":"9","school":"4"},{"start_time":1552309533207,"click_time":1552309534317,"finger_time":1552309534116,"fix_duration":250,"trial":41,"RT":909,"MT":201,"sideResp":2,"stimulus":"img/250/equaldotanddens/R/8_Ratio_250_L_1_R_4.png","xmouse":[769,769,769,769,769,769,769,769,769,769,769,769,769,769,769,769,769,769,769,769,769,769,769,769,769,769,769,769,769,769,769,769,769,769,769,769,769,769,769,769,769,772,796,815,838,859,878,908,932,940,966,986,1023,1038,1052,1062],"ymouse":[494,494,494,494,494,494,494,494,494,494,494,494,494,494,494,494,494,494,494,494,494,494,494,494,494,494,494,494,494,494,494,494,494,494,494,494,494,494,494,494,494,494,490,486,478,465,447,392,325,305,247,208,142,116,89,71],"timestamp_mouse":[12,32,48,69,89,110,129,149,170,188,210,229,249,268,289,308,330,350,369,389,409,429,449,469,490,509,529,549,570,590,609,629,648,670,690,709,730,749,768,790,810,829,849,869,889,909,930,949,970,990,1009,1029,1049,1070,1089,1110],"xSR":741.5,"ySR":469.95,"xT1":424.9,"yT1":0,"xT2":1058.1,"yT2":0,"toosoon":0,"cond_shown":"equaldotanddens","ratio_trial":250,"smaller_num":"1","larger_num":"4","correct_side":2,"subjID":"saritapulidobonilla28","gender":"1","age":"9","school":"4"},{"start_time":1552309536731,"click_time":1552309537637,"finger_time":1552309537376,"fix_duration":1353.4140555198435,"trial":42,"RT":645,"MT":261,"sideResp":2,"stimulus":"img/500/randomdotsizeEA/L/11_Ratio_500_L_12_R_6.png","xmouse":[808,808,808,808,808,808,808,808,808,808,808,808,808,808,808,808,808,808,808,808,808,808,808,808,808,808,808,808,808,807,809,831,845,868,873,900,941,961,983,1014,1039,1070,1082,1098,1103,1117],"ymouse":[524,524,524,524,524,524,524,524,524,524,524,524,524,524,524,524,524,524,524,524,524,524,524,524,524,524,524,524,524,524,521,490,470,439,429,393,341,315,290,253,222,170,150,121,114,94],"timestamp_mouse":[13,34,45,65,84,106,126,146,165,185,206,224,245,266,286,306,325,345,365,385,406,425,445,466,486,506,526,544,565,585,605,625,645,665,686,705,725,745,765,786,806,825,845,865,885,905],"xSR":741.5,"ySR":469.95,"xT1":424.9,"yT1":0,"xT2":1058.1,"yT2":0,"toosoon":0,"cond_shown":"randomdotsizeEA","ratio_trial":500,"smaller_num":"6","larger_num":"12","correct_side":1,"subjID":"saritapulidobonilla28","gender":"1","age":"9","school":"4"},{"start_time":1552309538770,"click_time":1552309539696,"finger_time":1552309539377,"fix_duration":250,"trial":43,"RT":607,"MT":319,"sideResp":1,"stimulus":"img/750/equaldotanddens/L/14_Ratio_750_L_8_R_6.png","xmouse":[775,775,775,775,775,775,775,775,775,775,775,775,775,775,775,775,775,775,775,775,775,775,775,775,775,775,775,771,769,757,750,741,732,726,711,702,688,677,666,638,623,608,597,576,545,528,514],"ymouse":[517,517,517,517,517,517,517,517,517,517,517,517,517,517,517,517,517,517,517,517,517,517,517,517,517,517,517,512,506,478,462,443,421,407,376,357,334,314,290,239,206,173,147,103,54,31,14],"timestamp_mouse":[9,37,46,66,87,106,126,147,166,185,207,226,246,266,287,306,327,345,367,386,406,427,446,465,485,507,527,546,566,586,607,627,646,666,686,706,726,746,767,786,806,827,846,866,886,906,926],"xSR":741.5,"ySR":469.95,"xT1":424.9,"yT1":0,"xT2":1058.1,"yT2":0,"toosoon":0,"cond_shown":"equaldotanddens","ratio_trial":750,"smaller_num":"6","larger_num":"8","correct_side":1,"subjID":"saritapulidobonilla28","gender":"1","age":"9","school":"4"},{"start_time":1552309541973,"click_time":1552309542816,"finger_time":1552309542596,"fix_duration":1035.2692900429438,"trial":44,"RT":623,"MT":220,"sideResp":2,"stimulus":"img/750/equaldotsize/R/7_Ratio_750_L_3_R_4.png","xmouse":[794,794,794,794,794,794,794,794,794,794,794,794,794,794,794,794,794,794,794,794,794,794,793,791,789,789,789,789,789,791,796,803,823,840,903,942,970,994,1016,1044,1067,1074,1098],"ymouse":[497,497,497,497,497,497,497,497,497,497,497,497,497,497,497,497,497,497,497,497,497,497,493,488,484,484,483,482,482,477,472,464,442,422,352,312,276,236,196,143,111,102,76],"timestamp_mouse":[10,23,43,63,83,103,124,143,163,184,204,223,243,264,283,303,324,343,363,384,403,423,442,463,483,504,523,543,563,583,604,623,643,663,683,703,724,743,763,783,802,824,843],"xSR":741.5,"ySR":469.95,"xT1":424.9,"yT1":0,"xT2":1058.1,"yT2":0,"toosoon":0,"cond_shown":"equaldotsize","ratio_trial":750,"smaller_num":"3","larger_num":"4","correct_side":2,"subjID":"saritapulidobonilla28","gender":"1","age":"9","school":"4"},{"start_time":1552309544685,"click_time":1552309545796,"finger_time":1552309545356,"fix_duration":727.4797966688544,"trial":45,"RT":671,"MT":440,"sideResp":1,"stimulus":"img/250/randomdotsizeEA/L/1_Ratio_250_L_8_R_2.png","xmouse":[800,800,800,800,800,800,800,800,800,800,800,800,800,800,800,800,800,800,800,800,800,800,800,800,800,800,800,800,800,800,794,788,775,732,710,692,677,668,652,647,640,630,621,602,596,588,583,579,569,564,556,549,543,534,527,515],"ymouse":[515,516,516,516,516,516,516,516,516,516,516,516,516,516,516,516,516,516,516,516,516,516,516,516,516,516,516,516,516,516,503,493,474,420,393,368,336,316,278,266,249,231,215,186,172,152,141,133,119,113,105,99,91,76,67,54],"timestamp_mouse":[12,32,61,72,92,112,130,151,172,192,212,232,251,270,292,312,331,352,372,392,412,431,451,471,492,510,531,551,571,592,612,631,652,671,692,711,731,752,771,791,810,832,852,871,891,911,931,950,971,991,1011,1032,1051,1071,1091,1111],"xSR":741.5,"ySR":469.95,"xT1":424.9,"yT1":0,"xT2":1058.1,"yT2":0,"toosoon":0,"cond_shown":"randomdotsizeEA","ratio_trial":250,"smaller_num":"2","larger_num":"8","correct_side":1,"subjID":"saritapulidobonilla28","gender":"1","age":"9","school":"4"},{"start_time":1552309548328,"click_time":1552309549256,"finger_time":1552309548816,"fix_duration":1450.847667018299,"trial":46,"RT":488,"MT":440,"sideResp":2,"stimulus":"img/750/equaldotsize/L/10_Ratio_750_L_4_R_3.png","xmouse":[798,798,798,798,798,798,798,798,797,797,797,797,797,797,797,797,797,797,797,797,797,803,823,831,844,863,887,896,906,916,927,954,969,990,1002,1013,1029,1035,1043,1053,1062,1082,1091,1102,1111,1118,1121],"ymouse":[524,524,524,524,524,524,525,526,526,526,527,529,530,530,531,532,533,533,533,533,534,530,513,507,493,471,441,428,414,401,388,355,338,309,294,277,243,229,213,198,184,154,142,127,115,103,93],"timestamp_mouse":[10,43,47,68,89,109,128,148,168,189,208,228,248,268,288,308,327,348,369,389,409,428,449,469,488,509,528,548,568,588,608,628,648,668,688,708,728,748,768,789,808,828,849,868,889,909,927],"xSR":741.5,"ySR":469.95,"xT1":424.9,"yT1":0,"xT2":1058.1,"yT2":0,"toosoon":0,"cond_shown":"equaldotsize","ratio_trial":750,"smaller_num":"3","larger_num":"4","correct_side":1,"subjID":"saritapulidobonilla28","gender":"1","age":"9","school":"4"},{"start_time":1552309552112,"click_time":1552309553056,"finger_time":1552309552656,"fix_duration":393.9092060166236,"trial":47,"RT":544,"MT":400,"sideResp":1,"stimulus":"img/250/randomdotsizeEA/L/5_Ratio_250_L_24_R_6.png","xmouse":[832,832,832,832,832,832,832,832,832,832,832,832,832,832,832,832,832,832,832,832,832,832,825,810,794,789,769,747,739,730,718,706,680,663,643,628,610,596,593,589,584,580,568,559,548,534,526,514],"ymouse":[548,548,548,548,548,548,548,548,548,548,548,548,548,548,548,548,548,548,548,548,548,547,538,526,511,506,487,461,452,438,421,404,358,326,298,271,239,207,196,185,174,164,142,131,118,107,100,92],"timestamp_mouse":[12,25,43,65,85,105,124,144,165,184,203,223,243,265,284,303,324,345,365,385,405,425,444,465,484,505,523,544,564,584,604,624,643,664,685,705,724,744,764,784,804,825,843,864,885,905,924,944],"xSR":741.5,"ySR":469.95,"xT1":424.9,"yT1":0,"xT2":1058.1,"yT2":0,"toosoon":0,"cond_shown":"randomdotsizeEA","ratio_trial":250,"smaller_num":"6","larger_num":"24","correct_side":1,"subjID":"saritapulidobonilla28","gender":"1","age":"9","school":"4"},{"start_time":1552309554553,"click_time":1552309555636,"finger_time":1552309555076,"fix_duration":596.8298415200213,"trial":48,"RT":523,"MT":560,"sideResp":2,"stimulus":"img/250/equaldotsize/R/13_Ratio_250_L_2_R_8.png","xmouse":[808,808,808,808,808,808,808,808,808,808,808,808,808,808,808,808,808,808,808,808,808,808,808,813,820,840,852,864,876,886,909,923,936,956,971,1000,1008,1017,1026,1035,1044,1046,1051,1056,1062,1076,1079,1083,1085,1088,1090,1090,1091,1094,1097],"ymouse":[523,523,523,523,523,523,523,523,523,523,523,523,523,523,523,523,523,523,523,523,523,523,523,518,510,487,474,460,448,434,403,386,371,345,327,290,274,256,239,221,194,183,171,157,149,131,127,120,115,111,106,104,103,101,98],"timestamp_mouse":[9,39,43,63,83,104,122,143,162,182,202,224,244,263,283,302,324,343,363,382,404,424,443,464,483,503,523,543,563,583,603,624,642,662,683,703,723,743,764,784,803,823,843,863,883,903,923,943,963,983,1003,1023,1042,1064,1083],"xSR":741.5,"ySR":469.95,"xT1":424.9,"yT1":0,"xT2":1058.1,"yT2":0,"toosoon":0,"cond_shown":"equaldotsize","ratio_trial":250,"smaller_num":"2","larger_num":"8","correct_side":2,"subjID":"saritapulidobonilla28","gender":"1","age":"9","school":"4"},{"start_time":1552309557795,"click_time":1552309558537,"finger_time":1552309558156,"fix_duration":937.0023112594042,"trial":49,"RT":361,"MT":381,"sideResp":1,"stimulus":"img/500/equaldotanddens/L/7_Ratio_500_L_10_R_5.png","xmouse":[810,810,810,810,810,810,810,810,810,810,810,810,810,810,810,810,810,806,787,776,764,746,737,723,717,711,701,692,667,650,634,611,595,566,553,541,530,523],"ymouse":[505,505,505,505,505,505,505,505,505,505,505,505,505,505,505,505,505,496,459,435,406,364,342,310,295,282,268,253,217,196,177,147,128,96,83,75,67,61],"timestamp_mouse":[13,30,41,61,81,100,122,141,161,182,200,222,241,261,282,300,321,342,361,381,401,422,441,460,481,501,521,542,562,580,602,622,641,660,681,701,722,742],"xSR":741.5,"ySR":469.95,"xT1":424.9,"yT1":0,"xT2":1058.1,"yT2":0,"toosoon":0,"cond_shown":"equaldotanddens","ratio_trial":500,"smaller_num":"5","larger_num":"10","correct_side":1,"subjID":"saritapulidobonilla28","gender":"1","age":"9","school":"4"},{"start_time":1552309560761,"click_time":1552309561737,"finger_time":1552309561474,"fix_duration":1064.2346103434838,"trial":50,"RT":713,"MT":263,"sideResp":2,"stimulus":"img/500/randomdotsizeEA/R/6_Ratio_500_L_9_R_18.png","xmouse":[788,788,788,788,788,788,788,788,788,788,788,788,788,788,788,788,788,788,788,788,788,788,788,788,788,788,788,788,788,788,788,789,791,793,802,812,825,842,865,934,961,984,1023,1045,1075,1087,1098,1105,1115],"ymouse":[493,494,494,494,494,494,494,494,494,494,494,494,494,494,494,494,494,494,494,494,494,494,494,494,494,494,494,494,494,494,494,494,494,489,476,462,445,423,395,331,304,277,238,214,167,146,126,108,92],"timestamp_mouse":[14,42,54,75,94,114,134,154,175,193,215,235,254,273,294,314,334,355,373,393,414,435,454,474,493,515,534,554,573,594,614,634,654,674,693,713,733,755,775,794,813,833,853,875,894,914,934,954,975],"xSR":741.5,"ySR":469.95,"xT1":424.9,"yT1":0,"xT2":1058.1,"yT2":0,"toosoon":0,"cond_shown":"randomdotsizeEA","ratio_trial":500,"smaller_num":"9","larger_num":"18","correct_side":2,"subjID":"saritapulidobonilla28","gender":"1","age":"9","school":"4"},{"start_time":1552309563765,"click_time":1552309564955,"finger_time":1552309564555,"fix_duration":909.2280315732371,"trial":51,"RT":790,"MT":400,"sideResp":1,"stimulus":"img/900/equaldotanddens/L/8_Ratio_900_L_20_R_18.png","xmouse":[802,802,802,802,802,802,802,802,802,802,802,802,802,802,802,802,802,802,802,802,802,802,802,802,802,802,802,802,802,802,802,802,802,802,802,802,793,786,765,691,641,613,588,579,569,566,564,562,559,553,551,549,548,546,540,538,533,528,520,503],"ymouse":[541,541,541,541,541,541,541,541,541,541,541,541,541,541,541,541,541,541,541,541,541,542,542,542,542,542,542,542,542,542,542,542,542,542,542,542,534,523,499,425,377,343,302,286,254,244,235,228,221,206,199,192,184,178,162,152,138,126,112,87],"timestamp_mouse":[9,39,51,71,89,109,131,150,169,190,211,231,250,270,289,309,330,351,370,390,411,431,450,469,491,510,529,551,571,590,609,629,651,670,689,711,730,751,770,790,811,830,851,870,890,910,931,950,970,989,1012,1030,1050,1071,1090,1110,1130,1150,1170,1190],"xSR":741.5,"ySR":469.95,"xT1":424.9,"yT1":0,"xT2":1058.1,"yT2":0,"toosoon":0,"cond_shown":"equaldotanddens","ratio_trial":900,"smaller_num":"18","larger_num":"20","correct_side":1,"subjID":"saritapulidobonilla28","gender":"1","age":"9","school":"4"},{"start_time":1552309566760,"click_time":1552309567536,"finger_time":1552309567355,"fix_duration":604.2475618220212,"trial":52,"RT":595,"MT":181,"sideResp":2,"stimulus":"img/500/randomdotsizeEA/R/9_Ratio_500_L_2_R_4.png","xmouse":[776,776,776,776,776,776,776,776,776,776,776,776,776,776,776,776,776,776,776,776,776,776,776,776,777,781,786,796,811,849,900,919,970,1011,1092,1118,1137,1147,1152],"ymouse":[527,527,527,531,533,535,536,537,538,538,538,538,538,538,538,538,538,538,538,538,538,538,538,538,538,538,535,527,516,481,441,423,367,321,220,177,143,118,99],"timestamp_mouse":[16,45,55,75,94,114,135,155,176,194,216,235,255,275,296,315,335,355,375,396,415,436,456,475,494,515,536,556,575,595,614,635,655,675,694,715,736,754,776],"xSR":741.5,"ySR":469.95,"xT1":424.9,"yT1":0,"xT2":1058.1,"yT2":0,"toosoon":0,"cond_shown":"randomdotsizeEA","ratio_trial":500,"smaller_num":"2","larger_num":"4","correct_side":2,"subjID":"saritapulidobonilla28","gender":"1","age":"9","school":"4"},{"start_time":1552309569635,"click_time":1552309570455,"finger_time":1552309570095,"fix_duration":518.5598093325444,"trial":53,"RT":460,"MT":360,"sideResp":1,"stimulus":"img/500/randomdotsizeEA/R/14_Ratio_500_L_5_R_10.png","xmouse":[805,805,805,805,805,805,805,805,805,805,805,805,805,805,805,805,805,805,805,805,805,805,803,789,770,739,647,607,571,542,531,517,512,508,504,498,490,485,484,484,484,487],"ymouse":[479,479,479,479,479,479,479,479,479,479,479,479,479,479,479,479,479,479,479,479,479,479,478,462,445,422,353,319,289,254,236,205,191,178,164,152,131,120,118,112,108,99],"timestamp_mouse":[0,23,41,60,81,101,121,141,161,180,201,220,240,260,280,301,320,339,361,381,400,421,439,460,481,500,519,541,560,580,599,620,640,661,681,700,720,739,759,780,801,820],"xSR":741.5,"ySR":469.95,"xT1":424.9,"yT1":0,"xT2":1058.1,"yT2":0,"toosoon":0,"cond_shown":"randomdotsizeEA","ratio_trial":500,"smaller_num":"5","larger_num":"10","correct_side":2,"subjID":"saritapulidobonilla28","gender":"1","age":"9","school":"4"},{"start_time":1552309572529,"click_time":1552309573355,"finger_time":1552309573036,"fix_duration":752.0847467952635,"trial":54,"RT":507,"MT":319,"sideResp":2,"stimulus":"img/250/randomdotsizeEA/L/15_Ratio_250_L_12_R_3.png","xmouse":[768,768,768,768,768,768,768,768,768,768,768,768,768,768,768,768,768,768,768,768,768,768,772,774,778,793,824,847,872,890,905,930,944,950,970,985,1012,1027,1042,1059,1073,1098],"ymouse":[486,486,486,486,486,486,486,486,486,486,486,486,486,486,486,486,486,486,486,486,486,486,483,481,478,467,441,421,397,372,350,304,277,267,240,221,182,161,144,127,111,80],"timestamp_mouse":[16,29,46,67,86,106,126,145,167,187,207,227,247,266,287,306,325,345,366,387,407,425,446,467,485,507,525,546,567,586,607,626,646,666,685,705,725,746,766,786,806,826],"xSR":741.5,"ySR":469.95,"xT1":424.9,"yT1":0,"xT2":1058.1,"yT2":0,"toosoon":0,"cond_shown":"randomdotsizeEA","ratio_trial":250,"smaller_num":"3","larger_num":"12","correct_side":1,"subjID":"saritapulidobonilla28","gender":"1","age":"9","school":"4"},{"start_time":1552309574566,"click_time":1552309575395,"finger_time":1552309575175,"fix_duration":350.36228066240636,"trial":55,"RT":609,"MT":220,"sideResp":2,"stimulus":"img/250/randomdotsizeEA/R/9_Ratio_250_L_3_R_12.png","xmouse":[792,792,792,790,787,787,787,787,787,787,787,787,787,787,787,787,787,787,787,787,787,787,787,787,787,787,787,788,792,814,832,853,882,901,934,954,973,994,1013,1049,1064,1081],"ymouse":[502,502,502,506,510,510,510,510,510,510,510,510,510,510,510,510,510,510,510,510,510,510,510,510,510,510,510,509,506,473,448,418,376,344,289,259,232,203,176,126,104,84],"timestamp_mouse":[10,38,48,69,88,110,128,150,170,189,208,230,248,268,290,309,329,348,370,389,410,430,450,469,489,508,529,549,569,589,609,628,649,668,688,709,729,748,769,788,809,829],"xSR":741.5,"ySR":469.95,"xT1":424.9,"yT1":0,"xT2":1058.1,"yT2":0,"toosoon":0,"cond_shown":"randomdotsizeEA","ratio_trial":250,"smaller_num":"3","larger_num":"12","correct_side":2,"subjID":"saritapulidobonilla28","gender":"1","age":"9","school":"4"},{"start_time":1552309577047,"click_time":1552309578294,"finger_time":1552309577655,"fix_duration":749.8840869506964,"trial":56,"RT":608,"MT":639,"sideResp":1,"stimulus":"img/900/equaldotsize/L/1_Ratio_900_L_10_R_9.png","xmouse":[771,771,771,771,771,771,771,771,771,771,771,771,771,771,771,771,771,771,771,771,771,771,771,773,774,776,778,780,780,780,775,773,772,770,769,770,773,777,785,799,820,827,834,838,838,814,782,714,692,635,603,599,596,594,591,578,565,553,549,547,543,536,523],"ymouse":[516,516,516,516,516,516,516,516,516,516,516,516,516,516,516,516,516,516,516,516,516,516,516,516,516,514,512,511,505,492,465,455,447,439,432,419,412,407,400,389,367,353,336,317,295,240,200,143,128,91,65,59,54,49,47,43,39,35,35,34,33,31,30],"timestamp_mouse":[9,44,48,69,87,108,127,149,169,188,207,229,249,269,289,307,329,349,368,388,408,429,449,468,488,508,528,548,568,588,608,628,648,668,688,708,728,748,767,788,808,828,848,868,888,907,928,948,968,988,1008,1028,1048,1068,1089,1108,1128,1148,1167,1187,1207,1228,1247],"xSR":741.5,"ySR":469.95,"xT1":424.9,"yT1":0,"xT2":1058.1,"yT2":0,"toosoon":0,"cond_shown":"equaldotsize","ratio_trial":900,"smaller_num":"9","larger_num":"10","correct_side":1,"subjID":"saritapulidobonilla28","gender":"1","age":"9","school":"4"},{"start_time":1552309582145,"click_time":1552309583015,"finger_time":1552309582615,"fix_duration":1269.0064937362795,"trial":57,"RT":470,"MT":400,"sideResp":2,"stimulus":"img/750/equaldotsize/R/7_Ratio_750_L_3_R_4.png","xmouse":[794,794,794,794,794,794,794,794,794,794,794,794,794,794,794,794,794,794,794,794,794,808,814,834,844,854,857,861,865,870,889,900,913,937,954,983,998,1014,1032,1047,1089,1109,1126,1137],"ymouse":[508,508,508,508,508,508,508,508,508,508,508,508,508,508,508,508,508,508,508,508,508,492,484,457,442,422,415,408,400,391,367,353,336,306,286,246,226,206,186,171,136,118,101,83],"timestamp_mouse":[12,38,50,71,91,110,129,151,169,189,210,230,249,270,290,310,330,349,370,390,409,429,450,470,490,510,530,550,570,589,610,630,649,671,690,710,730,750,770,790,810,831,851,869],"xSR":741.5,"ySR":469.95,"xT1":424.9,"yT1":0,"xT2":1058.1,"yT2":0,"toosoon":0,"cond_shown":"equaldotsize","ratio_trial":750,"smaller_num":"3","larger_num":"4","correct_side":2,"subjID":"saritapulidobonilla28","gender":"1","age":"9","school":"4"},{"start_time":1552309585730,"click_time":1552309586856,"finger_time":1552309586455,"fix_duration":1293.7603082152643,"trial":58,"RT":725,"MT":401,"sideResp":1,"stimulus":"img/750/randomdotsizeEA/L/8_Ratio_750_L_4_R_3.png","xmouse":[800,790,789,789,789,789,789,789,789,789,789,789,789,789,788,788,788,788,788,788,788,788,788,788,788,787,786,786,786,786,785,785,783,778,764,748,722,714,708,705,699,688,682,674,656,642,603,584,566,555,546,537,533,526,519,515,512],"ymouse":[507,509,510,510,510,510,510,510,510,510,510,510,510,510,511,511,511,511,515,517,518,522,524,530,535,540,544,544,544,544,545,545,543,537,521,505,477,464,452,445,431,409,397,384,359,338,286,261,236,216,197,167,154,138,124,108,92],"timestamp_mouse":[4,26,57,66,85,106,125,146,166,186,206,224,244,266,286,305,325,345,365,385,405,425,445,465,486,505,526,545,566,586,604,624,646,666,686,705,725,745,765,784,806,825,844,864,885,904,924,945,964,986,1005,1024,1046,1064,1085,1104,1126],"xSR":741.5,"ySR":469.95,"xT1":424.9,"yT1":0,"xT2":1058.1,"yT2":0,"toosoon":0,"cond_shown":"randomdotsizeEA","ratio_trial":750,"smaller_num":"3","larger_num":"4","correct_side":1,"subjID":"saritapulidobonilla28","gender":"1","age":"9","school":"4"},{"start_time":1552309588457,"click_time":1552309589496,"finger_time":1552309589155,"fix_duration":601.5812849805499,"trial":59,"RT":698,"MT":341,"sideResp":2,"stimulus":"img/750/equaldotsize/R/11_Ratio_750_L_12_R_16.png","xmouse":[801,801,801,801,801,801,801,798,793,789,789,789,788,788,788,788,788,788,788,788,788,788,788,788,788,788,791,797,801,813,817,822,825,829,838,843,852,868,884,915,930,954,973,994,1028,1044,1065,1076,1082,1087,1087,1087],"ymouse":[557,557,557,557,557,557,557,554,548,544,543,542,541,541,541,541,541,541,541,541,541,541,541,541,540,537,533,528,524,512,505,496,489,480,463,453,439,418,401,363,342,313,292,267,230,209,176,157,140,114,104,97],"timestamp_mouse":[17,43,58,78,98,117,137,158,178,198,218,238,257,277,299,318,339,358,378,398,418,438,459,477,498,518,537,558,578,598,618,639,658,678,698,719,738,758,777,797,818,839,857,879,898,918,937,958,978,999,1018,1038],"xSR":741.5,"ySR":469.95,"xT1":424.9,"yT1":0,"xT2":1058.1,"yT2":0,"toosoon":0,"cond_shown":"equaldotsize","ratio_trial":750,"smaller_num":"12","larger_num":"16","correct_side":2,"subjID":"saritapulidobonilla28","gender":"1","age":"9","school":"4"},{"start_time":1552309591493,"click_time":1552309592414,"finger_time":1552309592034,"fix_duration":617.3014328128763,"trial":60,"RT":541,"MT":380,"sideResp":1,"stimulus":"img/900/equaldotanddens/R/9_Ratio_900_L_18_R_20.png","xmouse":[774,774,774,774,774,774,774,774,774,774,774,774,774,774,774,774,774,774,774,774,774,774,774,774,771,762,759,737,712,702,693,683,674,647,626,609,603,594,585,580,576,571,565,547,538,528,523],"ymouse":[524,524,524,524,524,524,524,524,524,524,524,524,524,524,524,524,524,524,524,524,524,524,524,525,522,508,504,480,451,434,417,400,378,318,279,243,224,192,160,145,131,118,105,76,64,49,43],"timestamp_mouse":[10,22,42,61,82,103,121,142,163,181,202,223,242,261,282,302,322,341,362,383,401,422,443,462,481,502,523,541,561,581,601,621,642,661,683,703,722,741,761,782,801,821,843,862,882,902,921],"xSR":741.5,"ySR":469.95,"xT1":424.9,"yT1":0,"xT2":1058.1,"yT2":0,"toosoon":0,"cond_shown":"equaldotanddens","ratio_trial":900,"smaller_num":"18","larger_num":"20","correct_side":2,"subjID":"saritapulidobonilla28","gender":"1","age":"9","school":"4"},{"start_time":1552309594240,"click_time":1552309596895,"finger_time":1552309596496,"fix_duration":724.363885190816,"trial":61,"RT":2256,"MT":399,"sideResp":1,"stimulus":"img/250/randomdotsizeEA/L/5_Ratio_250_L_24_R_6.png","xmouse":[782,782,782,782,782,782,782,782,782,782,782,782,782,782,782,782,782,782,782,782,782,782,782,782,782,782,782,782,782,782,782,782,782,782,782,782,782,782,782,782,782,782,782,782,782,782,782,782,782,782,782,782,782,782,782,782,782,782,782,782,782,782,782,782,782,782,782,782,782,782,782,782,782,782,782,782,782,782,782,782,782,782,782,782,782,782,782,782,782,782,782,782,782,782,782,782,782,782,782,782,782,782,782,782,782,782,783,783,783,783,783,768,744,708,672,636,631,629,627,625,621,619,614,611,607,597,592,583,576,562,541,528,516],"ymouse":[508,508,508,508,508,508,508,508,508,508,508,508,508,508,508,508,508,508,508,508,508,508,508,508,508,508,508,508,508,508,508,508,508,508,508,508,508,508,508,508,508,508,508,508,508,508,508,508,508,508,508,508,508,508,508,508,508,508,508,508,508,508,508,508,508,508,508,508,508,508,508,508,508,508,508,508,508,508,508,508,508,508,508,508,508,508,508,508,508,508,508,508,508,508,508,508,508,508,508,508,508,508,508,508,508,508,508,508,508,508,507,488,468,442,416,387,379,370,358,348,329,321,312,304,295,268,250,231,206,172,126,105,88],"timestamp_mouse":[21,44,55,75,94,115,135,154,176,195,215,235,255,274,296,316,335,355,375,394,416,435,456,475,494,514,