[{"start_time":1552074257071,"click_time":1552074258358,"finger_time":1552074257898,"fix_duration":250,"trial":0,"RT":827,"MT":460,"sideResp":2,"stimulus":"img/500/equaldotanddens/R/1_Ratio_500_L_9_R_18.png","xmouse":[794,794,794,794,794,794,794,794,794,794,794,794,794,794,794,794,794,794,794,794,794,794,794,794,794,794,794,794,794,794,794,794,794,794,794,794,794,794,800,806,843,903,914,923,927,937,945,956,963,975,980,990,993,997,1002,1012,1031,1038,1041,1046,1050,1060,1068,1075],"ymouse":[536,536,536,536,536,536,536,536,536,536,536,536,536,536,536,536,536,536,536,536,536,536,536,536,536,536,536,536,536,536,536,536,536,536,536,536,536,536,530,524,488,418,404,391,378,347,330,317,305,282,265,237,226,212,197,185,157,148,143,135,130,115,104,95],"timestamp_mouse":[11,52,68,87,106,126,146,167,187,208,227,248,267,286,307,327,348,366,387,408,427,447,467,488,508,526,547,568,588,608,627,646,666,688,708,727,746,766,788,808,827,847,868,887,908,926,946,966,986,1008,1027,1047,1068,1087,1107,1127,1147,1167,1186,1207,1227,1247,1266,1286],"xSR":741.5,"ySR":501.8,"xT1":424.9,"yT1":0,"xT2":1058.1,"yT2":0,"toosoon":0,"cond_shown":"equaldotanddens","ratio_trial":500,"smaller_num":"9","larger_num":"18","correct_side":2,"subjID":"sebastianalbarracin14","gender":"0","age":"9","school":"4","test":{"fix_dur":[250,1500],"timestim":300,"targets_dim":[100,100],"targets_relative_coord":[0.3,0.7],"size_stim":[880,420],"start_dim":[100,100],"size_start":[300,300],"size_fix":60,"samplingrate":20,"img_types":["equaldotsize","equaldotanddens","randomdotsizeEA"],"ratios":[250,500,750,900],"rep_conds":9,"nTrials":120,"trials_to_rest":500,"Trials_order":[16,4,20,55,80,64,106,53,18,103,81,12,97,91,82,10,84,109,112,99,117,87,34,22,51,110,26,71,50,27,60,58,1,68,5,114,0,119,47,94,88,54,104,23,29,66,3,45,28,9,77,107,13,36,85,19,52,102,90,30,75,37,73,118,98,65,116,100,74,2,86,32,57,62,111,48,93,72,49,67,35,95,15,83,101,21,56,6,70,11,40,61,25,39,76,63,43,24,14,17,31,59,8,78,89,42,38,92,105,7,33,113,79,41,44,115,108,69,46,96],"cond_shown":["equaldotanddens","equaldotanddens","randomdotsizeEA","equaldotanddens","randomdotsizeEA","equaldotanddens","equaldotanddens","randomdotsizeEA","equaldotsize","equaldotanddens","equaldotsize","equaldotsize","equaldotanddens","equaldotanddens","equaldotanddens","equaldotanddens","equaldotsize","equaldotanddens","equaldotanddens","equaldotsize","equaldotsize","equaldotsize","equaldotanddens","equaldotanddens","equaldotsize","randomdotsizeEA","randomdotsizeEA","randomdotsizeEA","randomdotsizeEA","equaldotsize","equaldotsize","equaldotanddens","equaldotanddens","randomdotsizeEA","randomdotsizeEA","equaldotsize","equaldotsize","randomdotsizeEA","randomdotsizeEA","equaldotanddens","equaldotanddens","equaldotsize","randomdotsizeEA","randomdotsizeEA","randomdotsizeEA","equaldotsize","equaldotsize","equaldotsize","equaldotanddens","equaldotsize","randomdotsizeEA","randomdotsizeEA","equaldotanddens","equaldotsize","equaldotanddens","equaldotanddens","equaldotanddens","equaldotsize","equaldotsize","equaldotsize","equaldotsize","equaldotanddens","equaldotanddens","equaldotanddens","randomdotsizeEA","randomdotsizeEA","randomdotsizeEA","equaldotanddens","randomdotsizeEA","randomdotsizeEA","randomdotsizeEA","randomdotsizeEA","equaldotsize","randomdotsizeEA","equaldotsize","equaldotsize","equaldotsize","equaldotsize","equaldotanddens","equaldotanddens","randomdotsizeEA","randomdotsizeEA","equaldotsize","randomdotsizeEA","randomdotsizeEA","equaldotsize","randomdotsizeEA","equaldotsize","equaldotanddens","randomdotsizeEA","equaldotanddens","equaldotanddens","equaldotanddens","equaldotsize","equaldotanddens","equaldotsize","equaldotanddens","equaldotsize","randomdotsizeEA","randomdotsizeEA","equaldotanddens","randomdotsizeEA","randomdotsizeEA","equaldotsize","randomdotsizeEA","equaldotsize","randomdotsizeEA","randomdotsizeEA","equaldotsize","equaldotanddens","equaldotsize","randomdotsizeEA","equaldotanddens","randomdotsizeEA","randomdotsizeEA","equaldotanddens","equaldotsize","equaldotsize","equaldotanddens","equaldotsize"],"ratio_trial":[500,500,750,750,750,500,900,500,750,750,900,250,250,750,900,900,250,250,500,500,900,500,900,900,500,250,250,900,250,500,250,900,250,750,500,750,250,900,900,900,500,750,750,900,500,750,500,900,500,900,500,900,250,250,250,750,500,750,750,750,500,250,250,900,250,500,750,500,250,250,250,750,900,250,500,250,900,250,250,750,900,900,500,900,500,900,750,750,900,900,500,250,250,500,500,500,750,250,250,500,750,900,750,750,500,750,250,750,900,750,900,500,750,500,750,750,250,900,900,250],"smaller_num":["9","2","6","18","15","6","18","6","15","3","9","3","2","15","9","18","5","4","1","6","9","4","18","9","2","2","3","9","2","6","2","18","3","3","5","15","3","18","18","18","6","6","15","9","2","3","6","9","1","9","6","9","2","5","2","3","2","9","3","6","2","4","5","9","6","2","3","4","5","2","6","18","18","1","1","2","18","6","2","3","18","18","5","18","10","18","3","6","18","18","2","3","2","4","5","2","3","1","3","5","6","18","15","18","6","6","4","3","9","12","18","9","3","2","15","15","4","18","18","5"],"larger_num":["18","4","8","24","20","12","20","12","20","4","10","12","8","20","10","20","20","16","2","12","10","8","20","10","4","8","12","10","8","12","8","20","12","4","10","20","12","20","20","20","12","8","20","10","4","4","12","10","2","10","12","10","8","20","8","4","4","12","4","8","4","16","20","10","24","4","4","8","20","8","24","24","20","4","2","8","20","24","8","4","20","20","10","20","20","20","4","8","20","20","4","12","8","8","10","4","4","4","12","10","8","20","20","24","12","8","16","4","10","16","20","18","4","4","20","20","16","20","20","20"],"correct_side":[2,2,2,1,2,1,2,1,2,2,2,2,1,2,1,1,2,2,2,1,2,1,1,1,2,1,2,2,1,1,1,1,1,1,2,1,1,1,2,2,1,1,2,2,1,1,1,2,2,1,1,2,2,2,1,1,2,2,1,2,2,2,2,2,1,1,1,1,2,1,1,1,1,2,2,1,1,1,2,1,1,2,1,1,2,1,2,1,1,1,1,2,1,1,1,1,2,2,2,1,2,1,2,1,1,1,2,1,2,2,1,1,1,1,1,2,2,1,2,2],"img_shown":["img/500/equaldotanddens/R/1_Ratio_500_L_9_R_18.png","img/500/equaldotanddens/R/9_Ratio_500_L_2_R_4.png","img/750/randomdotsizeEA/R/2_Ratio_750_L_6_R_8.png","img/750/equaldotanddens/L/6_Ratio_750_L_24_R_18.png","img/750/randomdotsizeEA/R/5_Ratio_750_L_15_R_20.png","img/500/equaldotanddens/L/13_Ratio_500_L_12_R_6.png","img/900/equaldotanddens/R/11_Ratio_900_L_18_R_20.png","img/500/randomdotsizeEA/L/11_Ratio_500_L_12_R_6.png","img/750/equaldotsize/R/3_Ratio_750_L_15_R_20.png","img/750/equaldotanddens/R/7_Ratio_750_L_3_R_4.png","img/900/equaldotsize/R/3_Ratio_900_L_9_R_10.png","img/250/equaldotsize/R/9_Ratio_250_L_3_R_12.png","img/250/equaldotanddens/L/7_Ratio_250_L_8_R_2.png","img/750/equaldotanddens/R/5_Ratio_750_L_15_R_20.png","img/900/equaldotanddens/L/1_Ratio_900_L_10_R_9.png","img/900/equaldotanddens/L/10_Ratio_900_L_20_R_18.png","img/250/equaldotsize/R/12_Ratio_250_L_5_R_20.png","img/250/equaldotanddens/R/10_Ratio_250_L_4_R_16.png","img/500/equaldotanddens/R/12_Ratio_500_L_1_R_2.png","img/500/equaldotsize/L/13_Ratio_500_L_12_R_6.png","img/900/equaldotsize/R/5_Ratio_900_L_9_R_10.png","img/500/equaldotsize/L/8_Ratio_500_L_8_R_4.png","img/900/equaldotanddens/L/4_Ratio_900_L_20_R_18.png","img/900/equaldotanddens/L/1_Ratio_900_L_10_R_9.png","img/500/equaldotsize/R/9_Ratio_500_L_2_R_4.png","img/250/randomdotsizeEA/L/1_Ratio_250_L_8_R_2.png","img/250/randomdotsizeEA/R/4_Ratio_250_L_3_R_12.png","img/900/randomdotsizeEA/R/7_Ratio_900_L_9_R_10.png","img/250/randomdotsizeEA/L/1_Ratio_250_L_8_R_2.png","img/500/equaldotsize/L/11_Ratio_500_L_12_R_6.png","img/250/equaldotsize/L/1_Ratio_250_L_8_R_2.png","img/900/equaldotanddens/L/8_Ratio_900_L_20_R_18.png","img/250/equaldotanddens/L/14_Ratio_250_L_12_R_3.png","img/750/randomdotsizeEA/L/8_Ratio_750_L_4_R_3.png","img/500/randomdotsizeEA/R/14_Ratio_500_L_5_R_10.png","img/750/equaldotsize/L/1_Ratio_750_L_20_R_15.png","img/250/equaldotsize/L/15_Ratio_250_L_12_R_3.png","img/900/randomdotsizeEA/L/10_Ratio_900_L_20_R_18.png","img/900/randomdotsizeEA/R/14_Ratio_900_L_18_R_20.png","img/900/equaldotanddens/R/14_Ratio_900_L_18_R_20.png","img/500/equaldotanddens/L/13_Ratio_500_L_12_R_6.png","img/750/equaldotsize/L/14_Ratio_750_L_8_R_6.png","img/750/randomdotsizeEA/R/5_Ratio_750_L_15_R_20.png","img/900/randomdotsizeEA/R/3_Ratio_900_L_9_R_10.png","img/500/randomdotsizeEA/L/10_Ratio_500_L_4_R_2.png","img/750/equaldotsize/L/8_Ratio_750_L_4_R_3.png","img/500/equaldotsize/L/11_Ratio_500_L_12_R_6.png","img/900/equaldotsize/R/15_Ratio_900_L_9_R_10.png","img/500/equaldotanddens/R/15_Ratio_500_L_1_R_2.png","img/900/equaldotsize/L/1_Ratio_900_L_10_R_9.png","img/500/randomdotsizeEA/L/13_Ratio_500_L_12_R_6.png","img/900/randomdotsizeEA/R/5_Ratio_900_L_9_R_10.png","img/250/equaldotanddens/R/13_Ratio_250_L_2_R_8.png","img/250/equaldotsize/R/12_Ratio_250_L_5_R_20.png","img/250/equaldotanddens/L/3_Ratio_250_L_8_R_2.png","img/750/equaldotanddens/L/10_Ratio_750_L_4_R_3.png","img/500/equaldotanddens/R/9_Ratio_500_L_2_R_4.png","img/750/equaldotsize/R/15_Ratio_750_L_9_R_12.png","img/750/equaldotsize/L/9_Ratio_750_L_4_R_3.png","img/750/equaldotsize/R/2_Ratio_750_L_6_R_8.png","img/500/equaldotsize/R/9_Ratio_500_L_2_R_4.png","img/250/equaldotanddens/R/10_Ratio_250_L_4_R_16.png","img/250/equaldotanddens/R/12_Ratio_250_L_5_R_20.png","img/900/equaldotanddens/R/6_Ratio_900_L_9_R_10.png","img/250/randomdotsizeEA/L/5_Ratio_250_L_24_R_6.png","img/500/randomdotsizeEA/L/10_Ratio_500_L_4_R_2.png","img/750/randomdotsizeEA/L/9_Ratio_750_L_4_R_3.png","img/500/equaldotanddens/L/8_Ratio_500_L_8_R_4.png","img/250/randomdotsizeEA/R/12_Ratio_250_L_5_R_20.png","img/250/randomdotsizeEA/L/1_Ratio_250_L_8_R_2.png","img/250/randomdotsizeEA/L/5_Ratio_250_L_24_R_6.png","img/750/randomdotsizeEA/L/6_Ratio_750_L_24_R_18.png","img/900/equaldotsize/L/10_Ratio_900_L_20_R_18.png","img/250/randomdotsizeEA/R/8_Ratio_250_L_1_R_4.png","img/500/equaldotsize/R/12_Ratio_500_L_1_R_2.png","img/250/equaldotsize/L/3_Ratio_250_L_8_R_2.png","img/900/equaldotsize/L/2_Ratio_900_L_20_R_18.png","img/250/equaldotsize/L/5_Ratio_250_L_24_R_6.png","img/250/equaldotanddens/R/13_Ratio_250_L_2_R_8.png","img/750/equaldotanddens/L/10_Ratio_750_L_4_R_3.png","img/900/randomdotsizeEA/L/8_Ratio_900_L_20_R_18.png","img/900/randomdotsizeEA/R/13_Ratio_900_L_18_R_20.png","img/500/equaldotsize/L/7_Ratio_500_L_10_R_5.png","img/900/randomdotsizeEA/L/10_Ratio_900_L_20_R_18.png","img/500/randomdotsizeEA/R/3_Ratio_500_L_10_R_20.png","img/900/equaldotsize/L/10_Ratio_900_L_20_R_18.png","img/750/randomdotsizeEA/R/12_Ratio_750_L_3_R_4.png","img/750/equaldotsize/L/14_Ratio_750_L_8_R_6.png","img/900/equaldotanddens/L/8_Ratio_900_L_20_R_18.png","img/900/randomdotsizeEA/L/8_Ratio_900_L_20_R_18.png","img/500/equaldotanddens/L/5_Ratio_500_L_4_R_2.png","img/250/equaldotanddens/R/11_Ratio_250_L_3_R_12.png","img/250/equaldotanddens/L/1_Ratio_250_L_8_R_2.png","img/500/equaldotsize/L/8_Ratio_500_L_8_R_4.png","img/500/equaldotanddens/L/7_Ratio_500_L_10_R_5.png","img/500/equaldotsize/L/5_Ratio_500_L_4_R_2.png","img/750/equaldotanddens/R/7_Ratio_750_L_3_R_4.png","img/250/equaldotsize/R/8_Ratio_250_L_1_R_4.png","img/250/randomdotsizeEA/R/11_Ratio_250_L_3_R_12.png","img/500/randomdotsizeEA/L/7_Ratio_500_L_10_R_5.png","img/750/equaldotanddens/R/2_Ratio_750_L_6_R_8.png","img/900/randomdotsizeEA/L/10_Ratio_900_L_20_R_18.png","img/750/randomdotsizeEA/R/5_Ratio_750_L_15_R_20.png","img/750/equaldotsize/L/6_Ratio_750_L_24_R_18.png","img/500/randomdotsizeEA/L/11_Ratio_500_L_12_R_6.png","img/750/equaldotsize/L/13_Ratio_750_L_8_R_6.png","img/250/randomdotsizeEA/R/10_Ratio_250_L_4_R_16.png","img/750/randomdotsizeEA/L/10_Ratio_750_L_4_R_3.png","img/900/equaldotsize/R/6_Ratio_900_L_9_R_10.png","img/750/equaldotanddens/R/11_Ratio_750_L_12_R_16.png","img/900/equaldotsize/L/8_Ratio_900_L_20_R_18.png","img/500/randomdotsizeEA/L/4_Ratio_500_L_18_R_9.png","img/750/equaldotanddens/L/9_Ratio_750_L_4_R_3.png","img/500/randomdotsizeEA/L/10_Ratio_500_L_4_R_2.png","img/750/randomdotsizeEA/L/1_Ratio_750_L_20_R_15.png","img/750/equaldotanddens/R/4_Ratio_750_L_15_R_20.png","img/250/equaldotsize/R/10_Ratio_250_L_4_R_16.png","img/900/equaldotsize/L/2_Ratio_900_L_20_R_18.png","img/900/equaldotanddens/R/13_Ratio_900_L_18_R_20.png","img/250/equaldotsize/R/12_Ratio_250_L_5_R_20.png"],"Rat0":[["12_Ratio_0_L_9_R_0.png","13_Ratio_0_L_6_R_0.png","5_Ratio_0_L_2_R_0.png","6_Ratio_0_L_4_R_0.png","8_Ratio_0_L_6_R_0.png"],["1_Ratio_0_L_0_R_17.png","10_Ratio_0_L_0_R_22.png","11_Ratio_0_L_0_R_1.png","14_Ratio_0_L_0_R_24.png","15_Ratio_0_L_0_R_4.png","2_Ratio_0_L_0_R_5.png","3_Ratio_0_L_0_R_17.png","4_Ratio_0_L_0_R_7.png","7_Ratio_0_L_0_R_19.png","9_Ratio_0_L_0_R_15.png"]],"Rat250":[["1_Ratio_250_L_8_R_2.png","14_Ratio_250_L_12_R_3.png","15_Ratio_250_L_12_R_3.png","2_Ratio_250_L_16_R_4.png","3_Ratio_250_L_8_R_2.png","5_Ratio_250_L_24_R_6.png","7_Ratio_250_L_8_R_2.png"],["10_Ratio_250_L_4_R_16.png","11_Ratio_250_L_3_R_12.png","12_Ratio_250_L_5_R_20.png","13_Ratio_250_L_2_R_8.png","4_Ratio_250_L_3_R_12.png","6_Ratio_250_L_6_R_24.png","8_Ratio_250_L_1_R_4.png","9_Ratio_250_L_3_R_12.png"]],"Rat500":[["10_Ratio_500_L_4_R_2.png","11_Ratio_500_L_12_R_6.png","13_Ratio_500_L_12_R_6.png","4_Ratio_500_L_18_R_9.png","5_Ratio_500_L_4_R_2.png","7_Ratio_500_L_10_R_5.png","8_Ratio_500_L_8_R_4.png"],["1_Ratio_500_L_9_R_18.png","12_Ratio_500_L_1_R_2.png","14_Ratio_500_L_5_R_10.png","15_Ratio_500_L_1_R_2.png","2_Ratio_500_L_3_R_6.png","3_Ratio_500_L_10_R_20.png","6_Ratio_500_L_9_R_18.png","9_Ratio_500_L_2_R_4.png"]],"Rat750":[["1_Ratio_750_L_20_R_15.png","10_Ratio_750_L_4_R_3.png","13_Ratio_750_L_8_R_6.png","14_Ratio_750_L_8_R_6.png","6_Ratio_750_L_24_R_18.png","8_Ratio_750_L_4_R_3.png","9_Ratio_750_L_4_R_3.png"],["11_Ratio_750_L_12_R_16.png","12_Ratio_750_L_3_R_4.png","15_Ratio_750_L_9_R_12.png","2_Ratio_750_L_6_R_8.png","3_Ratio_750_L_15_R_20.png","4_Ratio_750_L_15_R_20.png","5_Ratio_750_L_15_R_20.png","7_Ratio_750_L_3_R_4.png"]],"Rat900":[["1_Ratio_900_L_10_R_9.png","10_Ratio_900_L_20_R_18.png","2_Ratio_900_L_20_R_18.png","4_Ratio_900_L_20_R_18.png","8_Ratio_900_L_20_R_18.png"],["11_Ratio_900_L_18_R_20.png","12_Ratio_900_L_18_R_20.png","13_Ratio_900_L_18_R_20.png","14_Ratio_900_L_18_R_20.png","15_Ratio_900_L_9_R_10.png","3_Ratio_900_L_9_R_10.png","5_Ratio_900_L_9_R_10.png","6_Ratio_900_L_9_R_10.png","7_Ratio_900_L_9_R_10.png","9_Ratio_900_L_18_R_20.png"]],"Rat1000":[["10_Ratio_1000_L_16_R_16.png","11_Ratio_1000_L_6_R_6.png","12_Ratio_1000_L_14_R_14.png","13_Ratio_1000_L_20_R_20.png","15_Ratio_1000_L_15_R_15.png","2_Ratio_1000_L_17_R_17.png","4_Ratio_1000_L_9_R_9.png","5_Ratio_1000_L_6_R_6.png","6_Ratio_1000_L_19_R_19.png","8_Ratio_1000_L_14_R_14.png","9_Ratio_1000_L_25_R_25.png"],["1_Ratio_1000_L_1_R_1.png","14_Ratio_1000_L_17_R_17.png","3_Ratio_1000_L_17_R_17.png","7_Ratio_1000_L_6_R_6.png"]]}},{"start_time":1552074288355,"click_time":1552074308359,"finger_time":1552074305218,"fix_duration":1093.351145259102,"trial":1,"RT":16863,"MT":3141,"sideResp":1,"stimulus":"img/500/equaldotanddens/R/9_Ratio_500_L_2_R_4.png","xmouse":[781,781,781,781,781,781,781,781,781,781,781,781,781,781,781,781,781,781,781,781,781,781,781,781,781,781,781,781,781,781,781,781,781,781,781,781,781,781,781,781,781,781,781,781,781,781,781,781,781,781,781,781,781,781,781,781,781,781,781,781,781,781,781,781,781,781,781,781,781,781,781,781,781,781,781,781,781,781,781,781,781,781,781,781,781,781,781,781,781,781,781,781,781,781,781,781,781,781,781,781,781,781,781,781,781,781,781,781,781,781,781,781,781,781,781,781,781,781,781,781,781,781,781,781,781,781,781,781,781,781,781,781,781,781,781,781,781,781,781,781,781,781,781,781,781,781,781,781,781,781,781,781,781,781,781,781,781,781,781,781,781,781,781,781,781,781,781,781,781,781,781,781,781,781,781,781,781,781,781,781,781,781,781,781,781,781,781,781,781,781,781,781,781,781,781,781,781,781,781,781,781,781,781,781,781,781,781,781,781,781,781,781,781,781,781,781,781,781,781,781,781,781,781,781,781,781,781,781,781,781,781,781,781,781,781,781,781,781,781,781,781,781,781,781,781,781,781,781,781,781,781,781,781,781,781,781,781,781,781,781,781,781,781,781,781,781,781,781,781,781,781,781,781,781,781,781,781,781,781,781,781,781,781,781,781,781,781,781,781,781,781,781,781,781,781,781,781,781,781,781,781,781,781,781,781,781,781,781,781,781,781,781,781,781,781,781,781,781,781,781,781,781,781,781,781,781,781,781,781,781,781,781,781,781,781,781,781,781,781,781,781,781,781,781,781,781,781,781,781,781,781,781,781,781,781,781,781,781,781,781,781,781,781,781,781,781,781,781,781,781,781,781,781,781,781,781,781,781,781,781,781,781,781,781,781,781,781,781,781,781,781,781,781,781,781,781,781,781,781,781,781,781,781,781,781,781,781,781,781,781,781,781,781,781,781,781,781,781,781,781,781,781,781,781,781,781,781,781,781,781,781,781,781,781,781,781,781,781,781,781,781,781,781,781,781,781,781,781,781,781,781,781,781,781,781,781,781,781,781,781,781,781,781,781,781,781,781,781,781,781,781,781,781,781,781,781,781,781,781,781,781,781,781,781,781,781,781,781,781,781,781,781,781,781,781,781,781,781,781,781,781,781,781,781,781,781,781,781,781,781,781,781,781,781,781,781,781,781,781,781,781,781,781,781,781,781,781,781,781,781,781,781,781,781,781,781,781,781,781,781,781,781,781,781,781,781,781,781,781,781,781,781,781,781,781,781,781,781,781,781,781,781,781,781,781,781,781,781,781,781,781,781,781,781,781,781,781,781,781,781,781,781,781,781,781,781,781,781,781,781,781,781,781,781,781,781,781,781,781,781,781,781,781,781,781,781,781,781,781,781,781,781,781,781,781,781,781,781,781,781,781,781,781,781,781,781,781,781,781,781,781,781,781,781,781,781,781,781,781,781,781,781,781,781,781,781,781,781,781,781,781,781,781,781,781,781,781,781,781,781,781,781,781,781,781,781,781,781,781,781,781,781,781,781,781,781,781,781,781,781,781,781,781,781,781,781,781,781,781,781,781,781,781,781,781,781,781,781,781,781,781,781,781,781,781,781,781,781,781,781,781,781,781,781,781,781,781,781,781,781,781,781,781,781,781,781,781,781,781,781,781,781,781,781,781,781,781,781,781,781,781,781,781,781,781,781,781,781,781,781,781,781,781,781,781,781,781,781,781,781,781,781,781,781,781,781,781,781,781,781,781,781,781,781,781,781,781,781,781,781,781,781,781,781,781,781,781,781,781,781,781,781,781,781,781,781,781,781,781,781,781,781,781,781,781,781,781,781,781,781,781,781,781,781,781,781,781,781,781,781,781,781,781,781,781,781,781,781,781,781,781,781,781,781,781,781,781,781,791,783,776,768,762,762,762,762,762,762,765,770,772,776,782,783,783,783,783,783,783,783,783,783,783,783,783,783,783,783,783,783,783,783,783,783,783,783,783,783,783,783,783,783,783,783,783,783,783,783,783,783,783,783,783,783,783,783,783,783,783,783,783,783,783,783,783,783,783,783,783,783,783,783,783,783,783,783,783,783,783,783,783,783,783,783,783,783,783,783,783,783,783,783,783,783,783,783,783,783,783,783,783,783,783,783,783,783,783,783,783,783,783,783,783,783,784,784,785,787,787,788,788,788,788,788,788,789,789,789,789,789,789,789,789,789,789,789,789,789,784,779,765,761,721,698,675,653,630,608,608,608,608,608,608,608,608,608,608,546,536,529],"ymouse":[23,23,23,23,23,23,23,23,23,23,23,23,23,23,23,23,23,23,23,23,23,23,23,23,23,23,23,23,23,23,23,23,23,23,23,23,23,23,23,23,23,23,23,23,23,23,23,23,23,23,23,23,23,23,23,23,23,23,23,23,23,23,23,23,23,23,23,23,23,23,23,23,23,23,23,23,23,23,23,23,23,23,23,23,23,23,23,23,23,23,23,23,23,23,23,23,23,23,23,23,23,23,23,23,23,23,23,23,23,23,23,23,23,23,23,23,23,23,23,23,23,23,23,23,23,23,23,23,23,23,23,23,23,23,23,23,23,23,23,23,23,23,23,23,23,23,23,23,23,23,23,23,23,23,23,23,23,23,23,23,23,23,23,23,23,23,23,23,23,23,23,23,23,23,23,23,23,23,23,23,23,23,23,23,23,23,23,23,23,23,23,23,23,23,23,23,23,23,23,23,23,23,23,23,23,23,23,23,23,23,23,23,23,23,23,23,23,23,23,23,23,23,23,23,23,23,23,23,23,23,23,23,23,23,23,23,23,23,23,23,23,23,23,23,23,23,23,23,23,23,23,23,23,23,23,23,23,23,23,23,23,23,23,23,23,23,23,23,23,23,23,23,23,23,23,23,23,23,23,23,23,23,23,23,23,23,23,23,23,23,23,23,23,23,23,23,23,23,23,23,23,23,23,23,23,23,23,23,23,23,23,23,23,23,23,23,23,23,23,23,23,23,23,23,23,23,23,23,23,23,23,23,23,23,23,23,23,23,23,23,23,23,23,23,23,23,23,23,23,23,23,23,23,23,23,23,23,23,23,23,23,23,23,23,23,23,23,23,23,23,23,23,23,23,23,23,23,23,23,23,23,23,23,23,23,23,23,23,23,23,23,23,23,23,23,23,23,23,23,23,23,23,23,23,23,23,23,23,23,23,23,23,23,23,23,23,23,23,23,23,23,23,23,23,23,23,23,23,23,23,23,23,23,23,23,23,23,23,23,23,23,23,23,23,23,23,23,23,23,23,23,23,23,23,23,23,23,23,23,23,23,23,23,23,23,23,23,23,23,23,23,23,23,23,23,23,23,23,23,23,23,23,23,23,23,23,23,23,23,23,23,23,23,23,23,23,23,23,23,23,23,23,23,23,23,23,23,23,23,23,23,23,23,23,23,23,23,23,23,23,23,23,23,23,23,23,23,23,23,23,23,23,23,23,23,23,23,23,23,23,23,23,23,23,23,23,23,23,23,23,23,23,23,23,23,23,23,23,23,23,23,23,23,23,23,23,23,23,23,23,23,23,23,23,23,23,23,23,23,23,23,23,23,23,23,23,23,23,23,23,23,23,23,23,23,23,23,23,23,23,23,23,23,23,23,23,23,23,23,23,23,23,23,23,23,23,23,23,23,23,23,23,23,23,23,23,23,23,23,23,23,23,23,23,23,23,23,23,23,23,23,23,23,23,23,23,23,23,23,23,23,23,23,23,23,23,23,23,23,23,23,23,23,23,23,23,23,23,23,23,23,23,23,23,23,23,23,23,23,23,23,23,23,23,23,23,23,23,23,23,23,23,23,23,23,23,23,23,23,23,23,23,23,23,23,23,23,23,23,23,23,23,23,23,23,23,23,23,23,23,23,23,23,23,23,23,23,23,23,23,23,23,23,23,23,23,23,23,23,23,23,23,23,23,23,23,23,23,23,23,23,23,23,23,23,23,23,23,23,23,23,23,23,23,23,23,23,23,23,23,23,23,23,23,23,23,23,23,23,23,23,23,23,23,23,23,23,23,23,23,23,23,23,23,23,23,23,23,23,23,23,23,23,23,23,23,23,23,23,23,23,23,23,23,23,23,23,23,23,23,23,23,23,23,23,23,23,23,23,23,23,23,23,23,23,23,23,23,25,22,18,13,7,7,7,7,7,7,7,9,11,12,15,15,16,16,16,16,16,16,16,16,16,16,16,16,16,16,16,16,16,16,16,16,16,16,16,16,16,16,16,16,16,16,16,16,16,16,16,16,16,16,16,16,16,16,16,16,16,16,16,16,16,16,16,16,16,16,16,16,16,16,16,16,16,16,16,16,16,16,16,16,16,16,16,16,16,16,16,16,16,16,16,16,16,16,16,16,16,16,16,16,16,16,16,16,16,16,16,16,16,16,16,16,16,17,17,17,17,17,17,17,17,17,17,17,17,17,17,17,17,17,17,17,17,17,17,16,14,13,12,11,10,10,10,7,3,0,0,0,0,0,0,0,0,0,0,2,5,8],"timestamp_mouse":[4,48,63,84,103,124,144,165,184,204,224,243,264,283,305,323,344,363,384,403,424,443,463,483,504,524,543,563,583,603,623,644,664,683,704,724,743,764,783,804,823,843,864,884,904,924,943,965,983,1003,1023,1044,1063,1083,1104,1124,1143,1164,1183,1203,1224,1243,1265,1283,1303,1325,1344,1364,1383,1403,1424,1443,1464,1483,1503,1523,1543,1563,1585,1604,1624,1644,1664,1684,1704,1725,1743,1763,1783,1803,1824,1844,1863,1883,1904,1923,1944,1964,1983,2003,2024,2043,2063,2083,2103,2123,2143,2163,2184,2204,2224,2244,2263,2284,2304,2323,2344,2364,2383,2405,2425,2443,2463,2484,2504,2523,2543,2564,2584,2604,2625,2644,2664,2683,2704,2724,2743,2764,2784,2805,2823,2843,2864,2883,2904,2923,2943,2963,2984,3004,3023,3043,3064,3085,3104,3123,3144,3164,3184,3204,3223,3244,3264,3283,3304,3323,3343,3363,3384,3403,3423,3443,3464,3483,3504,3523,3544,3563,3584,3604,3623,3645,3664,3684,3703,3723,3744,3765,3783,3803,3823,3843,3863,3883,3904,3924,3943,3963,3983,4004,4023,4043,4064,4085,4103,4123,4143,4163,4183,4203,4223,4243,4264,4283,4304,4323,4344,4364,4383,4405,4424,4443,4464,4484,4504,4523,4544,4563,4584,4603,4623,4645,4664,4684,4704,4723,4744,4763,4783,4804,4823,4844,4865,4884,4904,4924,4943,4964,4984,5004,5023,5043,5064,5083,5103,5123,5144,5163,5184,5204,5224,5243,5265,5284,5303,5324,5344,5364,5384,5403,5423,5443,5464,5484,5503,5524,5543,5564,5584,5604,5623,5644,5664,5683,5703,5723,5743,5764,5783,5805,5823,5843,5863,5884,5904,5924,5943,5963,5984,6003,6023,6043,6064,6083,6103,6124,6144,6163,6184,6204,6224,6244,6264,6283,6303,6323,6343,6363,6383,6403,6424,6443,6464,6484,6504,6523,6543,6563,6583,6604,6623,6644,6664,6683,6704,6724,6743,6763,6783,6804,6824,6844,6864,6884,6903,6923,6943,6964,6983,7004,7024,7044,7064,7084,7104,7123,7143,7163,7185,7204,7224,7244,7263,7283,7303,7324,7343,7363,7383,7403,7423,7444,7464,7483,7503,7523,7543,7563,7583,7604,7623,7644,7664,7684,7704,7724,7743,7763,7784,7803,7823,7844,7863,7884,7903,7923,7945,7963,7984,8004,8024,8044,8064,8084,8103,8123,8143,8164,8183,8203,8223,8244,8264,8283,8303,8323,8344,8364,8383,8404,8423,8445,8464,8484,8504,8523,8543,8564,8583,8603,8624,8645,8663,8683,8703,8723,8743,8763,8783,8803,8823,8844,8864,8884,8904,8923,8944,8963,8983,9003,9024,9044,9064,9084,9103,9125,9144,9163,9183,9203,9223,9243,9263,9284,9305,9324,9344,9364,9383,9404,9424,9444,9464,9483,9503,9524,9544,9564,9584,9603,9623,9644,9663,9684,9703,9723,9744,9763,9783,9803,9823,9844,9863,9884,9903,9924,9943,9963,9985,10004,10024,10044,10063,10084,10104,10124,10144,10164,10183,10204,10224,10243,10263,10284,10303,10323,10344,10364,10383,10404,10423,10444,10464,10483,10504,10524,10544,10563,10584,10604,10624,10644,10664,10683,10703,10724,10744,10765,10784,10804,10823,10843,10863,10883,10903,10923,10944,10964,10984,11003,11023,11043,11064,11083,11103,11124,11143,11163,11183,11203,11224,11243,11264,11283,11304,11323,11343,11364,11384,11403,11423,11443,11464,11484,11503,11523,11543,11563,11584,11603,11624,11643,11663,11684,11704,11723,11743,11763,11783,11804,11824,11844,11863,11884,11903,11924,11944,11963,11983,12003,12024,12044,12063,12083,12103,12123,12144,12164,12184,12203,12224,12244,12264,12284,12303,12324,12343,12364,12383,12404,12423,12443,12465,12483,12503,12524,12543,12563,12584,12604,12623,12643,12664,12684,12704,12723,12743,12764,12783,12803,12823,12843,12864,12883,12904,12924,12943,12963,12983,13003,13025,13043,13064,13083,13103,13124,13143,13163,13183,13203,13224,13243,13263,13283,13304,13324,13343,13363,13383,13404,13423,13443,13464,13483,13503,13525,13543,13563,13584,13605,13624,13643,13664,13684,13705,13724,13743,13763,13783,13804,13823,13843,13864,13883,13903,13924,13944,13964,13983,14004,14024,14044,14065,14084,14104,14124,14143,14163,14184,14203,14223,14244,14263,14283,14303,14325,14344,14363,14383,14403,14424,14443,14464,14483,14503,14523,14544,14564,14584,14603,14623,14643,14663,14684,14704,14723,14743,14764,14783,14803,14824,14843,14863,14884,14904,14923,14944,14964,14983,15004,15024,15043,15064,15085,15103,15124,15144,15164,15183,15204,15224,15244,15264,15284,15305,15323,15344,15364,15384,15403,15423,15444,15464,15484,15503,15524,15543,15564,15584,15604,15623,15644,15664,15684,15703,15724,15744,15764,15784,15804,15824,15844,15864,15885,15904,15925,15943,15964,15984,16003,16023,16043,16063,16083,16103,16123,16143,16163,16184,16204,16224,16243,16263,16284,16303,16323,16343,16363,16383,16403,16423,16443,16464,16484,16503,16523,16543,16564,16583,16603,16623,16644,16663,16684,16704,16724,16744,16764,16784,16805,16824,16843,16863,16883,16903,16923,16945,16963,16984,17004,17025,17043,17063,17084,17104,17123,17144,17163,17183,17203,17223,17243,17263,17283,17304,17323,17343,17364,17384,17403,17423,17444,17463,17483,17504,17523,17543,17564,17583,17603,17623,17644,17664,17684,17704,17724,17744,17764,17783,17805,17824,17845,17864,17884,17905,17923,17944,17963,17983,18003,18024,18045,18064,18084,18103,18123,18144,18164,18183,18205,18224,18244,18263,18283,18303,18324,18344,18364,18383,18403,18423,18443,18463,18484,18503,18523,18544,18565,18583,18605,18624,18643,18664,18683,18703,18724,18744,18764,18784,18804,18824,18844,18863,18883,18904,18924,18943,18964,18984,19003,19023,19043,19064,19084,19103,19123,19143,19163,19184,19203,19223,19243,19264,19284,19304,19324,19344,19364,19383,19403,19423,19443,19463,19484,19503,19524,19543,19564,19583,19603,19623,19643,19663,19684,19703,19724,19743,19764,19784,19803,19824,19843,19863,19884,19903,19924,19943,19963,19983,20003],"xSR":750,"ySR":11.700000000000001,"xT1":430,"yT1":0,"xT2":1070,"yT2":0,"toosoon":0,"cond_shown":"equaldotanddens","ratio_trial":500,"smaller_num":"2","larger_num":"4","correct_side":2,"subjID":"sebastianalbarracin14","gender":"0","age":"9","school":"4"},{"start_time":1552074311269,"click_time":1552074312719,"finger_time":1552074312219,"fix_duration":1249.7721069072247,"trial":2,"RT":950,"MT":500,"sideResp":2,"stimulus":"img/750/randomdotsizeEA/R/2_Ratio_750_L_6_R_8.png","xmouse":[795,795,795,795,795,795,795,795,795,795,795,795,795,795,795,795,795,795,795,795,795,795,795,795,795,796,798,800,802,803,805,805,806,807,808,809,810,810,811,812,813,815,822,828,831,842,849,867,873,877,880,883,886,898,907,926,937,943,949,951,957,962,976,992,997,1015,1024,1034,1044,1049,1056,1064,1073],"ymouse":[13,13,13,13,13,13,13,13,13,13,13,13,13,13,13,13,13,13,13,13,13,13,13,13,13,13,13,14,14,14,14,14,14,14,14,15,15,15,15,15,15,16,17,18,18,20,20,23,23,23,23,23,23,23,21,19,19,19,17,17,16,16,16,16,16,16,16,16,16,16,16,14,13],"timestamp_mouse":[9,37,49,70,89,109,130,149,171,189,209,230,249,269,290,309,330,349,370,389,409,429,450,469,490,511,530,550,570,590,609,630,650,670,689,709,730,749,770,789,810,830,849,869,889,909,930,950,969,991,1010,1030,1050,1069,1090,1109,1129,1150,1169,1189,1209,1229,1250,1269,1289,1310,1330,1349,1370,1389,1409,1429,1449],"xSR":750,"ySR":11.700000000000001,"xT1":430,"yT1":0,"xT2":1070,"yT2":0,"toosoon":0,"cond_shown":"randomdotsizeEA","ratio_trial":750,"smaller_num":"6","larger_num":"8","correct_side":2,"subjID":"sebastianalbarracin14","gender":"0","age":"9","school":"4"},{"start_time":1552074315121,"click_time":1552074359399,"finger_time":1552074318238,"fix_duration":1099.0227751409902,"trial":3,"RT":3117,"MT":41161,"sideResp":2,"stimulus":"img/750/equaldotanddens/L/6_Ratio_750_L_24_R_18.png","xmouse":[818,818,818,818,818,818,818,818,818,818,818,818,818,818,818,818,818,818,818,818,818,818,818,818,818,818,818,818,818,818,818,818,818,818,818,818,818,818,818,818,818,818,818,818,818,818,818,818,818,818,818,818,818,818,818,818,818,818,818,818,818,818,818,818,818,818,818,818,818,818,818,818,818,818,818,818,818,818,818,818,818,818,818,818,818,818,818,818,818,818,818,818,818,818,818,818,818,818,818,818,818,818,818,818,818,818,818,818,818,818,818,818,818,818,818,818,818,818,818,818,818,818,818,818,818,818,818,818,818,818,818,818,818,818,818,818,818,818,818,818,818,818,818,818,818,818,818,818,818,818,818,818,818,818,818,818,818,818,818,818,818,818,818,818,818,818,818,818,818,818,818,818,818,818,818,818,818,818,818,818,818,818,818,818,818,818,818,818,818,818,818,818,818,818,818,818,818,818,818,818,818,818,818,818,818,818,818,818,818,818,818,818,818,818,818,818,818,818,818,818,818,818,818,818,818,818,818,818,818,818,818,818,818,818,818,818,818,818,818,818,818,818,818,818,818,818,818,818,818,818,818,818,818,818,818,818,818,818,818,818,818,818,818,818,818,818,818,818,818,818,818,818,818,818,818,818,818,818,818,818,818,818,818,818,818,818,818,818,818,818,818,818,818,818,818,818,818,818,818,818,818,818,818,820,823,826,827,827,827,827,827,827,828,828,828,828,828,828,828,828,828,828,828,828,817,817,817,817,1003,1003,1003,1003,1003,1003,1003,1003,1003,939,948,953,957,957,957,957,957,957,957,957,957,957,957,957,957,957,957,957,957,957,957,957,957,957,957,957,957,957,957,820,820,822,824,824,824,824,824,824,824,824,824,824,824,824,823,823,822,821,820,819,819,819,819,819,819,818,817,816,813,813,813,813,813,813,813,813,813,813,813,813,813,813,813,813,813,813,813,813,813,813,813,813,813,813,813,813,813,813,813,813,813,813,813,813,813,813,813,813,813,813,813,813,813,813,813,813,813,813,813,813,813,813,813,813,813,813,813,813,813,813,813,813,813,813,813,813,813,813,813,813,813,813,813,813,813,813,813,813,813,813,813,813,813,813,813,813,813,813,813,813,813,813,813,813,813,813,813,813,813,813,813,813,813,813,813,813,813,813,813,813,813,813,813,813,813,813,813,813,813,813,813,813,813,813,813,813,813,813,813,813,813,813,813,813,813,813,813,813,813,813,813,813,813,813,813,813,813,813,813,813,813,813,813,813,813,813,813,813,813,813,813,813,813,813,813,813,813,813,813,813,813,813,813,813,813,813,813,813,813,813,813,813,813,813,813,813,813,813,813,813,813,813,813,813,813,813,813,813,813,813,813,813,813,813,813,813,813,813,813,813,813,813,813,813,813,813,813,813,813,813,813,813,813,813,813,813,813,813,813,813,813,813,813,813,813,813,813,813,813,813,813,813,813,813,813,813,813,813,813,813,813,813,813,813,813,813,813,813,813,813,813,813,813,813,813,813,813,813,813,813,813,813,813,813,813,813,813,813,813,813,813,813,813,813,813,813,813,813,813,813,813,813,813,813,813,813,813,813,813,813,813,813,813,813,813,813,813,813,813,813,813,813,813,813,813,813,813,813,813,813,813,1582,1568,1546,1509,1470,1426,1377,1280,1238,1196,1160,1144,1137,1137,1137,1137,1133,1127,1120,1115,1113,1103,1082,1078,1078,1078,1078,1078,1078,1078,1078,1078,1078,1078,1078,1078,1078,1078,1078,1078,1078,1078,1078,1078,1078,1078,1078,1078,1078,1078,1078,1078,1078,1078,1078,1078,1078,1078,1078,1078,1078,1078,1078,1078,1078,1078,1078,1078,1078,1078,1078,1078,1078,1078,1078,1078,1078,1078,1078,1078,1078,1078,1078,1078,1078,1078,1078,1078,1078,1078,1078,1078,1078,1078,1078,1078,1078,1078,1078,1078,1078,1078,1078,1078,1078,1078,1078,1078,1078,1078,1078,1078,1078,1078,1078,1078,1078,1078,1078,1078,1078,1078,1078,1078,1078,1078,1078,1078,1078,1078,1078,1078,1078,1078,1078,1078,1078,1078,1078,1078,1078,1078,1078,1078,1078,1078,1078,1078,1078,1078,1078,1078,1078,1078,1078,1078,1078,1078,1078,1078,1078,1078,1078,1078,1078,1078,1078,1078,1078,1078,1078,1078,1078,1078,1078,1078,1078,1078,1078,1078,1081,1097,1159,1191,1217,1240,1261,1310,1334,1354,1370,1384,1415,1427,1438,1447,1452,1473,1487,1500,1512,1526,1549,1580,1580,1580,1580,1580,1580,1580,1580,1580,1580,1580,1580,1582,1582,1582,1581,1579,1579,1579,1579,1579,1579,1579,1579,1579,1580,1582,1582,1582,1582,1582,1582,1582,1582,1582,1582,1582,1582,1582,1582,1582,1582,1582,1582,1582,1582,1582,1582,1582,1582,1582,1582,1582,1582,1582,1582,1582,1582,1582,1582,1582,1582,1582,1582,1582,1582,1582,1582,1582,1582,1582,1582,1582,1582,1582,1582,1582,1582,1582,1582,1582,1582,1582,1582,1582,1582,1582,1582,1582,1582,1582,1582,1582,1582,1582,1582,1582,1582,1582,1582,1582,1582,1582,1582,1582,1582,1582,1582,1582,1582,1582,1582,1582,1582,1582,1582,1582,1582,1582,1582,1582,1582,1582,1582,1582,1582,1582,1582,1582,1582,1582,1582,1582,1582,1582,1582,1582,1582,1582,1582,1582,1582,1582,1582,1582,1582,1582,1582,1582,1582,1582,1582,1582,1582,1582,1582,1582,1582,1582,1582,1582,1582,1582,1582,1582,1582,1582,1582,1582,1582,1582,1582,1582,1582,1582,1582,1582,1582,1582,1582,1582,1582,1582,1582,1582,1582,1582,1582,1582,1582,1582,1582,1582,1582,1582,1582,1582,1582,1582,1582,1582,1582,1582,1582,1582,1582,1582,1582,1582,1582,1582,1582,1582,1582,1582,1582,1582,1582,1582,1582,1582,1582,1582,1582,1582,1582,1582,1582,1582,1582,1582,1582,1582,1582,1582,1582,1582,1582,1582,1582,1582,1582,1582,1582,1582,1582,1582,1582,1582,1582,1582,1582,1582,1582,1582,1582,1582,1582,1582,1582,1582,1582,1582,1582,1582,1582,1582,1582,1582,1582,1582,1582,1582,1582,1582,1582,1582,1582,1582,1582,1582,1582,1582,1582,1582,1582,1582,1582,1582,1582,1582,1582,1582,1582,1582,1582,1582,1582,1582,1582,1582,1582,1582,1582,1582,1582,1582,1582,1582,1582,1582,1582,1565,1547,1533,1521,1518,1515,1513,1513,1513,1513,1515,1519,1525,1568,1574,1578,1579,1579,1582,1582,1582,1582,1582,1582,1582,1582,1582,1582,1582,1582,1582,1582,1582,1582,1582,1582,1582,1582,1582,1582,1582,1582,1582,1582,1582,1582,1582,1582,1582,1582,1582,1582,1582,1582,1582,1582,1582,1582,1582,1582,1582,1582,1582,1582,1582,1582,1582,1582,1582,1582,1582,1582,1582,1582,1582,1582,1582,1582,1582,1582,1582,1582,1582,1582,1582,1582,1582,1582,1582,1582,1582,1582,1582,1582,1582,1582,1582,1582,1582,1582,1582,1582,1582,1582,1582,1582,1582,1582,1582,1582,1582,1582,1582,1582,1582,1582,1582,1582,1582,1582,1582,1582,1582,1582,1582,1582,1582,1582,1582,1582,1582,1582,1582,1582,1582,1582,1582,1582,1582,1582,1582,1582,1582,1582,1582,1582,1582,1582,1582,1582,1582,1582,1582,1582,1582,1582,1582,1582,1582,1582,1582,1582,1582,1582,1582,1582,1582,1582,1582,1582,1582,1582,1573,1561,1550,1532,1507,1476,1431,1417,1401,1389,1381,1378,1376,1375,1373,1367,1346,1338,1333,1323,1317,1305,1301,1297,1296,1294,1293,1293,1293,1293,1293,1293,1293,1293,1293,1293,1293,1293,1293,1293,1293,1293,1293,1293,1293,1293,1293,1293,1293,1293,1293,1293,1293,1293,1293,1293,1293,1293,1293,1293,1293,1293,1293,1293,1293,1293,1293,1293,1293,1293,1293,1293,1293,1293,1293,1293,1293,1293,1293,1293,1293,1293,1293,1293,1293,1293,1293,1293,1293,1293,1293,1293,1293,1293,1293,1293,1293,1293,1293,1293,1293,1293,1293,1293,1293,1293,1293,1293,1293,1293,1293,1293,1293,1293,1293,1293,1293,1293,1293,1293,1293,1293,1293,1293,1293,1293,1293,1293,1293,1293,1293,1293,1293,1293,1293,1293,1293,1293,1293,1293,1293,1293,1293,1293,1293,1293,1293,1293,1293,1293,1293,1293,1293,1293,1293,1293,1293,1293,1293,1293,1293,1293,1293,1293,1293,1293,1293,1293,1293,1293,1293,1293,1293,1293,1293,1293,1293,1293,1293,1293,1293,1293,1293,1293,1293,1293,1293,1293,1293,1293,1293,1293,1293,1293,1293,1293,1293,1293,1293,1293,1293,1293,1293,1293,1293,1293,1293,1293,1293,1293,1293,1293,1293,1293,1293,1293,1293,1293,1293,1293,1293,1293,1293,1293,1293,1293,1293,1293,1293,1293,1293,1293,1293,1293,1293,1293,1293,1294,1299,1313,1320,1352,1367,1382,1393,1402,1410,1437,1452,1467,1484,1494,1500,1500,1500,1501,1503,1512,1516,1519,1522,1525,1536,1543,1549,1554,1556,1560,1563,1563,1564,1564,1566,1567,1570,1573,1580,1580,1580,1580,1580,1580,1580,1580,1580,1580,1580,1555,1533,1511,1494,1475,1428,1402,1378,1331,1261,1095,1073,1059,1050,1036,995,973,950,934,921,892,881,869,853,836,815,813,813,813,813,813,813,816,818,818,818,818,818,818,818,818,818,818,818,818,818,818,818,818,818,818,818,818,818,818,818,818,818,818,818,818,818,818,818,818,818,818,818,818,818,818,818,818,818,818,818,818,818,818,818,818,818,818,818,818,818,818,818,818,818,818,818,818,818,818,818,818,818,818,818,818,818,818,818,818,818,818,818,818,818,818,818,818,818,818,818,818,818,818,818,819,819,819,819,819,819,819,819,819,819,819,819,825,828,828,828,828,829,829,825,800,778,745,708,687,675,673,672,669,669,671,674,679,682,689,701,705,716,728,753,762,762,762,762,764,768,772,772,772,772,766,765,764,764,763,761,761,761,761,761,767,773,779,783,784,785,785,786,787,787,788,788,788,789,789,790,790,790,790,790,790,790,790,790,790,790,790,790,790,790,790,790,790,790,790,790,790,790,790,790,790,790,790,790,790,790,790,790,790,790,791,793,793,794,794,794,796,796,796,796,796,796,796,796,797,797,797,797,797,797,797,797,797,797,797,797,797,797,797,797,797,797,797,797,797,797,797,797,797,797,797,797,797,797,797,797,797,797,797,797,797,797,797,797,797,797,797,797,797,797,797,797,797,797,797,797,797,797,797,797,797,797,797,797,797,797,797,797,798,799,806,808,808,808,809,809,809,809,809,809,809,809,809,809,809,809,809,809,809,809,809,809,809,809,809,809,809,809,809,809,809,809,809,809,809,809,809,809,809,809,809,809,810,810,810,802,799,795,793,793,791,790,790,790,790,790,790,790,790,790,790,790,790,790,790,790,790,790,790,790,790,790,790,790,790,790,790,790,790,790,790,790,790,790,790,790,790,790,790,790,790,790,790,790,790,790,790,790,790,790,790,790,790,790,790,790,790,790,790,790,790,790,790,790,790,790,790,790,790,790,790,790,790,790,790,790,790,790,790,790,790,790,790,790,790,790,790,790,790,790,790,790,790,790,790,790,790,790,790,790,790,790,789,786,781,770,744,730,722,722,722,723,724,724,724,724,724,724,724,724,724,724,724,724,724,724,724,724,724,724,724,724,724,724,724,724,724,724,724,724,724,724,724,724,724,724,723,723,723,861,916,999,1016,1028,1038,1047,1078,1089,1101,1115],"ymouse":[20,20,20,20,20,20,20,20,20,20,20,20,20,20,20,20,20,20,20,20,20,20,20,20,20,20,20,20,20,20,20,20,20,20,20,20,20,20,20,20,20,20,20,20,20,20,20,20,20,20,20,20,20,20,20,20,20,20,20,20,20,20,20,20,20,20,20,20,20,20,20,20,20,20,20,20,20,20,20,20,20,20,20,20,20,20,20,20,20,20,20,20,20,20,20,20,20,20,20,20,20,20,20,20,20,20,20,20,20,20,20,20,20,20,20,20,20,20,20,20,20,20,20,20,20,20,20,20,20,20,20,20,20,20,20,20,20,20,20,20,20,20,20,20,20,20,20,20,20,20,20,20,20,20,20,8,5,5,5,5,5,5,5,5,5,5,5,5,5,5,5,5,5,5,5,5,5,5,5,5,5,5,5,5,5,5,5,5,5,5,5,5,5,5,5,5,5,5,5,5,5,5,5,5,5,5,5,5,5,5,5,5,5,5,5,5,5,5,5,5,5,5,5,5,5,5,5,5,5,5,5,5,5,5,5,5,5,5,5,5,5,5,5,5,5,5,5,5,5,5,5,5,5,5,5,5,5,5,5,5,5,5,5,5,5,5,5,5,5,5,5,5,5,5,5,5,5,5,5,5,5,5,5,5,5,5,5,5,5,5,5,5,5,5,5,5,5,5,5,5,5,5,5,5,7,11,17,17,18,20,23,23,25,25,25,25,25,25,25,25,25,25,25,25,17,17,17,17,14,14,14,14,14,14,14,14,14,15,11,12,25,25,25,25,25,25,25,25,25,25,25,25,25,25,25,25,25,25,25,25,25,25,25,25,25,25,25,23,23,22,21,21,21,21,21,21,21,21,21,21,21,21,21,21,21,21,20,20,20,20,20,20,20,20,20,20,25,25,25,25,25,25,25,25,25,25,25,25,25,25,25,25,25,25,25,25,25,25,25,25,25,25,25,25,25,25,25,25,25,25,25,25,25,25,25,25,25,25,25,25,25,25,25,25,25,25,25,25,25,25,25,25,25,25,25,25,25,25,25,25,25,25,25,25,25,25,25,25,25,25,25,25,25,25,25,25,25,25,25,25,25,25,25,25,25,25,25,25,25,25,25,25,25,25,25,25,25,25,25,25,25,25,25,25,25,25,25,25,25,25,25,25,25,25,25,25,25,25,25,25,25,25,25,25,25,25,25,25,25,25,25,25,25,25,25,25,25,25,25,25,25,25,25,25,25,25,25,25,25,25,25,25,25,25,25,25,25,25,25,25,25,25,25,25,25,25,25,25,25,25,25,25,25,25,25,25,25,25,25,25,25,25,25,25,25,25,25,25,25,25,25,25,25,25,25,25,25,25,25,25,25,25,25,25,25,25,25,25,25,25,25,25,25,25,25,25,25,25,25,25,25,25,25,25,25,25,25,25,25,25,25,25,25,25,25,25,25,25,25,25,25,25,25,25,25,25,25,25,25,25,25,25,25,25,25,25,25,25,25,25,25,25,25,25,25,25,25,25,25,25,25,25,25,25,25,25,25,25,25,25,25,25,25,25,25,25,25,25,25,25,25,25,25,25,25,25,25,25,25,25,25,25,25,25,25,25,25,25,25,25,25,25,25,25,25,25,25,25,25,20,50,92,175,237,290,342,407,428,459,479,487,490,490,490,490,486,483,479,479,479,479,487,489,489,489,489,489,489,489,489,489,489,489,489,489,489,489,489,489,489,489,489,489,489,489,489,489,489,489,489,489,489,489,489,489,489,489,489,489,489,489,489,489,489,489,489,489,489,489,489,489,489,489,489,489,489,489,489,489,489,489,489,489,489,489,489,489,489,489,489,489,489,489,489,489,489,489,489,489,489,489,489,489,489,489,489,489,489,489,489,489,489,489,489,489,489,489,489,489,489,489,489,489,489,489,489,489,489,489,489,489,489,489,489,489,489,489,489,489,489,489,489,489,489,489,489,489,489,489,489,489,489,489,489,489,489,489,489,489,489,489,489,489,489,489,489,489,489,489,489,489,489,489,489,489,489,489,489,488,485,482,466,462,459,455,453,445,442,440,438,436,430,428,426,426,426,426,426,426,428,430,435,439,439,439,439,439,439,439,439,439,439,439,439,467,467,467,468,468,468,468,468,468,468,468,468,468,468,469,469,469,469,469,469,469,469,469,469,469,469,469,469,469,469,469,469,469,469,469,469,469,469,469,469,469,469,469,469,469,469,469,469,469,469,469,469,469,469,469,469,469,469,469,469,469,469,469,469,469,469,469,469,469,469,469,469,469,469,469,469,469,469,469,469,469,469,469,469,469,469,469,469,469,469,469,469,469,469,469,469,469,469,469,469,469,469,469,469,469,469,469,469,469,469,469,469,469,469,469,469,469,469,469,469,469,469,469,469,469,469,469,469,469,469,469,469,469,469,469,469,469,469,469,469,469,469,469,469,469,469,469,469,469,469,469,469,469,469,469,469,469,469,469,469,469,469,469,469,469,469,469,469,469,469,469,469,469,469,469,469,469,469,469,469,469,469,469,469,469,469,469,469,469,469,469,469,469,469,469,469,469,469,469,469,469,469,469,469,469,469,469,469,469,469,469,469,469,469,469,469,469,469,469,469,469,469,469,469,469,469,469,469,469,469,469,469,469,469,469,469,469,469,469,469,469,469,469,469,469,469,469,469,469,469,469,469,469,469,469,469,469,469,469,469,469,469,469,469,469,469,469,469,469,469,469,469,469,469,469,469,469,469,469,469,469,469,469,469,469,469,469,469,469,469,469,469,469,469,469,469,469,469,469,469,351,345,339,330,326,323,321,321,321,320,317,315,311,264,261,257,256,256,253,253,253,253,253,253,253,253,253,253,253,253,253,253,253,253,253,253,253,253,253,253,253,253,253,253,253,253,253,253,253,253,253,253,253,253,253,253,253,253,253,253,253,253,253,253,253,253,253,253,253,253,253,253,253,253,253,253,253,253,253,253,253,253,253,253,253,253,253,253,253,253,253,253,253,253,253,253,253,253,253,253,253,253,253,253,253,253,253,253,253,253,253,253,253,253,253,253,253,253,253,253,253,253,253,253,253,253,253,253,253,253,253,253,253,253,253,253,253,253,253,253,253,253,253,253,253,253,253,253,253,253,253,253,253,253,253,253,253,253,253,253,253,253,253,253,253,253,253,253,253,253,253,253,240,242,246,250,254,260,263,262,257,254,254,254,253,253,252,249,240,238,236,235,235,235,236,236,237,237,238,238,238,238,238,238,238,238,238,238,238,238,238,238,238,238,238,238,238,238,238,238,238,238,238,238,238,238,238,238,238,238,238,238,238,238,238,238,238,238,238,238,238,238,238,238,238,238,238,238,238,238,238,238,238,238,238,238,238,238,238,238,238,238,238,238,238,238,238,238,238,238,238,238,238,238,238,238,238,238,238,238,238,238,238,238,238,238,238,238,238,238,238,238,238,238,238,238,238,238,238,238,238,238,238,238,238,238,238,238,238,238,238,238,238,238,238,238,238,238,238,238,238,238,238,238,238,238,238,238,238,238,238,238,238,238,238,238,238,238,238,238,238,238,238,238,238,238,238,238,238,238,238,238,238,238,238,238,238,238,238,238,238,238,238,238,238,238,238,238,238,238,238,238,238,238,238,238,238,238,238,238,238,238,238,238,238,238,238,238,238,238,238,238,238,238,238,238,238,238,238,238,238,238,238,238,238,238,238,238,238,240,241,241,239,219,216,216,217,222,227,237,239,240,240,240,237,237,237,236,236,235,235,235,237,239,250,258,264,268,268,269,270,270,271,271,272,273,275,277,279,279,279,279,279,279,279,279,279,279,279,297,306,316,325,334,353,358,366,378,396,444,451,455,460,468,497,511,530,543,556,590,603,618,637,657,678,680,680,680,680,679,672,665,659,658,657,657,657,657,657,657,657,657,657,657,657,657,657,657,657,657,657,657,657,657,657,657,657,657,657,657,657,657,657,657,657,657,657,657,657,657,657,657,657,657,657,657,657,657,657,657,657,657,657,657,657,657,657,657,657,657,657,657,657,657,657,657,657,657,657,657,657,657,657,657,657,657,657,657,657,657,657,657,657,657,657,657,657,657,657,657,657,657,657,657,657,657,657,657,657,657,657,657,657,657,657,657,657,657,651,588,546,504,461,432,403,397,390,375,343,310,298,288,282,270,262,259,255,244,220,194,191,186,179,171,159,152,141,137,127,100,92,79,67,58,46,43,43,43,43,39,37,33,32,31,31,30,30,28,28,27,25,25,25,25,23,23,23,23,23,23,23,23,23,23,23,23,23,23,23,23,23,23,23,23,23,23,23,23,23,23,23,23,23,23,23,23,23,23,23,23,22,22,22,22,22,22,22,22,22,22,22,22,22,24,27,28,28,29,29,31,31,31,31,31,31,31,31,31,31,31,31,31,31,31,31,31,31,31,31,31,31,31,31,31,31,31,31,31,31,31,31,31,31,31,31,31,31,31,31,31,31,31,31,31,31,31,31,31,31,31,31,31,31,31,31,31,31,31,32,35,36,36,36,37,37,37,37,37,37,37,37,37,37,37,37,37,37,37,37,37,37,37,37,37,37,37,37,37,37,37,37,37,37,37,37,37,37,37,37,37,37,38,40,45,81,100,122,134,143,148,151,151,151,151,151,151,151,151,151,151,151,151,151,151,151,151,151,151,151,151,151,151,151,151,151,151,151,151,151,151,151,151,151,151,151,151,151,151,151,151,151,151,151,151,151,151,151,151,151,151,151,151,151,151,151,151,151,151,151,151,151,151,151,151,151,151,151,151,151,151,151,151,151,151,151,151,151,151,151,151,151,151,151,151,151,151,151,151,151,151,151,151,151,151,151,151,151,151,151,151,152,139,122,107,84,40,22,12,12,13,16,17,17,17,17,17,17,17,17,17,17,17,17,17,17,17,17,17,17,17,17,17,17,17,17,17,17,17,17,17,17,17,17,17,17,0,0,0,15,74,139,140,135,128,119,113,109,102,88],"timestamp_mouse":[31,37,59,78,97,118,137,159,178,197,217,239,257,277,297,317,338,358,378,398,418,437,457,478,499,518,537,558,578,597,618,637,657,678,698,717,737,758,778,797,818,837,858,877,897,918,938,958,977,997,1017,1038,1058,1078,1098,1118,1138,1157,1178,1198,1217,1238,1258,1277,1297,1318,1338,1358,1377,1398,1418,1438,1459,1477,1498,1517,1538,1557,1579,1597,1618,1638,1658,1678,1697,1717,1738,1758,1778,1798,1817,1838,1858,1877,1897,1919,1938,1958,1977,1998,2017,2038,2058,2077,2097,2117,2137,2157,2178,2198,2218,2238,2258,2278,2297,2317,2338,2358,2377,2398,2417,2438,2459,2478,2498,2517,2539,2557,2578,2598,2617,2638,2658,2678,2698,2717,2738,2757,2778,2797,2817,2837,2858,2878,2898,2917,2938,2958,2977,2998,3017,3038,3057,3077,3098,3117,3137,3157,3178,3197,3218,3238,3257,3277,3297,3318,3337,3357,3379,3397,3418,3437,3457,3477,3498,3517,3538,3558,3577,3598,3617,3638,3658,3677,3698,3717,3737,3757,3777,3797,3817,3838,3858,3878,3898,3917,3937,3958,3977,3997,4017,4039,4057,4077,4097,4117,4137,4157,4177,4198,4217,4237,4258,4278,4298,4318,4337,4357,4378,4399,4417,4437,4458,4477,4497,4517,4537,4557,4578,4597,4618,4637,4658,4678,4698,4718,4738,4757,4778,4798,4817,4837,4857,4877,4897,4918,4937,4958,4978,4997,5018,5037,5059,5077,5097,5117,5137,5158,5177,5197,5217,5238,5258,5278,5298,5317,5338,5358,5377,5398,5418,5438,5458,5478,5498,5518,5538,5558,5577,5597,5618,5637,5658,5678,5697,5718,5737,5757,5778,5798,5817,5837,5857,5877,5898,5918,5938,5958,5978,5997,6018,6038,6058,6078,6098,6117,6137,6158,6177,6198,6217,6237,6258,6278,6297,6318,6337,6357,6378,6397,6417,6438,6457,6477,6497,6519,6537,6558,6578,6597,6618,6637,6657,6678,6698,6717,6737,6757,6778,6797,6817,6837,6857,6877,6897,6919,6937,6957,6977,6997,7017,7037,7058,7077,7098,7117,7138,7157,7178,7197,7217,7237,7258,7278,7298,7317,7337,7357,7378,7397,7418,7437,7457,7478,7498,7518,7537,7558,7577,7597,7618,7638,7657,7678,7697,7718,7737,7759,7777,7797,7818,7837,7858,7877,7897,7917,7937,7958,7978,7998,8018,8038,8058,8078,8098,8118,8138,8157,8178,8198,8217,8238,8257,8277,8298,8317,8337,8357,8378,8398,8417,8438,8457,8477,8498,8518,8538,8558,8577,8598,8618,8638,8657,8677,8699,8719,8738,8757,8778,8797,8818,8839,8857,8878,8897,8917,8937,8958,8977,8998,9017,9037,9059,9077,9097,9117,9137,9157,9178,9197,9218,9238,9258,9278,9299,9317,9338,9357,9378,9398,9417,9437,9458,9477,9498,9518,9537,9558,9578,9597,9617,9638,9657,9677,9697,9717,9737,9757,9778,9798,9817,9837,9857,9877,9897,9917,9937,9957,9977,9997,10017,10037,10057,10077,10097,10117,10137,10158,10177,10197,10217,10237,10258,10278,10297,10318,10338,10358,10378,10398,10418,10437,10457,10477,10497,10518,10538,10557,10577,10597,10617,10637,10658,10677,10698,10717,10737,10758,10777,10797,10818,10837,10858,10877,10898,10917,10938,10958,10978,10998,11017,11037,11058,11078,11098,11117,11137,11158,11177,11198,11218,11238,11257,11278,11298,11317,11338,11358,11378,11398,11419,11437,11458,11478,11498,11519,11537,11557,11577,11597,11618,11637,11657,11678,11699,11718,11737,11759,11777,11798,11817,11837,11857,11878,11898,11919,11938,11957,11978,11997,12019,12037,12058,12077,12097,12118,12137,12158,12177,12197,12217,12237,12257,12277,12297,12317,12337,12357,12377,12398,12418,12437,12458,12478,12497,12518,12537,12557,12578,12597,12617,12637,12657,12678,12697,12717,12738,12757,12778,12798,12817,12838,12858,12877,12898,12918,12938,12958,12978,12997,13018,13038,13057,13077,13098,13117,13137,13189,13197,13224,13242,13257,13278,13297,13318,13337,13358,13378,13401,13418,13437,13457,13478,13497,13518,13537,13558,13578,13598,13618,13638,13657,13679,13697,13717,13738,13758,13779,13798,13817,13838,13857,13877,13897,13917,13938,13958,13977,13997,14017,14037,14058,14077,14098,14117,14137,14158,14177,14197,14218,14237,14259,14277,14298,14318,14337,14358,14377,14398,14417,14438,14457,14477,14498,14517,14538,14557,14577,14597,14617,14637,14658,14677,14697,14718,14738,14757,14778,14798,14817,14838,14857,14877,14897,14918,14938,14958,14978,14997,15017,15038,15057,15078,15098,15117,15138,15158,15177,15198,15217,15238,15257,15277,15297,15317,15337,15358,15377,15397,15417,15438,15457,15477,15497,15518,15538,15558,15578,15598,15617,15637,15657,15678,15698,15717,15738,15757,15778,15798,15818,15838,15857,15877,15897,15918,15937,15958,15978,15998,16017,16037,16058,16077,16098,16118,16137,16158,16178,16198,16217,16237,16257,16277,16298,16317,16339,16357,16377,16397,16418,16438,16458,16477,16498,16517,16538,16557,16579,16598,16617,16638,16657,16678,16698,16718,16738,16758,16777,16797,16818,16838,16858,16878,16898,16918,16939,16958,16978,16998,17017,17038,17058,17077,17097,17117,17137,17158,17178,17198,17219,17238,17258,17277,17298,17317,17338,17357,17378,17398,17417,17437,17457,17478,17498,17517,17538,17558,17577,17598,17618,17637,17658,17678,17698,17717,17737,17758,17777,17797,17818,17838,17857,17877,17898,17917,17938,17958,17978,17998,18018,18038,18057,18077,18097,18117,18137,18157,18177,18197,18218,18238,18257,18278,18297,18317,18338,18358,18377,18397,18418,18438,18457,18478,18497,18518,18538,18557,18577,18598,18617,18637,18657,18678,18697,18717,18738,18757,18778,18798,18818,18838,18857,18877,18897,18918,18937,18958,18978,18997,19018,19038,19058,19079,19097,19117,19138,19157,19177,19197,19217,19239,19257,19277,19298,19317,19337,19357,19377,19397,19417,19438,19457,19477,19497,19518,19537,19557,19577,19598,19617,19637,19658,19677,19697,19718,19737,19757,19778,19797,19818,19838,19857,19878,19898,19917,19938,19957,19978,19998,20017,20037,20057,20077,20097,20118,20137,20157,20178,20197,20217,20238,20259,20278,20297,20317,20337,20357,20378,20397,20417,20437,20457,20478,20497,20518,20538,20557,20578,20597,20617,20638,20658,20677,20698,20717,20737,20757,20778,20797,20818,20837,20858,20878,20897,20918,20937,20957,20978,20998,21018,21037,21057,21078,21097,21118,21138,21157,21177,21198,21217,21237,21258,21278,21298,21317,21337,21358,21378,21398,21418,21437,21457,21497,21499,21517,21538,21557,21577,21598,21617,21638,21657,21677,21697,21718,21737,21757,21777,21798,21818,21838,21857,21877,21898,21917,21938,21957,21977,21997,22018,22038,22058,22078,22098,22118,22138,22159,22178,22198,22217,22238,22257,22277,22298,22317,22338,22358,22378,22398,22417,22438,22457,22478,22497,22517,22537,22558,22578,22597,22617,22637,22657,22677,22697,22718,22738,22758,22778,22798,22818,22837,22860,22877,22898,22917,22937,22957,22977,22998,23018,23037,23058,23077,23097,23118,23137,23158,23177,23197,23217,23237,23258,23277,23297,23318,23338,23358,23377,23398,23417,23438,23457,23478,23497,23518,23538,23558,23578,23597,23617,23637,23658,23677,23697,23717,23738,23758,23778,23798,23817,23838,23858,23877,23898,23918,23937,23958,23978,23997,24017,24037,24057,24077,24097,24117,24138,24157,24178,24197,24217,24238,24258,24278,24298,24318,24338,24358,24377,24397,24417,24438,24457,24478,24498,24517,24538,24557,24577,24597,24618,24638,24657,24677,24697,24717,24737,24757,24777,24798,24817,24837,24858,24878,24897,24918,24937,24957,24978,24999,25018,25037,25058,25077,25098,25118,25138,25158,25178,25197,25218,25238,25258,25277,25298,25317,25337,25358,25378,25397,25419,25437,25457,25477,25497,25518,25537,25557,25577,25597,25618,25638,25659,25677,25698,25718,25737,25758,25778,25798,25818,25838,25858,25878,25897,25918,25937,25958,25978,25998,26018,26038,26058,26078,26097,26118,26137,26158,26177,26198,26218,26238,26258,26278,26297,26317,26338,26358,26378,26397,26417,26437,26457,26478,26497,26517,26538,26558,26577,26598,26617,26637,26658,26677,26697,26718,26738,26758,26778,26797,26817,26838,26857,26878,26897,26918,26937,26958,26978,26999,27018,27038,27058,27077,27098,27118,27137,27157,27178,27198,27218,27238,27258,27277,27298,27318,27337,27357,27377,27397,27418,27438,27458,27478,27497,27517,27537,27558,27577,27597,27617,27637,27658,27677,27697,27717,27738,27757,27778,27797,27817,27838,27858,27878,27897,27918,27938,27958,27977,27997,28018,28037,28058,28077,28097,28117,28137,28157,28177,28198,28217,28238,28258,28278,28297,28317,28338,28358,28377,28397,28418,28437,28457,28477,28498,28518,28537,28558,28577,28598,28618,28637,28657,28677,28697,28718,28738,28757,28778,28798,28818,28837,28857,28877,28898,28918,28938,28958,28977,28997,29017,29037,29057,29077,29098,29117,29138,29158,29178,29197,29218,29238,29257,29277,29297,29317,29337,29357,29377,29397,29417,29437,29458,29477,29498,29517,29537,29558,29577,29597,29617,29638,29657,29678,29697,29718,29737,29758,29778,29797,29817,29839,29857,29877,29898,29918,29937,29957,29977,29998,30017,30037,30058,30077,30098,30117,30138,30157,30178,30197,30217,30238,30258,30277,30297,30317,30338,30358,30378,30398,30418,30437,30457,30478,30498,30518,30537,30558,30577,30597,30617,30637,30657,30677,30698,30718,30738,30758,30778,30797,30818,30838,30857,30878,30898,30917,30937,30957,30978,30997,31017,31037,31058,31077,31097,31118,31137,31157,31177,31197,31217,31237,31258,31278,31298,31317,31337,31358,31378,31397,31417,31438,31458,31477,31498,31518,31537,31557,31577,31597,31618,31637,31657,31678,31698,31718,31737,31758,31777,31798,31817,31837,31858,31878,31897,31917,31937,31958,31978,31997,32017,32037,32058,32077,32097,32117,32137,32157,32177,32198,32217,32237,32258,32277,32297,32318,32337,32357,32378,32398,32417,32437,32458,32478,32498,32518,32537,32557,32578,32597,32617,32637,32657,32678,32698,32717,32738,32757,32777,32797,32817,32837,32857,32878,32898,32918,32937,32958,32978,32998,33018,33037,33058,33078,33098,33118,33137,33157,33178,33197,33217,33239,33257,33277,33297,33317,33338,33359,33379,33398,33418,33438,33458,33479,33498,33518,33539,33558,33578,33597,33617,33637,33658,33678,33698,33718,33738,33758,33779,33799,33819,33838,33857,33878,33897,33917,33938,33959,33978,33997,34019,34038,34058,34078,34098,34117,34137,34159,34178,34198,34219,34239,34259,34278,34298,34318,34337,34357,34378,34397,34418,34438,34458,34479,34499,34518,34537,34558,34578,34598,34618,34638,34657,34678,34698,34717,34739,34757,34778,34797,34819,34839,34857,34878,34898,34917,34938,34958,34978,34997,35019,35038,35058,35078,35097,35117,35137,35157,35177,35197,35218,35237,35257,35278,35297,35319,35338,35357,35377,35397,35418,35439,35457,35478,35498,35518,35539,35559,35578,35598,35619,35639,35658,35678,35697,35718,35738,35758,35778,35797,35818,35838,35858,35878,35898,35917,35938,35958,35977,35997,36017,36037,36058,36078,36099,36118,36138,36158,36177,36197,36218,36238,36257,36278,36297,36317,36338,36357,36378,36397,36418,36438,36458,36478,36497,36517,36538,36557,36577,36598,36618,36639,36657,36677,36697,36717,36738,36758,36777,36798,36819,36839,36859,36879,36897,36918,36939,36959,36978,36997,37017,37037,37057,37077,37097,37118,37138,37159,37178,37198,37218,37238,37258,37277,37297,37317,37338,37359,37378,37397,37417,37438,37459,37478,37498,37517,37537,37558,37579,37599,37618,37638,37657,37678,37697,37718,37738,37759,37779,37797,37818,37837,37857,37879,37898,37917,37937,37958,37979,37997,38018,38039,38057,38078,38097,38118,38139,38158,38177,38197,38219,38238,38257,38277,38297,38318,38338,38357,38378,38397,38418,38437,38459,38479,38498,38518,38539,38558,38578,38597,38619,38637,38658,38677,38697,38718,38739,38759,38779,38797,38818,38838,38859,38878,38897,38917,38938,38958,38979,38997,39018,39038,39059,39079,39098,39119,39138,39158,39178,39198,39217,39238,39257,39278,39297,39319,39337,39359,39378,39397,39418,39437,39457,39478,39498,39517,39538,39558,39577,39598,39618,39639,39657,39679,39697,39719,39737,39758,39779,39798,39818,39839,39859,39878,39897,39919,39937,39957,39978,39998,40017,40038,40058,40078,40097,40118,40138,40158,40178,40198,40217,40238,40259,40278,40298,40319,40339,40358,40377,40397,40419,40437,40459,40478,40497,40518,40537,40557,40577,40598,40617,40638,40659,40678,40697,40717,40738,40757,40778,40797,40818,40839,40858,40879,40898,40917,40938,40958,40977,40998,41018,41038,41057,41078,41097,41118,41139,41157,41178,41199,41218,41237,41257,41277,41298,41318,41338,41358,41378,41398,41418,41438,41458,41477,41497,41517,41538,41557,41578,41598,41618,41638,41658,41678,41698,41718,41738,41758,41778,41797,41818,41837,41858,41878,41899,41917,41937,41959,41979,41998,42019,42038,42057,42077,42097,42119,42138,42159,42178,42198,42218,42238,42258,42278,42297,42319,42338,42359,42378,42398,42418,42437,42457,42478,42497,42518,42537,42557,42577,42598,42618,42638,42659,42679,42698,42717,42738,42757,42777,42798,42818,42838,42857,42878,42899,42918,42939,42958,42978,42998,43018,43038,43057,43078,43097,43117,43137,43157,43177,43197,43219,43239,43259,43279,43299,43318,43338,43359,43379,43398,43417,43438,43457,43477,43497,43519,43538,43559,43577,43598,43617,43638,43657,43678,43698,43717,43738,43758,43778,43798,43818,43837,43857,43878,43898,43918,43938,43957,43978,43998,44017,44037,44058,44077,44098,44118,44138,44157,44178,44197,44217,44238,44258,44277],"xSR":750,"ySR":11.700000000000001,"xT1":430,"yT1":0,"xT2":1070,"yT2":0,"toosoon":0,"cond_shown":"equaldotanddens","ratio_trial":750,"smaller_num":"18","larger_num":"24","correct_side":1,"subjID":"sebastianalbarracin14","gender":"0","age":"9","school":"4"},{"start_time":1552074361343,"click_time":1552074362640,"finger_time":1552074362259,"fix_duration":763.7416584245711,"trial":4,"RT":916,"MT":381,"sideResp":2,"stimulus":"img/750/randomdotsizeEA/R/5_Ratio_750_L_15_R_20.png","xmouse":[808,808,808,808,808,808,808,808,808,808,808,807,807,807,806,806,806,804,802,799,799,799,799,799,799,799,799,799,799,799,799,799,799,799,799,806,809,809,809,812,816,816,818,819,841,860,895,931,939,967,990,1007,1019,1026,1037,1042,1045,1046,1048,1055,1059,1061,1062,1063,1077],"ymouse":[550,550,550,550,550,550,550,550,551,552,552,552,552,552,552,552,552,552,551,548,547,547,547,547,547,547,547,547,547,547,547,547,547,547,546,545,545,545,545,544,544,544,544,544,527,501,452,382,360,311,280,258,244,234,217,207,194,178,164,142,130,121,111,104,73],"timestamp_mouse":[20,37,57,76,95,117,135,155,176,195,217,235,255,277,296,316,336,355,376,395,417,437,456,475,495,515,535,556,577,595,617,636,656,677,695,715,735,756,776,796,815,836,856,877,896,916,937,955,975,997,1015,1036,1056,1076,1096,1116,1135,1156,1175,1196,1215,1235,1255,1275,1297],"xSR":741.5,"ySR":501.8,"xT1":424.9,"yT1":0,"xT2":1058.1,"yT2":0,"toosoon":0,"cond_shown":"randomdotsizeEA","ratio_trial":750,"smaller_num":"15","larger_num":"20","correct_side":2,"subjID":"sebastianalbarracin14","gender":"0","age":"9","school":"4"},{"start_time":1552074364284,"click_time":1552074365219,"finger_time":1552074364900,"fix_duration":1023.2285126648746,"trial":5,"RT":616,"MT":319,"sideResp":1,"stimulus":"img/500/equaldotanddens/L/13_Ratio_500_L_12_R_6.png","xmouse":[798,798,798,798,798,798,798,798,798,798,798,798,798,798,798,798,798,798,798,798,798,798,798,798,798,798,798,798,791,778,727,675,586,558,540,528,523,523,522,521,519,516,511,506,502,498,496],"ymouse":[540,540,540,540,540,540,540,540,540,540,540,540,540,540,540,540,540,540,540,540,540,540,540,540,540,540,540,540,533,514,416,338,212,177,157,144,140,140,140,139,139,134,126,115,108,101,96],"timestamp_mouse":[16,36,55,76,95,115,134,154,174,194,215,236,255,275,295,316,336,355,374,395,416,434,455,476,494,514,534,554,574,595,616,636,655,674,695,715,734,756,775,796,815,835,854,874,895,916,935],"xSR":741.5,"ySR":501.8,"xT1":424.9,"yT1":0,"xT2":1058.1,"yT2":0,"toosoon":0,"cond_shown":"equaldotanddens","ratio_trial":500,"smaller_num":"6","larger_num":"12","correct_side":1,"subjID":"sebastianalbarracin14","gender":"0","age":"9","school":"4"},{"start_time":1552074367055,"click_time":1552074390700,"finger_time":1552074377878,"fix_duration":894.582278327403,"trial":6,"RT":10823,"MT":12822,"sideResp":2,"stimulus":"img/900/equaldotanddens/R/11_Ratio_900_L_18_R_20.png","xmouse":[786,786,786,786,786,786,786,786,786,786,786,786,786,786,786,786,786,786,786,786,786,786,786,786,786,786,786,786,786,786,786,786,786,786,786,786,786,786,786,786,786,786,786,786,786,786,786,786,786,786,786,786,786,786,786,786,786,786,786,786,786,786,786,786,786,786,786,786,786,786,786,786,786,786,786,786,786,786,786,786,786,786,786,786,786,786,786,786,786,786,786,786,786,786,786,786,786,786,786,786,786,786,786,786,786,786,786,786,786,786,786,786,786,786,786,786,786,786,786,786,786,786,786,786,786,786,786,786,786,786,786,786,786,786,786,786,786,786,786,786,786,786,786,786,786,786,786,786,786,786,786,786,786,786,786,786,786,786,786,786,786,786,786,786,786,786,786,786,786,786,786,786,786,786,786,786,786,786,786,786,786,786,786,786,786,786,786,786,786,786,786,786,786,786,786,786,786,786,786,786,786,786,786,786,786,786,786,786,786,786,786,786,786,786,786,786,786,786,786,786,786,786,786,786,786,786,786,786,786,786,786,786,786,786,786,786,786,786,786,786,786,786,786,786,786,786,786,786,786,786,786,786,786,786,786,786,786,786,786,786,786,786,786,786,786,786,786,786,786,786,786,786,786,786,786,786,786,786,786,786,786,786,786,786,786,786,786,786,786,786,786,786,786,786,786,786,786,786,786,786,786,786,786,786,786,786,786,786,786,786,786,786,786,786,786,786,786,786,786,786,786,786,786,786,786,786,786,786,786,786,786,786,786,786,786,786,786,786,786,786,786,786,786,786,786,786,786,786,786,786,786,786,786,786,786,786,786,786,786,786,786,786,786,786,786,786,786,786,786,786,786,786,786,786,786,786,786,786,786,786,786,786,786,786,786,786,786,786,786,786,786,786,786,786,786,786,786,786,786,786,786,786,786,786,786,786,783,783,783,783,783,783,783,783,783,783,783,785,797,813,826,833,833,833,833,833,833,833,833,833,833,833,833,833,833,833,833,833,833,833,833,833,833,833,833,833,833,833,833,833,833,833,833,833,833,833,833,833,833,833,833,833,833,833,833,833,833,833,833,833,833,833,833,833,833,833,833,833,834,835,836,837,837,837,837,837,837,837,837,837,837,838,838,839,839,839,839,839,839,839,839,839,839,839,839,839,839,839,839,839,839,839,839,839,839,839,839,839,839,839,839,839,839,839,839,839,839,839,839,839,839,839,839,839,839,839,839,840,840,841,841,842,842,842,842,842,842,842,842,842,842,842,839,835,831,825,808,802,798,796,794,794,794,794,794,794,794,794,794,794,794,794,794,794,794,794,794,794,794,794,794,794,794,794,794,794,794,794,794,794,794,795,795,796,796,797,797,797,797,797,797,797,797,797,797,797,797,797,797,797,797,797,797,797,797,797,797,797,797,797,797,797,797,797,797,797,797,797,797,797,797,797,797,797,797,797,797,797,797,797,797,797,797,797,797,797,797,797,797,797,797,797,797,797,797,797,797,797,797,797,797,797,797,797,797,797,797,797,797,797,797,797,797,797,797,797,797,797,797,797,797,797,797,797,797,797,797,797,797,797,797,797,797,797,797,797,797,797,797,797,797,797,797,797,797,797,797,797,797,797,797,797,797,797,797,797,797,797,797,797,797,797,797,797,797,797,797,797,797,797,797,797,797,797,797,797,797,797,797,797,797,797,797,797,797,797,797,797,797,797,797,797,797,797,797,797,797,797,797,797,797,797,797,797,797,797,797,797,797,797,797,797,797,797,797,797,797,797,797,797,797,797,797,797,797,797,797,797,797,797,797,797,797,797,797,797,797,797,797,797,797,797,797,797,797,797,797,797,797,797,797,797,797,797,797,797,797,797,797,797,797,797,797,797,797,797,797,797,797,797,797,797,797,797,797,797,797,797,797,797,797,797,797,797,797,797,797,797,797,797,797,797,797,797,797,797,797,797,797,797,797,797,797,797,797,797,797,797,797,797,797,797,797,797,797,797,797,797,797,797,797,797,797,797,797,797,797,797,797,797,797,797,797,797,797,797,797,797,797,797,797,797,797,797,797,797,797,797,797,797,797,797,797,797,797,797,797,797,797,797,797,797,797,797,797,797,797,797,797,797,797,797,797,797,797,797,797,797,797,797,797,797,797,797,797,797,797,797,797,797,797,797,797,797,797,797,797,797,797,797,797,797,797,797,797,797,797,797,797,797,797,797,797,797,797,797,797,797,797,797,797,797,797,797,797,797,797,797,797,797,797,797,797,797,797,797,797,797,797,797,797,797,797,797,797,797,797,797,797,797,797,797,797,797,797,797,797,797,797,797,797,797,797,797,797,797,797,797,797,797,797,797,797,797,797,797,797,797,797,797,797,797,797,797,797,797,797,797,797,797,797,797,797,797,797,797,797,797,797,797,797,797,797,797,797,797,797,797,797,797,797,797,797,797,797,797,797,797,797,797,797,797,796,796,796,796,796,796,796,796,796,796,796,796,796,822,830,830,828,828,828,828,822,821,821,821,821,824,824,824,824,824,815,809,804,801,799,798,798,798,796,796,793,793,792,792,792,792,792,792,792,792,792,792,792,792,792,792,792,792,792,792,792,792,792,792,792,792,792,792,792,792,792,792,792,792,792,792,792,792,792,792,792,792,792,792,792,792,792,792,792,792,801,812,833,878,932,998,1007,1014,1019,1025,1063],"ymouse":[538,538,538,538,538,538,538,538,538,538,538,538,538,538,538,538,538,538,538,538,538,538,538,538,538,538,538,538,538,538,538,538,538,538,538,538,538,538,538,538,538,538,538,538,538,538,538,538,538,538,538,538,538,538,538,538,538,538,538,538,538,538,538,538,538,538,538,538,538,538,538,538,538,538,538,538,538,538,538,538,538,538,538,538,538,538,538,538,538,538,538,538,538,538,538,538,538,538,538,538,538,538,538,538,538,538,538,538,538,538,538,538,538,538,538,538,538,538,538,538,538,538,538,538,538,538,538,538,538,538,538,538,538,538,538,538,538,538,538,538,538,538,538,538,538,538,538,538,538,538,538,538,538,538,538,538,538,538,538,538,538,538,538,538,538,538,538,538,538,538,538,538,538,538,538,538,538,538,538,538,538,538,538,538,538,538,538,538,538,538,538,538,538,538,538,538,538,538,538,538,538,538,538,538,538,538,538,538,538,538,538,538,538,538,538,538,538,538,538,538,538,538,538,538,538,538,538,538,538,538,538,538,538,538,538,538,538,538,538,538,538,538,538,538,538,538,538,538,538,538,538,538,538,538,538,538,538,538,538,538,538,538,538,538,538,538,538,538,538,538,538,538,538,538,538,538,538,538,538,538,538,538,538,538,538,538,538,538,538,538,538,538,538,538,538,538,538,538,538,538,538,538,538,538,538,538,538,538,538,538,538,538,538,538,538,538,538,538,538,538,538,538,538,538,538,538,538,538,538,538,538,538,538,538,538,538,538,538,538,538,538,538,538,538,538,538,538,538,538,538,538,538,538,538,538,538,538,538,538,538,538,538,538,538,538,538,538,538,538,538,538,538,538,538,538,538,538,538,538,538,538,538,538,538,538,538,538,538,538,538,538,538,538,538,538,538,538,538,538,538,538,538,538,538,538,538,548,549,549,549,549,549,549,549,549,549,549,549,552,559,565,567,567,567,567,567,567,567,567,567,567,567,567,567,567,567,567,567,567,567,567,567,567,567,567,567,567,567,567,567,567,567,567,567,567,567,567,567,567,567,567,567,567,567,567,567,567,567,567,567,567,567,567,567,567,567,567,567,567,567,567,567,567,567,567,567,567,567,567,567,567,566,566,566,566,566,566,566,566,566,566,566,566,566,566,566,566,566,566,566,566,566,566,566,566,566,566,566,566,566,566,566,566,566,566,566,566,566,566,566,566,566,566,566,566,567,568,572,575,579,582,584,585,585,585,586,586,586,586,587,588,597,604,612,622,635,674,684,692,697,701,701,701,701,701,701,701,701,701,701,701,701,701,701,701,701,699,699,699,699,699,699,699,699,699,699,699,699,699,699,699,698,697,695,694,693,693,693,693,693,693,693,693,693,693,693,693,693,693,693,693,693,693,693,693,693,693,693,693,693,693,693,693,693,693,693,693,693,693,693,693,693,693,693,693,693,693,693,693,693,693,693,693,693,693,693,693,693,693,693,693,693,693,693,693,693,693,693,693,693,693,693,693,693,693,693,693,693,693,693,694,695,695,695,695,695,695,695,695,695,695,695,695,695,695,695,695,695,695,695,695,695,695,695,695,695,695,695,695,695,695,695,695,695,695,695,695,695,695,695,695,695,695,695,695,695,695,695,695,695,695,695,695,695,695,695,695,695,695,695,695,695,695,695,695,695,695,695,695,695,695,695,695,695,695,695,695,695,695,695,695,695,695,695,695,695,695,695,695,695,695,695,695,695,695,695,695,695,695,695,695,695,695,695,695,695,695,695,695,695,695,695,695,695,695,695,695,695,695,695,695,695,695,695,695,695,695,695,695,695,695,695,695,695,695,695,695,695,695,695,695,695,695,695,695,695,695,695,695,695,695,695,695,695,695,695,695,695,695,695,695,695,695,695,695,695,695,695,695,695,695,695,695,695,695,695,695,695,695,695,695,695,695,695,695,695,695,695,695,695,695,695,695,695,695,695,695,695,695,695,695,695,695,695,695,695,695,695,695,695,695,695,695,695,695,695,695,695,695,695,695,695,695,695,695,695,695,695,695,695,695,695,695,695,695,695,695,695,695,695,695,695,695,695,695,695,695,695,695,695,695,695,695,695,695,695,695,695,695,695,695,695,695,695,695,695,695,695,695,695,695,695,695,695,695,695,695,695,695,695,695,695,695,695,695,695,695,695,695,695,695,695,695,695,695,695,695,695,695,695,695,695,695,695,695,695,695,695,695,695,695,695,695,695,695,695,695,695,695,695,695,695,695,695,695,695,695,695,695,695,695,695,695,695,695,695,695,695,695,695,695,695,695,695,695,695,695,695,695,695,695,695,695,695,695,695,695,695,695,695,695,695,695,695,695,695,695,695,695,695,695,695,695,695,695,695,695,695,695,695,695,695,695,695,695,695,695,695,695,695,695,695,695,695,695,695,695,695,695,695,695,695,695,695,695,695,695,695,695,695,695,696,696,696,696,696,696,696,696,696,696,696,696,696,691,680,679,701,711,711,695,658,619,613,611,606,601,591,590,590,589,586,568,548,529,511,499,484,484,484,484,487,497,504,510,515,519,529,530,530,530,530,530,530,530,530,530,530,530,530,530,530,530,530,530,530,530,530,530,530,530,530,530,530,530,530,530,530,530,530,530,530,530,530,530,530,530,530,530,530,530,530,516,495,449,362,266,145,131,118,112,106,81],"timestamp_mouse":[14,38,45,65,84,104,123,145,164,184,204,224,245,264,284,303,323,344,364,385,405,425,444,464,485,504,525,544,563,583,604,623,643,664,685,704,723,744,764,785,804,824,845,864,884,904,925,944,964,984,1005,1024,1043,1064,1084,1103,1123,1143,1163,1183,1204,1224,1243,1265,1284,1303,1324,1343,1364,1383,1404,1425,1443,1463,1484,1504,1524,1544,1563,1583,1603,1624,1645,1665,1684,1703,1725,1744,1764,1784,1803,1824,1844,1863,1883,1905,1923,1944,1965,1984,2003,2023,2045,2064,2084,2103,2124,2144,2165,2183,2203,2225,2245,2265,2284,2303,2324,2345,2364,2384,2403,2424,2444,2463,2485,2505,2524,2544,2565,2584,2604,2624,2645,2665,2684,2703,2725,2744,2763,2785,2805,2824,2845,2864,2884,2904,2925,2944,2964,2985,3005,3023,3044,3063,3084,3104,3125,3145,3164,3183,3203,3225,3245,3264,3283,3303,3324,3343,3363,3385,3404,3425,3444,3464,3484,3504,3525,3545,3564,3583,3604,3624,3644,3665,3685,3703,3725,3744,3764,3784,3804,3823,3843,3863,3883,3903,3925,3943,3963,3984,4004,4024,4044,4065,4084,4103,4125,4143,4164,4185,4204,4224,4245,4264,4284,4303,4325,4344,4364,4385,4404,4424,4443,4463,4485,4504,4524,4543,4563,4583,4604,4624,4645,4665,4684,4703,4724,4745,4765,4783,4803,4824,4845,4865,4885,4904,4924,4943,4965,4985,5004,5023,5043,5065,5085,5104,5124,5144,5163,5184,5204,5223,5243,5264,5284,5304,5323,5345,5364,5385,5404,5423,5443,5465,5485,5504,5525,5545,5565,5585,5604,5623,5645,5665,5684,5704,5723,5745,5763,5784,5803,5823,5843,5865,5883,5904,5924,5943,5964,5984,6004,6025,6044,6064,6084,6104,6124,6145,6165,6184,6203,6223,6244,6264,6285,6303,6323,6343,6364,6385,6403,6424,6443,6464,6485,6504,6523,6545,6563,6583,6605,6624,6645,6665,6684,6705,6725,6744,6764,6783,6804,6825,6844,6864,6885,6903,6924,6943,6964,6985,7003,7023,7044,7064,7083,7105,7124,7143,7163,7183,7205,7225,7243,7264,7284,7303,7323,7343,7365,7384,7403,7424,7445,7464,7483,7503,7524,7543,7564,7584,7603,7623,7644,7665,7685,7705,7724,7745,7763,7783,7803,7825,7843,7863,7884,7905,7924,7944,7964,7984,8003,8023,8043,8063,8084,8105,8125,8143,8165,8184,8205,8224,8244,8264,8283,8305,8324,8343,8364,8385,8404,8425,8444,8464,8485,8503,8524,8545,8563,8583,8603,8624,8645,8663,8684,8703,8724,8745,8763,8784,8805,8825,8844,8865,8884,8904,8924,8944,8965,8985,9005,9024,9043,9063,9083,9103,9124,9145,9165,9185,9204,9224,9243,9264,9284,9305,9325,9345,9364,9385,9404,9424,9443,9464,9485,9504,9524,9543,9565,9584,9604,9625,9644,9663,9685,9704,9725,9743,9765,9785,9803,9823,9845,9864,9884,9904,9925,9944,9965,9983,10004,10025,10043,10064,10085,10104,10123,10143,10165,10184,10204,10225,10244,10265,10284,10305,10325,10344,10364,10383,10403,10425,10445,10463,10484,10505,10525,10543,10564,10585,10604,10623,10643,10665,10684,10703,10724,10744,10764,10785,10803,10823,10845,10864,10884,10903,10923,10944,10963,10984,11004,11024,11044,11063,11084,11103,11124,11143,11165,11184,11204,11225,11243,11263,11284,11304,11323,11344,11364,11385,11405,11423,11443,11465,11484,11504,11524,11543,11564,11584,11604,11624,11644,11665,11684,11703,11724,11743,11763,11784,11804,11823,11843,11864,11884,11905,11925,11945,11965,11984,12004,12024,12043,12063,12084,12104,12124,12145,12165,12185,12205,12224,12244,12264,12283,12305,12324,12344,12364,12384,12404,12424,12444,12464,12485,12505,12523,12544,12563,12584,12604,12624,12644,12664,12684,12705,12725,12744,12764,12785,12803,12824,12844,12864,12885,12904,12924,12944,12964,12984,13003,13024,13044,13064,13084,13105,13124,13144,13163,13183,13203,13224,13243,13263,13283,13303,13324,13344,13365,13385,13403,13425,13443,13464,13485,13505,13524,13544,13564,13583,13604,13625,13645,13664,13685,13703,13724,13743,13763,13783,13803,13824,13844,13864,13885,13904,13924,13944,13965,13984,14003,14024,14043,14064,14084,14105,14124,14144,14164,14185,14204,14224,14244,14263,14283,14304,14324,14345,14365,14385,14405,14424,14444,14463,14484,14504,14523,14543,14564,14585,14605,14623,14644,14664,14684,14705,14724,14745,14765,14785,14805,14825,14845,14864,14885,14903,14923,14943,14963,14983,15003,15025,15043,15064,15083,15105,15124,15144,15163,15184,15203,15225,15243,15264,15285,15305,15325,15344,15364,15384,15404,15423,15444,15464,15484,15505,15525,15544,15564,15584,15604,15624,15645,15665,15685,15705,15724,15744,15763,15784,15804,15825,15844,15865,15885,15905,15924,15943,15963,15984,16005,16024,16043,16064,16084,16104,16125,16144,16165,16183,16203,16224,16243,16263,16284,16305,16324,16344,16364,16383,16404,16424,16445,16464,16485,16504,16525,16543,16563,16583,16603,16625,16645,16665,16685,16705,16725,16745,16764,16783,16804,16824,16844,16864,16884,16904,16925,16945,16964,16984,17004,17024,17044,17064,17083,17105,17123,17143,17163,17185,17204,17225,17244,17264,17284,17304,17324,17344,17364,17383,17404,17424,17444,17463,17484,17504,17525,17544,17564,17584,17604,17623,17644,17663,17683,17704,17723,17743,17763,17784,17804,17825,17843,17863,17885,17904,17924,17943,17965,17984,18005,18024,18043,18064,18084,18105,18125,18143,18165,18185,18204,18224,18243,18264,18284,18305,18325,18343,18364,18383,18403,18423,18443,18465,18484,18505,18525,18543,18564,18584,18603,18625,18645,18665,18685,18705,18724,18744,18765,18784,18804,18823,18843,18863,18895,18903,18923,18944,18963,18984,19003,19024,19045,19065,19084,19104,19124,19143,19163,19184,19204,19224,19245,19264,19284,19304,19324,19343,19364,19383,19404,19423,19444,19464,19484,19504,19525,19543,19564,19585,19604,19624,19643,19663,19684,19704,19724,19743,19764,19784,19804,19824,19844,19864,19884,19904,19923,19944,19964,19984,20005,20024,20044,20065,20084,20103,20124,20144,20164,20185,20203,20224,20243,20265,20284,20305,20323,20343,20364,20384,20403,20424,20443,20464,20484,20505,20525,20545,20563,20583,20603,20625,20644,20664,20685,20705,20723,20743,20764,20783,20804,20825,20844,20864,20884,20904,20924,20944,20964,20984,21004,21025,21044,21065,21084,21105,21125,21144,21163,21184,21203,21224,21244,21264,21283,21305,21324,21344,21364,21384,21403,21423,21444,21463,21484,21504,21525,21544,21564,21585,21604,21623,21643,21663,21685,21705,21725,21743,21765,21784,21803,21823,21843,21863,21883,21903,21925,21945,21963,21983,22004,22023,22044,22063,22084,22103,22123,22143,22164,22184,22205,22224,22243,22263,22283,22304,22323,22344,22363,22384,22405,22425,22444,22463,22485,22504,22523,22543,22563,22583,22605,22625,22644,22665,22684,22705,22723,22743,22763,22784,22804,22825,22843,22864,22883,22904,22924,22944,22963,22983,23004,23024,23044,23065,23084,23103,23124,23143,23164,23184,23203,23224,23244,23264,23284,23304,23324,23343,23364,23385,23405,23423,23444,23464,23483,23503,23523,23545,23563,23583,23603,23625,23645],"xSR":741.5,"ySR":501.8,"xT1":424.9,"yT1":0,"xT2":1058.1,"yT2":0,"toosoon":0,"cond_shown":"equaldotanddens","ratio_trial":900,"smaller_num":"18","larger_num":"20","correct_side":2,"subjID":"sebastianalbarracin14","gender":"0","age":"9","school":"4"},{"start_time":1552074391772,"click_time":1552074393138,"finger_time":1552074392778,"fix_duration":250,"trial":7,"RT":1006,"MT":360,"sideResp":1,"stimulus":"img/500/randomdotsizeEA/L/11_Ratio_500_L_12_R_6.png","xmouse":[786,786,786,786,786,786,786,786,786,786,786,786,786,786,786,786,786,786,786,786,786,786,786,786,786,786,786,786,786,786,786,786,786,786,786,786,786,786,786,786,786,786,786,786,786,786,783,778,770,757,731,709,656,640,626,612,599,580,569,560,548,530,513,506,500,495,476,467,458],"ymouse":[552,552,552,552,552,552,552,552,552,552,552,552,552,552,552,552,552,552,552,552,552,552,552,552,552,552,552,552,552,552,552,552,552,552,552,552,552,552,552,552,552,552,552,552,552,552,551,545,532,513,481,457,412,392,373,354,335,313,301,285,266,242,211,195,177,164,131,114,97],"timestamp_mouse":[14,27,47,68,87,106,126,148,168,188,207,227,248,266,287,306,327,346,368,387,406,428,448,468,487,507,528,547,567,586,606,628,647,667,687,706,728,746,767,787,808,826,847,868,887,907,926,947,967,986,1006,1026,1046,1067,1086,1107,1127,1147,1168,1188,1207,1227,1247,1267,1287,1308,1328,1347,1366],"xSR":741.5,"ySR":501.8,"xT1":424.9,"yT1":0,"xT2":1058.1,"yT2":0,"toosoon":0,"cond_shown":"randomdotsizeEA","ratio_trial":500,"smaller_num":"6","larger_num":"12","correct_side":1,"subjID":"sebastianalbarracin14","gender":"0","age":"9","school":"4"},{"start_time":1552074394296,"click_time":1552074395418,"finger_time":1552074395039,"fix_duration":376.4505383806676,"trial":8,"RT":743,"MT":379,"sideResp":2,"stimulus":"img/750/equaldotsize/R/3_Ratio_750_L_15_R_20.png","xmouse":[800,800,800,800,800,800,800,800,800,800,800,800,800,800,800,800,800,800,800,800,800,800,800,800,800,800,800,800,800,800,800,800,800,799,799,800,816,843,886,924,951,989,1009,1022,1039,1047,1067,1076,1082,1089,1093,1094,1094,1092,1090,1087,1083],"ymouse":[570,570,570,570,570,570,570,570,570,570,570,570,570,570,570,570,570,570,570,570,570,570,570,570,570,570,570,570,570,570,570,570,570,570,569,567,551,527,480,430,396,340,296,259,212,194,168,158,151,140,130,117,114,109,106,100,86],"timestamp_mouse":[14,39,43,62,84,102,124,142,163,182,203,222,242,264,282,302,324,343,362,383,403,424,443,463,483,503,524,543,563,583,602,624,643,662,683,704,722,743,763,783,803,822,843,864,883,903,923,943,963,982,1003,1022,1043,1064,1082,1103,1122],"xSR":741.5,"ySR":501.8,"xT1":424.9,"yT1":0,"xT2":1058.1,"yT2":0,"toosoon":0,"cond_shown":"equaldotsize","ratio_trial":750,"smaller_num":"15","larger_num":"20","correct_side":2,"subjID":"sebastianalbarracin14","gender":"0","age":"9","school":"4"},{"start_time":1552074397552,"click_time":1552074398559,"finger_time":1552074398198,"fix_duration":1331.0010760208177,"trial":9,"RT":646,"MT":361,"sideResp":2,"stimulus":"img/750/equaldotanddens/R/7_Ratio_750_L_3_R_4.png","xmouse":[783,783,783,783,783,783,783,783,783,783,783,783,783,783,783,783,783,783,783,783,783,783,783,783,783,783,783,783,783,788,799,818,846,939,973,987,992,993,994,1000,1007,1013,1017,1026,1031,1034,1036,1039,1058,1079,1088],"ymouse":[553,553,553,553,553,553,553,553,553,553,553,553,553,553,553,553,553,553,553,553,553,553,553,553,553,553,553,553,553,553,546,528,498,383,345,328,320,318,317,293,262,242,228,203,192,182,175,170,135,100,84],"timestamp_mouse":[15,37,47,67,87,107,126,146,166,188,206,228,247,266,288,307,327,347,366,388,407,427,447,467,487,507,527,548,567,587,607,627,646,667,686,706,727,746,766,787,807,827,847,867,887,907,927,947,966,986,1007],"xSR":741.5,"ySR":501.8,"xT1":424.9,"yT1":0,"xT2":1058.1,"yT2":0,"toosoon":0,"cond_shown":"equaldotanddens","ratio_trial":750,"smaller_num":"3","larger_num":"4","correct_side":2,"subjID":"sebastianalbarracin14","gender":"0","age":"9","school":"4"},{"start_time":1552074400364,"click_time":1552074401298,"finger_time":1552074401020,"fix_duration":963.1887726418563,"trial":10,"RT":656,"MT":278,"sideResp":1,"stimulus":"img/900/equaldotsize/R/3_Ratio_900_L_9_R_10.png","xmouse":[786,786,786,786,787,787,787,787,787,787,787,787,787,787,787,787,787,787,787,787,787,787,787,787,787,787,787,787,787,787,787,787,775,762,744,727,704,685,656,648,638,624,608,568,548,533,522],"ymouse":[551,551,551,551,551,551,551,551,551,551,551,551,551,551,551,551,551,551,551,551,551,551,551,551,551,551,551,551,551,551,545,538,500,468,434,394,347,299,235,221,206,186,164,114,93,77,65],"timestamp_mouse":[17,40,55,76,94,114,136,156,176,195,214,234,255,276,296,315,335,356,374,395,415,434,455,474,496,514,536,555,575,594,615,634,656,675,695,714,735,755,775,795,814,834,854,874,894,915,934],"xSR":741.5,"ySR":501.8,"xT1":424.9,"yT1":0,"xT2":1058.1,"yT2":0,"toosoon":0,"cond_shown":"equaldotsize","ratio_trial":900,"smaller_num":"9","larger_num":"10","correct_side":2,"subjID":"sebastianalbarracin14","gender":"0","age":"9","school":"4"},{"start_time":1552074402887,"click_time":1552074403818,"finger_time":1552074403439,"fix_duration":864.3250163534382,"trial":11,"RT":552,"MT":379,"sideResp":2,"stimulus":"img/250/equaldotsize/R/9_Ratio_250_L_3_R_12.png","xmouse":[797,797,797,797,797,797,797,797,797,797,797,797,797,797,797,797,797,797,797,797,797,797,797,800,804,815,837,910,934,950,962,973,990,999,1010,1022,1033,1053,1063,1070,1078,1087,1116,1124,1129,1133,1136],"ymouse":[540,540,540,540,540,540,540,540,540,540,540,540,540,540,540,540,540,540,540,540,540,540,540,539,537,529,510,431,395,375,357,332,298,284,273,266,261,246,236,230,216,200,148,127,113,103,90],"timestamp_mouse":[27,38,51,71,93,111,131,152,173,192,212,231,252,273,292,313,331,352,372,393,413,432,453,472,491,512,532,552,572,591,611,633,652,672,692,711,732,751,773,793,813,831,851,872,892,912,931],"xSR":741.5,"ySR":501.8,"xT1":424.9,"yT1":0,"xT2":1058.1,"yT2":0,"toosoon":0,"cond_shown":"equaldotsize","ratio_trial":250,"smaller_num":"3","larger_num":"12","correct_side":2,"subjID":"sebastianalbarracin14","gender":"0","age":"9","school":"4"},{"start_time":1552074405608,"click_time":1552074406640,"finger_time":1552074406279,"fix_duration":1087.6846711062535,"trial":12,"RT":671,"MT":361,"sideResp":1,"stimulus":"img/250/equaldotanddens/L/7_Ratio_250_L_8_R_2.png","xmouse":[775,778,778,789,802,810,813,813,813,813,813,813,813,813,813,812,809,809,809,809,807,806,806,806,806,806,806,806,806,806,805,805,800,788,766,717,687,648,636,629,623,604,594,583,564,550,535,533,531,530,528,522],"ymouse":[551,545,545,539,537,537,537,537,537,537,537,537,537,537,537,537,537,537,537,537,537,537,537,537,537,537,537,537,537,537,537,537,525,487,439,349,291,220,205,191,178,150,136,119,96,84,72,72,71,71,71,71],"timestamp_mouse":[15,48,50,71,90,110,130,152,172,191,211,230,250,270,291,311,330,350,372,391,411,431,451,470,490,511,530,552,570,590,610,630,652,671,691,712,731,752,772,791,811,831,850,871,892,912,930,950,970,990,1011,1031],"xSR":741.5,"ySR":501.8,"xT1":424.9,"yT1":0,"xT2":1058.1,"yT2":0,"toosoon":0,"cond_shown":"equaldotanddens","ratio_trial":250,"smaller_num":"2","larger_num":"8","correct_side":1,"subjID":"sebastianalbarracin14","gender":"0","age":"9","school":"4"},{"start_time":1552074409984,"click_time":1552074411079,"finger_time":1552074410640,"fix_duration":1023.7986821052532,"trial":13,"RT":656,"MT":439,"sideResp":2,"stimulus":"img/750/equaldotanddens/R/5_Ratio_750_L_15_R_20.png","xmouse":[799,799,799,797,796,796,796,796,796,796,796,796,796,796,796,796,796,796,796,796,796,796,796,796,796,796,796,796,796,796,801,807,860,930,977,1000,1028,1038,1048,1055,1066,1073,1081,1087,1090,1093,1095,1096,1096,1096,1095,1095,1095,1097,1099],"ymouse":[560,560,560,560,559,559,559,559,559,559,559,559,559,559,559,559,559,559,559,559,559,559,559,559,559,559,559,559,559,559,554,548,498,425,371,340,297,276,256,244,225,212,200,188,180,173,164,158,143,135,128,117,112,104,98],"timestamp_mouse":[22,45,55,75,96,115,135,155,176,194,214,234,256,276,296,315,334,356,374,395,416,435,454,476,496,515,536,555,575,596,615,636,656,674,695,716,736,756,775,795,815,835,855,875,895,916,936,956,976,995,1015,1034,1055,1076,1095],"xSR":741.5,"ySR":501.8,"xT1":424.9,"yT1":0,"xT2":1058.1,"yT2":0,"toosoon":0,"cond_shown":"equaldotanddens","ratio_trial":750,"smaller_num":"15","larger_num":"20","correct_side":2,"subjID":"sebastianalbarracin14","gender":"0","age":"9","school":"4"},{"start_time":1552074412495,"click_time":1552074413659,"finger_time":1552074413259,"fix_duration":672.1259943374022,"trial":14,"RT":764,"MT":400,"sideResp":2,"stimulus":"img/900/equaldotanddens/L/1_Ratio_900_L_10_R_9.png","xmouse":[791,791,791,791,791,791,791,791,791,791,791,791,791,791,791,791,791,791,791,791,791,791,791,791,791,791,791,791,791,791,791,791,791,791,791,791,793,797,829,851,869,886,907,946,962,973,981,992,1006,1018,1031,1040,1047,1056,1057,1061,1068,1082,1100],"ymouse":[551,551,551,551,551,551,551,551,551,551,551,551,551,551,551,551,551,551,551,551,551,551,551,551,551,551,551,551,551,551,551,551,551,551,551,551,543,534,488,464,452,437,417,369,348,332,318,291,256,230,195,177,164,148,144,134,119,100,77],"timestamp_mouse":[13,37,45,64,84,105,123,144,165,184,204,224,244,264,285,304,324,345,363,384,405,424,445,465,485,505,524,544,564,584,604,625,645,664,685,704,723,745,764,783,804,825,844,864,883,904,925,944,965,984,1004,1025,1045,1064,1084,1105,1124,1145,1164],"xSR":741.5,"ySR":501.8,"xT1":424.9,"yT1":0,"xT2":1058.1,"yT2":0,"toosoon":0,"cond_shown":"equaldotanddens","ratio_trial":900,"smaller_num":"9","larger_num":"10","correct_side":1,"subjID":"sebastianalbarracin14","gender":"0","age":"9","school":"4"},{"start_time":1552074414630,"click_time":1552074415699,"finger_time":1552074415479,"fix_duration":250,"trial":15,"RT":849,"MT":220,"sideResp":2,"stimulus":"img/900/equaldotanddens/L/10_Ratio_900_L_20_R_18.png","xmouse":[778,778,778,778,778,778,778,778,778,778,778,778,778,778,778,778,778,779,780,781,782,782,782,783,783,783,783,783,783,783,783,783,783,783,783,783,783,783,785,789,798,810,843,868,898,930,1003,1030,1060,1073,1082,1101,1113,1132],"ymouse":[566,566,566,566,566,566,566,566,566,566,566,566,566,566,566,566,566,566,566,566,566,566,566,565,565,565,565,565,565,565,565,565,565,565,565,565,565,565,563,558,547,532,491,460,414,367,259,211,175,159,149,127,111,88],"timestamp_mouse":[10,31,49,69,90,109,129,149,169,189,209,229,250,269,290,309,329,349,369,388,409,429,449,468,490,509,528,550,570,590,610,629,650,669,689,710,729,750,769,789,809,829,849,869,890,910,930,949,969,989,1009,1030,1048,1069],"xSR":741.5,"ySR":501.8,"xT1":424.9,"yT1":0,"xT2":1058.1,"yT2":0,"toosoon":0,"cond_shown":"equaldotanddens","ratio_trial":900,"smaller_num":"18","larger_num":"20","correct_side":1,"subjID":"sebastianalbarracin14","gender":"0","age":"9","school":"4"},{"start_time":1552074417104,"click_time":1552074417961,"finger_time":1552074417660,"fix_duration":522.9156257771563,"trial":16,"RT":556,"MT":301,"sideResp":2,"stimulus":"img/250/equaldotsize/R/12_Ratio_250_L_5_R_20.png","xmouse":[783,783,783,783,783,783,783,783,783,783,783,783,783,783,783,783,783,783,783,783,783,783,783,783,787,797,814,873,908,934,951,962,974,987,989,992,996,1002,1023,1039,1056,1070,1083],"ymouse":[558,558,558,558,558,558,558,558,558,558,558,558,558,558,558,558,558,558,558,558,558,558,558,558,555,545,529,468,430,391,353,326,301,264,259,251,240,228,185,152,125,108,91],"timestamp_mouse":[14,40,55,75,95,115,135,156,175,194,216,236,255,276,295,316,335,356,374,394,416,435,456,475,495,515,535,556,575,595,614,635,655,675,695,715,735,756,776,794,814,835,856],"xSR":741.5,"ySR":501.8,"xT1":424.9,"yT1":0,"xT2":1058.1,"yT2":0,"toosoon":0,"cond_shown":"equaldotsize","ratio_trial":250,"smaller_num":"5","larger_num":"20","correct_side":2,"subjID":"sebastianalbarracin14","gender":"0","age":"9","school":"4"},{"start_time":1552074419447,"click_time":1552074420520,"finger_time":1552074420100,"fix_duration":666.1568517384688,"trial":17,"RT":653,"MT":420,"sideResp":2,"stimulus":"img/250/equaldotanddens/R/10_Ratio_250_L_4_R_16.png","xmouse":[779,781,787,787,787,787,787,787,787,787,787,787,787,787,787,787,787,787,787,787,787,787,787,787,787,787,787,787,787,788,797,810,826,846,867,887,909,922,933,941,954,998,1031,1047,1056,1065,1080,1086,1094,1101,1110,1119,1122,1124],"ymouse":[550,548,546,546,546,546,546,546,546,546,546,546,546,546,546,546,546,546,546,546,546,546,546,546,546,546,546,546,546,545,534,514,491,469,443,416,382,368,356,347,333,291,260,239,223,208,183,172,160,146,134,115,104,97],"timestamp_mouse":[13,35,51,71,93,113,132,153,173,192,213,233,252,273,292,312,333,353,373,393,412,432,452,473,493,512,533,552,572,593,613,632,653,672,693,712,732,753,772,791,813,832,853,872,892,911,932,951,972,993,1012,1032,1052,1073],"xSR":741.5,"ySR":501.8,"xT1":424.9,"yT1":0,"xT2":1058.1,"yT2":0,"toosoon":0,"cond_shown":"equaldotanddens","ratio_trial":250,"smaller_num":"4","larger_num":"16","correct_side":2,"subjID":"sebastianalbarracin14","gender":"0","age":"9","school":"4"},{"start_time":1552074422803,"click_time":1552074423699,"finger_time":1552074423479,"fix_duration":1482.968837209284,"trial":18,"RT":676,"MT":220,"sideResp":2,"stimulus":"img/500/equaldotanddens/R/12_Ratio_500_L_1_R_2.png","xmouse":[776,776,776,776,776,776,776,776,776,776,776,776,776,776,776,776,776,776,776,776,776,776,776,776,776,776,776,776,776,780,789,796,799,814,831,862,870,892,917,937,964,999,1035,1110,1138],"ymouse":[541,541,541,541,541,541,541,541,541,541,541,541,541,541,541,541,541,541,541,541,541,541,541,541,541,541,541,541,541,534,524,516,512,497,478,444,435,410,374,341,293,239,194,118,93],"timestamp_mouse":[30,44,57,76,97,116,137,157,175,197,216,237,256,276,296,316,336,357,376,397,417,437,456,476,496,517,536,557,576,597,616,637,656,676,696,716,735,756,776,795,817,836,856,877,896],"xSR":741.5,"ySR":501.8,"xT1":424.9,"yT1":0,"xT2":1058.1,"yT2":0,"toosoon":0,"cond_shown":"equaldotanddens","ratio_trial":500,"smaller_num":"1","larger_num":"2","correct_side":2,"subjID":"sebastianalbarracin14","gender":"0","age":"9","school":"4"},{"start_time":1552074425564,"click_time":1552074426559,"finger_time":1552074426240,"fix_duration":983.2844441748969,"trial":19,"RT":676,"MT":319,"sideResp":1,"stimulus":"img/500/equaldotsize/L/13_Ratio_500_L_12_R_6.png","xmouse":[783,783,783,783,783,783,783,783,783,783,783,783,783,783,783,783,783,783,783,783,783,783,783,783,783,783,783,783,783,783,782,777,769,747,719,685,617,604,597,595,592,581,574,564,551,539,528,526,525,523],"ymouse":[565,565,565,565,565,565,565,565,565,565,565,565,565,565,565,565,565,565,565,565,565,565,565,565,565,565,565,565,565,565,560,540,509,463,395,317,195,174,159,150,143,117,104,89,73,59,46,46,45,45],"timestamp_mouse":[15,35,56,75,96,115,136,156,175,196,216,236,255,276,295,315,335,355,376,395,415,436,455,474,495,516,536,556,576,595,616,636,655,676,696,714,735,756,775,794,814,835,855,876,895,915,935,956,976,995],"xSR":741.5,"ySR":501.8,"xT1":424.9,"yT1":0,"xT2":1058.1,"yT2":0,"toosoon":0,"cond_shown":"equaldotsize","ratio_trial":500,"smaller_num":"6","larger_num":"12","correct_side":1,"subjID":"sebastianalbarracin14","gender":"0","age":"9","school":"4"},{"start_time":1552074427677,"click_time":1552074428759,"finger_time":1552074428398,"fix_duration":436.93436333269517,"trial":20,"RT":721,"MT":361,"sideResp":2,"stimulus":"img/900/equaldotsize/R/5_Ratio_900_L_9_R_10.png","xmouse":[800,800,800,800,800,800,800,800,800,800,800,800,800,800,800,800,800,800,800,800,800,800,800,800,800,800,800,800,800,800,800,800,800,800,800,808,841,868,892,919,946,987,994,1001,1007,1010,1023,1028,1036,1044,1049,1056,1056,1057,1059],"ymouse":[547,546,546,546,546,546,546,546,546,546,546,546,546,546,546,546,546,546,546,546,546,546,546,546,546,546,546,546,546,546,546,546,546,545,543,535,493,454,415,352,285,186,167,152,138,128,106,99,89,78,68,64,64,64,64],"timestamp_mouse":[11,40,42,62,82,103,123,142,161,183,202,222,241,263,283,303,322,342,362,383,402,422,443,462,482,513,522,542,563,582,602,622,642,662,682,702,721,743,762,781,803,822,842,862,883,903,922,942,962,981,1002,1022,1042,1063,1082],"xSR":741.5,"ySR":501.8,"xT1":424.9,"yT1":0,"xT2":1058.1,"yT2":0,"toosoon":0,"cond_shown":"equaldotsize","ratio_trial":900,"smaller_num":"9","larger_num":"10","correct_side":2,"subjID":"sebastianalbarracin14","gender":"0","age":"9","school":"4"},{"start_time":1552074431724,"click_time":1552074432800,"finger_time":1552074432439,"fix_duration":723.2430129890548,"trial":21,"RT":715,"MT":361,"sideResp":1,"stimulus":"img/500/equaldotsize/L/8_Ratio_500_L_8_R_4.png","xmouse":[778,778,778,778,778,778,778,778,778,778,778,778,778,778,778,778,778,778,778,778,778,778,778,778,778,778,778,778,778,778,778,778,778,779,779,779,748,715,654,632,616,608,603,597,590,585,577,570,564,554,549,544,540,523],"ymouse":[557,557,557,557,557,557,557,557,557,557,557,557,557,557,557,557,557,557,557,557,557,557,557,557,557,557,557,557,557,557,557,557,557,550,506,487,413,352,255,215,194,177,165,153,146,138,123,113,107,98,94,90,87,79],"timestamp_mouse":[14,37,55,75,95,116,136,156,174,194,216,235,255,275,296,315,335,356,375,395,416,434,455,475,495,515,535,555,575,596,614,634,656,674,695,715,736,754,774,794,815,836,856,875,894,915,935,956,975,996,1015,1035,1055,1076],"xSR":741.5,"ySR":501.8,"xT1":424.9,"yT1":0,"xT2":1058.1,"yT2":0,"toosoon":0,"cond_shown":"equaldotsize","ratio_trial":500,"smaller_num":"4","larger_num":"8","correct_side":1,"subjID":"sebastianalbarracin14","gender":"0","age":"9","school":"4"},{"start_time":1552074434793,"click_time":1552074436020,"finger_time":1552074435619,"fix_duration":1270.8136080595987,"trial":22,"RT":826,"MT":401,"sideResp":2,"stimulus":"img/900/equaldotanddens/L/4_Ratio_900_L_20_R_18.png","xmouse":[778,778,778,778,778,778,778,778,778,778,778,778,778,778,778,778,778,778,778,778,778,778,778,778,778,778,778,778,778,778,778,778,778,778,778,778,781,790,804,824,840,921,962,998,1028,1079,1100,1112,1127,1143,1170,1187,1193,1196,1197,1197,1187,1181,1177,1174,1170,1147],"ymouse":[565,565,565,565,565,565,565,565,565,565,565,565,565,565,565,565,565,565,565,565,565,565,565,565,565,565,565,565,565,565,565,565,565,565,565,565,564,555,544,531,518,459,432,408,385,342,323,309,289,267,225,186,166,154,146,136,110,101,93,87,84,72],"timestamp_mouse":[14,41,45,67,87,106,127,146,166,187,206,227,247,266,286,306,326,347,367,386,407,426,446,465,487,507,525,545,566,587,606,627,645,666,686,707,727,747,767,787,805,826,847,867,887,907,925,946,967,986,1008,1026,1047,1066,1086,1106,1126,1146,1165,1185,1207,1227],"xSR":741.5,"ySR":501.8,"xT1":424.9,"yT1":0,"xT2":1058.1,"yT2":0,"toosoon":0,"cond_shown":"equaldotanddens","ratio_trial":900,"smaller_num":"18","larger_num":"20","correct_side":1,"subjID":"sebastianalbarracin14","gender":"0","age":"9","school":"4"},{"start_time":1552074439519,"click_time":1552074440660,"finger_time":1552074440178,"fix_duration":437.1520865790137,"trial":23,"RT":659,"MT":482,"sideResp":2,"stimulus":"img/900/equaldotanddens/L/1_Ratio_900_L_10_R_9.png","xmouse":[794,794,794,794,794,794,794,794,794,794,794,794,794,794,794,794,794,794,794,794,794,794,794,794,794,794,794,794,794,794,798,806,820,846,865,897,908,919,927,935,959,979,985,999,1017,1038,1045,1051,1056,1061,1069,1072,1076,1081,1086,1093,1096,1099],"ymouse":[564,564,564,564,564,564,564,564,564,564,564,564,564,564,564,564,564,564,564,564,564,564,564,564,564,564,564,564,564,564,563,558,551,531,516,468,448,435,420,404,371,350,343,326,305,286,277,267,254,240,213,203,192,175,158,124,110,99],"timestamp_mouse":[2,20,39,60,81,100,119,141,161,181,201,219,239,261,280,300,321,341,359,381,400,420,439,461,481,501,520,541,561,581,600,620,640,659,679,700,720,740,761,781,800,819,840,860,880,901,921,940,961,980,1000,1021,1039,1059,1080,1100,1120,1141],"xSR":741.5,"ySR":501.8,"xT1":424.9,"yT1":0,"xT2":1058.1,"yT2":0,"toosoon":0,"cond_shown":"equaldotanddens","ratio_trial":900,"smaller_num":"9","larger_num":"10","correct_side":1,"subjID":"sebastianalbarracin14","gender":"0","age":"9","school":"4"},{"start_time":1552074442426,"click_time":1552074443659,"finger_time":1552074443139,"fix_duration":983.6902921657944,"trial":24,"RT":713,"MT":520,"sideResp":2,"stimulus":"img/500/equaldotsize/R/9_Ratio_500_L_2_R_4.png","xmouse":[782,782,782,782,782,782,782,782,782,782,782,782,782,782,782,782,782,782,782,782,782,782,782,782,782,782,782,782,782,782,782,787,792,807,824,865,880,902,931,971,981,987,992,1000,1016,1023,1024,1026,1027,1035,1040,1045,1047,1049,1050,1053,1055,1056,1061,1068,1089,1102],"ymouse":[554,554,554,554,554,554,554,554,554,554,554,554,554,554,554,554,554,554,554,554,554,554,554,554,554,554,554,554,554,554,554,550,548,539,529,506,498,483,459,424,416,410,402,388,351,328,321,312,299,269,250,234,223,216,211,200,194,187,176,160,116,94],"timestamp_mouse":[13,39,54,74,92,113,134,154,172,194,214,234,252,274,293,312,333,354,374,394,413,433,454,473,493,514,534,553,573,594,614,633,654,674,693,713,733,753,773,794,814,832,852,873,894,913,933,953,974,994,1013,1034,1053,1074,1094,1113,1133,1153,1174,1194,1213,1233],"xSR":741.5,"ySR":501.8,"xT1":424.9,"yT1":0,"xT2":1058.1,"yT2":0,"toosoon":0,"cond_shown":"equaldotsize","ratio_trial":500,"smaller_num":"2","larger_num":"4","correct_side":2,"subjID":"sebastianalbarracin14","gender":"0","age":"9","school":"4"},{"start_time":1552074445281,"click_time":1552074446879,"finger_time":1552074446159,"fix_duration":600.6346726659345,"trial":25,"RT":878,"MT":720,"sideResp":1,"stimulus":"img/250/randomdotsizeEA/L/1_Ratio_250_L_8_R_2.png",