[{"start_time":1552073492724,"click_time":1552073493444,"finger_time":1552073492735,"fix_duration":276.78709120051815,"trial":0,"RT":11,"MT":709,"sideResp":1,"stimulus":[],"xmouse":[785,785,785,785,785,785,785,785,785,785,785,785,785,785,785,785,785,785,785,785,784,754,683,602,518,449,416,401,401,404,407,409,412,412,413,418,432],"ymouse":[546,546,546,546,546,546,546,546,546,546,546,546,546,546,546,546,546,546,546,546,546,525,386,282,190,136,113,96,82,67,50,33,17,17,17,22,33],"timestamp_mouse":[11,18,38,57,77,98,119,138,158,179,198,218,239,257,277,297,318,338,358,378,399,419,438,459,478,498,519,538,559,578,598,617,638,658,678,698,719],"xSR":741.5,"ySR":501.8,"xT1":424.9,"yT1":0,"xT2":1058.1,"yT2":0,"toosoon":0,"cond_shown":"Incongruent","ratio_trial":200,"L_num":4,"L_den":5,"R_num":6,"R_den":10,"correct_side":1,"subjID":"sebastianalbarracin14","gender":"0","age":"9","school":"4","test":{"fix_dur":[250,1500],"timestim":1000,"targets_dim":[100,100],"targets_relative_coord":[0.3,0.7],"size_stim":[880,420],"start_dim":[100,100],"size_start":[300,300],"size_fix":60,"samplingrate":20,"img_types":["Congruent","Incongruent"],"ratios":[100,200,300],"rep_conds":19,"nTrials":120,"trials_to_rest":500,"Trials_order":[9,59,56,108,88,82,78,27,5,72,15,11,80,37,38,30,79,69,70,35,32,43,63,115,48,51,71,23,100,8,118,113,17,4,47,116,29,26,28,102,16,87,112,67,106,14,95,3,20,109,22,24,10,52,0,85,90,65,53,19,111,55,54,83,76,57,60,98,77,97,81,64,31,44,66,73,12,101,61,105,46,84,114,74,89,93,25,86,92,91,68,40,21,58,110,62,7,107,75,99,94,117,49,2,6,39,13,41,36,34,42,119,104,96,103,1,33,50,18,45],"cond_shown":["Incongruent","Incongruent","Congruent","Congruent","Congruent","Congruent","Congruent","Incongruent","Incongruent","Congruent","Incongruent","Incongruent","Congruent","Incongruent","Congruent","Congruent","Incongruent","Incongruent","Congruent","Incongruent","Congruent","Incongruent","Incongruent","Incongruent","Congruent","Incongruent","Incongruent","Incongruent","Congruent","Congruent","Congruent","Incongruent","Incongruent","Congruent","Incongruent","Congruent","Incongruent","Congruent","Congruent","Congruent","Congruent","Incongruent","Congruent","Incongruent","Congruent","Congruent","Incongruent","Incongruent","Congruent","Incongruent","Congruent","Congruent","Congruent","Congruent","Congruent","Incongruent","Congruent","Incongruent","Incongruent","Incongruent","Incongruent","Incongruent","Congruent","Incongruent","Congruent","Incongruent","Congruent","Congruent","Incongruent","Incongruent","Incongruent","Congruent","Incongruent","Congruent","Congruent","Incongruent","Congruent","Incongruent","Incongruent","Incongruent","Congruent","Congruent","Congruent","Congruent","Incongruent","Incongruent","Incongruent","Congruent","Congruent","Incongruent","Congruent","Congruent","Incongruent","Congruent","Congruent","Congruent","Incongruent","Incongruent","Incongruent","Incongruent","Congruent","Incongruent","Incongruent","Congruent","Congruent","Incongruent","Incongruent","Incongruent","Congruent","Congruent","Congruent","Incongruent","Congruent","Congruent","Incongruent","Incongruent","Incongruent","Congruent","Congruent","Incongruent"],"ratio_trial":[200,300,200,100,300,300,100,200,300,100,200,300,200,100,200,100,100,200,300,300,200,100,200,100,100,200,300,300,300,200,300,300,300,300,300,200,300,200,300,100,300,200,300,100,300,200,300,200,200,100,300,100,300,300,100,100,100,300,300,100,200,100,100,300,300,200,100,200,300,100,200,300,100,200,100,100,100,300,100,200,300,100,100,200,300,200,100,200,200,100,200,300,200,300,200,200,100,300,200,200,300,200,100,200,100,200,100,300,100,300,100,300,200,100,100,100,200,200,100,200],"left_num":[4,4,9,8,20,3,11,1,2,9,11,4,3,9,6,3,9,1,20,13,11,17,14,11,2,3,7,4,8,3,20,4,4,1,4,3,8,3,3,4,1,14,2,8,5,5,4,11,9,3,4,2,11,2,12,2,1,8,1,13,7,2,3,4,5,3,10,16,4,3,3,4,2,9,1,10,9,4,12,1,1,11,7,7,13,4,10,5,3,13,1,20,6,3,16,16,10,13,9,3,3,3,6,3,6,14,9,1,7,1,1,13,1,1,6,12,7,3,2,7],"right_num":[6,2,4,2,9,4,4,3,6,8,3,2,11,13,7,2,13,2,9,12,3,10,12,9,11,1,8,6,1,9,5,2,6,7,2,11,9,11,2,6,11,12,10,6,6,14,2,3,4,8,1,6,1,10,13,8,3,9,2,6,14,8,2,2,7,1,3,12,2,4,11,2,8,13,3,9,8,6,9,3,7,4,9,2,12,6,9,14,14,6,21,9,3,2,9,12,8,12,8,1,2,11,3,9,15,6,6,2,9,19,3,12,21,3,13,2,8,7,6,12],"left_den":[5,20,20,16,25,6,22,2,4,15,20,20,10,15,12,6,15,3,25,26,22,30,30,22,5,10,10,5,16,12,25,20,5,20,20,10,10,10,6,8,5,30,20,16,25,10,20,20,20,5,10,5,22,20,30,4,2,10,2,26,10,4,6,20,25,10,25,20,20,6,4,5,4,30,2,25,15,5,24,2,20,22,14,21,26,5,25,10,6,26,2,25,20,6,30,20,25,26,15,10,6,4,12,12,12,30,18,2,14,3,2,26,2,2,10,30,10,10,5,10],"right_den":[10,4,16,5,18,5,10,10,30,16,4,4,22,26,10,5,26,15,18,15,10,15,18,15,22,2,20,12,5,20,10,4,12,20,4,22,18,22,10,10,22,18,25,10,12,20,4,4,16,16,10,12,5,25,26,20,5,18,10,10,28,20,5,4,14,2,10,20,4,10,20,4,20,26,5,18,16,12,15,10,20,10,15,15,15,10,18,20,20,10,30,18,6,10,27,20,16,15,10,2,10,20,5,20,25,9,10,10,15,30,5,15,30,5,26,4,16,14,12,24],"correct_side":[1,2,1,1,1,2,1,1,1,1,2,2,2,1,2,1,1,1,1,2,1,2,2,2,2,2,1,1,1,2,1,2,1,2,2,2,1,2,1,2,2,2,2,2,2,2,2,2,1,1,1,2,1,2,2,1,2,1,1,2,1,1,1,2,2,2,1,1,2,1,1,1,1,2,2,2,1,1,2,1,2,1,2,1,2,1,2,2,2,2,2,1,2,1,1,1,2,2,2,2,1,1,2,2,2,2,2,1,2,2,2,2,2,2,1,2,1,2,2,1],"img_shown":["img2/200/Incongruent/L/I_Dist_200_LN_4_LD_5_RN_6_RD_10_0.png","img2/300/Incongruent/R/I_Dist_300_LN_4_LD_20_RN_2_RD_4_1.png","img2/200/Congruent/L/C_Dist_200_LN_9_LD_20_RN_4_RD_16_0.png","img2/100/Congruent/L/C_Dist_100_LN_8_LD_16_RN_2_RD_5_0.png","img2/300/Congruent/L/C_Dist_300_LN_20_LD_25_RN_9_RD_18_0.png","img2/300/Congruent/R/C_Dist_300_LN_3_LD_6_RN_4_RD_5_1.png","img2/100/Congruent/L/C_Dist_100_LN_11_LD_22_RN_4_RD_10_0.png","img2/200/Incongruent/L/I_Dist_200_LN_1_LD_2_RN_3_RD_10_0.png","img2/300/Incongruent/L/I_Dist_300_LN_2_LD_4_RN_6_RD_30_0.png","img2/100/Congruent/L/C_Dist_100_LN_9_LD_15_RN_8_RD_16_0.png","img2/200/Incongruent/R/I_Dist_200_LN_11_LD_20_RN_3_RD_4_1.png","img2/300/Incongruent/R/I_Dist_300_LN_4_LD_20_RN_2_RD_4_1.png","img2/200/Congruent/R/C_Dist_200_LN_3_LD_10_RN_11_RD_22_1.png","img2/100/Incongruent/L/I_Dist_100_LN_9_LD_15_RN_13_RD_26_0.png","img2/200/Congruent/R/C_Dist_200_LN_6_LD_12_RN_7_RD_10_1.png","img2/100/Congruent/L/C_Dist_100_LN_3_LD_6_RN_2_RD_5_0.png","img2/100/Incongruent/L/I_Dist_100_LN_9_LD_15_RN_13_RD_26_0.png","img2/200/Incongruent/L/I_Dist_200_LN_1_LD_3_RN_2_RD_15_0.png","img2/300/Congruent/L/C_Dist_300_LN_20_LD_25_RN_9_RD_18_0.png","img2/300/Incongruent/R/I_Dist_300_LN_13_LD_26_RN_12_RD_15_1.png","img2/200/Congruent/L/C_Dist_200_LN_11_LD_22_RN_3_RD_10_0.png","img2/100/Incongruent/R/I_Dist_100_LN_17_LD_30_RN_10_RD_15_1.png","img2/200/Incongruent/R/I_Dist_200_LN_14_LD_30_RN_12_RD_18_1.png","img2/100/Incongruent/R/I_Dist_100_LN_11_LD_22_RN_9_RD_15_1.png","img2/100/Congruent/R/C_Dist_100_LN_2_LD_5_RN_11_RD_22_1.png","img2/200/Incongruent/R/I_Dist_200_LN_3_LD_10_RN_1_RD_2_1.png","img2/300/Incongruent/L/I_Dist_300_LN_7_LD_10_RN_8_RD_20_0.png","img2/300/Incongruent/L/I_Dist_300_LN_4_LD_5_RN_6_RD_12_0.png","img2/300/Congruent/L/C_Dist_300_LN_8_LD_16_RN_1_RD_5_0.png","img2/200/Congruent/R/C_Dist_200_LN_3_LD_12_RN_9_RD_20_1.png","img2/300/Congruent/L/C_Dist_300_LN_20_LD_25_RN_5_RD_10_0.png","img2/300/Incongruent/R/I_Dist_300_LN_4_LD_20_RN_2_RD_4_1.png","img2/300/Incongruent/L/I_Dist_300_LN_4_LD_5_RN_6_RD_12_0.png","img2/300/Congruent/R/C_Dist_300_LN_1_LD_20_RN_7_RD_20_1.png","img2/300/Incongruent/R/I_Dist_300_LN_4_LD_20_RN_2_RD_4_1.png","img2/200/Congruent/R/C_Dist_200_LN_3_LD_10_RN_11_RD_22_1.png","img2/300/Incongruent/L/I_Dist_300_LN_8_LD_10_RN_9_RD_18_0.png","img2/200/Congruent/R/C_Dist_200_LN_3_LD_10_RN_11_RD_22_1.png","img2/300/Congruent/L/C_Dist_300_LN_3_LD_6_RN_2_RD_10_0.png","img2/100/Congruent/R/C_Dist_100_LN_4_LD_8_RN_6_RD_10_1.png","img2/300/Congruent/R/C_Dist_300_LN_1_LD_5_RN_11_RD_22_1.png","img2/200/Incongruent/R/I_Dist_200_LN_14_LD_30_RN_12_RD_18_1.png","img2/300/Congruent/R/C_Dist_300_LN_2_LD_20_RN_10_RD_25_1.png","img2/100/Incongruent/R/I_Dist_100_LN_8_LD_16_RN_6_RD_10_1.png","img2/300/Congruent/R/C_Dist_300_LN_5_LD_25_RN_6_RD_12_1.png","img2/200/Congruent/R/C_Dist_200_LN_5_LD_10_RN_14_RD_20_1.png","img2/300/Incongruent/R/I_Dist_300_LN_4_LD_20_RN_2_RD_4_1.png","img2/200/Incongruent/R/I_Dist_200_LN_11_LD_20_RN_3_RD_4_1.png","img2/200/Congruent/L/C_Dist_200_LN_9_LD_20_RN_4_RD_16_0.png","img2/100/Incongruent/L/I_Dist_100_LN_3_LD_5_RN_8_RD_16_0.png","img2/300/Congruent/L/C_Dist_300_LN_4_LD_10_RN_1_RD_10_0.png","img2/100/Congruent/R/C_Dist_100_LN_2_LD_5_RN_6_RD_12_1.png","img2/300/Congruent/L/C_Dist_300_LN_11_LD_22_RN_1_RD_5_0.png","img2/300/Congruent/R/C_Dist_300_LN_2_LD_20_RN_10_RD_25_1.png","img2/100/Congruent/R/C_Dist_100_LN_12_LD_30_RN_13_RD_26_1.png","img2/100/Incongruent/L/I_Dist_100_LN_2_LD_4_RN_8_RD_20_0.png","img2/100/Congruent/R/C_Dist_100_LN_1_LD_2_RN_3_RD_5_1.png","img2/300/Incongruent/L/I_Dist_300_LN_8_LD_10_RN_9_RD_18_0.png","img2/300/Incongruent/L/I_Dist_300_LN_1_LD_2_RN_2_RD_10_0.png","img2/100/Incongruent/R/I_Dist_100_LN_13_LD_26_RN_6_RD_10_1.png","img2/200/Incongruent/L/I_Dist_200_LN_7_LD_10_RN_14_RD_28_0.png","img2/100/Incongruent/L/I_Dist_100_LN_2_LD_4_RN_8_RD_20_0.png","img2/100/Congruent/L/C_Dist_100_LN_3_LD_6_RN_2_RD_5_0.png","img2/300/Incongruent/R/I_Dist_300_LN_4_LD_20_RN_2_RD_4_1.png","img2/300/Congruent/R/C_Dist_300_LN_5_LD_25_RN_7_RD_14_1.png","img2/200/Incongruent/R/I_Dist_200_LN_3_LD_10_RN_1_RD_2_1.png","img2/100/Congruent/L/C_Dist_100_LN_10_LD_25_RN_3_RD_10_0.png","img2/200/Congruent/L/C_Dist_200_LN_16_LD_20_RN_12_RD_20_0.png","img2/300/Incongruent/R/I_Dist_300_LN_4_LD_20_RN_2_RD_4_1.png","img2/100/Incongruent/L/I_Dist_100_LN_3_LD_6_RN_4_RD_10_0.png","img2/200/Incongruent/L/I_Dist_200_LN_3_LD_4_RN_11_RD_20_0.png","img2/300/Congruent/L/C_Dist_300_LN_4_LD_5_RN_2_RD_4_0.png","img2/100/Incongruent/L/I_Dist_100_LN_2_LD_4_RN_8_RD_20_0.png","img2/200/Congruent/R/C_Dist_200_LN_9_LD_30_RN_13_RD_26_1.png","img2/100/Congruent/R/C_Dist_100_LN_1_LD_2_RN_3_RD_5_1.png","img2/100/Incongruent/R/I_Dist_100_LN_10_LD_25_RN_9_RD_18_1.png","img2/100/Congruent/L/C_Dist_100_LN_9_LD_15_RN_8_RD_16_0.png","img2/300/Incongruent/L/I_Dist_300_LN_4_LD_5_RN_6_RD_12_0.png","img2/100/Incongruent/R/I_Dist_100_LN_12_LD_24_RN_9_RD_15_1.png","img2/200/Incongruent/L/I_Dist_200_LN_1_LD_2_RN_3_RD_10_0.png","img2/300/Congruent/R/C_Dist_300_LN_1_LD_20_RN_7_RD_20_1.png","img2/100/Congruent/L/C_Dist_100_LN_11_LD_22_RN_4_RD_10_0.png","img2/100/Congruent/R/C_Dist_100_LN_7_LD_14_RN_9_RD_15_1.png","img2/200/Congruent/L/C_Dist_200_LN_7_LD_21_RN_2_RD_15_0.png","img2/300/Incongruent/R/I_Dist_300_LN_13_LD_26_RN_12_RD_15_1.png","img2/200/Incongruent/L/I_Dist_200_LN_4_LD_5_RN_6_RD_10_0.png","img2/100/Incongruent/R/I_Dist_100_LN_10_LD_25_RN_9_RD_18_1.png","img2/200/Congruent/R/C_Dist_200_LN_5_LD_10_RN_14_RD_20_1.png","img2/200/Congruent/R/C_Dist_200_LN_3_LD_6_RN_14_RD_20_1.png","img2/100/Incongruent/R/I_Dist_100_LN_13_LD_26_RN_6_RD_10_1.png","img2/200/Congruent/R/C_Dist_200_LN_1_LD_2_RN_21_RD_30_1.png","img2/300/Congruent/L/C_Dist_300_LN_20_LD_25_RN_9_RD_18_0.png","img2/200/Incongruent/R/I_Dist_200_LN_6_LD_20_RN_3_RD_6_1.png","img2/300/Congruent/L/C_Dist_300_LN_3_LD_6_RN_2_RD_10_0.png","img2/200/Congruent/L/C_Dist_200_LN_16_LD_30_RN_9_RD_27_0.png","img2/200/Congruent/L/C_Dist_200_LN_16_LD_20_RN_12_RD_20_0.png","img2/100/Incongruent/R/I_Dist_100_LN_10_LD_25_RN_8_RD_16_1.png","img2/300/Incongruent/R/I_Dist_300_LN_13_LD_26_RN_12_RD_15_1.png","img2/200/Incongruent/R/I_Dist_200_LN_9_LD_15_RN_8_RD_10_1.png","img2/200/Incongruent/R/I_Dist_200_LN_3_LD_10_RN_1_RD_2_1.png","img2/300/Congruent/L/C_Dist_300_LN_3_LD_6_RN_2_RD_10_0.png","img2/200/Incongruent/L/I_Dist_200_LN_3_LD_4_RN_11_RD_20_0.png","img2/100/Incongruent/R/I_Dist_100_LN_6_LD_12_RN_3_RD_5_1.png","img2/200/Congruent/R/C_Dist_200_LN_3_LD_12_RN_9_RD_20_1.png","img2/100/Congruent/R/C_Dist_100_LN_6_LD_12_RN_15_RD_25_1.png","img2/200/Incongruent/R/I_Dist_200_LN_14_LD_30_RN_6_RD_9_1.png","img2/100/Incongruent/R/I_Dist_100_LN_9_LD_18_RN_6_RD_10_1.png","img2/300/Incongruent/L/I_Dist_300_LN_1_LD_2_RN_2_RD_10_0.png","img2/100/Congruent/R/C_Dist_100_LN_7_LD_14_RN_9_RD_15_1.png","img2/300/Congruent/R/C_Dist_300_LN_1_LD_3_RN_19_RD_30_1.png","img2/100/Congruent/R/C_Dist_100_LN_1_LD_2_RN_3_RD_5_1.png","img2/300/Incongruent/R/I_Dist_300_LN_13_LD_26_RN_12_RD_15_1.png","img2/200/Congruent/R/C_Dist_200_LN_1_LD_2_RN_21_RD_30_1.png","img2/100/Congruent/R/C_Dist_100_LN_1_LD_2_RN_3_RD_5_1.png","img2/100/Incongruent/L/I_Dist_100_LN_6_LD_10_RN_13_RD_26_0.png","img2/100/Incongruent/R/I_Dist_100_LN_12_LD_30_RN_2_RD_4_1.png","img2/200/Incongruent/L/I_Dist_200_LN_7_LD_10_RN_8_RD_16_0.png","img2/200/Congruent/R/C_Dist_200_LN_3_LD_10_RN_7_RD_14_1.png","img2/100/Congruent/R/C_Dist_100_LN_2_LD_5_RN_6_RD_12_1.png","img2/200/Incongruent/L/I_Dist_200_LN_7_LD_10_RN_12_RD_24_0.png"],"dist100_C":[["C_Dist_100_LN_10_LD_25_RN_3_RD_10_0.png","C_Dist_100_LN_11_LD_22_RN_4_RD_10_0.png","C_Dist_100_LN_11_LD_22_RN_6_RD_15_0.png","C_Dist_100_LN_15_LD_25_RN_13_RD_26_0.png","C_Dist_100_LN_3_LD_6_RN_2_RD_5_0.png","C_Dist_100_LN_6_LD_20_RN_5_RD_25_0.png","C_Dist_100_LN_8_LD_16_RN_2_RD_5_0.png","C_Dist_100_LN_9_LD_15_RN_8_RD_16_0.png"],["C_Dist_100_LN_1_LD_2_RN_18_RD_30_1.png","C_Dist_100_LN_1_LD_2_RN_3_RD_5_1.png","C_Dist_100_LN_12_LD_30_RN_13_RD_26_1.png","C_Dist_100_LN_2_LD_5_RN_11_RD_22_1.png","C_Dist_100_LN_2_LD_5_RN_6_RD_12_1.png","C_Dist_100_LN_3_LD_20_RN_4_RD_16_1.png","C_Dist_100_LN_4_LD_10_RN_15_RD_30_1.png","C_Dist_100_LN_4_LD_8_RN_6_RD_10_1.png","C_Dist_100_LN_6_LD_12_RN_15_RD_25_1.png","C_Dist_100_LN_7_LD_14_RN_15_RD_25_1.png","C_Dist_100_LN_7_LD_14_RN_9_RD_15_1.png"]],"dist100_I":[["I_Dist_100_LN_1_LD_2_RN_8_RD_20_0.png","I_Dist_100_LN_2_LD_4_RN_6_RD_15_0.png","I_Dist_100_LN_2_LD_4_RN_8_RD_20_0.png","I_Dist_100_LN_3_LD_5_RN_11_RD_22_0.png","I_Dist_100_LN_3_LD_5_RN_8_RD_16_0.png","I_Dist_100_LN_3_LD_6_RN_4_RD_10_0.png","I_Dist_100_LN_3_LD_9_RN_7_RD_30_0.png","I_Dist_100_LN_4_LD_8_RN_8_RD_20_0.png","I_Dist_100_LN_6_LD_10_RN_11_RD_22_0.png","I_Dist_100_LN_6_LD_10_RN_13_RD_26_0.png","I_Dist_100_LN_6_LD_10_RN_7_RD_14_0.png","I_Dist_100_LN_9_LD_10_RN_20_RD_25_0.png","I_Dist_100_LN_9_LD_15_RN_13_RD_26_0.png","I_Dist_100_LN_9_LD_15_RN_14_RD_28_0.png"],["I_Dist_100_LN_10_LD_25_RN_8_RD_16_1.png","I_Dist_100_LN_10_LD_25_RN_9_RD_18_1.png","I_Dist_100_LN_11_LD_22_RN_9_RD_15_1.png","I_Dist_100_LN_12_LD_24_RN_9_RD_15_1.png","I_Dist_100_LN_12_LD_30_RN_2_RD_4_1.png","I_Dist_100_LN_13_LD_26_RN_12_RD_20_1.png","I_Dist_100_LN_13_LD_26_RN_6_RD_10_1.png","I_Dist_100_LN_17_LD_30_RN_10_RD_15_1.png","I_Dist_100_LN_6_LD_12_RN_3_RD_5_1.png","I_Dist_100_LN_8_LD_16_RN_6_RD_10_1.png","I_Dist_100_LN_8_LD_20_RN_1_RD_2_1.png","I_Dist_100_LN_9_LD_18_RN_6_RD_10_1.png"]],"dist100_S":[["E_Dist_100_LN_2_LD_12_RN_2_RD_30_0.png","E_Dist_100_LN_6_LD_10_RN_6_RD_12_0.png"],["E_Dist_100_LN_6_LD_12_RN_6_RD_10_1.png"]],"dist200_C":[["C_Dist_200_LN_11_LD_22_RN_3_RD_10_0.png","C_Dist_200_LN_12_LD_15_RN_6_RD_10_0.png","C_Dist_200_LN_12_LD_20_RN_6_RD_15_0.png","C_Dist_200_LN_14_LD_28_RN_6_RD_20_0.png","C_Dist_200_LN_15_LD_25_RN_4_RD_10_0.png","C_Dist_200_LN_16_LD_20_RN_12_RD_20_0.png","C_Dist_200_LN_16_LD_30_RN_9_RD_27_0.png","C_Dist_200_LN_20_LD_25_RN_9_RD_15_0.png","C_Dist_200_LN_21_LD_30_RN_2_RD_4_0.png","C_Dist_200_LN_4_LD_10_RN_3_RD_15_0.png","C_Dist_200_LN_4_LD_8_RN_3_RD_10_0.png","C_Dist_200_LN_6_LD_15_RN_3_RD_15_0.png","C_Dist_200_LN_7_LD_21_RN_2_RD_15_0.png","C_Dist_200_LN_8_LD_15_RN_2_RD_6_0.png","C_Dist_200_LN_8_LD_15_RN_3_RD_9_0.png","C_Dist_200_LN_8_LD_15_RN_7_RD_21_0.png","C_Dist_200_LN_9_LD_20_RN_4_RD_16_0.png"],["C_Dist_200_LN_1_LD_2_RN_21_RD_30_1.png","C_Dist_200_LN_13_LD_26_RN_14_RD_20_1.png","C_Dist_200_LN_3_LD_10_RN_11_RD_22_1.png","C_Dist_200_LN_3_LD_10_RN_14_RD_28_1.png","C_Dist_200_LN_3_LD_10_RN_7_RD_14_1.png","C_Dist_200_LN_3_LD_12_RN_9_RD_20_1.png","C_Dist_200_LN_3_LD_6_RN_14_RD_20_1.png","C_Dist_200_LN_5_LD_10_RN_14_RD_20_1.png","C_Dist_200_LN_6_LD_12_RN_7_RD_10_1.png","C_Dist_200_LN_6_LD_20_RN_11_RD_22_1.png","C_Dist_200_LN_7_LD_15_RN_18_RD_27_1.png","C_Dist_200_LN_9_LD_30_RN_13_RD_26_1.png"]],"dist200_I":[["I_Dist_200_LN_1_LD_2_RN_3_RD_10_0.png","I_Dist_200_LN_1_LD_3_RN_2_RD_15_0.png","I_Dist_200_LN_3_LD_4_RN_11_RD_20_0.png","I_Dist_200_LN_4_LD_5_RN_6_RD_10_0.png","I_Dist_200_LN_4_LD_6_RN_14_RD_30_0.png","I_Dist_200_LN_7_LD_10_RN_12_RD_24_0.png","I_Dist_200_LN_7_LD_10_RN_14_RD_28_0.png","I_Dist_200_LN_7_LD_10_RN_8_RD_16_0.png"],["I_Dist_200_LN_11_LD_20_RN_3_RD_4_1.png","I_Dist_200_LN_14_LD_30_RN_12_RD_18_1.png","I_Dist_200_LN_14_LD_30_RN_6_RD_9_1.png","I_Dist_200_LN_3_LD_10_RN_1_RD_2_1.png","I_Dist_200_LN_4_LD_30_RN_1_RD_3_1.png","I_Dist_200_LN_6_LD_20_RN_3_RD_6_1.png","I_Dist_200_LN_7_LD_15_RN_4_RD_6_1.png","I_Dist_200_LN_7_LD_15_RN_6_RD_9_1.png","I_Dist_200_LN_9_LD_15_RN_8_RD_10_1.png"]],"dist200_S":[["E_Dist_200_LN_3_LD_6_RN_3_RD_10_0.png"],["E_Dist_200_LN_3_LD_10_RN_3_RD_6_1.png"]],"dist300_C":[["C_Dist_300_LN_11_LD_22_RN_1_RD_5_0.png","C_Dist_300_LN_11_LD_22_RN_2_RD_10_0.png","C_Dist_300_LN_11_LD_22_RN_4_RD_20_0.png","C_Dist_300_LN_12_LD_24_RN_2_RD_10_0.png","C_Dist_300_LN_18_LD_20_RN_9_RD_15_0.png","C_Dist_300_LN_20_LD_25_RN_13_RD_26_0.png","C_Dist_300_LN_20_LD_25_RN_14_RD_28_0.png","C_Dist_300_LN_20_LD_25_RN_5_RD_10_0.png","C_Dist_300_LN_20_LD_25_RN_8_RD_16_0.png","C_Dist_300_LN_20_LD_25_RN_9_RD_18_0.png","C_Dist_300_LN_24_LD_30_RN_2_RD_4_0.png","C_Dist_300_LN_24_LD_30_RN_8_RD_16_0.png","C_Dist_300_LN_3_LD_6_RN_2_RD_10_0.png","C_Dist_300_LN_4_LD_10_RN_1_RD_10_0.png","C_Dist_300_LN_4_LD_5_RN_2_RD_4_0.png","C_Dist_300_LN_8_LD_16_RN_1_RD_5_0.png","C_Dist_300_LN_9_LD_10_RN_3_RD_5_0.png"],["C_Dist_300_LN_1_LD_20_RN_7_RD_20_1.png","C_Dist_300_LN_1_LD_3_RN_19_RD_30_1.png","C_Dist_300_LN_1_LD_30_RN_8_RD_24_1.png","C_Dist_300_LN_1_LD_5_RN_11_RD_22_1.png","C_Dist_300_LN_1_LD_5_RN_3_RD_6_1.png","C_Dist_300_LN_1_LD_5_RN_6_RD_12_1.png","C_Dist_300_LN_2_LD_10_RN_12_RD_24_1.png","C_Dist_300_LN_2_LD_20_RN_10_RD_25_1.png","C_Dist_300_LN_3_LD_12_RN_11_RD_20_1.png","C_Dist_300_LN_3_LD_6_RN_4_RD_5_1.png","C_Dist_300_LN_4_LD_20_RN_13_RD_26_1.png","C_Dist_300_LN_5_LD_25_RN_6_RD_12_1.png","C_Dist_300_LN_5_LD_25_RN_7_RD_14_1.png","C_Dist_300_LN_7_LD_14_RN_20_RD_25_1.png","C_Dist_300_LN_8_LD_15_RN_10_RD_12_1.png"]],"dist300_I":[["I_Dist_300_LN_1_LD_2_RN_2_RD_10_0.png","I_Dist_300_LN_1_LD_2_RN_3_RD_15_0.png","I_Dist_300_LN_2_LD_4_RN_6_RD_30_0.png","I_Dist_300_LN_3_LD_6_RN_4_RD_20_0.png","I_Dist_300_LN_4_LD_5_RN_6_RD_12_0.png","I_Dist_300_LN_4_LD_5_RN_8_RD_16_0.png","I_Dist_300_LN_7_LD_10_RN_8_RD_20_0.png","I_Dist_300_LN_8_LD_10_RN_14_RD_28_0.png","I_Dist_300_LN_8_LD_10_RN_9_RD_18_0.png"],["I_Dist_300_LN_13_LD_26_RN_12_RD_15_1.png","I_Dist_300_LN_4_LD_20_RN_2_RD_4_1.png"]],"dist300_S":[["E_Dist_300_LN_9_LD_12_RN_9_RD_20_0.png"],["E_Dist_300_LN_18_LD_30_RN_18_RD_20_1.png","E_Dist_300_LN_3_LD_10_RN_3_RD_5_1.png","E_Dist_300_LN_9_LD_20_RN_9_RD_12_1.png"]],"dist500_C":[["C_Dist_500_LN_10_LD_13_RN_7_RD_26_0.png","C_Dist_500_LN_10_LD_15_RN_4_RD_24_0.png","C_Dist_500_LN_12_LD_16_RN_3_RD_12_0.png","C_Dist_500_LN_12_LD_18_RN_4_RD_24_0.png","C_Dist_500_LN_15_LD_18_RN_5_RD_15_0.png","C_Dist_500_LN_15_LD_20_RN_1_RD_4_0.png","C_Dist_500_LN_18_LD_27_RN_1_RD_6_0.png","C_Dist_500_LN_20_LD_24_RN_1_RD_3_0.png","C_Dist_500_LN_20_LD_24_RN_3_RD_9_0.png","C_Dist_500_LN_20_LD_24_RN_7_RD_21_0.png","C_Dist_500_LN_20_LD_28_RN_3_RD_14_0.png","C_Dist_500_LN_21_LD_28_RN_6_RD_24_0.png","C_Dist_500_LN_22_LD_28_RN_2_RD_7_0.png","C_Dist_500_LN_25_LD_30_RN_9_RD_27_0.png","C_Dist_500_LN_4_LD_6_RN_1_RD_6_0.png","C_Dist_500_LN_5_LD_6_RN_2_RD_6_0.png","C_Dist_500_LN_6_LD_9_RN_1_RD_6_0.png","C_Dist_500_LN_7_LD_10_RN_1_RD_5_0.png","C_Dist_500_LN_8_LD_12_RN_1_RD_6_0.png","C_Dist_500_LN_8_LD_12_RN_4_RD_24_0.png"],["C_Dist_500_LN_1_LD_4_RN_12_RD_16_1.png","C_Dist_500_LN_1_LD_4_RN_9_RD_12_1.png","C_Dist_500_LN_1_LD_9_RN_11_RD_18_1.png","C_Dist_500_LN_10_LD_24_RN_22_RD_24_1.png","C_Dist_500_LN_2_LD_12_RN_10_RD_15_1.png","C_Dist_500_LN_2_LD_12_RN_12_RD_18_1.png","C_Dist_500_LN_2_LD_12_RN_4_RD_6_1.png","C_Dist_500_LN_2_LD_24_RN_7_RD_12_1.png","C_Dist_500_LN_2_LD_5_RN_18_RD_20_1.png","C_Dist_500_LN_2_LD_5_RN_9_RD_10_1.png","C_Dist_500_LN_2_LD_8_RN_12_RD_16_1.png","C_Dist_500_LN_2_LD_8_RN_21_RD_28_1.png","C_Dist_500_LN_3_LD_10_RN_4_RD_5_1.png","C_Dist_500_LN_3_LD_12_RN_15_RD_20_1.png","C_Dist_500_LN_3_LD_30_RN_6_RD_10_1.png","C_Dist_500_LN_3_LD_8_RN_14_RD_16_1.png","C_Dist_500_LN_4_LD_16_RN_15_RD_20_1.png","C_Dist_500_LN_4_LD_24_RN_12_RD_18_1.png","C_Dist_500_LN_5_LD_14_RN_6_RD_7_1.png","C_Dist_500_LN_7_LD_21_RN_20_RD_24_1.png","C_Dist_500_LN_7_LD_28_RN_12_RD_16_1.png","C_Dist_500_LN_7_LD_28_RN_9_RD_12_1.png","C_Dist_500_LN_9_LD_27_RN_20_RD_24_1.png"]],"dist500_I":[["I_Dist_500_LN_2_LD_3_RN_4_RD_24_0.png","I_Dist_500_LN_5_LD_6_RN_6_RD_18_0.png","I_Dist_500_LN_7_LD_8_RN_9_RD_24_0.png"],["I_Dist_500_LN_7_LD_21_RN_5_RD_6_1.png"]],"dist500_S":[["E_Dist_500_LN_6_LD_8_RN_6_RD_24_0.png"],["E_Dist_500_LN_2_LD_12_RN_2_RD_3_1.png","E_Dist_500_LN_6_LD_24_RN_6_RD_8_1.png"]]}},{"start_time":1552073494214,"click_time":1552073496522,"finger_time":1552073495962,"fix_duration":250,"trial":1,"RT":1748,"MT":560,"sideResp":1,"stimulus":[],"xmouse":[780,780,780,780,780,780,780,780,780,780,780,780,780,780,780,780,780,780,780,780,780,780,780,780,780,780,780,780,780,780,780,780,780,780,780,780,780,780,780,780,780,780,780,780,780,780,780,780,780,780,780,780,780,780,780,780,780,780,780,780,780,780,780,780,780,780,780,780,780,780,780,780,780,780,780,780,780,780,780,780,780,779,776,774,772,767,760,735,723,714,708,707,701,692,674,669,650,627,617,609,603,597,594,584,583,583,582,582,578,567,550,533,508,504,501,501],"ymouse":[616,616,616,616,616,616,616,616,616,616,616,616,616,616,616,616,616,616,616,616,616,616,616,616,616,616,616,616,616,616,616,616,616,616,616,616,616,616,616,616,616,616,616,616,616,616,616,616,616,616,616,616,616,616,616,616,616,616,616,616,616,616,616,616,616,616,616,616,616,616,616,616,616,616,616,616,616,616,616,616,616,614,608,606,602,591,574,541,526,515,508,503,474,455,426,419,394,352,327,304,281,258,233,198,194,193,192,191,187,179,166,153,126,113,102,92],"timestamp_mouse":[11,47,47,69,88,108,129,148,169,188,208,229,247,268,288,307,329,347,368,388,408,429,448,468,488,509,528,548,567,589,608,629,649,668,688,709,727,748,768,789,807,828,848,868,889,908,929,948,968,988,1009,1029,1048,1069,1089,1109,1128,1149,1168,1189,1209,1228,1248,1269,1289,1309,1328,1349,1368,1388,1408,1429,1449,1469,1489,1508,1529,1549,1569,1587,1609,1628,1649,1667,1689,1709,1728,1748,1768,1787,1809,1828,1851,1867,1888,1907,1928,1948,1968,1989,2008,2029,2049,2069,2088,2107,2127,2148,2168,2188,2209,2228,2249,2268,2289,2307],"xSR":741.5,"ySR":573.95,"xT1":424.9,"yT1":0,"xT2":1058.1,"yT2":0,"toosoon":0,"cond_shown":"Incongruent","ratio_trial":300,"L_num":4,"L_den":20,"R_num":2,"R_den":4,"correct_side":2,"subjID":"sebastianalbarracin14","gender":"0","school":"4","age":"9"},{"start_time":1552073498841,"click_time":1552073500043,"finger_time":1552073499703,"fix_duration":1156.6632942772928,"trial":2,"RT":862,"MT":340,"sideResp":2,"stimulus":[],"xmouse":[794,794,794,794,794,794,794,794,794,794,794,794,794,794,794,794,794,794,794,794,794,794,794,794,794,794,794,794,794,794,794,794,792,790,790,791,791,791,791,791,791,791,797,858,932,1020,1089,1159,1170,1172,1172,1172,1172,1172,1172,1172,1172,1166,1151,1127,1107],"ymouse":[617,617,617,617,617,617,617,617,617,617,617,617,617,617,617,617,617,617,617,617,617,617,617,617,617,617,617,617,617,617,617,617,617,617,615,614,612,612,612,612,612,611,609,575,534,466,386,239,189,174,172,172,172,172,172,172,170,161,141,109,87],"timestamp_mouse":[12,21,41,61,82,101,122,140,162,182,201,222,242,261,282,301,322,340,362,382,400,422,441,461,482,502,522,540,561,581,601,621,640,662,681,701,722,741,762,782,801,822,840,862,881,902,922,941,962,981,1001,1020,1040,1060,1081,1100,1121,1141,1162,1182,1201],"xSR":741.5,"ySR":573.95,"xT1":424.9,"yT1":0,"xT2":1058.1,"yT2":0,"toosoon":0,"cond_shown":"Congruent","ratio_trial":200,"L_num":9,"L_den":20,"R_num":4,"R_den":16,"correct_side":1,"subjID":"sebastianalbarracin14","gender":"0","school":"4","age":"9"},{"start_time":1552073501433,"click_time":1552073502582,"finger_time":1552073502203,"fix_duration":250,"trial":3,"RT":770,"MT":379,"sideResp":1,"stimulus":[],"xmouse":[818,818,818,818,818,818,818,818,818,818,818,818,818,818,818,818,818,818,818,818,818,818,818,818,818,818,818,818,818,818,818,818,818,818,816,814,807,801,785,771,757,735,703,653,640,635,633,633,633,633,633,633,633,631,618,597,569,504],"ymouse":[622,622,622,622,622,622,622,622,622,622,622,622,622,622,622,622,622,622,622,622,622,622,622,622,622,622,622,622,622,622,622,622,622,622,621,619,612,604,571,543,501,431,289,135,115,103,101,101,101,101,101,101,101,99,94,84,72,43],"timestamp_mouse":[15,40,49,69,89,109,129,149,168,188,210,228,249,269,290,309,330,349,369,389,409,430,449,469,490,509,530,549,569,589,608,629,649,669,689,709,729,749,770,790,809,830,849,869,889,910,929,949,969,989,1010,1029,1049,1069,1088,1110,1129,1149],"xSR":741.5,"ySR":573.95,"xT1":424.9,"yT1":0,"xT2":1058.1,"yT2":0,"toosoon":0,"cond_shown":"Congruent","ratio_trial":100,"L_num":8,"L_den":16,"R_num":2,"R_den":5,"correct_side":1,"subjID":"sebastianalbarracin14","gender":"0","school":"4","age":"9"},{"start_time":1552073505074,"click_time":1552073506802,"finger_time":1552073506583,"fix_duration":250,"trial":4,"RT":1509,"MT":219,"sideResp":2,"stimulus":[],"xmouse":[796,796,796,796,796,796,796,796,796,796,796,796,796,796,796,796,796,796,796,796,796,796,796,796,796,796,796,796,796,796,796,796,796,796,796,796,796,796,796,796,796,796,796,796,796,796,796,796,796,796,796,796,796,796,796,796,796,796,796,796,796,796,796,796,796,796,796,796,796,796,796,796,795,797,802,812,861,922,970,1004,1023,1034,1034,1034,1034,1047,1074],"ymouse":[625,625,625,625,625,625,625,625,625,625,625,625,625,625,625,625,625,625,625,625,625,625,625,625,625,625,625,625,625,625,625,625,625,625,625,625,625,625,625,625,625,625,625,625,625,625,625,625,625,625,625,625,625,625,625,625,625,625,625,625,625,625,625,625,625,625,625,625,625,625,625,625,618,609,586,553,420,284,211,166,144,137,137,137,137,120,67],"timestamp_mouse":[14,42,49,68,89,108,129,147,168,188,209,228,248,269,288,309,327,349,368,388,408,428,448,468,487,508,528,548,567,587,608,628,648,668,688,708,727,748,769,789,808,828,849,869,888,908,929,949,969,988,1008,1029,1049,1068,1088,1109,1128,1149,1168,1188,1209,1227,1247,1269,1289,1308,1329,1348,1369,1388,1408,1428,1448,1468,1488,1509,1527,1548,1568,1588,1609,1627,1648,1668,1689,1708,1728],"xSR":741.5,"ySR":573.95,"xT1":424.9,"yT1":0,"xT2":1058.1,"yT2":0,"toosoon":0,"cond_shown":"Congruent","ratio_trial":300,"L_num":20,"L_den":25,"R_num":9,"R_den":18,"correct_side":1,"subjID":"sebastianalbarracin14","gender":"0","school":"4","age":"9"},{"start_time":1552073510660,"click_time":1552073512203,"finger_time":1552073512002,"fix_duration":936.3381844807185,"trial":5,"RT":1342,"MT":201,"sideResp":2,"stimulus":[],"xmouse":[794,794,794,794,794,793,793,791,791,790,790,790,790,790,790,790,790,790,790,790,790,790,790,790,790,790,790,790,790,790,790,790,790,790,790,790,790,790,790,790,790,790,790,790,790,790,790,790,790,790,790,790,790,790,790,790,790,790,790,790,790,790,790,790,790,790,790,874,955,1025,1074,1090,1092,1091,1090,1090,1090,1090],"ymouse":[643,642,640,635,634,633,633,631,631,630,630,630,630,630,630,630,630,630,630,630,630,630,630,630,630,630,630,630,630,630,630,630,630,630,630,630,630,630,630,630,630,630,630,630,630,630,630,630,630,630,630,630,630,630,630,630,630,630,630,630,630,630,630,630,630,628,623,500,383,280,214,193,183,177,160,140,114,80],"timestamp_mouse":[1,23,42,63,81,102,122,141,163,183,201,223,242,263,282,302,322,342,361,382,403,421,442,463,482,503,523,542,561,583,603,621,642,661,682,701,722,742,763,781,803,823,842,862,883,901,922,942,963,982,1002,1023,1041,1063,1082,1102,1122,1141,1162,1182,1203,1221,1243,1262,1283,1302,1322,1342,1361,1383,1403,1423,1442,1462,1482,1503,1522,1542],"xSR":741.5,"ySR":573.95,"xT1":424.9,"yT1":0,"xT2":1058.1,"yT2":0,"toosoon":0,"cond_shown":"Congruent","ratio_trial":300,"L_num":3,"L_den":6,"R_num":4,"R_den":5,"correct_side":2,"subjID":"sebastianalbarracin14","gender":"0","school":"4","age":"9"},{"start_time":1552073514091,"click_time":1552073516143,"finger_time":1552073515742,"fix_duration":1027.4602509750282,"trial":6,"RT":1651,"MT":401,"sideResp":1,"stimulus":[],"xmouse":[786,786,786,786,786,786,786,786,786,786,786,786,786,786,786,786,786,786,786,786,786,786,786,786,786,786,786,786,786,786,786,786,786,786,786,786,786,786,786,786,786,786,786,786,786,786,786,786,786,786,786,786,786,786,786,786,786,786,786,786,786,786,786,786,786,786,786,786,786,786,786,786,786,786,786,786,786,786,786,782,771,758,720,705,691,678,652,640,627,611,599,578,563,557,550,539,515,503,492,486,483,481,478],"ymouse":[633,633,633,633,633,633,633,633,633,633,633,633,633,633,633,633,633,633,633,633,633,633,633,633,633,633,633,633,633,633,633,633,633,633,633,633,633,633,633,633,633,633,633,633,633,633,633,633,633,633,633,633,633,633,633,633,633,633,633,633,633,633,633,633,633,633,633,633,633,633,633,633,633,633,633,633,633,633,633,627,599,575,530,509,489,466,416,391,358,330,309,270,238,223,206,187,149,134,121,112,108,100,88],"timestamp_mouse":[14,42,52,72,91,111,132,152,171,191,212,232,252,271,291,311,332,350,372,391,411,432,452,471,491,512,531,550,571,592,611,631,652,670,691,710,731,752,770,792,810,831,852,871,890,911,931,950,972,992,1012,1031,1052,1072,1091,1111,1131,1150,1171,1192,1211,1232,1252,1272,1291,1312,1331,1351,1372,1391,1411,1431,1450,1471,1490,1512,1531,1552,1572,1592,1612,1631,1651,1671,1691,1712,1732,1752,1771,1791,1811,1831,1852,1871,1890,1911,1931,1951,1971,1991,2010,2033,2052],"xSR":741.5,"ySR":573.95,"xT1":424.9,"yT1":0,"xT2":1058.1,"yT2":0,"toosoon":0,"cond_shown":"Congruent","ratio_trial":100,"L_num":11,"L_den":22,"R_num":4,"R_den":10,"correct_side":1,"subjID":"sebastianalbarracin14","gender":"0","school":"4","age":"9"},{"start_time":1552073518446,"click_time":1552073519882,"finger_time":1552073519521,"fix_duration":1202.3361308827052,"trial":7,"RT":1075,"MT":361,"sideResp":2,"stimulus":[],"xmouse":[788,788,788,788,788,788,788,788,788,788,788,788,788,788,788,788,788,788,788,788,788,788,788,788,788,788,788,788,788,788,788,788,788,788,788,788,788,788,788,788,788,788,788,788,788,788,788,788,788,788,788,794,803,864,880,898,916,928,954,966,975,987,995,1016,1050,1095,1119,1134,1138,1139,1140,1145],"ymouse":[618,618,618,618,618,618,618,618,618,618,618,618,618,618,618,618,618,618,618,618,618,618,618,618,618,618,618,618,618,618,618,618,618,618,618,618,618,618,618,618,618,618,618,618,618,618,618,618,618,618,618,610,597,474,430,384,351,317,231,193,167,136,122,79,18,0,0,0,0,0,0,11],"timestamp_mouse":[17,42,56,75,96,117,137,157,176,195,217,235,255,276,296,316,336,357,376,396,417,437,456,476,496,517,536,557,575,597,617,637,656,675,696,717,737,755,776,795,817,836,857,876,896,915,937,957,976,996,1017,1036,1056,1075,1095,1116,1137,1156,1176,1195,1217,1236,1256,1276,1296,1317,1336,1356,1376,1396,1416,1436],"xSR":741.5,"ySR":573.95,"xT1":424.9,"yT1":0,"xT2":1058.1,"yT2":0,"toosoon":0,"cond_shown":"Incongruent","ratio_trial":200,"L_num":1,"L_den":2,"R_num":3,"R_den":10,"correct_side":1,"subjID":"sebastianalbarracin14","gender":"0","school":"4","age":"9"},{"start_time":1552073522437,"click_time":1552073524043,"finger_time":1552073523543,"fix_duration":1432.210132963656,"trial":8,"RT":1106,"MT":500,"sideResp":1,"stimulus":[],"xmouse":[798,798,798,798,798,798,798,798,798,798,798,798,798,798,798,798,798,798,799,799,799,799,799,799,799,799,799,799,799,799,799,799,799,799,799,799,799,799,799,799,799,797,797,797,797,797,797,797,797,797,797,797,801,809,817,817,814,809,803,792,787,785,777,764,738,637,599,571,556,542,530,526,524,524,524,524,524,524,524,523,511],"ymouse":[596,596,596,597,599,605,607,610,612,616,621,621,621,622,625,631,632,634,635,637,637,637,637,637,637,637,637,637,637,637,637,637,637,637,637,637,637,637,637,637,629,625,625,625,625,625,625,625,625,625,625,622,611,599,578,557,530,501,476,442,431,427,409,386,343,220,188,166,153,143,132,127,126,126,126,126,126,126,125,121,99],"timestamp_mouse":[14,37,45,65,86,105,126,145,165,186,206,224,246,266,285,305,326,344,365,386,404,425,445,466,486,505,526,544,566,585,606,625,646,664,686,705,725,746,766,786,806,825,845,865,886,905,926,946,965,985,1006,1026,1045,1065,1086,1106,1126,1145,1166,1186,1213,1225,1246,1265,1285,1306,1325,1345,1366,1386,1405,1425,1445,1465,1485,1506,1525,1545,1566,1585,1606],"xSR":741.5,"ySR":573.95,"xT1":424.9,"yT1":0,"xT2":1058.1,"yT2":0,"toosoon":0,"cond_shown":"Incongruent","ratio_trial":300,"L_num":2,"L_den":4,"R_num":6,"R_den":30,"correct_side":1,"subjID":"sebastianalbarracin14","gender":"0","school":"4","age":"9"},{"start_time":1552073525510,"click_time":1552073527123,"finger_time":1552073526883,"fix_duration":568.1421787006642,"trial":9,"RT":1373,"MT":240,"sideResp":2,"stimulus":[],"xmouse":[817,817,817,817,817,817,817,817,817,817,817,817,817,817,817,817,816,811,805,805,805,805,805,805,805,805,805,805,805,805,805,805,805,805,805,805,805,805,805,805,805,805,805,805,805,805,805,805,805,805,805,805,805,805,805,805,805,805,805,805,805,805,805,805,805,805,805,818,844,875,901,950,982,999,1007,1013,1017,1030,1039,1050,1061],"ymouse":[622,622,622,622,622,622,622,622,622,622,622,622,622,622,622,622,622,622,622,622,622,622,622,622,622,622,622,622,622,622,622,622,622,622,622,622,622,622,622,622,622,622,622,622,622,622,622,622,622,622,622,622,622,622,622,622,622,622,622,622,622,622,622,622,622,622,616,589,553,505,453,335,264,222,203,189,177,147,120,98,77],"timestamp_mouse":[12,33,53,72,92,111,133,153,171,192,213,232,252,273,293,312,332,353,372,391,413,433,451,472,493,511,531,552,573,591,611,631,652,672,692,713,731,753,772,793,813,833,852,872,892,913,931,953,971,992,1013,1032,1053,1071,1093,1111,1132,1153,1172,1191,1212,1232,1253,1273,1293,1313,1332,1352,1373,1393,1413,1432,1452,1472,1492,1512,1531,1552,1572,1593,1613],"xSR":741.5,"ySR":573.95,"xT1":424.9,"yT1":0,"xT2":1058.1,"yT2":0,"toosoon":0,"cond_shown":"Congruent","ratio_trial":100,"L_num":9,"L_den":15,"R_num":8,"R_den":16,"correct_side":1,"subjID":"sebastianalbarracin14","gender":"0","school":"4","age":"9"},{"start_time":1552073531313,"click_time":1552073532762,"finger_time":1552073532662,"fix_duration":1469.2286472802011,"trial":10,"RT":1349,"MT":100,"sideResp":2,"stimulus":[],"xmouse":[799,799,799,799,799,799,799,799,799,799,799,799,799,799,799,799,799,797,791,786,784,783,783,783,783,783,783,783,783,783,783,783,783,783,783,783,783,783,783,783,783,783,783,783,783,783,783,783,783,783,783,783,783,783,783,783,785,791,794,796,796,796,796,797,798,803,817,896,960,1026,1080,1107,1131],"ymouse":[616,616,616,616,616,616,616,616,616,616,616,616,616,616,616,616,617,617,617,617,617,617,617,617,617,617,617,617,617,617,617,617,617,617,617,617,617,617,617,617,617,617,617,617,617,617,617,617,617,617,617,617,617,617,617,617,617,619,622,622,622,622,622,620,618,608,582,429,317,212,143,109,74],"timestamp_mouse":[25,43,49,69,89,108,128,150,168,189,209,229,250,270,288,310,328,349,370,389,408,430,450,469,489,508,530,550,568,588,609,630,648,670,690,709,730,749,770,790,808,829,849,869,890,910,929,950,969,988,1009,1028,1049,1069,1090,1108,1129,1149,1170,1189,1209,1230,1249,1270,1288,1309,1330,1349,1369,1389,1409,1429,1449],"xSR":741.5,"ySR":573.95,"xT1":424.9,"yT1":0,"xT2":1058.1,"yT2":0,"toosoon":0,"cond_shown":"Incongruent","ratio_trial":200,"L_num":11,"L_den":20,"R_num":3,"R_den":4,"correct_side":2,"subjID":"sebastianalbarracin14","gender":"0","school":"4","age":"9"},{"start_time":1552073534475,"click_time":1552073536362,"finger_time":1552073535962,"fix_duration":811.8186516291534,"trial":11,"RT":1487,"MT":400,"sideResp":2,"stimulus":[],"xmouse":[803,803,803,803,803,803,803,803,803,803,803,803,803,803,803,803,803,803,803,803,803,803,803,803,803,803,803,803,803,803,803,803,803,803,803,803,803,803,803,803,803,803,803,803,803,803,803,803,803,803,803,803,803,806,820,825,826,827,827,827,827,827,827,827,827,827,827,827,827,827,827,827,827,827,856,878,895,903,907,918,928,935,942,953,966,969,971,971,971,974,984,1004,1042,1068,1150],"ymouse":[646,646,646,646,646,646,646,646,646,646,646,646,646,646,646,646,646,646,646,646,646,646,646,646,646,646,646,646,646,646,646,646,646,646,646,646,646,646,646,646,646,646,646,646,646,646,646,646,646,646,646,646,642,635,605,594,589,587,587,587,587,587,587,587,587,587,587,587,587,587,587,587,587,586,533,486,427,382,350,284,252,231,212,174,136,129,127,127,127,126,123,120,108,101,77],"timestamp_mouse":[14,39,48,68,86,106,127,146,168,186,208,227,246,267,288,308,328,346,368,388,408,428,447,466,487,507,527,548,567,586,606,627,647,667,688,706,728,747,767,787,808,827,847,868,888,906,928,947,967,988,1007,1027,1048,1068,1087,1107,1128,1147,1168,1186,1206,1228,1246,1268,1288,1307,1328,1348,1367,1387,1408,1427,1447,1467,1487,1507,1526,1547,1568,1587,1607,1627,1646,1667,1687,1707,1728,1747,1767,1787,1806,1827,1847,1867,1887],"xSR":741.5,"ySR":573.95,"xT1":424.9,"yT1":0,"xT2":1058.1,"yT2":0,"toosoon":0,"cond_shown":"Incongruent","ratio_trial":300,"L_num":4,"L_den":20,"R_num":2,"R_den":4,"correct_side":2,"subjID":"sebastianalbarracin14","gender":"0","school":"4","age":"9"},{"start_time":1552073538894,"click_time":1552073540763,"finger_time":1552073540482,"fix_duration":250,"trial":12,"RT":1588,"MT":281,"sideResp":2,"stimulus":[],"xmouse":[795,795,795,795,795,795,795,795,795,795,795,795,795,795,795,795,795,795,795,795,795,795,795,795,795,795,795,795,795,795,794,794,794,794,794,794,794,794,794,794,794,794,794,794,794,794,794,794,794,794,794,794,794,794,794,794,794,794,794,794,794,794,794,794,794,794,794,794,794,794,794,794,794,794,794,797,803,806,813,841,850,880,891,902,904,909,917,936,961,1014,1038,1065,1075,1089],"ymouse":[643,643,643,643,643,643,643,643,643,643,643,643,643,643,643,642,642,642,642,642,642,642,642,642,642,642,642,642,642,643,645,645,645,645,645,645,645,645,645,645,645,645,645,645,645,645,645,645,645,645,645,645,645,645,645,645,645,645,645,645,645,646,646,646,646,646,646,646,646,646,646,646,646,646,646,640,633,628,619,533,500,419,393,366,359,343,324,285,240,169,147,118,106,89],"timestamp_mouse":[15,34,49,68,88,109,129,149,168,189,209,228,249,267,289,308,328,348,369,389,408,428,447,469,489,509,529,548,569,588,609,628,649,668,689,708,727,749,769,787,809,829,847,869,889,909,928,947,969,989,1009,1029,1048,1067,1089,1108,1129,1148,1169,1189,1208,1229,1249,1269,1288,1308,1327,1348,1369,1388,1409,1429,1448,1467,1489,1509,1528,1549,1568,1588,1608,1629,1649,1669,1687,1709,1728,1748,1768,1788,1808,1828,1849,1869],"xSR":741.5,"ySR":573.95,"xT1":424.9,"yT1":0,"xT2":1058.1,"yT2":0,"toosoon":0,"cond_shown":"Congruent","ratio_trial":200,"L_num":3,"L_den":10,"R_num":11,"R_den":22,"correct_side":2,"subjID":"sebastianalbarracin14","gender":"0","school":"4","age":"9"},{"start_time":1552073542361,"click_time":1552073550602,"finger_time":1552073550263,"fix_duration":736.8701047002418,"trial":13,"RT":7902,"MT":339,"sideResp":2,"stimulus":[],"xmouse":[798,798,798,798,798,798,798,798,798,798,798,798,798,798,798,798,798,798,798,798,798,798,798,798,798,798,798,798,798,798,798,798,798,798,798,798,798,798,798,798,798,798,798,798,798,798,798,798,798,798,798,798,798,798,798,798,798,798,798,798,798,798,798,798,798,798,798,798,798,798,798,798,798,798,798,798,798,798,798,798,798,798,798,798,798,798,798,798,798,798,798,798,798,798,798,798,798,798,798,798,798,798,798,798,798,798,798,798,798,798,798,798,798,798,798,798,798,798,798,798,798,798,798,798,798,798,798,798,798,798,798,798,798,798,798,798,798,798,798,798,798,798,798,798,798,798,798,798,798,798,798,798,798,798,798,798,798,798,798,798,798,798,798,798,798,798,798,798,798,798,798,798,798,798,798,798,798,798,798,798,798,798,798,798,798,798,798,798,798,798,798,798,798,798,798,798,798,798,798,798,798,798,798,798,798,798,798,798,798,798,798,798,798,798,798,798,798,798,798,798,798,798,798,798,798,798,798,798,798,798,798,798,798,798,798,798,798,798,798,798,798,798,798,798,798,798,798,798,798,798,798,798,798,798,798,798,798,798,798,798,804,809,809,810,810,810,810,810,810,810,810,810,810,810,810,810,810,810,810,810,810,810,810,810,810,810,810,810,810,810,810,810,810,810,810,810,810,810,810,810,810,810,810,810,810,810,810,810,810,810,810,810,810,810,810,810,810,810,810,810,810,810,810,810,810,810,810,810,810,810,810,810,810,810,810,810,810,810,810,810,810,810,810,810,810,810,810,810,810,810,810,810,810,810,810,810,810,810,810,810,810,810,810,810,810,810,810,810,810,810,810,809,807,806,806,806,806,806,806,806,806,806,806,806,806,806,806,806,806,806,806,806,806,812,821,829,840,880,908,929,948,967,982,986,992,1002,1011,1050,1068,1082,1091,1093,1099],"ymouse":[636,636,636,636,636,636,636,636,636,636,636,636,636,636,636,636,636,636,636,636,636,636,636,636,636,636,636,636,636,636,636,636,636,636,636,636,636,636,636,636,636,636,636,636,636,636,636,636,636,636,636,636,636,636,636,636,636,636,636,636,636,636,636,636,636,636,636,636,636,636,636,636,636,636,636,636,636,636,636,636,636,636,636,636,636,636,636,636,636,636,636,636,636,636,636,636,636,636,636,636,636,636,636,636,636,636,636,636,636,636,636,636,636,636,636,636,636,636,636,636,636,636,636,636,636,636,636,636,636,636,636,636,636,636,636,636,636,636,636,636,636,636,636,636,636,636,636,636,636,636,636,636,636,636,636,636,636,636,636,636,636,636,636,636,636,636,636,636,636,636,636,636,636,636,636,636,636,636,636,636,636,636,636,636,636,636,636,636,636,636,636,636,636,636,636,636,636,636,636,636,636,636,636,636,636,636,636,636,636,636,636,636,636,636,636,636,636,636,636,636,636,636,636,636,636,636,636,636,636,636,636,636,636,636,636,636,636,636,636,636,636,636,636,636,636,636,636,636,636,636,636,636,636,636,636,636,636,636,636,636,626,618,617,617,617,617,617,617,617,617,617,617,617,617,617,617,617,617,617,617,617,617,617,617,617,617,617,617,617,617,617,617,617,617,617,617,617,617,617,617,617,617,617,617,617,617,617,617,617,617,617,617,617,617,617,617,617,617,617,617,617,617,617,617,617,617,617,617,617,617,617,617,617,617,617,617,617,617,617,617,617,617,617,617,617,617,617,617,617,617,617,617,617,617,617,617,617,617,617,617,617,617,617,617,617,617,617,617,617,613,611,609,607,605,603,603,603,603,603,603,603,603,603,603,603,603,603,603,603,603,602,601,600,593,580,562,540,454,402,346,305,273,249,242,236,229,222,183,158,140,128,113,83],"timestamp_mouse":[12,40,40,62,80,102,120,141,162,182,202,222,242,261,280,302,322,341,361,382,402,420,442,462,482,501,521,541,561,581,600,622,642,662,682,701,721,742,761,781,802,820,841,861,882,902,921,941,961,981,1001,1021,1042,1062,1082,1101,1122,1141,1162,1182,1201,1222,1242,1262,1281,1300,1321,1341,1361,1382,1401,1422,1441,1461,1481,1501,1520,1540,1561,1581,1602,1620,1642,1662,1681,1701,1721,1742,1761,1782,1800,1821,1842,1862,1881,1902,1922,1941,1962,1981,2001,2021,2042,2062,2080,2102,2122,2141,2162,2181,2201,2240,2241,2261,2281,2301,2321,2342,2361,2382,2402,2422,2440,2462,2481,2502,2521,2541,2562,2580,2602,2620,2641,2662,2681,2702,2720,2742,2762,2780,2800,2821,2841,2861,2880,2901,2921,2940,2961,2981,3002,3020,3042,3061,3081,3102,3121,3142,3162,3181,3201,3221,3241,3262,3282,3304,3321,3341,3362,3381,3402,3421,3442,3461,3482,3501,3521,3541,3560,3581,3602,3621,3642,3661,3682,3702,3721,3741,3762,3782,3802,3820,3842,3862,3881,3902,3921,3942,3962,3980,4002,4021,4042,4061,4080,4102,4121,4142,4160,4182,4201,4221,4241,4262,4281,4301,4321,4340,4360,4380,4402,4421,4440,4460,4480,4500,4522,4542,4561,4581,4601,4621,4640,4662,4682,4702,4721,4742,4761,4782,4801,4821,4842,4860,4881,4902,4921,4941,4962,4982,5001,5021,5040,5062,5081,5102,5120,5140,5162,5182,5202,5222,5241,5261,5282,5301,5321,5342,5362,5380,5402,5421,5442,5462,5482,5502,5522,5541,5561,5580,5602,5621,5641,5662,5682,5700,5722,5742,5760,5782,5802,5821,5842,5862,5882,5902,5922,5942,5962,5980,6002,6022,6042,6061,6081,6102,6120,6142,6160,6181,6201,6222,6242,6260,6280,6302,6321,6340,6362,6381,6402,6421,6441,6461,6482,6502,6520,6542,6561,6580,6602,6621,6642,6662,6681,6700,6721,6741,6761,6781,6802,6822,6841,6862,6880,6902,6922,6942,6961,6982,7000,7022,7041,7061,7081,7102,7122,7141,7161,7181,7202,7221,7242,7260,7282,7301,7322,7340,7361,7381,7402,7422,7442,7460,7482,7502,7522,7541,7561,7580,7601,7622,7640,7661,7682,7701,7721,7742,7762,7782,7801,7821,7841,7860,7880,7902,7921,7942,7961,7980,8001,8021,8041,8062,8081,8100,8121,8141,8161,8181,8201,8221,8241],"xSR":741.5,"ySR":573.95,"xT1":424.9,"yT1":0,"xT2":1058.1,"yT2":0,"toosoon":0,"cond_shown":"Incongruent","ratio_trial":100,"L_num":9,"L_den":15,"R_num":13,"R_den":26,"correct_side":1,"subjID":"sebastianalbarracin14","gender":"0","school":"4","age":"9"},{"start_time":1552073551793,"click_time":1552073553363,"finger_time":1552073552962,"fix_duration":369.18039199529574,"trial":14,"RT":1169,"MT":401,"sideResp":2,"stimulus":[],"xmouse":[772,772,772,772,772,772,772,772,772,772,772,772,772,772,772,772,772,772,772,772,772,772,772,772,772,772,772,772,772,772,772,772,772,772,772,772,772,772,772,772,772,772,772,772,772,772,772,772,772,772,772,772,772,772,773,781,797,822,855,895,963,978,983,984,984,984,984,984,987,990,1000,1002,1003,1008,1016,1035,1046,1056,1063],"ymouse":[633,633,633,633,633,633,633,633,633,633,633,633,633,633,633,633,633,633,633,632,632,632,632,632,632,632,632,632,632,632,632,632,632,632,632,632,632,632,632,632,632,632,632,632,632,632,632,632,632,632,632,632,632,632,631,624,611,587,555,514,411,380,358,337,309,245,209,179,154,129,92,89,87,79,68,52,45,40,37],"timestamp_mouse":[14,35,49,69,90,109,129,150,170,189,209,229,248,270,290,309,329,349,370,388,408,429,450,469,490,510,529,548,570,590,610,628,649,668,688,708,729,749,770,788,809,829,850,870,888,910,929,950,969,989,1008,1028,1050,1070,1089,1109,1128,1149,1169,1189,1210,1230,1248,1270,1289,1309,1329,1350,1369,1389,1409,1429,1448,1469,1490,1509,1529,1550,1570],"xSR":741.5,"ySR":573.95,"xT1":424.9,"yT1":0,"xT2":1058.1,"yT2":0,"toosoon":0,"cond_shown":"Congruent","ratio_trial":200,"L_num":6,"L_den":12,"R_num":7,"R_den":10,"correct_side":2,"subjID":"sebastianalbarracin14","gender":"0","school":"4","age":"9"},{"start_time":1552073554941,"click_time":1552073556923,"finger_time":1552073556583,"fix_duration":638.7334203503774,"trial":15,"RT":1642,"MT":340,"sideResp":1,"stimulus":[],"xmouse":[809,809,809,809,809,809,809,809,809,809,809,809,809,809,809,809,809,809,809,809,809,809,809,809,809,809,809,809,809,809,809,809,809,809,809,809,809,809,809,809,809,809,809,809,809,809,809,809,809,809,809,809,809,809,809,809,809,809,809,809,809,809,809,809,809,809,809,809,809,809,809,809,809,809,805,801,798,795,794,792,787,772,754,711,673,631,597,553,472,453,438,428,409,390,389,389,394,401,410,443],"ymouse":[609,609,609,609,609,609,609,609,609,609,609,609,609,609,609,609,609,609,609,609,609,609,609,609,609,609,609,609,609,609,609,609,609,609,609,609,609,609,609,609,609,609,609,609,609,609,609,609,609,609,609,609,609,609,609,609,609,609,609,609,609,609,609,609,609,609,609,609,609,609,609,609,609,609,608,606,604,602,600,598,591,575,556,513,469,423,383,338,269,251,230,209,167,109,92,80,67,59,50,30],"timestamp_mouse":[15,21,40,60,81,101,122,141,161,182,202,221,242,261,282,302,321,342,361,381,401,420,441,461,482,500,522,540,561,582,602,622,640,661,682,701,721,741,761,780,802,821,841,862,880,901,922,941,961,982,1001,1020,1041,1061,1080,1102,1122,1141,1161,1182,1202,1221,1242,1261,1282,1301,1322,1342,1361,1381,1402,1421,1442,1461,1481,1502,1521,1542,1561,1582,1602,1622,1642,1662,1680,1701,1722,1741,1761,1780,1801,1820,1840,1862,1881,1901,1921,1941,1962,1982],"xSR":741.5,"ySR":573.95,"xT1":424.9,"yT1":0,"xT2":1058.1,"yT2":0,"toosoon":0,"cond_shown":"Congruent","ratio_trial":100,"L_num":3,"L_den":6,"R_num":2,"R_den":5,"correct_side":1,"subjID":"sebastianalbarracin14","gender":"0","school":"4","age":"9"},{"start_time":1552073558980,"click_time":1552073560741,"finger_time":1552073560462,"fix_duration":1254.5711724910457,"trial":16,"RT":1482,"MT":279,"sideResp":1,"stimulus":[],"xmouse":[798,798,798,798,798,798,798,798,798,798,798,798,798,798,798,798,798,798,798,798,798,798,798,798,798,798,798,798,798,798,798,798,798,798,798,798,798,798,798,798,798,798,798,798,798,798,798,798,798,798,798,798,798,798,798,798,798,798,798,798,798,798,798,798,798,798,797,789,784,780,778,775,764,750,726,686,645,587,568,559,554,554,553,551,545,535,525,507,491],"ymouse":[627,627,627,627,627,627,627,627,627,627,627,627,627,627,627,627,627,627,627,627,627,627,627,627,627,627,627,627,627,627,627,627,627,627,627,627,627,627,627,627,627,627,627,627,627,627,627,627,627,627,627,627,627,627,627,627,627,627,627,627,627,627,627,627,627,627,627,627,627,627,627,625,611,592,554,494,432,329,284,264,244,225,198,189,178,165,149,117,89],"timestamp_mouse":[14,23,43,62,82,101,122,142,163,183,202,222,241,263,283,303,323,342,361,383,402,423,441,461,483,503,522,542,561,582,602,622,642,661,682,703,723,742,762,782,803,823,842,861,881,903,922,941,961,983,1001,1023,1043,1063,1083,1103,1123,1143,1162,1183,1202,1223,1243,1262,1283,1303,1323,1341,1362,1382,1401,1422,1442,1463,1482,1503,1522,1542,1563,1582,1602,1623,1642,1663,1683,1703,1722,1742,1761],"xSR":741.5,"ySR":573.95,"xT1":424.9,"yT1":0,"xT2":1058.1,"yT2":0,"toosoon":0,"cond_shown":"Incongruent","ratio_trial":100,"L_num":9,"L_den":15,"R_num":13,"R_den":26,"correct_side":1,"subjID":"sebastianalbarracin14","gender":"0","school":"4","age":"9"},{"start_time":1552073562355,"click_time":1552073564503,"finger_time":1552073564003,"fix_duration":931.2514337493892,"trial":17,"RT":1648,"MT":500,"sideResp":1,"stimulus":[],"xmouse":[773,773,773,773,773,773,773,773,773,773,773,773,773,773,773,773,773,773,773,773,773,773,773,773,773,773,773,773,773,773,773,773,773,773,773,773,773,773,773,773,773,773,773,773,773,773,773,773,773,773,773,773,773,773,773,773,773,773,773,773,773,773,773,773,773,773,773,773,773,773,773,773,773,773,773,773,772,771,766,763,760,757,755,746,741,735,720,714,668,642,616,597,587,572,568,563,562,551,533,528,524,520,516,507,499,490,484,479],"ymouse":[631,631,631,631,631,631,631,631,631,631,631,631,631,631,631,631,631,631,631,631,631,631,631,631,631,631,631,631,631,631,631,631,631,631,631,631,631,631,631,631,631,631,631,631,631,631,631,631,631,631,631,631,631,631,631,631,631,631,631,631,631,631,631,631,631,631,631,631,631,631,631,631,631,631,631,631,630,629,617,609,596,585,571,544,533,522,497,486,424,391,352,320,296,258,242,213,206,177,145,140,135,132,129,122,116,109,103,98],"timestamp_mouse":[20,37,47,68,87,107,128,148,167,187,207,227,247,266,288,306,327,348,368,386,406,427,448,468,486,507,526,547,567,587,607,627,648,667,686,707,727,748,767,787,808,827,847,867,887,908,928,947,967,987,1008,1027,1048,1067,1086,1107,1127,1148,1167,1188,1207,1227,1246,1266,1288,1308,1328,1347,1366,1387,1408,1428,1447,1467,1487,1506,1526,1547,1567,1588,1607,1628,1648,1667,1686,1707,1726,1748,1767,1787,1807,1827,1848,1867,1887,1907,1927,1948,1967,1986,2008,2027,2047,2067,2087,2107,2127,2148],"xSR":741.5,"ySR":573.95,"xT1":424.9,"yT1":0,"xT2":1058.1,"yT2":0,"toosoon":0,"cond_shown":"Incongruent","ratio_trial":200,"L_num":1,"L_den":3,"R_num":2,"R_den":15,"correct_side":1,"subjID":"sebastianalbarracin14","gender":"0","school":"4","age":"9"},{"start_time":1552073565656,"click_time":1552073566942,"finger_time":1552073566782,"fix_duration":250,"trial":18,"RT":1126,"MT":160,"sideResp":1,"stimulus":[],"xmouse":[808,808,808,808,808,808,808,808,807,807,807,807,807,806,806,806,806,806,806,806,806,806,806,806,806,806,806,806,806,806,806,806,806,806,806,806,806,806,806,806,806,806,806,806,806,806,806,806,806,806,804,801,800,798,795,789,778,758,732,659,610,550,531,518,495],"ymouse":[617,617,617,617,617,617,617,617,617,617,617,617,617,617,617,617,617,617,617,617,617,617,617,617,617,617,617,617,617,617,617,617,617,617,617,617,617,617,617,617,617,617,617,617,617,617,617,617,617,617,617,617,617,612,608,599,572,514,452,295,219,144,125,111,79],"timestamp_mouse":[13,33,47,67,86,107,127,146,167,186,206,225,247,267,287,305,327,347,367,387,407,425,447,467,485,507,525,545,565,587,606,627,646,667,686,707,726,747,767,786,807,827,847,865,887,906,927,947,965,987,1007,1026,1046,1067,1087,1107,1126,1146,1167,1186,1206,1226,1246,1266,1286],"xSR":741.5,"ySR":573.95,"xT1":424.9,"yT1":0,"xT2":1058.1,"yT2":0,"toosoon":0,"cond_shown":"Congruent","ratio_trial":300,"L_num":20,"L_den":25,"R_num":9,"R_den":18,"correct_side":1,"subjID":"sebastianalbarracin14","gender":"0","school":"4","age":"9"},{"start_time":1552073568785,"click_time":1552073570642,"finger_time":1552073570163,"fix_duration":1041.556342529751,"trial":19,"RT":1378,"MT":479,"sideResp":2,"stimulus":[],"xmouse":[796,796,796,796,796,794,793,789,789,789,789,789,789,789,788,787,782,775,773,772,772,772,772,772,772,772,772,772,772,772,772,772,772,772,772,772,772,772,772,772,772,772,772,772,772,772,772,772,772,772,772,772,772,772,772,772,772,772,772,772,772,772,772,772,772,772,772,776,810,845,898,960,1089,1125,1136,1138,1138,1139,1143,1162,1173,1175,1175,1175,1175,1175,1174,1171,1171,1171,1171,1169,1152],"ymouse":[609,609,609,609,609,609,609,608,608,608,608,608,608,608,608,607,606,606,606,606,606,606,606,606,606,606,606,606,606,606,606,606,606,606,606,606,606,606,606,606,606,606,606,606,606,606,606,606,606,606,606,606,606,606,606,606,606,606,606,606,606,606,606,606,606,606,603,597,567,538,495,438,313,270,260,255,251,227,200,137,79,50,33,33,33,32,32,29,29,29,29,29,35],"timestamp_mouse":[21,47,57,78,97,118,137,157,177,197,218,237,258,277,297,318,338,357,377,398,417,437,458,478,498,517,538,558,576,596,618,638,658,677,697,716,738,756,777,796,818,837,857,878,896,917,937,956,977,996,1018,1038,1057,1076,1098,1117,1138,1158,1176,1196,1218,1238,1258,1278,1296,1317,1337,1356,1378,1397,1417,1437,1456,1477,1496,1517,1537,1557,1577,1598,1618,1637,1656,1678,1697,1718,1737,1757,1778,1796,1818,1837,1857],"xSR":741.5,"ySR":573.95,"xT1":424.9,"yT1":0,"xT2":1058.1,"yT2":0,"toosoon":0,"cond_shown":"Incongruent","ratio_trial":300,"L_num":13,"L_den":26,"R_num":12,"R_den":15,"correct_side":2,"subjID":"sebastianalbarracin14","gender":"0","school":"4","age":"9"},{"start_time":1552073573069,"click_time":1552073574362,"finger_time":1552073574023,"fix_duration":865.7770517437806,"trial":20,"RT":954,"MT":339,"sideResp":1,"stimulus":[],"xmouse":[783,783,783,783,783,783,783,783,783,783,783,783,783,783,783,783,783,783,783,783,783,783,783,783,783,783,783,783,783,783,783,783,783,783,783,783,783,783,783,783,783,783,783,783,783,782,780,751,731,713,708,702,699,683,672,663,644,634,624,615,606,592,574,536,510],"ymouse":[635,635,635,635,635,635,635,635,635,635,635,635,635,635,635,635,635,635,635,635,635,635,635,635,635,635,635,635,635,635,635,635,635,635,635,635,635,635,635,635,635,635,635,635,635,633,616,543,485,430,416,407,398,369,350,333,307,291,279,263,252,234,208,129,86],"timestamp_mouse":[13,33,54,74,92,114,133,153,173,194,213,233,254,272,293,314,334,352,372,394,414,434,454,474,493,514,533,552,574,593,614,634,654,673,694,712,733,753,773,794,812,833,853,873,893,914,932,954,972,993,1013,1033,1054,1074,1093,1113,1133,1154,1174,1194,1213,1232,1252,1274,1293],"xSR":741.5,"ySR":573.95,"xT1":424.9,"yT1":0,"xT2":1058.1,"yT2":0,"toosoon":0,"cond_shown":"Congruent","ratio_trial":200,"L_num":11,"L_den":22,"R_num":3,"R_den":10,"correct_side":1,"subjID":"sebastianalbarracin14","gender":"0","school":"4","age":"9"},{"start_time":1552073576726,"click_time":1552073578262,"finger_time":1552073577823,"fix_duration":1482.729590767006,"trial":21,"RT":1097,"MT":439,"sideResp":2,"stimulus":[],"xmouse":[793,793,793,793,793,793,793,793,793,793,793,793,793,793,793,793,793,793,793,793,793,793,793,793,793,793,793,793,793,793,793,793,793,793,793,793,793,793,793,793,793,793,793,793,793,793,793,793,793,793,793,796,799,799,799,799,804,809,812,815,817,837,841,861,896,940,1023,1047,1062,1071,1077,1082,1083,1086,1092,1093,1092],"ymouse":[628,628,628,628,628,628,628,628,628,628,628,628,628,628,628,628,628,628,628,628,628,628,628,628,628,628,628,628,628,628,628,628,628,628,628,628,628,628,628,628,628,628,628,628,628,628,628,628,628,627,622,598,581,575,570,563,542,533,527,523,520,491,487,459,414,363,264,235,212,197,184,165,146,126,114,103,86],"timestamp_mouse":[23,41,56,75,96,116,137,157,175,197,215,237,257,275,296,317,335,357,376,395,417,436,456,475,497,516,536,556,577,597,615,637,656,676,697,717,735,757,776,796,815,837,855,876,897,917,935,955,976,996,1017,1036,1057,1076,1097,1117,1136,1157,1176,1197,1215,1235,1255,1276,1297,1316,1336,1357,1376,1396,1416,1435,1456,1475,1497,1517,1536],"xSR":741.5,"ySR":573.95,"xT1":424.9,"yT1":0,"xT2":1058.1,"yT2":0,"toosoon":0,"cond_shown":"Incongruent","ratio_trial":100,"L_num":17,"L_den":30,"R_num":10,"R_den":15,"correct_side":2,"subjID":"sebastianalbarracin14","gender":"0","school":"4","age":"9"},{"start_time":1552073579906,"click_time":1552073581162,"finger_time":1552073580782,"fix_duration":861.22369501105,"trial":22,"RT":876,"MT":380,"sideResp":2,"stimulus":[],"xmouse":[791,791,791,791,791,791,791,791,791,791,791,791,791,791,791,791,791,791,791,791,791,791,791,791,791,791,791,791,791,791,791,791,791,791,791,791,791,791,791,791,791,793,796,804,816,838,859,900,918,931,945,959,961,964,966,970,976,999,1013,1026,1033,1044,1080],"ymouse":[628,628,628,628,628,628,628,628,628,628,628,628,628,628,628,628,628,628,628,628,628,628,628,628,628,628,628,628,628,628,628,628,628,628,628,628,628,628,628,626,622,616,574,548,500,441,390,298,262,230,205,184,181,177,176,171,162,136,124,113,106,95,67],"timestamp_mouse":[15,39,56,76,95,116,135,156,176,196,217,237,256,277,297,315,337,356,376,396,417,435,455,476,495,516,537,556,576,596,615,637,656,677,696,716,737,756,776,797,815,837,856,876,895,916,936,956,975,996,1016,1036,1056,1077,1096,1117,1135,1156,1175,1196,1217,1236,1256],"xSR":741.5,"ySR":573.95,"xT1":424.9,"yT1":0,"xT2":1058.1,"yT2":0,"toosoon":0,"cond_shown":"Incongruent","ratio_trial":200,"L_num":14,"L_den":30,"R_num":12,"R_den":18,"correct_side":2,"subjID":"sebastianalbarracin14","gender":"0","school":"4","age":"9"},{"start_time":1552073583012,"click_time":1552073584863,"finger_time":1552073584382,"fix_duration":908.3778184909523,"trial":23,"RT":1370,"MT":481,"sideResp":1,"stimulus":[],"xmouse":[794,794,794,794,794,794,794,794,794,794,794,794,794,794,794,794,794,794,794,794,794,794,794,794,794,794,794,794,794,794,794,794,794,794,794,794,794,794,794,794,794,794,794,794,794,794,794,794,794,794,794,793,798,799,799,799,799,799,799,799,799,799,799,799,799,799,795,789,764,735,699,653,577,532,483,414,382,335,320,307,298,294,294,294,295,299,305,311,338,352,373,400,425],"ymouse":[619,619,619,619,619,619,619,619,619,619,619,619,619,619,619,619,619,619,619,619,619,619,619,619,619,619,619,619,619,619,619,619,619,619,619,619,619,619,619,619,619,619,619,619,619,619,619,619,619,619,619,618,607,606,606,606,606,606,606,606,606,606,606,606,606,604,596,581,518,470,430,396,315,268,226,175,154,123,109,93,80,72,66,65,63,63,63,63,63,63,62,58,55],"timestamp_mouse":[20,43,50,71,90,109,131,151,171,189,211,231,251,271,290,309,330,351,371,391,410,429,451,471,491,510,531,551,569,590,610,629,651,671,690,711,730,751,770,791,809,829,851,871,889,911,931,950,970,991,1011,1030,1051,1070,1091,1111,1130,1151,1171,1191,1209,1229,1250,1271,1291,1311,1331,1350,1370,1391,1410,1431,1451,1470,1490,1509,1530,1551,1570,1591,1610,1630,1651,1669,1689,1710,1729,1750,1770,1791,1811,1830,1851],"xSR":741.5,"ySR":573.95,"xT1":424.9,"yT1":0,"xT2":1058.1,"yT2":0,"toosoon":0,"cond_shown":"Incongruent","ratio_trial":100,"L_num":11,"L_den":22,"R_num":9,"R_den":15,"correct_side":2,"subjID":"sebastianalbarracin14","gender":"0","school":"4","age":"9"},{"start_time":1552073587341,"click_time":1552073589263,"finger_time":1552073588862,"fix_duration":1235.030446596818,"trial":24,"RT":1521,"MT":401,"sideResp":2,"stimulus":[],"xmouse":[772,772,772,772,772,772,772,772,772,772,772,772,772,772,772,772,772,772,772,772,772,772,772,772,772,772,772,772,772,772,772,772,772,772,772,772,772,772,772,772,772,772,772,772,772,772,772,772,772,772,772,772,772,772,772,772,772,772,772,772,772,772,772,772,772,772,772,772,772,772,772,772,772,772,780,787,811,847,872,907,942,978,1018,1021,1021,1021,1023,1026,1027,1028,1028,1028,1032,1037,1047,1058,1069],"ymouse":[634,634,634,634,634,634,634,634,634,634,634,634,634,634,634,634,634,634,634,634,634,634,634,634,634,634,634,634,634,634,634,634,634,634,634,634,634,634,634,634,634,634,634,634,634,634,634,634,634,634,634,634,634,634,634,634,634,634,634,634,634,634,634,634,634,634,634,634,634,634,634,634,634,634,616,579,511,465,440,409,373,326,234,179,143,127,114,101,100,98,97,97,89,82,72,67,63],"timestamp_mouse":[11,21,42,61,81,101,122,142,161,181,201,221,241,261,283,302,322,342,361,382,403,421,441,463,483,501,522,541,561,581,602,621,641,661,681,702,722,741,761,782,802,822,842,861,882,903,922,941,961,983,1001,1021,1041,1061,1081,1101,1122,1141,1162,1182,1202,1221,1242,1262,1281,1302,1321,1342,1362,1381,1402,1422,1441,1462,1483,1502,1521,1541,1561,1582,1601,1621,1641,1661,1681,1701,1722,1742,1761,1781,1801,1821,1841,1861,1882,1902,1922],"xSR":741.5,"ySR":573.95,"xT1":424.9,"yT1":0,"xT2":1058.1,"yT2":0,"toosoon":0,"cond_shown":"Congruent","ratio_trial":100,"L_num":2,"L_den":5,"R_num":11,"R_den":22,"correct_side":2,"subjID":"sebastianalbarracin14","gender":"0","school":"4","age":"9"},{"start_time":1552073590437,"click_time":1552073592384,"finger_time":1552073591503,"fix_duration":331.23322292981504,"trial":25,"RT":1066,"MT":881,"sideResp":2,"stimulus":[],"xmouse":[778,778,778,778,778,778,778,778,778,778,778,778,778,778,778,778,778,778,778,778,778,778,778,778,778,778,778,778,778,778,778,778,778,778,778,778,778,778,778,778,778,778,778,778,778,778,778,778,778,778,778,776,744,727,714,707,704,702,702,702,702,701,699,696,696,696,696,703,719,745,815,868,906,941,942,941,939,925,915,909,907,907,925,949,976,1010,1036,1048,1061,1065,1069,1070,1078,1080,1083,1083,1083,1083],"ymouse":[627,627,627,627,627,627,627,627,627,627,627,627,627,627,627,627,627,627,627,627,627,627,627,627,627,627,627,627,627,627,627,627,627,627,627,627,627,627,627,627,627,627,627,627,627,627,627,627,627,627,627,621,575,543,522,513,507,503,500,499,496,493,487,469,462,456,454,456,464,478,511,532,547,560,562,566,572,598,614,621,623,623,570,508,446,395,356,335,304,291,259,241,201,178,151,125,104,68],"timestamp_mouse":[20,27,45,65,85,105,126,145,165,186,205,225,246,265,285,307,325,345,365,385,405,425,445,465,485,505,525,545,566,585,605,626,645,665,685,705,725,745,765,786,806,825,846,865,886,905,927,946,965,985,1005,1025,1046,1066,1087,1106,1126,1146,1166,1185,1205,1225,1246,1266,1286,1305,1325,1347,1365,1385,1405,1426,1445,1465,1485,1506,1526,1546,1565,1585,1605,1626,1646,1665,1686,1705,1725,1745,1765,1786,1805,1825,1846,1865,1885,1905,1926,1946],"xSR":741.5,"ySR":573.95,"xT1":424.9,"yT1":0,"xT2":1058.1,"yT2":0,"toosoon":0,"cond_shown":"Incongruent","ratio_trial":200,"L_num":3,"L_den":10,"R_num":1,"R_den":2,"correct_side":2,"subjID":"sebastianalbarracin14","gender":"0","school":"4","age":"9"},{"start_time":1552073595423,"click_time":1552073597723,"finger_time":1552073597383,"fix_duration":799.164437769319,"trial":26,"RT":1960,"MT":340,"sideResp":1,"stimulus":[],"xmouse":[804,803,803,798,794,794,794,794,794,794,794,794,794,794,794,794,794,794,793,793,793,793,793,793,793,793,793,793,793,793,793,793,793,793,793,793,793,793,793,793,793,793,793,793,793,793,793,793,793,793,793,793,793,793,793,793,793,793,793,793,793,793,793,793,793,793,793,793,793,793,793,793,793,793,793,793,793,793,793,793,793,793,793,793,793,793,793,793,793,793,793,793,793,793,793,785,778,746,734,655,625,603,577,557,518,512,512,512,512,510,510,510,509,507,505,500],"ymouse":[659,651,651,621,601,601,601,601,601,601,601,601,601,601,604,607,611,616,620,620,620,620,620,620,620,620,620,620,620,620,620,620,620,620,620,620,620,620,620,620,620,620,620,620,620,620,620,620,620,620,620,620,620,620,620,620,620,620,620,620,620,620,620,620,620,620,620,620,620,620,620,620,620,620,620,620,620,620,620,620,620,620,620,620,620,620,620,620,620,620,620,620,620,620,620,620,620,604,587,477,440,409,379,354,272,210,158,135,123,117,115,114,111,107,103,95],"timestamp_mouse":[1,30,40,59,79,100,120,139,159,180,199,219,240,260,279,299,320,340,359,380,399,419,440,459,479,499,519,539,559,579,599,619,639,660,680,699,720,740,759,779,799,820,840,860,880,899,920,940,959,979,999,1019,1039,1059,1079,1099,1121,1140,1159,1179,1199,1219,1240,1260,1279,1299,1319,1339,1360,1379,1399,1420,1440,1459,1479,1500,1520,1541,1560,1579,1600,1619,1640,1659,1679,1700,1720,1740,1760,1779,1800,1819,1840,1859,1879,1900,1920,1940,1960,1979,1999,2019,2040,2059,2079,2099,2119,2140,2159,2179,2199,2219,2239,2259,2279,2300],"xSR":741.5,"ySR":573.95,"xT1":424.9,"yT1":0,"xT2":1058.1,"yT2":0,"toosoon":0,"cond_shown":"Incongruent","ratio_trial":300,"L_num":7,"L_den":10,"R_num":8,"R_den":20,"correct_side":1,"subjID":"sebastianalbarracin14","gender":"0","school":"4","age":"9"},{"start_time":1552073599294,"click_time":1552073600842,"finger_time":1552073600683,"fix_duration":569.4033238455977,"trial":27,"RT":1389,"MT":159,"sideResp":1,"stimulus":[],"xmouse":[783,783,783,783,783,783,783,783,784,784,784,784,784,784,784,784,784,784,784,784,784,784,784,784,784,784,784,784,784,784,784,784,784,784,784,784,784,784,784,784,784,784,784,784,784,784,784,784,784,784,784,784,784,784,784,784,784,784,784,784,784,784,784,784,784,784,785,782,770,753,734,695,684,668,649,568,529,506],"ymouse":[609,609,609,609,609,609,609,609,609,609,609,609,609,609,609,609,609,609,609,609,609,609,609,609,609,609,609,609,609,609,609,609,609,609,609,609,609,609,609,609,609,609,609,609,609,609,609,609,609,609,609,609,609,609,609,609,609,609,609,609,609,609,609,609,609,609,609,599,578,557,534,467,443,415,372,214,137,86],"timestamp_mouse":[14,43,49,68,89,109,129,148,169,189,208,229,249,269,289,309,328,348,369,389,409,428,449,468,488,509,529,548,568,589,609,630,649,669,688,709,729,748,768,788,808,829,848,870,889,909,928,949,968,988,1009,1028,1049,1068,1090,1109,1129,1148,1170,1189,1209,1229,1249,1268,1289,1308,1328,1349,1370,1389,1408,1428,1448,1468,1489,1509,1528,1548],"xSR":741.5,"ySR":573.95,"xT1":424.9,"yT1":0,"xT2":1058.1,"yT2":0,"toosoon":0,"cond_shown":"Incongruent","ratio_trial":300,"L_num":4,"L_den":5,"R_num":6,"R_den":12,"correct_side":1,"subjID":"sebastianalbarracin14","gender":"0","school":"4","age":"9"},{"start_time":1552073602909,"click_time":1552073605482,"finger_time":1552073604542,"fix_duration":1085.994836025442,"trial":28,"RT":1633,"MT":940,"sideResp":1,"stimulus":[],"xmouse":[801,801,801,801,801,801,801,801,801,801,801,801,801,801,801,801,801,801,801,801,801,801,801,801,801,801,801,801,801,801,801,801,801,801,801,801,801,801,801,801,801,801,801,801,801,801,801,801,801,801,801,801,801,801,801,801,801,801,801,801,801,801,801,801,801,801,801,801,801,801,801,801,801,801,801,801,801,801,801,801,807,821,851,884,918,982,998,1009,1013,1015,1017,1019,1022,1023,1023,1023,1023,1023,1023,1022,1011,1005,994,980,959,920,897,863,838,811,770,758,750,742,732,701,688,672,658,643,625,614,604,591,579,553,539,526,522],"ymouse":[598,598,598,598,598,598,598,598,598,598,598,598,598,598,598,598,598,598,598,598,598,598,598,598,598,598,598,598,598,598,598,598,598,598,598,598,598,598,598,598,598,598,598,598,598,598,598,598,598,598,598,598,598,598,598,598,598,598,598,598,598,598,598,598,598,598,598,598,598,598,598,598,598,598,598,598,598,598,598,598,579,555,511,458,413,333,315,300,293,288,278,270,262,257,255,255,255,255,255,257,278,290,307,325,346,394,414,437,451,464,470,468,458,440,407,311,264,215,180,152,121,106,93,81,70,56,52,49,48],"timestamp_mouse":[15,42,53,73,94,113,134,155,174,193,214,233,253,273,294,314,334,353,373,393,414,434,453,474,494,513,535,554,573,594,614,633,653,673,693,713,734,754,773,794,813,834,854,873,893,914,933,954,973,994,1013,1034,1053,1073,1093,1113,1133,1153,1173,1193,1215,1233,1253,1273,1293,1314,1333,1353,1375,1394,1413,1434,1453,1473,1494,1513,1534,1555,1573,1594,1613,1633,1654,1674,1694,1713,1733,1754,1774,1793,1813,1834,1855,1874,1893,1913,1934,1954,1973,1994,2013,2033,2053,2074,2094,2113,2133,2153,2173,2193,2213,2234,2254,2273,2293,2313,2333,2353,2374,2394,2413,2434,2453,2474,2493,2513,2534,2554,2573],"xSR":741.5,"ySR":573.95,"xT1":424.9,"yT1":0,"xT2":1058.1,"yT2":0,"toosoon":0,"cond_shown":"Congruent","ratio_trial":300,"L_num":8,"L_den":16,"R_num":1,"R_den":5,"correct_side":1,"subjID":"sebastianalbarracin14","gender":"0","school":"4","age":"9"},{"start_time":1552073607565,"click_time":1552073609203,"finger_time":1552073608923,"fix_duration":1240.5440293425688,"trial":29,"RT":1358,"MT":280,"sideResp":2,"stimulus":[],"xmouse":[769,769,769,769,769,769,769,769,769,769,769,769,769,769,769,769,769,769,769,769,769,769,769,769,769,769,769,769,769,769,769,769,769,769,769,769,769,769,769,769,769,769,769,769,769,769,769,769,769,769,769,769,769,769,769,769,769,769,769,769,769,769,769,769,769,771,787,889,946,983,1003,1014,1025,1072,1082,1097,1113,1122,1131,1131,1131,1131],"ymouse":[610,610,610,610,610,610,610,610,610,610,610,610,610,610,610,610,610,610,610,610,610,610,610,610,610,610,610,610,610,610,610,610,610,610,610,610,610,610,610,610,610,610,610,610,610,610,610,610,610,610,610,610,610,610,610,610,610,610,610,610,610,610,610,610,610,608,583,453,391,345,329,319,305,250,238,222,202,187,155,133,110,95],"timestamp_mouse":[19,41,58,78,98,118,137,158,178,197,217,237,257,277,297,317,338,357,377,398,418,438,458,478,497,518,538,558,578,597,618,637,657,678,698,717,738,758,778,798,818,837,857,878,898,917,937,958,978,998,1018,1038,1058,1077,1098,1118,1138,1158,1177,1199,1218,1238,1258,1279,1298,1318,1338,1358,1377,1397,1417,1438,1457,1477,1498,1517,1537,1558,1577,1597,1617,1637],"xSR":741.5,"ySR":573.95,"xT1":424.9,"yT1":0,"xT2":1058.1,"yT2":0,"toosoon":0,"cond_shown":"Congruent","ratio_trial":200,"L_num":3,"L_den":12,"R_num":9,"R_den":20,"correct_side":2,"subjID":"sebastianalbarracin14","gender":"0","school":"4","age":"9"},{"start_time":1552073610436,"click_time":1552073611863,"finger_time":1552073611503,"fix_duration":250,"trial":30,"RT":1067,"MT":360,"sideResp":1,"stimulus":[],"xmouse":[791,788,788,784,782,776,775,773,771,770,769,769,769,769,769,769,769,769,769,769,769,769,769,769,769,769,769,769,769,769,769,769,769,769,769,769,769,769,769,769,769,769,769,769,769,769,769,769,769,769,766,761,753,741,719,658,641,626,612,603,591,585,579,571,563,547,542,534,526,521,514,507],"ymouse":[618,618,618,619,620,624,625,626,626,626,626,626,626,626,626,626,626,626,626,626,626,626,626,626,626,626,626,626,626,626,626,626,627,627,627,627,627,627,627,627,627,627,627,627,627,627,627,627,627,627,617,599,578,557,523,442,417,387,361,347,331,317,302,280,256,199,180,163,145,130,114,94],"timestamp_mouse":[15,39,46,67,87,107,127,147,167,187,206,227,247,267,288,306,327,346,366,387,406,427,447,466,488,507,528,546,566,586,606,628,647,667,686,706,727,746,768,786,806,826,847,866,886,906,926,946,967,986,1007,1027,1047,1067,1086,1106,1126,1146,1167,1187,1206,1227,1246,1268,1287,1307,1326,1347,1366,1386,1406,1426],"xSR":741.5,"ySR":573.95,"xT1":424.9,"yT1":0,"xT2":1058.1,"yT2":0,"toosoon":0,"cond_shown":"Congruent","ratio_trial":300,"L_num":20,"L_den":25,"R_num":5,"R_den":10,"correct_side":1,"subjID":"sebastianalbarracin14","gender":"0","school":"4","age":"9"},{"start_time":1552073614038,"click_time":1552073615403,"finger_time":1552073615182,"fix_duration":1295.2147738801839,"trial":31,"RT":1144,"MT":221,"sideResp":2,"stimulus":[],"xmouse":[811,811,811,811,811,811,811,811,810,810,806,806,805,805,805,805,805,805,805,805,805,805,805,805,805,805,805,805,805,805,805,805,805,805,805,805,805,805,805,805,810,812,812,812,812,812,814,815,817,821,823,825,827,828,830,835,840,845,850,853,858,864,885,918,953,1038,1074,1098,1110],"ymouse":[641,641,641,641,641,641,641,641,640,639,635,634,633,632,632,632,632,632,632,632,632,632,632,632,632,632,632,632,632,632,632,632,632,632,632,632,632,632,632,632,632,633,633,633,633,633,633,633,632,625,623,620,619,618,615,607,600,594,587,582,574,560,517,463,387,231,162,103,65],"timestamp_mouse":[13,36,44,65,85,104,125,145,165,185,204,225,244,264,285,304,324,344,365,384,404,426,445,464,485,504,525,544,565,585,604,624,645,664,684,704,724,744,764,785,805,824,844,865,885,904,924,945,965,985,1005,1024,1045,1065,1085,1104,1125,1144,1164,1184,1204,1225,1245,1264,1284,1304,1324,1344,1365],"xSR":741.5,"ySR":573.95,"xT1":424.9,"yT1":0,"xT2":1058.1,"yT2":0,"toosoon":0,"cond_shown":"Incongruent","ratio_trial":300,"L_num":4,"L_den":20,"R_num":2,"R_den":4,"correct_side":2,"subjID":"sebastianalbarracin14","gender":"0","school":"4","age":"9"},{"start_time":1552073617191,"click_time":1552073619323,"finger_time":1552073618722,"fix_duration":947.0666239115556,"trial":32,"RT":1531,"MT":601,"sideResp":1,"stimulus":[],"xmouse":[793,793,793,793,793,793,793,793,793,793,793,793,793,793,793,793,793,793,793,793,793,793,793,793,793,793,793,793,793,793,793,793,793,793,793,793,793,793,793,793,793,793,793,793,793,793,793,793,793,793,793,793,793,793,793,793,793,793,793,793,793,793,793,793,793,793,793,793,793,793,793,793,789,784,777,772,762,753,710,695,683,674,662,642,633,624,615,608,592,584,577,569,555,531,527,526,526,526,526,526,526,526,526,526,526,526,524],"ymouse":[654,654,654,654,654,654,654,654,654,654,654,654,654,654,654,654,654,654,654,654,654,654,654,654,654,654,654,654,654,654,654,654,654,654,654,654,654,654,654,654,654,654,654,654,654,654,654,654,654,654,654,654,654,654,654,654,654,654,654,654,654,654,654,654,654,654,654,654,654,654,654,654,637,619,600,579,546,511,399,368,351,336,315,279,262,247,232,215,186,166,150,130,107,77,73,73,73,73,73,73,73,73,73,73,73,73,72],"timestamp_mouse":[13,34,51,71,91,112,132,152,172,193,212,231,252,272,291,313,331,351,372,393,411,432,452,471,491,511,532,552,572,592,612,631,652,672,691,712,731,752,772,791,811,831,851,872,891,911,931,952,971,992,1012,1032,1051,1072,1091,1111,1132,1152,1173,1192,1211,1231,1252,1272,1292,1311,1332,1352,1373,1392,1413,1432,1452,1472,1491,1512,1531,1551,1571,1591,1611,1632,1652,1672,1691,1711,1731,1751,1771,1792,1811,1832,1851,1872,1892,1912,1932,1952,1972,1991,2012,2031,2052,2071,2091,2112,2132],"xSR":741.5,"ySR":573.95,"xT1":424.9,"yT1":0,"xT2":1058.1,"yT2":0,"toosoon":0,"cond_shown":"Incongruent","ratio_trial":300,"L_num":4,"L_den":5,"R_num":6,"R_den":12,"correct_side":1,"subjID":"sebastianalbarracin14","gender":"0","school":"4","age":"9"},{"start_time":1552073620575,"click_time":1552073621963,"finger_time":1552073621424,"fix_duration":250,"trial":33,"RT":849,"MT":539,"sideResp":2,"stimulus":[],"xmouse":[761,761,761,761,761,761,761,764,767,794,802,809,815,819,821,821,821,821,821,821,821,821,821,821,821,822,822,820,817,808,803,798,795,794,793,793,793,793,793,793,798,804,812,818,823,829,846,875,904,940,954,960,966,967,976,988,1002,1023,1041,1078,1082,1085,1090,1093,1098,1100,1100,1100,1099,1096],"ymouse":[631,631,631,631,631,631,631,629,628,623,623,624,627,627,628,628,628,628,628,628,628,628,628,628,628,630,631,634,637,643,645,648,648,648,649,649,649,649,649,642,629,602,562,521,463,445,417,378,347,312,297,290,281,278,266,253,236,218,205,177,173,167,159,155,142,135,125,113,103,97],"timestamp_mouse":[14,39,47,68,88,107,127,148,167,187,207,228,247,268,287,308,328,347,368,388,408,428,447,467,488,507,527,548,568,587,608,628,647,667,688,708,728,747,767,787,807,828,849,868,887,908,927,948,968,989,1008,1027,1048,1068,1087,1107,1128,1148,1167,1187,1207,1227,1247,1268,1287,1308,1328,1348,1368,1388],"xSR":741.5,"ySR":573.95,"xT1":424.9,"yT1":0,"xT2":1058.1,"yT2":0,"toosoon":0,"cond_shown":"Congruent","ratio_trial":300,"L_num":1,"L_den":20,"R_num":7,"R_den":20,"correct_side":2,"subjID":"sebastianalbarracin14","gender":"0","school":"4","age":"9"},{"start_time":1552073625386,"click_time":1552073626742,"finger_time":1552073626282,"fix_duration":981.275829304245,"trial":34,"RT":896,"MT":460,"sideResp":2,"stimulus":[],"xmouse":[789,789,789,789,789,789,789,789,789,789,789,789,789,789,789,789,789,789,789,789,789,789,789,789,789,789,789,789,789,789,789,789,789,789,789,789,789,789,789,789,790,793,796,807,820,824,835,843,865,880,895,908,924,955,975,996,1018,1029,1048,1056,1065,1072,1077,1092,1106,1111,1122,1129],"ymouse":[629,629,629,629,629,629,629,629,629,629,629,629,629,629,629,629,629,629,629,629,629,629,629,629,629,629,629,629,629,629,629,629,629,629,629,629,629,629,629,629,623,619,612,590,571,565,538,516,463,442,419,397,376,331,304,274,245,229,196,186,175,167,160,145,133,128,114,99],"timestamp_mouse":[23,38,56,77,97,116,137,156,176,196,216,236,256,276,296,316,337,357,377,397,417,437,456,477,497,517,536,557,577,597,616,638,657,677,697,717,737,756,777,797,817,836,858,877,896,916,936,956,976,997,1017,1037,1056,1077,1096,1116,1136,1157,1177,1196,1218,1237,1257,1277,1296,1316,1336,1356],"xSR":741.5,"ySR":573.95,"xT1":424.9,"yT1":0,"xT2":1058.1,"yT2":0,"toosoon":0,"cond_shown":"Incongruent","ratio_trial":300,"L_num":4,"L_den":20,"R_num":2,"R_den":4,"correct_side":2,"subjID":"sebastianalbarracin14","gender":"0","school":"4","age":"9"},{"start_time":1552073630288,"click_time":1552073632182,"finger_time":1552073631442,"fix_duration":1085.5724241973926,"trial":35,"RT":1154,"MT":740,"sideResp":2,"stimulus":[],"xmouse":[791,791,791,791,789,789,789,789,789,789,789,789,789,789,789,789,789,789,789,789,789,789,789,789,789,789,789,789,789,789,789,789,789,789,789,789,789,789,789,789,789,789,789,789,789,789,789,790,790,790,790,791,792,794,800,804,811,819,827,834,834,836,840,845,875,900,922,942,967,985,987,988,989,992,999,1002,1003,1003,1003,1003,1004,1006,1010,1016,1028,1033,1036,1040,1040,1044,1047,1050,1053,1057,1072],"ymouse":[616,616,616,617,619,619,619,619,619,619,619,619,619,619,619,619,619,619,619,619,619,619,619,619,619,619,619,619,619,619,619,619,619,619,619,619,619,619,619,619,619,619,619,619,619,619,620,620,621,621,621,621,619,615,602,590,580,564,549,534,533,529,520,507,449,407,365,314,229,141,127,112,97,79,52,45,42,42,42,42,41,41,41,41,42,43,45,46,46,46,46,46,46,46,46],"timestamp_mouse":[14,43,56,74,94,115,135,154,175,194,214,235,255,276,295,315,335,354,374,394,414,434,456,474,494,515,536,555,574,595,615,634,654,674,694,715,734,754,775,794,815,834,855,875,894,914,934,954,975,994,1014,1034,1054,1074,1094,1114,1135,1154,1175,1195,1215,1234,1255,1275,1294,1315,1335,1354,1375,1394,1414,1435,1455,1474,1495,1514,1535,1554,1575,1594,1615,1635,1656,1674,1694,1714,1734,1754,1775,1794,1816,1834,1855,1874,1894],"xSR":741.5,"ySR":573.95,"xT1":424.9,"yT1":0,"xT2":1058.1,"yT2":0,"toosoon":0,"cond_shown":"Congruent","ratio_trial":200,"L_num":3,"L_den":10,"R_num":11,"R_den":22,"correct_side":2,"subjID":"sebastianalbarracin14","gender":"0","school":"4","age":"9"},{"start_time":1552073633579,"click_time":1552073635023,"finger_time":1552073634663,"fix_duration":494.38046356231126,"trial":36,"RT":1084,"MT":360,"sideResp":1,"stimulus":[],"xmouse":[770,770,770,770,772,774,784,786,787,787,787,787,789,789,789,789,789,789,789,789,789,789,789,789,789,789,789,789,789,789,789,789,789,789,789,789,789,789,789,789,789,789,789,789,789,789,789,789,789,789,789,789,789,782,753,704,604,577,562,553,550,550,555,555,555,555,555,555,552,548,534,526,519],"ymouse":[630,630,630,630,630,630,630,630,630,630,630,630,630,630,630,630,630,630,630,630,630,630,630,630,630,630,630,630,630,630,630,630,630,630,630,630,630,630,630,630,630,630,630,630,630,630,630,630,630,630,630,630,630,604,553,475,329,281,260,242,211,188,157,123,103,83,69,66,64,61,55,54,53],"timestamp_mouse":[11,34,44,64,84,103,123,145,164,184,203,224,244,263,285,304,323,344,363,383,403,423,444,463,484,503,525,544,565,584,603,623,644,663,684,704,723,743,764,783,803,823,844,863,884,904,924,943,964,983,1003,1023,1045,1063,1084,1104,1124,1143,1164,1183,1204,1223,1243,1263,1284,1303,1323,1343,1364,1383,1404,1423,1444],"xSR":741.5,"ySR":573.95,"xT1":424.9,"yT1":0,"xT2":1058.1,"yT2":0,"toosoon":0,"cond_shown":"Incongruent","ratio_trial":300,"L_num":8,"L_den":10,"R_num":9,"R_den":18,"correct_side":1,"subjID":"sebastianalbarracin14","gender":"0","school":"4","age":"9"},{"start_time":1552073638261,"click_time":1552073639262,"finger_time":1552073639102,"fix_duration":575.4311263086098,"trial":37,"RT":841,"MT":160,"sideResp":2,"stimulus":[],"xmouse":[805,805,803,801,801,801,800,798,797,797,797,797,797,797,797,796,794,791,791,791,791,791,791,791,791,791,791,791,791,791,791,791,791,791,791,791,791,791,791,791,791,794,811,833,863,901,939,1025,1044,1057,1064],"ymouse":[622,622,620,620,620,620,620,620,620,620,620,620,620,620,620,620,621,622,622,622,622,622,622,622,622,622,622,622,622,622,622,622,622,622,622,622,622,622,622,622,622,605,525,449,369,280,204,67,40,25,14],"timestamp_mouse":[7,25,41,62,81,101,122,141,162,182,201,222,241,262,281,301,322,341,362,382,401,422,442,461,481,501,521,543,562,581,602,622,642,661,681,702,722,741,762,782,801,822,841,862,882,901,922,941,961,981,1001],"xSR":741.5,"ySR":573.95,"xT1":424.9,"yT1":0,"xT2":1058.1,"yT2":0,"toosoon":0,"cond_shown":"Congruent","ratio_trial":200,"L_num":3,"L_den":10,"R_num":11,"R_den":22,"correct_side":2,"subjID":"sebastianalbarracin14","gender":"0","school":"4","age":"9"},{"start_time":1552073641085,"click_time":1552073643142,"finger_time":1552073642643,"fix_duration":580.0356002269967,"trial":38,"RT":1558,"MT":499,"sideResp":1,"stimulus":[],"xmouse":[802,802,802,802,802,802,802,802,802,802,802,802,802,802,802,802,802,802,802,802,802,802,802,802,802,802,802,802,802,802,802,802,802,802,802,802,802,802,802,802,802,802,802,802,802,802,802,802,802,802,802,802,802,802,802,802,802,802,802,802,802,802,802,802,802,802,802,802,802,802,802,802,802,802,802,800,779,732,672,615,521,489,469,453,441,438,433,433,432,428,424,423,420,417,417,416,415,415,415,415,416,424,435],"ymouse":[614,614,614,614,614,614,614,614,614,614,614,614,614,614,614,614,614,614,614,614,614,614,614,614,614,614,614,614,614,614,614,614,614,614,614,614,614,614,614,614,614,614,614,614,614,614,614,614,614,614,614,614,614,614,614,614,614,614,614,614,614,614,614,614,614,614,614,614,614,614,614,614,614,614,614,614,602,556,491,428,358,340,328,317,304,293,261,238,213,190,165,151,134,111,87,76,75,75,75,75,74,74,73],"timestamp_mouse":[17,37,57,79,97,117,137,157,178,198,217,237,257,278,298,317,337,359,378,398,417,438,459,478,498,517,537,558,578,598,618,637,657,677,698,717,738,757,777,798,817,838,858,878,898,917,937,958,978,998,1017,1038,1058,1078,1098,1117,1139,1158,1178,1197,1217,1238,1258,1278,1298,1317,1337,1358,1378,1398,1417,1437,1458,1477,1497,1517,1538,1558,1578,1598,1617,1637,1657,1678,1698,1718,1738,1757,1777,1797,1817,1837,1858,1878,1898,1918,1937,1957,1977,1997,2017,2037,2057],"xSR":741.5,"ySR":573.95,"xT1":424.9,"yT1":0,"xT2":1058.1,"yT2":0,"toosoon":0,"cond_shown":"Congruent","ratio_trial":300,"L_num":3,"L_den":6,"R_num":2,"R_den":10,"correct_side":1,"subjID":"sebastianalbarracin14","gender":"0","school":"4","age":"9"},{"start_time":1552073644554,"click_time":1552073646143,"finger_time":1552073645883,"fix_duration":250,"trial":39,"RT":1329,"MT":260,"sideResp":1,"stimulus":[],"xmouse":[753,753,753,753,753,753,753,753,753,753,753,753,753,753,753,753,753,753,753,753,753,753,753,753,753,753,753,753,753,753,753,753,753,753,753,755,757,761,761,761,761,761,761,761,761,761,761,761,761,761,761,761,761,761,761,761,761,761,761,761,761,761,762,761,757,752,738,718,641,581,548,519,498,471,460,452,448,448,448,450],"ymouse":[651,651,651,651,651,651,651,651,651,651,651,651,651,651,651,651,651,651,651,651,651,651,651,651,651,651,651,651,651,651,651,651,651,651,651,651,651,651,651,651,651,651,651,651,651,651,651,651,651,651,651,651,651,651,651,651,651,651,651,651,651,651,650,647,643,633,615,578,459,379,328,277,240,192,166,142,127,117,103,92],"timestamp_mouse":[19,35,49,68,89,108,128,148,168,188,208,229,248,268,288,309,330,349,368,389,409,429,449,470,488,508,529,550,569,589,608,629,648,668,688,708,729,750,768,789,809,828,849,868,889,908,929,948,968,988,1009,1028,1048,1068,1089,1109,1128,1149,1169,1190,1209,1229,1248,1268,1289,1308,1329,1349,1368,1389,1409,1428,1449,1469,1488,1508,1528,1549,1568,1589],"xSR":741.5,"ySR":573.95,"xT1":424.9,"yT1":0,"xT2":1058.1,"yT2":0,"toosoon":0,"cond_shown":"Congruent","ratio_trial":100,"L_num":4,"L_den":8,"R_num":6,"R_den":10,"correct_side":2,"subjID":"sebastianalbarracin14","gender":"0","school":"4","age":"9"},{"start_time":1552073648488,"click_time":1552073649823,"finger_time":1552073649302,"fix_duration":1284.990667961199,"trial":40,"RT":814,"MT":521,"sideResp":2,"stimulus":[],"xmouse":[803,803,803,803,803,803,803,803,803,803,803,803,803,803,803,803,803,803,803,803,803,803,803,803,803,803,803,803,803,803,803,803,803,803,803,803,804,809,818,830,850,909,936,964,991,1017,1068,1088,1101,1110,1116,1119,1123,1125,1129,1132,1132,1129,1127,1127,1127,1129,1132,1133,1133,1133,1133],"ymouse":[634,634,634,634,634,634,634,634,634,634,634,634,634,634,634,634,634,634,634,634,634,634,634,634,634,634,634,634,634,634,634,634,634,634,634,634,634,631,621,608,582,515,485,459,432,408,358,334,317,305,294,289,279,272,258,238,187,179,177,170,160,150,129,121,115,108,85],"timestamp_mouse":[14,38,54,74,95,115,135,154,176,195,215,234,254,275,295,314,334,354,374,396,414,434,456,474,494,514,535,555,576,594,614,634,655,676,694,715,734,756,776,795,814,834,855,874,895,916,934,954,975,994,1014,1034,1054,1075,1095,1115,1134,1155,1176,1195,1215,1234,1254,1276,1296,1315,1335],"xSR":741.5,"ySR":573.95,"xT1":424.9,"yT1":0,"xT2":1058.1,"yT2":0,"toosoon":0,"cond_shown":"Congruent","ratio_trial":300,"L_num":1,"L_den":5,"R_num":11,"R_den":22,"correct_side":2,"subjID":"sebastianalbarracin14","gender":"0","school":"4","age":"9"},{"start_time":1552073651468,"click_time":1552073652803,"finger_time":1552073652584,"fix_duration":782.0320671771308,"trial":41,"RT":1116,"MT":219,"sideResp":2,"stimulus":[],"xmouse":[773,773,773,773,773,773,773,773,773,773,773,773,773,773,773,773,773,773,773,773,773,773,773,773,773,773,773,773,773,773,773,773,773,773,773,773,773,773,773,773,773,773,773,773,773,773,773,773,773,785,791,806,812,817,827,844,868,895,982,991,1011,1035,1050,1077,1094,1112,1129],"ymouse":[640,640,640,640,640,640,640,640,640,640,640,640,640,640,640,640,640,640,640,640,640,640,640,640,640,640,640,640,640,640,640,640,640,640,640,640,640,640,640,640,640,640,640,640,640,640,640,640,640,632,627,611,601,595,582,562,534,508,432,422,391,338,303,225,182,139,98],"timestamp_mouse":[20,44,54,75,95,114,135,155,174,196,214,236,254,274,296,314,334,355,375,394,415,435,455,474,496,516,536,554,574,596,615,636,654,675,696,715,734,755,775,794,814,836,855,874,895,914,936,955,974,996,1016,1035,1055,1075,1095,1116,1135,1155,1174,1194,1215,1234,1254,1274,1296,1314,1335],"xSR":741.5,"ySR":573.95,"xT1":424.9,"yT1":0,"xT2":1058.1,"yT2":0,"toosoon":0,"cond_shown":"Incongruent","ratio_trial":200,"L_num":14,"L_den":30,"R_num":12,"R_den":18,"correct_side":2,"subjID":"sebastianalbarracin14","gender":"0","school":"4","age":"9"},{"start_time":1552073656290,"click_time":1552073657464,"finger_time":1552073657103,"fix_duration":1125.6430474229899,"trial":42,"RT":813,"MT":361,"sideResp":2,"stimulus":[],"xmouse":[797,797,797,797,797,797,797,797,797,797,797,797,797,797,797,797,797,797,797,797,797,797,797,797,797,797,797,797,797,797,797,797,797,797,799,802,804,807,811,819,834,863,932,960,983,1004,1008,1023,1033,1042,1051,1059,1063,1068,1069,1072,1080,1085,1088],"ymouse":[633,633,633,633,633,633,633,633,633,633,633,633,633,633,633,633,633,633,633,633,633,633,633,633,633,633,633,633,633,633,633,633,633,633,632,632,631,628,619,602,571,521,394,329,268,229,223,198,185,169,153,140,133,125,123,119,108,101,98],"timestamp_mouse":[15,40,53,73,92,113,134,152,173,192,212,234,252,272,293,313,334,352,372,393,414,433,452,472,494,514,533,552,572,593,614,633,652,673,692,713,734,752,772,793,813,834,853,874,893,912,933,952,974,993,1013,1032,1052,1073,1092,1112,1132,1152,1174],"xSR":741.5,"ySR":573.95,"xT1":424.9,"yT1":0,"xT2":1058.1,"yT2":0,"toosoon":0,"cond_shown":"Congruent","ratio_trial":300,"L_num":2,"L_den":20,"R_num":10,"R_den":25,"correct_side":2,"subjID":"sebastianalbarracin14","gender":"0","school":"4","age":"9"},{"start_time":1552073658635,"click_time":1552073660463,"finger_time":1552073659804,"fix_duration":250,"trial":43,"RT":1169,"MT":659,"sideResp":1,"stimulus":[],"xmouse":[812,812,812,812,812,812,812,812,812,812,812,812,812,812,812,812,812,812,812,812,812,812,812,812,812,812,813,813,817,820,828,832,834,834,834,834,831,827,824,824,824,824,824,824,824,824,824,824,824,824,824,824,824,824,823,823,822,819,808,802,801,801,801,800,800,805,816,825,829,825,815,810,802,793,781,736,703,681,653,641,631,621,619,616,615,612,609,605,586,569,527,513],"ymouse":[638,638,638,638,638,638,638,638,638,638,638,638,638,638,638,638,638,638,638,638,638,638,638,638,638,638,636,631,610,603,594,590,588,588,588,588,592,597,600,600,601,601,601,601,601,601,601,601,601,601,601,601,601,601,601,601,597,591,572,565,564,563,563,562,561,528,492,442,381,320,275,256,238,222,204,165,143,133,122,114,109,105,105,105,104,104,102,100,88,80,73,73],"timestamp_mouse":[13,39,48,68,87,108,127,148,168,188,207,228,248,267,287,308,328,349,368,387,407,428,447,468,488,507,527,548,569,589,608,628,648,667,688,708,727,748,768,787,807,828,849,867,889,908,927,947,969,988,1007,1028,1048,1067,1088,1108,1128,1148,1169,1188,1208,1229,1248,1267,1288,1309,1328,1348,1368,1388,1408,1427,1447,1468,1487,1508,1528,1547,1567,1587,1608,1628,1649,1667,1688,1708,1728,1748,1769,1788,1808,1828],"xSR":741.5,"ySR":573.95,"xT1":424.9,"yT1":0,"xT2":1058.1,"yT2":0,"toosoon":0,"cond_shown":"Incongruent","ratio_trial":100,"L_num":8,"L_den":16,"R_num":6,"R_den":10,"correct_side":2,"subjID":"sebastianalbarracin14","gender":"0","school":"4","age":"9"},{"start_time":1552073664320,"click_time":1552073666063,"finger_time":1552073665263,"fix_duration":1435.7775834565416,"trial":44,"RT":943,"MT":800,"sideResp":1,"stimulus":[],"xmouse":[775,775,775,775,775,775,775,775,775,775,775,775,775,775,775,775,775,775,775,775,775,775,775,775,775,775,775,775,775,775,775,775,775,775,775,775,775,775,775,775,777,779,784,790,798,803,806,812,813,813,814,814,815,817,819,824,830,853,864,880,895,908,920,921,921,922,922,925,927,929,930,930,930,930,927,924,919,909,905,903,899,879,812,752,688,624,573,516],"ymouse":[631,631,631,631,631,631,631,631,631,631,631,631,631,631,631,631,631,631,631,631,631,631,631,631,631,631,631,631,631,631,631,631,631,631,631,631,631,631,631,631,631,631,624,614,599,590,582,573,572,571,569,567,562,558,552,543,533,494,468,431,384,343,292,286,284,281,279,273,271,268,267,267,267,267,270,275,279,285,285,285,285,276,233,206,165,130,100,72],"timestamp_mouse":[20,41,42,62,83,102,122,143,163,182,203,223,243,263,282,304,322,343,363,382,404,423,443,462,483,503,524,543,563,582,602,622,643,663,683,703,724,742,764,783,803,823,842,863,883,903,923,943,963,983,1004,1024,1042,1062,1083,1102,1122,1142,1162,1183,1204,1223,1243,1263,1283,1303,1324,1342,1363,1384,1403,1422,1443,1462,1482,1502,1524,1542,1562,1583,1603,1623,1643,1662,1682,1703,1723,1743],"xSR":741.5,"ySR":573.95,"xT1":424.9,"yT1":0,"xT2":1058.1,"yT2":0,"toosoon":0,"cond_shown":"Congruent","ratio_trial":300,"L_num":5,"L_den":25,"R_num":6,"R_den":12,"correct_side":2,"subjID":"sebastianalbarracin14","gender":"0","school":"4","age":"9"},{"start_time":1552073667714,"click_time":1552073668664,"finger_time":1552073668562,"fix_duration":810.4564081485602,"trial":45,"RT":848,"MT":102,"sideResp":2,"stimulus":[],"xmouse":[796,796,796,796,796,796,796,796,796,796,796,796,794,794,793,793,793,793,793,793,793,793,793,793,793,793,793,793,793,793,793,793,793,793,793,793,793,793,793,793,793,795,834,872,935,1006,1062,1138],"ymouse":[606,606,606,606,606,606,606,606,606,606,606,606,607,609,610,610,610,610,610,610,610,610,610,610,610,610,610,610,610,610,610,610,610,610,610,610,610,610,610,610,608,593,514,464,377,284,205,81],"timestamp_mouse":[13,33,49,69,89,108,128,149,168,189,210,229,248,268,288,308,329,349,368,388,410,429,449,469,489,510,529,549,569,589,608,629,648,669,690,708,728,748,769,788,809,829,848,868,889,908,928,949],"xSR":741.5,"ySR":573.95,"xT1":424.9,"yT1":0,"xT2":1058.1,"yT2":0,"toosoon":0,"cond_shown":"Congruent","ratio_trial":200,"L_num":5,"L_den":10,"R_num":14,"R_den":20,"correct_side":2,"subjID":"sebastianalbarracin14","gender":"0","school":"4","age":"9"},{"start_time":1552073669855,"click_time":1552073671183,"finger_time":1552073670964,"fix_duration":250,"trial":46,"RT":1109,"MT":219,"sideResp":2,"stimulus":[],"xmouse":[768,768,768,768,768,768,768,768,768,768,768,768,768,768,768,795,806,809,810,810,810,810,810,810,810,810,810,810,810,810,810,810,810,810,810,810,810,810,810,810,810,810,810,810,810,810,810,810,810,810,810,810,811,814,825,882,904,926,946,960,991,1008,1021,1033,1049,1072,1144],"ymouse":[621,621,621,621,621,621,621,621,621,621,621,621,621,620,618,608,605,605,605,605,605,605,605,605,605,605,605,605,605,605,605,605,605,605,605,605,605,605,605,605,605,605,605,605,605,605,605,605,605,605,605,605,605,602,589,507,468,443,420,401,359,317,288,262,237,203,83],"timestamp_mouse":[20,45,48,67,88,108,127,148,168,189,209,227,248,268,288,308,328,347,369,388,409,428,448,467,488,509,529,548,569,587,607,627,648,669,688,709,729,747,768,787,808,829,848,867,888,909,929,948,969,988,1008,1027,1048,1068,1089,1109,1128,1147,1167,1188,1209,1227,1248,1268,1288,1307,1328],"xSR":741.5,"ySR":573.95,"xT1":424.9,"yT1":0,"xT2":1058.1,"yT2":0,"toosoon":0,"cond_shown":"Incongruent","ratio_trial":300,"L_num":4,"L_den":20,"R_num":2,"R_den":4,"correct_side":2,"subjID":"sebastianalbarracin14","gender":"0","school":"4","age":"9"},{"start_time":1552073673654,"click_time":1552073675144,"finger_time":1552073674823,"fix_duration":250,"trial":47,"RT":1169,"MT":321,"sideResp":2,"stimulus":[],"xmouse":[782,782,782,782,782,782,782,782,782,782,782,782,782,782,782,782,782,782,782,782,782,782,782,782,782,782,782,782,782,782,782,782,782,782,782,782,782,782,782,782,782,782,782,782,782,782,782,782,782,782,782,782,782,782,782,782,785,812,843,878,917,963,989,995,1000,1007,1026,1036,1043,1050,1052,1064,1068,1078,1093],"ymouse":[656,656,656,656,656,656,656,656,656,655,653,652,652,652,652,652,652,652,652,652,652,652,652,652,652,652,652,652,652,652,652,652,652,652,652,652,652,652,652,652,652,652,652,652,652,652,652,652,652,652,652,652,652,652,652,649,646,611,576,531,488,431,392,377,359,335,274,243,225,202,192,153,130,108,76],"timestamp_mouse":[13,40,50,68,89,108,130,149,168,190,209,228,248,270,288,309,328,349,369,388,409,428,449,469,489,510,528,548,570,590,609,628,648,669,688,710,729,749,768,788,808,829,848,868,888,910,928,949,969,990,1009,1030,1048,1068,1090,1109,1128,1149,1169,1189,1210,1228,1248,1268,1289,1308,1328,1348,1369,1388,1410,1429,1448,1469,1490],"xSR":741.5,"ySR":573.95,"xT1":424.9,"yT1":0,"xT2":1058.1,"yT2":0,"toosoon":0,"cond_shown":"Incongruent","ratio_trial":200,"L_num":11,"L_den":20,"R_num":3,"R_den":4,"correct_side":2,"subjID":"sebastianalbarracin14","gender":"0","school":"4","age":"9"},{"start_time":1552073676924,"click_time":1552073678784,"finger_time":1552073678283,"fix_duration":879.209736821744,"trial":48,"RT":1359,"MT":501,"sideResp":1,"stimulus":[],"xmouse":[782,782,782,782,782,782,782,782,782,782,782,782,782,782,782,782,782,782,782,782,782,782,782,782,782,782,782,782,782,782,782,782,782,782,782,782,782,782,782,782,782,782,782,782,782,782,782,782,782,782,782,782,782,782,782,782,782,782,782,782,782,782,782,782,780,778,770,766,754,745,740,735,727,713,694,690,681,675,658,644,630,620,609,598,572,566,560,558,554,550,547,542,532,509],"ymouse":[612,612,612,612,612,612,612,612,612,612,612,612,612,612,612,612,612,612,612,612,612,612,612,612,612,612,612,612,612,612,612,612,612,612,612,612,612,612,612,612,612,612,612,612,612,612,612,612,612,612,612,612,612,612,612,612,612,612,612,612,612,612,612,612,608,605,590,576,522,489,458,415,357,277,230,222,203,193,173,160,149,141,132,126,113,110,106,104,102,100,99,99,96,91],"timestamp_mouse":[1,19,42,59,78,98,119,139,158,179,199,219,238,258,279,298,319,338,359,379,399,418,440,459,479,498,519,538,559,579,598,620,639,658,679,699,720,740,759,779,799,819,839,859,879,899,918,939,959,979,999,1019,1039,1059,1078,1100,1120,1140,1158,1178,1199,1218,1238,1260,1280,1298,1319,1338,1359,1378,1399,1418,1439,1459,1478,1498,1518,1538,1559,1579,1598,1618,1639,1658,1678,1698,1718,1739,1760,1778,1798,1820,1838,1860],"xSR":741.5,"ySR":573.95,"xT1":424.9,"yT1":0,"xT2":1058.1,"yT2":0,"toosoon":0,"cond_shown":"Congruent","ratio_trial":200,"L_num":9,"L_den":20,"R_num":4,"R_den":16,"correct_side":1,"subjID":"sebastianalbarracin14","gender":"0","school":"4","age":"9"},{"start_time":1552073680982,"click_time":1552073682904,"finger_time":1552073682343,"fix_duration":1098.5779438522363,"trial":49,"RT":1361,"MT":561,"sideResp":1,"stimulus":[],"xmouse":[782,782,782,782,782,782,782,782,782,782,782,782,782,782,782,782,782,782,782,782,782,782,782,782,782,782,782,782,782,782,782,782,782,782,782,782,782,782,782,782,782,782,782,782,782,782,782,782,782,782,782,782,782,782,782,782,782,782,782,782,782,782,782,782,782,782,782,782,774,762,727,709,706,706,706,706,705,699,693,689,688,681,674,658,635,613,582,578,578,576,572,562,557,550,539,526,503],"ymouse":[605,605,605,605,605,605,605,605,605,605,605,605,605,605,605,605,605,605,605,605,605,605,605,605,605,605,605,605,605,605,605,605,605,605,605,605,605,605,605,605,605,605,605,605,605,605,605,605,605,605,605,605,605,605,605,605,605,605,605,605,605,605,605,605,605,605,605,581,516,473,331,211,181,152,123,94,37,14,1,0,0,0,0,3,10,20,33,35,35,36,37,37,37,37,37,39,43],"timestamp_mouse":[10,34,40,60,82,101,120,142,160,181,200,221,240,260,280,302,321,341,360,382,400,420,440,460,482,500,520,542,560,581,601,621,641,660,680,702,721,741,761,780,802,821,841,860,880,901,920,942,961,981,1000,1020,1041,1062,1080,1100,1121,1142,1161,1182,1201,1220,1242,1261,1280,1301,1320,1342,1361,1381,1400,1421,1442,1461,1481,1502,1522,1542,1561,1580,1600,1620,1640,1661,1680,1702,1722,1741,1760,1780,1801,1820,1841,1861,1881,1900,1922],"xSR":741.5,"ySR":573.95,"xT1":424.9,"yT1":0,"xT2":1058.1,"yT2":0,"toosoon":0,"cond_shown":"Incongruent","ratio_trial":100,"L_num":3,"L_den":5,"R_num":8,"R_den":16,"correct_side":1,"subjID":"sebastianalbarracin14","gender":"0","school":"4","age":"9"},{"start_time":1552073684387,"click_time":1552073685822,"finger_time":1552073685403,"fix_duration":423.31237716464585,"trial":50,"RT":1016,"MT":419,"sideResp":1,"stimulus":[],"xmouse":[780,780,780,780,780,780,780,780,780,780,780,780,780,780,780,780,780,780,780,780,780,780,780,780,780,780,780,780,780,780,780,780,780,780,780,780,780,780,780,780,780,780,780,780,780,780,780,780,780,780,801,808,808,801,789,766,710,690,676,653,625,615,603,590,579,572,569,568,562,551,525,514],"ymouse":[603,603,603,603,603,603,603,603,603,603,603,603,603,603,603,603,603,603,603,603,603,603,603,603,603,603,603,603,603,603,603,603,603,603,603,603,603,603,603,603,603,603,603,603,603,603,603,603,603,601,531,472,434,405,380,349,257,231,209,181,142,120,94,70,56,49,48,48,48,48,48,52],"timestamp_mouse":[15,37,55,77,96,115,135,157,175,196,216,237,255,277,295,315,336,355,375,397,416,437,455,476,497,515,537,555,576,595,616,636,655,677,696,715,735,757,776,795,815,835,855,876,897,915,936,955,975,996,1016,1035,1055,1075,1096,1116,1136,1157,1177,1195,1215,1235,1256,1275,1296,1315,1335,1355,1375,1395,1416,1435],"xSR":741.5,"ySR":573.95,"xT1":424.9,"yT1":0,"xT2":1058.1,"yT2":0,"toosoon":0,"cond_shown":"Congruent","ratio_trial":300,"L_num":4,"L_den":10,"R_num":1,"R_den":10,"correct_side":1,"subjID":"sebastianalbarracin14","gender":"0","school":"4","age":"9"},{"start_time":1552073688010,"click_time":1552073689703,"finger_time":1552073689344,"fix_duration":1204.7442636955518,"trial":51,"RT":1334,"MT":359,"sideResp":1,"stimulus":[],"xmouse":[810,810,810,810,810,809,809,809,809,809,809,809,809,809,809,809,809,809,809,809,809,809,809,809,808,802,799,792,792,792,792,792,792,792,792,792,792,792,792,792,792,792,792,792,792,792,792,792,792,792,792,792,792,792,792,792,792,792,792,792,792,792,792,792,791,780,745,712,675,639,596,591,591,591,588,577,572,570,569,569,565,555,540,527,517],"ymouse":[624,624,624,624,624,626,627,627,627,627,627,627,627,627,627,627,627,627,627,627,627,627,627,627,627,630,633,637,637,637,637,637,637,637,637,637,637,637,637,637,63