[{"start_time":1552308663523,"click_time":1552308665548,"finger_time":1552308663534,"fix_duration":250,"trial":0,"RT":11,"MT":2014,"sideResp":1,"stimulus":[],"xmouse":[788,788,788,788,788,788,788,788,788,788,788,788,788,789,789,785,782,782,782,782,782,782,782,783,787,790,791,792,794,805,806,806,806,806,804,801,796,792,788,785,785,785,785,785,785,785,785,784,784,786,787,789,789,789,789,789,790,792,796,798,798,798,799,799,800,801,802,802,802,802,802,802,802,802,802,802,802,802,802,802,802,802,802,802,802,803,803,803,803,773,747,720,683,644,583,562,551,541,535,524,522,521],"ymouse":[521,521,521,521,521,521,521,521,521,521,521,521,521,517,517,478,471,470,470,470,470,470,470,471,481,486,489,491,496,536,560,572,575,576,578,578,581,583,584,585,585,585,585,585,585,585,585,586,587,595,599,603,603,603,603,603,604,604,604,604,604,604,603,603,603,603,603,603,603,603,603,603,603,603,603,603,603,603,603,603,603,603,603,603,603,602,602,594,589,536,508,470,415,356,261,224,200,177,155,111,100,93],"timestamp_mouse":[11,26,44,64,84,104,125,144,166,184,206,225,246,266,285,306,326,344,365,384,405,425,445,464,484,505,525,546,566,585,604,624,644,666,686,706,725,745,765,785,806,826,845,864,886,904,925,944,965,985,1004,1025,1045,1065,1084,1105,1125,1144,1165,1186,1206,1224,1246,1264,1285,1304,1326,1346,1365,1385,1405,1424,1446,1466,1485,1505,1524,1545,1566,1584,1605,1626,1645,1665,1686,1706,1724,1744,1765,1784,1805,1825,1845,1866,1885,1904,1924,1944,1965,1985,2006,2024],"xSR":741.5,"ySR":501.8,"xT1":424.9,"yT1":0,"xT2":1058.1,"yT2":0,"toosoon":0,"cond_shown":"Congruent","ratio_trial":100,"L_num":6,"L_den":20,"R_num":5,"R_den":25,"correct_side":1,"subjID":"SebastianMendozaCruz27","gender":"0","age":"10","school":"4","test":{"fix_dur":[250,1500],"timestim":1000,"targets_dim":[100,100],"targets_relative_coord":[0.3,0.7],"size_stim":[880,420],"start_dim":[100,100],"size_start":[300,300],"size_fix":60,"samplingrate":20,"img_types":["Congruent","Incongruent"],"ratios":[100,200,300],"rep_conds":19,"nTrials":120,"trials_to_rest":500,"Trials_order":[96,18,0,73,28,107,26,117,82,90,40,32,102,19,42,91,58,66,103,16,39,7,33,52,108,51,80,71,62,112,60,97,118,93,77,22,13,34,45,98,10,53,27,50,69,65,78,31,30,64,113,47,85,17,38,36,101,72,11,63,79,111,109,56,106,67,59,57,49,92,43,55,3,116,29,48,88,100,115,41,110,21,75,25,37,20,105,95,84,104,81,5,14,2,74,54,86,87,70,83,6,4,8,94,1,99,9,44,24,76,15,114,46,23,89,61,68,35,119,12],"cond_shown":["Congruent","Congruent","Congruent","Incongruent","Congruent","Incongruent","Congruent","Incongruent","Congruent","Congruent","Congruent","Congruent","Congruent","Incongruent","Congruent","Incongruent","Congruent","Congruent","Incongruent","Congruent","Incongruent","Incongruent","Incongruent","Congruent","Congruent","Incongruent","Congruent","Incongruent","Congruent","Congruent","Congruent","Incongruent","Congruent","Incongruent","Incongruent","Congruent","Incongruent","Congruent","Incongruent","Congruent","Congruent","Incongruent","Incongruent","Congruent","Incongruent","Incongruent","Congruent","Incongruent","Congruent","Congruent","Incongruent","Incongruent","Incongruent","Incongruent","Congruent","Congruent","Incongruent","Congruent","Incongruent","Incongruent","Incongruent","Incongruent","Incongruent","Congruent","Congruent","Incongruent","Incongruent","Incongruent","Incongruent","Congruent","Incongruent","Incongruent","Incongruent","Congruent","Incongruent","Congruent","Congruent","Congruent","Incongruent","Incongruent","Congruent","Incongruent","Incongruent","Incongruent","Incongruent","Congruent","Incongruent","Incongruent","Congruent","Congruent","Incongruent","Incongruent","Congruent","Congruent","Congruent","Congruent","Congruent","Incongruent","Congruent","Incongruent","Congruent","Congruent","Congruent","Congruent","Incongruent","Incongruent","Incongruent","Congruent","Congruent","Congruent","Incongruent","Congruent","Congruent","Incongruent","Incongruent","Incongruent","Congruent","Incongruent","Incongruent","Congruent"],"ratio_trial":[100,100,100,100,300,300,200,200,300,100,300,200,100,100,100,100,300,100,100,300,200,100,200,300,100,200,200,300,200,300,100,100,300,200,300,300,100,300,200,200,300,300,200,200,200,300,100,100,100,300,300,300,100,300,200,100,300,100,300,200,100,200,100,200,300,100,300,200,100,200,100,100,200,200,300,100,300,300,100,300,200,200,200,100,100,200,200,300,100,200,200,300,200,200,200,100,200,200,300,300,100,300,200,300,100,200,200,200,100,300,200,100,300,300,300,100,200,300,300,100],"left_num":[6,12,11,9,12,8,3,4,1,1,4,6,1,9,3,2,1,9,3,9,3,1,1,20,6,11,16,3,4,24,11,10,11,7,1,2,10,4,1,3,11,1,4,9,3,1,15,9,11,20,4,13,13,1,7,9,8,7,1,7,12,3,13,5,5,1,4,4,10,14,3,3,4,3,4,10,20,1,13,2,3,7,4,13,2,7,3,2,1,3,11,4,12,7,6,1,8,14,11,4,4,20,3,9,9,9,6,1,15,2,6,3,20,8,13,11,7,13,7,6],"right_num":[5,13,4,14,2,9,11,1,11,18,2,7,3,20,4,8,3,8,11,3,1,8,3,9,5,3,12,4,3,8,6,9,1,12,2,10,8,13,3,11,1,2,14,4,11,2,13,13,6,13,2,12,6,3,2,8,14,15,3,12,9,1,12,14,6,8,2,1,8,6,7,7,6,7,8,3,5,19,12,6,9,4,6,6,6,18,1,6,18,14,3,2,6,18,11,3,3,6,2,6,15,13,7,3,6,8,3,21,13,10,3,4,13,14,12,9,2,12,8,5],"left_den":[20,30,22,15,24,10,10,30,5,2,5,12,2,10,20,4,5,15,5,10,10,2,2,25,20,20,20,6,10,30,22,25,22,10,2,20,25,20,2,10,22,2,6,20,4,2,25,15,22,25,20,26,26,2,21,15,10,14,2,10,24,10,26,10,25,2,20,30,25,28,9,9,5,10,5,25,25,3,26,4,12,15,5,26,4,15,10,4,2,10,20,20,15,15,20,2,15,30,22,5,10,25,10,10,18,15,20,2,25,20,20,20,25,10,26,22,21,26,10,20],"right_den":[25,26,10,28,10,18,22,3,22,30,4,10,5,25,16,20,6,16,22,5,2,20,10,18,25,4,20,20,15,16,15,18,5,24,10,25,16,26,10,22,5,10,30,16,20,10,26,26,15,26,4,15,10,15,15,16,28,25,15,24,15,2,20,20,12,20,4,3,16,20,30,30,10,14,16,10,10,30,20,30,20,6,10,10,15,27,2,30,30,28,4,4,10,27,22,5,9,9,10,12,30,26,14,5,10,10,6,30,26,25,6,16,26,28,15,15,15,15,20,25],"correct_side":[1,2,1,1,1,1,2,2,2,2,1,2,2,1,2,1,2,1,1,1,2,1,1,1,1,2,1,1,1,1,1,2,1,1,1,2,2,2,1,2,1,1,1,1,1,1,1,1,1,1,2,2,2,1,1,1,1,2,1,1,2,2,2,2,2,1,2,2,2,1,1,1,1,2,1,1,1,2,2,1,2,2,1,2,1,2,2,1,2,2,2,2,1,2,2,2,1,2,1,1,2,1,2,1,2,2,2,2,1,2,2,2,1,1,2,2,1,2,1,1],"img_shown":["img2/100/Congruent/L/C_Dist_100_LN_6_LD_20_RN_5_RD_25_0.png","img2/100/Congruent/R/C_Dist_100_LN_12_LD_30_RN_13_RD_26_1.png","img2/100/Congruent/L/C_Dist_100_LN_11_LD_22_RN_4_RD_10_0.png","img2/100/Incongruent/L/I_Dist_100_LN_9_LD_15_RN_14_RD_28_0.png","img2/300/Congruent/L/C_Dist_300_LN_12_LD_24_RN_2_RD_10_0.png","img2/300/Incongruent/L/I_Dist_300_LN_8_LD_10_RN_9_RD_18_0.png","img2/200/Congruent/R/C_Dist_200_LN_3_LD_10_RN_11_RD_22_1.png","img2/200/Incongruent/R/I_Dist_200_LN_4_LD_30_RN_1_RD_3_1.png","img2/300/Congruent/R/C_Dist_300_LN_1_LD_5_RN_11_RD_22_1.png","img2/100/Congruent/R/C_Dist_100_LN_1_LD_2_RN_18_RD_30_1.png","img2/300/Congruent/L/C_Dist_300_LN_4_LD_5_RN_2_RD_4_0.png","img2/200/Congruent/R/C_Dist_200_LN_6_LD_12_RN_7_RD_10_1.png","img2/100/Congruent/R/C_Dist_100_LN_1_LD_2_RN_3_RD_5_1.png","img2/100/Incongruent/L/I_Dist_100_LN_9_LD_10_RN_20_RD_25_0.png","img2/100/Congruent/R/C_Dist_100_LN_3_LD_20_RN_4_RD_16_1.png","img2/100/Incongruent/L/I_Dist_100_LN_2_LD_4_RN_8_RD_20_0.png","img2/300/Congruent/R/C_Dist_300_LN_1_LD_5_RN_3_RD_6_1.png","img2/100/Congruent/L/C_Dist_100_LN_9_LD_15_RN_8_RD_16_0.png","img2/100/Incongruent/L/I_Dist_100_LN_3_LD_5_RN_11_RD_22_0.png","img2/300/Congruent/L/C_Dist_300_LN_9_LD_10_RN_3_RD_5_0.png","img2/200/Incongruent/R/I_Dist_200_LN_3_LD_10_RN_1_RD_2_1.png","img2/100/Incongruent/L/I_Dist_100_LN_1_LD_2_RN_8_RD_20_0.png","img2/200/Incongruent/L/I_Dist_200_LN_1_LD_2_RN_3_RD_10_0.png","img2/300/Congruent/L/C_Dist_300_LN_20_LD_25_RN_9_RD_18_0.png","img2/100/Congruent/L/C_Dist_100_LN_6_LD_20_RN_5_RD_25_0.png","img2/200/Incongruent/R/I_Dist_200_LN_11_LD_20_RN_3_RD_4_1.png","img2/200/Congruent/L/C_Dist_200_LN_16_LD_20_RN_12_RD_20_0.png","img2/300/Incongruent/L/I_Dist_300_LN_3_LD_6_RN_4_RD_20_0.png","img2/200/Congruent/L/C_Dist_200_LN_4_LD_10_RN_3_RD_15_0.png","img2/300/Congruent/L/C_Dist_300_LN_24_LD_30_RN_8_RD_16_0.png","img2/100/Congruent/L/C_Dist_100_LN_11_LD_22_RN_6_RD_15_0.png","img2/100/Incongruent/R/I_Dist_100_LN_10_LD_25_RN_9_RD_18_1.png","img2/300/Congruent/L/C_Dist_300_LN_11_LD_22_RN_1_RD_5_0.png","img2/200/Incongruent/L/I_Dist_200_LN_7_LD_10_RN_12_RD_24_0.png","img2/300/Incongruent/L/I_Dist_300_LN_1_LD_2_RN_2_RD_10_0.png","img2/300/Congruent/R/C_Dist_300_LN_2_LD_20_RN_10_RD_25_1.png","img2/100/Incongruent/R/I_Dist_100_LN_10_LD_25_RN_8_RD_16_1.png","img2/300/Congruent/R/C_Dist_300_LN_4_LD_20_RN_13_RD_26_1.png","img2/200/Incongruent/L/I_Dist_200_LN_1_LD_2_RN_3_RD_10_0.png","img2/200/Congruent/R/C_Dist_200_LN_3_LD_10_RN_11_RD_22_1.png","img2/300/Congruent/L/C_Dist_300_LN_11_LD_22_RN_1_RD_5_0.png","img2/300/Incongruent/L/I_Dist_300_LN_1_LD_2_RN_2_RD_10_0.png","img2/200/Incongruent/L/I_Dist_200_LN_4_LD_6_RN_14_RD_30_0.png","img2/200/Congruent/L/C_Dist_200_LN_9_LD_20_RN_4_RD_16_0.png","img2/200/Incongruent/L/I_Dist_200_LN_3_LD_4_RN_11_RD_20_0.png","img2/300/Incongruent/L/I_Dist_300_LN_1_LD_2_RN_2_RD_10_0.png","img2/100/Congruent/L/C_Dist_100_LN_15_LD_25_RN_13_RD_26_0.png","img2/100/Incongruent/L/I_Dist_100_LN_9_LD_15_RN_13_RD_26_0.png","img2/100/Congruent/L/C_Dist_100_LN_11_LD_22_RN_6_RD_15_0.png","img2/300/Congruent/L/C_Dist_300_LN_20_LD_25_RN_13_RD_26_0.png","img2/300/Incongruent/R/I_Dist_300_LN_4_LD_20_RN_2_RD_4_1.png","img2/300/Incongruent/R/I_Dist_300_LN_13_LD_26_RN_12_RD_15_1.png","img2/100/Incongruent/R/I_Dist_100_LN_13_LD_26_RN_6_RD_10_1.png","img2/300/Incongruent/L/I_Dist_300_LN_1_LD_2_RN_3_RD_15_0.png","img2/200/Congruent/L/C_Dist_200_LN_7_LD_21_RN_2_RD_15_0.png","img2/100/Congruent/L/C_Dist_100_LN_9_LD_15_RN_8_RD_16_0.png","img2/300/Incongruent/L/I_Dist_300_LN_8_LD_10_RN_14_RD_28_0.png","img2/100/Congruent/R/C_Dist_100_LN_7_LD_14_RN_15_RD_25_1.png","img2/300/Incongruent/L/I_Dist_300_LN_1_LD_2_RN_3_RD_15_0.png","img2/200/Incongruent/L/I_Dist_200_LN_7_LD_10_RN_12_RD_24_0.png","img2/100/Incongruent/R/I_Dist_100_LN_12_LD_24_RN_9_RD_15_1.png","img2/200/Incongruent/R/I_Dist_200_LN_3_LD_10_RN_1_RD_2_1.png","img2/100/Incongruent/R/I_Dist_100_LN_13_LD_26_RN_12_RD_20_1.png","img2/200/Congruent/R/C_Dist_200_LN_5_LD_10_RN_14_RD_20_1.png","img2/300/Congruent/R/C_Dist_300_LN_5_LD_25_RN_6_RD_12_1.png","img2/100/Incongruent/L/I_Dist_100_LN_1_LD_2_RN_8_RD_20_0.png","img2/300/Incongruent/R/I_Dist_300_LN_4_LD_20_RN_2_RD_4_1.png","img2/200/Incongruent/R/I_Dist_200_LN_4_LD_30_RN_1_RD_3_1.png","img2/100/Incongruent/R/I_Dist_100_LN_10_LD_25_RN_8_RD_16_1.png","img2/200/Congruent/L/C_Dist_200_LN_14_LD_28_RN_6_RD_20_0.png","img2/100/Incongruent/L/I_Dist_100_LN_3_LD_9_RN_7_RD_30_0.png","img2/100/Incongruent/L/I_Dist_100_LN_3_LD_9_RN_7_RD_30_0.png","img2/200/Incongruent/L/I_Dist_200_LN_4_LD_5_RN_6_RD_10_0.png","img2/200/Congruent/R/C_Dist_200_LN_3_LD_10_RN_7_RD_14_1.png","img2/300/Incongruent/L/I_Dist_300_LN_4_LD_5_RN_8_RD_16_0.png","img2/100/Congruent/L/C_Dist_100_LN_10_LD_25_RN_3_RD_10_0.png","img2/300/Congruent/L/C_Dist_300_LN_20_LD_25_RN_5_RD_10_0.png","img2/300/Congruent/R/C_Dist_300_LN_1_LD_3_RN_19_RD_30_1.png","img2/100/Incongruent/R/I_Dist_100_LN_13_LD_26_RN_12_RD_20_1.png","img2/300/Incongruent/L/I_Dist_300_LN_2_LD_4_RN_6_RD_30_0.png","img2/200/Congruent/R/C_Dist_200_LN_3_LD_12_RN_9_RD_20_1.png","img2/200/Incongruent/R/I_Dist_200_LN_7_LD_15_RN_4_RD_6_1.png","img2/200/Incongruent/L/I_Dist_200_LN_4_LD_5_RN_6_RD_10_0.png","img2/100/Incongruent/R/I_Dist_100_LN_13_LD_26_RN_6_RD_10_1.png","img2/100/Incongruent/L/I_Dist_100_LN_2_LD_4_RN_6_RD_15_0.png","img2/200/Congruent/R/C_Dist_200_LN_7_LD_15_RN_18_RD_27_1.png","img2/200/Incongruent/R/I_Dist_200_LN_3_LD_10_RN_1_RD_2_1.png","img2/300/Incongruent/L/I_Dist_300_LN_2_LD_4_RN_6_RD_30_0.png","img2/100/Congruent/R/C_Dist_100_LN_1_LD_2_RN_18_RD_30_1.png","img2/200/Congruent/R/C_Dist_200_LN_3_LD_10_RN_14_RD_28_1.png","img2/200/Incongruent/R/I_Dist_200_LN_11_LD_20_RN_3_RD_4_1.png","img2/300/Incongruent/R/I_Dist_300_LN_4_LD_20_RN_2_RD_4_1.png","img2/200/Congruent/L/C_Dist_200_LN_12_LD_15_RN_6_RD_10_0.png","img2/200/Congruent/R/C_Dist_200_LN_7_LD_15_RN_18_RD_27_1.png","img2/200/Congruent/R/C_Dist_200_LN_6_LD_20_RN_11_RD_22_1.png","img2/100/Congruent/R/C_Dist_100_LN_1_LD_2_RN_3_RD_5_1.png","img2/200/Congruent/L/C_Dist_200_LN_8_LD_15_RN_3_RD_9_0.png","img2/200/Incongruent/R/I_Dist_200_LN_14_LD_30_RN_6_RD_9_1.png","img2/300/Congruent/L/C_Dist_300_LN_11_LD_22_RN_2_RD_10_0.png","img2/300/Incongruent/L/I_Dist_300_LN_4_LD_5_RN_6_RD_12_0.png","img2/100/Congruent/R/C_Dist_100_LN_4_LD_10_RN_15_RD_30_1.png","img2/300/Congruent/L/C_Dist_300_LN_20_LD_25_RN_13_RD_26_0.png","img2/200/Congruent/R/C_Dist_200_LN_3_LD_10_RN_7_RD_14_1.png","img2/300/Congruent/L/C_Dist_300_LN_9_LD_10_RN_3_RD_5_0.png","img2/100/Incongruent/R/I_Dist_100_LN_9_LD_18_RN_6_RD_10_1.png","img2/200/Incongruent/R/I_Dist_200_LN_9_LD_15_RN_8_RD_10_1.png","img2/200/Incongruent/R/I_Dist_200_LN_6_LD_20_RN_3_RD_6_1.png","img2/200/Congruent/R/C_Dist_200_LN_1_LD_2_RN_21_RD_30_1.png","img2/100/Congruent/L/C_Dist_100_LN_15_LD_25_RN_13_RD_26_0.png","img2/300/Congruent/R/C_Dist_300_LN_2_LD_20_RN_10_RD_25_1.png","img2/200/Incongruent/R/I_Dist_200_LN_6_LD_20_RN_3_RD_6_1.png","img2/100/Congruent/R/C_Dist_100_LN_3_LD_20_RN_4_RD_16_1.png","img2/300/Congruent/L/C_Dist_300_LN_20_LD_25_RN_13_RD_26_0.png","img2/300/Incongruent/L/I_Dist_300_LN_8_LD_10_RN_14_RD_28_0.png","img2/300/Incongruent/R/I_Dist_300_LN_13_LD_26_RN_12_RD_15_1.png","img2/100/Incongruent/R/I_Dist_100_LN_11_LD_22_RN_9_RD_15_1.png","img2/200/Congruent/L/C_Dist_200_LN_7_LD_21_RN_2_RD_15_0.png","img2/300/Incongruent/R/I_Dist_300_LN_13_LD_26_RN_12_RD_15_1.png","img2/300/Incongruent/L/I_Dist_300_LN_7_LD_10_RN_8_RD_20_0.png","img2/100/Congruent/L/C_Dist_100_LN_6_LD_20_RN_5_RD_25_0.png"],"dist100_C":[["C_Dist_100_LN_10_LD_25_RN_3_RD_10_0.png","C_Dist_100_LN_11_LD_22_RN_4_RD_10_0.png","C_Dist_100_LN_11_LD_22_RN_6_RD_15_0.png","C_Dist_100_LN_15_LD_25_RN_13_RD_26_0.png","C_Dist_100_LN_3_LD_6_RN_2_RD_5_0.png","C_Dist_100_LN_6_LD_20_RN_5_RD_25_0.png","C_Dist_100_LN_8_LD_16_RN_2_RD_5_0.png","C_Dist_100_LN_9_LD_15_RN_8_RD_16_0.png"],["C_Dist_100_LN_1_LD_2_RN_18_RD_30_1.png","C_Dist_100_LN_1_LD_2_RN_3_RD_5_1.png","C_Dist_100_LN_12_LD_30_RN_13_RD_26_1.png","C_Dist_100_LN_2_LD_5_RN_11_RD_22_1.png","C_Dist_100_LN_2_LD_5_RN_6_RD_12_1.png","C_Dist_100_LN_3_LD_20_RN_4_RD_16_1.png","C_Dist_100_LN_4_LD_10_RN_15_RD_30_1.png","C_Dist_100_LN_4_LD_8_RN_6_RD_10_1.png","C_Dist_100_LN_6_LD_12_RN_15_RD_25_1.png","C_Dist_100_LN_7_LD_14_RN_15_RD_25_1.png","C_Dist_100_LN_7_LD_14_RN_9_RD_15_1.png"]],"dist100_I":[["I_Dist_100_LN_1_LD_2_RN_8_RD_20_0.png","I_Dist_100_LN_2_LD_4_RN_6_RD_15_0.png","I_Dist_100_LN_2_LD_4_RN_8_RD_20_0.png","I_Dist_100_LN_3_LD_5_RN_11_RD_22_0.png","I_Dist_100_LN_3_LD_5_RN_8_RD_16_0.png","I_Dist_100_LN_3_LD_6_RN_4_RD_10_0.png","I_Dist_100_LN_3_LD_9_RN_7_RD_30_0.png","I_Dist_100_LN_4_LD_8_RN_8_RD_20_0.png","I_Dist_100_LN_6_LD_10_RN_11_RD_22_0.png","I_Dist_100_LN_6_LD_10_RN_13_RD_26_0.png","I_Dist_100_LN_6_LD_10_RN_7_RD_14_0.png","I_Dist_100_LN_9_LD_10_RN_20_RD_25_0.png","I_Dist_100_LN_9_LD_15_RN_13_RD_26_0.png","I_Dist_100_LN_9_LD_15_RN_14_RD_28_0.png"],["I_Dist_100_LN_10_LD_25_RN_8_RD_16_1.png","I_Dist_100_LN_10_LD_25_RN_9_RD_18_1.png","I_Dist_100_LN_11_LD_22_RN_9_RD_15_1.png","I_Dist_100_LN_12_LD_24_RN_9_RD_15_1.png","I_Dist_100_LN_12_LD_30_RN_2_RD_4_1.png","I_Dist_100_LN_13_LD_26_RN_12_RD_20_1.png","I_Dist_100_LN_13_LD_26_RN_6_RD_10_1.png","I_Dist_100_LN_17_LD_30_RN_10_RD_15_1.png","I_Dist_100_LN_6_LD_12_RN_3_RD_5_1.png","I_Dist_100_LN_8_LD_16_RN_6_RD_10_1.png","I_Dist_100_LN_8_LD_20_RN_1_RD_2_1.png","I_Dist_100_LN_9_LD_18_RN_6_RD_10_1.png"]],"dist100_S":[["E_Dist_100_LN_2_LD_12_RN_2_RD_30_0.png","E_Dist_100_LN_6_LD_10_RN_6_RD_12_0.png"],["E_Dist_100_LN_6_LD_12_RN_6_RD_10_1.png"]],"dist200_C":[["C_Dist_200_LN_11_LD_22_RN_3_RD_10_0.png","C_Dist_200_LN_12_LD_15_RN_6_RD_10_0.png","C_Dist_200_LN_12_LD_20_RN_6_RD_15_0.png","C_Dist_200_LN_14_LD_28_RN_6_RD_20_0.png","C_Dist_200_LN_15_LD_25_RN_4_RD_10_0.png","C_Dist_200_LN_16_LD_20_RN_12_RD_20_0.png","C_Dist_200_LN_16_LD_30_RN_9_RD_27_0.png","C_Dist_200_LN_20_LD_25_RN_9_RD_15_0.png","C_Dist_200_LN_21_LD_30_RN_2_RD_4_0.png","C_Dist_200_LN_4_LD_10_RN_3_RD_15_0.png","C_Dist_200_LN_4_LD_8_RN_3_RD_10_0.png","C_Dist_200_LN_6_LD_15_RN_3_RD_15_0.png","C_Dist_200_LN_7_LD_21_RN_2_RD_15_0.png","C_Dist_200_LN_8_LD_15_RN_2_RD_6_0.png","C_Dist_200_LN_8_LD_15_RN_3_RD_9_0.png","C_Dist_200_LN_8_LD_15_RN_7_RD_21_0.png","C_Dist_200_LN_9_LD_20_RN_4_RD_16_0.png"],["C_Dist_200_LN_1_LD_2_RN_21_RD_30_1.png","C_Dist_200_LN_13_LD_26_RN_14_RD_20_1.png","C_Dist_200_LN_3_LD_10_RN_11_RD_22_1.png","C_Dist_200_LN_3_LD_10_RN_14_RD_28_1.png","C_Dist_200_LN_3_LD_10_RN_7_RD_14_1.png","C_Dist_200_LN_3_LD_12_RN_9_RD_20_1.png","C_Dist_200_LN_3_LD_6_RN_14_RD_20_1.png","C_Dist_200_LN_5_LD_10_RN_14_RD_20_1.png","C_Dist_200_LN_6_LD_12_RN_7_RD_10_1.png","C_Dist_200_LN_6_LD_20_RN_11_RD_22_1.png","C_Dist_200_LN_7_LD_15_RN_18_RD_27_1.png","C_Dist_200_LN_9_LD_30_RN_13_RD_26_1.png"]],"dist200_I":[["I_Dist_200_LN_1_LD_2_RN_3_RD_10_0.png","I_Dist_200_LN_1_LD_3_RN_2_RD_15_0.png","I_Dist_200_LN_3_LD_4_RN_11_RD_20_0.png","I_Dist_200_LN_4_LD_5_RN_6_RD_10_0.png","I_Dist_200_LN_4_LD_6_RN_14_RD_30_0.png","I_Dist_200_LN_7_LD_10_RN_12_RD_24_0.png","I_Dist_200_LN_7_LD_10_RN_14_RD_28_0.png","I_Dist_200_LN_7_LD_10_RN_8_RD_16_0.png"],["I_Dist_200_LN_11_LD_20_RN_3_RD_4_1.png","I_Dist_200_LN_14_LD_30_RN_12_RD_18_1.png","I_Dist_200_LN_14_LD_30_RN_6_RD_9_1.png","I_Dist_200_LN_3_LD_10_RN_1_RD_2_1.png","I_Dist_200_LN_4_LD_30_RN_1_RD_3_1.png","I_Dist_200_LN_6_LD_20_RN_3_RD_6_1.png","I_Dist_200_LN_7_LD_15_RN_4_RD_6_1.png","I_Dist_200_LN_7_LD_15_RN_6_RD_9_1.png","I_Dist_200_LN_9_LD_15_RN_8_RD_10_1.png"]],"dist200_S":[["E_Dist_200_LN_3_LD_6_RN_3_RD_10_0.png"],["E_Dist_200_LN_3_LD_10_RN_3_RD_6_1.png"]],"dist300_C":[["C_Dist_300_LN_11_LD_22_RN_1_RD_5_0.png","C_Dist_300_LN_11_LD_22_RN_2_RD_10_0.png","C_Dist_300_LN_11_LD_22_RN_4_RD_20_0.png","C_Dist_300_LN_12_LD_24_RN_2_RD_10_0.png","C_Dist_300_LN_18_LD_20_RN_9_RD_15_0.png","C_Dist_300_LN_20_LD_25_RN_13_RD_26_0.png","C_Dist_300_LN_20_LD_25_RN_14_RD_28_0.png","C_Dist_300_LN_20_LD_25_RN_5_RD_10_0.png","C_Dist_300_LN_20_LD_25_RN_8_RD_16_0.png","C_Dist_300_LN_20_LD_25_RN_9_RD_18_0.png","C_Dist_300_LN_24_LD_30_RN_2_RD_4_0.png","C_Dist_300_LN_24_LD_30_RN_8_RD_16_0.png","C_Dist_300_LN_3_LD_6_RN_2_RD_10_0.png","C_Dist_300_LN_4_LD_10_RN_1_RD_10_0.png","C_Dist_300_LN_4_LD_5_RN_2_RD_4_0.png","C_Dist_300_LN_8_LD_16_RN_1_RD_5_0.png","C_Dist_300_LN_9_LD_10_RN_3_RD_5_0.png"],["C_Dist_300_LN_1_LD_20_RN_7_RD_20_1.png","C_Dist_300_LN_1_LD_3_RN_19_RD_30_1.png","C_Dist_300_LN_1_LD_30_RN_8_RD_24_1.png","C_Dist_300_LN_1_LD_5_RN_11_RD_22_1.png","C_Dist_300_LN_1_LD_5_RN_3_RD_6_1.png","C_Dist_300_LN_1_LD_5_RN_6_RD_12_1.png","C_Dist_300_LN_2_LD_10_RN_12_RD_24_1.png","C_Dist_300_LN_2_LD_20_RN_10_RD_25_1.png","C_Dist_300_LN_3_LD_12_RN_11_RD_20_1.png","C_Dist_300_LN_3_LD_6_RN_4_RD_5_1.png","C_Dist_300_LN_4_LD_20_RN_13_RD_26_1.png","C_Dist_300_LN_5_LD_25_RN_6_RD_12_1.png","C_Dist_300_LN_5_LD_25_RN_7_RD_14_1.png","C_Dist_300_LN_7_LD_14_RN_20_RD_25_1.png","C_Dist_300_LN_8_LD_15_RN_10_RD_12_1.png"]],"dist300_I":[["I_Dist_300_LN_1_LD_2_RN_2_RD_10_0.png","I_Dist_300_LN_1_LD_2_RN_3_RD_15_0.png","I_Dist_300_LN_2_LD_4_RN_6_RD_30_0.png","I_Dist_300_LN_3_LD_6_RN_4_RD_20_0.png","I_Dist_300_LN_4_LD_5_RN_6_RD_12_0.png","I_Dist_300_LN_4_LD_5_RN_8_RD_16_0.png","I_Dist_300_LN_7_LD_10_RN_8_RD_20_0.png","I_Dist_300_LN_8_LD_10_RN_14_RD_28_0.png","I_Dist_300_LN_8_LD_10_RN_9_RD_18_0.png"],["I_Dist_300_LN_13_LD_26_RN_12_RD_15_1.png","I_Dist_300_LN_4_LD_20_RN_2_RD_4_1.png"]],"dist300_S":[["E_Dist_300_LN_9_LD_12_RN_9_RD_20_0.png"],["E_Dist_300_LN_18_LD_30_RN_18_RD_20_1.png","E_Dist_300_LN_3_LD_10_RN_3_RD_5_1.png","E_Dist_300_LN_9_LD_20_RN_9_RD_12_1.png"]],"dist500_C":[["C_Dist_500_LN_10_LD_13_RN_7_RD_26_0.png","C_Dist_500_LN_10_LD_15_RN_4_RD_24_0.png","C_Dist_500_LN_12_LD_16_RN_3_RD_12_0.png","C_Dist_500_LN_12_LD_18_RN_4_RD_24_0.png","C_Dist_500_LN_15_LD_18_RN_5_RD_15_0.png","C_Dist_500_LN_15_LD_20_RN_1_RD_4_0.png","C_Dist_500_LN_18_LD_27_RN_1_RD_6_0.png","C_Dist_500_LN_20_LD_24_RN_1_RD_3_0.png","C_Dist_500_LN_20_LD_24_RN_3_RD_9_0.png","C_Dist_500_LN_20_LD_24_RN_7_RD_21_0.png","C_Dist_500_LN_20_LD_28_RN_3_RD_14_0.png","C_Dist_500_LN_21_LD_28_RN_6_RD_24_0.png","C_Dist_500_LN_22_LD_28_RN_2_RD_7_0.png","C_Dist_500_LN_25_LD_30_RN_9_RD_27_0.png","C_Dist_500_LN_4_LD_6_RN_1_RD_6_0.png","C_Dist_500_LN_5_LD_6_RN_2_RD_6_0.png","C_Dist_500_LN_6_LD_9_RN_1_RD_6_0.png","C_Dist_500_LN_7_LD_10_RN_1_RD_5_0.png","C_Dist_500_LN_8_LD_12_RN_1_RD_6_0.png","C_Dist_500_LN_8_LD_12_RN_4_RD_24_0.png"],["C_Dist_500_LN_1_LD_4_RN_12_RD_16_1.png","C_Dist_500_LN_1_LD_4_RN_9_RD_12_1.png","C_Dist_500_LN_1_LD_9_RN_11_RD_18_1.png","C_Dist_500_LN_10_LD_24_RN_22_RD_24_1.png","C_Dist_500_LN_2_LD_12_RN_10_RD_15_1.png","C_Dist_500_LN_2_LD_12_RN_12_RD_18_1.png","C_Dist_500_LN_2_LD_12_RN_4_RD_6_1.png","C_Dist_500_LN_2_LD_24_RN_7_RD_12_1.png","C_Dist_500_LN_2_LD_5_RN_18_RD_20_1.png","C_Dist_500_LN_2_LD_5_RN_9_RD_10_1.png","C_Dist_500_LN_2_LD_8_RN_12_RD_16_1.png","C_Dist_500_LN_2_LD_8_RN_21_RD_28_1.png","C_Dist_500_LN_3_LD_10_RN_4_RD_5_1.png","C_Dist_500_LN_3_LD_12_RN_15_RD_20_1.png","C_Dist_500_LN_3_LD_30_RN_6_RD_10_1.png","C_Dist_500_LN_3_LD_8_RN_14_RD_16_1.png","C_Dist_500_LN_4_LD_16_RN_15_RD_20_1.png","C_Dist_500_LN_4_LD_24_RN_12_RD_18_1.png","C_Dist_500_LN_5_LD_14_RN_6_RD_7_1.png","C_Dist_500_LN_7_LD_21_RN_20_RD_24_1.png","C_Dist_500_LN_7_LD_28_RN_12_RD_16_1.png","C_Dist_500_LN_7_LD_28_RN_9_RD_12_1.png","C_Dist_500_LN_9_LD_27_RN_20_RD_24_1.png"]],"dist500_I":[["I_Dist_500_LN_2_LD_3_RN_4_RD_24_0.png","I_Dist_500_LN_5_LD_6_RN_6_RD_18_0.png","I_Dist_500_LN_7_LD_8_RN_9_RD_24_0.png"],["I_Dist_500_LN_7_LD_21_RN_5_RD_6_1.png"]],"dist500_S":[["E_Dist_500_LN_6_LD_8_RN_6_RD_24_0.png"],["E_Dist_500_LN_2_LD_12_RN_2_RD_3_1.png","E_Dist_500_LN_6_LD_24_RN_6_RD_8_1.png"]]}},{"start_time":1552308667678,"click_time":1552308673249,"finger_time":1552308668448,"fix_duration":1449.208322628636,"trial":1,"RT":770,"MT":4801,"sideResp":2,"stimulus":[],"xmouse":[798,798,798,798,798,798,798,798,798,798,798,798,798,798,798,798,798,798,798,798,798,799,799,798,796,790,789,789,789,789,789,789,789,788,787,780,772,761,747,732,715,708,699,686,676,664,661,657,653,650,646,646,646,646,646,663,682,709,737,768,824,900,937,967,993,1021,1022,1023,1023,1023,1023,1023,1027,1033,1038,1038,1026,1010,996,988,988,988,988,988,988,988,988,988,988,988,988,988,988,988,988,987,984,983,982,982,980,973,964,952,936,904,890,883,880,880,877,877,877,877,870,835,810,788,765,742,739,739,739,739,739,739,739,739,741,741,746,747,747,747,748,751,753,754,756,759,761,761,762,763,765,772,778,780,781,781,785,786,786,786,786,786,786,786,786,786,786,786,786,786,786,786,786,786,786,786,786,786,786,786,786,782,776,772,768,765,762,761,758,756,753,750,750,750,750,750,750,750,750,750,750,750,751,753,762,771,779,779,779,779,779,780,781,781,781,781,781,781,781,781,782,784,786,790,795,799,808,813,816,816,816,816,816,820,827,849,878,886,896,910,929,973,986,997,1005,1010,1015,1020,1025,1032,1040,1053,1058,1060,1066,1072,1098,1117,1131,1139,1142,1142,1142,1142,1142,1142,1142,1141,1138,1135,1132,1125,1123,1120,1119,1116,1114,1113,1112,1110,1108,1104,1100,1098],"ymouse":[601,601,601,601,601,601,601,601,601,601,601,601,601,601,601,601,601,601,601,601,601,598,596,591,588,582,582,582,582,582,582,582,581,581,581,578,574,564,551,537,519,512,502,484,461,416,394,367,340,315,292,292,292,292,292,319,353,401,456,505,575,666,704,732,751,772,773,774,774,774,774,774,774,771,767,761,756,752,750,748,748,748,748,748,748,748,748,748,748,748,748,748,748,748,748,748,757,766,767,767,768,761,751,739,728,711,704,699,698,698,698,698,698,698,696,673,659,650,642,636,635,635,635,635,635,635,635,635,635,635,636,636,636,636,636,636,636,636,636,635,635,635,635,635,635,635,635,635,635,635,636,637,637,637,637,637,637,637,637,637,637,637,637,637,637,637,637,637,637,637,637,637,637,637,637,637,637,637,637,637,637,637,637,638,638,638,638,638,638,638,638,638,638,639,639,639,640,640,637,631,628,628,628,628,628,628,628,628,628,628,628,628,628,628,628,628,628,628,627,624,614,610,608,608,608,608,608,605,598,572,527,506,484,454,420,354,335,319,305,297,293,291,289,286,283,280,278,276,273,270,255,242,234,228,225,221,221,221,221,221,217,214,211,207,203,194,191,186,182,175,171,170,167,163,155,128,102,87],"timestamp_mouse":[10,57,70,90,109,130,149,169,191,209,230,251,270,289,310,331,349,371,390,409,429,450,471,489,510,529,549,571,590,609,629,651,669,690,709,730,749,770,790,809,830,849,869,889,909,929,950,970,991,1010,1030,1049,1070,1091,1111,1129,1149,1170,1190,1209,1229,1251,1270,1290,1311,1329,1350,1370,1390,1411,1430,1451,1470,1491,1510,1530,1549,1569,1589,1609,1630,1651,1671,1691,1710,1729,1750,1771,1790,1810,1829,1849,1870,1889,1910,1929,1949,1970,1990,2011,2030,2050,2069,2090,2111,2130,2150,2170,2189,2210,2229,2249,2270,2289,2310,2329,2349,2370,2389,2410,2430,2450,2470,2491,2511,2530,2549,2569,2590,2611,2630,2650,2670,2691,2710,2730,2750,2771,2791,2810,2829,2849,2870,2890,2909,2929,2950,2970,2990,3009,3030,3051,3069,3090,3110,3129,3150,3171,3189,3211,3230,3249,3270,3290,3311,3331,3350,3369,3391,3411,3429,3450,3471,3490,3509,3530,3550,3571,3590,3610,3630,3651,3671,3690,3711,3730,3749,3769,3791,3809,3830,3850,3870,3890,3909,3929,3950,3969,3989,4010,4029,4050,4070,4090,4110,4131,4150,4169,4191,4210,4230,4250,4271,4290,4309,4330,4349,4369,4390,4410,4429,4450,4470,4491,4510,4529,4551,4571,4589,4609,4630,4649,4670,4691,4711,4730,4749,4769,4789,4810,4830,4850,4869,4890,4911,4930,4949,4970,4990,5010,5030,5050,5069,5091,5111,5130,5149,5170,5189,5211,5230,5250,5271,5291,5310,5330,5350,5371,5391,5410,5429,5450,5470,5490,5511,5530,5550,5571],"xSR":741.5,"ySR":573.95,"xT1":424.9,"yT1":0,"xT2":1058.1,"yT2":0,"toosoon":0,"cond_shown":"Congruent","ratio_trial":100,"L_num":12,"L_den":30,"R_num":13,"R_den":26,"correct_side":2,"subjID":"SebastianMendozaCruz27","gender":"0","school":"4","age":"10"},{"start_time":1552308674829,"click_time":1552308677328,"finger_time":1552308675128,"fix_duration":400.6434790670782,"trial":2,"RT":299,"MT":2200,"sideResp":1,"stimulus":[],"xmouse":[796,796,796,796,796,796,796,796,796,796,796,796,796,803,819,840,864,883,893,893,893,893,895,919,929,938,945,952,955,955,955,955,955,953,932,913,866,804,646,588,544,515,498,485,485,484,485,487,488,496,506,522,543,587,592,592,592,592,592,592,592,592,592,592,587,586,586,586,586,586,595,612,633,689,702,712,718,723,734,741,750,765,784,803,807,810,812,814,815,815,816,816,816,816,816,816,816,816,816,816,816,815,809,719,637,554,462,379,323,320,320,320,320,319,319,319,319,322,331,337,347,356,366,412,441],"ymouse":[621,621,621,621,621,621,621,621,621,621,621,621,621,586,527,461,387,315,255,253,253,253,253,268,275,281,285,291,295,297,300,303,309,313,340,360,394,439,563,609,650,680,703,733,738,741,745,746,746,749,751,752,752,752,752,752,752,752,752,752,752,752,752,752,752,752,752,752,752,751,748,741,730,697,688,680,675,670,660,654,645,635,623,606,601,597,594,592,590,590,589,589,589,589,589,589,589,589,589,589,589,585,574,444,352,263,182,112,71,70,70,70,70,62,58,54,50,46,35,33,31,30,30,42,53],"timestamp_mouse":[19,42,59,78,98,118,139,160,179,199,219,238,259,279,299,318,339,360,378,399,419,439,459,479,499,519,540,559,579,598,619,639,658,678,699,719,739,759,779,798,819,839,860,879,900,918,940,960,978,998,1019,1038,1060,1079,1099,1119,1140,1160,1180,1199,1219,1239,1259,1278,1298,1319,1339,1359,1378,1399,1420,1440,1458,1478,1500,1518,1539,1560,1579,1599,1619,1638,1659,1679,1700,1720,1739,1759,1778,1800,1818,1839,1860,1878,1899,1920,1939,1960,1978,2000,2019,2040,2059,2079,2098,2118,2140,2158,2178,2199,2219,2240,2259,2278,2298,2318,2340,2359,2379,2399,2420,2440,2458,2479,2499],"xSR":741.5,"ySR":573.95,"xT1":424.9,"yT1":0,"xT2":1058.1,"yT2":0,"toosoon":0,"cond_shown":"Congruent","ratio_trial":100,"L_num":11,"L_den":22,"R_num":4,"R_den":10,"correct_side":1,"subjID":"SebastianMendozaCruz27","gender":"0","school":"4","age":"10"},{"start_time":1552308681918,"click_time":1552308686849,"finger_time":1552308682388,"fix_duration":1208.276597557479,"trial":3,"RT":470,"MT":4461,"sideResp":1,"stimulus":[],"xmouse":[790,790,790,790,790,790,790,790,790,790,790,790,790,790,790,790,790,790,790,790,790,790,772,747,629,570,534,521,521,520,520,523,529,536,556,574,603,649,704,778,799,813,826,835,844,847,847,847,848,850,851,851,851,852,857,865,873,882,893,927,944,960,972,979,987,990,995,1001,1005,1009,1010,1010,1010,1010,1010,1010,1010,1010,1010,1010,1010,1010,1010,1010,1010,1010,1010,1010,1010,1010,1010,1010,1010,1010,1010,1010,1010,1010,1010,1010,1010,1010,1010,1010,1010,1010,1010,1010,1010,1010,1010,1010,1010,1010,1010,1010,1010,1010,1010,1010,1010,1010,1010,1010,1010,1010,1010,1007,1002,1000,1000,1000,1000,1000,1000,1000,1000,1000,1000,1000,1000,1000,1000,1000,1000,1000,1000,1000,1000,1000,1000,1000,1000,1000,1000,1000,1000,1000,1000,1000,1000,1000,1000,1000,1000,1000,1000,1000,1000,1000,1000,1000,1000,1000,1000,1000,1000,1000,1000,1000,1000,1000,1000,1000,997,986,976,969,963,957,954,953,951,949,945,943,943,942,942,940,939,936,934,930,923,917,912,902,890,845,821,801,790,783,768,759,746,732,715,677,651,620,559,486,319,264,239,230,229,229,232,238,246,259,299,320,339,350,358,366,376,386,393,400,413,422,432],"ymouse":[617,617,617,617,617,617,617,617,617,617,617,617,617,617,617,617,617,617,617,617,617,617,587,550,403,334,290,277,276,276,276,276,279,286,305,316,336,366,405,472,496,513,532,545,565,570,572,574,577,593,596,599,600,602,615,627,638,649,656,676,689,697,704,708,713,716,721,727,730,736,737,737,737,737,737,737,737,737,737,737,737,737,737,737,737,737,737,737,737,737,737,737,737,737,737,737,737,737,737,737,737,737,737,737,737,737,737,737,737,737,737,737,737,737,737,737,737,737,737,737,737,737,737,737,737,738,738,740,740,740,740,740,740,740,740,740,740,740,740,740,740,740,740,740,740,740,740,740,740,740,740,740,740,740,740,740,740,740,740,740,740,740,740,740,740,740,740,740,740,740,740,740,740,740,740,740,740,740,740,740,740,740,740,740,740,741,741,741,740,737,737,736,736,735,734,734,734,733,733,733,732,731,730,728,725,721,714,702,687,631,595,561,534,512,457,425,386,353,320,282,267,251,227,196,120,94,78,71,70,68,66,63,61,55,40,31,24,22,20,20,25,33,41,48,53,53,55],"timestamp_mouse":[10,39,51,70,90,110,129,151,170,190,209,231,251,270,289,310,330,351,370,391,409,431,451,470,489,511,530,549,571,589,610,629,650,670,690,711,730,749,769,790,811,830,849,871,890,909,930,950,970,990,1011,1029,1050,1069,1089,1109,1131,1151,1170,1190,1210,1230,1250,1271,1290,1310,1330,1350,1370,1389,1411,1430,1451,1471,1489,1510,1529,1550,1570,1590,1610,1630,1650,1670,1690,1711,1730,1750,1769,1790,1809,1830,1850,1871,1891,1910,1929,1951,1971,1990,2010,2031,2050,2070,2089,2110,2130,2150,2170,2191,2210,2229,2249,2269,2290,2310,2330,2351,2370,2390,2409,2431,2450,2470,2490,2509,2530,2550,2569,2590,2611,2631,2651,2670,2689,2710,2729,2751,2771,2789,2810,2831,2850,2870,2889,2910,2931,2950,2971,2989,3010,3031,3051,3070,3090,3110,3130,3150,3170,3189,3211,3231,3250,3270,3290,3310,3329,3349,3370,3391,3411,3429,3450,3470,3490,3510,3531,3550,3569,3590,3610,3631,3651,3671,3690,3711,3730,3749,3770,3789,3811,3829,3851,3871,3890,3911,3930,3950,3969,3989,4009,4029,4051,4071,4090,4109,4130,4149,4171,4190,4210,4231,4251,4271,4290,4311,4330,4350,4371,4390,4410,4430,4449,4470,4489,4510,4529,4550,4570,4590,4610,4629,4651,4670,4690,4711,4730,4750,4770,4789,4810,4829,4851,4870,4890,4911,4931],"xSR":741.5,"ySR":573.95,"xT1":424.9,"yT1":0,"xT2":1058.1,"yT2":0,"toosoon":0,"cond_shown":"Incongruent","ratio_trial":100,"L_num":9,"L_den":15,"R_num":14,"R_den":28,"correct_side":1,"subjID":"SebastianMendozaCruz27","gender":"0","school":"4","age":"10"},{"start_time":1552308688534,"click_time":1552308690809,"finger_time":1552308688988,"fix_duration":405.82176606264784,"trial":4,"RT":454,"MT":1821,"sideResp":1,"stimulus":[],"xmouse":[774,774,774,774,774,774,774,774,774,774,774,774,774,774,774,774,774,774,774,774,774,763,743,702,694,687,683,679,679,679,679,679,679,679,679,679,679,679,681,688,701,724,749,785,796,798,800,800,800,800,800,800,800,800,800,800,800,800,800,800,800,800,800,800,800,800,800,800,800,800,800,800,800,800,800,800,800,800,800,800,800,800,800,800,800,799,798,797,797,796,796,796,793,786,781,772,759,740,694,679,665,652,637,600,579,563,555,545,521,507,501,495,488,477],"ymouse":[630,630,630,630,630,630,630,630,630,630,630,630,630,630,630,630,630,630,630,630,629,599,551,454,429,407,390,379,377,377,377,377,377,377,377,377,377,377,385,419,465,531,588,659,673,679,682,683,684,684,684,684,684,684,684,684,684,684,684,684,684,684,684,684,684,684,684,684,684,684,684,684,684,684,684,684,684,684,684,684,684,684,684,684,684,684,684,684,684,684,684,684,683,683,681,678,674,667,645,635,622,602,572,476,413,361,316,264,169,136,123,111,100,82],"timestamp_mouse":[14,43,54,75,94,113,133,155,175,194,213,233,255,273,295,313,333,353,375,395,413,434,454,474,495,514,533,553,574,594,615,633,654,675,694,714,733,754,774,794,813,834,854,873,894,914,935,955,975,994,1014,1034,1053,1073,1093,1114,1135,1154,1173,1194,1214,1234,1253,1273,1295,1314,1334,1354,1373,1394,1414,1435,1455,1473,1494,1513,1533,1554,1574,1595,1615,1635,1655,1673,1694,1714,1733,1754,1774,1794,1814,1835,1854,1874,1895,1915,1934,1954,1974,1994,2013,2033,2054,2073,2095,2115,2133,2153,2174,2194,2213,2234,2255,2275],"xSR":741.5,"ySR":573.95,"xT1":424.9,"yT1":0,"xT2":1058.1,"yT2":0,"toosoon":0,"cond_shown":"Congruent","ratio_trial":300,"L_num":12,"L_den":24,"R_num":2,"R_den":10,"correct_side":1,"subjID":"SebastianMendozaCruz27","gender":"0","school":"4","age":"10"},{"start_time":1552308706705,"click_time":1552308707508,"finger_time":1552308707407,"fix_duration":753.6629873775147,"trial":5,"RT":702,"MT":101,"sideResp":2,"stimulus":[],"xmouse":[786,786,786,786,786,786,786,786,786,786,786,786,786,786,786,786,786,786,786,786,786,786,786,786,786,786,786,786,786,786,786,786,786,791,797,845,893,941,985,1018,1070],"ymouse":[628,628,628,628,628,628,628,628,628,628,628,628,628,628,628,628,628,628,628,628,628,628,628,628,628,628,628,628,628,628,628,628,628,623,609,505,428,367,299,229,88],"timestamp_mouse":[11,22,42,63,82,103,124,143,163,183,204,224,244,263,282,304,324,344,363,384,402,424,444,463,484,504,523,543,563,583,603,624,644,663,684,702,723,743,763,782,803],"xSR":741.5,"ySR":573.95,"xT1":424.9,"yT1":0,"xT2":1058.1,"yT2":0,"toosoon":0,"cond_shown":"Incongruent","ratio_trial":300,"L_num":8,"L_den":10,"R_num":9,"R_den":18,"correct_side":1,"subjID":"SebastianMendozaCruz27","gender":"0","school":"4","age":"10"},{"start_time":1552308709180,"click_time":1552308710048,"finger_time":1552308709508,"fix_duration":250,"trial":6,"RT":328,"MT":540,"sideResp":1,"stimulus":[],"xmouse":[774,774,774,774,774,774,774,774,774,774,774,774,774,774,767,763,702,678,660,639,617,595,588,583,577,570,559,558,556,556,556,556,556,556,556,556,554,551,549,546,543,538,526,520],"ymouse":[626,626,626,626,626,626,626,626,626,626,626,626,626,626,615,601,467,427,391,354,308,245,206,173,146,126,104,99,96,95,95,95,95,95,95,95,91,86,83,79,75,71,65,62],"timestamp_mouse":[9,42,48,69,87,109,127,149,169,187,208,227,249,268,289,309,328,348,368,388,408,427,448,468,488,507,528,549,568,588,607,627,647,669,688,709,727,747,767,789,808,828,848,867],"xSR":741.5,"ySR":573.95,"xT1":424.9,"yT1":0,"xT2":1058.1,"yT2":0,"toosoon":0,"cond_shown":"Congruent","ratio_trial":200,"L_num":3,"L_den":10,"R_num":11,"R_den":22,"correct_side":2,"subjID":"SebastianMendozaCruz27","gender":"0","school":"4","age":"10"},{"start_time":1552308712868,"click_time":1552308715007,"finger_time":1552308712928,"fix_duration":1458.785590795742,"trial":7,"RT":60,"MT":2079,"sideResp":1,"stimulus":[],"xmouse":[797,797,840,861,885,904,915,921,921,921,921,921,921,921,921,921,921,921,921,921,921,921,921,921,921,921,921,921,920,911,897,881,847,840,834,830,826,816,810,806,804,803,802,802,802,802,802,802,802,802,802,802,802,802,802,802,802,802,802,802,802,802,802,802,802,802,801,799,798,797,797,797,796,796,796,795,795,794,794,794,794,794,793,793,793,793,793,793,787,774,745,717,674,659,647,635,623,613,612,611,608,604,597,595,586,569,548,517],"ymouse":[623,623,597,584,571,562,557,554,554,554,554,554,554,554,554,554,554,554,554,554,554,554,554,554,554,554,554,554,552,549,547,545,544,544,544,545,547,560,572,580,585,587,592,593,593,593,593,593,593,593,593,593,593,593,593,593,593,593,593,593,593,593,593,593,595,596,600,609,612,614,616,617,619,620,621,622,622,622,622,622,622,623,624,624,624,624,624,624,613,582,513,445,345,305,262,208,162,121,110,98,79,58,42,41,40,40,40,39],"timestamp_mouse":[1,21,53,60,80,100,120,139,159,179,200,220,239,260,279,300,319,339,361,380,400,419,440,461,480,499,520,540,560,580,600,620,640,660,680,700,720,740,760,780,799,820,840,860,881,900,920,940,961,980,1000,1019,1040,1060,1081,1099,1120,1140,1161,1179,1199,1221,1240,1261,1279,1300,1320,1340,1360,1381,1399,1419,1440,1460,1479,1500,1521,1540,1561,1580,1600,1620,1640,1660,1681,1700,1719,1739,1760,1781,1801,1821,1840,1859,1880,1901,1921,1940,1960,1980,2000,2020,2039,2059,2079,2101,2121,2139],"xSR":741.5,"ySR":573.95,"xT1":424.9,"yT1":0,"xT2":1058.1,"yT2":0,"toosoon":0,"cond_shown":"Incongruent","ratio_trial":200,"L_num":4,"L_den":30,"R_num":1,"R_den":3,"correct_side":2,"subjID":"SebastianMendozaCruz27","gender":"0","school":"4","age":"10"},{"start_time":1552308716601,"click_time":1552308718448,"finger_time":1552308718328,"fix_duration":250,"trial":8,"RT":1727,"MT":120,"sideResp":2,"stimulus":[],"xmouse":[820,820,820,820,820,820,820,820,820,820,820,820,820,820,820,820,820,820,820,820,820,819,819,819,819,819,818,818,817,817,817,817,817,817,817,817,817,817,817,817,817,817,817,817,817,817,817,817,817,817,817,817,817,817,817,817,817,817,817,817,817,817,817,817,817,817,817,817,817,817,817,817,817,817,817,817,817,817,817,817,817,817,817,817,817,819,837,871,897,936,1001,1041,1070],"ymouse":[602,602,602,602,602,602,602,602,602,602,602,602,602,602,602,602,602,602,602,600,596,595,595,595,595,595,594,594,594,594,594,594,594,594,594,594,594,594,594,594,594,594,594,594,594,594,594,594,594,594,594,594,594,594,594,594,594,594,594,594,594,594,594,594,594,594,594,594,594,594,594,594,594,594,594,594,594,594,594,594,594,594,594,594,594,581,539,461,392,303,147,80,27],"timestamp_mouse":[10,39,47,67,88,107,128,148,166,187,208,226,247,267,288,308,328,346,367,386,407,427,446,467,488,508,527,546,568,588,606,627,648,668,687,706,726,748,768,787,807,827,847,867,888,907,927,947,967,986,1006,1027,1046,1068,1087,1106,1128,1147,1168,1187,1206,1226,1246,1267,1288,1306,1328,1348,1367,1388,1408,1427,1446,1468,1488,1506,1526,1546,1568,1587,1608,1627,1648,1668,1687,1706,1727,1746,1768,1787,1807,1828,1847],"xSR":741.5,"ySR":573.95,"xT1":424.9,"yT1":0,"xT2":1058.1,"yT2":0,"toosoon":0,"cond_shown":"Congruent","ratio_trial":300,"L_num":1,"L_den":5,"R_num":11,"R_den":22,"correct_side":2,"subjID":"SebastianMendozaCruz27","gender":"0","school":"4","age":"10"},{"start_time":1552308720660,"click_time":1552308722208,"finger_time":1552308722088,"fix_duration":250,"trial":9,"RT":1428,"MT":120,"sideResp":2,"stimulus":[],"xmouse":[759,759,759,759,759,759,759,759,759,759,759,759,759,759,759,759,759,759,759,759,759,759,759,759,759,759,759,759,759,759,759,759,759,759,759,759,759,759,759,759,759,759,759,759,759,759,759,759,759,759,759,759,759,759,759,759,759,759,759,759,759,759,759,759,759,759,759,759,759,763,769,784,900,973,1032,1062,1079,1096],"ymouse":[601,601,601,601,601,601,601,601,601,601,601,601,601,601,601,601,601,601,601,601,601,601,601,601,601,601,601,601,601,601,601,601,601,601,601,601,601,601,601,601,601,601,601,601,601,601,601,601,601,601,601,601,601,601,601,601,601,601,601,601,601,601,601,601,601,601,601,601,601,599,593,571,407,314,235,170,127,87],"timestamp_mouse":[9,42,48,69,89,108,127,148,169,189,208,228,248,267,287,307,329,349,369,389,408,428,448,468,488,507,527,547,567,587,607,627,647,667,687,707,727,747,767,787,807,827,847,867,887,909,929,947,969,989,1009,1028,1048,1068,1088,1109,1129,1149,1168,1188,1207,1228,1248,1268,1288,1308,1328,1348,1369,1388,1407,1428,1448,1469,1488,1509,1528,1548],"xSR":741.5,"ySR":573.95,"xT1":424.9,"yT1":0,"xT2":1058.1,"yT2":0,"toosoon":0,"cond_shown":"Congruent","ratio_trial":100,"L_num":1,"L_den":2,"R_num":18,"R_den":30,"correct_side":2,"subjID":"SebastianMendozaCruz27","gender":"0","school":"4","age":"10"},{"start_time":1552308724102,"click_time":1552308725508,"finger_time":1552308725129,"fix_duration":653.6249219954143,"trial":10,"RT":1027,"MT":379,"sideResp":1,"stimulus":[],"xmouse":[807,807,807,807,807,807,807,807,807,807,807,807,807,807,807,807,807,807,807,807,807,807,807,807,807,807,807,807,807,807,807,807,807,807,807,807,807,807,807,807,807,807,807,807,807,807,807,804,803,795,776,762,746,720,681,599,585,583,581,578,574,574,574,574,574,567,555,542,530,523,504],"ymouse":[606,606,606,606,606,606,606,606,606,606,606,606,606,606,606,606,606,606,606,606,606,606,606,606,606,606,606,606,606,606,606,606,606,606,606,606,606,606,606,606,606,606,606,606,606,606,606,606,606,601,585,572,557,526,471,337,300,278,253,231,205,205,205,204,202,181,165,148,133,125,97],"timestamp_mouse":[10,35,46,66,86,107,127,147,166,186,206,226,247,267,285,307,327,346,367,386,407,426,447,466,486,507,527,547,565,587,606,627,647,666,686,706,727,746,767,787,806,827,846,867,887,907,927,946,967,986,1007,1027,1046,1066,1086,1106,1127,1146,1166,1186,1206,1227,1246,1266,1287,1306,1326,1347,1367,1387,1406],"xSR":741.5,"ySR":573.95,"xT1":424.9,"yT1":0,"xT2":1058.1,"yT2":0,"toosoon":0,"cond_shown":"Congruent","ratio_trial":300,"L_num":4,"L_den":5,"R_num":2,"R_den":4,"correct_side":1,"subjID":"SebastianMendozaCruz27","gender":"0","school":"4","age":"10"},{"start_time":1552308726761,"click_time":1552308728428,"finger_time":1552308728108,"fix_duration":250,"trial":11,"RT":1347,"MT":320,"sideResp":2,"stimulus":[],"xmouse":[778,778,778,778,778,778,778,778,778,778,778,778,778,778,778,778,778,778,778,778,778,778,778,778,778,778,778,778,778,778,778,778,778,778,778,778,778,778,778,778,778,778,778,778,778,778,778,778,778,778,778,778,778,778,778,778,778,778,778,778,778,778,778,779,781,791,805,911,992,1073,1141,1202,1255,1270,1281,1291,1297,1299,1299,1294,1279,1254,1167,1119],"ymouse":[604,605,605,605,605,605,605,605,605,605,605,605,605,605,605,605,605,605,605,605,605,605,605,605,605,605,605,605,605,605,605,605,605,605,605,605,605,605,605,605,605,605,605,605,605,605,605,605,605,605,605,605,605,605,605,605,605,605,605,605,605,605,605,605,605,597,584,449,343,239,149,79,9,0,0,0,0,0,0,0,4,14,61,90],"timestamp_mouse":[10,27,46,68,88,107,128,148,167,188,208,228,247,267,287,308,328,347,367,387,407,426,447,468,488,508,527,547,568,587,606,628,647,666,687,708,728,746,768,788,808,828,848,868,887,907,926,948,968,988,1008,1027,1048,1067,1088,1106,1128,1147,1168,1187,1207,1228,1248,1266,1288,1307,1327,1347,1367,1386,1408,1428,1447,1467,1487,1507,1528,1547,1567,1588,1608,1627,1648,1666],"xSR":741.5,"ySR":573.95,"xT1":424.9,"yT1":0,"xT2":1058.1,"yT2":0,"toosoon":0,"cond_shown":"Congruent","ratio_trial":200,"L_num":6,"L_den":12,"R_num":7,"R_den":10,"correct_side":2,"subjID":"SebastianMendozaCruz27","gender":"0","school":"4","age":"10"},{"start_time":1552308730299,"click_time":1552308731468,"finger_time":1552308731388,"fix_duration":788.2629510491153,"trial":12,"RT":1089,"MT":80,"sideResp":2,"stimulus":[],"xmouse":[766,766,766,766,766,766,766,766,766,766,766,766,766,766,766,766,766,766,766,766,766,766,766,766,766,766,766,766,766,766,766,766,766,766,766,766,766,766,766,766,766,766,766,766,766,766,766,766,766,766,766,768,773,781,805,939,1021,1080,1119],"ymouse":[625,625,625,625,625,625,625,625,625,625,625,625,625,625,625,625,625,625,625,625,625,625,625,625,625,625,625,625,625,625,625,625,625,625,625,625,625,625,625,625,625,625,625,625,625,625,625,625,625,625,625,625,617,601,572,394,258,141,33],"timestamp_mouse":[10,36,49,70,89,109,129,150,169,190,210,230,250,270,289,309,329,349,369,390,409,429,450,469,490,510,530,549,570,589,609,629,649,669,690,709,729,750,769,788,810,829,850,870,889,909,930,949,970,990,1009,1030,1050,1069,1089,1109,1129,1149,1169],"xSR":741.5,"ySR":573.95,"xT1":424.9,"yT1":0,"xT2":1058.1,"yT2":0,"toosoon":0,"cond_shown":"Congruent","ratio_trial":100,"L_num":1,"L_den":2,"R_num":3,"R_den":5,"correct_side":2,"subjID":"SebastianMendozaCruz27","gender":"0","school":"4","age":"10"},{"start_time":1552308736181,"click_time":1552308737188,"finger_time":1552308737088,"fix_duration":810.8286074952746,"trial":13,"RT":907,"MT":100,"sideResp":2,"stimulus":[],"xmouse":[775,775,775,775,775,775,775,775,775,775,775,775,775,775,775,775,775,775,775,775,775,775,775,775,775,775,775,775,775,775,775,775,775,775,775,775,775,775,775,775,775,775,778,782,793,830,912,966,1016,1063,1094],"ymouse":[619,619,619,619,619,619,619,619,619,619,619,619,619,619,619,619,619,619,619,619,619,619,619,619,619,619,619,619,619,619,619,619,619,619,619,619,619,619,619,619,619,619,618,609,592,528,387,293,195,105,47],"timestamp_mouse":[11,45,46,67,87,108,126,147,168,188,207,228,248,268,287,308,328,348,367,388,408,428,448,467,486,508,528,547,568,588,608,627,648,668,688,708,727,748,768,788,808,827,847,867,887,907,927,949,967,987,1007],"xSR":741.5,"ySR":573.95,"xT1":424.9,"yT1":0,"xT2":1058.1,"yT2":0,"toosoon":0,"cond_shown":"Incongruent","ratio_trial":100,"L_num":9,"L_den":10,"R_num":20,"R_den":25,"correct_side":1,"subjID":"SebastianMendozaCruz27","gender":"0","school":"4","age":"10"},{"start_time":1552308739987,"click_time":1552308741310,"finger_time":1552308740768,"fix_duration":1336.9394560786336,"trial":14,"RT":781,"MT":542,"sideResp":2,"stimulus":[],"xmouse":[794,794,794,794,794,794,794,794,794,794,794,794,794,794,794,794,794,794,794,794,794,794,794,794,794,794,794,794,794,794,794,794,794,794,794,794,799,807,821,845,868,897,953,961,961,961,965,968,976,984,986,988,988,988,988,988,988,992,1002,1011,1023,1038,1040,1042,1045,1053,1069],"ymouse":[641,641,641,641,641,641,641,641,641,641,641,641,641,641,641,641,641,641,641,641,641,641,641,641,641,641,641,641,641,641,641,641,641,641,641,640,628,614,589,549,493,423,261,194,137,90,29,12,0,0,0,0,0,0,0,0,0,3,13,20,25,29,30,30,30,25,16],"timestamp_mouse":[11,21,41,61,81,102,122,141,162,181,201,221,242,261,281,301,321,341,361,382,402,421,441,462,481,501,522,541,562,582,603,622,642,662,681,702,721,741,762,781,800,821,841,861,881,902,921,941,962,981,1001,1021,1041,1062,1082,1102,1121,1142,1161,1182,1201,1222,1241,1262,1281,1301,1322],"xSR":741.5,"ySR":573.95,"xT1":424.9,"yT1":0,"xT2":1058.1,"yT2":0,"toosoon":0,"cond_shown":"Congruent","ratio_trial":100,"L_num":3,"L_den":20,"R_num":4,"R_den":16,"correct_side":2,"subjID":"SebastianMendozaCruz27","gender":"0","school":"4","age":"10"},{"start_time":1552308743006,"click_time":1552308743888,"finger_time":1552308743729,"fix_duration":554.7609670821926,"trial":15,"RT":723,"MT":159,"sideResp":2,"stimulus":[],"xmouse":[821,821,821,821,821,821,821,821,821,821,821,821,821,821,821,821,821,820,819,818,814,814,814,814,814,814,814,814,814,814,814,814,814,814,815,837,864,897,937,983,1065,1086,1096,1100,1103],"ymouse":[617,617,617,617,617,617,617,617,617,617,617,617,617,617,617,617,617,617,617,618,621,621,621,621,621,621,621,621,621,621,621,621,621,621,621,584,536,475,403,323,187,152,130,116,99],"timestamp_mouse":[10,22,52,63,82,102,122,143,163,182,203,222,243,263,283,303,323,343,363,383,402,422,442,463,483,501,523,542,563,582,603,623,642,662,683,702,722,742,762,783,802,822,842,862,882],"xSR":741.5,"ySR":573.95,"xT1":424.9,"yT1":0,"xT2":1058.1,"yT2":0,"toosoon":0,"cond_shown":"Incongruent","ratio_trial":100,"L_num":2,"L_den":4,"R_num":8,"R_den":20,"correct_side":1,"subjID":"SebastianMendozaCruz27","gender":"0","school":"4","age":"10"},{"start_time":1552308746382,"click_time":1552308747348,"finger_time":1552308747308,"fix_duration":1171.6576498756212,"trial":16,"RT":926,"MT":40,"sideResp":2,"stimulus":[],"xmouse":[783,783,783,783,783,783,783,783,783,783,783,783,783,783,783,783,783,783,783,783,783,783,783,783,783,783,783,783,783,783,783,783,783,783,783,783,783,783,783,783,783,783,783,782,793,798,954,1072,1154],"ymouse":[626,626,626,626,626,626,626,626,626,626,626,626,626,626,626,626,626,626,626,626,626,626,626,626,626,626,626,626,626,626,626,626,626,626,626,626,626,626,626,626,626,626,626,624,595,582,316,151,37],"timestamp_mouse":[14,31,45,66,86,106,126,147,167,186,206,226,246,266,286,307,327,346,366,387,406,427,446,467,486,507,526,547,566,587,607,626,647,667,686,707,727,747,767,786,806,827,847,867,887,907,926,946,966],"xSR":741.5,"ySR":573.95,"xT1":424.9,"yT1":0,"xT2":1058.1,"yT2":0,"toosoon":0,"cond_shown":"Congruent","ratio_trial":300,"L_num":1,"L_den":5,"R_num":3,"R_den":6,"correct_side":2,"subjID":"SebastianMendozaCruz27","gender":"0","school":"4","age":"10"},{"start_time":1552308748942,"click_time":1552308750308,"finger_time":1552308749868,"fix_duration":250,"trial":17,"RT":926,"MT":440,"sideResp":1,"stimulus":[],"xmouse":[794,794,794,794,794,794,794,794,794,794,794,794,794,794,794,794,794,794,794,794,794,794,794,794,794,794,794,794,794,794,794,794,794,794,793,793,793,793,793,793,793,793,793,793,792,788,769,727,593,539,508,498,496,495,493,489,486,482,480,480,478,475,474,474,473,471,471,468,467],"ymouse":[575,575,575,575,575,575,575,575,575,575,575,575,575,575,575,575,575,575,575,575,575,575,575,575,575,575,575,575,575,575,575,575,575,575,575,575,575,575,575,575,575,579,580,580,580,580,560,518,356,278,227,209,204,203,196,183,171,164,161,158,151,143,140,135,130,123,117,106,99],"timestamp_mouse":[9,40,46,67,87,107,126,147,166,187,206,226,246,267,286,307,326,346,367,386,406,427,446,466,487,506,526,546,567,586,607,625,647,666,687,707,726,746,766,786,806,826,847,867,886,906,926,947,966,985,1006,1027,1048,1066,1086,1106,1126,1147,1167,1186,1206,1226,1246,1266,1286,1307,1326,1347,1366],"xSR":741.5,"ySR":573.95,"xT1":424.9,"yT1":0,"xT2":1058.1,"yT2":0,"toosoon":0,"cond_shown":"Congruent","ratio_trial":100,"L_num":9,"L_den":15,"R_num":8,"R_den":16,"correct_side":1,"subjID":"SebastianMendozaCruz27","gender":"0","school":"4","age":"10"},{"start_time":1552308751420,"click_time":1552308752889,"finger_time":1552308752428,"fix_duration":250,"trial":18,"RT":1008,"MT":461,"sideResp":2,"stimulus":[],"xmouse":[796,796,796,796,796,796,796,796,796,796,796,796,796,796,796,796,796,796,796,796,796,796,796,796,796,796,796,796,796,796,796,796,796,796,796,796,796,796,796,796,796,796,796,796,801,803,806,809,813,826,836,845,859,883,974,1003,1010,1014,1016,1019,1021,1021,1021,1018,1012,1012,1018,1027,1036,1044,1047,1051,1058,1065],"ymouse":[629,629,629,629,629,629,629,629,629,629,629,629,629,629,628,627,627,627,627,627,627,627,627,627,627,627,627,627,627,627,627,627,627,627,627,627,627,627,627,627,627,627,627,627,620,617,614,609,604,584,566,548,525,492,378,333,315,300,292,279,273,266,256,246,195,175,152,131,115,95,87,79,69,54],"timestamp_mouse":[14,29,48,67,88,108,128,148,169,187,208,229,248,269,288,308,328,349,368,388,409,428,448,469,489,508,529,549,568,588,608,628,648,669,689,708,729,748,769,788,809,828,848,869,888,909,929,949,968,988,1008,1028,1048,1068,1088,1109,1128,1148,1169,1188,1208,1228,1248,1269,1287,1308,1328,1349,1368,1387,1408,1428,1448,1468],"xSR":741.5,"ySR":573.95,"xT1":424.9,"yT1":0,"xT2":1058.1,"yT2":0,"toosoon":0,"cond_shown":"Incongruent","ratio_trial":100,"L_num":3,"L_den":5,"R_num":11,"R_den":22,"correct_side":1,"subjID":"SebastianMendozaCruz27","gender":"0","school":"4","age":"10"},{"start_time":1552308754293,"click_time":1552308756089,"finger_time":1552308755708,"fix_duration":383.226354981367,"trial":19,"RT":1415,"MT":381,"sideResp":1,"stimulus":[],"xmouse":[770,770,770,770,770,770,770,770,770,770,770,770,770,770,770,770,770,770,770,770,770,770,770,770,770,770,770,770,770,770,770,770,770,770,770,770,770,770,770,770,770,770,770,770,770,770,770,770,770,770,770,770,770,770,770,770,770,770,770,770,770,770,770,770,770,770,770,770,770,766,729,671,612,555,519,460,433,401,369,352,339,339,340,346,352,379,391,404,421,442],"ymouse":[622,622,622,622,622,622,622,622,622,622,622,622,622,622,622,622,622,622,622,622,622,622,622,622,622,622,622,622,622,622,622,622,622,622,622,622,622,622,622,622,622,622,622,622,622,622,622,622,622,622,622,622,622,622,622,622,622,622,622,622,622,622,622,622,622,622,622,622,622,619,588,547,494,445,411,349,319,286,259,246,229,224,217,204,189,141,114,85,51,16],"timestamp_mouse":[16,43,56,76,96,115,136,155,175,196,215,235,254,275,296,316,335,355,376,396,416,435,456,476,496,516,536,555,575,595,615,635,656,675,695,716,736,756,776,796,816,835,856,875,894,916,936,956,976,995,1015,1035,1055,1076,1094,1115,1134,1154,1174,1196,1216,1236,1256,1275,1295,1316,1336,1355,1375,1396,1415,1434,1455,1475,1496,1515,1535,1556,1575,1595,1615,1636,1655,1675,1695,1715,1735,1755,1775,1795],"xSR":741.5,"ySR":573.95,"xT1":424.9,"yT1":0,"xT2":1058.1,"yT2":0,"toosoon":0,"cond_shown":"Congruent","ratio_trial":300,"L_num":9,"L_den":10,"R_num":3,"R_den":5,"correct_side":1,"subjID":"SebastianMendozaCruz27","gender":"0","school":"4","age":"10"},{"start_time":1552308758081,"click_time":1552308759269,"finger_time":1552308758849,"fix_duration":852.6412093697473,"trial":20,"RT":768,"MT":420,"sideResp":1,"stimulus":[],"xmouse":[812,812,812,812,812,812,812,812,812,812,812,812,812,812,812,812,812,812,812,812,812,812,812,812,812,812,812,812,812,812,812,812,812,812,812,811,797,761,704,644,559,502,489,478,466,454,435,428,423,421,421,427,432,435,438,440,441,441,442,444],"ymouse":[626,626,626,626,626,626,626,626,626,626,626,626,626,626,626,626,626,626,626,626,626,626,626,626,626,626,626,626,626,626,626,626,626,626,626,625,613,586,547,505,440,386,368,353,337,320,282,257,227,193,165,122,114,109,105,103,103,103,102,97],"timestamp_mouse":[13,29,47,68,88,108,127,146,167,187,208,227,247,267,287,307,328,347,368,387,407,428,447,468,486,508,528,547,568,587,608,628,647,669,688,707,727,748,768,787,807,827,847,868,887,907,927,947,967,988,1007,1027,1048,1067,1088,1108,1128,1148,1167,1188],"xSR":741.5,"ySR":573.95,"xT1":424.9,"yT1":0,"xT2":1058.1,"yT2":0,"toosoon":0,"cond_shown":"Incongruent","ratio_trial":200,"L_num":3,"L_den":10,"R_num":1,"R_den":2,"correct_side":2,"subjID":"SebastianMendozaCruz27","gender":"0","school":"4","age":"10"},{"start_time":1552308760670,"click_time":1552308761648,"finger_time":1552308761049,"fix_duration":320.9949551393817,"trial":21,"RT":379,"MT":599,"sideResp":2,"stimulus":[],"xmouse":[776,776,776,776,776,776,776,776,776,776,776,776,776,778,781,787,819,839,859,883,907,970,996,1011,1025,1035,1046,1047,1049,1050,1050,1053,1056,1057,1058,1060,1062,1065,1066,1068,1069,1071,1074,1077,1079,1081,1082,1082,1083],"ymouse":[622,622,622,622,622,622,622,622,622,622,622,622,622,622,621,616,596,579,563,540,508,401,349,314,279,256,225,219,215,213,212,204,199,196,192,189,182,177,174,170,164,148,135,120,114,109,105,101,97],"timestamp_mouse":[18,47,59,79,98,119,138,158,178,198,218,238,259,279,299,319,338,359,379,398,418,438,458,478,498,519,538,559,579,599,618,639,658,678,698,718,738,759,778,798,818,837,858,878,898,919,938,958,978],"xSR":741.5,"ySR":573.95,"xT1":424.9,"yT1":0,"xT2":1058.1,"yT2":0,"toosoon":0,"cond_shown":"Incongruent","ratio_trial":100,"L_num":1,"L_den":2,"R_num":8,"R_den":20,"correct_side":1,"subjID":"SebastianMendozaCruz27","gender":"0","school":"4","age":"10"},{"start_time":1552308765632,"click_time":1552308766849,"finger_time":1552308766508,"fix_duration":782.457759920384,"trial":22,"RT":876,"MT":341,"sideResp":2,"stimulus":[],"xmouse":[823,823,823,823,823,823,823,823,823,823,823,823,823,823,823,823,823,823,823,823,823,823,823,823,823,823,823,823,823,823,823,823,823,823,823,823,823,823,823,823,825,825,828,845,863,890,924,949,971,977,983,992,1005,1051,1061,1065,1067,1067,1076,1088,1106],"ymouse":[610,610,610,610,610,610,610,610,610,610,610,610,610,610,610,610,610,610,610,610,610,610,610,610,610,610,610,610,610,610,610,610,610,610,610,610,610,610,609,607,605,603,598,573,544,496,430,371,315,300,285,267,244,181,166,162,157,150,125,106,85],"timestamp_mouse":[17,39,57,76,97,117,136,156,177,197,217,236,257,276,296,317,337,357,377,397,417,436,457,476,496,517,537,557,576,597,617,637,657,676,697,716,735,756,777,796,816,836,857,876,897,916,937,957,976,996,1017,1036,1056,1076,1096,1116,1137,1156,1176,1196,1217],"xSR":741.5,"ySR":573.95,"xT1":424.9,"yT1":0,"xT2":1058.1,"yT2":0,"toosoon":0,"cond_shown":"Incongruent","ratio_trial":200,"L_num":1,"L_den":2,"R_num":3,"R_den":10,"correct_side":1,"subjID":"SebastianMendozaCruz27","gender":"0","school":"4","age":"10"},{"start_time":1552308769263,"click_time":1552308769850,"finger_time":1552308769589,"fix_duration":1273.1310924759446,"trial":23,"RT":326,"MT":261,"sideResp":1,"stimulus":[],"xmouse":[807,807,807,807,807,807,807,807,807,807,807,807,807,807,802,785,759,669,617,564,512,468,437,436,436,436,436,440,444,447],"ymouse":[631,631,631,631,631,631,631,631,631,631,631,631,631,631,623,602,569,480,429,379,322,273,206,190,177,163,151,126,109,93],"timestamp_mouse":[9,26,46,65,84,105,126,145,166,186,205,226,246,264,286,306,326,345,365,385,406,426,445,465,485,506,525,545,564,586],"xSR":741.5,"ySR":573.95,"xT1":424.9,"yT1":0,"xT2":1058.1,"yT2":0,"toosoon":0,"cond_shown":"Congruent","ratio_trial":300,"L_num":20,"L_den":25,"R_num":9,"R_den":18,"correct_side":1,"subjID":"SebastianMendozaCruz27","gender":"0","school":"4","age":"10"},{"start_time":1552308771557,"click_time":1552308772489,"finger_time":1552308771889,"fix_duration":747.5402602102909,"trial":24,"RT":332,"MT":600,"sideResp":2,"stimulus":[],"xmouse":[801,801,801,801,801,801,801,801,801,801,801,801,801,804,814,828,851,944,996,1033,1057,1072,1086,1088,1092,1095,1097,1100,1101,1102,1104,1104,1104,1104,1104,1104,1104,1104,1104,1104,1104,1103,1099,1098,1096,1094,1091],"ymouse":[604,604,604,604,604,604,604,604,604,604,604,604,604,602,592,577,547,422,360,317,288,263,230,220,211,204,200,192,188,182,174,164,148,145,142,140,138,131,130,129,128,124,114,110,105,101,97],"timestamp_mouse":[13,36,52,71,92,112,131,152,171,192,211,232,252,272,291,311,332,351,372,392,411,432,451,471,492,511,531,551,570,592,611,632,651,672,691,711,732,751,772,792,811,832,851,871,892,911,931],"xSR":741.5,"ySR":573.95,"xT1":424.9,"yT1":0,"xT2":1058.1,"yT2":0,"toosoon":0,"cond_shown":"Congruent","ratio_trial":100,"L_num":6,"L_den":20,"R_num":5,"R_den":25,"correct_side":1,"subjID":"SebastianMendozaCruz27","gender":"0","school":"4","age":"10"},{"start_time":1552308773521,"click_time":1552308774368,"finger_time":1552308773908,"fix_duration":250,"trial":25,"RT":387,"MT":460,"sideResp":1,"stimulus":[],"xmouse":[806,806,806,806,806,806,806,805,805,805,805,805,805,805,805,805,805,805,802,782,768,756,731,703,664,658,654,649,641,619,610,607,601,596,589,582,572,561,555,543,534,526,515],"ymouse":[651,651,651,651,651,648,647,647,647,647,647,647,647,647,647,647,629,613,578,483,448,416,380,343,283,265,251,235,215,168,155,149,145,141,137,135,133,129,126,116,110,100,90],"timestamp_mouse":[8,38,47,67,88,108,126,148,167,187,207,228,248,268,287,308,328,348,367,387,408,427,447,467,487,507,527,548,566,587,607,627,648,667,687,707,727,748,768,787,807,827,847],"xSR":741.5,"ySR":573.95,"xT1":424.9,"yT1":0,"xT2":1058.1,"yT2":0,"toosoon":0,"cond_shown":"Incongruent","ratio_trial":200,"L_num":11,"L_den":20,"R_num":3,"R_den":4,"correct_side":2,"subjID":"SebastianMendozaCruz27","gender":"0","school":"4","age":"10"},{"start_time":1552308776667,"click_time":1552308778108,"finger_time":1552308777708,"fix_duration":1315.0596408203255,"trial":26,"RT":1041,"MT":400,"sideResp":1,"stimulus":[],"xmouse":[797,797,797,797,797,797,797,797,797,797,797,797,797,797,797,797,797,797,797,797,797,797,797,797,797,797,797,797,797,797,797,797,797,797,797,797,797,797,797,797,797,797,797,797,797,797,797,797,797,797,795,793,779,773,765,754,742,720,710,699,686,670,639,628,617,601,582,557,549,543,539,535,522],"ymouse":[620,620,620,620,620,620,620,620,620,620,620,620,620,620,620,620,620,620,620,620,620,620,620,620,620,620,620,620,620,620,620,620,620,620,620,620,623,624,624,624,624,624,624,624,624,624,624,624,624,624,613,601,517,483,460,431,406,361,343,325,304,285,243,226,208,187,159,128,116,108,103,96,80],"timestamp_mouse":[10,22,52,62,81,101,122,140,161,181,200,220,242,261,281,301,321,342,361,382,401,422,441,461,482,501,522,541,562,582,601,621,642,662,682,702,721,741,761,782,802,821,842,861,881,902,922,940,961,981,1002,1021,1041,1061,1080,1102,1122,1141,1161,1182,1202,1222,1241,1261,1281,1301,1321,1341,1361,1381,1401,1422,1441],"xSR":741.5,"ySR":573.95,"xT1":424.9,"yT1":0,"xT2":1058.1,"yT2":0,"toosoon":0,"cond_shown":"Congruent","ratio_trial":200,"L_num":16,"L_den":20,"R_num":12,"R_den":20,"correct_side":1,"subjID":"SebastianMendozaCruz27","gender":"0","school":"4","age":"10"},{"start_time":1552308785539,"click_time":1552308786949,"finger_time":1552308786648,"fix_duration":1428.5681000230345,"trial":27,"RT":1109,"MT":301,"sideResp":2,"stimulus":[],"xmouse":[823,823,823,823,823,823,823,823,823,823,823,823,823,823,823,823,823,823,823,823,823,823,823,823,823,823,823,823,823,823,823,823,823,823,823,823,823,823,823,823,823,823,823,823,823,823,823,823,823,823,823,823,822,823,835,842,851,860,901,913,926,937,947,977,996,1027,1047,1068,1102,1112,1125],"ymouse":[624,624,624,624,624,624,624,624,624,624,624,624,624,624,624,624,624,624,624,624,624,624,624,624,624,624,624,624,624,624,624,624,624,624,624,624,624,624,624,624,624,624,624,624,624,624,624,624,624,624,624,624,624,613,576,559,539,517,448,430,414,400,385,342,317,281,257,229,144,104,65],"timestamp_mouse":[10,39,50,70,90,109,130,151,170,190,211,230,249,269,289,309,330,349,369,389,409,429,450,469,489,510,529,549,569,589,609,629,650,669,689,710,730,750,769,790,809,829,849,870,890,910,929,950,969,989,1010,1029,1049,1069,1089,1109,1130,1150,1169,1189,1209,1229,1249,1269,1290,1309,1329,1349,1369,1390,1409],"xSR":741.5,"ySR":573.95,"xT1":424.9,"yT1":0,"xT2":1058.1,"yT2":0,"toosoon":0,"cond_shown":"Incongruent","ratio_trial":300,"L_num":3,"L_den":6,"R_num":4,"R_den":20,"correct_side":1,"subjID":"SebastianMendozaCruz27","gender":"0","school":"4","age":"10"},{"start_time":1552308788826,"click_time":1552308790008,"finger_time":1552308789248,"fix_duration":1016.3404170023749,"trial":28,"RT":422,"MT":760,"sideResp":1,"stimulus":[],"xmouse":[783,783,783,783,783,783,783,783,783,783,783,783,783,783,783,783,783,783,782,776,760,747,735,722,682,656,615,563,499,340,260,186,117,70,50,50,50,50,50,50,50,50,50,69,97,156,188,215,234,248,251,257,273,299,328,334,342,350,368,447],"ymouse":[620,620,620,620,620,620,620,620,620,620,620,620,620,620,620,620,620,620,614,605,576,558,540,522,464,409,335,239,129,0,0,0,0,0,0,0,0,0,0,0,0,0,3,34,70,138,168,185,193,194,194,192,182,161,122,109,96,87,77,54],"timestamp_mouse":[9,22,42,62,83,103,122,142,162,183,202,223,243,262,283,303,323,342,362,382,403,422,443,462,483,502,523,542,562,582,602,623,643,662,682,703,723,742,763,783,802,823,843,863,882,903,923,942,962,982,1002,1022,1043,1063,1082,1102,1122,1143,1162,1182],"xSR":741.5,"ySR":573.95,"xT1":424.9,"yT1":0,"xT2":1058.1,"yT2":0,"toosoon":0,"cond_shown":"Congruent","ratio_trial":200,"L_num":4,"L_den":10,"R_num":3,"R_den":15,"correct_side":1,"subjID":"SebastianMendozaCruz27","gender":"0","school":"4","age":"10"},{"start_time":1552308792134,"click_time":1552308793109,"finger_time":1552308792729,"fix_duration":1124.6807956748855,"trial":29,"RT":595,"MT":380,"sideResp":1,"stimulus":[],"xmouse":[793,793,793,793,793,793,793,793,793,793,793,793,793,793,793,793,793,793,793,793,793,793,793,793,793,793,793,794,792,779,750,708,670,623,615,608,600,597,586,585,585,585,584,576,570,563,554,540,522],"ymouse":[633,633,633,633,633,633,633,633,633,633,633,633,633,633,633,633,633,633,633,633,633,633,633,633,633,633,633,630,595,556,493,426,382,330,313,293,265,255,221,217,214,209,200,175,162,147,135,118,99],"timestamp_mouse":[14,45,54,74,95,115,134,154,174,194,215,234,254,274,294,314,334,356,374,395,415,434,455,475,494,514,534,555,574,595,614,635,655,674,694,714,734,754,774,795,813,835,855,874,894,915,935,954,974],"xSR":741.5,"ySR":573.95,"xT1":424.9,"yT1":0,"xT2":1058.1,"yT2":0,"toosoon":0,"cond_shown":"Congruent","ratio_trial":300,"L_num":24,"L_den":30,"R_num":8,"R_den":16,"correct_side":1,"subjID":"SebastianMendozaCruz27","gender":"0","school":"4","age":"10"},{"start_time":1552308795219,"click_time":1552308796309,"finger_time":1552308795848,"fix_duration":1368.407603619351,"trial":30,"RT":629,"MT":461,"sideResp":1,"stimulus":[],"xmouse":[810,810,810,810,810,810,810,810,810,810,810,810,810,810,810,810,810,810,810,810,810,810,810,810,810,810,810,810,810,798,769,718,657,578,521,507,495,483,475,473,473,473,473,473,473,473,473,473,473,474,475,475,473,467,464],"ymouse":[632,632,632,632,632,632,632,632,632,632,632,632,632,632,632,632,632,632,632,632,632,632,632,632,632,632,632,632,632,613,574,508,438,338,267,244,222,202,188,175,171,168,166,166,164,162,161,158,154,150,146,137,125,110,89],"timestamp_mouse":[9,29,53,70,89,110,130,149,170,189,210,230,249,269,290,310,330,349,369,390,409,429,450,470,489,510,531,549,569,589,609,629,649,670,689,709,729,749,770,789,809,829,849,870,889,910,929,949,969,989,1010,1030,1049,1069,1089],"xSR":741.5,"ySR":573.95,"xT1":424.9,"yT1":0,"xT2":1058.1,"yT2":0,"toosoon":0,"cond_shown":"Congruent","ratio_trial":100,"L_num":11,"L_den":22,"R_num":6,"R_den":15,"correct_side":1,"subjID":"SebastianMendozaCruz27","gender":"0","school":"4","age":"10"},{"start_time":1552308798012,"click_time":1552308799989,"finger_time":1552308799349,"fix_duration":841.8345184749096,"trial":31,"RT":1337,"MT":640,"sideResp":2,"stimulus":[],"xmouse":[790,790,790,790,790,790,790,790,790,790,790,790,790,790,790,790,790,790,790,790,790,790,790,790,790,790,790,790,790,790,790,790,790,790,790,790,790,790,790,790,790,790,790,789,781,779,778,778,778,778,778,778,778,778,778,778,778,778,778,778,778,778,778,778,781,802,838,878,948,1109,1192,1268,1338,1395,1458,1458,1455,1449,1440,1427,1385,1355,1313,1271,1255,1255,1255,1255,1254,1242,1232,1217,1194,1186,1165,1164,1162,1160,1154],"ymouse":[640,640,640,640,640,640,640,640,640,640,640,640,640,640,640,640,640,640,640,640,640,640,640,640,640,640,640,640,640,640,640,640,640,640,640,640,640,640,640,640,640,640,640,634,615,609,606,606,606,606,606,606,606,606,606,611,615,617,618,618,618,618,618,618,615,580,516,450,371,203,104,17,0,0,0,0,0,0,4,9,22,32,45,53,53,53,53,53,53,44,37,31,29,29,28,27,27,28,31],"timestamp_mouse":[17,45,56,77,97,116,136,156,176,197,216,237,256,277,297,317,336,356,376,396,416,437,456,476,496,517,537,556,577,597,616,637,657,676,697,717,737,757,776,796,817,837,856,877,896,917,936,956,977,996,1017,1036,1057,1077,1097,1116,1137,1156,1177,1196,1217,1237,1256,1277,1296,1316,1337,1357,1376,1396,1416,1437,1457,1476,1497,1516,1537,1556,1577,1596,1616,1636,1657,1677,1696,1716,1736,1756,1776,1796,1816,1837,1856,1877,1896,1916,1936,1957,1977],"xSR":741.5,"ySR":573.95,"xT1":424.9,"yT1":0,"xT2":1058.1,"yT2":0,"toosoon":0,"cond_shown":"Incongruent","ratio_trial":100,"L_num":10,"L_den":25,"R_num":9,"R_den":18,"correct_side":2,"subjID":"SebastianMendozaCruz27","gender":"0","school":"4","age":"10"},{"start_time":1552308806489,"click_time":1552308807249,"finger_time":1552308807108,"fix_duration":779.6985885974516,"trial":32,"RT":619,"MT":141,"sideResp":1,"stimulus":[],"xmouse":[788,788,788,788,788,788,788,788,788,788,788,788,788,788,788,788,788,788,788,788,788,788,788,788,788,788,788,788,788,788,784,750,706,655,609,566,499,475,458],"ymouse":[598,598,598,598,598,598,598,598,598,598,598,598,598,598,598,598,598,598,598,598,598,598,598,598,598,598,598,598,598,598,592,557,497,421,343,266,152,107,83],"timestamp_mouse":[2,20,40,59,79,101,119,139,160,180,199,221,239,259,279,300,319,339,360,380,400,420,439,460,479,499,519,540,559,580,599,619,641,660,679,699,719,739,759],"xSR":741.5,"ySR":573.95,"xT1":424.9,"yT1":0,"xT2":1058.1,"yT2":0,"toosoon":0,"cond_shown":"Congruent","ratio_trial":300,"L_num":11,"L_den":22,"R_num":1,"R_den":5,"correct_side":1,"subjID":"SebastianMendozaCruz27","gender":"0","school":"4","age":"10"},{"start_time":1552308808746,"click_time":1552308809928,"finger_time":1552308809508,"fix_duration":355.505220835654,"trial":33,"RT":762,"MT":420,"sideResp":2,"stimulus":[],"xmouse":[808,808,808,808,808,808,808,808,808,808,808,808,808,808,808,808,808,808,808,808,808,808,808,808,808,808,808,808,808,808,808,808,808,808,808,808,816,820,848,869,889,911,937,997,1016,1027,1030,1030,1032,1034,1034,1034,1034,1034,1037,1044,1046,1048,1055,1070],"ymouse":[633,633,633,633,633,633,633,633,633,633,633,633,633,633,633,633,633,633,633,633,633,633,633,633,633,633,633,633,633,633,633,633,633,633,627,622,595,579,473,420,365,313,251,138,114,98,89,84,63,53,51,51,51,51,48,45,45,45,43,43],"timestamp_mouse":[9,23,45,63,83,102,122,142,163,183,202,223,243,262,282,303,322,343,363,382,403,423,442,463,482,503,523,542,563,583,602,623,644,663,682,702,723,742,762,782,802,823,842,862,882,903,923,943,962,982,1003,1022,1043,1063,1083,1102,1123,1143,1162,1182],"xSR":741.5,"ySR":573.95,"xT1":424.9,"yT1":0,"xT2":1058.1,"yT2":0,"toosoon":0,"cond_shown":"Incongruent","ratio_trial":200,"L_num":7,"L_den":10,"R_num":12,"R_den":24,"correct_side":1,"subjID":"SebastianMendozaCruz27","gender":"0","school":"4","age":"10"},{"start_time":1552308812607,"click_time":1552308813769,"finger_time":1552308813308,"fix_duration":1057.3597050642784,"trial":34,"RT":701,"MT":461,"sideResp":2,"stimulus":[],"xmouse":[807,807,807,807,807,807,807,807,807,807,807,807,807,807,807,807,807,807,807,807,807,807,807,807,807,807,807,807,807,807,807,807,807,809,814,857,881,904,929,946,968,978,991,1005,1013,1028,1031,1032,1032,1032,1033,1036,1042,1048,1052,1053,1054,1056,1064],"ymouse":[633,633,633,633,633,633,633,633,633,633,633,633,633,633,633,633,633,633,633,633,633,633,633,633,633,633,633,633,633,633,633,633,633,623,616,551,508,459,417,376,307,272,222,176,147,100,91,87,84,84,81,73,64,56,52,50,49,48,45],"timestamp_mouse":[10,22,41,62,82,102,122,141,163,181,202,222,241,261,283,302,321,342,362,381,401,421,442,461,481,501,522,541,562,582,602,622,641,662,681,701,721,741,762,781,801,821,841,861,882,901,922,941,961,983,1001,1021,1041,1062,1082,1101,1121,1141,1162],"xSR":741.5,"ySR":573.95,"xT1":424.9,"yT1":0,"xT2":1058.1,"yT2":0,"toosoon":0,"cond_shown":"Incongruent","ratio_trial":300,"L_num":1,"L_den":2,"R_num":2,"R_den":10,"correct_side":1,"subjID":"SebastianMendozaCruz27","gender":"0","school":"4","age":"10"},{"start_time":1552308817680,"click_time":1552308819008,"finger_time":1552308818589,"fix_duration":610.6518554084132,"trial":35,"RT":909,"MT":419,"sideResp":2,"stimulus":[],"xmouse":[758,758,758,758,758,758,758,758,758,758,758,758,758,758,758,758,758,758,758,758,758,758,758,758,758,758,758,758,758,758,758,758,758,758,758,758,758,758,758,758,758,758,758,766,777,790,812,821,830,838,859,892,909,922,935,947,969,981,995,1008,1022,1046,1057,1063,1065,1067,1072],"ymouse":[623,623,623,623,623,623,623,623,623,623,623,623,623,623,623,623,623,623,623,623,623,623,623,623,623,623,623,623,623,623,623,623,623,623,623,623,623,623,623,623,623,623,620,603,586,565,524,504,481,455,411,363,341,325,307,291,259,242,226,211,194,168,154,146,140,131,96],"timestamp_mouse":[14,28,55,68,89,108,128,148,169,188,208,228,248,269,288,308,329,349,368,388,408,429,449,469,488,509,528,548,569,588,609,628,648,668,689,708,729,748,769,788,809,828,849,869,889,909,928,948,968,989,1009,1028,1049,1069,1088,1108,1128,1149,1168,1188,1208,1228,1249,1269,1289,1309,1328],"xSR":741.5,"ySR":573.95,"xT1":424.9,"yT1":0,"xT2":1058.1,"yT2":0,"toosoon":0,"cond_shown":"Congruent","ratio_trial":300,"L_num":2,"L_den":20,"R_num":10,"R_den":25,"correct_side":2,"subjID":"SebastianMendozaCruz27","gender":"0","school":"4","age":"10"},{"start_time":1552308825381,"click_time":1552308826508,"finger_time":1552308826008,"fix_duration":1289.9120881094636,"trial":36,"RT":627,"MT":500,"sideResp":1,"stimulus":[],"xmouse":[831,831,831,831,831,831,831,831,831,831,831,831,831,831,831,831,831,831,831,831,831,831,831,831,831,831,829,825,821,814,805,775,744,707,653,636,505,443,383,348,336,334,334,334,334,334,331,331,331,331,332,354,368,383,397,422,437],"ymouse":[634,634,634,634,634,634,634,634,634,634,634,634,634,634,634,634,634,634,634,634,634,634,634,634,634,634,629,624,618,611,601,558,514,469,404,384,229,161,105,67,51,45,45,45,44,42,26,24,23,22,22,25,29,34,38,46,52],"timestamp_mouse":[12,30,47,68,87,107,127,147,168,187,207,227,247,268,287,307,328,347,367,388,407,427,447,468,488,508,527,548,568,588,608,627,647,668,687,708,727,748,767,787,809,827,847,868,888,907,927,947,966,988,1008,1027,1047,1067,1088,1108,1127],"xSR":741.5,"ySR":573.95,"xT1":424.9,"yT1":0,"xT2":1058.1,"yT2":0,"toosoon":0,"cond_shown":"Incongruent","ratio_trial":100,"L_num":10,"L_den":25,"R_num":8,"R_den":16,"correct_side":2,"subjID":"SebastianMendozaCruz27","gender":"0","school":"4","age":"10"},{"start_time":1552308830613,"click_time":1552308831089,"finger_time":1552308830969,"fix_duration":1242.1379290813588,"trial":37,"RT":356,"MT":120,"sideResp":2,"stimulus":[],"xmouse":[801,801,801,801,801,801,801,801,801,801,801,801,801,801,801,804,822,849,887,949,976,1011,1064,1092],"ymouse":[636,636,636,636,636,636,636,636,636,636,636,636,636,636,636,630,602,565,520,441,391,305,174,97],"timestamp_mouse":[15,38,55,75,96,116,135,156,175,195,215,236,256,276,295,315,336,356,375,395,415,436,455,476],"xSR":741.5,"ySR":573.95,"xT1":424.9,"yT1":0,"xT2":1058.1,"yT2":0,"toosoon":0,"cond_shown":"Congruent","ratio_trial":300,"L_num":4,"L_den":20,"R_num":13,"R_den":26,"correct_side":2,"subjID":"SebastianMendozaCruz27","gender":"0","school":"4","age":"10"},{"start_time":1552308833066,"click_time":1552308834128,"finger_time":1552308833608,"fix_duration":616.6842784235,"trial":38,"RT":542,"MT":520,"sideResp":2,"stimulus":[],"xmouse":[819,819,819,819,819,819,819,819,819,819,819,819,819,819,819,819,819,819,819,819,819,819,819,819,819,819,824,849,863,878,887,895,909,915,919,922,923,923,923,923,923,924,931,933,937,959,982,1018,1034,1043,1045,1045,1057,1066],"ymouse":[653,653,653,653,653,653,653,653,653,653,653,653,653,653,653,653,653,653,653,653,653,653,653,653,653,649,640,610,597,583,569,546,511,496,484,471,457,421,400,379,358,337,304,288,257,204,155,82,56,41,39,39,39,43],"timestamp_mouse":[13,23,42,63,83,102,122,143,162,183,202,222,243,263,283,302,322,342,363,382,402,423,442,463,483,502,522,542,562,582,602,623,642,663,683,702,722,742,762,783,802,823,842,862,882,902,922,942,962,982,1003,1023,1042,1062],"xSR":741.5,"ySR":573.95,"xT1":424.9,"yT1":0,"xT2":1058.1,"yT2":0,"toosoon":0,"cond_shown":"Incongruent","ratio_trial":200,"L_num":1,"L_den":2,"R_num":3,"R_den":10,"correct_side":1,"subjID":"SebastianMendozaCruz27","gender":"0","school":"4","age":"10"},{"start_time":1552308835950,"click_time":1552308837428,"finger_time":1552308837129,"fix_duration":961.566767783589,"trial":39,"RT":1179,"MT":299,"sideResp":1,"stimulus":[],"xmouse":[792,792,792,792,792,792,792,792,792,792,792,792,792,792,792,792,792,792,792,792,792,792,792,792,792,792,792,792,792,792,792,792,792,792,792,792,792,792,792,792,792,792,793,793,793,793,793,793,793,793,793,793,793,793,793,793,790,764,752,728,689,654,603,587,569,559,550,549,549,549,549,547,538,511],"ymouse":[650,650,650,650,650,649,649,649,649,649,649,649,649,649,649,649,649,649,649,649,649,649,649,649,649,649,649,649,649,649,649,649,649,649,649,649,649,649,649,649,649,649,648,648,648,648,648,648,648,648,648,648,648,648,648,646,640,589,547,455,315,183,32,3,0,0,0,0,0,0,0,0,12,34],"timestamp_mouse":[18,41,58,79,99,118,139,158,178,199,218,239,258,278,298,319,338,359,378,399,418,438,459,479,499,519,538,558,579,598,619,639,658,679,699,719,740,759,778,798,818,839,858,879,899,919,939,959,979,999,1018,1038,1059,1078,1099,1119,1139,1158,1179,1199,1219,1239,1258,1278,1298,1319,1338,1360,1378,1398,1418,1437,1458,1478],"xSR":741.5,"ySR":573.95,"xT1":424.9,"yT1":0,"xT2":1058.1,"yT2":0,"toosoon":0,"cond_shown":"Congruent","ratio_trial":200,"L_num":3,"L_den":10,"R_num":11,"R_den":22,"correct_side":2,"subjID":"SebastianMendozaCruz27","gender":"0","school":"4","age":"10"},{"start_time":1552308839308,"click_time":1552308839809,"finger_time":1552308839608,"fix_duration":637.3092470754691,"trial":40,"RT":300,"MT":201,"sideResp":2,"stimulus":[],"xmouse":[780,780,780,780,780,780,780,780,780,780,780,780,782,789,798,824,838,859,890,930,1028,1050,1061,1066,1067,1067],"ymouse":[618,618,618,618,618,618,618,618,618,618,618,618,616,606,589,543,522,495,458,410,210,163,141,122,105,73],"timestamp_mouse":[10,31,41,60,81,100,121,141,160,181,200,221,241,260,281,300,320,341,361,380,400,420,440,461,480,501],"xSR":741.5,"ySR":573.95,"xT1":424.9,"yT1":0,"xT2":1058.1,"yT2":0,"toosoon":0,"cond_shown":"Congruent","ratio_trial":300,"L_num":11,"L_den":22,"R_num":1,"R_den":5,"correct_side":1,"subjID":"SebastianMendozaCruz27","gender":"0","school":"4","age":"10"},{"start_time":1552308842171,"click_time":1552308843270,"finger_time":1552308842889,"fix_duration":1320.8992772458714,"trial":41,"RT":718,"MT":381,"sideResp":2,"stimulus":[],"xmouse":[782,782,782,782,782,782,782,782,782,782,782,782,782,783,783,783,784,784,784,784,784,784,784,784,784,784,791,795,798,800,804,809,812,816,824,835,875,895,913,933,955,1002,1020,1030,1038,1047,1060,1066,1071,1073,1076,1077,1081,1090,1107],"ymouse":[639,639,639,639,639,639,638,638,638,638,638,638,638,637,637,637,637,637,637,637,637,637,637,637,637,636,632,629,626,624,618,608,604,597,583,564,503,464,419,376,322,187,114,51,0,0,0,0,0,0,0,0,0,0,8],"timestamp_mouse":[18,37,58,77,98,118,137,158,177,198,217,237,258,278,297,317,338,357,378,398,417,437,458,478,499,517,537,557,577,598,618,637,657,677,698,718,737,758,778,798,817,837,857,877,898,917,939,957,977,997,1017,1037,1057,1077,1098],"xSR":741.5,"ySR":573.95,"xT1":424.9,"yT1":0,"xT2":1058.1,"yT2":0,"toosoon":0,"cond_shown":"Incongruent","ratio_trial":300,"L_num":1,"L_den":2,"R_num":2,"R_den":10,"correct_side":1,"subjID":"SebastianMendozaCruz27","gender":"0","school":"4","age":"10"},{"start_time":1552308845040,"click_time":1552308846048,"finger_time":1552308845829,"fix_duration":709.9696317502768,"trial":42,"RT":789,"MT":219,"sideResp":2,"stimulus":[],"xmouse":[782,783,783,783,783,783,783,783,784,784,784,784,784,784,784,785,785,786,786,786,786,786,786,786,786,786,786,786,786,786,786,786,786,786,786,786,788,790,800,815,850,886,922,989,1003,1010,1018,1025,1042,1052,1060],"ymouse":[627,626,626,626,626,626,626,625,625,625,625,625,625,625,625,623,623,622,621,621,621,621,621,621,621,621,621,621,621,621,621,621,621,621,621,620,619,615,598,573,509,431,342,165,126,101,83,69,39,29,20],"timestamp_mouse":[10,28,49,69,89,109,129,148,169,189,209,229,249,269,289,309,328,348,368,389,408,429,449,469,489,509,529,549,569,589,608,628,648,669,689,708,728,749,768,789,809,829,849,868,889,908,928,949,968,988,1008],"xSR":741.5,"ySR":573.95,"xT1":424.9,"yT1":0,"xT2":1058.1,"yT2":0,"toosoon":0,"cond_shown":"Incongruent","ratio_trial":200,"L_num":4,"L_den":6,"R_num":14,"R_den":30,"correct_side":1,"subjID":"SebastianMendozaCruz27","gender":"0","school":"4","age":"10"},{"start_time":1552308848034,"click_time":1552308848809,"finger_time":1552308848529,"fix_duration":923.5532324685444,"trial":43,"RT":495,"MT":280,"sideResp":1,"stimulus":[],"xmouse":[788,788,788,788,788,788,788,788,788,788,788,788,788,788,790,791,792,792,792,792,792,792,792,788,783,778,774,761,725,702,687,673,668,635,606,578,553,534,509],"ymouse":[633,633,633,633,633,633,633,633,633,633,633,633,633,633,630,628,624,622,621,620,618,617,615,587,561,534,509,464,354,310,279,246,236,189,163,137,121,110,97],"timestamp_mouse":[14,39,54,75,95,114,135,155,174,195,215,234,255,275,295,315,334,355,374,395,414,435,455,474,495,514,534,553,574,594,614,634,655,674,695,714,734,755,775],"xSR":741.5,"ySR":573.95,"xT1":424.9,"yT1":0,"xT2":1058.1,"yT2":0,"toosoon":0,"cond_shown":"Congruent","ratio_trial":200,"L_num":9,"L_den":20,"R_num":4,"R_den":16,"correct_side":1,"subjID":"SebastianMendozaCruz27","gender":"0","school":"4","age":"10"},{"start_time":1552308853034,"click_time":1552308853808,"finger_time":1552308853508,"fix_duration":1464.5213291245718,"trial":44,"RT":474,"MT":300,"sideResp":2,"stimulus":[],"xmouse":[774,774,774,774,774,774,774,774,774,774,774,774,774,774,774,774,774,775,775,775,775,776,778,786,794,804,819,837,887,928,976,1050,1065,1092,1094,1094,1094,1096,1101],"ymouse":[577,577,577,577,577,577,577,577,577,577,577,577,577,577,577,577,577,577,577,577,577,577,577,572,565,557,543,524,458,393,313,182,153,112,110,110,108,105,84],"timestamp_mouse":[14,41,54,75,95,115,134,154,174,194,214,235,255,274,294,314,335,353,375,394,415,435,454,474,494,514,534,556,574,594,614,634,654,674,694,713,735,755,774],"xSR":741.5,"ySR":573.95,"xT1":424.9,"yT1":0,"xT2":1058.1,"yT2":0,"toosoon":0,"cond_shown":"Incongruent","ratio_trial":200,"L_num":3,"L_den":4,"R_num":11,"R_den":20,"correct_side":1,"subjID":"SebastianMendozaCruz27","gender":"0","school":"4","age":"10"},{"start_time":1552308856305,"click_time":1552308857308,"finger_time":1552308856929,"fix_duration":1455.8934879089677,"trial":45,"RT":624,"MT":379,"sideResp":1,"stimulus":[],"xmouse":[796,796,796,796,796,796,796,796,796,796,796,796,796,796,796,796,796,796,796,796,796,796,796,796,796,796,796,796,794,780,770,755,736,713,655,629,612,601,599,587,584,581,578,575,566,560,553,550,545,516],"ymouse":[606,606,606,606,606,606,606,606,606,606,606,606,606,606,606,606,606,606,606,606,606,606,606,606,606,605,604,603,599,578,564,546,522,491,402,359,319,293,268,208,195,184,169,156,139,131,122,119,113,90],"timestamp_mouse":[20,43,64,84,103,123,144,163,183,204,223,244,263,283,303,323,344,363,383,402,422,444,463,483,503,523,543,564,583,603,624,643,664,683,703,723,744,764,784,803,824,843,864,883,903,923,944,963,984,1003],"xSR":741.5,"ySR":573.95,"xT1":424.9,"yT1":0,"xT2":1058.1,"yT2":0,"toosoon":0,"cond_shown":"Incongruent","ratio_trial":300,"L_num":1,"L_den":2,"R_num":2,"R_den":10,"correct_side":1,"subjID":"SebastianMendozaCruz27","gender":"0","school":"4","age":"10"},{"start_time":1552308860464,"click_time":1552308861288,"finger_time":1552308860888,"fix_duration":273.4047431481801,"trial":46,"RT":424,"MT":400,"sideResp":2,"stimulus":[],"xmouse":[807,807,807,807,807,807,807,807,807,807,807,807,807,807,807,807,807,811,818,824,832,846,901,921,935,950,965,986,993,999,1002,1005,1012,1014,1018,1021,1023,1027,1034,1043,1054,1067],"ymouse":[653,653,653,653,653,653,653,653,653,653,653,653,653,653,653,653,651,644,636,627,610,583,447,384,335,288,251,202,180,166,152,141,124,119,114,110,109,105,99,95,89,81],"timestamp_mouse":[9,24,45,64,85,104,124,145,164,184,205,225,245,265,284,304,325,344,365,384,405,424,443,466,485,504,524,544,565,584,605,625,644,666,684,704,723,744,764,784,805,824],"xSR":741.5,"ySR":573.95,"xT1":424.9,"yT1":0,"xT2":1058.1,"yT2":0,"toosoon":0,"cond_shown":"Congruent","ratio_trial":100,"L_num":15,"L_den":25,"R_num":13,"R_den":26,"correct_side":1,"subjID":"SebastianMendozaCruz27","gender":"0","school":"4","age":"10"},{"start_time":1552308864968,"click_time":1552308865868,"finger_time":1552308865488,"fix_duration":459.1405992058836,"trial":47,"RT":520,"MT":380,"sideResp":1,"stimulus":[],"xmouse":[821,821,821,821,821,821,821,821,821,821,821,821,821,821,821,821,821,821,821,821,821,821,821,815,795,769,691,585,534,497,477,459,433,425,410,398,391,379,379,379,379,381,394,404,417,430],"ymouse":[613,613,613,613,613,613,613,613,613,613,613,613,613,613,613,613,613,613,613,613,613,613,613,608,596,581,519,396,327,275,231,202,157,139,104,79,60,29,17,12,10,9,8,8,10,15],"timestamp_mouse":[2,20,47,59,81,101,121,140,161,180,201,221,240,261,281,300,321,340,361,381,400,420,441,460,480,501,520,540,560,579,600,620,640,660,680,700,721,740,761,780,800,820,840,861,880,900],"xSR":741.5,"ySR":573.95,"xT1":424.9,"yT1":0,"xT2":1058.1,"yT2":0,"toosoon":0,"cond_shown":"Incongruent","ratio_trial":100,"L_num":9,"L_den":15,"R_num":13,"R_den":26,"correct_side":1,"subjID":"SebastianMendozaCruz27","gender":"0","school":"4","age":"10"},{"start_time":1552308867546,"click_time":1552308868548,"finger_time":1552308868168,"fix_duration":336.87262386761586,"trial":48,"RT":622,"MT":380,"sideResp":1,"stimulus":[],"xmouse":[805,805,805,805,805,805,805,805,805,805,805,805,805,805,805,805,805,805,805,805,805,805,805,805,805,805,805,805,800,791,775,750,717,644,626,609,585,567,542,538,536,534,534,534,534,534,533,532,528,525,523],"ymouse":[637,637,637,637,637,637,637,637,637,637,637,637,637,637,637,637,637,637,637,637,637,637,637,637,637,637,637,635,623,609,584,553,508,399,359,321,279,240,177,162,149,137,127,119,115,111,107,102,96,94,94],"timestamp_mouse":[21,22,45,63,82,102,122,143,163,183,203,223,243,263,283,302,322,342,363,383,403,422,442,462,482,503,522,542,562,582,603,622,643,663,682,703,722,742,762,783,802,823,842,862,883,903,923,942,963,982,1002],"xSR":741.5,"ySR":573.95,"xT1":424.9,"yT1":0,"xT2":1058.1,"yT2":0,"toosoon":0,"cond_shown":"Congruent","ratio_trial":100,"L_num":11,"L_den":22,"R_num":6,"R_den":15,"correct_side":1,"subjID":"SebastianMendozaCruz27","gender":"0","school":"4","age":"10"},{"start_time":1552308870814,"click_time":1552308871749,"finger_time":1552308871109,"fix_duration":1405.3792829977408,"trial":49,"RT":295,"MT":640,"sideResp":2,"stimulus":[],"xmouse":[796,796,796,796,796,796,796,796,796,796,800,804,815,832,870,899,921,947,965,991,997,999,1000,1000,1003,1006,1011,1018,1023,1034,1039,1046,1051,1054,1055,1055,1055,1055,1055,1055,1055,1055,1055,1055,1063,1066,1068],"ymouse":[608,608,608,608,608,608,608,608,608,608,606,604,596,582,542,505,467,419,381,319,305,297,292,288,278,272,263,253,244,227,219,209,197,189,182,182,182,182,179,171,168,162,154,143,110,101,95],"timestamp_mouse":[14,44,54,73,95,115,134,155,174,194,214,235,255,275,295,316,334,355,374,394,414,434,453,474,494,515,535,555,574,594,614,634,654,674,694,715,734,754,775,794,814,834,854,873,894,914,935],"xSR":741.5,"ySR":573.95,"xT1":424.9,"yT1":0,"xT2":1058.1,"yT2":0,"toosoon":0,"cond_shown":"Congruent","ratio_trial":300,"L_num":20,"L_den":25,"R_num":13,"R_den":26,"correct_side":1,"subjID":"SebastianMendozaCruz27","gender":"0","school":"4","age":"10"},{"start_time":1552308873206,"click_time":1552308874029,"finger_time":1552308873568,"fix_duration":334.20609287896855,"trial":50,"RT":362,"MT":461,"sideResp":1,"stimulus":[],"xmouse":[802,802,802,802,802,802,802,802,802,802,802,802,802,802,801,795,786,769,745,728,697,687,677,667,660,644,637,628,618,598,589,580,570,560,549,529,513,502,494,481,477,473],"ymouse":[624,624,624,624,624,624,624,624,624,624,624,624,624,624,624,622,610,586,553,525,464,439,413,389,369,323,307,291,276,249,237,226,213,201,191,171,152,141,131,113,107,98],"timestamp_mouse":[12,29,42,62,82,102,123,143,163,182,202,222,242,262,282,302,323,343,362,383,402,423,443,463,482,502,523,543,563,584,603,622,642,663,682,702,723,742,762,784,802,823],"xSR":741.5,"ySR":573.95,"xT1":424.9,"yT1":0,"xT2":1058.1,"yT2":0,"toosoon":0,"cond_shown":"Incongruent","ratio_trial":300,"L_num":4,"L_den":20,"R_num":2,"R_den":4,"correct_side":2,"subjID":"SebastianMendozaCruz27","gender":"0","school":"4","age":"10"},{"start_time":1552308875415,"click_time":1552308876030,"finger_time":1552308875688,"fix_duration":284.7162901505298,"trial":51,"RT":273,"MT":342,"sideResp":2,"stimulus":[],"xmouse":[821,821,821,821,821,821,821,821,821,821,821,824,829,841,902,931,956,987,1015,1043,1052,1057,1058,1060,1064,1065,1066,1066,1067,1068,1071],"ymouse":[607,607,607,607,607,607,607,607,607,607,607,603,594,573,464,404,335,275,220,166,151,139,135,131,123,121,119,118,110,102,91],"timestamp_mouse":[13,43,54,73,94,113,134,154,173,194,214,233,254,273,293,313,333,353,373,394,413,433,454,473,493,513,533,554,575,593,614],"xSR":741.5,"ySR":573.95,"xT1":424.9,"yT1":0,"xT2":1058.1,"yT2":0,"toosoon":0,"cond_shown":"Incongruent","ratio_trial":300,"L_num":13,"L_den":26,"R_num":12,"R_den":15,"correct_side":2,"subjID":"SebastianMendozaCruz27","gender":"0","school":"4","age":"10"},{"start_time":1552308877871,"click_time":1552308878929,"finger_time":1552308878248,"fix_duration":1201.2578430215585,"trial":52,"RT":377,"MT":681,"sideResp":2,"stimulus":[],"xmouse":[820,820,820,820,820,820,820,820,820,820,820,820,820,820,820,820,823,836,862,901,968,1096,1156,1167,1171,1173,1173,1173,1173,1173,1172,1170,1160,1146,1128,1098,1033,1024,1022,1022,1022,1022,1022,1022,1023,1026,1039,1044,1049,1053,1055,1058,1065],"ymouse":[635,635,635,635,635,635,635,635,635,635,635,635,635,635,635,635,628,613,581,519,422,252,186,168,158,147,144,143,142,142,139,137,131,126,123,118,95,89,87,87,87,87,86,85,83,81,76,75,73,72,71,71,71],"timestamp_mouse":[23,45,57,78,97,118,137,158,177,197,217,237,257,278,298,318,337,358,377,396,417,437,457,477,497,518,537,558,577,598,618,637,657,677,697,717,738,757,776,797,817,837,858,878,898,918,938,957,977,998,1018,1037,1058],"xSR":741.5,"ySR":573.95,"xT1":424.9,"yT1":0,"xT2":1058.1,"yT2":0,"toosoon":0,"cond_shown":"Incongruent","ratio_trial":100,"L_num":13,"L_den":26,"R_num":6,"R_den":10,"correct_side":2,"subjID":"SebastianMendozaCruz27","gender":"0","school":"4","age":"10"},{"start_time":1552308882311,"click_time":1552308882969,"finger_time":1552308882629,"fix_duration":982.9561745322198,"trial":53,"RT":318,"MT":340,"sideResp":2,"stimulus":[],"xmouse":[816,816,816,816,816,816,816,816,816,816,816,816,816,816,818,818,818,823,835,898,989,1019,1061,1066,1066,1066,1066,1066,1066,1066,1066,1066,1066],"ymouse":[602,602,602,602,602,602,602,602,602,602,602,602,602,597,575,550,519,478,433,259,64,15,0,0,0,0,0,0,0,0,0,0,2],"timestamp_mouse":[17,44,57,76,98,118,138,157,177,198,217,238,258,278,298,318,338,358,377,398,417,436,458,477,497,518,538,557,576,597,617,637,658],"xSR":741.5,"ySR":573.95,"xT1":424.9,"yT1":0,"xT2":1058.1,"yT2":0,"toosoon":0,"cond_shown":"Incongruent","ratio_trial":300,"L_num":1,"L_den":2,"R_num":3,"R_den":15,"correct_side":1,"subjID":"SebastianMendozaCruz27","gender":"0","school":"4","age":"10"},{"start_time":1552308885329,"click_time":1552308886149,"finger_time":1552308885708,"fix_duration":378.1353530604234,"trial":54,"RT":379,"MT":441,"sideResp":1,"stimulus":[],"xmouse":[800,800,800,800,800,800,800,800,800,800,800,800,800,800,800,800,786,772,651,603,544,477,420,341,316,307,302,302,303,305,306,308,312,327,347,368,388,406,418,422,427],"ymouse":[627,627,627,627,627,627,627,627,627,627,627,627,627,627,627,627,610,595,480,415,352,292,229,122,74,48,20,14,0,0,0,0,0,0,0,0,0,9,18,20,25],"timestamp_mouse":[28,39,59,80,99,119,140,160,180,199,220,240,259,279,300,320,339,359,379,399,419,439,460,480,498,519,539,560,579,599,619,639,659,680,700,719,739,759,780,799,820],"xSR":741.5,"ySR":573.95,"xT1":424.9,"yT1":0,"xT2":1058.1,"yT2":0,"toosoon":0,"cond_shown":"Congruent","ratio_trial":200,"L_num":7,"L_den":21,"R_num":2,"R_den":15,"correct_side":1,"subjID":"SebastianMendozaCruz27","gender":"0","school":"4","age":"10"},{"start_time":1552308891106,"click_time":1552308891930,"finger_time":1552308891508,"fix_duration":1495.7940336909762,"trial":55,"RT":402,"MT":422,"sideResp":1,"stimulus":[],"xmouse":[824,824,824,824,824,824,824,824,824,824,824,824,824,824,824,824,824,816,809,787,626,537,459,405,384,365,359,352,346,340,332,332,338,345,357,388,404,423,442,462,469,471],"ymouse":[609,609,609,609,609,609,609,609,609,609,609,609,609,609,609,609,609,606,602,588,473,394,328,283,257,208,181,156,134,112,68,58,47,36,24,0,0,0,0,0,0,1],"timestamp_mouse":[11,39,43,63,83,102,122,143,162,183,202,223,243,261,283,303,322,342,362,383,402,423,442,462,483,502,522,542,563,583,602,623,642,663,683,703,723,743,763,782,804,823],"xSR":741.5,"ySR":573.95,"xT1":424.9,"yT1":0,"xT2":1058.1,"yT2":0,"toosoon":0,"cond_shown":"Congruent","ratio_trial":100,"L_num":9,"L_den":15,"R_num":8,"R_den":16,"correct_side":1,"subjID":"SebastianMendozaCruz27","gender":"0","school":"4","age":"10"},{"start_time":1552308893863,"click_time":1552308894768,"finger_time":1552308894349,"fix_duration":993.1834422397969,"trial":56,"RT":486,"MT":419,"sideResp":2,"stimulus":[],"xmouse":[821,821,821,821,821,821,821,821,821,821,821,821,821,821,821,821,821,822,822,822,823,824,828,837,849,877,903,971,997,1007,1009,1009,1018,1026,1030,1031,1033,1037,1039,1040,1041,1044,1048,1051,1056,1063],"ymouse":[640,640,640,640,640,640,640,640,640,640,640,640,640,640,640,640,639,638,637,635,634,632,622,609,582,532,470,318,252,196,136,109,82,73,67,66,63,58,56,53,51,49,46,45,42,39],"timestamp_mouse":[9,25,45,66,86,105,125,145,165,185,206,226,246,265,286,305,325,345,365,385,406,426,445,465,486,505,525,545,565,585,606,625,645,665,685,705,726,745,765,785,806,825,845,866,886,905],"xSR":741.5,"ySR":573.95,"xT1":424.9,"yT1":0,"xT2":1058.1,"yT2":0,"toosoon":0,"cond_shown":"Incongruent","ratio_trial":300,"L_num":8,"L_den":10,"R_num":14,"R_den":28,"correct_side":1,"subjID":"SebastianMendozaCruz27","gender":"0","school":"4","age":"10"},{"start_time":1552308896688,"click_time":1552308897430,"finger_time":1552308897108,"fix_duration":1057.2861824583342,"trial":57,"RT":420,"MT":322,"sideResp":1,"stimulus":[],"xmouse":[787,787,787,787,787,787,787,787,787,787,787,787,787,787,787,787,787,787,786,783,775,723,667,603,549,524,520,520,520,520,520,519,518,518,518,518,519,522],"ymouse":[643,643,643,643,643,643,643,643,643,643,643,643,643,643,643,643,643,643,642,637,625,532,439,326,245,210,198,191,186,185,184,177,169,161,149,136,109,97],"timestamp_mouse":[2,20,41,61,80,101,121,140,161,180,201,220,241,260,281,301,320,341,361,381,400,420,441,461,480,500,520,541,560,580,601,619,641,660,681,700,720,741],"xSR":741.5,"ySR":573.95,"xT1":424.9,"yT1":0,"xT2":1058.1,"yT2":0,"toosoon":0,"cond_shown":"Congruent","ratio_trial":100,"L_num":7,"L_den":14,"R_num":15,"R_den":25,"correct_side":2,"subjID":"SebastianMendozaCruz27","gender":"0","school":"4","age":"10"},{"start_time":1552308900569,"click_time":1552308904209,"finger_time":1552308902529,"fix_duration":497.5090883176896,"trial":58,"RT":1960,"MT":1680,"sideResp":1,"stimulus":[],"xmouse":[804,804,804,804,804,804,804,804,804,804,804,804,804,804,804,804,804,804,804,804,804,804,804,804,804,804,804,804,804,804,804,804,804,804,804,804,804,804,804,804,804,804,804,804,804,804,804,804,804,804,804,804,804,804,804,804,804,804,804,804,804,804,804,804,804,804,804,804,804,804,804,804,804,804,804,804,804,804,804,804,804,804,804,804,804,804,804,804,804,804,804,804,804,804,804,804,804,825,853,881,911,948,989,1002,1019,1038,1040,1041,1042,1042,1042,1041,1031,1024,1015,1004,988,936,909,881,857,837,804,789,782,773,767,763,763,763,763,763,763,763,763,763,763,763,763,763,763,763,763,763,763,763,763,763,761,751,738,707,615,565,518,474,403,343,329,320,313,307,302,302,302,302,302,302,319,331,344,357,385,396,404,410,413,414,415,416,417,419,425],"ymouse":[634,634,634,634,634,634,634,634,634,634,634,634,634,634,634,634,634,634,634,634,634,634,634,634,634,634,634,634,634,634,634,634,634,634,634,634,634,634,634,634,634,634,634,634,634,634,634,634,634,634,634,634,634,634,634,634,634,634,634,634,634,634,634,634,634,634,634,634,634,634,634,634,634,634,634,634,634,634,634,634,634,634,634,634,634,634,634,634,634,634,634,634,634,634,634,634,634,630,622,613,598,572,555,555,555,558,560,562,567,572,579,587,613,626,637,648,657,677,685,689,691,689,672,662,654,646,639,629,627,626,624,623,622,621,621,621,621,621,621,621,621,621,621,621,621,621,621,614,601,580,555,511,390,328,281,225,105,0,0,0,0,0,0,0,0,0,0,0,7,12,19,26,41,45,47,48,48,48,48,48,49,49,50],"timestamp_mouse":[1,20,39,59,79,100,118,140,159,180,200,219,239,259,280,299,319,340,360,378,400,419,439,459,480,499,519,540,560,579,600,619,639,660,679,699,720,740,760,780,799,819,840,860,880,899,919,940,959,980,999,1020,1040,1060,1079,1099,1119,1139,1159,1181,1200,1220,1239,1259,1280,1300,1319,1338,1359,1380,1399,1419,1439,1459,1479,1500,1520,1540,1560,1579,1599,1620,1640,1659,1680,1700,1720,1739,1759,1779,1800,1819,1839,1860,1880,1899,1920,1939,1960,1979,2000,2019,2039,2061,2079,2099,2120,2139,2159,2179,2200,2219,2240,2259,2279,2299,2319,2339,2359,2379,2400,2420,2439,2459,2479,2500,2519,2539,2560,2580,2599,2619,2639,2659,2680,2700,2720,2739,2760,2779,2799,2820,2840,2860,2879,2899,2920,2939,2960,2980,3000,3020,3039,3059,3080,3099,3119,3139,3159,3179,3199,3220,3241,3260,3279,3300,3320,3339,3360,3380,3400,3419,3441,3460,3480,3499,3520,3540,3560,3579,3599,3620,3639],"xSR":741.5,"ySR":573.95,"xT1":424.9,"yT1":0,"xT2":1058.1,"yT2":0,"toosoon":0,"cond_shown":"Incongruent","ratio_trial":300,"L_num":1,"L_den":2,"R_num":3,"R_den":15,"correct_side":1,"subjID":"SebastianMendozaCruz27","gender":"0","school":"4","age":"10"},{"start_time":1552308905568,"click_time":1552308907349,"finger_time":1552308906948,"fix_duration":250,"trial":59,"RT":1380,"MT":401,"sideResp":2,"stimulus":[],"xmouse":[776,776,776,776,776,776,776,776,776,776,776,776,776,776,776,776,776,776,776,776,776,776,776,776,776,776,776,776,776,776,776,776,776,776,776,776,776,776,776,776,776,776,776,776,776,776,776,776,776,776,776,776,776,776,776,776,776,776,776,776,776,776,776,776,776,777,780,796,812,830,855,893,972,1018,1058,1092,1119,1172,1177,1181,1183,1187,1200,1201,1201,1201,1201,1186,1168,1147],"ymouse":[598,598,598,598,598,598,598,598,598,598,598,598,598,598,598,598,598,598,598,598,598,598,598,598,598,598,598,598,598,598,598,598,598,598,598,598,598,598,598,598,598,598,598,598,598,598,598,598,598,598,598,598,598,598,598,598,598,598,598,598,598,598,598,598,598,598,595,585,574,560,535,498,411,362,307,258,181,50,31,16,0,0,0,0,0,0,0,5,13,23],"timestamp_mouse":[10,21,40,61,80,100,120,141,160,181,201,220,241,261,281,301,321,341,362,381,401,421,440,461,480,500,520,541,560,582,602,620,640,660,680,701,720,740,760,780,801,820,840,860,881,901,920,941,960,980,1000,1021,1042,1061,1081,1100,1120,1140,1161,1180,1201,1221,1241,1261,1281,1300,1321,1340,1361,1380,1401,1421,1440,1460,1481,1501,1520,1540,1560,1580,1600,1620,1641,1660,1680,1700,1721,1740,1761,1780],"xSR":741.5,"ySR":573.95,"xT1":424.9,"yT1":0,"xT2":1058.1,"yT2":0,"toosoon":0,"cond_shown":"Incongruent","ratio_trial":200,"L_num":7,"L_den":10,"R_num":12,"R_den":24,"correct_side":1,"subjID":"SebastianMendozaCruz27","gender":"0","school":"4","age":"10"},{"start_time":1552308908932,"click_time":1552308909608,"finger_time":1552308909408,"fix_duration":521.6111688272506,"trial":60,"RT":476,"MT":200,"sideResp":1,"stimulus":[],"xmouse":[785,785,785,785,785,785,785,785,785,785,785,785,785,785,785,785,785,785,782,779,775,772,768,754,740,722,695,652,573,527,487,468,460,453],"ymouse":[630,630,630,630,630,630,630,630,630,630,630,630,630,630,629,627,621,618,604,598,590,585,579,561,548,527,498,450,337,257,188,147,120,77],"timestamp_mouse":[16,42,57,76,96,117,138,156,177,196,218,236,257,277,296,316,336,357,376,397,416,437,457,476,496,517,537,556,576,597,616,637,656,676],"xSR":741.5,"ySR":573.95,"xT1":424.9,"yT1":0,"xT2":1058.1,"yT2":0,"toosoon":0,"cond_shown":"Incongruent","ratio_trial":100,"L_num":12,"L_den":24,"R_num":9,"R_den":15,"correct_side":2,"subjID":"SebastianMendozaCruz27","gender":"0","school":"4","age":"10"},{"start_time":1552308910960,"click_time":1552308912108,"finger_time":1552308911688,"fix_duration":250,"trial":61,"RT":728,"MT":420,"sideResp":2,"stimulus":[],"xmouse":[791,791,791,791,791,791,791,791,791,791,791,791,791,791,791,791,791,791,791,791,791,791,791,791,791,791,791,791,791,791,791,791,795,801,810,829,842,871,885,895,898,899,899,899,899,899,899,899,899,899,899,900,921,948,987,1054,1100,1145],"ymouse":[628,628,628,628,628,628,628,628,628,628,628,628,628,628,628,628,628,628,628,628,628,628,628,628,628,628,628,628,628,628,628,628,628,623,613,589,570,531,513,502,498,498,498,498,498,498,498,498,498,498,498,496,467,433,373,258,153,34],"timestamp_mouse":[23,31,48,69,88,109,128,148,168,188,209,228,249,269,289,309,328,348,369,389,408,428,449,469,488,508,529,548,569,588,608,628,648,669,689,709,728,748,768,788,809,829,849,868,888,908,928,948,969,988,1008,1028,1048,1068,1088,1108,1128,1148],"xSR":741.5,"ySR":573.95,"xT1":424.9,"yT1":0,"xT2":1058.1,"yT2":0,"toosoon":0,"cond_shown":"Incongruent","ratio_trial":200,"L_num":3,"L_den":10,"R_num":1,"R_den":2,"correct_side":2,"subjID":"SebastianMendozaCruz27","gender":"0","school":"4","age":"10"},{"start_time":1552308913201,"click_time":1552308914828,"finger_time":1552308914669,"fix_duration":250,"trial":62,"RT":1468,"MT":159,"sideResp":2,"stimulus":[],"xmouse":[776,776,776,776,776,776,776,776,776,777,778,77