[{"start_time":1552309249998,"click_time":1552309251808,"finger_time":1552309250009,"fix_duration":424.7625108626747,"trial":0,"RT":11,"MT":1799,"sideResp":1,"stimulus":"img/900/randomdotsizeEA/R/6_Ratio_900_L_9_R_10.png","xmouse":[803,803,803,803,803,803,803,803,803,803,803,803,803,803,803,803,803,803,803,803,803,803,803,803,803,803,803,803,803,803,803,803,803,803,802,801,800,800,800,800,799,799,799,799,799,799,799,799,799,799,799,799,799,799,799,799,799,799,797,791,784,755,733,724,702,688,676,673,670,664,658,645,639,634,629,626,626,626,626,626,626,623,622,621,617,612,589,568,547,528,513],"ymouse":[579,579,579,579,579,579,579,579,579,579,579,579,579,579,579,579,579,579,579,579,579,579,579,579,579,579,579,579,579,579,579,579,579,579,575,569,567,564,561,560,560,560,560,560,560,560,560,560,560,560,560,560,560,560,560,560,560,558,552,544,536,511,490,482,458,441,424,422,410,397,384,351,329,304,273,261,250,247,245,241,238,221,214,210,201,189,134,100,69,46,31],"timestamp_mouse":[11,30,49,70,90,110,130,149,169,190,209,229,251,270,290,310,330,350,369,389,409,430,449,470,491,510,530,550,570,589,610,630,650,670,690,709,729,749,769,791,810,830,850,871,891,910,929,950,971,990,1010,1029,1050,1069,1091,1110,1130,1150,1170,1189,1209,1229,1251,1270,1291,1310,1330,1349,1369,1389,1410,1429,1449,1470,1491,1510,1529,1550,1570,1590,1609,1629,1650,1670,1689,1710,1729,1750,1771,1790,1810],"xSR":741.5,"ySR":501.8,"xT1":424.9,"yT1":0,"xT2":1058.1,"yT2":0,"toosoon":0,"cond_shown":"randomdotsizeEA","ratio_trial":900,"smaller_num":"9","larger_num":"10","correct_side":2,"subjID":"SebastianMendoza27","gender":"0","age":"10","school":"4","test":{"fix_dur":[250,1500],"timestim":300,"targets_dim":[100,100],"targets_relative_coord":[0.3,0.7],"size_stim":[880,420],"start_dim":[100,100],"size_start":[300,300],"size_fix":60,"samplingrate":20,"img_types":["equaldotsize","equaldotanddens","randomdotsizeEA"],"ratios":[250,500,750,900],"rep_conds":9,"nTrials":120,"trials_to_rest":500,"Trials_order":[107,33,29,116,19,96,43,64,9,3,63,97,28,12,61,58,59,56,69,23,93,110,25,76,108,98,38,102,91,52,79,84,113,75,17,99,46,65,119,36,89,6,24,94,5,32,21,90,26,0,86,22,45,78,66,2,8,104,118,7,71,41,30,62,88,18,1,101,39,54,14,87,83,82,20,60,55,4,31,10,44,51,15,53,48,109,34,35,85,95,27,57,50,49,115,111,73,47,81,72,103,106,13,16,40,92,37,70,117,112,42,67,114,105,77,74,11,100,68,80],"cond_shown":["randomdotsizeEA","equaldotsize","randomdotsizeEA","randomdotsizeEA","equaldotanddens","equaldotsize","equaldotanddens","equaldotanddens","equaldotsize","equaldotsize","equaldotsize","equaldotanddens","equaldotanddens","equaldotsize","equaldotanddens","equaldotanddens","randomdotsizeEA","randomdotsizeEA","equaldotsize","randomdotsizeEA","equaldotsize","randomdotsizeEA","equaldotanddens","equaldotanddens","equaldotsize","randomdotsizeEA","randomdotsizeEA","equaldotsize","equaldotanddens","equaldotanddens","equaldotanddens","equaldotsize","randomdotsizeEA","equaldotsize","randomdotsizeEA","equaldotsize","equaldotanddens","randomdotsizeEA","randomdotsizeEA","equaldotsize","randomdotsizeEA","equaldotsize","equaldotsize","equaldotanddens","randomdotsizeEA","randomdotsizeEA","equaldotsize","equaldotsize","randomdotsizeEA","equaldotsize","randomdotsizeEA","equaldotanddens","equaldotsize","equaldotsize","equaldotsize","randomdotsizeEA","randomdotsizeEA","randomdotsizeEA","equaldotanddens","equaldotanddens","randomdotsizeEA","randomdotsizeEA","equaldotsize","randomdotsizeEA","equaldotanddens","equaldotsize","equaldotanddens","randomdotsizeEA","equaldotsize","equaldotsize","randomdotsizeEA","equaldotsize","randomdotsizeEA","equaldotanddens","randomdotsizeEA","equaldotsize","equaldotanddens","equaldotanddens","equaldotanddens","equaldotanddens","randomdotsizeEA","equaldotsize","equaldotsize","randomdotsizeEA","equaldotsize","equaldotanddens","equaldotanddens","randomdotsizeEA","equaldotanddens","randomdotsizeEA","equaldotsize","equaldotsize","randomdotsizeEA","equaldotanddens","equaldotanddens","equaldotsize","equaldotanddens","randomdotsizeEA","equaldotsize","equaldotsize","equaldotanddens","equaldotanddens","equaldotanddens","equaldotanddens","equaldotanddens","randomdotsizeEA","equaldotanddens","equaldotanddens","equaldotsize","equaldotanddens","equaldotsize","equaldotanddens","equaldotsize","equaldotsize","randomdotsizeEA","randomdotsizeEA","randomdotsizeEA","equaldotanddens","randomdotsizeEA","randomdotsizeEA"],"ratio_trial":[900,900,500,750,750,250,750,500,900,500,500,250,500,250,250,900,900,750,900,900,900,250,250,500,250,250,250,750,750,500,750,250,500,500,500,500,900,500,900,250,500,750,250,900,500,750,900,750,250,250,250,900,900,750,750,250,750,750,900,750,900,500,750,250,500,750,250,500,500,750,250,500,900,900,750,250,750,500,750,900,750,500,500,500,250,250,900,900,250,900,500,900,250,250,750,500,250,900,900,250,750,900,250,500,500,750,250,900,900,500,750,750,750,900,500,250,900,500,750,750],"smaller_num":["9","18","9","3","6","3","15","9","9","6","2","5","6","4","4","9","18","3","18","18","18","3","2","5","3","6","3","12","6","6","3","4","9","9","5","5","18","6","9","4","10","9","2","9","2","18","9","6","6","5","6","9","9","3","15","2","3","3","18","3","9","2","18","2","5","6","2","2","5","15","4","9","18","18","15","5","15","1","3","18","15","5","1","2","2","4","18","18","2","18","2","9","4","2","3","6","4","9","18","4","3","18","3","2","9","3","3","9","18","9","9","15","18","18","9","3","18","2","6","6"],"larger_num":["10","20","18","4","8","12","20","18","10","12","4","20","12","16","16","10","20","4","20","20","20","12","8","10","12","24","12","16","8","12","4","16","18","18","10","10","20","12","10","16","20","12","8","10","4","24","10","8","24","20","24","10","10","4","20","8","4","4","20","4","10","4","24","8","10","8","8","4","10","20","16","18","20","20","20","20","20","2","4","20","20","10","2","4","8","16","20","20","8","20","4","10","16","8","4","12","16","10","20","16","4","20","12","4","18","4","12","10","20","18","12","20","24","20","18","12","20","4","8","8"],"correct_side":[2,2,1,2,1,1,1,2,2,1,2,2,1,1,1,2,1,2,1,1,1,2,1,2,2,1,2,2,1,1,1,2,2,1,1,1,2,1,1,2,2,2,1,1,1,1,2,1,1,2,1,1,2,1,1,1,1,1,1,2,1,1,1,1,1,1,1,1,1,1,2,2,1,2,2,2,2,2,2,2,1,2,2,2,2,1,1,2,1,1,1,2,2,1,1,1,1,2,2,2,1,2,2,1,1,1,2,2,2,2,2,1,1,1,2,2,2,2,1,1],"img_shown":["img/900/randomdotsizeEA/R/6_Ratio_900_L_9_R_10.png","img/900/equaldotsize/R/12_Ratio_900_L_18_R_20.png","img/500/randomdotsizeEA/L/4_Ratio_500_L_18_R_9.png","img/750/randomdotsizeEA/R/12_Ratio_750_L_3_R_4.png","img/750/equaldotanddens/L/13_Ratio_750_L_8_R_6.png","img/250/equaldotsize/L/14_Ratio_250_L_12_R_3.png","img/750/equaldotanddens/L/1_Ratio_750_L_20_R_15.png","img/500/equaldotanddens/R/1_Ratio_500_L_9_R_18.png","img/900/equaldotsize/R/5_Ratio_900_L_9_R_10.png","img/500/equaldotsize/L/13_Ratio_500_L_12_R_6.png","img/500/equaldotsize/R/9_Ratio_500_L_2_R_4.png","img/250/equaldotanddens/R/12_Ratio_250_L_5_R_20.png","img/500/equaldotanddens/L/11_Ratio_500_L_12_R_6.png","img/250/equaldotsize/L/2_Ratio_250_L_16_R_4.png","img/250/equaldotanddens/L/2_Ratio_250_L_16_R_4.png","img/900/equaldotanddens/R/3_Ratio_900_L_9_R_10.png","img/900/randomdotsizeEA/L/10_Ratio_900_L_20_R_18.png","img/750/randomdotsizeEA/R/7_Ratio_750_L_3_R_4.png","img/900/equaldotsize/L/4_Ratio_900_L_20_R_18.png","img/900/randomdotsizeEA/L/4_Ratio_900_L_20_R_18.png","img/900/equaldotsize/L/2_Ratio_900_L_20_R_18.png","img/250/randomdotsizeEA/R/11_Ratio_250_L_3_R_12.png","img/250/equaldotanddens/L/3_Ratio_250_L_8_R_2.png","img/500/equaldotanddens/R/14_Ratio_500_L_5_R_10.png","img/250/equaldotsize/R/9_Ratio_250_L_3_R_12.png","img/250/randomdotsizeEA/L/5_Ratio_250_L_24_R_6.png","img/250/randomdotsizeEA/R/4_Ratio_250_L_3_R_12.png","img/750/equaldotsize/R/11_Ratio_750_L_12_R_16.png","img/750/equaldotanddens/L/13_Ratio_750_L_8_R_6.png","img/500/equaldotanddens/L/11_Ratio_500_L_12_R_6.png","img/750/equaldotanddens/L/8_Ratio_750_L_4_R_3.png","img/250/equaldotsize/R/10_Ratio_250_L_4_R_16.png","img/500/randomdotsizeEA/R/6_Ratio_500_L_9_R_18.png","img/500/equaldotsize/L/4_Ratio_500_L_18_R_9.png","img/500/randomdotsizeEA/L/7_Ratio_500_L_10_R_5.png","img/500/equaldotsize/L/7_Ratio_500_L_10_R_5.png","img/900/equaldotanddens/R/14_Ratio_900_L_18_R_20.png","img/500/randomdotsizeEA/L/13_Ratio_500_L_12_R_6.png","img/900/randomdotsizeEA/L/1_Ratio_900_L_10_R_9.png","img/250/equaldotsize/R/10_Ratio_250_L_4_R_16.png","img/500/randomdotsizeEA/R/3_Ratio_500_L_10_R_20.png","img/750/equaldotsize/R/15_Ratio_750_L_9_R_12.png","img/250/equaldotsize/L/1_Ratio_250_L_8_R_2.png","img/900/equaldotanddens/L/1_Ratio_900_L_10_R_9.png","img/500/randomdotsizeEA/L/10_Ratio_500_L_4_R_2.png","img/750/randomdotsizeEA/L/6_Ratio_750_L_24_R_18.png","img/900/equaldotsize/R/3_Ratio_900_L_9_R_10.png","img/750/equaldotsize/L/14_Ratio_750_L_8_R_6.png","img/250/randomdotsizeEA/L/5_Ratio_250_L_24_R_6.png","img/250/equaldotsize/R/12_Ratio_250_L_5_R_20.png","img/250/randomdotsizeEA/L/5_Ratio_250_L_24_R_6.png","img/900/equaldotanddens/L/1_Ratio_900_L_10_R_9.png","img/900/equaldotsize/R/3_Ratio_900_L_9_R_10.png","img/750/equaldotsize/L/9_Ratio_750_L_4_R_3.png","img/750/equaldotsize/L/1_Ratio_750_L_20_R_15.png","img/250/randomdotsizeEA/L/3_Ratio_250_L_8_R_2.png","img/750/randomdotsizeEA/L/8_Ratio_750_L_4_R_3.png","img/750/randomdotsizeEA/L/8_Ratio_750_L_4_R_3.png","img/900/equaldotanddens/L/10_Ratio_900_L_20_R_18.png","img/750/equaldotanddens/R/7_Ratio_750_L_3_R_4.png","img/900/randomdotsizeEA/L/1_Ratio_900_L_10_R_9.png","img/500/randomdotsizeEA/L/5_Ratio_500_L_4_R_2.png","img/750/equaldotsize/L/6_Ratio_750_L_24_R_18.png","img/250/randomdotsizeEA/L/7_Ratio_250_L_8_R_2.png","img/500/equaldotanddens/L/7_Ratio_500_L_10_R_5.png","img/750/equaldotsize/L/14_Ratio_750_L_8_R_6.png","img/250/equaldotanddens/L/7_Ratio_250_L_8_R_2.png","img/500/randomdotsizeEA/L/5_Ratio_500_L_4_R_2.png","img/500/equaldotsize/L/7_Ratio_500_L_10_R_5.png","img/750/equaldotsize/L/1_Ratio_750_L_20_R_15.png","img/250/randomdotsizeEA/R/10_Ratio_250_L_4_R_16.png","img/500/equaldotsize/R/1_Ratio_500_L_9_R_18.png","img/900/randomdotsizeEA/L/8_Ratio_900_L_20_R_18.png","img/900/equaldotanddens/R/12_Ratio_900_L_18_R_20.png","img/750/randomdotsizeEA/R/3_Ratio_750_L_15_R_20.png","img/250/equaldotsize/R/12_Ratio_250_L_5_R_20.png","img/750/equaldotanddens/R/5_Ratio_750_L_15_R_20.png","img/500/equaldotanddens/R/15_Ratio_500_L_1_R_2.png","img/750/equaldotanddens/R/7_Ratio_750_L_3_R_4.png","img/900/equaldotanddens/R/9_Ratio_900_L_18_R_20.png","img/750/randomdotsizeEA/L/1_Ratio_750_L_20_R_15.png","img/500/equaldotsize/R/14_Ratio_500_L_5_R_10.png","img/500/equaldotsize/R/12_Ratio_500_L_1_R_2.png","img/500/randomdotsizeEA/R/9_Ratio_500_L_2_R_4.png","img/250/equaldotsize/R/13_Ratio_250_L_2_R_8.png","img/250/equaldotanddens/L/2_Ratio_250_L_16_R_4.png","img/900/equaldotanddens/L/10_Ratio_900_L_20_R_18.png","img/900/randomdotsizeEA/R/9_Ratio_900_L_18_R_20.png","img/250/equaldotanddens/L/1_Ratio_250_L_8_R_2.png","img/900/randomdotsizeEA/L/10_Ratio_900_L_20_R_18.png","img/500/equaldotsize/L/10_Ratio_500_L_4_R_2.png","img/900/equaldotsize/R/15_Ratio_900_L_9_R_10.png","img/250/randomdotsizeEA/R/10_Ratio_250_L_4_R_16.png","img/250/equaldotanddens/L/3_Ratio_250_L_8_R_2.png","img/750/equaldotanddens/L/8_Ratio_750_L_4_R_3.png","img/500/equaldotsize/L/13_Ratio_500_L_12_R_6.png","img/250/equaldotanddens/L/2_Ratio_250_L_16_R_4.png","img/900/randomdotsizeEA/R/7_Ratio_900_L_9_R_10.png","img/900/equaldotsize/R/12_Ratio_900_L_18_R_20.png","img/250/equaldotsize/R/10_Ratio_250_L_4_R_16.png","img/750/equaldotanddens/L/9_Ratio_750_L_4_R_3.png","img/900/equaldotanddens/R/13_Ratio_900_L_18_R_20.png","img/250/equaldotanddens/R/9_Ratio_250_L_3_R_12.png","img/500/equaldotanddens/L/5_Ratio_500_L_4_R_2.png","img/500/equaldotanddens/L/4_Ratio_500_L_18_R_9.png","img/750/randomdotsizeEA/L/8_Ratio_750_L_4_R_3.png","img/250/equaldotanddens/R/9_Ratio_250_L_3_R_12.png","img/900/equaldotanddens/R/7_Ratio_900_L_9_R_10.png","img/900/equaldotsize/R/9_Ratio_900_L_18_R_20.png","img/500/equaldotanddens/R/6_Ratio_500_L_9_R_18.png","img/750/equaldotsize/R/15_Ratio_750_L_9_R_12.png","img/750/equaldotanddens/L/1_Ratio_750_L_20_R_15.png","img/750/equaldotsize/L/6_Ratio_750_L_24_R_18.png","img/900/equaldotsize/L/8_Ratio_900_L_20_R_18.png","img/500/randomdotsizeEA/R/6_Ratio_500_L_9_R_18.png","img/250/randomdotsizeEA/R/11_Ratio_250_L_3_R_12.png","img/900/randomdotsizeEA/R/9_Ratio_900_L_18_R_20.png","img/500/equaldotanddens/R/9_Ratio_500_L_2_R_4.png","img/750/randomdotsizeEA/L/13_Ratio_750_L_8_R_6.png","img/750/randomdotsizeEA/L/13_Ratio_750_L_8_R_6.png"],"Rat0":[["12_Ratio_0_L_9_R_0.png","13_Ratio_0_L_6_R_0.png","5_Ratio_0_L_2_R_0.png","6_Ratio_0_L_4_R_0.png","8_Ratio_0_L_6_R_0.png"],["1_Ratio_0_L_0_R_17.png","10_Ratio_0_L_0_R_22.png","11_Ratio_0_L_0_R_1.png","14_Ratio_0_L_0_R_24.png","15_Ratio_0_L_0_R_4.png","2_Ratio_0_L_0_R_5.png","3_Ratio_0_L_0_R_17.png","4_Ratio_0_L_0_R_7.png","7_Ratio_0_L_0_R_19.png","9_Ratio_0_L_0_R_15.png"]],"Rat250":[["1_Ratio_250_L_8_R_2.png","14_Ratio_250_L_12_R_3.png","15_Ratio_250_L_12_R_3.png","2_Ratio_250_L_16_R_4.png","3_Ratio_250_L_8_R_2.png","5_Ratio_250_L_24_R_6.png","7_Ratio_250_L_8_R_2.png"],["10_Ratio_250_L_4_R_16.png","11_Ratio_250_L_3_R_12.png","12_Ratio_250_L_5_R_20.png","13_Ratio_250_L_2_R_8.png","4_Ratio_250_L_3_R_12.png","6_Ratio_250_L_6_R_24.png","8_Ratio_250_L_1_R_4.png","9_Ratio_250_L_3_R_12.png"]],"Rat500":[["10_Ratio_500_L_4_R_2.png","11_Ratio_500_L_12_R_6.png","13_Ratio_500_L_12_R_6.png","4_Ratio_500_L_18_R_9.png","5_Ratio_500_L_4_R_2.png","7_Ratio_500_L_10_R_5.png","8_Ratio_500_L_8_R_4.png"],["1_Ratio_500_L_9_R_18.png","12_Ratio_500_L_1_R_2.png","14_Ratio_500_L_5_R_10.png","15_Ratio_500_L_1_R_2.png","2_Ratio_500_L_3_R_6.png","3_Ratio_500_L_10_R_20.png","6_Ratio_500_L_9_R_18.png","9_Ratio_500_L_2_R_4.png"]],"Rat750":[["1_Ratio_750_L_20_R_15.png","10_Ratio_750_L_4_R_3.png","13_Ratio_750_L_8_R_6.png","14_Ratio_750_L_8_R_6.png","6_Ratio_750_L_24_R_18.png","8_Ratio_750_L_4_R_3.png","9_Ratio_750_L_4_R_3.png"],["11_Ratio_750_L_12_R_16.png","12_Ratio_750_L_3_R_4.png","15_Ratio_750_L_9_R_12.png","2_Ratio_750_L_6_R_8.png","3_Ratio_750_L_15_R_20.png","4_Ratio_750_L_15_R_20.png","5_Ratio_750_L_15_R_20.png","7_Ratio_750_L_3_R_4.png"]],"Rat900":[["1_Ratio_900_L_10_R_9.png","10_Ratio_900_L_20_R_18.png","2_Ratio_900_L_20_R_18.png","4_Ratio_900_L_20_R_18.png","8_Ratio_900_L_20_R_18.png"],["11_Ratio_900_L_18_R_20.png","12_Ratio_900_L_18_R_20.png","13_Ratio_900_L_18_R_20.png","14_Ratio_900_L_18_R_20.png","15_Ratio_900_L_9_R_10.png","3_Ratio_900_L_9_R_10.png","5_Ratio_900_L_9_R_10.png","6_Ratio_900_L_9_R_10.png","7_Ratio_900_L_9_R_10.png","9_Ratio_900_L_18_R_20.png"]],"Rat1000":[["10_Ratio_1000_L_16_R_16.png","11_Ratio_1000_L_6_R_6.png","12_Ratio_1000_L_14_R_14.png","13_Ratio_1000_L_20_R_20.png","15_Ratio_1000_L_15_R_15.png","2_Ratio_1000_L_17_R_17.png","4_Ratio_1000_L_9_R_9.png","5_Ratio_1000_L_6_R_6.png","6_Ratio_1000_L_19_R_19.png","8_Ratio_1000_L_14_R_14.png","9_Ratio_1000_L_25_R_25.png"],["1_Ratio_1000_L_1_R_1.png","14_Ratio_1000_L_17_R_17.png","3_Ratio_1000_L_17_R_17.png","7_Ratio_1000_L_6_R_6.png"]]}},{"start_time":1552309254204,"click_time":1552309255569,"finger_time":1552309255068,"fix_duration":1294.6418167361867,"trial":1,"RT":864,"MT":501,"sideResp":1,"stimulus":"img/900/equaldotsize/R/12_Ratio_900_L_18_R_20.png","xmouse":[786,786,786,786,786,786,786,786,786,786,786,786,786,786,786,786,786,786,786,786,786,786,786,786,786,786,786,786,786,786,786,786,786,786,786,786,786,786,786,786,786,786,783,765,743,719,632,594,579,573,572,572,572,572,572,571,567,563,558,554,551,545,545,544,543,540,531,527,524],"ymouse":[498,498,498,498,498,498,498,498,498,498,498,498,498,498,498,498,498,498,498,498,498,498,498,498,498,498,498,498,498,498,498,498,498,498,498,498,498,498,498,498,498,498,482,441,388,338,194,130,90,74,69,69,69,69,69,68,72,76,78,78,78,78,78,78,78,77,75,73,72],"timestamp_mouse":[10,23,47,65,84,103,124,143,164,185,203,225,243,264,285,304,324,344,364,384,405,424,444,464,483,504,524,545,563,584,604,623,645,664,684,703,724,744,763,785,804,824,844,864,884,904,923,944,964,984,1003,1024,1044,1063,1085,1104,1123,1143,1163,1184,1204,1223,1244,1265,1284,1304,1324,1343,1364],"xSR":741.5,"ySR":469.95,"xT1":424.9,"yT1":0,"xT2":1058.1,"yT2":0,"toosoon":0,"cond_shown":"equaldotsize","ratio_trial":900,"smaller_num":"18","larger_num":"20","correct_side":2,"subjID":"SebastianMendoza27","gender":"0","age":"10","school":"4"},{"start_time":1552309257755,"click_time":1552309258687,"finger_time":1552309258509,"fix_duration":1126.0545248906944,"trial":2,"RT":754,"MT":178,"sideResp":2,"stimulus":"img/500/randomdotsizeEA/L/4_Ratio_500_L_18_R_9.png","xmouse":[807,807,807,807,807,807,807,807,807,807,807,807,807,807,807,807,807,807,807,807,807,807,807,807,807,807,807,807,807,807,807,807,807,807,807,810,819,848,885,894,900,905,933,976,1006,1062,1074],"ymouse":[500,500,500,500,500,500,500,500,500,500,500,500,500,500,500,500,500,500,500,500,500,500,500,500,500,500,500,500,500,500,500,500,500,500,500,496,486,464,431,411,396,356,271,213,184,111,88],"timestamp_mouse":[12,35,53,73,93,113,134,152,173,193,213,233,253,273,292,312,332,353,373,392,413,433,453,472,492,513,534,552,572,593,612,634,652,673,692,713,733,754,773,793,812,832,853,872,893,913,932],"xSR":741.5,"ySR":469.95,"xT1":424.9,"yT1":0,"xT2":1058.1,"yT2":0,"toosoon":0,"cond_shown":"randomdotsizeEA","ratio_trial":500,"smaller_num":"9","larger_num":"18","correct_side":1,"subjID":"SebastianMendoza27","gender":"0","age":"10","school":"4"},{"start_time":1552309259820,"click_time":1552309261127,"finger_time":1552309260928,"fix_duration":250,"trial":3,"RT":1108,"MT":199,"sideResp":1,"stimulus":"img/750/randomdotsizeEA/R/12_Ratio_750_L_3_R_4.png","xmouse":[800,800,800,800,800,800,800,800,800,800,800,800,800,800,800,800,800,800,800,800,800,800,800,800,800,800,800,800,800,800,800,800,800,800,800,800,800,800,800,800,800,800,800,800,800,800,800,800,800,800,800,800,800,800,796,746,699,657,635,624,611,590,574,550,531,523],"ymouse":[509,509,509,509,509,509,509,509,509,509,509,509,509,509,509,509,509,509,509,509,509,509,509,509,509,509,509,509,509,509,509,509,509,509,509,509,509,509,509,509,509,509,509,509,509,509,509,509,509,509,509,509,509,509,503,430,369,318,290,270,223,160,122,82,55,48],"timestamp_mouse":[10,29,48,75,88,107,127,147,169,187,208,229,248,268,288,308,327,348,368,389,408,428,449,468,489,507,528,549,567,588,608,628,647,669,687,708,729,748,767,788,808,827,848,869,887,907,927,947,967,988,1008,1029,1047,1067,1088,1108,1128,1147,1167,1187,1208,1229,1247,1268,1287,1307],"xSR":741.5,"ySR":469.95,"xT1":424.9,"yT1":0,"xT2":1058.1,"yT2":0,"toosoon":0,"cond_shown":"randomdotsizeEA","ratio_trial":750,"smaller_num":"3","larger_num":"4","correct_side":2,"subjID":"SebastianMendoza27","gender":"0","age":"10","school":"4"},{"start_time":1552309262272,"click_time":1552309263728,"finger_time":1552309263228,"fix_duration":343.0815103448349,"trial":4,"RT":956,"MT":500,"sideResp":1,"stimulus":"img/750/equaldotanddens/L/13_Ratio_750_L_8_R_6.png","xmouse":[803,803,803,803,803,803,803,803,803,803,803,803,803,803,803,803,803,803,803,803,803,803,803,803,803,803,803,803,803,803,803,803,803,803,803,803,803,803,803,803,803,803,803,803,803,803,803,789,778,761,720,676,618,612,611,610,609,603,585,579,571,566,557,551,545,542,538,536,534,532,529,526,521],"ymouse":[479,479,479,479,479,479,479,479,479,479,479,479,479,479,479,479,479,479,479,479,479,479,479,479,479,479,479,479,479,479,479,479,479,479,479,479,479,479,479,479,479,479,479,479,479,479,475,447,428,399,320,243,123,103,99,98,97,87,64,55,48,47,45,43,41,37,36,33,32,31,30,29,27],"timestamp_mouse":[15,44,57,75,95,117,137,156,176,197,216,235,256,277,297,316,336,356,377,396,416,435,456,477,496,515,535,556,577,596,615,636,655,676,697,715,736,756,775,796,816,837,856,875,895,915,936,956,976,995,1015,1035,1055,1076,1096,1115,1136,1155,1176,1196,1216,1236,1255,1276,1295,1315,1336,1356,1377,1396,1416,1436,1456],"xSR":741.5,"ySR":469.95,"xT1":424.9,"yT1":0,"xT2":1058.1,"yT2":0,"toosoon":0,"cond_shown":"equaldotanddens","ratio_trial":750,"smaller_num":"6","larger_num":"8","correct_side":1,"subjID":"SebastianMendoza27","gender":"0","age":"10","school":"4"},{"start_time":1552309265384,"click_time":1552309266588,"finger_time":1552309266167,"fix_duration":955.4276597116761,"trial":5,"RT":783,"MT":421,"sideResp":1,"stimulus":"img/250/equaldotsize/L/14_Ratio_250_L_12_R_3.png","xmouse":[801,801,801,801,801,801,801,801,801,801,801,801,801,801,801,801,801,801,801,801,801,801,801,801,801,801,801,801,801,801,801,801,801,801,801,801,799,794,786,766,731,688,610,568,545,539,539,539,539,539,539,539,539,539,539,539,539,535,533,528,521],"ymouse":[536,536,536,536,536,536,536,536,536,536,536,536,536,536,536,536,536,536,536,536,536,536,536,536,536,536,536,536,536,536,536,536,536,536,536,536,521,500,474,426,358,293,188,120,80,71,71,71,71,71,71,71,70,70,70,70,70,69,68,65,62],"timestamp_mouse":[9,23,44,65,85,103,124,145,163,184,205,223,243,265,284,303,324,345,364,384,403,423,443,465,485,503,523,544,564,583,603,623,644,665,684,703,723,744,764,783,804,824,844,863,883,905,924,945,965,984,1004,1025,1045,1063,1084,1103,1123,1143,1163,1185,1204],"xSR":741.5,"ySR":469.95,"xT1":424.9,"yT1":0,"xT2":1058.1,"yT2":0,"toosoon":0,"cond_shown":"equaldotsize","ratio_trial":250,"smaller_num":"3","larger_num":"12","correct_side":1,"subjID":"SebastianMendoza27","gender":"0","age":"10","school":"4"},{"start_time":1552309267866,"click_time":1552309268868,"finger_time":1552309268587,"fix_duration":637.4292894937428,"trial":6,"RT":721,"MT":281,"sideResp":1,"stimulus":"img/750/equaldotanddens/L/1_Ratio_750_L_20_R_15.png","xmouse":[807,807,807,807,807,807,807,807,807,807,807,807,807,807,807,807,807,807,807,807,807,807,807,807,807,807,807,807,807,807,807,807,807,808,806,797,784,760,707,692,680,677,670,652,644,634,624,610,571,546,519],"ymouse":[501,501,501,501,501,501,501,501,501,501,501,501,501,501,501,501,501,501,501,501,501,501,501,501,501,501,501,501,501,501,501,501,501,500,495,481,460,431,378,355,330,323,305,272,258,241,222,200,145,115,84],"timestamp_mouse":[9,22,42,62,82,102,121,142,161,181,202,221,243,262,282,302,322,341,361,383,403,423,442,462,481,502,523,542,562,581,603,622,642,663,682,703,721,742,762,782,802,821,843,862,882,903,922,943,961,982,1002],"xSR":741.5,"ySR":469.95,"xT1":424.9,"yT1":0,"xT2":1058.1,"yT2":0,"toosoon":0,"cond_shown":"equaldotanddens","ratio_trial":750,"smaller_num":"15","larger_num":"20","correct_side":1,"subjID":"SebastianMendoza27","gender":"0","age":"10","school":"4"},{"start_time":1552309272899,"click_time":1552309275969,"finger_time":1552309273827,"fix_duration":1388.8173432472588,"trial":7,"RT":928,"MT":2142,"sideResp":2,"stimulus":"img/500/equaldotanddens/R/1_Ratio_500_L_9_R_18.png","xmouse":[759,759,759,759,759,759,759,759,759,759,759,759,759,759,759,759,759,759,759,759,759,759,759,759,759,759,759,759,759,759,759,759,759,759,759,759,759,759,759,759,759,759,759,759,759,765,800,847,909,1008,1055,1083,1083,1083,1083,1083,1094,1102,1103,1105,1105,1105,1105,1105,1105,1105,1105,1105,1105,1105,1105,1107,1107,1107,1108,1108,1108,1108,1109,1109,1109,1109,1109,1110,1110,1110,1110,1110,1110,1110,1110,1110,1110,1110,1110,1110,1110,1110,1110,1110,1110,1110,1110,1110,1110,1110,1110,1109,1109,1109,1109,1107,1107,1106,1106,1106,1106,1106,1106,1106,1106,1106,1106,1106,1106,1106,1106,1106,1106,1106,1106,1106,1105,1103,1103,1103,1103,1103,1103,1103,1103,1103,1103,1103,1103,1103,1103,1103,1103,1103,1103,1103,1103,1102],"ymouse":[524,524,524,524,524,524,524,524,524,524,524,524,524,524,524,524,524,524,524,524,524,524,524,524,524,524,524,524,524,524,524,524,524,524,524,524,524,524,524,524,524,524,524,524,524,510,447,381,313,236,204,189,189,189,189,189,181,172,170,167,167,167,167,167,167,167,167,167,167,167,166,162,161,159,158,157,156,156,154,154,154,153,153,152,152,152,152,152,152,152,152,152,152,152,152,152,152,151,148,143,142,140,140,140,140,140,140,137,136,133,131,128,126,123,119,114,110,109,109,109,109,108,108,108,108,108,108,108,108,108,108,108,105,102,102,101,101,101,101,101,101,101,101,101,101,101,101,101,101,101,101,101,100,99],"timestamp_mouse":[11,38,49,70,89,109,130,148,170,190,209,229,249,270,289,308,328,349,370,389,410,428,449,469,490,509,529,549,569,590,609,628,650,669,689,709,728,749,769,789,809,828,849,869,888,908,928,948,969,989,1010,1028,1049,1068,1090,1110,1128,1148,1168,1190,1209,1229,1249,1268,1288,1309,1329,1349,1369,1388,1408,1428,1448,1469,1489,1509,1529,1549,1568,1589,1608,1628,1649,1669,1690,1708,1729,1748,1768,1790,1809,1830,1849,1868,1889,1909,1928,1949,1969,1990,2009,2030,2049,2070,2089,2109,2129,2149,2168,2188,2208,2229,2249,2268,2289,2309,2328,2349,2369,2390,2410,2429,2449,2469,2488,2508,2528,2549,2570,2589,2610,2628,2648,2669,2689,2709,2729,2750,2770,2790,2808,2828,2849,2869,2888,2910,2929,2949,2969,2990,3010,3028,3048,3070],"xSR":741.5,"ySR":469.95,"xT1":424.9,"yT1":0,"xT2":1058.1,"yT2":0,"toosoon":0,"cond_shown":"equaldotanddens","ratio_trial":500,"smaller_num":"9","larger_num":"18","correct_side":2,"subjID":"SebastianMendoza27","gender":"0","age":"10","school":"4"},{"start_time":1552309280592,"click_time":1552309283668,"finger_time":1552309281609,"fix_duration":842.3420913749474,"trial":8,"RT":1017,"MT":2059,"sideResp":1,"stimulus":"img/900/equaldotsize/R/5_Ratio_900_L_9_R_10.png","xmouse":[821,821,821,821,821,821,821,821,821,821,821,821,821,821,821,821,821,821,821,821,821,821,821,821,821,821,821,821,821,821,821,821,821,821,821,821,821,821,821,821,821,821,821,821,821,821,819,802,776,754,735,726,725,725,725,725,725,725,725,725,725,725,725,725,725,725,725,730,743,760,797,870,895,904,930,958,1038,1081,1115,1138,1154,1184,1199,1211,1228,1241,1259,1262,1265,1266,1269,1272,1274,1274,1274,1272,1268,1265,1262,1260,1258,1255,1255,1253,1250,1247,1241,1238,1237,1236,1233,1224,1219,1213,1208,1203,1194,1187,1182,1178,1175,1169,1165,1158,1142,1133,1110,1099,1090,1083,1075,1057,1048,1038,1019,1008,984,970,955,936,916,849,810,764,743,729,714,702,679,656,629,573,549,520],"ymouse":[558,558,558,558,558,558,558,558,558,558,558,558,558,558,558,558,558,558,558,558,558,558,558,558,558,558,558,558,558,558,558,558,558,558,558,558,558,558,558,558,558,558,558,558,558,558,558,547,533,524,520,520,520,520,520,523,527,529,529,529,529,529,529,529,529,529,530,532,541,549,567,592,594,593,581,573,547,530,511,493,474,432,414,400,382,374,363,360,357,356,351,340,323,316,298,289,279,273,269,266,264,260,260,259,259,259,257,256,256,256,256,253,253,251,249,247,243,240,237,236,234,232,232,230,225,223,216,212,209,208,206,202,199,195,190,185,179,175,170,164,158,139,130,123,122,122,122,122,118,117,114,106,103,99],"timestamp_mouse":[16,43,56,76,97,116,135,156,177,195,216,235,256,277,295,315,336,356,375,396,415,437,457,475,496,517,536,556,577,597,616,636,657,676,696,716,736,756,776,797,817,836,856,876,895,915,936,955,976,995,1017,1036,1056,1075,1095,1115,1135,1155,1176,1196,1215,1236,1256,1276,1297,1316,1336,1355,1375,1395,1416,1435,1455,1475,1496,1515,1535,1555,1575,1595,1616,1635,1656,1675,1696,1715,1735,1756,1776,1796,1817,1835,1855,1875,1895,1915,1935,1955,1975,1995,2017,2036,2057,2076,2096,2116,2135,2156,2176,2195,2216,2236,2256,2275,2297,2317,2336,2355,2376,2396,2416,2436,2455,2475,2495,2516,2535,2556,2576,2596,2617,2635,2656,2675,2696,2715,2735,2755,2775,2795,2815,2835,2856,2876,2896,2915,2935,2956,2977,2995,3017,3035,3056,3076],"xSR":741.5,"ySR":469.95,"xT1":424.9,"yT1":0,"xT2":1058.1,"yT2":0,"toosoon":0,"cond_shown":"equaldotsize","ratio_trial":900,"smaller_num":"9","larger_num":"10","correct_side":2,"subjID":"SebastianMendoza27","gender":"0","age":"10","school":"4"},{"start_time":1552309286256,"click_time":1552309287529,"finger_time":1552309287048,"fix_duration":1386.0269586668564,"trial":9,"RT":792,"MT":481,"sideResp":1,"stimulus":"img/500/equaldotsize/L/13_Ratio_500_L_12_R_6.png","xmouse":[780,780,780,780,780,780,780,780,780,780,780,780,780,780,780,780,780,780,780,780,780,780,780,780,780,780,780,780,780,780,780,780,780,780,780,780,780,778,771,768,767,767,769,771,764,753,739,724,687,664,645,639,637,635,634,633,631,629,596,565,535,495,487,484],"ymouse":[515,515,515,515,515,515,515,515,515,515,515,515,515,515,515,515,515,515,515,515,515,515,515,515,515,515,515,515,515,515,515,515,515,515,515,515,515,512,488,463,440,415,400,374,356,337,320,304,275,263,247,243,242,240,239,239,238,237,202,164,132,107,100,99],"timestamp_mouse":[12,42,53,71,92,112,133,152,172,191,211,231,251,272,292,312,332,352,372,392,412,433,452,473,491,513,532,552,571,592,612,631,651,671,692,713,731,752,771,792,813,833,853,871,891,911,931,952,971,992,1011,1031,1051,1071,1092,1112,1131,1152,1172,1192,1213,1232,1251,1272],"xSR":741.5,"ySR":469.95,"xT1":424.9,"yT1":0,"xT2":1058.1,"yT2":0,"toosoon":0,"cond_shown":"equaldotsize","ratio_trial":500,"smaller_num":"6","larger_num":"12","correct_side":1,"subjID":"SebastianMendoza27","gender":"0","age":"10","school":"4"},{"start_time":1552309289162,"click_time":1552309290627,"finger_time":1552309290247,"fix_duration":433.0442845796593,"trial":10,"RT":1085,"MT":380,"sideResp":2,"stimulus":"img/500/equaldotsize/R/9_Ratio_500_L_2_R_4.png","xmouse":[773,773,773,773,773,773,773,773,773,773,773,773,773,773,773,773,773,773,773,773,773,773,773,773,773,773,773,773,773,773,773,773,773,773,773,773,773,773,773,773,773,773,773,773,773,773,773,773,773,773,773,773,773,787,811,849,898,966,1030,1041,1059,1069,1073,1078,1082,1083,1086,1089,1098,1100,1101,1102,1102,1100],"ymouse":[487,487,487,487,487,487,487,487,487,487,487,487,487,487,487,487,487,487,487,487,487,487,487,487,487,487,487,487,487,487,487,487,487,487,487,487,487,487,487,487,487,487,487,487,487,487,487,487,487,487,487,487,487,482,466,442,411,356,285,254,213,189,179,167,163,162,156,149,131,122,116,110,100,84],"timestamp_mouse":[14,27,47,67,85,106,126,145,166,185,206,227,246,267,285,306,327,347,365,387,407,427,446,467,486,506,527,546,566,585,607,627,645,666,686,706,726,745,766,786,805,827,847,866,885,907,925,946,965,985,1007,1026,1047,1065,1085,1106,1126,1146,1165,1185,1206,1225,1245,1265,1286,1307,1326,1346,1367,1386,1405,1426,1445,1465],"xSR":741.5,"ySR":469.95,"xT1":424.9,"yT1":0,"xT2":1058.1,"yT2":0,"toosoon":0,"cond_shown":"equaldotsize","ratio_trial":500,"smaller_num":"2","larger_num":"4","correct_side":2,"subjID":"SebastianMendoza27","gender":"0","age":"10","school":"4"},{"start_time":1552309292602,"click_time":1552309293689,"finger_time":1552309293389,"fix_duration":1111.1408645200722,"trial":11,"RT":787,"MT":300,"sideResp":2,"stimulus":"img/250/equaldotanddens/R/12_Ratio_250_L_5_R_20.png","xmouse":[796,796,796,796,796,796,796,796,796,796,796,796,796,796,796,796,796,796,796,796,796,796,796,796,796,796,796,796,796,796,796,796,797,799,800,804,817,826,837,852,876,987,1043,1088,1126,1134,1136,1137,1139,1143,1143,1142,1134,1127,1116],"ymouse":[491,491,491,491,491,491,491,489,488,487,485,485,485,485,485,485,485,485,485,485,485,485,485,485,485,485,485,485,485,485,485,487,494,501,507,514,531,534,534,534,532,491,468,443,417,411,407,402,384,354,318,222,159,110,32],"timestamp_mouse":[10,27,47,66,85,105,127,145,166,186,205,227,247,266,285,306,326,346,365,385,407,427,446,466,487,506,526,546,565,586,605,625,645,665,685,706,726,745,766,787,806,826,845,865,886,906,926,945,966,986,1005,1025,1046,1065,1087],"xSR":741.5,"ySR":469.95,"xT1":424.9,"yT1":0,"xT2":1058.1,"yT2":0,"toosoon":0,"cond_shown":"equaldotanddens","ratio_trial":250,"smaller_num":"5","larger_num":"20","correct_side":2,"subjID":"SebastianMendoza27","gender":"0","age":"10","school":"4"},{"start_time":1552309296019,"click_time":1552309297347,"finger_time":1552309296788,"fix_duration":1190.0037373651535,"trial":12,"RT":769,"MT":559,"sideResp":1,"stimulus":"img/500/equaldotanddens/L/11_Ratio_500_L_12_R_6.png","xmouse":[806,806,806,806,806,806,806,806,806,806,806,806,806,806,806,806,806,806,806,806,806,806,806,806,806,806,806,806,806,806,806,806,806,806,806,800,778,749,717,688,658,648,644,630,609,576,564,553,548,545,535,520,513,485,463,444,444,444,443,443,443,441,440,438,438,441,445],"ymouse":[541,541,541,541,541,541,541,541,541,541,541,541,541,541,541,541,541,541,541,541,541,541,541,541,541,541,541,541,541,541,541,541,541,541,541,538,528,516,503,490,477,471,469,456,434,410,402,393,386,379,360,334,323,279,252,221,217,214,207,197,172,159,150,140,131,101,88],"timestamp_mouse":[11,40,49,70,89,109,130,150,169,189,210,228,248,269,288,308,330,348,370,388,409,429,448,469,490,508,529,549,570,589,609,629,650,668,688,708,729,749,769,789,809,828,850,870,890,908,929,950,968,988,1008,1028,1048,1069,1089,1108,1128,1149,1169,1190,1209,1228,1249,1270,1289,1308,1328],"xSR":741.5,"ySR":469.95,"xT1":424.9,"yT1":0,"xT2":1058.1,"yT2":0,"toosoon":0,"cond_shown":"equaldotanddens","ratio_trial":500,"smaller_num":"6","larger_num":"12","correct_side":1,"subjID":"SebastianMendoza27","gender":"0","age":"10","school":"4"},{"start_time":1552309300128,"click_time":1552309301568,"finger_time":1552309300927,"fix_duration":1478.9220468593192,"trial":13,"RT":799,"MT":641,"sideResp":1,"stimulus":"img/250/equaldotsize/L/2_Ratio_250_L_16_R_4.png","xmouse":[794,794,794,794,794,794,794,794,794,794,794,794,794,794,794,794,794,794,794,794,794,794,794,794,794,794,794,794,794,794,794,794,794,794,794,794,794,790,779,752,726,714,700,687,673,657,655,635,625,595,570,564,560,558,555,549,544,540,534,513,467,454,446,440,437,424,421,420,419,419,419,423,428],"ymouse":[541,541,541,541,541,541,541,541,541,541,541,541,541,541,541,541,541,541,541,541,541,541,541,541,541,541,541,541,541,541,541,541,541,541,541,541,541,539,537,536,543,547,551,552,552,552,551,535,526,490,456,447,443,441,439,432,398,383,367,327,238,214,197,183,172,150,143,140,131,121,91,75,66],"timestamp_mouse":[1,20,42,60,81,99,120,140,160,179,200,221,239,259,281,299,320,340,360,380,401,420,441,460,479,500,519,540,561,581,599,619,640,660,679,699,721,740,760,780,799,819,840,859,879,900,920,940,960,980,999,1020,1039,1059,1080,1099,1120,1139,1161,1180,1199,1220,1240,1260,1280,1300,1319,1341,1361,1380,1400,1420,1440],"xSR":741.5,"ySR":469.95,"xT1":424.9,"yT1":0,"xT2":1058.1,"yT2":0,"toosoon":0,"cond_shown":"equaldotsize","ratio_trial":250,"smaller_num":"4","larger_num":"16","correct_side":1,"subjID":"SebastianMendoza27","gender":"0","age":"10","school":"4"},{"start_time":1552309303028,"click_time":1552309304088,"finger_time":1552309303827,"fix_duration":478.1787518139153,"trial":14,"RT":799,"MT":261,"sideResp":1,"stimulus":"img/250/equaldotanddens/L/2_Ratio_250_L_16_R_4.png","xmouse":[779,779,779,779,779,779,779,779,779,779,779,779,779,779,779,779,779,779,779,779,779,779,779,779,779,779,779,779,779,779,779,779,779,779,779,779,779,779,777,765,630,547,538,535,535,533,528,515,495,478,453,445,438,431],"ymouse":[526,526,526,526,526,526,526,526,526,526,526,526,526,526,526,526,526,526,526,526,526,526,526,526,526,526,526,526,526,526,526,526,526,526,526,526,526,525,524,521,481,474,474,474,474,473,455,405,332,268,178,151,126,88],"timestamp_mouse":[1,19,41,60,80,101,119,139,160,179,201,220,240,261,279,300,319,339,360,381,400,420,439,459,479,501,520,539,560,579,600,621,640,661,679,699,720,740,760,780,799,819,840,861,880,900,919,939,959,980,999,1020,1040,1060],"xSR":741.5,"ySR":469.95,"xT1":424.9,"yT1":0,"xT2":1058.1,"yT2":0,"toosoon":0,"cond_shown":"equaldotanddens","ratio_trial":250,"smaller_num":"4","larger_num":"16","correct_side":1,"subjID":"SebastianMendoza27","gender":"0","age":"10","school":"4"},{"start_time":1552309305545,"click_time":1552309306888,"finger_time":1552309306388,"fix_duration":516.0241056670093,"trial":15,"RT":843,"MT":500,"sideResp":2,"stimulus":"img/900/equaldotanddens/R/3_Ratio_900_L_9_R_10.png","xmouse":[807,807,807,807,807,807,807,807,807,807,807,807,807,807,807,807,807,807,807,807,807,807,807,807,807,807,807,807,807,807,807,807,807,807,807,807,807,807,807,811,823,840,885,942,1016,1041,1069,1119,1151,1182,1183,1183,1183,1183,1183,1183,1183,1183,1183,1183,1183,1183,1183,1183,1183,1183,1183,1153],"ymouse":[542,542,542,542,542,542,542,542,542,542,542,542,542,542,542,542,542,542,542,542,542,542,542,542,542,542,542,542,542,542,542,542,542,542,542,542,542,542,542,542,537,529,504,466,400,362,312,222,156,45,6,6,6,6,6,6,6,6,6,6,6,6,6,6,6,6,6,4],"timestamp_mouse":[15,28,43,62,84,104,124,143,163,182,203,223,243,263,282,302,322,342,364,382,404,422,442,464,483,503,522,542,563,583,602,623,643,662,683,703,723,742,762,782,803,824,843,862,882,903,922,943,964,983,1002,1022,1042,1063,1082,1103,1124,1143,1162,1183,1203,1223,1242,1262,1282,1303,1322,1343],"xSR":741.5,"ySR":469.95,"xT1":424.9,"yT1":0,"xT2":1058.1,"yT2":0,"toosoon":0,"cond_shown":"equaldotanddens","ratio_trial":900,"smaller_num":"9","larger_num":"10","correct_side":2,"subjID":"SebastianMendoza27","gender":"0","age":"10","school":"4"},{"start_time":1552309309101,"click_time":1552309311628,"finger_time":1552309310968,"fix_duration":1272.368934475441,"trial":16,"RT":1867,"MT":660,"sideResp":1,"stimulus":"img/900/randomdotsizeEA/L/10_Ratio_900_L_20_R_18.png","xmouse":[778,778,778,778,778,778,778,778,778,778,778,778,778,778,778,778,778,778,778,778,778,778,778,778,778,778,778,778,778,778,778,778,778,778,778,778,778,778,778,778,778,778,778,778,778,778,778,778,778,778,778,778,778,778,778,778,778,778,778,778,778,778,778,776,775,775,775,775,775,772,771,769,768,768,768,768,768,768,768,768,768,768,768,768,768,768,768,768,768,768,768,768,760,726,674,606,475,419,407,381,366,344,337,333,330,329,331,352,417,417,417,417,417,417,417,417,417,417,417,417,417,417,417,417,417,417,488],"ymouse":[510,510,510,510,510,510,510,510,510,510,510,510,510,510,510,510,510,510,510,510,510,510,510,510,510,510,510,510,510,510,510,510,510,510,510,510,510,510,510,510,510,510,510,510,510,510,510,510,510,510,510,510,510,510,510,510,510,510,510,510,510,510,510,510,510,510,510,510,510,510,510,510,510,510,510,510,510,510,510,510,510,510,510,510,510,510,510,510,510,510,510,510,509,486,449,401,308,267,258,229,208,173,163,155,146,133,97,61,3,3,3,3,3,3,3,3,3,3,3,3,3,3,3,3,3,3,31],"timestamp_mouse":[10,40,47,67,88,106,128,148,168,187,208,228,247,268,287,307,327,347,368,388,407,427,448,468,487,508,527,547,567,588,607,627,648,668,688,707,727,748,767,788,807,826,848,867,888,906,927,948,968,987,1008,1028,1046,1068,1088,1107,1128,1146,1168,1188,1207,1227,1247,1268,1287,1308,1327,1348,1367,1387,1407,1427,1447,1468,1487,1507,1527,1547,1568,1587,1607,1627,1647,1667,1687,1708,1726,1747,1768,1787,1806,1827,1847,1867,1887,1908,1927,1947,1968,1987,2007,2027,2046,2068,2087,2107,2127,2148,2167,2188,2207,2227,2247,2267,2287,2307,2327,2347,2368,2388,2408,2428,2447,2467,2488,2507,2526],"xSR":741.5,"ySR":469.95,"xT1":424.9,"yT1":0,"xT2":1058.1,"yT2":0,"toosoon":0,"cond_shown":"randomdotsizeEA","ratio_trial":900,"smaller_num":"18","larger_num":"20","correct_side":1,"subjID":"SebastianMendoza27","gender":"0","age":"10","school":"4"},{"start_time":1552309316352,"click_time":1552309317609,"finger_time":1552309317408,"fix_duration":1242.2799486771926,"trial":17,"RT":1056,"MT":201,"sideResp":2,"stimulus":"img/750/randomdotsizeEA/R/7_Ratio_750_L_3_R_4.png","xmouse":[777,777,777,777,777,777,777,777,777,777,777,777,777,777,777,777,777,777,777,777,777,777,777,777,777,777,777,777,777,777,777,777,777,777,777,777,777,777,777,777,777,777,777,777,777,777,777,777,777,777,779,780,789,822,855,893,932,944,960,969,992,1027,1079],"ymouse":[504,504,504,504,504,504,504,504,504,504,504,504,504,504,504,504,504,504,504,504,504,504,504,504,504,504,504,504,504,504,504,504,504,504,504,504,504,504,504,504,504,504,504,504,504,504,504,504,504,504,495,486,459,378,334,293,260,250,226,206,165,115,56],"timestamp_mouse":[16,45,56,77,97,117,136,157,175,197,217,236,256,276,296,316,337,356,376,397,417,436,457,477,496,518,536,556,576,597,617,635,656,676,697,715,737,756,777,796,817,837,857,875,897,917,936,956,976,995,1016,1037,1056,1076,1097,1117,1137,1156,1176,1196,1216,1237,1257],"xSR":741.5,"ySR":469.95,"xT1":424.9,"yT1":0,"xT2":1058.1,"yT2":0,"toosoon":0,"cond_shown":"randomdotsizeEA","ratio_trial":750,"smaller_num":"3","larger_num":"4","correct_side":2,"subjID":"SebastianMendoza27","gender":"0","age":"10","school":"4"},{"start_time":1552309318961,"click_time":1552309320069,"finger_time":1552309319768,"fix_duration":250,"trial":18,"RT":807,"MT":301,"sideResp":1,"stimulus":"img/900/equaldotsize/L/4_Ratio_900_L_20_R_18.png","xmouse":[778,778,778,778,778,778,778,778,778,778,778,778,778,778,778,778,778,778,778,778,778,778,778,778,778,778,778,778,778,778,778,778,778,778,778,778,778,778,778,778,768,754,736,706,686,679,658,647,623,612,596,575,554,515,488,478],"ymouse":[489,489,489,489,489,489,489,489,489,489,489,489,489,489,489,489,489,489,489,489,489,489,489,489,489,489,489,489,489,489,489,489,489,489,489,489,489,489,489,488,466,436,404,356,327,320,290,272,243,228,211,188,169,133,101,90],"timestamp_mouse":[10,43,48,67,87,108,128,147,168,187,206,228,248,268,287,307,327,348,368,388,408,428,448,468,486,506,528,548,567,588,608,627,647,667,687,707,728,747,767,787,807,827,847,867,888,908,928,948,967,987,1007,1027,1047,1067,1086,1107],"xSR":741.5,"ySR":469.95,"xT1":424.9,"yT1":0,"xT2":1058.1,"yT2":0,"toosoon":0,"cond_shown":"equaldotsize","ratio_trial":900,"smaller_num":"18","larger_num":"20","correct_side":1,"subjID":"SebastianMendoza27","gender":"0","age":"10","school":"4"},{"start_time":1552309321502,"click_time":1552309322949,"finger_time":1552309322428,"fix_duration":831.4707542533149,"trial":19,"RT":926,"MT":521,"sideResp":2,"stimulus":"img/900/randomdotsizeEA/L/4_Ratio_900_L_20_R_18.png","xmouse":[792,792,792,792,792,792,792,792,792,792,792,792,792,792,792,792,792,792,792,792,792,792,792,792,792,792,792,792,792,792,792,792,792,792,792,792,792,792,792,792,792,791,791,789,787,781,761,750,743,736,730,728,728,728,728,728,728,742,781,825,867,924,939,955,968,982,1022,1040,1058,1069,1073,1087,1100],"ymouse":[529,529,529,529,529,529,529,529,529,529,529,529,529,529,529,529,529,529,529,529,529,529,529,529,529,529,529,529,529,529,529,529,529,529,529,529,529,529,529,529,529,528,520,512,501,489,441,416,395,378,363,361,361,361,361,361,361,353,337,317,301,278,266,251,234,214,162,145,133,127,125,109,96],"timestamp_mouse":[14,28,45,66,87,106,126,146,166,185,206,226,247,267,286,307,326,347,366,386,406,426,447,466,486,506,526,546,566,587,607,626,647,666,687,706,725,745,767,786,807,825,846,866,887,906,926,947,966,986,1006,1026,1046,1067,1086,1107,1126,1146,1166,1186,1206,1227,1246,1266,1287,1307,1326,1347,1366,1386,1406,1426,1446],"xSR":741.5,"ySR":469.95,"xT1":424.9,"yT1":0,"xT2":1058.1,"yT2":0,"toosoon":0,"cond_shown":"randomdotsizeEA","ratio_trial":900,"smaller_num":"18","larger_num":"20","correct_side":1,"subjID":"SebastianMendoza27","gender":"0","age":"10","school":"4"},{"start_time":1552309324202,"click_time":1552309325309,"finger_time":1552309324928,"fix_duration":491.99974326132445,"trial":20,"RT":726,"MT":381,"sideResp":1,"stimulus":"img/900/equaldotsize/L/2_Ratio_900_L_20_R_18.png","xmouse":[765,765,765,765,765,765,765,765,765,765,765,765,765,765,765,765,765,765,765,765,765,765,765,765,765,765,765,765,765,765,765,765,765,765,763,759,748,732,713,704,702,702,698,693,670,647,613,597,583,575,567,555,545,535,521,510],"ymouse":[538,538,538,538,538,538,538,538,538,538,538,538,538,538,538,538,538,538,538,538,538,538,538,538,538,538,538,538,538,538,538,538,538,538,537,517,445,376,323,306,303,302,299,296,278,266,246,236,225,218,206,181,160,138,103,80],"timestamp_mouse":[9,27,46,66,87,105,126,146,167,187,205,227,246,267,287,306,325,347,367,386,407,426,446,467,487,506,526,547,566,586,607,625,647,666,686,706,725,746,766,786,805,826,845,867,886,906,926,946,966,986,1006,1026,1046,1067,1086,1106],"xSR":741.5,"ySR":469.95,"xT1":424.9,"yT1":0,"xT2":1058.1,"yT2":0,"toosoon":0,"cond_shown":"equaldotsize","ratio_trial":900,"smaller_num":"18","larger_num":"20","correct_side":1,"subjID":"SebastianMendoza27","gender":"0","age":"10","school":"4"},{"start_time":1552309327118,"click_time":1552309328428,"finger_time":1552309327928,"fix_duration":1248.9365663531391,"trial":21,"RT":810,"MT":500,"sideResp":2,"stimulus":"img/250/randomdotsizeEA/R/11_Ratio_250_L_3_R_12.png","xmouse":[818,818,818,818,818,818,818,818,818,818,818,818,818,818,818,818,818,818,818,818,818,818,818,818,818,818,818,818,818,818,818,818,818,818,818,818,818,818,818,823,887,940,985,1021,1038,1056,1065,1071,1078,1099,1120,1121,1122,1122,1122,1122,1121,1120,1119,1117,1116,1115,1115,1113,1113,1111],"ymouse":[547,547,547,547,547,547,547,547,547,547,547,547,547,547,547,547,547,547,547,547,547,547,547,547,547,547,547,547,547,547,547,547,547,547,547,547,547,547,547,542,470,408,352,305,279,251,239,231,223,202,182,178,178,175,170,159,150,147,137,130,123,121,117,112,104,80],"timestamp_mouse":[10,46,50,71,90,110,131,150,171,191,210,230,251,271,291,309,331,351,370,390,411,431,451,469,491,510,531,551,570,591,610,631,650,671,691,710,731,751,771,790,810,830,850,871,890,910,931,951,971,991,1010,1030,1051,1070,1090,1110,1130,1150,1171,1190,1210,1230,1250,1270,1291,1309],"xSR":741.5,"ySR":469.95,"xT1":424.9,"yT1":0,"xT2":1058.1,"yT2":0,"toosoon":0,"cond_shown":"randomdotsizeEA","ratio_trial":250,"smaller_num":"3","larger_num":"12","correct_side":2,"subjID":"SebastianMendoza27","gender":"0","age":"10","school":"4"},{"start_time":1552309334795,"click_time":1552309335908,"finger_time":1552309335527,"fix_duration":1025.6494363133738,"trial":22,"RT":732,"MT":381,"sideResp":1,"stimulus":"img/250/equaldotanddens/L/3_Ratio_250_L_8_R_2.png","xmouse":[823,823,823,823,823,823,823,823,823,823,823,823,823,823,823,823,823,823,823,823,823,823,823,823,823,823,823,823,823,823,823,823,823,823,822,814,771,733,700,666,638,604,594,586,574,564,542,531,527,527,527,527,527,527,526,522],"ymouse":[505,505,505,505,505,505,505,505,505,505,505,505,505,505,505,505,505,505,505,505,505,505,505,505,505,505,505,505,505,505,505,505,505,505,505,500,432,375,326,277,234,178,161,144,121,102,66,51,46,46,46,46,46,46,44,43],"timestamp_mouse":[13,33,54,73,94,113,133,154,174,194,213,233,254,273,294,313,332,353,373,394,414,433,453,474,493,513,533,554,574,594,614,633,654,673,694,713,732,753,773,794,813,833,853,874,894,913,933,953,974,993,1013,1034,1053,1073,1093,1112],"xSR":741.5,"ySR":469.95,"xT1":424.9,"yT1":0,"xT2":1058.1,"yT2":0,"toosoon":0,"cond_shown":"equaldotanddens","ratio_trial":250,"smaller_num":"2","larger_num":"8","correct_side":1,"subjID":"SebastianMendoza27","gender":"0","age":"10","school":"4"},{"start_time":1552309339520,"click_time":1552309340768,"finger_time":1552309340388,"fix_duration":250,"trial":23,"RT":868,"MT":380,"sideResp":2,"stimulus":"img/500/equaldotanddens/R/14_Ratio_500_L_5_R_10.png","xmouse":[838,838,838,838,838,838,838,838,838,838,838,838,838,838,838,838,838,838,838,838,838,838,838,838,838,838,838,838,838,838,838,838,838,838,838,838,838,838,838,838,838,838,838,849,857,900,950,969,1014,1040,1078,1088,1094,1095,1095,1084,1084,1084,1090,1092,1092,1090,1084],"ymouse":[542,542,542,542,542,542,542,542,542,542,542,542,542,542,542,542,542,542,542,542,542,542,542,542,542,542,542,542,542,542,542,542,542,542,542,542,542,542,542,542,542,542,542,539,536,512,476,463,431,410,365,345,324,306,286,227,200,192,169,156,129,108,85],"timestamp_mouse":[11,42,47,67,87,108,128,148,169,188,209,229,248,268,288,309,328,348,368,388,407,429,449,468,489,508,529,549,568,588,608,629,649,668,687,708,728,748,769,788,808,828,848,868,888,907,927,949,969,988,1008,1027,1048,1068,1088,1108,1128,1147,1168,1189,1207,1229,1248],"xSR":741.5,"ySR":469.95,"xT1":424.9,"yT1":0,"xT2":1058.1,"yT2":0,"toosoon":0,"cond_shown":"equaldotanddens","ratio_trial":500,"smaller_num":"5","larger_num":"10","correct_side":2,"subjID":"SebastianMendoza27","gender":"0","age":"10","school":"4"},{"start_time":1552309342053,"click_time":1552309343188,"finger_time":1552309342828,"fix_duration":443.8648421214826,"trial":24,"RT":775,"MT":360,"sideResp":2,"stimulus":"img/250/equaldotsize/R/9_Ratio_250_L_3_R_12.png","xmouse":[785,785,785,785,785,785,785,785,785,785,785,785,785,785,785,785,785,785,785,785,785,785,785,785,785,785,785,785,785,785,785,785,785,785,785,785,787,797,838,869,902,912,924,940,945,950,955,959,974,985,997,1012,1019,1025,1032,1046,1066],"ymouse":[508,508,508,508,508,508,508,508,508,508,508,508,508,508,508,508,508,508,508,508,508,508,508,508,508,508,508,508,508,508,508,508,508,508,508,508,508,500,448,409,346,320,289,229,199,175,158,146,126,114,102,92,86,81,78,72,62],"timestamp_mouse":[15,40,55,75,95,116,136,155,176,196,215,236,256,276,294,315,336,356,375,396,416,435,455,475,495,516,534,556,575,596,615,635,655,676,695,716,735,755,775,795,815,836,855,875,895,915,935,955,975,994,1016,1036,1055,1074,1095,1116,1135],"xSR":741.5,"ySR":469.95,"xT1":424.9,"yT1":0,"xT2":1058.1,"yT2":0,"toosoon":0,"cond_shown":"equaldotsize","ratio_trial":250,"smaller_num":"3","larger_num":"12","correct_side":2,"subjID":"SebastianMendoza27","gender":"0","age":"10","school":"4"},{"start_time":1552309347524,"click_time":1552309348809,"finger_time":1552309348328,"fix_duration":1073.105668529697,"trial":25,"RT":804,"MT":481,"sideResp":1,"stimulus":"img/250/randomdotsizeEA/L/5_Ratio_250_L_24_R_6.png","xmouse":[801,801,801,801,801,801,801,801,801,801,801,801,801,801,801,801,801,801,801,801,801,801,801,801,801,801,801,801,801,801,801,801,801,801,801,798,784,768,753,743,685,638,589,553,518,478,469,463,457,451,440,436,433,430,428,425,425,425,425,425,425,425,425,425,425],"ymouse":[498,498,498,498,498,498,498,498,498,498,498,498,498,498,498,498,498,498,498,498,498,498,498,498,498,498,498,498,498,498,498,498,498,498,498,498,512,522,524,524,501,473,439,408,370,308,284,265,251,228,195,183,168,154,141,115,106,101,101,101,101,100,100,100,98],"timestamp_mouse":[10,40,44,64,85,104,124,143,165,184,204,224,245,267,284,304,324,344,363,384,404,425,444,464,484,504,525,545,564,585,604,624,645,665,683,704,725,744,764,785,804,824,844,863,885,904,925,944,965,985,1004,1024,1043,1064,1084,1104,1124,1145,1164,1184,1204,1224,1244,1264,1285],"xSR":741.5,"ySR":469.95,"xT1":424.9,"yT1":0,"xT2":1058.1,"yT2":0,"toosoon":0,"cond_shown":"randomdotsizeEA","ratio_trial":250,"smaller_num":"6","larger_num":"24","correct_side":1,"subjID":"SebastianMendoza27","gender":"0","age":"10","school":"4"},{"start_time":1552309353689,"click_time":1552309355048,"finger_time":1552309354568,"fix_duration":1459.0756266991252,"trial":26,"RT":879,"MT":480,"sideResp":2,"stimulus":"img/250/randomdotsizeEA/R/4_Ratio_250_L_3_R_12.png","xmouse":[788,788,788,788,788,788,788,788,788,788,788,788,788,788,788,788,788,788,788,788,788,788,788,788,788,788,788,788,788,788,788,788,788,788,788,788,788,788,788,788,788,788,804,892,988,1103,1312,1373,1410,1437,1455,1486,1493,1493,1486,1484,1478,1477,1473,1468,1463,1444,1416,1372,1326,1274,1185,1142],"ymouse":[546,546,546,546,546,546,546,546,546,546,546,546,546,546,546,546,546,546,546,546,546,546,546,546,546,546,546,546,546,546,546,546,546,546,546,546,546,546,546,546,546,546,528,484,447,401,338,316,296,271,253,192,151,107,61,53,42,42,41,41,40,40,40,40,40,40,24,12],"timestamp_mouse":[19,40,59,80,99,119,139,159,180,200,220,239,259,280,298,319,339,360,380,398,420,439,459,480,499,520,539,559,579,599,620,639,660,680,699,719,739,759,780,799,819,839,859,879,899,919,939,960,979,999,1019,1038,1059,1095,1100,1120,1139,1159,1179,1199,1219,1238,1259,1279,1299,1319,1338,1359],"xSR":741.5,"ySR":469.95,"xT1":424.9,"yT1":0,"xT2":1058.1,"yT2":0,"toosoon":0,"cond_shown":"randomdotsizeEA","ratio_trial":250,"smaller_num":"3","larger_num":"12","correct_side":2,"subjID":"SebastianMendoza27","gender":"0","age":"10","school":"4"},{"start_time":1552309356400,"click_time":1552309357628,"finger_time":1552309357449,"fix_duration":250,"trial":27,"RT":1049,"MT":179,"sideResp":1,"stimulus":"img/750/equaldotsize/R/11_Ratio_750_L_12_R_16.png","xmouse":[809,809,809,809,809,809,809,809,809,809,809,809,809,809,809,809,809,809,809,809,809,809,809,809,809,809,809,809,809,809,809,809,809,809,809,809,809,809,809,809,809,809,809,808,808,806,801,797,791,779,769,749,736,716,703,688,657,639,616,581,551,522],"ymouse":[536,536,536,536,536,536,536,536,536,536,536,536,536,536,536,536,536,536,536,536,536,536,535,535,535,535,535,535,535,535,535,535,535,535,535,535,535,535,535,535,535,535,535,534,534,533,531,529,526,519,513,504,499,490,482,473,447,422,372,281,176,22],"timestamp_mouse":[9,46,47,68,89,108,127,149,169,188,209,229,249,269,287,308,328,348,368,389,409,429,447,469,488,509,527,549,568,589,608,628,649,668,688,708,728,749,767,789,809,828,849,868,889,908,928,947,969,988,1007,1028,1049,1068,1089,1108,1128,1147,1167,1187,1208,1228],"xSR":741.5,"ySR":469.95,"xT1":424.9,"yT1":0,"xT2":1058.1,"yT2":0,"toosoon":0,"cond_shown":"equaldotsize","ratio_trial":750,"smaller_num":"12","larger_num":"16","correct_side":2,"subjID":"SebastianMendoza27","gender":"0","age":"10","school":"4"},{"start_time":1552309372192,"click_time":1552309373649,"finger_time":1552309373229,"fix_duration":540.458617669619,"trial":28,"RT":1037,"MT":420,"sideResp":1,"stimulus":"img/750/equaldotanddens/L/13_Ratio_750_L_8_R_6.png","xmouse":[800,800,800,800,800,800,800,800,800,800,800,800,800,800,800,800,800,800,800,800,800,800,800,800,800,800,800,800,800,800,800,800,800,800,800,800,800,800,800,800,800,800,800,800,800,800,800,800,794,787,765,734,720,709,697,689,674,668,662,657,653,643,638,638,634,626,590,566,535,511,497,483,480],"ymouse":[528,528,528,528,528,528,528,528,528,528,528,528,528,528,528,528,528,528,528,528,528,528,528,528,528,528,528,528,528,528,528,528,528,528,528,528,528,528,528,528,528,528,528,528,528,528,528,528,526,521,505,476,452,427,389,364,316,294,274,259,250,224,217,216,212,202,174,159,138,122,113,100,93],"timestamp_mouse":[17,38,57,78,97,117,137,157,177,198,217,237,258,278,298,317,337,357,377,397,417,437,458,477,498,518,537,557,577,598,617,638,657,677,698,717,737,757,777,797,817,838,857,878,898,918,938,958,978,998,1018,1037,1059,1077,1098,1117,1137,1157,1177,1197,1217,1237,1258,1277,1298,1317,1337,1357,1377,1397,1419,1437,1457],"xSR":741.5,"ySR":469.95,"xT1":424.9,"yT1":0,"xT2":1058.1,"yT2":0,"toosoon":0,"cond_shown":"equaldotanddens","ratio_trial":750,"smaller_num":"6","larger_num":"8","correct_side":1,"subjID":"SebastianMendoza27","gender":"0","age":"10","school":"4"},{"start_time":1552309375874,"click_time":1552309376989,"finger_time":1552309376729,"fix_duration":903.9031448882725,"trial":29,"RT":855,"MT":260,"sideResp":1,"stimulus":"img/500/equaldotanddens/L/11_Ratio_500_L_12_R_6.png","xmouse":[796,796,796,796,796,796,796,796,796,796,796,796,796,796,796,796,796,796,796,796,796,796,796,796,796,796,796,796,796,796,796,796,796,796,796,796,796,796,793,782,770,758,736,730,727,722,708,642,592,555,511,500,480,466,458,454],"ymouse":[523,523,523,523,523,523,523,523,523,523,523,523,523,523,523,523,523,523,523,523,523,523,523,523,523,523,523,523,523,523,523,523,523,523,523,523,523,523,522,520,516,511,495,492,490,486,472,409,371,341,300,279,215,163,126,99],"timestamp_mouse":[15,38,55,75,96,116,135,155,176,195,216,235,255,276,296,316,336,355,376,396,415,437,455,476,496,515,536,555,575,596,615,635,655,675,696,716,735,755,776,795,815,836,855,875,895,915,935,955,975,996,1015,1035,1055,1075,1095,1115],"xSR":741.5,"ySR":469.95,"xT1":424.9,"yT1":0,"xT2":1058.1,"yT2":0,"toosoon":0,"cond_shown":"equaldotanddens","ratio_trial":500,"smaller_num":"6","larger_num":"12","correct_side":1,"subjID":"SebastianMendoza27","gender":"0","age":"10","school":"4"},{"start_time":1552309381076,"click_time":1552309383229,"finger_time":1552309382490,"fix_duration":1226.8193603925013,"trial":30,"RT":1414,"MT":739,"sideResp":1,"stimulus":"img/750/equaldotanddens/L/8_Ratio_750_L_4_R_3.png","xmouse":[775,775,775,775,775,775,775,775,775,775,775,775,775,775,775,775,775,775,775,775,775,775,775,775,775,775,775,775,775,775,775,775,775,775,775,775,775,775,775,775,775,775,775,775,775,775,775,775,775,775,775,775,775,775,775,775,775,775,775,775,775,775,775,775,775,773,772,768,767,763,738,696,574,496,424,364,351,344,338,336,335,332,324,324,324,324,324,324,327,335,337,339,345,345,345,345,346,355,362,364,372,376,380,380,382,388,400,431],"ymouse":[536,536,536,536,536,536,536,536,536,536,536,536,536,536,536,536,536,536,536,536,536,536,536,536,536,536,536,536,536,536,536,536,536,536,536,536,536,536,536,536,536,536,536,536,536,536,536,536,536,536,536,536,536,536,536,536,536,536,536,536,536,536,536,536,536,535,535,534,534,531,504,462,365,299,242,200,193,188,177,173,169,156,136,131,129,128,128,126,125,120,118,116,112,111,111,111,111,105,101,99,96,95,93,93,92,89,83,69],"timestamp_mouse":[13,38,53,74,94,113,133,153,174,194,214,234,254,273,293,313,334,353,373,393,414,434,454,473,495,513,533,554,574,593,615,633,653,674,693,713,734,753,774,794,814,833,854,873,894,913,934,953,974,994,1013,1034,1053,1074,1094,1113,1133,1153,1173,1194,1214,1233,1253,1274,1294,1313,1334,1353,1373,1393,1414,1434,1454,1473,1494,1513,1534,1553,1574,1593,1614,1634,1653,1673,1693,1713,1733,1754,1773,1793,1813,1833,1854,1875,1893,1913,1934,1953,1975,1993,2013,2033,2053,2073,2094,2114,2134,2153],"xSR":741.5,"ySR":469.95,"xT1":424.9,"yT1":0,"xT2":1058.1,"yT2":0,"toosoon":0,"cond_shown":"equaldotanddens","ratio_trial":750,"smaller_num":"3","larger_num":"4","correct_side":1,"subjID":"SebastianMendoza27","gender":"0","age":"10","school":"4"},{"start_time":1552309385694,"click_time":1552309387690,"finger_time":1552309386850,"fix_duration":1282.113144233661,"trial":31,"RT":1156,"MT":840,"sideResp":2,"stimulus":"img/250/equaldotsize/R/10_Ratio_250_L_4_R_16.png","xmouse":[801,801,801,801,801,801,801,801,801,801,801,801,801,801,801,801,801,801,801,801,801,801,801,801,801,801,801,801,801,801,801,801,801,801,801,801,801,801,801,801,801,801,801,801,801,801,801,801,801,801,801,801,801,801,801,801,811,851,940,1011,1063,1127,1148,1176,1204,1243,1307,1364,1390,1464,1503,1557,1569,1575,1576,1576,1576,1576,1576,1576,1576,1559,1550,1525,1480,1434,1348,1318,1300,1289,1288,1288,1288,1288,1288,1288,1288,1280,1231,1152],"ymouse":[527,527,527,527,527,527,527,527,527,527,527,527,527,527,527,527,527,527,527,527,527,527,527,527,527,527,527,527,527,527,527,527,527,527,527,527,527,527,527,527,527,527,527,527,527,527,527,527,527,527,527,527,527,527,527,527,531,541,555,566,573,582,583,583,581,569,524,454,418,314,259,190,172,160,158,158,157,157,157,157,157,155,150,128,94,66,36,33,32,32,32,32,32,32,32,32,32,33,41,69],"timestamp_mouse":[15,40,56,75,96,116,136,156,175,196,215,236,255,276,296,316,335,355,376,396,416,435,456,476,496,515,535,556,576,595,615,635,656,676,695,715,736,756,776,796,816,835,856,876,895,916,936,955,976,996,1016,1035,1056,1075,1096,1116,1135,1156,1175,1195,1215,1236,1255,1275,1295,1315,1335,1356,1376,1396,1415,1435,1455,1475,1496,1517,1536,1556,1576,1595,1615,1635,1655,1675,1695,1715,1735,1756,1776,1795,1816,1835,1855,1876,1895,1916,1935,1955,1975,1996],"xSR":741.5,"ySR":469.95,"xT1":424.9,"yT1":0,"xT2":1058.1,"yT2":0,"toosoon":0,"cond_shown":"equaldotsize","ratio_trial":250,"smaller_num":"4","larger_num":"16","correct_side":2,"subjID":"SebastianMendoza27","gender":"0","age":"10","school":"4"},{"start_time":1552309389964,"click_time":1552309391229,"finger_time":1552309390949,"fix_duration":313.4501419068314,"trial":32,"RT":985,"MT":280,"sideResp":2,"stimulus":"img/500/randomdotsizeEA/R/6_Ratio_500_L_9_R_18.png","xmouse":[757,757,757,757,757,757,757,757,757,757,757,757,757,757,757,757,757,757,757,757,757,757,757,757,757,757,757,757,757,757,757,757,757,757,757,757,757,757,757,757,757,757,757,757,757,757,757,761,813,854,888,923,959,1028,1061,1081,1107,1116,1120,1120,1115,1109,1100,1091],"ymouse":[513,513,513,513,513,513,513,513,513,513,513,513,513,513,513,513,513,513,513,513,513,513,513,513,513,513,513,513,513,513,513,513,513,513,513,513,513,513,513,513,513,513,513,513,513,513,513,514,497,478,460,446,429,397,375,356,317,286,220,191,168,145,123,95],"timestamp_mouse":[9,33,46,65,86,106,126,146,165,185,205,226,246,266,285,306,325,346,365,385,406,426,445,465,485,506,526,545,565,586,606,626,647,665,685,706,726,746,765,786,805,826,846,865,886,907,926,946,965,985,1005,1025,1045,1065,1086,1106,1125,1145,1165,1185,1206,1226,1246,1265],"xSR":741.5,"ySR":469.95,"xT1":424.9,"yT1":0,"xT2":1058.1,"yT2":0,"toosoon":0,"cond_shown":"randomdotsizeEA","ratio_trial":500,"smaller_num":"9","larger_num":"18","correct_side":2,"subjID":"SebastianMendoza27","gender":"0","age":"10","school":"4"},{"start_time":1552309393655,"click_time":1552309394730,"finger_time":1552309394329,"fix_duration":1344.6303681694556,"trial":33,"RT":674,"MT":401,"sideResp":1,"stimulus":"img/500/equaldotsize/L/4_Ratio_500_L_18_R_9.png","xmouse":[768,768,768,768,768,768,768,768,768,768,768,768,768,768,768,768,768,768,768,768,768,768,768,768,768,768,768,768,768,768,768,768,760,728,702,670,638,611,575,564,557,545,534,509,500,495,492,490,483,478,473,470,469,469],"ymouse":[495,495,495,495,495,495,495,495,495,495,495,495,495,495,495,495,495,495,495,495,495,495,495,495,495,495,495,495,495,495,495,494,482,456,433,407,379,351,313,298,289,268,252,216,199,189,181,176,159,145,131,114,107,98],"timestamp_mouse":[14,43,54,75,95,115,135,155,175,194,214,235,256,274,294,315,335,354,375,394,414,434,454,475,495,514,534,554,574,595,616,635,654,674,694,714,735,755,774,794,814,835,854,874,894,914,935,954,974,995,1014,1035,1054,1074],"xSR":741.5,"ySR":469.95,"xT1":424.9,"yT1":0,"xT2":1058.1,"yT2":0,"toosoon":0,"cond_shown":"equaldotsize","ratio_trial":500,"smaller_num":"9","larger_num":"18","correct_side":1,"subjID":"SebastianMendoza27","gender":"0","age":"10","school":"4"},{"start_time":1552309397841,"click_time":1552309399349,"finger_time":1552309398890,"fix_duration":250,"trial":34,"RT":1049,"MT":459,"sideResp":2,"stimulus":"img/500/randomdotsizeEA/L/7_Ratio_500_L_10_R_5.png","xmouse":[826,826,826,826,826,826,826,826,826,826,826,826,826,826,826,826,826,826,826,826,826,826,826,826,826,826,826,826,826,826,826,826,826,826,826,826,826,826,826,826,826,826,826,826,826,826,826,826,826,826,825,836,860,880,924,947,971,990,1010,1024,1029,1034,1045,1050,1052,1054,1054,1056,1060,1071,1075,1077,1079,1080,1083,1084],"ymouse":[532,532,532,532,532,532,532,532,532,532,532,532,532,532,532,532,532,532,532,532,532,532,532,532,532,532,532,532,532,532,532,532,532,532,532,532,532,532,532,532,532,532,532,532,532,532,532,532,532,532,528,512,483,463,412,375,332,298,268,231,215,203,185,175,164,160,159,155,145,119,113,109,105,104,100,97],"timestamp_mouse":[10,40,49,69,88,109,130,148,168,189,208,228,249,269,288,308,329,348,368,389,408,429,449,468,489,508,528,549,568,588,609,628,648,668,688,709,729,748,768,789,808,829,848,868,889,909,929,948,969,988,1009,1028,1049,1069,1088,1108,1128,1148,1169,1188,1209,1229,1249,1268,1288,1309,1328,1348,1369,1389,1409,1429,1448,1468,1488,1508],"xSR":741.5,"ySR":469.95,"xT1":424.9,"yT1":0,"xT2":1058.1,"yT2":0,"toosoon":0,"cond_shown":"randomdotsizeEA","ratio_trial":500,"smaller_num":"5","larger_num":"10","correct_side":1,"subjID":"SebastianMendoza27","gender":"0","age":"10","school":"4"},{"start_time":1552309401282,"click_time":1552309402289,"finger_time":1552309401969,"fix_duration":910.0942225020846,"trial":35,"RT":687,"MT":320,"sideResp":1,"stimulus":"img/500/equaldotsize/L/7_Ratio_500_L_10_R_5.png","xmouse":[759,759,759,759,759,759,759,759,759,759,759,759,759,759,759,759,759,759,759,759,759,759,759,759,759,759,759,759,759,759,759,759,754,747,737,727,713,667,635,609,583,574,558,553,548,543,529,516,478,464,439],"ymouse":[538,538,538,538,538,538,538,538,538,538,538,538,538,538,538,538,538,538,538,538,538,538,538,538,538,538,538,538,538,538,538,538,529,518,506,491,472,410,371,328,292,276,251,244,236,228,205,185,139,124,99],"timestamp_mouse":[9,40,48,67,88,107,127,148,168,187,208,227,247,267,288,307,328,348,367,387,408,427,447,468,488,507,527,547,568,588,608,627,647,667,687,707,729,747,767,787,808,827,847,867,888,908,929,947,967,988,1007],"xSR":741.5,"ySR":469.95,"xT1":424.9,"yT1":0,"xT2":1058.1,"yT2":0,"toosoon":0,"cond_shown":"equaldotsize","ratio_trial":500,"smaller_num":"5","larger_num":"10","correct_side":1,"subjID":"SebastianMendoza27","gender":"0","age":"10","school":"4"},{"start_time":1552309405782,"click_time":1552309407229,"finger_time":1552309406729,"fix_duration":410.6276501000443,"trial":36,"RT":947,"MT":500,"sideResp":1,"stimulus":"img/900/equaldotanddens/R/14_Ratio_900_L_18_R_20.png","xmouse":[819,819,819,819,819,819,819,819,819,819,819,819,819,819,819,819,819,819,819,819,819,819,819,819,819,819,819,819,819,819,819,819,819,819,819,819,819,819,819,819,819,819,812,804,790,776,755,688,651,620,596,574,533,514,490,485,472,462,457,454,452,450,447,447,447,449,453,459,460,462,462,462,449],"ymouse":[520,520,520,520,520,520,520,520,520,520,520,520,520,520,520,520,520,520,520,520,520,520,520,520,520,520,520,520,520,520,520,520,520,520,520,520,520,520,520,520,520,520,517,514,504,491,477,432,410,393,381,369,347,333,314,310,297,278,269,264,257,251,234,223,213,203,186,161,155,148,138,123,83],"timestamp_mouse":[9,39,47,67,87,107,127,147,168,188,207,228,248,267,287,307,327,348,369,388,407,428,448,468,487,508,528,547,568,588,608,627,648,668,688,707,728,748,768,788,808,827,847,868,887,908,927,947,967,988,1007,1027,1047,1068,1087,1107,1128,1148,1167,1188,1208,1227,1247,1268,1287,1307,1327,1347,1367,1387,1408,1427,1447],"xSR":741.5,"ySR":469.95,"xT1":424.9,"yT1":0,"xT2":1058.1,"yT2":0,"toosoon":0,"cond_shown":"equaldotanddens","ratio_trial":900,"smaller_num":"18","larger_num":"20","correct_side":2,"subjID":"SebastianMendoza27","gender":"0","age":"10","school":"4"},{"start_time":1552309408659,"click_time":1552309410150,"finger_time":1552309409411,"fix_duration":629.8421676230453,"trial":37,"RT":752,"MT":739,"sideResp":1,"stimulus":"img/500/randomdotsizeEA/L/13_Ratio_500_L_12_R_6.png","xmouse":[779,779,779,779,779,779,779,779,779,779,779,779,779,779,779,779,779,779,779,779,779,779,779,779,779,779,779,779,779,779,779,779,779,779,779,785,790,801,811,814,814,814,814,815,815,815,815,814,773,719,671,615,593,563,547,522,485,440,376,376,376,376,376,376,376,376,376,376,376,376,376,376,376,376,477],"ymouse":[508,508,508,508,508,508,508,508,508,508,508,508,508,508,508,508,508,508,508,508,508,508,508,508,508,508,508,508,508,508,508,508,508,508,508,493,483,468,457,455,455,455,455,455,455,455,455,449,413,380,353,326,316,289,267,227,165,102,15,15,15,15,15,15,15,15,15,15,15,15,15,15,15,15,29],"timestamp_mouse":[11,34,50,71,91,111,131,150,170,190,210,231,250,270,291,311,331,350,370,390,411,430,451,470,490,511,530,550,570,591,610,630,650,670,690,711,731,752,770,790,811,831,851,870,891,910,930,950,970,990,1010,1031,1050,1070,1090,1110,1130,1150,1170,1190,1210,1230,1251,1271,1290,1310,1330,1351,1370,1390,1410,1430,1450,1471,1491],"xSR":741.5,"ySR":469.95,"xT1":424.9,"yT1":0,"xT2":1058.1,"yT2":0,"toosoon":0,"cond_shown":"randomdotsizeEA","ratio_trial":500,"smaller_num":"6","larger_num":"12","correct_side":1,"subjID":"SebastianMendoza27","gender":"0","age":"10","school":"4"},{"start_time":1552309412695,"click_time":1552309414209,"finger_time":1552309413390,"fix_duration":1265.0223932408485,"trial":38,"RT":695,"MT":819,"sideResp":1,"stimulus":"img/900/randomdotsizeEA/L/1_Ratio_900_L_10_R_9.png","xmouse":[770,770,770,770,770,770,770,770,770,770,770,770,770,770,770,770,770,770,770,770,770,770,770,770,770,770,770,770,770,770,771,787,803,838,885,962,983,996,1008,1016,1022,1029,1032,1033,1034,1034,1034,1034,1034,1034,1034,1026,1016,1000,970,916,719,591,416,347,331,330,330,329,320,303,283,275,275,275,275,323,350,385,416,440],"ymouse":[539,539,539,539,539,539,539,539,539,539,539,539,539,539,539,539,539,539,539,539,539,539,539,539,539,539,539,539,539,539,539,536,526,501,469,424,411,399,386,374,360,338,328,322,316,308,296,292,290,290,289,289,292,295,297,297,257,217,168,152,151,151,151,150,140,123,104,100,100,100,98,95,95,95,95,95],"timestamp_mouse":[14,40,55,75,94,114,134,154,175,195,215,235,255,275,295,314,335,354,374,395,414,434,454,475,495,514,534,554,575,595,614,634,654,675,695,716,734,754,775,794,814,834,854,874,895,915,934,954,975,994,1015,1034,1054,1075,1094,1115,1134,1155,1175,1194,1214,1234,1254,1274,1294,1315,1334,1354,1374,1395,1414,1434,1454,1475,1494,1514],"xSR":741.5,"ySR":469.95,"xT1":424.9,"yT1":0,"xT2":1058.1,"yT2":0,"toosoon":0,"cond_shown":"randomdotsizeEA","ratio_trial":900,"smaller_num":"9","larger_num":"10","correct_side":1,"subjID":"SebastianMendoza27","gender":"0","age":"10","school":"4"},{"start_time":1552309416081,"click_time":1552309417370,"finger_time":1552309416829,"fix_duration":810.042896291483,"trial":39,"RT":748,"MT":541,"sideResp":2,"stimulus":"img/250/equaldotsize/R/10_Ratio_250_L_4_R_16.png","xmouse":[790,790,790,790,790,790,790,790,790,790,790,790,790,790,790,790,790,790,790,790,790,790,790,790,790,790,790,790,790,790,790,790,790,790,791,798,811,843,865,882,901,914,970,1014,1074,1141,1196,1256,1265,1265,1267,1267,1266,1259,1251,1246,1246,1246,1246,1246,1246,1246,1246,1246,1117],"ymouse":[503,503,503,503,503,503,503,503,503,503,503,503,503,503,503,503,503,503,503,503,503,503,503,503,503,503,503,503,503,503,503,503,503,503,503,507,515,528,533,540,541,541,520,497,467,428,388,277,204,147,98,80,43,24,7,0,0,0,0,0,0,0,0,0,14],"timestamp_mouse":[12,38,49,68,89,109,128,149,169,188,209,229,248,269,289,308,329,349,369,389,409,428,449,467,489,509,528,548,569,588,608,628,648,669,688,708,729,748,769,789,808,828,848,868,889,908,928,948,968,989,1008,1029,1050,1068,1090,1108,1128,1149,1169,1190,1208,1230,1248,1269,1288],"xSR":741.5,"ySR":469.95,"xT1":424.9,"yT1":0,"xT2":1058.1,"yT2":0,"toosoon":0,"cond_shown":"equaldotsize","ratio_trial":250,"smaller_num":"4","larger_num":"16","correct_side":2,"subjID":"SebastianMendoza27","gender":"0","age":"10","school":"4"},{"start_time":1552309418660,"click_time":1552309419749,"finger_time":1552309419309,"fix_duration":250,"trial":40,"RT":649,"MT":440,"sideResp":2,"stimulus":"img/500/randomdotsizeEA/R/3_Ratio_500_L_10_R_20.png","xmouse":[828,828,828,828,828,828,828,828,828,828,828,828,828,828,828,828,828,828,828,828,828,828,828,828,828,828,828,828,828,828,829,833,845,862,866,873,878,903,921,944,965,998,1017,1052,1075,1106,1132,1149,1161,1162,1162,1161,1161,1159,1157],"ymouse":[495,495,495,495,495,495,495,495,495,495,495,495,495,495,495,495,495,495,495,495,495,495,495,495,495,495,495,495,495,495,495,496,501,505,507,508,509,506,495,481,466,438,418,366,335,291,248,213,168,147,128,100,59,38,25],"timestamp_mouse":[10,42,49,70,90,109,129,150,169,190,210,229,249,269,289,310,329,349,370,389,409,430,449,470,489,510,529,549,569,590,609,629,649,669,689,709,729,751,769,789,809,830,850,869,889,910,930,950,969,989,1009,1029,1051,1069,1089],"xSR":741.5,"ySR":469.95,"xT1":424.9,"yT1":0,"xT2":1058.1,"yT2":0,"toosoon":0,"cond_shown":"randomdotsizeEA","ratio_trial":500,"smaller_num":"10","larger_num":"20","correct_side":2,"subjID":"SebastianMendoza27","gender":"0","age":"10","school":"4"},{"start_time":1552309420921,"click_time":1552309422069,"finger_time":1552309421729,"fix_duration":250.18585788273518,"trial":41,"RT":808,"MT":340,"sideResp":2,"stimulus":"img/750/equaldotsize/R/15_Ratio_750_L_9_R_12.png","xmouse":[794,794,794,794,794,794,794,794,794,794,794,794,794,794,794,794,794,794,794,794,794,794,794,794,794,794,794,794,794,794,794,794,794,794,794,794,794,794,802,817,870,879,890,896,898,922,955,973,1015,1032,1045,1045,1045,1041,1041,1050,1057,1061],"ymouse":[508,508,508,508,508,508,508,508,508,508,508,508,508,508,508,508,508,508,508,508,508,508,508,508,508,508,508,508,508,508,508,508,508,508,508,508,508,508,511,517,540,543,548,550,550,548,529,520,483,459,396,360,303,252,206,137,116,99],"timestamp_mouse":[10,44,48,68,88,109,129,149,168,189,208,229,248,268,289,308,328,349,368,389,408,428,448,469,489,509,529,548,570,589,609,628,649,669,689,708,728,748,770,789,808,828,848,868,889,908,928,948,968,989,1009,1028,1048,1068,1089,1108,1128,1148],"xSR":741.5,"ySR":469.95,"xT1":424.9,"yT1":0,"xT2":1058.1,"yT2":0,"toosoon":0,"cond_shown":"equaldotsize","ratio_trial":750,"smaller_num":"9","larger_num":"12","correct_side":2,"subjID":"SebastianMendoza27","gender":"0","age":"10","school":"4"},{"start_time":1552309424272,"click_time":1552309425229,"finger_time":1552309424849,"fix_duration":1241.2583606197575,"trial":42,"RT":577,"MT":380,"sideResp":1,"stimulus":"img/250/equaldotsize/L/1_Ratio_250_L_8_R_2.png","xmouse":[748,748,748,748,748,748,748,748,748,748,748,748,748,748,748,748,748,748,748,748,748,748,748,748,748,748,748,748,730,683,651,619,593,588,585,584,581,573,569,564,562,559,555,552,549,544,534,519],"ymouse":[482,482,482,482,482,482,482,482,482,482,482,482,482,482,482,482,482,482,482,482,482,482,482,482,482,482,482,480,447,371,327,285,243,231,224,212,199,170,159,139,131,123,110,105,100,93,82,68],"timestamp_mouse":[17,38,57,78,97,117,137,157,178,197,217,237,257,278,297,317,338,357,377,397,417,438,457,478,498,517,537,557,577,597,617,637,657,677,697,718,738,757,778,797,817,838,857,877,898,917,937,957],"xSR":741.5,"ySR":469.95,"xT1":424.9,"yT1":0,"xT2":1058.1,"yT2":0,"toosoon":0,"cond_shown":"equaldotsize","ratio_trial":250,"smaller_num":"2","larger_num":"8","correct_side":1,"subjID":"SebastianMendoza27","gender":"0","age":"10","school":"4"},{"start_time":1552309428681,"click_time":1552309429770,"finger_time":1552309429510,"fix_duration":250,"trial":43,"RT":829,"MT":260,"sideResp":2,"stimulus":"img/900/equaldotanddens/L/1_Ratio_900_L_10_R_9.png","xmouse":[753,753,753,753,753,753,753,753,753,753,753,753,753,753,753,753,753,753,753,753,753,753,753,753,753,753,753,753,753,753,753,753,753,753,753,753,755,778,794,821,834,849,898,927,954,976,996,1032,1051,1068,1088,1095,1098,1099,1099],"ymouse":[509,509,509,509,509,509,509,509,509,509,509,509,509,509,509,509,509,509,509,509,509,509,509,509,509,509,509,509,509,509,509,509,509,509,509,507,507,503,502,501,499,497,486,474,456,440,420,356,308,256,192,158,119,109,99],"timestamp_mouse":[9,40,48,68,88,108,128,148,169,188,209,229,249,268,288,308,329,349,368,389,410,428,448,468,489,509,528,548,568,589,609,630,648,668,689,708,728,748,768,788,808,829,848,868,888,908,928,948,968,988,1008,1028,1049,1068,1089],"xSR":741.5,"ySR":469.95,"xT1":424.9,"yT1":0,"xT2":1058.1,"yT2":0,"toosoon":0,"cond_shown":"equaldotanddens","ratio_trial":900,"smaller_num":"9","larger_num":"10","correct_side":1,"subjID":"SebastianMendoza27","gender":"0","age":"10","school":"4"},{"start_time":1552309430882,"click_time":1552309432069,"finger_time":1552309431570,"fix_duration":250,"trial":44,"RT":688,"MT":499,"sideResp":1,"stimulus":"img/500/randomdotsizeEA/L/10_Ratio_500_L_4_R_2.png","xmouse":[788,788,788,788,788,788,788,788,788,788,788,788,788,788,788,788,788,788,788,788,788,788,788,788,788,788,788,788,785,778,772,765,760,759,756,754,752,743,736,724,713,694,632,598,554,528,499,457,449,446,443,433,407,404,404,404,404,414,421,430],"ymouse":[514,514,514,514,514,514,514,514,514,514,514,514,514,514,514,514,514,514,514,514,514,514,514,514,514,514,514,514,506,495,488,480,474,472,469,467,466,456,450,439,429,412,370,345,313,292,268,224,212,204,181,145,64,47,41,40,39,38,40,42],"timestamp_mouse":[9,28,47,67,88,107,127,147,168,187,208,227,249,268,287,307,328,347,368,387,407,428,448,467,488,508,527,547,567,587,609,628,647,667,688,707,728,747,768,787,807,828,847,867,888,908,928,947,967,988,1008,1027,1047,1067,1088,1107,1128,1148,1168,1187],"xSR":741.5,"ySR":469.95,"xT1":424.9,"yT1":0,"xT2":1058.1,"yT2":0,"toosoon":0,"cond_shown":"randomdotsizeEA","ratio_trial":500,"smaller_num":"2","larger_num":"4","correct_side":1,"subjID":"SebastianMendoza27","gender":"0","age":"10","school":"4"},{"start_time":1552309433886,"click_time":1552309435490,"finger_time":1552309434649,"fix_duration":974.0868510488417,"trial":45,"RT":763,"MT":841,"sideResp":1,"stimulus":"img/750/randomdotsizeEA/L/6_Ratio_750_L_24_R_18.png","xmouse":[761,761,761,761,761,761,761,761,761,761,761,761,761,761,761,761,761,761,761,761,761,761,761,761,761,761,761,761,761,761,761,761,761,761,761,761,761,804,873,983,1051,1113,1186,1208,1226,1244,1257,1272,1274,1275,1274,1271,1244,1220,1180,1137,1093,1023,998,966,952,940,911,899,883,868,853,823,804,780,745,720,666,645,626,610,596,559,541,526,511],"ymouse":[524,524,524,524,524,524,524,524,524,524,524,524,524,524,524,524,524,524,524,524,524,524,524,524,524,524,524,524,524,524,524,524,524,524,524,524,524,514,499,476,464,449,425,411,396,380,366,344,340,336,334,333,332,341,357,375,389,409,417,419,419,418,407,403,396,392,387,379,370,360,343,332,303,288,273,258,237,171,139,113,74],"timestamp_mouse":[10,24,44,76,83,104,123,143,165,183,203,225,243,263,285,305,325,344,363,383,404,423,443,465,484,504,524,543,564,584,603,625,644,664,685,705,723,743,763,783,803,823,843,863,883,903,924,944,964,983,1004,1024,1043,1063,1084,1104,1123,1144,1163,1183,1204,1224,1243,1263,1284,1304,1324,1343,1363,1383,1403,1423,1443,1463,1484,1504,1524,1543,1564,1584,1604],"xSR":741.5,"ySR":469.95,"xT1":424.9,"yT1":0,"xT2":1058.1,"yT2":0,"toosoon":0,"cond_shown":"randomdotsizeEA","ratio_trial":750,"smaller_num":"18","larger_num":"24","correct_side":1,"subjID":"SebastianMendoza27","gender":"0","age":"10","school":"4"},{"start_time":1552309436800,"click_time":1552309438369,"finger_time":1552309437870,"fix_duration":448.25397647414553,"trial":46,"RT":1070,"MT":499,"sideResp":2,"stimulus":"img/900/equaldotsize/R/3_Ratio_900_L_9_R_10.png","xmouse":[798,798,798,798,798,798,798,798,798,798,798,798,798,798,798,798,798,798,798,798,798,798,798,798,798,798,798,798,798,798,798,798,798,798,798,798,798,798,798,798,798,798,798,798,798,798,798,798,798,798,798,798,814,858,916,976,1046,1057,1061,1063,1068,1081,1090,1101,1103,1108,1111,1113,1116,1119,1120,1125,1126,1126,1127,1127,1132,1134,1134],"ymouse":[547,547,547,547,547,547,547,547,547,547,547,547,547,547,547,547,547,547,547,547,547,547,547,547,547,547,547,547,547,547,547,547,547,547,547,547,547,547,547,547,547,547,547,547,547,547,547,547,547,547,547,547,547,548,547,539,519,512,508,504,490,443,420,389,371,330,310,292,282,276,269,254,249,246,231,209,158,124,86],"timestamp_mouse":[9,42,49,69,89,109,130,150,169,190,210,229,251,269,289,310,331,349,370,391,409,430,449,470,490,510,529,549,571,590,609,629,651,670,691,709,729,749,770,790,809,829,849,870,890,909,929,950,970,989,1010,1029,1049,1070,1091,1109,1129,1149,1169,1189,1209,1229,1249,1269,1290,1311,1329,1350,1370,1389,1409,1429,1450,1470,1489,1509,1530,1549,1569],"xSR":741.5,"ySR":469.95,"xT1":424.9,"yT1":0,"xT2":1058.1,"yT2":0,"toosoon":0,"cond_shown":"equaldotsize","ratio_trial":900,"smaller_num":"9","larger_num":"10","correct_side":2,"subjID":"SebastianMendoza27","gender":"0","age":"10","school":"4"},{"start_time":1552309440871,"click_time":1552309442029,"finger_time":1552309441650,"fix_duration":1399.49727365791,"trial":47,"RT":779,"MT":379,"sideResp":1,"stimulus":"img/750/equaldotsize/L/14_Ratio_750_L_8_R_6.png","xmouse":[829,829,829,829,829,829,829,829,829,829,829,829,829,829,829,829,829,829,829,829,829,829,829,829,829,829,829,829,829,829,829,829,829,829,829,829,829,799,747,688,604,571,521,505,495,487,483,480,480,480,480,484,486,491,490,485,480,477],"ymouse":[497,497,497,497,497,497,497,497,497,497,497,497,497,497,497,497,497,497,497,497,497,497,497,497,497,497,497,497,497,497,497,497,497,497,497,497,496,470,433,399,355,339,315,304,296,289,282,267,260,258,255,228,211,186,160,127,102,76],"timestamp_mouse":[18,38,59,79,98,119,140,159,179,199,220,238,259,279,299,319,338,358,379,398,420,439,459,478,500,520,540,559,579,599,620,639,660,679,698,719,739,758,779,798,818,838,859,878,899,919,939,959,980,999,1019,1040,1059,1078,1099,1118,1138,1158],"xSR":741.5,"ySR":469.95,"xT1":424.9,"yT1":0,"xT2":1058.1,"yT2":0,"toosoon":0,"cond_shown":"equaldotsize","ratio_trial":750,"smaller_num":"6","larger_num":"8","correct_side":1,"subjID":"SebastianMendoza27","gender":"0","age":"10","school":"4"},{"start_time":1552309444886,"click_time":1552309446330,"finger_time":1552309445549,"fix_duration":1174.5640781082407,"trial":48,"RT":663,"MT":781,"sideResp":1,"stimulus":"img/250/randomdotsizeEA/L/5_Ratio_250_L_24_R_6.png","xmouse":[751,751,751,751,751,751,751,751,751,751,751,751,751,751,751,751,751,751,751,751,751,751,751,751,751,751,751,751,751,751,751,751,769,811,854,899,932,958,964,974,976,977,977,977,977,977,977,977,971,921,869,809,766,762,762,762,762,699,599,560,464,430,408,408,408,408,407,407,407,416,436,464,522],"ymouse":[536,536,536,536,536,536,536,536,536,536,536,536,536,536,536,536,536,536,536,536,536,536,536,536,536,536,536,536,536,536,536,536,500,421,341,271,210,154,133,94,78,69,67,67,67,67,67,67,74,133,181,223,248,250,250,250,250,230,204,198,186,180,174,174,174,174,173,165,161,148,134,118,85],"timestamp_mouse":[12,23,43,63,85,104,123,145,163,183,204,225,243,264,283,303,325,345,363,384,405,423,443,463,484,503,525,543,563,584,603,625,644,663,683,704,723,744,764,783,804,824,843,864,885,903,925,944,963,983,1003,1023,1043,1065,1085,1105,1124,1143,1165,1183,1204,1223,1244,1263,1283,1303,1324,1343,1364,1383,1404,1423,1444],"xSR":741.5,"ySR":469.95,"xT1":424.9,"yT1":0,"xT2":1058.1,"yT2":0,"toosoon":0,"cond_shown":"randomdotsizeEA","ratio_trial":250,"smaller_num":"6","larger_num":"24","correct_side":1,"subjID":"SebastianMendoza27","gender":"0","age":"10","school":"4"},{"start_time":1552309467386,"click_time":1552309468890,"finger_time":1552309468269,"fix_duration":1453.921771533743,"trial":49,"RT":883,"MT":621,"sideResp":2,"stimulus":"img/250/equaldotsize/R/12_Ratio_250_L_5_R_20.png","xmouse":[746,746,746,746,746,746,746,746,746,746,746,746,746,746,746,746,746,746,746,746,746,746,746,746,746,746,746,746,746,746,746,746,746,746,746,746,746,746,746,746,746,746,746,773,882,966,1067,1225,1272,1311,1337,1355,1367,1366,1366,1366,1366,1366,1366,1366,1366,1366,989,982,981,981,981,981,981,987,991,993,1011,1030,1038,1063],"ymouse":[518,518,518,518,518,518,518,518,518,518,518,518,518,518,518,518,518,518,518,518,518,518,518,518,518,518,518,518,518,518,518,518,518,518,518,518,518,518,518,518,518,518,518,521,522,501,465,375,311,237,173,113,37,9,9,9,9,9,9,9,9,9,29,34,36,36,38,63,70,79,85,86,88,86,84,71],"timestamp_mouse":[10,23,43,65,84,104,123,144,163,183,205,223,243,263,285,303,324,344,364,383,403,424,443,463,484,505,525,545,564,583,603,624,645,664,683,703,724,744,764,784,804,823,843,863,883,905,924,943,963,984,1004,1024,1043,1064,1084,1103,1123,1144,1164,1183,1203,1224,1243,1263,1284,1304,1324,1344,1364,1383,1403,1425,1444,1465,1484,1504],"xSR":741.5,"ySR":469.95,"xT1":424.9,"yT1":0,"xT2":1058.1,"yT2":0,"toosoon":0,"cond_shown":"equaldotsize","ratio_trial":250,"smaller_num":"5","larger_num":"20","correct_side":2,"subjID":"SebastianMendoza27","gender":"0","age":"10","school":"4"},{"start_time":1552309482515,"click_time":1552309483809,"finger_time":1552309483491,"fix_duration":1383.4966171697056,"trial":50,"RT":976,"MT":318,"sideResp":1,"stimulus":"img/250/randomdotsizeEA/L/5_Ratio_250_L_24_R_6.png","xmouse":[768,768,768,768,768,768,768,768,768,768,768,768,768,768,768,768,768,768,768,768,768,768,768,768,768,768,768,768,768,768,768,768,768,768,768,768,768,768,768,768,768,768,768,768,768,768,768,769,723,681,595,563,553,552,552,552,552,552,552,552,552,552,552,552,509],"ymouse":[495,495,495,495,495,495,495,495,495,495,495,495,495,495,495,495,495,495,495,495,495,495,495,495,495,495,495,495,495,495,495,495,495,495,495,495,495,495,495,495,495,495,495,495,495,495,495,472,352,252,98,44,19,10,10,10,10,10,10,10,10,10,10,10,11],"timestamp_mouse":[14,34,55,76,95,116,134,155,176,194,214,236,254,276,294,315,336,354,374,395,416,435,454,475,494,515,535,554,575,595,615,634,654,675,694,715,736,755,774,795,814,835,854,875,894,914,935,954,976,995,1014,1034,1055,1075,1095,1116,1135,1156,1175,1195,1215,1235,1255,1274,1294],"xSR":741.5,"ySR":469.95,"xT1":424.9,"yT1":0,"xT2":1058.1,"yT2":0,"toosoon":0,"cond_shown":"randomdotsizeEA","ratio_trial":250,"smaller_num":"6","larger_num":"24","correct_side":1,"subjID":"SebastianMendoza27","gender":"0","age":"10","school":"4"},{"start_time":1552309486160,"click_time":1552309487470,"finger_time":1552309487050,"fix_duration":728.6055221222185,"trial":51,"RT":890,"MT":420,"sideResp":1,"stimulus":"img/900/equaldotanddens/L/1_Ratio_900_L_10_R_9.png","xmouse":[817,817,817,817,817,817,817,817,817,817,817,817,817,817,817,817,817,817,817,817,817,817,817,817,817,817,817,817,817,817,817,817,817,817,817,817,817,817,817,817,817,813,806,770,737,714,701,693,675,665,655,642,620,557,536,521,507,499,495,492,488,485,481,480,478,475],"ymouse":[522,522,522,522,522,522,522,522,522,522,522,522,522,522,522,522,522,522,522,522,522,522,522,522,522,522,522,522,522,522,522,522,522,522,522,522,522,522,522,522,522,520,515,491,474,462,454,450,434,423,412,397,368,284,260,241,214,188,175,162,148,135,124,119,113,99],"timestamp_mouse":[19,42,50,69,89,109,131,151,169,190,209,229,250,271,290,309,330,350,371,390,410,429,449,469,489,509,531,551,569,590,609,631,651,671,690,710,729,749,769,789,811,830,849,869,890,909,930,949,970,989,1009,1029,1049,1069,1089,1110,1131,1151,1170,1189,1210,1230,1252,1269,1290,1310],"xSR":741.5,"ySR":469.95,"xT1":424.9,"yT1":0,"xT2":1058.1,"yT2":0,"toosoon":0,"cond_shown":"equaldotanddens","ratio_trial":900,"smaller_num":"9","larger_num":"10","correct_side":1,"subjID":"SebastianMendoza27","gender":"0","age":"10","school":"4"},{"start_time":1552309489651,"click_time":1552309491009,"finger_time":1552309490530,"fix_duration":998.6279417052634,"trial":52,"RT":879,"MT":479,"sideResp":1,"stimulus":"img/900/equaldotsize/R/3_Ratio_900_L_9_R_10.png","xmouse":[781,781,781,781,781,781,781,781,781,781,781,781,781,781,781,781,781,781,781,781,781,781,781,781,781,781,781,781,781,781,781,781,781,781,781,781,781,781,781,781,781,777,769,721,701,679,657,642,629,627,627,627,627,627,626,620,612,589,577,568,554,549,547,547,547,547,533,514],"ymouse":[526,526,526,526,526,526,526,526,526,526,526,526,526,526,526,526,526,526,526,526,526,526,526,526,526,526,526,526,526,526,526,526,526,526,526,526,526,526,525,525,525,522,517,461,422,387,347,312,266,254,242,229,222,221,217,198,177,135,115,103,79,68,64,64,64,63,58,52],"timestamp_mouse":[19,38,60,78,99,119,139,159,180,200,218,238,259,278,299,319,340,359,379,399,418,439,460,478,499,519,540,560,579,600,619,638,659,678,700,719,739,760,779,799,818,839,858,879,898,918,938,959,978,998,1019,1039,1058,1080,1099,1119,1138,1160,1179,1198,1218,1238,1260,1278,1299,1319,1338,1358],"xSR":741.5,"ySR":469.95,"xT1":424.9,"yT1":0,"xT2":1058.1,"yT2":0,"toosoon":0,"cond_shown":"equaldotsize","ratio_trial":900,"smaller_num":"9","larger_num":"10","correct_side":2,"subjID":"SebastianMendoza27","gender":"0","age":"10","school":"4"},{"start_time":1552309496125,"click_time":1552309497411,"finger_time":1552309497010,"fix_duration":1254.2057122062797,"trial":53,"RT":885,"MT":401,"sideResp":1,"stimulus":"img/750/equaldotsize/L/9_Ratio_750_L_4_R_3.png","xmouse":[793,793,793,793,793,793,793,793,793,793,793,793,793,793,793,793,793,793,793,793,793,793,793,793,793,793,793,793,793,793,793,793,793,793,793,793,793,793,793,793,793,793,788,783,776,756,744,736,726,718,705,700,695,688,679,647,629,615,591,576,553,544,529,517,503],"ymouse":[499,499,499,499,499,499,499,499,499,499,499,499,499,499,499,499,499,499,499,499,499,499,499,499,499,499,499,499,499,499,499,499,499,499,499,499,499,499,499,499,499,499,488,470,453,422,408,400,390,383,370,365,361,353,339,301,280,262,233,218,188,168,142,121,97],"timestamp_mouse":[10,25,46,65,85,105,124,144,166,185,205,224,245,265,285,305,326,345,365,384,404,425,445,465,485,505,525,545,566,585,606,625,644,665,686,706,725,745,766,786,806,824,845,864,885,904,926,945,966,984,1004,1024,1045,1064,1084,1105,1125,1145,1166,1185,1205,1224,1244,1264,1285],"xSR":741.5,"ySR":469.95,"xT1":424.9,"yT1":0,"xT2":1058.1,"yT2":0,"toosoon":0,"cond_shown":"equaldotsize","ratio_trial":750,"smaller_num":"3","larger_num":"4","correct_side":1,"subjID":"SebastianMendoza27","gender":"0","age":"10","school":"4"},{"start_time":1552309499925,"click_time":1552309501291,"finger_time":1552309500829,"fix_duration":1153.677435769536,"trial":54,"RT":904,"MT":462,"sideResp":1,"stimulus":"img/750/equaldotsize/L/1_Ratio_750_L_20_R_15.png","xmouse":[822,822,822,822,822,822,822,822,822,822,822,822,822,822,822,822,822,822,822,822,822,822,822,822,822,822,822,822,822,822,822,822,822,822,822,822,822,822,822,822,822,822,819,809,766,653,614,589,571,568,553,543,532,520,507,495,491,491,490,487,485,485,485,485,485,485,485,485,485],"ymouse":[516,516,516,516,516,516,516,516,516,516,516,516,516,516,516,516,516,516,516,516,516,516,516,516,516,516,516,516,516,516,516,516,516,516,516,516,516,516,516,516,516,516,515,507,471,367,332,303,281,275,254,239,223,205,186,165,158,157,153,143,121,117,113,111,111,108,105,101,92],"timestamp_mouse":[10,42,44,64,84,104,124,146,166,184,206,226,245,265,284,304,326,346,365,384,404,424,446,464,485,504,524,546,565,586,605,625,646,666,684,704,725,746,765,785,805,824,845,865,884,904,925,945,966,985,1005,1024,1044,1064,1085,1104,1125,1145,1165,1184,1204,1224,1245,1265,1285,1304,1325,1345,1366],"xSR":741.5,"ySR":469.95,"xT1":424.9,"yT1":0,"xT2":1058.1,"yT2":0,"toosoon":0,"cond_shown":"equaldotsize","ratio_trial":750,"smaller_num":"15","larger_num":"20","correct_side":1,"subjID":"SebastianMendoza27","gender":"0","age":"10","school":"4"},{"start_time":1552309503132,"click_time":1552309504029,"finger_time":1552309503909,"fix_duration":1160.6227455128767,"trial":55,"RT":777,"MT":120,"sideResp":1,"stimulus":"img/250/randomdotsizeEA/L/3_Ratio_250_L_8_R_2.png","xmouse":[812,812,812,812,812,812,812,812,812,812,812,812,812,812,812,812,812,812,812,812,812,812,812,812,812,812,812,812,812,812,812,812,812,804,794,785,767,756,739,687,652,610,577,549,516],"ymouse":[565,565,565,565,565,565,565,565,565,565,565,565,565,565,565,565,565,565,565,565,565,565,565,565,565,565,565,565,565,565,565,565,565,559,550,538,515,498,465,341,265,198,153,117,73],"timestamp_mouse":[24,43,58,79,99,117,137,157,178,198,218,238,257,279,297,319,338,357,379,399,417,438,459,478,497,518,538,558,577,597,617,639,658,679,698,718,737,759,777,797,819,838,857,878,897],"xSR":741.5,"ySR":469.95,"xT1":424.9,"yT1":0,"xT2":1058.1,"yT2":0,"toosoon":0,"cond_shown":"randomdotsizeEA","ratio_trial":250,"smaller_num":"2","larger_num":"8","correct_side":1,"subjID":"SebastianMendoza27","gender":"0","age":"10","school":"4"},{"start_time":1552309510103,"click_time":1552309511390,"finger_time":1552309510770,"fix_duration":250,"trial":56,"RT":667,"MT":620,"sideResp":1,"stimulus":"img/750/randomdotsizeEA/L/8_Ratio_750_L_4_R_3.png","xmouse":[772,772,772,772,772,772,772,772,772,772,772,772,772,772,772,772,772,772,772,772,772,772,772,772,772,772,772,772,772,772,772,772,761,748,715,653,634,620,613,603,601,601,601,601,601,601,601,600,587,560,542,535,526,517,507,496,493,492,492,492,492,492,492,492,491],"ymouse":[494,494,494,494,494,494,494,494,494,494,494,494,494,494,494,494,494,494,494,494,494,494,494,494,494,494,494,494,494,494,494,494,481,466,430,376,359,341,326,300,296,296,296,296,296,296,296,294,269,238,210,195,180,165,145,125,115,115,115,115,115,107,105,102,99],"timestamp_mouse":[6,26,47,66,88,108,126,147,168,187,207,228,247,267,286,307,328,348,366,387,407,428,447,467,488,508,528,547,567,587,606,628,646,667,687,709,727,746,767,787,808,827,847,868,887,906,926,946,967,987,1008,1027,1048,1067,1087,1108,1126,1146,1166,1186,1206,1226,1246,1267,1286],"xSR":741.5,"ySR":469.95,"xT1":424.9,"yT1":0,"xT2":1058.1,"yT2":0,"toosoon":0,"cond_shown":"randomdotsizeEA","ratio_trial":750,"smaller_num":"3","larger_num":"4","correct_side":1,"subjID":"SebastianMendoza27","gender":"0","age":"10","school":"4"},{"start_time":1552309518127,"click_time":1552309519229,"finger_time":1552309518931,"fix_duration":793.5114995968403,"trial":57,"RT":804,"MT":298,"sideResp":1,"stimulus":"img/750/randomdotsizeEA/L/8_Ratio_750_L_4_R_3.png","xmouse":[782,782,782,782,782,782,782,782,782,782,782,782,782,782,782,782,782,782,782,782,782,782,782,782,782,782,782,782,782,782,778,776,775,774,774,774,773,770,764,753,725,702,686,676,661,638,630,619,605,597,583,576,565,544,521,469],"ymouse":[546,546,546,546,546,546,546,546,546,546,546,546,546,546,546,546,546,546,546,546,546,546,546,546,546,546,546,546,546,543,532,529,527,525,525,525,523,518,499,480,435,405,387,373,356,331,319,304,278,258,223,205,184,153,113,27],"timestamp_mouse":[8,23,44,62,83,102,123,144,162,183,202,223,242,264,283,304,324,344,362,382,404,422,443,464,484,502,522,542,564,583,603,623,642,663,684,702,723,743,764,783,804,822,842,862,884,902,923,943,963,983,1003,1022,1043,1062,1083,1102],"xSR":741.5,"ySR":469.95,"xT1":424.9,"yT1":0,"xT2":1058.1,"yT2":0,"toosoon":0,"cond_shown":"randomdotsizeEA","ratio_trial":750,"smaller_num":"3","larger_num":"4","correct_side":1,"subjID":"SebastianMendoza27","gender":"0","age":"10","school":"4"},{"start_time":1552309521537,"click_time":1552309523309,"finger_time":1552309522509,"fix_duration":1445.3695819917152,"trial":58,"RT":972,"MT":800,"sideResp":1,"stimulus":"img/900/equaldotanddens/L/10_Ratio_900_L_20_R_18.png","xmouse":[783,783,783,783,783,783,783,783,783,783,783,783,783,783,783,783,783,783,783,783,783,783,783,783,783,783,783,783,783,783,783,783,783,783,783,783,783,783,783,783,783,783,783,783,783,783,783,780,774,745,731,720,707,688,679,671,665,659,656,651,649,647,646,645,639,636,631,625,621,609,603,597,592,584,582,580,579,579,579,579,576,575,575,575,575,570,554,535,522],"ymouse":[484,484,484,484,484,484,484,484,484,484,484,484,484,484,484,484,484,484,484,484,484,484,484,484,484,484,484,484,484,484,484,484,484,484,484,484,484,484,484,484,484,484,484,484,484,484,484,479,469,420,398,378,360,326,307,287,270,248,236,214,202,190,177,168,145,135,120,111,104,91,85,81,78,77,77,77,77,77,77,77,77,77,77,77,77,77,77,77,77],"timestamp_mouse":[15,40,52,72,93,112,133,154,173,193,212,234,254,272,293,313,332,353,374,392,414,433,454,474,492,513,532,553,574,593,612,632,653,674,694,713,733,752,774,794,814,833,852,873,892,914,934,953,972,992,1014,1033,1052,1074,1093,1112,1132,1152,1173,1192,1212,1234,1253,1273,1292,1312,1332,1352,1372,1392,1412,1434,1453,1474,1493,1512,1532,1553,1573,1593,1612,1632,1653,1672,1693,1714,1734,1752,1772],"xSR":741.5,"ySR":469.95,"xT1":424.9,"yT1":0,"xT2":1058.1,"yT2":0,"toosoon":0,"cond_shown":"equaldotanddens","ratio_trial":900,"smaller_num":"18","larger_num":"20","correct_side":1,"subjID":"SebastianMendoza27","gender":"0","age":"10","school":"4"},{"start_time":1552309525417,"click_time":1552309526612,"finger_time":1552309526249,"fix_duration":1165.7793609494072,"trial":59,"RT":832,"MT":363,"sideResp":2,"stimulus":"img/750/equaldotanddens/R/7_Ratio_750_L_3_R_4.png","xmouse":[762,762,762,762,762,762,762,762,762,762,762,762,762,762,762,762,762,762,762,762,762,762,762,762,762,762,762,762,762,762,762,762,762,762,762,762,762,762,762,770,822,894,1000,1082,1141,1199,1212,1215,1217,1223,1224,1224,1224,1219,1212,1186,1178,1173,1168,1156],"ymouse":[522,522,522,522,522,522,522,522,522,522,522,522,522,522,522,522,522,522,522,522,522,522,522,522,522,522,522,522,522,522,522,522,522,522,522,522,522,522,522,522,522,521,509,496,483,451,438,427,413,362,323,287,241,215,195,138,118,105,93,73],"timestamp_mouse":[13,37,53,73,93,114,133,153,173,192,213,234,253,273,293,312,333,353,374,393,413,433,454,472,492,514,534,553,574,594,614,633,653,672,694,714,732,752,774,794,812,832,852,874,893,912,934,953,973,994,1013,1034,1052,1072,1092,1112,1132,1153,1173,1194],"xSR":741.5,"ySR":469.95,"xT1":424.9,"yT1":0,"xT2":1058.1,"yT2":0,"toosoon":0,"cond_shown":"equaldotanddens","ratio_trial":750,"smaller_num":"3","larger_num":"4","correct_side":2,"subjID":"SebastianMendoza27","gender":"0","age":"10","school":"4"},{"start_time":1552309576268,"click_time":1552309577869,"finger_time":1552309577129,"fix_duration":616.3106601209956,"trial":60,"RT":861,"MT":740,"sideResp":1,"stimulus":"img/900/randomdotsizeEA/L/1_Ratio_900_L_10_R_9.png","xmouse":[834,834,834,834,834,834,834,834,834,834,834,834,834,834,834,834,834,834,834,834,834,834,834,834,834,834,834,834,834,834,834,834,834,834,834,834,834,834,834,834,833,822,805,764,744,718,698,679,673,667,659,645,619,600,577,565,561,558,542,534,531,531,531,531,531,531,531,531,531,531,531,531,531,531,531,531,531,531,531,531,518],"ymouse":[521,521,521,521,521,521,521,521,521,521,521,521,521,521,521,521,521,521,521,521,521,521,521,521,521,521,521,521,521,521,521,521,521,521,521,521,521,521,521,521,521,520,510,441,400,357,325,293,282,268,250,218,171,143,116,100,93,89,69,61,56,56,56,56,56,56,56,56,56,56,56,56,56,56,56,56,56,56,56,56,55],"timestamp_mouse":[10,22,42,61,81,103,123,143,161,182,203,222,242,262,283,301,322,341,362,382,403,422,442,461,482,503,521,542,563,582,601,622,643,662,683,702,723,742,762,782,802,822,841,861,881,902,921,943,961,982,1002,1023,1044,1062,1082,1101,1122,1142,1161,1182,1203,1222,1243,1263,1282,1303,1323,1342,1363,1382,1402,1422,1443,1462,1483,1503,1521,1541,1562,1582,1601],"xSR":741.5,"ySR":469.95,"xT1":424.9,"yT1":0,"xT2":1058.1,"yT2":0,"toosoon":0,"cond_shown":"randomdotsizeEA","ratio_trial":900,"smaller_num":"9","larger_num":"10","correct_side":1,"subjID":"SebastianMendoza27","gender":"0","age":"10","school":"4"},{"start_time":1552309583853,"click_time":1552309584812,"finger_time":1552309584689,"fix_duration":842.2530097694535,"trial":61,"RT":836,"MT":123,"sideResp":1,"stimulus":"img/500/randomdotsizeEA/L/5_Ratio_500_L_4_R_2.png","xmouse":[779,779,779,779,779,779,779,779,779,779,779,779,779,779,779,779,779,779,779,779,779,779,779,779,779,779,779,779,779,779,779,779,779,779,779,779,779,779,779,779,774,741,671,542,507,475,452,425],"ymouse":[515,515,515,515,515,515,515,515,515,515,515,515,515,515,515,515,515,515,515,515,515,515,515,515,515,515,515,515,515,515,515,515,515,515,515,515,515,515,515,515,510,478,416,295,243,187,136,58],"timestamp_mouse":[16,37,58,77,96,117,137,158,176,198,218,238,258,278,296,317,338,357,377,396,417,437,458,477,498,517,538,556,578,598,618,638,657,676,697,717,736,757,777,797,817,836,856,876,897,917,938,959],"xSR":741.5,"ySR":469.95,"xT1":424.9,"yT1":0,"xT2":1058.1,"yT2":0,"toosoon":0,"cond_shown":"randomdotsizeEA","ratio_trial":500,"smaller_num":"2","larger_num":"4","correct_side":1,"subjID":"SebastianMendoza27","gender":"0","age":"10","school":"4"},{"start_time":1552309586699,"click_time":1552309588050,"finger_time":1552309587490,"fix_duration":767.5953620814992,"trial":62,"RT":791,"MT":560,"sideResp":1,"stimulus":"img/750/equaldotsize/L/6_Ratio_750_L_24_R_18.png","xmouse":[771,771,771,771,771,771,771,771,771,771,771,771,771,771,771,771,771,771,771,771,771,771,771,771,771,771,771,771,771,771,771,771,771,771,771,771,771,771,769,765,755,720,696,671,647,631,606,598,587,576,551,542,537,537,537,537,537,537,537,537,537,537,537,537,537,537,534,514],"ymouse":[476,476,476,476,476,476,476,476,476,476,476,476,476,476,476,476,476,476,476,476,476,476,476,476,476,476,476,476,476,476,476,476,476,476,476,476,476,476,474,465,441,374,334,289,253,220,140,94,68,50,24,16,13,13,13,13,13,13,13,13,13,13,13,13,13,13,13,20],"timestamp_mouse":[12,38,52,72,90,112,130,150,171,190,210,232,251,270,291,312,331,352,372,390,412,431,451,470,492,511,531,550,570,590,610,632,652,672,691,711,730,752,771,791,811,830,852,871,891,911,931,950,970,991,1012,1030,1052,1071,1091,1112,1131,1151,1171,1191,1210,1230,1250,1270,1291,1311,1330,1351],"xSR":741.5,"ySR":469.95,"xT1":424.9,"yT1":0,"xT2":1058.1,"yT2":0,"toosoon":0,"cond_shown":"equaldotsize","ratio_trial":750,"smaller_num":"18","larger_num":"24","correct_side":1,"subjID":"SebastianMendoza27","gender":"0","age":"10","school":"4"},{"start_time":1552309589187,"click_time":1552309590411,"finger_time":1552309589910,"fix_duration":574.5179830354498,"trial":63,"RT":723,"MT":501,"sideResp":1,"stimulus":"img/250/randomdotsizeEA/L/7_Ratio_250_L_8_R_2.png","xmouse":[813,813,813,813,813,813,813,813,813,813,813,813,813,813,813,813,813,813,813,813,813,813,813,813,813,813,813,813,813,813,813,813,813,813,816,833,834,819,807,794,781,771,735,700,646,582,567,548,535,521,512,507,506,506,501,501,501,496,494,492,490,488],"ymouse":[504,504,504,504,504,504,504,504,504,504,504,504,504,504,504,504,504,504,504,504,504,504,504,504,504,504,504,504,504,504,504,504,504,503,498,472,461,403,382,366,353,345,329,319,304,284,277,259,246,232,223,215,212,206,191,190,185,158,145,127,112,99],"timestamp_mouse":[9,24,43,64,83,103,124,143,163,1