[{"start_time":1552054116159,"click_time":1552054118038,"finger_time":1552054117497,"fix_duration":435.18444234994445,"trial":0,"RT":1338,"MT":541,"sideResp":2,"stimulus":[],"xmouse":[772,772,772,772,772,772,772,772,772,772,772,772,772,772,772,772,772,772,772,772,772,772,772,772,772,772,772,772,772,772,772,772,772,772,772,772,772,772,772,772,772,772,772,772,772,772,772,772,772,772,772,772,772,772,772,772,772,772,772,772,772,772,779,783,790,806,822,856,877,884,886,886,886,886,890,900,914,967,994,1025,1042,1056,1076,1085,1089,1094,1098,1100,1101,1101,1101,1101,1101,1101,1099],"ymouse":[541,541,541,541,541,541,541,541,541,541,541,541,541,541,541,541,541,541,541,541,541,541,541,541,541,541,541,541,541,541,541,541,541,541,541,541,541,541,541,541,541,541,541,541,541,541,541,541,541,541,541,541,541,541,541,541,541,541,541,541,541,541,537,536,531,517,503,468,443,435,433,432,432,432,424,405,372,288,250,211,191,173,148,138,131,127,121,115,112,112,112,112,110,107,99],"timestamp_mouse":[10,19,50,59,79,98,118,140,158,178,198,219,240,259,278,300,318,338,358,379,398,419,439,458,478,499,519,539,559,580,599,619,638,659,678,699,719,739,758,779,798,819,839,860,879,898,919,939,960,979,999,1018,1038,1059,1078,1099,1118,1139,1158,1178,1199,1218,1238,1258,1278,1298,1319,1338,1358,1379,1398,1419,1438,1458,1478,1499,1519,1539,1559,1579,1599,1618,1639,1658,1679,1698,1718,1738,1758,1779,1799,1820,1838,1858,1878],"xSR":733.5,"ySR":495.95,"xT1":420.09999999999997,"yT1":0,"xT2":1046.8999999999999,"yT2":0,"toosoon":0,"cond_shown":"Incongruent","ratio_trial":200,"L_num":7,"L_den":15,"R_num":6,"R_den":9,"correct_side":2,"subjID":"angeldavidmorenolopez27","gender":"o","age":"9años","school":"4","test":{"fix_dur":[250,1500],"timestim":1000,"targets_dim":[100,100],"targets_relative_coord":[0.3,0.7],"size_stim":[880,420],"start_dim":[100,100],"size_start":[300,300],"size_fix":60,"samplingrate":20,"img_types":["Congruent","Incongruent"],"ratios":[100,200,300],"rep_conds":19,"nTrials":120,"trials_to_rest":500,"Trials_order":[21,54,84,36,13,72,87,19,46,116,16,93,35,92,2,29,109,103,47,5,14,50,75,57,89,111,95,82,98,10,105,28,11,43,40,56,26,41,23,94,67,69,81,1,9,61,71,22,44,8,86,45,51,58,12,119,65,4,80,110,115,96,0,70,118,112,79,62,73,113,88,18,106,107,55,83,38,60,17,78,63,42,114,68,27,97,100,39,6,33,74,32,34,102,76,30,20,31,66,85,90,117,64,101,52,15,48,99,7,91,49,59,104,53,37,3,24,108,25,77],"cond_shown":["Incongruent","Congruent","Congruent","Congruent","Incongruent","Congruent","Incongruent","Incongruent","Congruent","Congruent","Congruent","Incongruent","Incongruent","Congruent","Congruent","Incongruent","Incongruent","Incongruent","Incongruent","Incongruent","Congruent","Congruent","Incongruent","Incongruent","Incongruent","Incongruent","Incongruent","Congruent","Congruent","Congruent","Incongruent","Congruent","Incongruent","Incongruent","Congruent","Congruent","Congruent","Incongruent","Incongruent","Congruent","Incongruent","Incongruent","Incongruent","Incongruent","Incongruent","Incongruent","Incongruent","Congruent","Congruent","Congruent","Congruent","Incongruent","Incongruent","Congruent","Congruent","Incongruent","Incongruent","Congruent","Congruent","Congruent","Incongruent","Congruent","Congruent","Congruent","Congruent","Congruent","Incongruent","Congruent","Incongruent","Incongruent","Congruent","Congruent","Congruent","Incongruent","Incongruent","Incongruent","Congruent","Congruent","Incongruent","Congruent","Incongruent","Congruent","Congruent","Congruent","Incongruent","Incongruent","Congruent","Incongruent","Congruent","Incongruent","Congruent","Congruent","Congruent","Congruent","Congruent","Congruent","Congruent","Incongruent","Congruent","Incongruent","Congruent","Incongruent","Congruent","Incongruent","Congruent","Incongruent","Congruent","Incongruent","Incongruent","Incongruent","Incongruent","Incongruent","Congruent","Incongruent","Incongruent","Incongruent","Congruent","Congruent","Incongruent","Incongruent"],"ratio_trial":[200,100,100,100,100,100,200,100,300,200,300,200,300,200,200,300,100,100,300,300,200,200,200,200,300,200,300,300,200,300,200,300,300,100,300,200,200,300,300,300,100,200,200,100,200,100,300,300,200,200,200,200,200,300,100,300,300,300,200,200,100,100,100,300,300,300,100,200,100,300,300,100,300,300,100,300,200,100,300,100,200,100,100,200,200,100,300,200,100,200,200,200,300,100,300,100,200,100,100,100,100,200,300,300,300,200,100,200,100,100,100,300,200,300,100,200,100,100,100,300],"left_num":[7,9,1,4,3,10,14,8,5,15,11,4,13,3,21,13,17,10,8,13,7,7,9,3,13,1,4,2,3,5,7,1,4,2,3,20,16,8,13,3,4,7,1,2,4,3,2,24,9,12,3,9,7,8,2,2,4,2,3,12,9,1,15,8,3,5,9,3,6,4,3,11,5,7,6,13,16,7,13,2,7,6,2,7,7,13,1,4,10,3,3,12,3,1,24,6,11,13,9,12,15,4,24,3,4,4,1,7,8,3,6,4,3,1,10,9,10,7,3,1],"right_num":[6,8,3,15,7,3,6,1,6,4,1,1,12,11,2,12,10,9,14,12,18,18,8,11,12,3,2,12,14,7,8,3,2,8,4,9,9,9,12,11,8,14,2,6,1,11,6,2,13,6,14,8,8,10,11,6,6,10,14,6,6,3,13,1,2,6,14,14,3,2,11,4,6,8,11,12,12,9,12,6,6,15,11,2,6,6,11,14,3,1,14,6,4,3,2,5,3,6,8,9,13,6,2,4,13,6,18,12,1,7,11,2,9,2,8,8,3,15,7,3],"left_den":[15,15,2,10,9,25,30,20,25,25,22,30,26,10,30,26,30,25,10,26,15,15,15,4,26,2,20,10,10,25,10,5,20,4,6,25,30,10,26,12,8,10,3,4,30,5,4,30,30,15,10,15,10,15,5,4,5,20,10,15,18,2,25,16,6,25,15,6,12,20,12,22,25,10,10,26,20,14,26,5,15,12,5,21,15,26,5,6,25,10,10,20,6,2,30,20,22,26,15,24,25,5,30,6,20,5,2,10,20,9,10,20,12,2,25,15,25,14,9,2],"right_den":[9,16,5,30,30,10,9,2,12,10,5,3,15,22,4,15,15,18,28,15,27,27,10,20,15,10,4,24,28,14,16,6,4,20,5,15,27,18,15,20,20,28,15,15,3,22,30,4,26,10,28,10,16,12,22,30,12,25,28,10,10,5,26,5,10,12,28,20,5,4,20,10,12,20,22,15,20,15,15,12,9,25,22,15,9,10,22,30,10,2,28,15,5,5,4,25,10,10,16,15,26,10,4,20,26,10,30,24,2,30,22,4,20,10,16,10,10,25,30,15],"correct_side":[2,1,2,2,1,1,2,2,2,1,1,2,2,2,1,2,2,2,1,2,2,2,2,1,2,1,2,2,2,2,1,2,2,1,2,1,1,1,2,2,1,1,1,1,2,1,1,1,2,1,2,2,1,2,2,1,1,2,2,1,2,2,1,1,1,2,1,2,2,2,2,1,2,1,1,2,1,2,2,2,2,2,2,1,2,2,2,1,1,2,2,1,2,2,1,1,1,2,1,2,1,1,1,1,2,1,2,1,2,1,1,2,2,1,2,2,1,2,1,1],"img_shown":["img2/200/Incongruent/R/I_Dist_200_LN_7_LD_15_RN_6_RD_9_1.png","img2/100/Congruent/L/C_Dist_100_LN_9_LD_15_RN_8_RD_16_0.png","img2/100/Congruent/R/C_Dist_100_LN_1_LD_2_RN_3_RD_5_1.png","img2/100/Congruent/R/C_Dist_100_LN_4_LD_10_RN_15_RD_30_1.png","img2/100/Incongruent/L/I_Dist_100_LN_3_LD_9_RN_7_RD_30_0.png","img2/100/Congruent/L/C_Dist_100_LN_10_LD_25_RN_3_RD_10_0.png","img2/200/Incongruent/R/I_Dist_200_LN_14_LD_30_RN_6_RD_9_1.png","img2/100/Incongruent/R/I_Dist_100_LN_8_LD_20_RN_1_RD_2_1.png","img2/300/Congruent/R/C_Dist_300_LN_5_LD_25_RN_6_RD_12_1.png","img2/200/Congruent/L/C_Dist_200_LN_15_LD_25_RN_4_RD_10_0.png","img2/300/Congruent/L/C_Dist_300_LN_11_LD_22_RN_1_RD_5_0.png","img2/200/Incongruent/R/I_Dist_200_LN_4_LD_30_RN_1_RD_3_1.png","img2/300/Incongruent/R/I_Dist_300_LN_13_LD_26_RN_12_RD_15_1.png","img2/200/Congruent/R/C_Dist_200_LN_3_LD_10_RN_11_RD_22_1.png","img2/200/Congruent/L/C_Dist_200_LN_21_LD_30_RN_2_RD_4_0.png","img2/300/Incongruent/R/I_Dist_300_LN_13_LD_26_RN_12_RD_15_1.png","img2/100/Incongruent/R/I_Dist_100_LN_17_LD_30_RN_10_RD_15_1.png","img2/100/Incongruent/R/I_Dist_100_LN_10_LD_25_RN_9_RD_18_1.png","img2/300/Incongruent/L/I_Dist_300_LN_8_LD_10_RN_14_RD_28_0.png","img2/300/Incongruent/R/I_Dist_300_LN_13_LD_26_RN_12_RD_15_1.png","img2/200/Congruent/R/C_Dist_200_LN_7_LD_15_RN_18_RD_27_1.png","img2/200/Congruent/R/C_Dist_200_LN_7_LD_15_RN_18_RD_27_1.png","img2/200/Incongruent/R/I_Dist_200_LN_9_LD_15_RN_8_RD_10_1.png","img2/200/Incongruent/L/I_Dist_200_LN_3_LD_4_RN_11_RD_20_0.png","img2/300/Incongruent/R/I_Dist_300_LN_13_LD_26_RN_12_RD_15_1.png","img2/200/Incongruent/L/I_Dist_200_LN_1_LD_2_RN_3_RD_10_0.png","img2/300/Incongruent/R/I_Dist_300_LN_4_LD_20_RN_2_RD_4_1.png","img2/300/Congruent/R/C_Dist_300_LN_2_LD_10_RN_12_RD_24_1.png","img2/200/Congruent/R/C_Dist_200_LN_3_LD_10_RN_14_RD_28_1.png","img2/300/Congruent/R/C_Dist_300_LN_5_LD_25_RN_7_RD_14_1.png","img2/200/Incongruent/L/I_Dist_200_LN_7_LD_10_RN_8_RD_16_0.png","img2/300/Congruent/R/C_Dist_300_LN_1_LD_5_RN_3_RD_6_1.png","img2/300/Incongruent/R/I_Dist_300_LN_4_LD_20_RN_2_RD_4_1.png","img2/100/Incongruent/L/I_Dist_100_LN_2_LD_4_RN_8_RD_20_0.png","img2/300/Congruent/R/C_Dist_300_LN_3_LD_6_RN_4_RD_5_1.png","img2/200/Congruent/L/C_Dist_200_LN_20_LD_25_RN_9_RD_15_0.png","img2/200/Congruent/L/C_Dist_200_LN_16_LD_30_RN_9_RD_27_0.png","img2/300/Incongruent/L/I_Dist_300_LN_8_LD_10_RN_9_RD_18_0.png","img2/300/Incongruent/R/I_Dist_300_LN_13_LD_26_RN_12_RD_15_1.png","img2/300/Congruent/R/C_Dist_300_LN_3_LD_12_RN_11_RD_20_1.png","img2/100/Incongruent/L/I_Dist_100_LN_4_LD_8_RN_8_RD_20_0.png","img2/200/Incongruent/L/I_Dist_200_LN_7_LD_10_RN_14_RD_28_0.png","img2/200/Incongruent/L/I_Dist_200_LN_1_LD_3_RN_2_RD_15_0.png","img2/100/Incongruent/L/I_Dist_100_LN_2_LD_4_RN_6_RD_15_0.png","img2/200/Incongruent/R/I_Dist_200_LN_4_LD_30_RN_1_RD_3_1.png","img2/100/Incongruent/L/I_Dist_100_LN_3_LD_5_RN_11_RD_22_0.png","img2/300/Incongruent/L/I_Dist_300_LN_2_LD_4_RN_6_RD_30_0.png","img2/300/Congruent/L/C_Dist_300_LN_24_LD_30_RN_2_RD_4_0.png","img2/200/Congruent/R/C_Dist_200_LN_9_LD_30_RN_13_RD_26_1.png","img2/200/Congruent/L/C_Dist_200_LN_12_LD_15_RN_6_RD_10_0.png","img2/200/Congruent/R/C_Dist_200_LN_3_LD_10_RN_14_RD_28_1.png","img2/200/Incongruent/R/I_Dist_200_LN_9_LD_15_RN_8_RD_10_1.png","img2/200/Incongruent/L/I_Dist_200_LN_7_LD_10_RN_8_RD_16_0.png","img2/300/Congruent/R/C_Dist_300_LN_8_LD_15_RN_10_RD_12_1.png","img2/100/Congruent/R/C_Dist_100_LN_2_LD_5_RN_11_RD_22_1.png","img2/300/Incongruent/L/I_Dist_300_LN_2_LD_4_RN_6_RD_30_0.png","img2/300/Incongruent/L/I_Dist_300_LN_4_LD_5_RN_6_RD_12_0.png","img2/300/Congruent/R/C_Dist_300_LN_2_LD_20_RN_10_RD_25_1.png","img2/200/Congruent/R/C_Dist_200_LN_3_LD_10_RN_14_RD_28_1.png","img2/200/Congruent/L/C_Dist_200_LN_12_LD_15_RN_6_RD_10_0.png","img2/100/Incongruent/R/I_Dist_100_LN_9_LD_18_RN_6_RD_10_1.png","img2/100/Congruent/R/C_Dist_100_LN_1_LD_2_RN_3_RD_5_1.png","img2/100/Congruent/L/C_Dist_100_LN_15_LD_25_RN_13_RD_26_0.png","img2/300/Congruent/L/C_Dist_300_LN_8_LD_16_RN_1_RD_5_0.png","img2/300/Congruent/L/C_Dist_300_LN_3_LD_6_RN_2_RD_10_0.png","img2/300/Congruent/R/C_Dist_300_LN_5_LD_25_RN_6_RD_12_1.png","img2/100/Incongruent/L/I_Dist_100_LN_9_LD_15_RN_14_RD_28_0.png","img2/200/Congruent/R/C_Dist_200_LN_3_LD_6_RN_14_RD_20_1.png","img2/100/Incongruent/R/I_Dist_100_LN_6_LD_12_RN_3_RD_5_1.png","img2/300/Incongruent/R/I_Dist_300_LN_4_LD_20_RN_2_RD_4_1.png","img2/300/Congruent/R/C_Dist_300_LN_3_LD_12_RN_11_RD_20_1.png","img2/100/Congruent/L/C_Dist_100_LN_11_LD_22_RN_4_RD_10_0.png","img2/300/Congruent/R/C_Dist_300_LN_5_LD_25_RN_6_RD_12_1.png","img2/300/Incongruent/L/I_Dist_300_LN_7_LD_10_RN_8_RD_20_0.png","img2/100/Incongruent/L/I_Dist_100_LN_6_LD_10_RN_11_RD_22_0.png","img2/300/Incongruent/R/I_Dist_300_LN_13_LD_26_RN_12_RD_15_1.png","img2/200/Congruent/L/C_Dist_200_LN_16_LD_20_RN_12_RD_20_0.png","img2/100/Congruent/R/C_Dist_100_LN_7_LD_14_RN_9_RD_15_1.png","img2/300/Incongruent/R/I_Dist_300_LN_13_LD_26_RN_12_RD_15_1.png","img2/100/Congruent/R/C_Dist_100_LN_2_LD_5_RN_6_RD_12_1.png","img2/200/Incongruent/R/I_Dist_200_LN_7_LD_15_RN_6_RD_9_1.png","img2/100/Congruent/R/C_Dist_100_LN_6_LD_12_RN_15_RD_25_1.png","img2/100/Congruent/R/C_Dist_100_LN_2_LD_5_RN_11_RD_22_1.png","img2/200/Congruent/L/C_Dist_200_LN_7_LD_21_RN_2_RD_15_0.png","img2/200/Incongruent/R/I_Dist_200_LN_7_LD_15_RN_6_RD_9_1.png","img2/100/Incongruent/R/I_Dist_100_LN_13_LD_26_RN_6_RD_10_1.png","img2/300/Congruent/R/C_Dist_300_LN_1_LD_5_RN_11_RD_22_1.png","img2/200/Incongruent/L/I_Dist_200_LN_4_LD_6_RN_14_RD_30_0.png","img2/100/Congruent/L/C_Dist_100_LN_10_LD_25_RN_3_RD_10_0.png","img2/200/Incongruent/R/I_Dist_200_LN_3_LD_10_RN_1_RD_2_1.png","img2/200/Congruent/R/C_Dist_200_LN_3_LD_10_RN_14_RD_28_1.png","img2/200/Congruent/L/C_Dist_200_LN_12_LD_20_RN_6_RD_15_0.png","img2/300/Congruent/R/C_Dist_300_LN_3_LD_6_RN_4_RD_5_1.png","img2/100/Congruent/R/C_Dist_100_LN_1_LD_2_RN_3_RD_5_1.png","img2/300/Congruent/L/C_Dist_300_LN_24_LD_30_RN_2_RD_4_0.png","img2/100/Congruent/L/C_Dist_100_LN_6_LD_20_RN_5_RD_25_0.png","img2/200/Congruent/L/C_Dist_200_LN_11_LD_22_RN_3_RD_10_0.png","img2/100/Incongruent/R/I_Dist_100_LN_13_LD_26_RN_6_RD_10_1.png","img2/100/Congruent/L/C_Dist_100_LN_9_LD_15_RN_8_RD_16_0.png","img2/100/Incongruent/R/I_Dist_100_LN_12_LD_24_RN_9_RD_15_1.png","img2/100/Congruent/L/C_Dist_100_LN_15_LD_25_RN_13_RD_26_0.png","img2/200/Incongruent/L/I_Dist_200_LN_4_LD_5_RN_6_RD_10_0.png","img2/300/Congruent/L/C_Dist_300_LN_24_LD_30_RN_2_RD_4_0.png","img2/300/Incongruent/L/I_Dist_300_LN_3_LD_6_RN_4_RD_20_0.png","img2/300/Congruent/R/C_Dist_300_LN_4_LD_20_RN_13_RD_26_1.png","img2/200/Incongruent/L/I_Dist_200_LN_4_LD_5_RN_6_RD_10_0.png","img2/100/Congruent/R/C_Dist_100_LN_1_LD_2_RN_18_RD_30_1.png","img2/200/Incongruent/L/I_Dist_200_LN_7_LD_10_RN_12_RD_24_0.png","img2/100/Incongruent/R/I_Dist_100_LN_8_LD_20_RN_1_RD_2_1.png","img2/100/Incongruent/L/I_Dist_100_LN_3_LD_9_RN_7_RD_30_0.png","img2/100/Incongruent/L/I_Dist_100_LN_6_LD_10_RN_11_RD_22_0.png","img2/300/Incongruent/R/I_Dist_300_LN_4_LD_20_RN_2_RD_4_1.png","img2/200/Congruent/R/C_Dist_200_LN_3_LD_12_RN_9_RD_20_1.png","img2/300/Incongruent/L/I_Dist_300_LN_1_LD_2_RN_2_RD_10_0.png","img2/100/Incongruent/R/I_Dist_100_LN_10_LD_25_RN_8_RD_16_1.png","img2/200/Incongruent/R/I_Dist_200_LN_9_LD_15_RN_8_RD_10_1.png","img2/100/Congruent/L/C_Dist_100_LN_10_LD_25_RN_3_RD_10_0.png","img2/100/Congruent/R/C_Dist_100_LN_7_LD_14_RN_15_RD_25_1.png","img2/100/Incongruent/L/I_Dist_100_LN_3_LD_9_RN_7_RD_30_0.png","img2/300/Incongruent/L/I_Dist_300_LN_1_LD_2_RN_3_RD_15_0.png"],"dist100_C":[["C_Dist_100_LN_10_LD_25_RN_3_RD_10_0.png","C_Dist_100_LN_11_LD_22_RN_4_RD_10_0.png","C_Dist_100_LN_11_LD_22_RN_6_RD_15_0.png","C_Dist_100_LN_15_LD_25_RN_13_RD_26_0.png","C_Dist_100_LN_3_LD_6_RN_2_RD_5_0.png","C_Dist_100_LN_6_LD_20_RN_5_RD_25_0.png","C_Dist_100_LN_8_LD_16_RN_2_RD_5_0.png","C_Dist_100_LN_9_LD_15_RN_8_RD_16_0.png"],["C_Dist_100_LN_1_LD_2_RN_18_RD_30_1.png","C_Dist_100_LN_1_LD_2_RN_3_RD_5_1.png","C_Dist_100_LN_12_LD_30_RN_13_RD_26_1.png","C_Dist_100_LN_2_LD_5_RN_11_RD_22_1.png","C_Dist_100_LN_2_LD_5_RN_6_RD_12_1.png","C_Dist_100_LN_3_LD_20_RN_4_RD_16_1.png","C_Dist_100_LN_4_LD_10_RN_15_RD_30_1.png","C_Dist_100_LN_4_LD_8_RN_6_RD_10_1.png","C_Dist_100_LN_6_LD_12_RN_15_RD_25_1.png","C_Dist_100_LN_7_LD_14_RN_15_RD_25_1.png","C_Dist_100_LN_7_LD_14_RN_9_RD_15_1.png"]],"dist100_I":[["I_Dist_100_LN_1_LD_2_RN_8_RD_20_0.png","I_Dist_100_LN_2_LD_4_RN_6_RD_15_0.png","I_Dist_100_LN_2_LD_4_RN_8_RD_20_0.png","I_Dist_100_LN_3_LD_5_RN_11_RD_22_0.png","I_Dist_100_LN_3_LD_5_RN_8_RD_16_0.png","I_Dist_100_LN_3_LD_6_RN_4_RD_10_0.png","I_Dist_100_LN_3_LD_9_RN_7_RD_30_0.png","I_Dist_100_LN_4_LD_8_RN_8_RD_20_0.png","I_Dist_100_LN_6_LD_10_RN_11_RD_22_0.png","I_Dist_100_LN_6_LD_10_RN_13_RD_26_0.png","I_Dist_100_LN_6_LD_10_RN_7_RD_14_0.png","I_Dist_100_LN_9_LD_10_RN_20_RD_25_0.png","I_Dist_100_LN_9_LD_15_RN_13_RD_26_0.png","I_Dist_100_LN_9_LD_15_RN_14_RD_28_0.png"],["I_Dist_100_LN_10_LD_25_RN_8_RD_16_1.png","I_Dist_100_LN_10_LD_25_RN_9_RD_18_1.png","I_Dist_100_LN_11_LD_22_RN_9_RD_15_1.png","I_Dist_100_LN_12_LD_24_RN_9_RD_15_1.png","I_Dist_100_LN_12_LD_30_RN_2_RD_4_1.png","I_Dist_100_LN_13_LD_26_RN_12_RD_20_1.png","I_Dist_100_LN_13_LD_26_RN_6_RD_10_1.png","I_Dist_100_LN_17_LD_30_RN_10_RD_15_1.png","I_Dist_100_LN_6_LD_12_RN_3_RD_5_1.png","I_Dist_100_LN_8_LD_16_RN_6_RD_10_1.png","I_Dist_100_LN_8_LD_20_RN_1_RD_2_1.png","I_Dist_100_LN_9_LD_18_RN_6_RD_10_1.png"]],"dist100_S":[["E_Dist_100_LN_2_LD_12_RN_2_RD_30_0.png","E_Dist_100_LN_6_LD_10_RN_6_RD_12_0.png"],["E_Dist_100_LN_6_LD_12_RN_6_RD_10_1.png"]],"dist200_C":[["C_Dist_200_LN_11_LD_22_RN_3_RD_10_0.png","C_Dist_200_LN_12_LD_15_RN_6_RD_10_0.png","C_Dist_200_LN_12_LD_20_RN_6_RD_15_0.png","C_Dist_200_LN_14_LD_28_RN_6_RD_20_0.png","C_Dist_200_LN_15_LD_25_RN_4_RD_10_0.png","C_Dist_200_LN_16_LD_20_RN_12_RD_20_0.png","C_Dist_200_LN_16_LD_30_RN_9_RD_27_0.png","C_Dist_200_LN_20_LD_25_RN_9_RD_15_0.png","C_Dist_200_LN_21_LD_30_RN_2_RD_4_0.png","C_Dist_200_LN_4_LD_10_RN_3_RD_15_0.png","C_Dist_200_LN_4_LD_8_RN_3_RD_10_0.png","C_Dist_200_LN_6_LD_15_RN_3_RD_15_0.png","C_Dist_200_LN_7_LD_21_RN_2_RD_15_0.png","C_Dist_200_LN_8_LD_15_RN_2_RD_6_0.png","C_Dist_200_LN_8_LD_15_RN_3_RD_9_0.png","C_Dist_200_LN_8_LD_15_RN_7_RD_21_0.png","C_Dist_200_LN_9_LD_20_RN_4_RD_16_0.png"],["C_Dist_200_LN_1_LD_2_RN_21_RD_30_1.png","C_Dist_200_LN_13_LD_26_RN_14_RD_20_1.png","C_Dist_200_LN_3_LD_10_RN_11_RD_22_1.png","C_Dist_200_LN_3_LD_10_RN_14_RD_28_1.png","C_Dist_200_LN_3_LD_10_RN_7_RD_14_1.png","C_Dist_200_LN_3_LD_12_RN_9_RD_20_1.png","C_Dist_200_LN_3_LD_6_RN_14_RD_20_1.png","C_Dist_200_LN_5_LD_10_RN_14_RD_20_1.png","C_Dist_200_LN_6_LD_12_RN_7_RD_10_1.png","C_Dist_200_LN_6_LD_20_RN_11_RD_22_1.png","C_Dist_200_LN_7_LD_15_RN_18_RD_27_1.png","C_Dist_200_LN_9_LD_30_RN_13_RD_26_1.png"]],"dist200_I":[["I_Dist_200_LN_1_LD_2_RN_3_RD_10_0.png","I_Dist_200_LN_1_LD_3_RN_2_RD_15_0.png","I_Dist_200_LN_3_LD_4_RN_11_RD_20_0.png","I_Dist_200_LN_4_LD_5_RN_6_RD_10_0.png","I_Dist_200_LN_4_LD_6_RN_14_RD_30_0.png","I_Dist_200_LN_7_LD_10_RN_12_RD_24_0.png","I_Dist_200_LN_7_LD_10_RN_14_RD_28_0.png","I_Dist_200_LN_7_LD_10_RN_8_RD_16_0.png"],["I_Dist_200_LN_11_LD_20_RN_3_RD_4_1.png","I_Dist_200_LN_14_LD_30_RN_12_RD_18_1.png","I_Dist_200_LN_14_LD_30_RN_6_RD_9_1.png","I_Dist_200_LN_3_LD_10_RN_1_RD_2_1.png","I_Dist_200_LN_4_LD_30_RN_1_RD_3_1.png","I_Dist_200_LN_6_LD_20_RN_3_RD_6_1.png","I_Dist_200_LN_7_LD_15_RN_4_RD_6_1.png","I_Dist_200_LN_7_LD_15_RN_6_RD_9_1.png","I_Dist_200_LN_9_LD_15_RN_8_RD_10_1.png"]],"dist200_S":[["E_Dist_200_LN_3_LD_6_RN_3_RD_10_0.png"],["E_Dist_200_LN_3_LD_10_RN_3_RD_6_1.png"]],"dist300_C":[["C_Dist_300_LN_11_LD_22_RN_1_RD_5_0.png","C_Dist_300_LN_11_LD_22_RN_2_RD_10_0.png","C_Dist_300_LN_11_LD_22_RN_4_RD_20_0.png","C_Dist_300_LN_12_LD_24_RN_2_RD_10_0.png","C_Dist_300_LN_18_LD_20_RN_9_RD_15_0.png","C_Dist_300_LN_20_LD_25_RN_13_RD_26_0.png","C_Dist_300_LN_20_LD_25_RN_14_RD_28_0.png","C_Dist_300_LN_20_LD_25_RN_5_RD_10_0.png","C_Dist_300_LN_20_LD_25_RN_8_RD_16_0.png","C_Dist_300_LN_20_LD_25_RN_9_RD_18_0.png","C_Dist_300_LN_24_LD_30_RN_2_RD_4_0.png","C_Dist_300_LN_24_LD_30_RN_8_RD_16_0.png","C_Dist_300_LN_3_LD_6_RN_2_RD_10_0.png","C_Dist_300_LN_4_LD_10_RN_1_RD_10_0.png","C_Dist_300_LN_4_LD_5_RN_2_RD_4_0.png","C_Dist_300_LN_8_LD_16_RN_1_RD_5_0.png","C_Dist_300_LN_9_LD_10_RN_3_RD_5_0.png"],["C_Dist_300_LN_1_LD_20_RN_7_RD_20_1.png","C_Dist_300_LN_1_LD_3_RN_19_RD_30_1.png","C_Dist_300_LN_1_LD_30_RN_8_RD_24_1.png","C_Dist_300_LN_1_LD_5_RN_11_RD_22_1.png","C_Dist_300_LN_1_LD_5_RN_3_RD_6_1.png","C_Dist_300_LN_1_LD_5_RN_6_RD_12_1.png","C_Dist_300_LN_2_LD_10_RN_12_RD_24_1.png","C_Dist_300_LN_2_LD_20_RN_10_RD_25_1.png","C_Dist_300_LN_3_LD_12_RN_11_RD_20_1.png","C_Dist_300_LN_3_LD_6_RN_4_RD_5_1.png","C_Dist_300_LN_4_LD_20_RN_13_RD_26_1.png","C_Dist_300_LN_5_LD_25_RN_6_RD_12_1.png","C_Dist_300_LN_5_LD_25_RN_7_RD_14_1.png","C_Dist_300_LN_7_LD_14_RN_20_RD_25_1.png","C_Dist_300_LN_8_LD_15_RN_10_RD_12_1.png"]],"dist300_I":[["I_Dist_300_LN_1_LD_2_RN_2_RD_10_0.png","I_Dist_300_LN_1_LD_2_RN_3_RD_15_0.png","I_Dist_300_LN_2_LD_4_RN_6_RD_30_0.png","I_Dist_300_LN_3_LD_6_RN_4_RD_20_0.png","I_Dist_300_LN_4_LD_5_RN_6_RD_12_0.png","I_Dist_300_LN_4_LD_5_RN_8_RD_16_0.png","I_Dist_300_LN_7_LD_10_RN_8_RD_20_0.png","I_Dist_300_LN_8_LD_10_RN_14_RD_28_0.png","I_Dist_300_LN_8_LD_10_RN_9_RD_18_0.png"],["I_Dist_300_LN_13_LD_26_RN_12_RD_15_1.png","I_Dist_300_LN_4_LD_20_RN_2_RD_4_1.png"]],"dist300_S":[["E_Dist_300_LN_9_LD_12_RN_9_RD_20_0.png"],["E_Dist_300_LN_18_LD_30_RN_18_RD_20_1.png","E_Dist_300_LN_3_LD_10_RN_3_RD_5_1.png","E_Dist_300_LN_9_LD_20_RN_9_RD_12_1.png"]],"dist500_C":[["C_Dist_500_LN_10_LD_13_RN_7_RD_26_0.png","C_Dist_500_LN_10_LD_15_RN_4_RD_24_0.png","C_Dist_500_LN_12_LD_16_RN_3_RD_12_0.png","C_Dist_500_LN_12_LD_18_RN_4_RD_24_0.png","C_Dist_500_LN_15_LD_18_RN_5_RD_15_0.png","C_Dist_500_LN_15_LD_20_RN_1_RD_4_0.png","C_Dist_500_LN_18_LD_27_RN_1_RD_6_0.png","C_Dist_500_LN_20_LD_24_RN_1_RD_3_0.png","C_Dist_500_LN_20_LD_24_RN_3_RD_9_0.png","C_Dist_500_LN_20_LD_24_RN_7_RD_21_0.png","C_Dist_500_LN_20_LD_28_RN_3_RD_14_0.png","C_Dist_500_LN_21_LD_28_RN_6_RD_24_0.png","C_Dist_500_LN_22_LD_28_RN_2_RD_7_0.png","C_Dist_500_LN_25_LD_30_RN_9_RD_27_0.png","C_Dist_500_LN_4_LD_6_RN_1_RD_6_0.png","C_Dist_500_LN_5_LD_6_RN_2_RD_6_0.png","C_Dist_500_LN_6_LD_9_RN_1_RD_6_0.png","C_Dist_500_LN_7_LD_10_RN_1_RD_5_0.png","C_Dist_500_LN_8_LD_12_RN_1_RD_6_0.png","C_Dist_500_LN_8_LD_12_RN_4_RD_24_0.png"],["C_Dist_500_LN_1_LD_4_RN_12_RD_16_1.png","C_Dist_500_LN_1_LD_4_RN_9_RD_12_1.png","C_Dist_500_LN_1_LD_9_RN_11_RD_18_1.png","C_Dist_500_LN_10_LD_24_RN_22_RD_24_1.png","C_Dist_500_LN_2_LD_12_RN_10_RD_15_1.png","C_Dist_500_LN_2_LD_12_RN_12_RD_18_1.png","C_Dist_500_LN_2_LD_12_RN_4_RD_6_1.png","C_Dist_500_LN_2_LD_24_RN_7_RD_12_1.png","C_Dist_500_LN_2_LD_5_RN_18_RD_20_1.png","C_Dist_500_LN_2_LD_5_RN_9_RD_10_1.png","C_Dist_500_LN_2_LD_8_RN_12_RD_16_1.png","C_Dist_500_LN_2_LD_8_RN_21_RD_28_1.png","C_Dist_500_LN_3_LD_10_RN_4_RD_5_1.png","C_Dist_500_LN_3_LD_12_RN_15_RD_20_1.png","C_Dist_500_LN_3_LD_30_RN_6_RD_10_1.png","C_Dist_500_LN_3_LD_8_RN_14_RD_16_1.png","C_Dist_500_LN_4_LD_16_RN_15_RD_20_1.png","C_Dist_500_LN_4_LD_24_RN_12_RD_18_1.png","C_Dist_500_LN_5_LD_14_RN_6_RD_7_1.png","C_Dist_500_LN_7_LD_21_RN_20_RD_24_1.png","C_Dist_500_LN_7_LD_28_RN_12_RD_16_1.png","C_Dist_500_LN_7_LD_28_RN_9_RD_12_1.png","C_Dist_500_LN_9_LD_27_RN_20_RD_24_1.png"]],"dist500_I":[["I_Dist_500_LN_2_LD_3_RN_4_RD_24_0.png","I_Dist_500_LN_5_LD_6_RN_6_RD_18_0.png","I_Dist_500_LN_7_LD_8_RN_9_RD_24_0.png"],["I_Dist_500_LN_7_LD_21_RN_5_RD_6_1.png"]],"dist500_S":[["E_Dist_500_LN_6_LD_8_RN_6_RD_24_0.png"],["E_Dist_500_LN_2_LD_12_RN_2_RD_3_1.png","E_Dist_500_LN_6_LD_24_RN_6_RD_8_1.png"]]}},{"start_time":1552054119476,"click_time":1552054121238,"finger_time":1552054120438,"fix_duration":577.3313034237095,"trial":1,"RT":962,"MT":800,"sideResp":1,"stimulus":[],"xmouse":[785,785,785,782,782,782,781,781,781,781,781,781,781,781,781,781,781,781,781,781,781,781,781,781,781,781,781,781,781,781,781,781,781,781,781,781,781,781,781,781,781,781,781,781,781,781,774,758,740,718,697,665,645,637,636,636,636,633,629,622,615,610,598,597,593,587,581,570,569,569,566,560,529,498,491,490,490,490,490,490,490,490,490,490,490,490,490,490,486],"ymouse":[520,520,520,518,517,516,516,516,516,516,516,516,516,516,516,516,516,516,516,516,516,516,516,516,516,516,516,516,516,516,516,516,516,516,516,516,516,516,516,516,516,516,516,516,516,516,497,479,456,425,392,337,296,277,274,274,271,265,256,243,231,222,203,200,195,189,182,175,173,173,170,165,139,110,103,103,103,103,103,103,103,103,103,103,103,103,103,102,93],"timestamp_mouse":[11,36,41,61,82,101,122,142,162,182,201,222,242,263,282,301,321,341,361,383,401,422,442,461,483,502,521,541,561,582,602,622,643,662,682,701,722,741,761,783,802,821,842,862,881,901,921,941,962,981,1002,1022,1041,1061,1081,1102,1122,1141,1162,1182,1201,1221,1241,1261,1282,1303,1321,1341,1361,1381,1401,1422,1442,1461,1481,1502,1522,1542,1561,1582,1602,1622,1641,1661,1681,1702,1722,1741,1762],"xSR":733.5,"ySR":464.1,"xT1":420.09999999999997,"yT1":0,"xT2":1046.8999999999999,"yT2":0,"toosoon":0,"cond_shown":"Congruent","ratio_trial":100,"L_num":9,"L_den":15,"R_num":8,"R_den":16,"correct_side":1,"subjID":"angeldavidmorenolopez27","gender":"o","school":"4","age":"9años"},{"start_time":1552054122902,"click_time":1552054124597,"finger_time":1552054124458,"fix_duration":724.473832686699,"trial":2,"RT":1556,"MT":139,"sideResp":2,"stimulus":[],"xmouse":[784,784,784,784,784,784,784,784,784,784,784,784,784,784,784,784,784,784,784,784,784,784,784,784,784,784,784,784,784,784,784,784,784,784,784,784,784,784,784,784,784,784,784,784,784,784,784,784,784,784,784,784,784,784,784,784,784,784,784,784,784,783,772,760,747,747,747,747,747,745,744,744,744,744,744,744,755,765,788,817,903,971,1017,1057,1117],"ymouse":[496,496,496,496,496,496,496,496,496,496,496,496,496,496,496,496,496,496,496,496,496,496,496,496,496,496,496,496,496,496,496,496,496,496,496,496,496,496,496,496,496,496,496,496,496,496,496,496,496,496,496,496,496,496,496,496,496,496,496,496,496,497,494,488,481,481,481,481,480,477,476,476,476,476,476,476,468,464,453,438,373,303,233,175,88],"timestamp_mouse":[29,39,55,77,95,115,135,155,176,197,217,235,256,276,296,315,335,356,376,396,416,436,455,476,495,516,535,556,575,595,617,635,655,675,695,715,735,755,776,795,816,837,855,875,896,915,936,956,975,995,1015,1035,1055,1077,1096,1115,1137,1156,1176,1196,1216,1235,1255,1275,1295,1316,1335,1355,1376,1395,1416,1436,1456,1476,1496,1516,1536,1556,1576,1595,1616,1635,1656,1676,1695],"xSR":733.5,"ySR":464.1,"xT1":420.09999999999997,"yT1":0,"xT2":1046.8999999999999,"yT2":0,"toosoon":0,"cond_shown":"Congruent","ratio_trial":100,"L_num":1,"L_den":2,"R_num":3,"R_den":5,"correct_side":2,"subjID":"angeldavidmorenolopez27","gender":"o","school":"4","age":"9años"},{"start_time":1552054126549,"click_time":1552054128358,"finger_time":1552054127918,"fix_duration":250,"trial":3,"RT":1369,"MT":440,"sideResp":1,"stimulus":[],"xmouse":[772,772,772,772,772,772,772,772,772,772,772,772,772,772,772,772,772,772,772,772,772,772,772,772,772,772,772,772,772,772,772,772,772,772,772,772,772,772,772,772,772,772,772,772,775,776,778,778,778,778,783,788,790,790,790,790,790,790,790,790,790,790,790,790,790,790,790,790,778,756,728,701,661,650,641,636,631,618,618,618,618,618,618,618,597,584,577,574,561,523,488],"ymouse":[506,506,506,506,506,506,506,506,506,506,506,506,506,506,506,506,506,506,506,506,506,506,506,506,506,506,506,506,506,506,506,506,506,506,506,506,506,506,506,506,506,506,506,506,505,503,502,501,501,501,496,488,486,486,486,486,486,486,486,486,486,486,486,486,486,486,486,483,436,381,316,254,164,139,116,100,69,1,1,1,1,1,1,1,0,9,13,15,18,25,25],"timestamp_mouse":[13,36,48,68,89,108,130,149,169,188,209,230,249,269,289,309,329,349,369,389,408,428,449,469,490,510,528,548,568,589,608,628,649,669,689,708,728,749,769,790,808,829,849,868,889,908,929,949,968,988,1009,1028,1048,1068,1088,1108,1130,1149,1168,1189,1208,1229,1248,1269,1289,1309,1328,1348,1369,1388,1408,1428,1449,1468,1488,1508,1528,1548,1568,1588,1609,1629,1649,1668,1689,1708,1728,1748,1768,1788,1809],"xSR":733.5,"ySR":464.1,"xT1":420.09999999999997,"yT1":0,"xT2":1046.8999999999999,"yT2":0,"toosoon":0,"cond_shown":"Congruent","ratio_trial":100,"L_num":4,"L_den":10,"R_num":15,"R_den":30,"correct_side":2,"subjID":"angeldavidmorenolopez27","gender":"o","school":"4","age":"9años"},{"start_time":1552054130505,"click_time":1552054132498,"finger_time":1552054132118,"fix_duration":446.8506997731285,"trial":4,"RT":1613,"MT":380,"sideResp":1,"stimulus":[],"xmouse":[779,779,779,779,779,779,779,779,779,779,779,779,779,779,779,779,779,779,779,779,779,779,779,779,779,779,779,779,779,779,779,779,779,779,779,779,779,779,779,779,779,779,779,779,779,779,779,779,779,779,779,779,779,779,779,779,779,779,779,779,779,779,779,779,779,779,779,779,779,779,779,779,779,779,779,779,779,779,779,768,748,716,684,660,619,595,562,535,510,480,472,469,469,468,468,466,464,464,463,460],"ymouse":[500,500,500,500,500,500,500,500,500,500,500,500,500,500,500,500,500,500,500,500,500,500,500,500,500,500,500,500,500,500,500,500,500,500,500,500,500,500,500,500,500,500,500,500,500,500,500,500,500,500,500,500,500,500,500,500,500,500,500,500,500,500,500,500,500,500,500,500,500,500,500,500,500,500,500,500,500,500,500,481,457,425,397,381,352,334,306,280,253,206,188,176,170,162,152,134,123,115,107,93],"timestamp_mouse":[13,42,53,72,93,113,132,154,173,193,213,233,253,272,292,313,333,353,373,393,413,433,452,473,493,512,534,553,572,592,612,633,653,673,693,712,733,752,773,792,812,833,852,873,892,912,932,952,974,994,1012,1032,1052,1072,1092,1113,1132,1152,1174,1192,1213,1232,1252,1273,1293,1313,1333,1353,1372,1393,1413,1432,1452,1473,1492,1513,1532,1557,1574,1592,1613,1632,1653,1672,1693,1712,1732,1752,1772,1792,1813,1832,1852,1872,1892,1912,1933,1952,1972,1993],"xSR":733.5,"ySR":464.1,"xT1":420.09999999999997,"yT1":0,"xT2":1046.8999999999999,"yT2":0,"toosoon":0,"cond_shown":"Incongruent","ratio_trial":100,"L_num":3,"L_den":9,"R_num":7,"R_den":30,"correct_side":1,"subjID":"angeldavidmorenolopez27","gender":"o","school":"4","age":"9años"},{"start_time":1552054134583,"click_time":1552054135998,"finger_time":1552054135678,"fix_duration":1083.2870005467985,"trial":5,"RT":1095,"MT":320,"sideResp":2,"stimulus":[],"xmouse":[775,775,775,775,775,775,775,775,775,775,775,775,775,775,774,774,773,773,773,773,773,773,773,773,773,773,773,773,773,773,773,773,773,773,773,773,773,773,773,773,773,773,773,773,773,773,775,775,775,775,775,775,780,794,806,832,844,849,854,859,870,879,894,922,953,1014,1049,1067,1081,1092,1105],"ymouse":[489,489,489,489,489,489,489,489,489,489,489,489,489,489,489,489,489,489,489,489,489,489,489,489,489,489,489,489,489,489,489,489,489,489,489,489,489,489,489,489,489,489,489,488,488,488,487,487,487,487,487,486,480,466,455,431,420,415,408,403,385,375,360,335,304,230,180,153,132,115,90],"timestamp_mouse":[22,35,54,74,95,116,134,155,175,194,214,234,254,274,295,314,334,354,375,395,414,434,454,474,494,514,535,554,574,594,614,635,655,674,694,714,735,754,774,794,814,835,860,874,894,914,935,954,975,994,1015,1034,1055,1075,1095,1115,1134,1154,1176,1195,1214,1234,1254,1275,1295,1314,1335,1354,1374,1394,1415],"xSR":733.5,"ySR":464.1,"xT1":420.09999999999997,"yT1":0,"xT2":1046.8999999999999,"yT2":0,"toosoon":0,"cond_shown":"Congruent","ratio_trial":100,"L_num":10,"L_den":25,"R_num":3,"R_den":10,"correct_side":1,"subjID":"angeldavidmorenolopez27","gender":"o","school":"4","age":"9años"},{"start_time":1552054137588,"click_time":1552054138898,"finger_time":1552054138558,"fix_duration":250,"trial":6,"RT":970,"MT":340,"sideResp":1,"stimulus":[],"xmouse":[786,786,786,786,786,786,786,786,786,786,786,786,786,786,786,786,786,786,786,786,786,786,786,786,786,786,786,786,786,786,786,786,786,786,786,786,786,786,786,786,786,786,786,786,786,786,779,754,729,704,672,662,646,626,589,552,485,459,451,449,449,449,449,449,449,449],"ymouse":[515,515,515,515,515,515,515,515,515,515,515,515,515,515,515,515,515,515,515,515,515,515,515,515,515,515,515,515,515,515,515,515,515,515,515,515,515,515,515,515,515,515,515,515,515,515,501,478,460,444,410,391,365,337,292,249,173,142,134,132,132,132,132,131,128,96],"timestamp_mouse":[13,42,49,70,89,110,130,150,169,190,209,230,250,269,290,310,329,349,370,389,410,429,450,470,490,509,530,551,570,590,609,629,649,670,689,710,730,750,769,789,810,829,849,869,891,910,929,949,970,990,1011,1029,1051,1070,1089,1109,1129,1149,1169,1189,1209,1229,1249,1269,1289,1310],"xSR":733.5,"ySR":464.1,"xT1":420.09999999999997,"yT1":0,"xT2":1046.8999999999999,"yT2":0,"toosoon":0,"cond_shown":"Incongruent","ratio_trial":200,"L_num":14,"L_den":30,"R_num":6,"R_den":9,"correct_side":2,"subjID":"angeldavidmorenolopez27","gender":"o","school":"4","age":"9años"},{"start_time":1552054140296,"click_time":1552054142318,"finger_time":1552054140877,"fix_duration":258.3127349039649,"trial":7,"RT":581,"MT":1441,"sideResp":2,"stimulus":[],"xmouse":[795,795,795,795,795,795,795,795,795,795,795,795,795,795,795,795,795,795,795,795,795,799,806,810,811,811,811,811,812,814,830,835,837,837,837,837,837,837,837,837,837,837,833,828,824,814,811,808,804,802,796,793,792,792,791,791,791,791,791,791,791,791,791,791,791,791,791,791,791,791,791,791,791,791,791,786,782,780,780,780,780,780,780,780,780,780,780,780,780,780,779,779,779,778,778,778,778,789,805,855,923,1102],"ymouse":[510,510,510,510,510,510,510,510,510,510,510,510,510,510,510,510,510,510,510,510,510,499,482,473,470,467,467,467,466,461,441,434,430,430,430,430,430,430,430,430,430,429,429,432,436,448,454,459,467,474,487,492,496,499,503,511,517,521,524,525,525,525,525,525,525,525,525,525,525,525,525,525,525,525,525,503,491,484,482,482,482,482,482,482,482,482,482,482,482,482,483,486,487,487,487,487,487,473,451,383,293,53],"timestamp_mouse":[10,36,41,62,83,102,121,141,161,181,201,222,241,262,281,302,321,341,361,382,401,422,441,461,481,502,523,542,561,581,601,621,641,661,682,701,722,742,762,782,802,822,841,862,882,901,921,941,962,982,1002,1021,1041,1062,1081,1101,1121,1141,1162,1183,1202,1221,1241,1262,1281,1301,1322,1341,1361,1381,1401,1422,1442,1461,1481,1501,1521,1541,1561,1583,1601,1622,1641,1662,1681,1702,1722,1742,1762,1782,1801,1822,1841,1862,1882,1901,1922,1941,1961,1982,2002,2022],"xSR":733.5,"ySR":464.1,"xT1":420.09999999999997,"yT1":0,"xT2":1046.8999999999999,"yT2":0,"toosoon":0,"cond_shown":"Incongruent","ratio_trial":100,"L_num":8,"L_den":20,"R_num":1,"R_den":2,"correct_side":2,"subjID":"angeldavidmorenolopez27","gender":"o","school":"4","age":"9años"},{"start_time":1552054145146,"click_time":1552054146498,"finger_time":1552054146198,"fix_duration":1186.6709522088988,"trial":8,"RT":1052,"MT":300,"sideResp":2,"stimulus":[],"xmouse":[783,783,783,783,783,783,783,783,783,783,783,783,783,783,783,783,783,783,783,783,783,783,783,783,783,783,783,783,783,783,783,783,783,783,783,783,783,783,783,783,783,783,783,783,783,783,783,783,800,811,820,829,850,860,875,895,915,944,954,967,975,984,999,1009,1018,1026,1034,1048],"ymouse":[502,502,502,502,502,502,502,502,502,502,502,502,502,502,502,502,502,502,502,502,502,502,502,502,502,502,502,502,502,502,502,502,502,502,502,502,502,502,502,502,502,502,502,502,502,502,502,502,499,494,489,484,442,417,380,332,288,237,219,195,180,166,137,122,106,93,81,64],"timestamp_mouse":[13,39,51,71,91,111,132,152,172,191,212,232,251,272,291,311,333,352,372,392,413,432,452,472,492,511,532,552,571,591,612,632,652,672,692,712,733,752,771,792,811,832,852,872,891,911,932,951,972,991,1012,1032,1052,1071,1091,1111,1131,1152,1171,1191,1212,1232,1251,1271,1291,1311,1331,1352],"xSR":733.5,"ySR":464.1,"xT1":420.09999999999997,"yT1":0,"xT2":1046.8999999999999,"yT2":0,"toosoon":0,"cond_shown":"Congruent","ratio_trial":300,"L_num":5,"L_den":25,"R_num":6,"R_den":12,"correct_side":2,"subjID":"angeldavidmorenolopez27","gender":"o","school":"4","age":"9años"},{"start_time":1552054152453,"click_time":1552054154518,"finger_time":1552054153778,"fix_duration":1433.6387144628939,"trial":9,"RT":1325,"MT":740,"sideResp":1,"stimulus":[],"xmouse":[762,762,762,762,762,762,762,762,762,762,762,762,762,762,762,762,762,762,762,762,762,768,770,770,770,770,770,770,770,770,770,770,770,770,770,770,770,770,770,770,770,770,770,770,770,770,770,770,770,770,770,770,770,770,770,770,770,770,770,770,770,770,770,770,759,748,736,727,724,720,712,699,661,636,624,617,612,602,594,583,574,568,563,562,559,555,545,530,528,526,526,526,526,526,526,526,526,526,526,526,526,526,526,517],"ymouse":[518,518,518,517,517,517,517,517,517,517,517,517,517,517,517,517,517,517,517,517,517,510,508,508,508,508,508,508,508,508,508,508,508,508,508,508,508,508,508,508,508,508,508,508,508,508,508,508,508,508,508,508,508,508,508,508,508,508,508,508,508,508,508,504,481,465,446,429,421,411,392,358,273,227,211,201,193,173,162,147,135,127,121,120,116,110,100,85,83,82,82,82,82,82,82,82,82,82,82,82,82,82,82,79],"timestamp_mouse":[13,24,44,65,85,104,125,144,165,185,205,224,244,265,285,304,324,344,365,385,404,424,444,464,485,504,524,545,565,585,604,626,645,664,685,704,726,744,765,784,805,825,845,865,885,904,926,945,964,985,1005,1024,1046,1066,1085,1105,1125,1144,1164,1184,1204,1224,1244,1265,1284,1305,1325,1344,1364,1384,1404,1424,1445,1464,1484,1504,1524,1544,1564,1584,1604,1625,1644,1664,1684,1705,1725,1744,1764,1785,1804,1825,1845,1864,1885,1905,1925,1946,1965,1984,2005,2024,2045,2065],"xSR":733.5,"ySR":464.1,"xT1":420.09999999999997,"yT1":0,"xT2":1046.8999999999999,"yT2":0,"toosoon":0,"cond_shown":"Congruent","ratio_trial":200,"L_num":15,"L_den":25,"R_num":4,"R_den":10,"correct_side":1,"subjID":"angeldavidmorenolopez27","gender":"o","school":"4","age":"9años"},{"start_time":1552054155889,"click_time":1552054157598,"finger_time":1552054157297,"fix_duration":250,"trial":10,"RT":1408,"MT":301,"sideResp":1,"stimulus":[],"xmouse":[801,801,801,801,801,799,798,796,795,794,788,783,782,782,782,782,782,782,782,782,782,782,782,782,782,782,782,782,782,782,782,782,782,782,782,782,782,782,782,782,782,782,782,782,782,782,782,782,782,782,782,782,782,782,782,782,782,782,782,782,782,782,782,782,782,782,782,782,778,772,746,732,727,725,721,698,676,653,632,614,592,582,564,551,538,520],"ymouse":[533,533,533,534,534,534,534,535,535,534,526,519,517,517,517,517,517,517,517,517,517,517,517,517,517,517,517,517,517,517,517,517,517,517,517,517,517,517,517,517,517,517,517,517,517,517,517,517,517,517,517,517,517,517,517,517,517,517,517,517,517,517,517,517,517,517,517,517,505,489,440,416,408,401,393,350,313,280,252,231,203,187,159,139,119,89],"timestamp_mouse":[12,42,48,68,88,109,128,148,168,189,208,229,250,268,288,309,328,349,369,388,408,428,448,468,489,509,529,548,569,589,608,629,649,669,690,708,729,748,768,788,808,828,848,868,889,909,928,949,968,988,1008,1029,1048,1069,1090,1109,1128,1148,1169,1189,1208,1228,1248,1268,1289,1308,1329,1348,1368,1388,1408,1428,1449,1468,1489,1509,1528,1548,1569,1589,1609,1628,1648,1668,1689,1708],"xSR":733.5,"ySR":464.1,"xT1":420.09999999999997,"yT1":0,"xT2":1046.8999999999999,"yT2":0,"toosoon":0,"cond_shown":"Congruent","ratio_trial":300,"L_num":11,"L_den":22,"R_num":1,"R_den":5,"correct_side":1,"subjID":"angeldavidmorenolopez27","gender":"o","school":"4","age":"9años"},{"start_time":1552054159919,"click_time":1552054161398,"finger_time":1552054160997,"fix_duration":1360.8958552960692,"trial":11,"RT":1078,"MT":401,"sideResp":2,"stimulus":[],"xmouse":[785,785,785,785,785,785,785,785,785,785,785,785,785,785,785,785,785,785,785,785,785,785,785,785,785,785,785,785,785,785,785,785,785,785,785,785,785,785,785,785,785,785,785,785,790,803,815,822,825,825,825,825,829,844,856,868,878,884,889,899,910,919,928,947,956,966,983,1000,1033,1056,1061,1074,1084,1102],"ymouse":[504,504,504,504,504,504,504,504,504,504,504,504,504,504,504,504,504,504,504,504,504,504,504,504,504,504,504,504,504,504,504,504,504,504,504,504,504,504,504,504,504,504,504,504,503,496,489,483,481,481,481,481,478,458,436,413,392,371,352,326,308,297,286,264,254,240,220,198,155,133,129,119,110,88],"timestamp_mouse":[19,43,59,78,99,119,139,158,179,200,219,239,258,278,299,320,339,359,379,398,419,438,459,478,499,519,539,558,579,599,619,639,659,678,699,719,739,759,778,800,819,839,858,879,898,919,938,959,978,999,1018,1039,1058,1078,1098,1118,1138,1159,1178,1199,1218,1238,1258,1278,1298,1318,1338,1358,1378,1398,1419,1438,1459,1479],"xSR":733.5,"ySR":464.1,"xT1":420.09999999999997,"yT1":0,"xT2":1046.8999999999999,"yT2":0,"toosoon":0,"cond_shown":"Incongruent","ratio_trial":200,"L_num":4,"L_den":30,"R_num":1,"R_den":3,"correct_side":2,"subjID":"angeldavidmorenolopez27","gender":"o","school":"4","age":"9años"},{"start_time":1552054162842,"click_time":1552054163898,"finger_time":1552054163737,"fix_duration":522.7821288844702,"trial":12,"RT":895,"MT":161,"sideResp":2,"stimulus":[],"xmouse":[778,778,778,778,778,778,778,778,778,778,778,778,778,778,778,778,778,778,778,778,778,778,778,778,778,778,778,778,778,778,778,778,779,781,783,783,783,783,783,783,783,783,784,787,800,815,834,883,907,934,968,1005,1071],"ymouse":[506,506,506,506,506,506,506,506,506,506,506,506,506,506,506,506,506,506,506,506,506,506,506,506,506,506,506,506,506,506,506,506,505,504,497,492,489,488,488,488,488,488,487,479,454,430,399,325,283,242,195,145,66],"timestamp_mouse":[15,40,55,76,95,116,137,156,176,197,216,235,256,276,295,316,336,355,376,397,417,436,457,475,496,516,536,556,575,596,616,635,655,676,695,715,735,755,777,796,816,835,855,876,895,915,936,955,975,995,1015,1036,1056],"xSR":733.5,"ySR":464.1,"xT1":420.09999999999997,"yT1":0,"xT2":1046.8999999999999,"yT2":0,"toosoon":0,"cond_shown":"Incongruent","ratio_trial":300,"L_num":13,"L_den":26,"R_num":12,"R_den":15,"correct_side":2,"subjID":"angeldavidmorenolopez27","gender":"o","school":"4","age":"9años"},{"start_time":1552054165229,"click_time":1552054166778,"finger_time":1552054166657,"fix_duration":250,"trial":13,"RT":1428,"MT":121,"sideResp":2,"stimulus":[],"xmouse":[774,774,774,774,774,774,774,774,774,774,774,774,774,774,774,774,774,774,774,774,774,774,776,776,776,776,776,776,776,776,776,776,776,776,776,776,776,776,776,776,776,776,776,776,778,788,794,797,797,798,798,798,798,798,798,798,798,798,798,798,798,798,798,798,798,798,798,798,798,806,827,872,935,1076,1110,1117,1119,1124],"ymouse":[514,514,514,514,514,514,514,514,514,514,514,514,514,514,514,514,514,514,514,514,514,514,513,513,513,513,513,513,513,513,513,513,513,513,513,513,513,513,513,513,513,513,513,513,509,500,494,492,492,491,491,491,491,491,491,491,491,491,491,491,491,491,491,491,491,491,491,491,491,489,468,422,346,180,128,115,107,96],"timestamp_mouse":[21,41,48,69,90,108,129,148,169,188,208,229,248,269,288,310,328,349,369,388,408,428,449,469,488,509,530,549,568,589,609,628,648,669,688,710,729,748,769,788,809,830,849,869,888,908,929,949,968,989,1009,1030,1048,1068,1089,1109,1128,1148,1168,1190,1209,1229,1248,1269,1288,1310,1328,1349,1370,1388,1408,1428,1448,1469,1488,1509,1529,1549],"xSR":733.5,"ySR":464.1,"xT1":420.09999999999997,"yT1":0,"xT2":1046.8999999999999,"yT2":0,"toosoon":0,"cond_shown":"Congruent","ratio_trial":200,"L_num":3,"L_den":10,"R_num":11,"R_den":22,"correct_side":2,"subjID":"angeldavidmorenolopez27","gender":"o","school":"4","age":"9años"},{"start_time":1552054169356,"click_time":1552054170637,"finger_time":1552054170537,"fix_duration":1016.9559620863755,"trial":14,"RT":1181,"MT":100,"sideResp":1,"stimulus":[],"xmouse":[768,768,768,768,768,768,768,768,768,768,768,768,768,768,768,768,768,768,768,768,768,768,768,768,768,768,768,768,768,768,768,768,768,768,768,768,768,768,768,768,768,768,768,768,768,768,768,768,768,768,768,768,768,768,768,768,768,768,767,738,691,638,536,506,493],"ymouse":[496,496,496,496,496,496,496,496,496,496,496,496,496,496,496,496,496,496,496,496,496,496,496,496,496,496,496,496,496,496,496,496,496,496,496,496,496,496,496,496,496,496,496,496,496,496,496,496,496,496,496,496,496,496,496,496,496,496,497,462,406,332,173,117,90],"timestamp_mouse":[10,21,42,62,82,103,122,141,162,183,202,222,241,261,281,301,321,341,363,382,402,422,441,462,482,501,521,542,563,582,601,622,641,661,681,702,721,741,763,781,802,823,842,862,881,901,921,942,961,982,1001,1022,1042,1062,1081,1102,1121,1142,1162,1181,1202,1221,1241,1263,1281],"xSR":733.5,"ySR":464.1,"xT1":420.09999999999997,"yT1":0,"xT2":1046.8999999999999,"yT2":0,"toosoon":0,"cond_shown":"Congruent","ratio_trial":200,"L_num":21,"L_den":30,"R_num":2,"R_den":4,"correct_side":1,"subjID":"angeldavidmorenolopez27","gender":"o","school":"4","age":"9años"},{"start_time":1552054172010,"click_time":1552054173517,"finger_time":1552054172898,"fix_duration":250,"trial":15,"RT":888,"MT":619,"sideResp":2,"stimulus":[],"xmouse":[767,767,767,767,767,767,767,767,767,767,767,767,767,767,767,767,767,767,767,767,767,767,767,767,767,767,767,767,767,767,767,767,767,767,767,767,767,767,770,777,779,782,783,786,825,844,889,918,943,974,984,988,993,997,1003,1009,1012,1014,1016,1021,1022,1026,1030,1034,1053,1076,1090,1097,1099,1100,1100,1100,1101,1104,1114,1123],"ymouse":[511,511,511,511,511,511,511,511,511,511,511,511,511,511,511,511,511,511,511,511,511,511,511,511,511,511,511,511,511,511,511,511,511,511,511,511,511,511,510,500,498,496,495,493,464,451,418,394,373,333,316,308,300,292,280,270,265,260,255,243,239,230,220,209,180,157,147,139,130,129,129,129,128,127,114,96],"timestamp_mouse":[13,34,48,67,87,108,129,147,167,188,208,228,247,267,287,307,327,347,368,388,407,428,447,468,487,508,528,548,568,587,608,627,648,667,687,708,728,748,767,788,807,828,848,868,888,908,927,947,968,987,1007,1028,1047,1067,1087,1108,1128,1148,1169,1187,1207,1227,1248,1268,1287,1309,1327,1348,1372,1387,1407,1427,1447,1468,1488,1507],"xSR":733.5,"ySR":464.1,"xT1":420.09999999999997,"yT1":0,"xT2":1046.8999999999999,"yT2":0,"toosoon":0,"cond_shown":"Incongruent","ratio_trial":300,"L_num":13,"L_den":26,"R_num":12,"R_den":15,"correct_side":2,"subjID":"angeldavidmorenolopez27","gender":"o","school":"4","age":"9años"},{"start_time":1552054174878,"click_time":1552054176319,"finger_time":1552054175779,"fix_duration":279.56155217764933,"trial":16,"RT":901,"MT":540,"sideResp":2,"stimulus":[],"xmouse":[779,779,779,779,779,779,779,779,779,779,779,779,779,779,779,779,779,779,779,779,779,779,779,779,779,779,779,779,779,779,779,779,779,779,779,779,779,779,779,779,779,786,809,827,845,876,887,899,909,921,939,946,954,956,959,972,979,987,989,994,1005,1014,1019,1021,1023,1029,1032,1036,1039,1042,1053,1065],"ymouse":[510,510,510,510,510,510,510,510,510,510,510,510,510,510,510,510,510,510,510,510,510,510,510,510,510,510,510,510,510,510,510,510,510,510,510,510,510,510,510,510,510,507,484,466,443,405,390,374,360,344,317,306,292,285,277,250,233,217,208,197,173,154,148,145,142,135,131,125,121,116,103,87],"timestamp_mouse":[19,39,59,80,100,119,141,161,181,201,221,241,260,281,301,321,341,361,380,399,421,441,459,481,500,521,539,561,581,599,620,641,660,679,701,721,740,761,781,800,820,841,860,880,901,920,940,960,980,999,1020,1039,1060,1080,1100,1120,1140,1160,1180,1199,1220,1240,1260,1279,1300,1321,1340,1360,1380,1400,1421,1441],"xSR":733.5,"ySR":464.1,"xT1":420.09999999999997,"yT1":0,"xT2":1046.8999999999999,"yT2":0,"toosoon":0,"cond_shown":"Incongruent","ratio_trial":100,"L_num":17,"L_den":30,"R_num":10,"R_den":15,"correct_side":2,"subjID":"angeldavidmorenolopez27","gender":"o","school":"4","age":"9años"},{"start_time":1552054181387,"click_time":1552054183198,"finger_time":1552054182638,"fix_duration":746.3032463246535,"trial":17,"RT":1251,"MT":560,"sideResp":2,"stimulus":[],"xmouse":[775,775,775,775,775,775,775,775,775,775,775,775,775,775,775,776,778,779,781,782,785,786,788,788,790,792,793,794,794,794,794,794,794,794,795,795,795,795,795,795,795,795,795,795,795,795,795,795,795,795,795,795,795,795,795,795,795,795,795,795,801,807,814,819,822,824,831,849,881,921,1018,1057,1087,1114,1134,1167,1193,1208,1219,1224,1224,1224,1224,1224,1224,1212,1188,1173,1160,1153,1144],"ymouse":[508,508,508,508,508,508,508,508,508,508,508,508,508,508,508,506,505,505,504,502,495,493,491,489,486,483,481,480,479,479,479,479,479,479,479,479,479,479,479,479,479,479,479,479,479,479,479,479,479,479,479,479,479,479,479,479,479,479,479,479,475,469,464,460,457,455,449,431,404,370,297,260,229,195,167,117,78,55,37,25,20,20,20,20,20,22,26,28,30,32,35],"timestamp_mouse":[13,42,51,70,92,112,130,150,171,191,212,231,251,271,291,311,332,352,372,391,411,430,451,470,491,511,532,550,570,591,612,630,651,670,691,712,731,752,771,790,812,832,851,872,892,911,932,952,971,991,1012,1032,1050,1071,1091,1111,1131,1151,1170,1192,1210,1231,1251,1271,1291,1311,1331,1351,1371,1391,1411,1431,1452,1471,1491,1511,1532,1551,1571,1591,1611,1630,1652,1671,1692,1711,1730,1751,1772,1791,1811],"xSR":733.5,"ySR":464.1,"xT1":420.09999999999997,"yT1":0,"xT2":1046.8999999999999,"yT2":0,"toosoon":0,"cond_shown":"Incongruent","ratio_trial":100,"L_num":10,"L_den":25,"R_num":9,"R_den":18,"correct_side":2,"subjID":"angeldavidmorenolopez27","gender":"o","school":"4","age":"9años"},{"start_time":1552054184742,"click_time":1552054186178,"finger_time":1552054185479,"fix_duration":342.0741553093747,"trial":18,"RT":737,"MT":699,"sideResp":1,"stimulus":[],"xmouse":[771,771,771,771,771,771,771,771,771,771,771,771,771,771,771,771,771,771,771,771,771,771,771,771,771,771,771,771,771,771,771,771,771,771,768,748,728,701,694,692,692,692,692,692,692,692,692,692,692,692,692,692,692,692,692,696,696,692,671,640,608,571,526,510,498,487,481,477,477,476,476,476],"ymouse":[522,520,520,520,520,520,520,520,520,520,520,520,520,520,520,520,520,520,520,520,517,516,516,516,516,516,516,516,516,516,516,516,516,516,506,488,471,451,445,444,444,444,444,444,444,444,444,444,444,444,444,444,444,444,442,427,418,389,352,301,254,211,165,152,141,132,126,114,107,103,101,96],"timestamp_mouse":[16,42,57,77,97,116,135,157,177,196,216,237,256,275,297,316,336,355,377,396,415,437,457,476,495,517,537,556,577,595,617,637,656,676,696,716,737,756,776,795,816,836,856,876,896,917,937,956,977,996,1015,1037,1056,1076,1097,1116,1136,1157,1177,1196,1215,1236,1256,1275,1297,1316,1335,1357,1375,1395,1416,1436],"xSR":733.5,"ySR":464.1,"xT1":420.09999999999997,"yT1":0,"xT2":1046.8999999999999,"yT2":0,"toosoon":0,"cond_shown":"Incongruent","ratio_trial":300,"L_num":8,"L_den":10,"R_num":14,"R_den":28,"correct_side":1,"subjID":"angeldavidmorenolopez27","gender":"o","school":"4","age":"9años"},{"start_time":1552054188388,"click_time":1552054189698,"finger_time":1552054189138,"fix_duration":1308.3887489660842,"trial":19,"RT":750,"MT":560,"sideResp":2,"stimulus":[],"xmouse":[785,785,785,785,785,785,785,785,785,785,785,785,785,785,785,785,785,785,785,785,785,785,785,785,785,785,785,785,785,785,785,785,791,795,799,803,808,818,828,838,848,852,855,861,870,889,906,916,929,942,979,998,1012,1023,1031,1042,1049,1057,1061,1064,1068,1072,1076,1082,1090,1097],"ymouse":[511,511,511,512,512,512,512,512,512,512,512,512,512,512,512,512,512,512,512,512,512,512,512,512,512,512,512,512,512,512,512,511,503,499,493,483,473,447,426,404,383,376,369,360,344,314,291,280,268,258,231,216,203,192,181,160,152,140,135,132,126,123,118,112,105,98],"timestamp_mouse":[12,42,51,70,91,110,129,150,171,190,210,230,250,270,290,310,329,351,371,391,410,431,451,471,491,510,531,550,571,590,610,630,651,669,690,710,731,750,770,789,810,830,850,870,891,911,930,950,970,990,1012,1030,1050,1070,1091,1111,1130,1150,1170,1190,1210,1229,1251,1270,1289,1310],"xSR":733.5,"ySR":464.1,"xT1":420.09999999999997,"yT1":0,"xT2":1046.8999999999999,"yT2":0,"toosoon":0,"cond_shown":"Incongruent","ratio_trial":300,"L_num":13,"L_den":26,"R_num":12,"R_den":15,"correct_side":2,"subjID":"angeldavidmorenolopez27","gender":"o","school":"4","age":"9años"},{"start_time":1552054191283,"click_time":1552054192818,"finger_time":1552054192098,"fix_duration":504.11465194994145,"trial":20,"RT":815,"MT":720,"sideResp":2,"stimulus":[],"xmouse":[781,781,781,781,781,781,781,781,781,781,781,781,781,781,781,781,781,781,781,781,781,781,781,781,781,781,781,782,782,783,783,783,783,783,783,783,783,784,788,814,895,906,931,951,966,994,1002,1009,1015,1018,1021,1024,1025,1026,1027,1029,1029,1029,1031,1032,1034,1038,1039,1041,1041,1043,1043,1043,1043,1043,1049,1051,1053,1053,1053,1055,1058],"ymouse":[517,516,516,516,516,516,516,516,516,516,516,516,516,516,515,515,515,515,515,515,515,515,515,515,515,515,515,515,515,514,514,514,514,514,514,514,514,514,510,489,399,389,358,331,307,260,244,236,228,222,215,208,202,196,190,179,174,169,162,156,147,139,136,130,128,126,126,126,126,124,115,110,106,105,105,101,94],"timestamp_mouse":[24,40,54,74,96,116,135,155,175,195,214,235,256,274,295,315,335,356,375,396,415,435,456,476,495,515,535,556,576,596,615,636,655,675,695,715,735,755,775,795,815,835,855,875,895,915,934,955,975,995,1016,1035,1055,1075,1095,1115,1134,1154,1174,1195,1214,1236,1255,1275,1294,1315,1335,1355,1376,1396,1415,1434,1454,1475,1496,1515,1535],"xSR":733.5,"ySR":464.1,"xT1":420.09999999999997,"yT1":0,"xT2":1046.8999999999999,"yT2":0,"toosoon":0,"cond_shown":"Congruent","ratio_trial":200,"L_num":7,"L_den":15,"R_num":18,"R_den":27,"correct_side":2,"subjID":"angeldavidmorenolopez27","gender":"o","school":"4","age":"9años"},{"start_time":1552054194291,"click_time":1552054195738,"finger_time":1552054195098,"fix_duration":250,"trial":21,"RT":807,"MT":640,"sideResp":2,"stimulus":[],"xmouse":[787,787,787,787,787,787,787,787,787,787,787,787,787,787,787,787,787,787,787,787,787,787,787,787,787,787,787,787,787,787,787,787,787,787,787,787,787,787,787,790,849,865,906,920,925,930,934,940,946,952,958,961,964,969,977,1004,1020,1035,1046,1053,1063,1070,1072,1072,1072,1072,1072,1072,1072,1073,1081,1090,1094],"ymouse":[502,502,502,502,502,502,502,502,502,502,502,502,502,502,502,502,502,502,502,502,502,502,502,502,502,502,502,502,502,502,502,502,502,502,502,502,502,502,502,498,434,418,381,369,364,355,348,341,330,322,309,305,298,290,280,242,219,200,187,180,171,164,162,162,162,162,162,162,161,156,129,102,88],"timestamp_mouse":[8,27,46,67,88,108,127,146,167,187,207,226,247,266,288,308,328,347,368,388,407,428,448,468,488,507,527,548,568,587,607,628,648,667,688,708,727,746,767,787,807,827,847,867,887,907,927,947,967,986,1008,1026,1047,1068,1087,1107,1126,1147,1167,1188,1207,1227,1248,1268,1287,1308,1328,1348,1367,1387,1407,1426,1447],"xSR":733.5,"ySR":464.1,"xT1":420.09999999999997,"yT1":0,"xT2":1046.8999999999999,"yT2":0,"toosoon":0,"cond_shown":"Congruent","ratio_trial":200,"L_num":7,"L_den":15,"R_num":18,"R_den":27,"correct_side":2,"subjID":"angeldavidmorenolopez27","gender":"o","school":"4","age":"9años"},{"start_time":1552054197828,"click_time":1552054198978,"finger_time":1552054198658,"fix_duration":1267.604937860985,"trial":22,"RT":830,"MT":320,"sideResp":2,"stimulus":[],"xmouse":[784,784,784,784,784,784,784,784,784,784,784,784,784,784,784,784,784,784,784,784,784,784,784,784,784,784,784,784,784,783,784,784,784,784,784,784,784,784,794,804,825,868,910,957,970,977,984,992,1008,1016,1024,1032,1039,1051,1059,1065,1072,1080],"ymouse":[525,525,525,525,525,525,525,525,525,525,525,525,525,525,525,525,525,525,525,525,525,525,525,525,525,525,525,525,525,522,518,518,518,518,518,518,518,517,506,496,475,429,374,308,286,272,261,245,215,200,185,171,160,140,126,115,103,87],"timestamp_mouse":[12,34,50,71,91,111,129,150,170,191,210,229,251,270,289,310,329,351,369,389,411,429,451,470,490,510,529,551,570,589,611,630,650,669,690,711,731,750,770,789,810,830,850,871,890,910,930,950,971,990,1010,1030,1051,1070,1090,1110,1130,1149],"xSR":733.5,"ySR":464.1,"xT1":420.09999999999997,"yT1":0,"xT2":1046.8999999999999,"yT2":0,"toosoon":0,"cond_shown":"Incongruent","ratio_trial":200,"L_num":9,"L_den":15,"R_num":8,"R_den":10,"correct_side":2,"subjID":"angeldavidmorenolopez27","gender":"o","school":"4","age":"9años"},{"start_time":1552054200539,"click_time":1552054202079,"finger_time":1552054201198,"fix_duration":679.1338421900434,"trial":23,"RT":659,"MT":881,"sideResp":1,"stimulus":[],"xmouse":[761,761,763,765,768,774,779,787,789,789,789,789,789,789,789,789,789,792,801,805,805,805,805,805,805,805,805,805,805,805,806,807,818,821,822,823,823,823,823,823,823,823,823,823,823,823,823,823,823,823,823,823,823,823,823,823,823,824,831,831,829,812,754,722,699,681,673,670,670,670,670,670,667,622,579,525,476],"ymouse":[509,509,506,504,501,497,493,489,488,488,488,488,488,488,488,488,488,486,477,472,472,472,472,472,472,472,472,472,472,472,471,468,448,439,435,433,433,433,433,433,433,433,433,433,433,433,433,433,433,433,433,433,433,433,433,433,431,409,353,304,259,224,162,148,141,139,139,139,138,138,138,138,136,106,81,55,26],"timestamp_mouse":[19,42,60,78,99,119,139,158,180,199,220,240,258,279,300,318,340,359,379,398,420,439,459,479,499,519,539,559,580,599,620,639,659,678,698,719,740,760,779,800,818,839,860,879,899,920,938,959,978,999,1019,1040,1060,1079,1099,1120,1140,1159,1179,1199,1220,1239,1260,1279,1300,1319,1340,1359,1380,1399,1419,1438,1459,1479,1498,1518,1540],"xSR":733.5,"ySR":464.1,"xT1":420.09999999999997,"yT1":0,"xT2":1046.8999999999999,"yT2":0,"toosoon":0,"cond_shown":"Incongruent","ratio_trial":200,"L_num":3,"L_den":4,"R_num":11,"R_den":20,"correct_side":1,"subjID":"angeldavidmorenolopez27","gender":"o","school":"4","age":"9años"},{"start_time":1552054204199,"click_time":1552054205579,"finger_time":1552054205097,"fix_duration":278.6081164891581,"trial":24,"RT":898,"MT":482,"sideResp":2,"stimulus":[],"xmouse":[783,783,783,783,783,783,783,783,783,783,783,783,783,783,783,783,783,783,783,783,783,783,783,783,783,783,783,783,783,783,783,783,783,783,783,783,783,783,783,783,783,783,783,784,786,805,847,880,905,920,940,951,962,972,980,996,1006,1013,1019,1025,1036,1041,1045,1048,1052,1068,1081,1087,1090,1092],"ymouse":[492,492,492,492,492,492,492,492,492,492,492,492,492,492,492,492,492,492,492,492,492,492,492,492,492,492,492,492,492,492,492,492,492,492,492,492,492,492,492,492,492,492,492,491,487,460,409,367,339,318,293,281,273,266,261,248,238,230,223,212,190,182,175,170,166,145,126,113,103,98],"timestamp_mouse":[1,35,40,60,79,98,118,140,160,178,199,220,240,260,279,299,320,340,358,379,399,420,439,460,479,499,520,539,559,580,599,619,640,659,679,700,720,739,760,780,799,820,840,858,880,898,920,939,960,979,999,1019,1039,1059,1080,1099,1118,1139,1159,1179,1199,1219,1238,1258,1279,1299,1319,1339,1359,1380],"xSR":733.5,"ySR":464.1,"xT1":420.09999999999997,"yT1":0,"xT2":1046.8999999999999,"yT2":0,"toosoon":0,"cond_shown":"Incongruent","ratio_trial":300,"L_num":13,"L_den":26,"R_num":12,"R_den":15,"correct_side":2,"subjID":"angeldavidmorenolopez27","gender":"o","school":"4","age":"9años"},{"start_time":1552054207537,"click_time":1552054208938,"finger_time":1552054208378,"fix_duration":877.9005625387748,"trial":25,"RT":841,"MT":560,"sideResp":1,"stimulus":[],"xmouse":[777,777,777,777,777,777,777,777,777,777,777,777,777,777,777,777,777,777,777,777,777,777,777,777,777,777,777,777,777,777,777,777,777,777,777,777,777,777,775,764,759,752,748,741,737,735,733,732,732,732,732,732,732,732,732,732,732,732,732,732,732,732,732,732,723,703,668,624,530,493,459],"ymouse":[496,496,496,496,496,496,496,496,496,496,496,496,496,496,496,496,496,496,496,496,496,496,496,496,496,496,496,496,496,496,496,496,496,496,496,496,496,496,496,481,474,466,462,455,453,451,450,449,448,448,448,448,448,448,448,448,448,448,448,448,448,448,448,448,440,414,369,309,173,121,69],"timestamp_mouse":[11,22,44,61,82,100,120,142,161,182,201,222,241,261,281,300,322,341,360,382,402,421,441,461,482,500,521,542,561,581,601,621,641,661,682,702,722,740,760,781,800,821,841,860,880,901,920,941,961,981,1001,1021,1041,1062,1081,1102,1121,1142,1161,1182,1202,1222,1242,1262,1280,1301,1321,1341,1361,1381,1401],"xSR":733.5,"ySR":464.1,"xT1":420.09999999999997,"yT1":0,"xT2":1046.8999999999999,"yT2":0,"toosoon":0,"cond_shown":"Incongruent","ratio_trial":200,"L_num":1,"L_den":2,"R_num":3,"R_den":10,"correct_side":1,"subjID":"angeldavidmorenolopez27","gender":"o","school":"4","age":"9años"},{"start_time":1552054210511,"click_time":1552054212198,"finger_time":1552054211617,"fix_duration":572.7383242253281,"trial":26,"RT":1106,"MT":581,"sideResp":2,"stimulus":[],"xmouse":[789,788,788,787,786,786,786,786,786,786,786,786,785,785,785,785,784,784,784,782,782,782,782,782,781,781,781,781,781,781,781,781,781,781,781,781,781,781,781,781,781,783,786,790,794,794,794,794,794,794,794,794,797,805,817,822,825,826,827,827,827,827,827,827,827,827,827,827,827,827,827,827,827,827,827,826,822,822,822,822,840,840,899,949,1087],"ymouse":[524,524,524,524,523,523,523,523,523,523,523,523,522,522,522,522,522,522,522,521,521,521,521,521,521,521,521,521,521,521,521,521,521,521,521,521,521,521,521,521,517,511,504,499,494,494,494,494,494,494,494,494,490,479,466,461,456,454,454,454,454,454,454,454,454,454,454,454,454,454,454,454,454,454,454,454,459,459,459,459,432,432,347,276,86],"timestamp_mouse":[13,37,47,67,88,106,128,147,167,188,208,227,247,267,288,308,328,346,367,387,407,428,448,467,487,508,527,546,568,587,606,628,647,666,688,707,728,747,768,787,807,826,848,867,887,908,927,947,967,987,1007,1026,1047,1067,1087,1106,1128,1148,1167,1187,1208,1226,1247,1268,1287,1307,1326,1347,1367,1388,1408,1427,1447,1468,1487,1506,1528,1548,1566,1587,1636,1636,1648,1668,1686],"xSR":733.5,"ySR":464.1,"xT1":420.09999999999997,"yT1":0,"xT2":1046.8999999999999,"yT2":0,"toosoon":0,"cond_shown":"Incongruent","ratio_trial":300,"L_num":4,"L_den":20,"R_num":2,"R_den":4,"correct_side":2,"subjID":"angeldavidmorenolopez27","gender":"o","school":"4","age":"9años"},{"start_time":1552054213666,"click_time":1552054215600,"finger_time":1552054215078,"fix_duration":345.2083122718388,"trial":27,"RT":1412,"MT":522,"sideResp":2,"stimulus":[],"xmouse":[775,775,775,775,775,775,775,775,775,775,775,775,775,775,775,775,775,775,775,775,775,775,775,775,775,775,775,775,775,775,775,775,775,775,775,775,775,775,775,775,775,775,775,775,775,775,775,775,775,775,775,775,775,775,775,775,775,775,775,775,775,775,775,775,775,775,775,775,782,798,815,847,859,881,895,907,951,965,978,989,992,999,1003,1012,1012,1012,1012,1012,1012,1012,1012,1012,1012,1012,1012,1012,1074],"ymouse":[501,501,501,501,501,501,501,501,501,501,501,501,501,501,501,501,501,501,501,501,501,501,501,501,501,501,501,501,501,501,501,501,501,501,501,501,501,501,501,501,501,501,501,501,501,501,501,501,501,501,501,501,501,501,501,501,501,501,501,501,501,501,501,501,501,501,501,501,490,470,447,410,399,375,354,333,240,205,173,135,107,62,38,5,5,5,5,5,5,5,5,5,5,5,5,5,25],"timestamp_mouse":[15,39,51,73,92,111,132,153,171,192,212,231,253,273,291,313,332,352,372,393,412,432,451,472,492,513,532,551,573,591,613,633,653,671,693,712,732,753,772,792,811,832,852,873,891,912,933,951,972,993,1012,1032,1053,1072,1092,1112,1132,1152,1172,1193,1212,1232,1253,1271,1291,1313,1333,1351,1372,1392,1412,1431,1453,1472,1492,1512,1532,1552,1573,1592,1613,1632,1651,1672,1692,1712,1732,1751,1772,1793,1812,1833,1852,1873,1893,1911,1934],"xSR":733.5,"ySR":464.1,"xT1":420.09999999999997,"yT1":0,"xT2":1046.8999999999999,"yT2":0,"toosoon":0,"cond_shown":"Congruent","ratio_trial":300,"L_num":2,"L_den":10,"R_num":12,"R_den":24,"correct_side":2,"subjID":"angeldavidmorenolopez27","gender":"o","school":"4","age":"9años"},{"start_time":1552054218879,"click_time":1552054220679,"finger_time":1552054220217,"fix_duration":879.4167965784126,"trial":28,"RT":1338,"MT":462,"sideResp":2,"stimulus":[],"xmouse":[783,783,783,783,783,782,782,782,781,781,781,781,781,780,780,780,780,780,780,780,780,780,780,780,780,780,780,780,780,780,780,780,780,780,780,780,780,780,780,780,780,780,780,780,780,780,780,780,780,780,780,780,780,780,780,780,785,798,809,816,818,818,818,818,818,823,831,840,854,866,894,912,923,933,944,967,975,982,987,990,993,995,995,995,995,1005,1016,1029,1041,1049],"ymouse":[511,511,511,511,511,511,510,509,508,508,508,508,507,507,506,506,506,506,506,506,506,506,506,506,506,506,506,506,506,506,506,506,506,506,506,506,506,506,506,506,506,506,506,506,506,506,506,506,506,506,506,506,506,506,506,506,502,494,485,479,476,476,476,476,476,468,453,439,419,398,350,318,300,284,265,235,220,207,195,187,173,169,169,169,169,156,142,127,109,94],"timestamp_mouse":[20,40,58,79,98,120,139,160,180,198,218,240,260,278,299,319,339,360,380,398,419,439,458,480,500,519,539,559,580,600,619,639,660,679,699,719,740,760,780,800,819,839,860,879,899,918,938,960,980,999,1019,1040,1060,1078,1100,1118,1138,1159,1179,1199,1219,1240,1259,1278,1300,1319,1338,1359,1379,1399,1419,1439,1459,1478,1498,1519,1539,1560,1579,1600,1619,1639,1659,1678,1698,1719,1739,1760,1779,1800],"xSR":733.5,"ySR":464.1,"xT1":420.09999999999997,"yT1":0,"xT2":1046.8999999999999,"yT2":0,"toosoon":0,"cond_shown":"Congruent","ratio_trial":200,"L_num":3,"L_den":10,"R_num":14,"R_den":28,"correct_side":2,"subjID":"angeldavidmorenolopez27","gender":"o","school":"4","age":"9años"},{"start_time":1552054224291,"click_time":1552054226417,"finger_time":1552054225539,"fix_duration":1211.612731890141,"trial":29,"RT":1248,"MT":878,"sideResp":2,"stimulus":[],"xmouse":[776,776,776,776,776,776,776,776,776,776,776,776,776,776,776,776,776,776,776,776,776,776,776,776,776,776,776,776,776,776,776,776,776,776,776,776,776,776,776,776,776,776,776,776,776,776,776,776,776,776,776,776,776,776,776,776,776,778,784,799,812,833,842,849,858,889,905,918,927,935,943,951,958,969,982,1015,1032,1047,1058,1076,1117,1150,1170,1170,1170,1170,1170,1170,1170,1170,1170,1170,1170,1170,1170,1170,1170,1156,1154,1153,1153,1153,1153,1153,1152,1148,1143],"ymouse":[517,517,517,517,517,517,517,517,517,517,517,517,517,517,517,517,517,517,517,517,517,517,517,517,517,517,517,517,517,517,517,517,517,517,517,517,517,517,517,517,517,517,517,517,517,517,517,517,517,517,517,517,517,517,517,517,517,516,512,497,487,472,464,458,450,424,407,388,375,361,344,328,316,304,290,263,250,236,223,198,127,55,6,6,6,6,6,6,6,6,6,6,6,6,6,6,6,14,22,27,29,29,29,29,30,35,38],"timestamp_mouse":[13,41,47,68,88,108,127,148,167,187,206,226,247,268,287,307,328,348,368,387,408,427,448,468,487,507,528,548,567,587,607,626,647,668,687,707,726,748,768,787,808,828,848,866,886,907,928,946,967,988,1008,1027,1046,1068,1087,1108,1128,1147,1167,1187,1206,1228,1248,1267,1288,1307,1327,1347,1367,1387,1408,1426,1447,1468,1488,1508,1527,1547,1568,1587,1607,1628,1648,1668,1687,1707,1727,1747,1768,1788,1807,1827,1847,1868,1888,1907,1927,1946,1967,1988,2007,2028,2047,2067,2087,2107,2126],"xSR":733.5,"ySR":464.1,"xT1":420.09999999999997,"yT1":0,"xT2":1046.8999999999999,"yT2":0,"toosoon":0,"cond_shown":"Congruent","ratio_trial":300,"L_num":5,"L_den":25,"R_num":7,"R_den":14,"correct_side":2,"subjID":"angeldavidmorenolopez27","gender":"o","school":"4","age":"9años"},{"start_time":1552054229041,"click_time":1552054230518,"finger_time":1552054229997,"fix_duration":1222.1667364640002,"trial":30,"RT":956,"MT":521,"sideResp":2,"stimulus":[],"xmouse":[777,777,777,777,777,777,777,777,777,777,777,777,777,777,777,777,777,777,777,777,777,777,777,777,777,777,777,777,777,777,777,777,777,777,777,777,777,777,777,777,777,777,777,777,780,782,785,790,793,796,801,812,838,853,878,897,914,942,953,962,967,971,977,980,982,988,993,1003,1007,1011,1015,1023,1051,1088],"ymouse":[520,520,520,520,520,520,520,520,520,520,520,520,520,520,520,520,520,520,520,520,520,520,520,520,520,520,520,520,520,520,520,520,520,520,520,520,520,520,520,520,520,520,520,507,491,482,472,458,453,450,443,434,416,403,379,360,340,300,282,263,248,233,206,184,170,156,144,128,124,121,119,117,108,96],"timestamp_mouse":[17,38,57,77,97,117,137,158,177,198,217,238,256,277,298,317,336,356,378,398,416,438,458,478,498,516,538,557,577,598,618,637,656,677,698,718,736,756,778,797,818,837,858,878,896,917,937,956,976,997,1017,1037,1057,1077,1097,1117,1137,1157,1176,1197,1217,1238,1256,1276,1297,1316,1337,1357,1376,1397,1416,1438,1457,1477],"xSR":733.5,"ySR":464.1,"xT1":420.09999999999997,"yT1":0,"xT2":1046.8999999999999,"yT2":0,"toosoon":0,"cond_shown":"Incongruent","ratio_trial":200,"L_num":7,"L_den":10,"R_num":8,"R_den":16,"correct_side":1,"subjID":"angeldavidmorenolopez27","gender":"o","school":"4","age":"9años"},{"start_time":1552054232926,"click_time":1552054234398,"finger_time":1552054234097,"fix_duration":766.2973901608225,"trial":31,"RT":1171,"MT":301,"sideResp":2,"stimulus":[],"xmouse":[786,786,786,786,786,786,786,786,786,786,786,786,786,786,786,786,786,786,786,786,786,786,786,786,786,786,786,786,786,786,786,786,786,786,786,786,786,786,786,786,786,786,786,786,786,786,786,786,786,786,786,786,786,786,786,794,799,809,827,840,849,860,873,909,933,955,979,997,1013,1019,1029,1036,1042,1058],"ymouse":[509,509,509,509,509,509,509,509,509,509,509,509,509,509,509,509,509,509,509,509,509,509,509,509,509,509,509,509,509,509,509,509,509,509,509,509,509,509,509,509,509,509,509,509,509,509,509,509,509,509,509,509,509,509,509,497,491,482,463,446,435,423,408,357,323,284,244,215,177,159,129,105,82,47],"timestamp_mouse":[12,39,53,73,93,112,133,153,173,193,212,231,252,272,291,311,333,353,372,392,411,431,453,472,492,513,533,552,572,593,612,633,652,672,693,713,733,752,773,791,813,833,852,872,893,913,933,952,972,993,1011,1032,1052,1073,1093,1112,1132,1152,1171,1193,1212,1231,1252,1272,1293,1312,1332,1352,1373,1392,1412,1433,1452,1472],"xSR":733.5,"ySR":464.1,"xT1":420.09999999999997,"yT1":0,"xT2":1046.8999999999999,"yT2":0,"toosoon":0,"cond_shown":"Congruent","ratio_trial":300,"L_num":1,"L_den":5,"R_num":3,"R_den":6,"correct_side":2,"subjID":"angeldavidmorenolopez27","gender":"o","school":"4","age":"9años"},{"start_time":1552054235667,"click_time":1552054237498,"finger_time":1552054236997,"fix_duration":328.31819332136627,"trial":32,"RT":1330,"MT":501,"sideResp":2,"stimulus":[],"xmouse":[763,763,763,763,763,763,763,763,763,763,763,763,763,763,763,763,763,763,763,763,763,763,763,763,763,763,763,763,763,763,763,763,763,763,763,763,763,763,763,763,763,763,763,761,760,759,759,759,759,759,759,759,759,759,759,759,759,759,759,759,759,759,759,759,761,770,839,901,952,1000,1043,1104,1149,1189,1220,1236,1252,1253,1253,1253,1253,1253,1253,1253,1250,1246,1211,1192,1175,1164,1156,1144],"ymouse":[529,529,529,529,529,529,529,529,529,529,529,529,529,529,529,529,529,529,529,529,529,529,529,529,529,529,529,529,529,529,529,529,529,529,529,529,529,529,529,529,529,529,514,505,500,498,497,497,497,497,497,497,497,497,497,497,497,497,497,497,497,497,497,497,491,481,421,368,324,282,250,206,164,107,65,46,31,30,30,30,30,30,30,30,30,30,35,39,41,42,43,44],"timestamp_mouse":[21,41,50,71,92,110,130,150,170,192,211,230,252,272,291,311,331,350,371,391,411,430,450,471,490,510,530,550,571,590,611,632,651,671,690,711,730,752,771,791,810,831,852,870,891,910,931,952,971,991,1011,1032,1051,1071,1092,1112,1131,1150,1170,1192,1210,1231,1250,1270,1290,1311,1330,1350,1371,1390,1411,1431,1450,1470,1491,1510,1530,1551,1570,1591,1610,1630,1651,1672,1691,1711,1731,1750,1772,1791,1812,1831],"xSR":733.5,"ySR":464.1,"xT1":420.09999999999997,"yT1":0,"xT2":1046.8999999999999,"yT2":0,"toosoon":0,"cond_shown":"Incongruent","ratio_trial":300,"L_num":4,"L_den":20,"R_num":2,"R_den":4,"correct_side":2,"subjID":"angeldavidmorenolopez27","gender":"o","school":"4","age":"9años"},{"start_time":1552054239327,"click_time":1552054241358,"finger_time":1552054240037,"fix_duration":589.5929697714794,"trial":33,"RT":710,"MT":1321,"sideResp":2,"stimulus":[],"xmouse":[757,756,756,755,755,755,755,755,755,755,755,756,758,763,765,766,767,768,769,769,769,769,769,769,769,769,769,769,769,769,769,769,768,760,755,751,749,748,748,748,748,748,748,747,746,746,746,746,746,746,742,736,729,702,690,678,672,668,665,663,662,662,662,662,662,662,662,662,662,664,677,693,716,759,777,793,800,806,808,812,813,818,830,859,873,888,898,908,929,939,961,975,990,1012,1019,1027,1032,1040,1055,1066,1079,1085],"ymouse":[535,533,533,530,529,529,528,528,525,523,521,519,516,509,508,506,503,499,489,484,481,480,480,480,480,480,480,480,480,480,480,480,476,469,465,464,463,463,463,463,463,463,463,463,463,463,463,463,463,463,461,456,448,419,404,391,384,380,376,373,373,373,373,373,373,373,373,373,373,376,392,412,440,488,502,512,518,522,523,524,524,524,514,483,468,453,433,410,358,334,297,274,252,214,201,191,182,171,144,127,106,94],"timestamp_mouse":[13,38,51,71,92,111,132,150,170,192,210,232,250,271,290,310,330,351,370,392,412,431,450,471,491,511,532,550,571,591,611,631,650,671,690,710,730,750,770,791,811,832,850,870,891,910,931,951,971,990,1011,1030,1051,1070,1090,1110,1130,1150,1170,1191,1210,1231,1252,1271,1292,1310,1331,1350,1371,1391,1410,1431,1451,1471,1491,1512,1530,1550,1571,1592,1610,1630,1650,1671,1690,1711,1731,1750,1771,1791,1810,1830,1851,1871,1890,1910,1930,1950,1970,1991,2010,2031],"xSR":733.5,"ySR":464.1,"xT1":420.09999999999997,"yT1":0,"xT2":1046.8999999999999,"yT2":0,"toosoon":0,"cond_shown":"Incongruent","ratio_trial":100,"L_num":2,"L_den":4,"R_num":8,"R_den":20,"correct_side":1,"subjID":"angeldavidmorenolopez27","gender":"o","school":"4","age":"9años"},{"start_time":1552054243775,"click_time":1552054244977,"finger_time":1552054244518,"fix_duration":1376.640328018066,"trial":34,"RT":743,"MT":459,"sideResp":2,"stimulus":[],"xmouse":[780,780,780,780,780,780,780,780,780,780,780,780,780,780,780,780,780,780,780,780,780,780,780,780,780,777,775,772,771,771,771,771,771,771,771,771,779,787,792,797,799,805,808,813,818,821,823,823,823,823,823,823,823,829,839,851,894,948,987,1027,1051],"ymouse":[555,555,555,555,555,555,555,555,555,555,551,536,524,513,505,501,500,500,500,500,500,500,500,500,500,504,510,517,518,518,518,518,518,518,518,510,486,459,441,423,416,408,404,400,396,391,388,388,388,388,388,388,388,380,366,350,289,212,151,93,48],"timestamp_mouse":[12,22,46,63,83,103,123,144,162,182,203,222,242,263,282,302,322,342,363,384,403,423,444,463,483,503,522,543,562,583,604,622,642,663,684,703,722,743,762,782,802,822,842,862,882,903,922,942,962,982,1004,1023,1042,1062,1083,1102,1122,1144,1162,1183,1202],"xSR":733.5,"ySR":464.1,"xT1":420.09999999999997,"yT1":0,"xT2":1046.8999999999999,"yT2":0,"toosoon":0,"cond_shown":"Congruent","ratio_trial":300,"L_num":3,"L_den":6,"R_num":4,"R_den":5,"correct_side":2,"subjID":"angeldavidmorenolopez27","gender":"o","school":"4","age":"9años"},{"start_time":1552054246010,"click_time":1552054247337,"finger_time":1552054246897,"fix_duration":250,"trial":35,"RT":887,"MT":440,"sideResp":1,"stimulus":[],"xmouse":[791,791,791,791,791,791,791,791,791,791,791,791,791,791,791,791,791,791,791,791,791,791,791,791,791,791,791,791,791,791,791,791,791,791,791,791,791,791,791,791,786,776,760,744,705,677,663,654,646,631,626,620,615,610,598,594,586,583,580,574,569,563,556,549,534,527,517],"ymouse":[523,523,523,523,523,523,523,523,523,523,523,523,523,523,523,523,523,523,523,523,523,523,523,523,523,523,523,523,523,523,523,523,523,523,523,523,523,523,523,523,520,504,485,466,419,384,363,343,324,292,282,272,264,255,233,221,206,198,192,178,167,153,141,128,106,97,86],"timestamp_mouse":[14,39,47,68,87,108,128,147,167,187,208,227,247,268,287,307,328,348,368,388,408,428,447,468,488,507,528,549,568,587,608,627,649,668,688,707,727,748,767,787,807,828,847,867,887,908,927,948,968,987,1007,1028,1047,1067,1088,1108,1127,1147,1168,1187,1207,1228,1248,1267,1288,1308,1327],"xSR":733.5,"ySR":464.1,"xT1":420.09999999999997,"yT1":0,"xT2":1046.8999999999999,"yT2":0,"toosoon":0,"cond_shown":"Congruent","ratio_trial":200,"L_num":20,"L_den":25,"R_num":9,"R_den":15,"correct_side":1,"subjID":"angeldavidmorenolopez27","gender":"o","school":"4","age":"9años"},{"start_time":1552054249611,"click_time":1552054251518,"finger_time":1552054251057,"fix_duration":1313.6885843202217,"trial":36,"RT":1446,"MT":461,"sideResp":1,"stimulus":[],"xmouse":[783,783,783,783,783,783,783,783,783,783,783,783,783,783,783,783,783,783,783,783,783,783,783,783,783,783,783,783,783,783,783,783,783,783,783,783,783,783,783,783,783,783,783,783,783,783,783,783,783,783,783,783,783,783,783,783,783,783,783,783,783,783,783,783,783,783,783,783,783,783,783,776,762,742,686,669,649,642,638,635,633,629,626,619,608,579,556,547,542,535,532,530,528,525,520,511],"ymouse":[510,510,510,510,510,510,510,510,510,510,510,510,510,510,510,510,510,510,510,510,510,510,510,510,510,510,510,510,510,510,510,510,510,510,510,510,510,510,510,510,510,510,510,510,510,510,510,510,510,510,510,510,510,510,510,510,510,510,510,510,510,510,510,510,510,510,510,510,510,510,510,488,461,427,341,320,300,290,286,283,280,275,270,260,245,201,169,156,148,133,129,124,121,115,108,96],"timestamp_mouse":[11,36,47,67,88,106,127,147,166,186,207,227,248,267,286,306,328,347,367,387,407,428,447,467,487,507,527,546,567,587,606,626,647,666,686,707,727,747,768,786,807,827,846,867,887,907,928,947,966,987,1006,1026,1047,1067,1088,1106,1127,1146,1168,1187,1206,1228,1246,1267,1287,1307,1328,1347,1368,1387,1406,1427,1446,1466,1486,1506,1526,1546,1566,1586,1607,1627,1647,1666,1686,1707,1726,1747,1767,1786,1808,1828,1848,1867,1886,1907],"xSR":733.5,"ySR":464.1,"xT1":420.09999999999997,"yT1":0,"xT2":1046.8999999999999,"yT2":0,"toosoon":0,"cond_shown":"Congruent","ratio_trial":200,"L_num":16,"L_den":30,"R_num":9,"R_den":27,"correct_side":1,"subjID":"angeldavidmorenolopez27","gender":"o","school":"4","age":"9años"},{"start_time":1552054253986,"click_time":1552054255278,"finger_time":1552054254937,"fix_duration":1447.8746809353459,"trial":37,"RT":951,"MT":341,"sideResp":1,"stimulus":[],"xmouse":[791,791,791,791,791,791,791,791,791,791,791,791,791,791,791,791,791,791,791,791,791,791,791,791,791,791,791,791,791,791,791,791,791,791,791,791,791,791,791,791,791,791,788,783,777,761,756,751,749,748,747,745,744,741,737,729,718,705,687,661,592,548,505,464,425],"ymouse":[520,520,520,520,520,520,520,520,520,520,520,520,520,520,520,520,520,520,520,520,520,520,520,520,520,520,520,520,520,520,520,520,520,520,520,520,520,520,520,520,520,519,514,506,495,474,467,459,456,456,450,448,444,438,431,418,402,385,363,335,263,218,172,121,76],"timestamp_mouse":[13,44,52,72,91,111,132,153,173,191,212,232,252,273,292,311,333,353,372,393,411,433,452,472,492,511,531,551,572,592,612,633,652,672,693,712,732,753,772,792,811,831,852,871,891,911,932,951,971,991,1013,1031,1052,1072,1092,1112,1131,1151,1172,1191,1211,1231,1253,1272,1292],"xSR":733.5,"ySR":464.1,"xT1":420.09999999999997,"yT1":0,"xT2":1046.8999999999999,"yT2":0,"toosoon":0,"cond_shown":"Incongruent","ratio_trial":300,"L_num":8,"L_den":10,"R_num":9,"R_den":18,"correct_side":1,"subjID":"angeldavidmorenolopez27","gender":"o","school":"4","age":"9años"},{"start_time":1552054257288,"click_time":1552054258598,"finger_time":1552054258118,"fix_duration":407.8619461726645,"trial":38,"RT":830,"MT":480,"sideResp":2,"stimulus":[],"xmouse":[773,773,773,773,773,773,773,773,773,773,773,773,773,773,773,773,773,773,773,773,773,773,773,773,773,773,773,773,773,773,773,773,773,773,773,773,773,773,780,785,809,825,833,840,846,869,891,913,932,948,972,991,1011,1035,1053,1069,1073,1076,1076,1077,1078,1078,1081,1082,1085,1097],"ymouse":[528,528,528,528,528,528,528,528,528,528,528,528,528,528,528,528,528,528,528,528,528,528,528,528,528,528,528,528,528,528,528,528,528,528,528,528,528,528,521,511,478,458,450,444,440,423,407,388,371,354,327,299,271,237,212,176,159,143,138,135,125,120,115,112,106,89],"timestamp_mouse":[13,43,51,71,90,110,130,149,169,190,209,230,250,270,289,310,330,351,370,390,410,429,451,471,490,510,530,549,571,589,609,630,649,671,691,710,730,749,770,789,809,830,849,870,890,910,929,949,969,989,1011,1029,1049,1071,1090,1109,1131,1150,1169,1190,1209,1230,1249,1271,1289,1310],"xSR":733.5,"ySR":464.1,"xT1":420.09999999999997,"yT1":0,"xT2":1046.8999999999999,"yT2":0,"toosoon":0,"cond_shown":"Incongruent","ratio_trial":300,"L_num":13,"L_den":26,"R_num":12,"R_den":15,"correct_side":2,"subjID":"angeldavidmorenolopez27","gender":"o","school":"4","age":"9años"},{"start_time":1552054259804,"click_time":1552054260997,"finger_time":1552054260697,"fix_duration":324.83545360788366,"trial":39,"RT":893,"MT":300,"sideResp":2,"stimulus":[],"xmouse":[745,745,745,745,745,745,745,745,746,758,772,779,780,780,780,780,780,780,780,780,780,780,781,781,781,781,781,781,781,781,781,781,779,777,777,777,777,777,777,777,776,776,789,808,860,878,903,926,950,986,1002,1017,1030,1035,1045,1047,1051,1055,1059,1075],"ymouse":[528,528,528,528,528,528,528,528,528,528,522,520,519,519,519,519,519,519,519,519,519,519,519,519,519,519,519,519,519,519,518,518,518,517,516,516,516,516,516,516,515,510,489,465,403,380,342,311,266,200,176,155,139,131,118,114,110,107,102,85],"timestamp_mouse":[13,43,53,73,93,113,133,153,173,193,213,233,253,273,294,313,334,354,374,395,413,433,454,474,494,514,534,554,573,593,614,635,653,674,693,714,735,753,773,794,814,834,853,874,893,913,933,955,974,994,1013,1033,1053,1074,1093,1114,1135,1154,1175,1193],"xSR":733.5,"ySR":464.1,"xT1":420.09999999999997,"yT1":0,"xT2":1046.8999999999999,"yT2":0,"toosoon":0,"cond_shown":"Congruent","ratio_trial":300,"L_num":3,"L_den":12,"R_num":11,"R_den":20,"correct_side":2,"subjID":"angeldavidmorenolopez27","gender":"o","school":"4","age":"9años"},{"start_time":1552054263670,"click_time":1552054265898,"finger_time":1552054265038,"fix_duration":250,"trial":40,"RT":1368,"MT":860,"sideResp":1,"stimulus":[],"xmouse":[802,802,802,802,802,800,799,797,797,796,796,796,796,796,796,796,795,795,795,795,794,794,794,794,794,794,794,794,794,794,793,790,789,787,785,783,782,781,778,776,773,767,764,764,764,764,764,764,764,764,764,764,764,764,764,764,764,764,763,763,763,763,763,763,763,763,769,779,786,794,806,835,850,873,883,887,888,888,888,888,888,888,888,888,888,888,818,768,735,715,706,703,703,705,707,707,693,682,672,664,654,644,620,595,577,558,525,513,505,499,495,487],"ymouse":[531,531,531,531,531,531,531,531,531,529,528,528,528,528,528,528,527,527,526,525,524,522,522,522,522,522,522,522,522,521,520,515,513,510,508,506,504,503,502,501,500,498,497,497,497,497,497,497,497,497,497,497,497,497,497,497,497,497,494,492,492,492,492,492,492,492,483,472,463,456,446,421,407,388,378,374,372,372,372,372,372,372,372,372,372,371,398,416,421,421,416,385,352,330,307,283,232,211,199,192,187,184,177,170,165,159,145,138,131,124,116,97],"timestamp_mouse":[13,40,48,69,87,109,127,148,168,187,209,228,249,268,287,308,328,348,369,389,408,427,447,467,488,509,527,547,568,587,608,628,648,667,688,707,728,748,768,787,808,827,849,867,888,907,927,948,968,989,1008,1028,1047,1067,1089,1108,1127,1148,1169,1188,1207,1227,1247,1267,1289,1307,1328,1347,1368,1388,1408,1428,1447,1467,1488,1507,1528,1548,1567,1587,1607,1629,1649,1668,1688,1707,1727,1748,1768,1787,1807,1828,1848,1867,1888,1907,1927,1949,1968,1988,2008,2027,2048,2067,2088,2107,2127,2147,2168,2187,2209,2228],"xSR":733.5,"ySR":464.1,"xT1":420.09999999999997,"yT1":0,"xT2":1046.8999999999999,"yT2":0,"toosoon":0,"cond_shown":"Incongruent","ratio_trial":100,"L_num":4,"L_den":8,"R_num":8,"R_den":20,"correct_side":1,"subjID":"angeldavidmorenolopez27","gender":"o","school":"4","age":"9años"},{"start_time":1552054267010,"click_time":1552054268938,"finger_time":1552054268457,"fix_duration":250,"trial":41,"RT":1447,"MT":481,"sideResp":1,"stimulus":[],"xmouse":[784,784,784,784,784,784,784,784,784,784,784,784,784,784,784,784,784,782,782,780,779,779,779,779,778,778,777,777,777,776,776,775,775,774,774,773,770,766,761,760,760,760,760,760,760,760,760,760,760,759,759,762,765,766,768,770,770,771,771,771,771,771,771,771,771,771,771,771,771,771,770,761,743,719,664,631,618,610,604,591,579,570,557,548,538,535,531,529,526,518,514,512,509,507,505,503,502],"ymouse":[520,520,520,520,520,520,520,520,520,520,520,520,520,520,520,520,520,520,520,519,519,518,518,518,518,518,518,518,518,517,517,517,517,517,517,516,514,511,507,506,506,506,506,506,506,506,506,506,506,505,497,490,486,483,479,478,476,475,475,475,475,475,475,475,475,475,475,475,475,475,475,467,449,417,344,307,294,287,282,272,264,256,246,236,219,210,198,189,177,155,146,137,129,121,113,101,98],"timestamp_mouse":[18,44,47,69,87,109,128,148,169,188,208,227,248,268,288,308,329,348,367,387,407,428,448,468,488,508,529,548,567,587,608,628,647,668,687,707,728,747,767,788,808,828,849,867,888,908,927,948,967,988,1007,1027,1047,1069,1088,1109,1127,1148,1168,1187,1207,1228,1249,1268,1288,1307,1328,1347,1367,1388,1408,1428,1447,1469,1488,1507,1527,1548,1567,1588,1607,1627,1648,1668,1688,1707,1727,1748,1767,1787,1808,1827,1848,1867,1887,1908,1928],"xSR":733.5,"ySR":464.1,"xT1":420.09999999999997,"yT1":0,"xT2":1046.8999999999999,"yT2":0,"toosoon":0,"cond_shown":"Incongruent","ratio_trial":200,"L_num":7,"L_den":10,"R_num":14,"R_den":28,"correct_side":1,"subjID":"angeldavidmorenolopez27","gender":"o","school":"4","age":"9años"},{"start_time":1552054270439,"click_time":1552054272698,"finger_time":1552054271958,"fix_duration":659.7904066301913,"trial":42,"RT":1519,"MT":740,"sideResp":1,"stimulus":[],"xmouse":[799,799,798,798,796,795,793,792,790,789,789,789,789,789,789,789,789,789,789,789,788,787,787,787,787,787,787,787,787,786,786,784,783,777,775,771,770,770,770,770,770,769,769,769,769,769,769,769,769,769,769,769,769,769,769,769,769,769,769,769,769,769,769,769,769,769,769,769,767,763,761,757,753,749,740,736,732,728,723,723,723,723,723,723,723,723,723,723,723,723,723,723,723,723,723,723,722,711,692,680,666,659,655,649,645,632,620,603,571,556,542,530,519,502],"ymouse":[525,525,524,524,523,523,523,522,522,521,521,521,521,521,521,521,521,521,521,521,521,521,521,521,521,521,521,521,521,521,521,521,521,521,520,519,519,519,519,519,519,518,518,518,518,518,518,518,518,518,518,518,518,518,518,518,518,518,518,518,518,518,518,518,518,518,518,518,517,512,509,503,499,496,490,486,481,475,467,467,467,467,467,467,467,467,467,467,467,467,467,467,467,467,467,467,465,448,409,379,348,328,315,296,286,262,244,224,186,170,152,138,123,95],"timestamp_mouse":[2,19,38,60,79,99,119,139,158,179,198,219,238,258,279,298,319,339,359,379,399,418,438,459,478,498,519,539,558,579,599,618,640,658,679,698,720,740,758,779,799,819,839,859,878,899,920,940,959,979,998,1020,1038,1059,1080,1100,1119,1139,1159,1180,1198,1218,1240,1259,1278,1299,1319,1339,1359,1379,1398,1419,1440,1458,1479,1499,1519,1538,1559,1580,1598,1619,1638,1660,1679,1699,1719,1740,1760,1780,1800,1819,1839,1858,1879,1898,1919,1940,1959,1978,1998,2018,2039,2059,2079,2098,2120,2138,2159,2178,2199,2219,2239,2259],"xSR":733.5,"ySR":464.1,"xT1":420.09999999999997,"yT1":0,"xT2":1046.8999999999999,"yT2":0,"toosoon":0,"cond_shown":"Incongruent","ratio_trial":200,"L_num":1,"L_den":3,"R_num":2,"R_den":15,"correct_side":1,"subjID":"angeldavidmorenolopez27","gender":"o","school":"4","age":"9años"},{"start_time":1552054274455,"click_time":1552054276778,"finger_time":1552054276397,"fix_duration":935.3946304042588,"trial":43,"RT":1942,"MT":381,"sideResp":1,"stimulus":[],"xmouse":[789,789,789,789,789,789,789,789,789,789,789,789,789,789,789,789,789,789,789,789,789,789,789,789,789,789,789,789,789,789,789,789,789,789,789,789,789,789,789,789,789,789,789,789,789,789,789,789,789,789,789,789,789,789,789,789,789,789,789,789,789,789,789,789,789,789,789,789,789,789,789,789,789,789,789,789,789,789,789,789,789,789,789,789,789,789,789,789,789,789,789,789,789,789,789,789,776,716,676,641,619,607,595,591,587,586,586,583,581,579,576,573,564,551,540,527,512],"ymouse":[521,521,521,521,521,521,521,521,521,521,521,521,521,521,521,521,521,521,521,521,521,521,521,521,521,521,521,521,521,521,521,521,521,521,521,521,521,521,521,521,521,521,521,521,521,521,521,521,521,521,521,521,521,521,521,521,521,521,521,521,521,521,521,521,521,521,521,521,521,521,521,521,521,521,521,521,521,521,521,521,521,521,521,521,521,521,521,521,521,521,521,521,521,521,521,520,507,464,440,420,402,387,341,312,274,255,237,206,193,184,175,168,153,135,124,109,92],"timestamp_mouse":[13,23,44,62,82,102,122,142,163,183,204,223,243,263,284,303,323,342,363,382,402,423,443,462,482,503,523,543,563,584,602,623,643,662,682,702,722,744,763,782,802,823,843,862,882,903,923,943,963,984,1002,1022,1042,1063,1083,1102,1123,1142,1163,1183,1202,1222,1243,1262,1283,1309,1323,1343,1363,1382,1402,1423,1443,1464,1483,1502,1522,1542,1563,1582,1603,1622,1642,1664,1682,1702,1723,1743,1763,1782,1804,1823,1842,1863,1883,1904,1922,1942,1962,1982,2002,2023,2043,2064,2082,2102,2122,2142,2162,2183,2203,2223,2242,2263,2282,2303,2323],"xSR":733.5,"ySR":464.1,"xT1":420.09999999999997,"yT1":0,"xT2":1046.8999999999999,"yT2":0,"toosoon":0,"cond_shown":"Incongruent","ratio_trial":100,"L_num":2,"L_den":4,"R_num":6,"R_den":15,"correct_side":1,"subjID":"angeldavidmorenolopez27","gender":"o","school":"4","age":"9años"},{"start_time":1552054278760,"click_time":1552054280337,"finger_time":1552054279597,"fix_duration":1262.8561058496307,"trial":44,"RT":837,"MT":740,"sideResp":2,"stimulus":[],"xmouse":[777,777,777,777,777,777,777,777,777,777,777,777,777,777,777,777,777,777,777,777,777,777,777,777,777,777,777,777,777,777,777,777,777,777,777,777,777,777,777,776,789,813,816,817,817,817,817,817,817,817,819,838,851,863,872,884,926,944,958,964,970,973,974,975,979,983,991,995,999,1006,1012,1032,1039,1046,1051,1055,1064,1071,1078],"ymouse":[512,512,512,512,512,512,512,512,512,512,512,512,512,512,512,512,512,512,512,512,512,512,512,512,512,512,512,512,512,512,512,512,512,512,512,512,512,512,512,509,489,462,459,458,458,458,458,458,458,458,451,409,388,374,360,345,285,260,241,231,224,221,221,220,217,212,200,192,186,177,169,151,144,135,125,120,109,102,98],"timestamp_mouse":[17,37,59,77,98,118,137,157,177,199,217,237,259,277,299,317,337,357,378,398,417,437,458,478,498,518,537,557,578,598,618,637,657,677,699,717,737,757,778,797,818,837,857,877,898,918,938,957,977,998,1017,1038,1057,1077,1097,1119,1137,1158,1177,1197,1218,1237,1258,1278,1298,1318,1337,1357,1377,1399,1419,1438,1458,1478,1498,1518,1537,1558,1577],"xSR":733.5,"ySR":464.1,"xT1":420.09999999999997,"yT1":0,"xT2":1046.8999999999999,"yT2":0,"toosoon":0,"cond_shown":"Incongruent","ratio_trial":200,"L_num":4,"L_den":30,"R_num":1,"R_den":3,"correct_side":2,"subjID":"angeldavidmorenolopez27","gender":"o","school":"4","age":"9años"},{"start_time":1552054283023,"click_time":1552054284997,"finger_time":1552054284697,"fix_duration":382.40191566937233,"trial":45,"RT":1674,"MT":300,"sideResp":1,"stimulus":[],"xmouse":[777,777,777,777,777,777,777,777,777,777,777,777,777,777,777,777,777,777,777,777,777,777,777,777,777,777,777,777,777,777,777,777,777,777,777,777,777,777,777,777,777,777,777,777,777,777,777,777,777,777,777,777,777,777,777,777,777,777,777,777,777,777,777,777,777,777,777,777,777,777,777,777,774,770,766,765,765,765,765,764,760,751,739,706,690,671,659,646,632,605,593,581,567,534,515,489,472,463,454],"ymouse":[509,509,509,509,509,509,509,509,509,509,509,509,509,509,509,509,509,509,509,509,509,509,509,509,509,509,509,509,509,509,509,509,509,509,509,509,509,509,509,509,509,509,509,509,509,509,509,509,509,509,509,509,509,509,509,509,509,509,509,509,509,509,509,509,509,509,509,509,509,509,509,509,505,500,497,497,497,497,497,496,492,481,466,426,405,375,353,331,305,263,246,231,216,185,171,151,132,115,93],"timestamp_mouse":[21,46,54,75,95,115,136,155,175,194,214,236,254,275,295,316,334,355,375,394,414,435,454,474,495,515,535,556,575,594,615,636,654,674,695,714,736,754,774,795,814,835,856,874,896,914,935,955,974,994,1014,1035,1055,1075,1095,1114,1135,1155,1175,1194,1215,1235,1254,1275,1294,1315,1334,1355,1375,1395,1414,1434,1455,1474,1494,1515,1535,1555,1574,1595,1614,1635,1655,1674,1695,1714,1735,1755,1774,1794,1814,1834,1855,1874,1895,1914,1934,1954,1974],"xSR":733.5,"ySR":464.1,"xT1":420.09999999999997,"yT1":0,"xT2":1046.8999999999999,"yT2":0,"toosoon":0,"cond_shown":"Incongruent","ratio_trial":100,"L_num":3,"L_den":5,"R_num":11,"R_den":22,"correct_side":1,"subjID":"angeldavidmorenolopez27","gender":"o","school":"4","age":"9años"},{"start_time":1552054286319,"click_time":1552054288417,"finger_time":1552054287858,"fix_duration":359.3479538761577,"trial":46,"RT":1539,"MT":559,"sideResp":1,"stimulus":[],"xmouse":[788,788,788,788,788,788,788,788,788,788,788,788,788,788,788,788,788,788,788,788,788,788,788,788,788,788,788,788,788,788,788,788,788,788,788,788,788,788,788,788,788,788,788,788,788,788,788,788,788,788,788,788,788,788,788,788,788,788,788,788,788,788,788,788,788,788,788,788,788,788,788,788,788,788,788,784,761,730,689,617,583,562,544,524,486,475,469,467,465,463,459,456,453,451,447,446,446,444,444,443,443,443,443,443,443,445],"ymouse":[521,521,521,521,521,521,521,521,521,521,521,521,521,521,521,521,521,521,521,521,521,521,521,521,521,521,521,521,521,521,521,521,521,521,521,521,521,521,521,521,521,521,521,521,521,521,521,521,521,521,521,521,521,521,521,521,521,521,521,521,521,521,521,521,521,521,521,521,521,521,521,521,521,521,521,503,475,440,402,342,316,302,287,268,228,216,207,202,198,185,172,160,153,145,136,134,131,129,127,121,116,114,113,110,103,99],"timestamp_mouse":[1,19,42,58,79,99,120,138,158,179,198,219,239,259,279,299,319,338,359,379,399,419,439,458,479,499,518,539,558,578,599,620,638,658,680,698,720,740,758,778,800,820,838,859,879,900,920,938,958,978,998,1019,1039,1058,1078,1100,1118,1138,1159,1178,1198,1219,1239,1258,1278,1299,1320,1339,1358,1378,1398,1419,1438,1458,1478,1498,1518,1539,1559,1578,1599,1618,1639,1659,1678,1698,1718,1738,1758,1779,1799,1818,1840,1859,1878,1898,1918,1938,1959,1978,1999,2018,2040,2060,2078,2098],"xSR":733.5,"ySR":464.1,"xT1":420.09999999999997,"yT1":0,"xT2":1046.8999999999999,"yT2":0,"toosoon":0,"cond_shown":"Incongruent","ratio_trial":300,"L_num":2,"L_den":4,"R_num":6,"R_den":30,"correct_side":1,"subjID":"angeldavidmorenolopez27","gender":"o","school":"4","age":"9años"},{"start_time":1552054289564,"click_time":1552054290598,"finger_time":1552054290318,"fix_duration":345.0428147016923,"trial":47,"RT":754,"MT":280,"sideResp":1,"stimulus":[],"xmouse":[797,794,792,792,792,791,791,791,791,791,790,788,786,785,784,783,782,782,782,782,782,782,782,782,782,782,782,782,782,782,782,782,779,777,772,767,760,732,715,698,672,611,581,559,546,532,517,512,509,507,502,490],"ymouse":[528,524,521,521,521,520,520,520,520,520,520,520,519,519,519,519,518,518,518,518,518,518,518,518,518,518,518,518,518,518,518,518,512,503,492,481,469,429,409,389,363,301,268,241,219,195,159,145,138,129,114,89],"timestamp_mouse":[13,42,54,75,93,114,134,154,173,194,214,234,253,274,293,314,333,354,375,394,413,434,453,473,493,514,534,554,574,594,613,633,653,674,694,714,733,754,773,793,814,834,855,873,894,914,934,953,973,995,1014,1034],"xSR":733.5,"ySR":464.1,"xT1":420.09999999999997,"yT1":0,"xT2":1046.8999999999999,"yT2":0,"toosoon":0,"cond_shown":"Congruent","ratio_trial":300,"L_num":24,"L_den":30,"R_num":2,"R_den":4,"correct_side":1,"subjID":"angeldavidmorenolopez27","gender":"o","school":"4","age":"9años"},{"start_time":1552054293132,"click_time":1552054294638,"finger_time":1552054294258,"fix_duration":1433.3994894400746,"trial":48,"RT":1126,"MT":380,"sideResp":2,"stimulus":[],"xmouse":[777,777,777,777,777,777,777,777,777,777,777,777,777,777,776,774,770,767,766,766,766,766,766,766,766,766,766,766,766,766,766,766,766,766,766,766,766,766,766,766,766,766,766,766,766,766,766,766,766,766,766,766,766,779,789,800,809,818,842,860,872,883,891,919,949,976,996,1006,1014,1015,1015,1015,1018,1044,1056,1067],"ymouse":[525,525,525,525,525,525,525,525,525,525,525,525,525,525,523,520,516,513,513,513,513,513,513,513,513,513,513,513,513,513,513,513,513,513,513,513,513,513,513,513,513,513,513,513,513,513,513,513,513,513,513,513,513,495,483,469,459,451,424,399,382,369,360,322,285,242,205,179,154,153,153,153,150,115,102,88],"timestamp_mouse":[11,40,45,66,87,106,126,146,166,185,207,225,245,265,286,305,326,346,365,386,406,425,445,467,485,505,526,545,566,586,605,626,646,666,685,706,726,745,765,785,806,827,845,865,886,905,926,947,965,985,1006,1027,1045,1065,1085,1106,1126,1146,1165,1186,1205,1227,1246,1265,1287,1306,1326,1347,1366,1386,1406,1426,1446,1466,1486,1506],"xSR":733.5,"ySR":464.1,"xT1":420.09999999999997,"yT1":0,"xT2":1046.8999999999999,"yT2":0,"toosoon":0,"cond_shown":"Congruent","ratio_trial":200,"L_num":9,"L_den":30,"R_num":13,"R_den":26,"correct_side":2,"subjID":"angeldavidmorenolopez27","gender":"o","school":"4","age":"9años"},{"start_time":1552054296285,"click_time":1552054297679,"finger_time":1552054297238,"fix_duration":704.6986897630891,"trial":49,"RT":953,"MT":441,"sideResp":1,"stimulus":[],"xmouse":[786,786,786,786,786,786,786,786,786,786,786,786,786,786,786,786,786,786,786,786,786,786,786,786,786,786,786,786,786,786,786,786,786,786,786,786,786,786,786,785,775,756,746,741,739,737,734,726,715,701,676,658,647,639,633,626,624,621,616,611,596,583,574,566,559,547,540,533,527,519],"ymouse":[512,512,512,512,512,512,512,512,512,512,512,512,512,512,512,512,512,512,512,512,512,512,512,512,512,512,512,512,512,512,512,512,512,512,512,512,512,512,512,512,502,485,478,475,474,473,470,465,457,444,414,380,351,329,309,283,275,266,255,244,217,193,176,158,142,120,109,101,92,84],"timestamp_mouse":[31,33,53,74,94,113,133,153,174,193,213,234,254,272,293,314,333,353,374,394,413,433,453,474,493,513,534,554,573,593,614,634,653,673,693,713,734,753,773,794,812,834,853,873,892,913,933,953,973,994,1015,1033,1053,1074,1093,1113,1134,1153,1174,1194,1213,1234,1253,1273,1294,1313,1333,1353,1374,1394],"xSR":733.5,"ySR":464.1,"xT1":420.09999999999997,"yT1":0,"xT2":1046.8999999999999,"yT2":0,"toosoon":0,"cond_shown":"Congruent","ratio_trial":200,"L_num":12,"L_den":15,"R_num":6,"R_den":10,"correct_side":1,"subjID":"angeldavidmorenolopez27","gender":"o","school":"4","age":"9años"},{"start_time":1552054299576,"click_time":1552054300738,"finger_time":1552054300398,"fix_duration":1116.371905231885,"trial":50,"RT":822,"MT":340,"sideResp":2,"stimulus":[],"xmouse":[792,792,792,792,792,792,792,792,792,792,792,792,792,792,792,792,792,792,792,792,792,792,792,792,792,792,792,792,792,792,792,792,793,793,794,796,802,804,806,807,810,814,826,834,847,860,910,939,962,977,992,1016,1023,1031,1040,1052,1063,1086,1090],"ymouse":[520,520,520,520,520,520,520,520,520,520,520,520,520,520,520,520,520,520,520,520,520,520,520,520,520,520,520,520,520,519,514,500,496,495,493,489,480,475,473,470,466,462,449,441,431,419,368,338,313,293,271,233,221,211,201,185,164,104,85],"timestamp_mouse":[11,33,42,61,83,102,122,142,163,182,202,222,243,263,283,302,322,342,363,382,403,423,441,463,482,502,522,542,562,582,602,622,643,662,682,702,722,742,762,783,802,821,842,862,882,903,923,943,962,982,1002,1022,1042,1063,1083,1103,1122,1142,1161],"xSR":733.5,"ySR":464.1,"xT1":420.09999999999997,"yT1":0,"xT2":1046.8999999999999,"yT2":0,"toosoon":0,"cond_shown":"Congruent","ratio_trial":200,"L_num":3,"L_den":10,"R_num":14,"R_den":28,"correct_side":2,"subjID":"angeldavidmorenolopez27","gender":"o","school":"4","age":"9años"},{"start_time":1552054302406,"click_time":1552054303338,"finger_time":1552054303058,"fix_duration":707.304014678576,"trial":51,"RT":652,"MT":280,"sideResp":2,"stimulus":[],"xmouse":[775,775,775,775,775,775,775,775,775,775,775,775,775,775,775,775,775,775,775,775,775,775,775,775,775,775,775,775,775,777,785,792,800,804,813,824,838,855,878,936,971,1000,1017,1028,1041,1048,1055],"ymouse":[513,513,513,513,513,513,513,513,513,513,513,513,513,513,513,513,513,513,513,513,513,513,513,513,513,513,513,513,513,511,488,465,447,432,408,388,367,345,322,259,222,188,162,143,120,109,97],"timestamp_mouse":[13,40,52,72,93,112,132,152,172,193,212,232,252,272,292,313,333,352,372,392,412,433,452,473,492,513,533,552,572,592,612,632,652,673,693,713,732,752,772,792,811,832,852,873,892,913,932],"xSR":733.5,"ySR":464.1,"xT1":420.09999999999997,"yT1":0,"xT2":1046.8999999999999,"yT2":0,"toosoon":0,"cond_shown":"Incongruent","ratio_trial":200,"L_num":9,"L_den":15,"R_num":8,"R_den":10,"correct_side":2,"subjID":"angeldavidmorenolopez27","gender":"o","school":"4","age":"9años"},{"start_time":1552054305420,"click_time":1552054307198,"finger_time":1552054306878,"fix_duration":920.1270383010537,"trial":52,"RT":1458,"MT":320,"sideResp":1,"stimulus":[],"xmouse":[768,768,768,768,768,768,768,768,768,768,768,768,768,768,768,768,768,768,768,768,768,768,768,768,768,768,768,768,768,768,768,768,768,768,768,769,770,770,770,770,770,770,770,770,770,770,770,770,770,770,770,770,770,770,770,770,770,770,770,770,770,770,770,770,770,770,770,770,770,770,767,761,745,678,633,614,603,597,579,571,563,560,558,556,554,548,542,536,519],"ymouse":[513,513,513,513,513,513,513,513,513,513,513,513,513,513,513,513,513,513,513,513,513,513,513,513,513,513,513,513,513,513,513,513,513,513,513,512,511,511,511,511,511,511,511,511,511,511,511,511,511,511,511,511,511,511,510,510,510,510,510,510,510,510,510,510,510,510,510,510,510,510,496,483,457,375,325,302,275,229,144,125,113,108,106,106,106,104,101,98,90],"timestamp_mouse":[24,40,58,77,99,117,139,158,178,198,219,238,259,278,299,319,338,358,378,398,418,439,458,478,499,519,539,558,578,599,618,638,658,678,698,718,739,758,778,799,818,838,858,878,898,918,938,958,978,998,1018,1038,1059,1079,1098,1119,1139,1159,1178,1199,1219,1238,1258,1279,1298,1319,1339,1358,1378,1398,1419,1439,1458,1479,1498,1518,1538,1558,1578,1599,1618,1639,1659,1678,1699,1718,1737,1758,1777],"xSR":733.5,"ySR":464.1,"xT1":420.09999999999997,"yT1":0,"xT2":1046.8999999999999,"yT2":0,"toosoon":0,"cond_shown":"Incongruent","ratio_trial":200,"L_num":7,"L_den":10,"R_num":8,"R_den":16,"correct_side":1,"subjID":"angeldavidmorenolopez27","gender":"o","school":"4","age":"9años"},{"start_time":1552054308577,"click_time":1552054310038,"finger_time":1552054309678,"fix_duration":776.5206777639329,"trial":53,"RT":1101,"MT":360,"sideResp":2,"stimulus":[],"xmouse":[763,763,763,763,763,763,763,763,763,763,763,763,763,763,763,763,763,763,763,763,763,763,763,763,763,763,763,763,763,763,763,763,763,763,763,763,763,763,763,763,763,763,763,763,763,763,763,763,763,764,765,768,772,777,793,825,910,976,1000,1016,1026,1038,1039,1041,1042,1045,1051,1053,1057,1057,1057,1057,1060,1062],"ymouse":[500,500,500,500,500,500,500,500,500,500,500,500,500,500,500,500,500,500,500,500,501,501,501,501,501,501,501,501,501,501,501,501,501,501,501,501,501,501,501,501,501,501,501,501,501,501,501,501,501,501,501,500,497,495,482,463,417,378,359,344,329,301,289,276,265,250,214,195,171,161,150,124,107,89],"timestamp_mouse":[10,33,41,61,82,101,121,141,161,182,200,222,241,262,282,302,321,342,362,382