[{"start_time":1552308632826,"click_time":1552308635693,"finger_time":1552308634673,"fix_duration":428.0970824330381,"trial":0,"RT":1847,"MT":1020,"sideResp":1,"stimulus":[],"xmouse":[758,758,758,758,758,758,758,758,758,758,758,758,758,758,758,758,758,758,758,758,758,758,758,758,758,758,758,758,758,758,758,758,758,758,758,758,758,758,758,758,758,758,758,758,758,758,758,758,758,758,758,758,758,758,758,758,758,758,758,758,758,758,758,758,758,758,758,758,758,758,758,758,758,758,758,758,758,758,758,758,758,758,758,758,758,758,758,758,758,759,812,837,847,851,851,851,851,851,851,851,854,854,847,837,829,823,815,805,793,773,758,758,761,775,786,786,786,786,786,786,786,785,785,785,785,757,707,663,631,599,578,566,559,554,553,553,552,552,552,552,549,541,531,518],"ymouse":[547,547,547,547,547,547,547,547,547,547,547,547,547,547,547,547,547,547,547,547,547,547,547,547,547,547,547,547,547,547,547,547,547,547,547,547,547,547,547,547,547,547,547,547,547,547,547,547,547,547,547,547,547,547,547,547,547,547,547,547,547,547,547,547,547,547,547,547,547,547,547,547,547,547,547,547,547,547,547,547,547,547,547,547,547,547,547,547,547,545,484,459,447,442,442,442,442,442,442,441,432,425,414,401,392,381,371,361,349,323,244,187,136,89,46,43,43,43,43,43,41,40,40,40,40,44,52,59,61,67,71,75,76,77,77,77,77,77,77,77,77,66,55,41],"timestamp_mouse":[11,43,46,66,87,107,128,148,168,187,207,227,248,267,287,307,328,347,367,386,407,428,447,467,486,507,527,547,566,588,607,627,648,668,687,708,728,747,767,786,806,828,848,867,886,907,927,948,967,987,1008,1028,1046,1067,1087,1107,1128,1148,1167,1187,1207,1226,1247,1267,1288,1307,1327,1347,1368,1387,1407,1427,1447,1468,1488,1508,1527,1546,1567,1587,1608,1627,1647,1666,1688,1708,1727,1748,1768,1787,1806,1827,1847,1867,1886,1906,1927,1947,1967,1986,2006,2028,2047,2068,2088,2106,2126,2146,2167,2186,2207,2227,2247,2267,2287,2307,2326,2347,2367,2388,2406,2426,2447,2467,2487,2506,2528,2548,2567,2588,2606,2627,2648,2667,2688,2706,2727,2747,2766,2786,2807,2827,2847,2867],"xSR":741.5,"ySR":488.8,"xT1":424.9,"yT1":0,"xT2":1058.1,"yT2":0,"toosoon":0,"cond_shown":"Incongruent","ratio_trial":200,"L_num":7,"L_den":15,"R_num":6,"R_den":9,"correct_side":2,"subjID":"sebastianpitagonzalez12","gender":"0","age":"8","school":"4","test":{"fix_dur":[250,1500],"timestim":1000,"targets_dim":[100,100],"targets_relative_coord":[0.3,0.7],"size_stim":[880,420],"start_dim":[100,100],"size_start":[300,300],"size_fix":60,"samplingrate":20,"img_types":["Congruent","Incongruent"],"ratios":[100,200,300],"rep_conds":19,"nTrials":120,"trials_to_rest":500,"Trials_order":[45,71,117,39,67,37,103,99,47,82,113,94,31,41,38,83,17,13,73,25,29,5,40,90,9,74,8,43,116,11,20,53,2,33,78,97,46,34,92,69,24,62,101,52,28,10,72,14,107,19,87,68,1,98,100,65,59,84,44,85,115,61,119,108,63,51,6,49,70,16,80,105,96,57,0,118,114,60,76,12,93,32,15,55,18,30,95,48,3,42,66,111,106,4,112,102,79,26,50,77,86,27,110,104,36,21,7,81,56,88,54,109,64,89,23,58,91,75,35,22],"cond_shown":["Incongruent","Incongruent","Incongruent","Incongruent","Incongruent","Incongruent","Incongruent","Incongruent","Incongruent","Congruent","Incongruent","Congruent","Incongruent","Incongruent","Congruent","Incongruent","Incongruent","Incongruent","Incongruent","Incongruent","Incongruent","Incongruent","Congruent","Congruent","Incongruent","Congruent","Congruent","Incongruent","Congruent","Incongruent","Congruent","Incongruent","Congruent","Incongruent","Congruent","Incongruent","Congruent","Congruent","Congruent","Incongruent","Congruent","Congruent","Incongruent","Congruent","Congruent","Congruent","Congruent","Congruent","Incongruent","Incongruent","Incongruent","Congruent","Incongruent","Congruent","Congruent","Incongruent","Incongruent","Congruent","Congruent","Incongruent","Incongruent","Incongruent","Incongruent","Congruent","Incongruent","Incongruent","Congruent","Incongruent","Congruent","Congruent","Congruent","Incongruent","Congruent","Incongruent","Congruent","Congruent","Congruent","Congruent","Congruent","Congruent","Incongruent","Congruent","Incongruent","Incongruent","Congruent","Congruent","Incongruent","Congruent","Incongruent","Congruent","Congruent","Incongruent","Congruent","Congruent","Congruent","Congruent","Incongruent","Congruent","Congruent","Incongruent","Congruent","Incongruent","Congruent","Congruent","Congruent","Incongruent","Incongruent","Incongruent","Congruent","Congruent","Congruent","Incongruent","Congruent","Incongruent","Incongruent","Congruent","Incongruent","Incongruent","Incongruent","Congruent"],"ratio_trial":[200,300,200,200,100,100,100,200,300,300,300,300,100,300,200,300,300,100,100,100,300,300,300,100,200,200,200,100,200,300,200,300,200,200,100,100,300,300,200,200,100,200,300,300,300,300,100,200,300,100,200,200,100,200,300,300,300,100,200,100,100,100,300,100,200,200,100,100,300,300,200,200,100,200,100,300,100,100,300,100,200,200,200,100,100,100,300,100,200,100,100,200,300,300,300,100,100,200,200,300,200,200,200,200,100,200,100,200,200,300,100,100,300,300,300,300,100,200,300,300],"left_num":[7,1,1,14,10,8,6,3,13,11,4,1,12,1,8,13,3,9,12,1,8,1,1,10,1,3,14,13,16,8,4,4,4,3,7,1,24,4,14,9,15,8,8,8,18,4,15,1,13,6,7,12,1,12,1,2,13,6,3,11,17,3,4,11,11,9,10,6,5,3,4,1,4,6,3,20,2,3,8,15,7,4,11,6,7,4,4,10,9,1,8,14,1,11,1,3,17,4,8,2,5,4,16,6,11,3,12,7,4,8,6,9,4,8,13,1,6,3,4,7],"right_num":[6,2,3,6,8,6,11,1,12,4,6,19,2,2,7,12,4,14,2,8,9,2,8,3,3,11,6,12,9,14,3,6,3,1,9,8,2,1,6,8,13,2,9,1,9,13,13,21,12,7,8,6,8,6,19,6,12,15,11,9,10,4,8,6,3,8,3,7,7,11,3,3,15,3,4,9,6,2,1,13,8,3,3,3,15,15,2,3,8,3,2,6,19,4,7,2,10,3,3,6,14,6,12,11,4,11,9,8,3,10,5,6,2,14,12,8,3,11,6,20],"left_den":[15,2,2,30,25,16,10,10,26,22,5,3,30,2,15,26,6,15,30,2,10,2,30,25,2,10,28,26,30,10,10,5,10,10,14,2,30,10,28,15,25,15,10,16,20,20,25,2,26,10,10,20,2,20,3,4,26,12,10,22,30,6,5,22,20,15,25,10,25,12,10,2,10,20,20,25,5,6,16,25,10,10,20,12,14,10,20,25,15,2,16,30,3,22,20,6,30,8,15,4,10,5,20,20,22,4,24,10,8,15,20,18,5,10,26,30,12,4,5,14],"right_den":[9,10,10,9,16,10,22,2,15,20,12,30,4,10,21,15,20,28,4,20,18,10,24,10,10,22,20,20,27,28,15,12,15,2,15,20,4,10,20,10,26,6,18,5,15,26,26,30,15,14,16,15,20,15,30,30,15,25,22,15,15,10,16,15,4,10,10,14,14,20,15,10,30,6,16,18,12,5,5,26,16,15,4,5,25,30,4,10,10,5,5,9,30,20,20,5,15,10,9,30,20,10,20,22,10,20,15,16,10,12,25,10,4,28,15,24,5,20,12,25],"correct_side":[2,1,1,2,2,2,1,2,2,1,1,2,2,1,1,2,1,1,2,1,1,1,2,1,1,2,1,2,1,1,1,1,1,2,2,1,1,1,1,2,1,1,1,1,1,2,1,2,2,1,1,1,1,1,2,1,2,2,2,2,2,1,1,1,2,2,1,1,2,2,1,1,2,2,2,1,2,1,1,1,1,1,2,2,2,2,2,1,2,2,1,2,2,1,2,1,2,1,1,1,2,1,1,2,1,1,2,1,1,2,1,2,1,1,2,2,2,1,1,2],"img_shown":["img2/200/Incongruent/R/I_Dist_200_LN_7_LD_15_RN_6_RD_9_1.png","img2/300/Incongruent/L/I_Dist_300_LN_1_LD_2_RN_2_RD_10_0.png","img2/200/Incongruent/L/I_Dist_200_LN_1_LD_2_RN_3_RD_10_0.png","img2/200/Incongruent/R/I_Dist_200_LN_14_LD_30_RN_6_RD_9_1.png","img2/100/Incongruent/R/I_Dist_100_LN_10_LD_25_RN_8_RD_16_1.png","img2/100/Incongruent/R/I_Dist_100_LN_8_LD_16_RN_6_RD_10_1.png","img2/100/Incongruent/L/I_Dist_100_LN_6_LD_10_RN_11_RD_22_0.png","img2/200/Incongruent/R/I_Dist_200_LN_3_LD_10_RN_1_RD_2_1.png","img2/300/Incongruent/R/I_Dist_300_LN_13_LD_26_RN_12_RD_15_1.png","img2/300/Congruent/L/C_Dist_300_LN_11_LD_22_RN_4_RD_20_0.png","img2/300/Incongruent/L/I_Dist_300_LN_4_LD_5_RN_6_RD_12_0.png","img2/300/Congruent/R/C_Dist_300_LN_1_LD_3_RN_19_RD_30_1.png","img2/100/Incongruent/R/I_Dist_100_LN_12_LD_30_RN_2_RD_4_1.png","img2/300/Incongruent/L/I_Dist_300_LN_1_LD_2_RN_2_RD_10_0.png","img2/200/Congruent/L/C_Dist_200_LN_8_LD_15_RN_7_RD_21_0.png","img2/300/Incongruent/R/I_Dist_300_LN_13_LD_26_RN_12_RD_15_1.png","img2/300/Incongruent/L/I_Dist_300_LN_3_LD_6_RN_4_RD_20_0.png","img2/100/Incongruent/L/I_Dist_100_LN_9_LD_15_RN_14_RD_28_0.png","img2/100/Incongruent/R/I_Dist_100_LN_12_LD_30_RN_2_RD_4_1.png","img2/100/Incongruent/L/I_Dist_100_LN_1_LD_2_RN_8_RD_20_0.png","img2/300/Incongruent/L/I_Dist_300_LN_8_LD_10_RN_9_RD_18_0.png","img2/300/Incongruent/L/I_Dist_300_LN_1_LD_2_RN_2_RD_10_0.png","img2/300/Congruent/R/C_Dist_300_LN_1_LD_30_RN_8_RD_24_1.png","img2/100/Congruent/L/C_Dist_100_LN_10_LD_25_RN_3_RD_10_0.png","img2/200/Incongruent/L/I_Dist_200_LN_1_LD_2_RN_3_RD_10_0.png","img2/200/Congruent/R/C_Dist_200_LN_3_LD_10_RN_11_RD_22_1.png","img2/200/Congruent/L/C_Dist_200_LN_14_LD_28_RN_6_RD_20_0.png","img2/100/Incongruent/R/I_Dist_100_LN_13_LD_26_RN_12_RD_20_1.png","img2/200/Congruent/L/C_Dist_200_LN_16_LD_30_RN_9_RD_27_0.png","img2/300/Incongruent/L/I_Dist_300_LN_8_LD_10_RN_14_RD_28_0.png","img2/200/Congruent/L/C_Dist_200_LN_4_LD_10_RN_3_RD_15_0.png","img2/300/Incongruent/L/I_Dist_300_LN_4_LD_5_RN_6_RD_12_0.png","img2/200/Congruent/L/C_Dist_200_LN_4_LD_10_RN_3_RD_15_0.png","img2/200/Incongruent/R/I_Dist_200_LN_3_LD_10_RN_1_RD_2_1.png","img2/100/Congruent/R/C_Dist_100_LN_7_LD_14_RN_9_RD_15_1.png","img2/100/Incongruent/L/I_Dist_100_LN_1_LD_2_RN_8_RD_20_0.png","img2/300/Congruent/L/C_Dist_300_LN_24_LD_30_RN_2_RD_4_0.png","img2/300/Congruent/L/C_Dist_300_LN_4_LD_10_RN_1_RD_10_0.png","img2/200/Congruent/L/C_Dist_200_LN_14_LD_28_RN_6_RD_20_0.png","img2/200/Incongruent/R/I_Dist_200_LN_9_LD_15_RN_8_RD_10_1.png","img2/100/Congruent/L/C_Dist_100_LN_15_LD_25_RN_13_RD_26_0.png","img2/200/Congruent/L/C_Dist_200_LN_8_LD_15_RN_2_RD_6_0.png","img2/300/Incongruent/L/I_Dist_300_LN_8_LD_10_RN_9_RD_18_0.png","img2/300/Congruent/L/C_Dist_300_LN_8_LD_16_RN_1_RD_5_0.png","img2/300/Congruent/L/C_Dist_300_LN_18_LD_20_RN_9_RD_15_0.png","img2/300/Congruent/R/C_Dist_300_LN_4_LD_20_RN_13_RD_26_1.png","img2/100/Congruent/L/C_Dist_100_LN_15_LD_25_RN_13_RD_26_0.png","img2/200/Congruent/R/C_Dist_200_LN_1_LD_2_RN_21_RD_30_1.png","img2/300/Incongruent/R/I_Dist_300_LN_13_LD_26_RN_12_RD_15_1.png","img2/100/Incongruent/L/I_Dist_100_LN_6_LD_10_RN_7_RD_14_0.png","img2/200/Incongruent/L/I_Dist_200_LN_7_LD_10_RN_8_RD_16_0.png","img2/200/Congruent/L/C_Dist_200_LN_12_LD_20_RN_6_RD_15_0.png","img2/100/Incongruent/L/I_Dist_100_LN_1_LD_2_RN_8_RD_20_0.png","img2/200/Congruent/L/C_Dist_200_LN_12_LD_20_RN_6_RD_15_0.png","img2/300/Congruent/R/C_Dist_300_LN_1_LD_3_RN_19_RD_30_1.png","img2/300/Incongruent/L/I_Dist_300_LN_2_LD_4_RN_6_RD_30_0.png","img2/300/Incongruent/R/I_Dist_300_LN_13_LD_26_RN_12_RD_15_1.png","img2/100/Congruent/R/C_Dist_100_LN_6_LD_12_RN_15_RD_25_1.png","img2/200/Congruent/R/C_Dist_200_LN_3_LD_10_RN_11_RD_22_1.png","img2/100/Incongruent/R/I_Dist_100_LN_11_LD_22_RN_9_RD_15_1.png","img2/100/Incongruent/R/I_Dist_100_LN_17_LD_30_RN_10_RD_15_1.png","img2/100/Incongruent/L/I_Dist_100_LN_3_LD_6_RN_4_RD_10_0.png","img2/300/Incongruent/L/I_Dist_300_LN_4_LD_5_RN_8_RD_16_0.png","img2/100/Congruent/L/C_Dist_100_LN_11_LD_22_RN_6_RD_15_0.png","img2/200/Incongruent/R/I_Dist_200_LN_11_LD_20_RN_3_RD_4_1.png","img2/200/Incongruent/R/I_Dist_200_LN_9_LD_15_RN_8_RD_10_1.png","img2/100/Congruent/L/C_Dist_100_LN_10_LD_25_RN_3_RD_10_0.png","img2/100/Incongruent/L/I_Dist_100_LN_6_LD_10_RN_7_RD_14_0.png","img2/300/Congruent/R/C_Dist_300_LN_5_LD_25_RN_7_RD_14_1.png","img2/300/Congruent/R/C_Dist_300_LN_3_LD_12_RN_11_RD_20_1.png","img2/200/Congruent/L/C_Dist_200_LN_4_LD_10_RN_3_RD_15_0.png","img2/200/Incongruent/L/I_Dist_200_LN_1_LD_2_RN_3_RD_10_0.png","img2/100/Congruent/R/C_Dist_100_LN_4_LD_10_RN_15_RD_30_1.png","img2/200/Incongruent/R/I_Dist_200_LN_6_LD_20_RN_3_RD_6_1.png","img2/100/Congruent/R/C_Dist_100_LN_3_LD_20_RN_4_RD_16_1.png","img2/300/Congruent/L/C_Dist_300_LN_20_LD_25_RN_9_RD_18_0.png","img2/100/Congruent/R/C_Dist_100_LN_2_LD_5_RN_6_RD_12_1.png","img2/100/Congruent/L/C_Dist_100_LN_3_LD_6_RN_2_RD_5_0.png","img2/300/Congruent/L/C_Dist_300_LN_8_LD_16_RN_1_RD_5_0.png","img2/100/Congruent/L/C_Dist_100_LN_15_LD_25_RN_13_RD_26_0.png","img2/200/Incongruent/L/I_Dist_200_LN_7_LD_10_RN_8_RD_16_0.png","img2/200/Congruent/L/C_Dist_200_LN_4_LD_10_RN_3_RD_15_0.png","img2/200/Incongruent/R/I_Dist_200_LN_11_LD_20_RN_3_RD_4_1.png","img2/100/Incongruent/R/I_Dist_100_LN_6_LD_12_RN_3_RD_5_1.png","img2/100/Congruent/R/C_Dist_100_LN_7_LD_14_RN_15_RD_25_1.png","img2/100/Congruent/R/C_Dist_100_LN_4_LD_10_RN_15_RD_30_1.png","img2/300/Incongruent/R/I_Dist_300_LN_4_LD_20_RN_2_RD_4_1.png","img2/100/Congruent/L/C_Dist_100_LN_10_LD_25_RN_3_RD_10_0.png","img2/200/Incongruent/R/I_Dist_200_LN_9_LD_15_RN_8_RD_10_1.png","img2/100/Congruent/R/C_Dist_100_LN_1_LD_2_RN_3_RD_5_1.png","img2/100/Congruent/L/C_Dist_100_LN_8_LD_16_RN_2_RD_5_0.png","img2/200/Incongruent/R/I_Dist_200_LN_14_LD_30_RN_6_RD_9_1.png","img2/300/Congruent/R/C_Dist_300_LN_1_LD_3_RN_19_RD_30_1.png","img2/300/Congruent/L/C_Dist_300_LN_11_LD_22_RN_4_RD_20_0.png","img2/300/Congruent/R/C_Dist_300_LN_1_LD_20_RN_7_RD_20_1.png","img2/100/Congruent/L/C_Dist_100_LN_3_LD_6_RN_2_RD_5_0.png","img2/100/Incongruent/R/I_Dist_100_LN_17_LD_30_RN_10_RD_15_1.png","img2/200/Congruent/L/C_Dist_200_LN_4_LD_8_RN_3_RD_10_0.png","img2/200/Congruent/L/C_Dist_200_LN_8_LD_15_RN_3_RD_9_0.png","img2/300/Incongruent/L/I_Dist_300_LN_2_LD_4_RN_6_RD_30_0.png","img2/200/Congruent/R/C_Dist_200_LN_5_LD_10_RN_14_RD_20_1.png","img2/200/Incongruent/L/I_Dist_200_LN_4_LD_5_RN_6_RD_10_0.png","img2/200/Congruent/L/C_Dist_200_LN_16_LD_20_RN_12_RD_20_0.png","img2/200/Congruent/R/C_Dist_200_LN_6_LD_20_RN_11_RD_22_1.png","img2/100/Congruent/L/C_Dist_100_LN_11_LD_22_RN_4_RD_10_0.png","img2/200/Incongruent/L/I_Dist_200_LN_3_LD_4_RN_11_RD_20_0.png","img2/100/Incongruent/R/I_Dist_100_LN_12_LD_24_RN_9_RD_15_1.png","img2/200/Incongruent/L/I_Dist_200_LN_7_LD_10_RN_8_RD_16_0.png","img2/200/Congruent/L/C_Dist_200_LN_4_LD_8_RN_3_RD_10_0.png","img2/300/Congruent/R/C_Dist_300_LN_8_LD_15_RN_10_RD_12_1.png","img2/100/Congruent/L/C_Dist_100_LN_6_LD_20_RN_5_RD_25_0.png","img2/100/Incongruent/R/I_Dist_100_LN_9_LD_18_RN_6_RD_10_1.png","img2/300/Congruent/L/C_Dist_300_LN_4_LD_5_RN_2_RD_4_0.png","img2/300/Incongruent/L/I_Dist_300_LN_8_LD_10_RN_14_RD_28_0.png","img2/300/Incongruent/R/I_Dist_300_LN_13_LD_26_RN_12_RD_15_1.png","img2/300/Congruent/R/C_Dist_300_LN_1_LD_30_RN_8_RD_24_1.png","img2/100/Incongruent/R/I_Dist_100_LN_6_LD_12_RN_3_RD_5_1.png","img2/200/Incongruent/L/I_Dist_200_LN_3_LD_4_RN_11_RD_20_0.png","img2/300/Incongruent/L/I_Dist_300_LN_4_LD_5_RN_6_RD_12_0.png","img2/300/Congruent/R/C_Dist_300_LN_7_LD_14_RN_20_RD_25_1.png"],"dist100_C":[["C_Dist_100_LN_10_LD_25_RN_3_RD_10_0.png","C_Dist_100_LN_11_LD_22_RN_4_RD_10_0.png","C_Dist_100_LN_11_LD_22_RN_6_RD_15_0.png","C_Dist_100_LN_15_LD_25_RN_13_RD_26_0.png","C_Dist_100_LN_3_LD_6_RN_2_RD_5_0.png","C_Dist_100_LN_6_LD_20_RN_5_RD_25_0.png","C_Dist_100_LN_8_LD_16_RN_2_RD_5_0.png","C_Dist_100_LN_9_LD_15_RN_8_RD_16_0.png"],["C_Dist_100_LN_1_LD_2_RN_18_RD_30_1.png","C_Dist_100_LN_1_LD_2_RN_3_RD_5_1.png","C_Dist_100_LN_12_LD_30_RN_13_RD_26_1.png","C_Dist_100_LN_2_LD_5_RN_11_RD_22_1.png","C_Dist_100_LN_2_LD_5_RN_6_RD_12_1.png","C_Dist_100_LN_3_LD_20_RN_4_RD_16_1.png","C_Dist_100_LN_4_LD_10_RN_15_RD_30_1.png","C_Dist_100_LN_4_LD_8_RN_6_RD_10_1.png","C_Dist_100_LN_6_LD_12_RN_15_RD_25_1.png","C_Dist_100_LN_7_LD_14_RN_15_RD_25_1.png","C_Dist_100_LN_7_LD_14_RN_9_RD_15_1.png"]],"dist100_I":[["I_Dist_100_LN_1_LD_2_RN_8_RD_20_0.png","I_Dist_100_LN_2_LD_4_RN_6_RD_15_0.png","I_Dist_100_LN_2_LD_4_RN_8_RD_20_0.png","I_Dist_100_LN_3_LD_5_RN_11_RD_22_0.png","I_Dist_100_LN_3_LD_5_RN_8_RD_16_0.png","I_Dist_100_LN_3_LD_6_RN_4_RD_10_0.png","I_Dist_100_LN_3_LD_9_RN_7_RD_30_0.png","I_Dist_100_LN_4_LD_8_RN_8_RD_20_0.png","I_Dist_100_LN_6_LD_10_RN_11_RD_22_0.png","I_Dist_100_LN_6_LD_10_RN_13_RD_26_0.png","I_Dist_100_LN_6_LD_10_RN_7_RD_14_0.png","I_Dist_100_LN_9_LD_10_RN_20_RD_25_0.png","I_Dist_100_LN_9_LD_15_RN_13_RD_26_0.png","I_Dist_100_LN_9_LD_15_RN_14_RD_28_0.png"],["I_Dist_100_LN_10_LD_25_RN_8_RD_16_1.png","I_Dist_100_LN_10_LD_25_RN_9_RD_18_1.png","I_Dist_100_LN_11_LD_22_RN_9_RD_15_1.png","I_Dist_100_LN_12_LD_24_RN_9_RD_15_1.png","I_Dist_100_LN_12_LD_30_RN_2_RD_4_1.png","I_Dist_100_LN_13_LD_26_RN_12_RD_20_1.png","I_Dist_100_LN_13_LD_26_RN_6_RD_10_1.png","I_Dist_100_LN_17_LD_30_RN_10_RD_15_1.png","I_Dist_100_LN_6_LD_12_RN_3_RD_5_1.png","I_Dist_100_LN_8_LD_16_RN_6_RD_10_1.png","I_Dist_100_LN_8_LD_20_RN_1_RD_2_1.png","I_Dist_100_LN_9_LD_18_RN_6_RD_10_1.png"]],"dist100_S":[["E_Dist_100_LN_2_LD_12_RN_2_RD_30_0.png","E_Dist_100_LN_6_LD_10_RN_6_RD_12_0.png"],["E_Dist_100_LN_6_LD_12_RN_6_RD_10_1.png"]],"dist200_C":[["C_Dist_200_LN_11_LD_22_RN_3_RD_10_0.png","C_Dist_200_LN_12_LD_15_RN_6_RD_10_0.png","C_Dist_200_LN_12_LD_20_RN_6_RD_15_0.png","C_Dist_200_LN_14_LD_28_RN_6_RD_20_0.png","C_Dist_200_LN_15_LD_25_RN_4_RD_10_0.png","C_Dist_200_LN_16_LD_20_RN_12_RD_20_0.png","C_Dist_200_LN_16_LD_30_RN_9_RD_27_0.png","C_Dist_200_LN_20_LD_25_RN_9_RD_15_0.png","C_Dist_200_LN_21_LD_30_RN_2_RD_4_0.png","C_Dist_200_LN_4_LD_10_RN_3_RD_15_0.png","C_Dist_200_LN_4_LD_8_RN_3_RD_10_0.png","C_Dist_200_LN_6_LD_15_RN_3_RD_15_0.png","C_Dist_200_LN_7_LD_21_RN_2_RD_15_0.png","C_Dist_200_LN_8_LD_15_RN_2_RD_6_0.png","C_Dist_200_LN_8_LD_15_RN_3_RD_9_0.png","C_Dist_200_LN_8_LD_15_RN_7_RD_21_0.png","C_Dist_200_LN_9_LD_20_RN_4_RD_16_0.png"],["C_Dist_200_LN_1_LD_2_RN_21_RD_30_1.png","C_Dist_200_LN_13_LD_26_RN_14_RD_20_1.png","C_Dist_200_LN_3_LD_10_RN_11_RD_22_1.png","C_Dist_200_LN_3_LD_10_RN_14_RD_28_1.png","C_Dist_200_LN_3_LD_10_RN_7_RD_14_1.png","C_Dist_200_LN_3_LD_12_RN_9_RD_20_1.png","C_Dist_200_LN_3_LD_6_RN_14_RD_20_1.png","C_Dist_200_LN_5_LD_10_RN_14_RD_20_1.png","C_Dist_200_LN_6_LD_12_RN_7_RD_10_1.png","C_Dist_200_LN_6_LD_20_RN_11_RD_22_1.png","C_Dist_200_LN_7_LD_15_RN_18_RD_27_1.png","C_Dist_200_LN_9_LD_30_RN_13_RD_26_1.png"]],"dist200_I":[["I_Dist_200_LN_1_LD_2_RN_3_RD_10_0.png","I_Dist_200_LN_1_LD_3_RN_2_RD_15_0.png","I_Dist_200_LN_3_LD_4_RN_11_RD_20_0.png","I_Dist_200_LN_4_LD_5_RN_6_RD_10_0.png","I_Dist_200_LN_4_LD_6_RN_14_RD_30_0.png","I_Dist_200_LN_7_LD_10_RN_12_RD_24_0.png","I_Dist_200_LN_7_LD_10_RN_14_RD_28_0.png","I_Dist_200_LN_7_LD_10_RN_8_RD_16_0.png"],["I_Dist_200_LN_11_LD_20_RN_3_RD_4_1.png","I_Dist_200_LN_14_LD_30_RN_12_RD_18_1.png","I_Dist_200_LN_14_LD_30_RN_6_RD_9_1.png","I_Dist_200_LN_3_LD_10_RN_1_RD_2_1.png","I_Dist_200_LN_4_LD_30_RN_1_RD_3_1.png","I_Dist_200_LN_6_LD_20_RN_3_RD_6_1.png","I_Dist_200_LN_7_LD_15_RN_4_RD_6_1.png","I_Dist_200_LN_7_LD_15_RN_6_RD_9_1.png","I_Dist_200_LN_9_LD_15_RN_8_RD_10_1.png"]],"dist200_S":[["E_Dist_200_LN_3_LD_6_RN_3_RD_10_0.png"],["E_Dist_200_LN_3_LD_10_RN_3_RD_6_1.png"]],"dist300_C":[["C_Dist_300_LN_11_LD_22_RN_1_RD_5_0.png","C_Dist_300_LN_11_LD_22_RN_2_RD_10_0.png","C_Dist_300_LN_11_LD_22_RN_4_RD_20_0.png","C_Dist_300_LN_12_LD_24_RN_2_RD_10_0.png","C_Dist_300_LN_18_LD_20_RN_9_RD_15_0.png","C_Dist_300_LN_20_LD_25_RN_13_RD_26_0.png","C_Dist_300_LN_20_LD_25_RN_14_RD_28_0.png","C_Dist_300_LN_20_LD_25_RN_5_RD_10_0.png","C_Dist_300_LN_20_LD_25_RN_8_RD_16_0.png","C_Dist_300_LN_20_LD_25_RN_9_RD_18_0.png","C_Dist_300_LN_24_LD_30_RN_2_RD_4_0.png","C_Dist_300_LN_24_LD_30_RN_8_RD_16_0.png","C_Dist_300_LN_3_LD_6_RN_2_RD_10_0.png","C_Dist_300_LN_4_LD_10_RN_1_RD_10_0.png","C_Dist_300_LN_4_LD_5_RN_2_RD_4_0.png","C_Dist_300_LN_8_LD_16_RN_1_RD_5_0.png","C_Dist_300_LN_9_LD_10_RN_3_RD_5_0.png"],["C_Dist_300_LN_1_LD_20_RN_7_RD_20_1.png","C_Dist_300_LN_1_LD_3_RN_19_RD_30_1.png","C_Dist_300_LN_1_LD_30_RN_8_RD_24_1.png","C_Dist_300_LN_1_LD_5_RN_11_RD_22_1.png","C_Dist_300_LN_1_LD_5_RN_3_RD_6_1.png","C_Dist_300_LN_1_LD_5_RN_6_RD_12_1.png","C_Dist_300_LN_2_LD_10_RN_12_RD_24_1.png","C_Dist_300_LN_2_LD_20_RN_10_RD_25_1.png","C_Dist_300_LN_3_LD_12_RN_11_RD_20_1.png","C_Dist_300_LN_3_LD_6_RN_4_RD_5_1.png","C_Dist_300_LN_4_LD_20_RN_13_RD_26_1.png","C_Dist_300_LN_5_LD_25_RN_6_RD_12_1.png","C_Dist_300_LN_5_LD_25_RN_7_RD_14_1.png","C_Dist_300_LN_7_LD_14_RN_20_RD_25_1.png","C_Dist_300_LN_8_LD_15_RN_10_RD_12_1.png"]],"dist300_I":[["I_Dist_300_LN_1_LD_2_RN_2_RD_10_0.png","I_Dist_300_LN_1_LD_2_RN_3_RD_15_0.png","I_Dist_300_LN_2_LD_4_RN_6_RD_30_0.png","I_Dist_300_LN_3_LD_6_RN_4_RD_20_0.png","I_Dist_300_LN_4_LD_5_RN_6_RD_12_0.png","I_Dist_300_LN_4_LD_5_RN_8_RD_16_0.png","I_Dist_300_LN_7_LD_10_RN_8_RD_20_0.png","I_Dist_300_LN_8_LD_10_RN_14_RD_28_0.png","I_Dist_300_LN_8_LD_10_RN_9_RD_18_0.png"],["I_Dist_300_LN_13_LD_26_RN_12_RD_15_1.png","I_Dist_300_LN_4_LD_20_RN_2_RD_4_1.png"]],"dist300_S":[["E_Dist_300_LN_9_LD_12_RN_9_RD_20_0.png"],["E_Dist_300_LN_18_LD_30_RN_18_RD_20_1.png","E_Dist_300_LN_3_LD_10_RN_3_RD_5_1.png","E_Dist_300_LN_9_LD_20_RN_9_RD_12_1.png"]],"dist500_C":[["C_Dist_500_LN_10_LD_13_RN_7_RD_26_0.png","C_Dist_500_LN_10_LD_15_RN_4_RD_24_0.png","C_Dist_500_LN_12_LD_16_RN_3_RD_12_0.png","C_Dist_500_LN_12_LD_18_RN_4_RD_24_0.png","C_Dist_500_LN_15_LD_18_RN_5_RD_15_0.png","C_Dist_500_LN_15_LD_20_RN_1_RD_4_0.png","C_Dist_500_LN_18_LD_27_RN_1_RD_6_0.png","C_Dist_500_LN_20_LD_24_RN_1_RD_3_0.png","C_Dist_500_LN_20_LD_24_RN_3_RD_9_0.png","C_Dist_500_LN_20_LD_24_RN_7_RD_21_0.png","C_Dist_500_LN_20_LD_28_RN_3_RD_14_0.png","C_Dist_500_LN_21_LD_28_RN_6_RD_24_0.png","C_Dist_500_LN_22_LD_28_RN_2_RD_7_0.png","C_Dist_500_LN_25_LD_30_RN_9_RD_27_0.png","C_Dist_500_LN_4_LD_6_RN_1_RD_6_0.png","C_Dist_500_LN_5_LD_6_RN_2_RD_6_0.png","C_Dist_500_LN_6_LD_9_RN_1_RD_6_0.png","C_Dist_500_LN_7_LD_10_RN_1_RD_5_0.png","C_Dist_500_LN_8_LD_12_RN_1_RD_6_0.png","C_Dist_500_LN_8_LD_12_RN_4_RD_24_0.png"],["C_Dist_500_LN_1_LD_4_RN_12_RD_16_1.png","C_Dist_500_LN_1_LD_4_RN_9_RD_12_1.png","C_Dist_500_LN_1_LD_9_RN_11_RD_18_1.png","C_Dist_500_LN_10_LD_24_RN_22_RD_24_1.png","C_Dist_500_LN_2_LD_12_RN_10_RD_15_1.png","C_Dist_500_LN_2_LD_12_RN_12_RD_18_1.png","C_Dist_500_LN_2_LD_12_RN_4_RD_6_1.png","C_Dist_500_LN_2_LD_24_RN_7_RD_12_1.png","C_Dist_500_LN_2_LD_5_RN_18_RD_20_1.png","C_Dist_500_LN_2_LD_5_RN_9_RD_10_1.png","C_Dist_500_LN_2_LD_8_RN_12_RD_16_1.png","C_Dist_500_LN_2_LD_8_RN_21_RD_28_1.png","C_Dist_500_LN_3_LD_10_RN_4_RD_5_1.png","C_Dist_500_LN_3_LD_12_RN_15_RD_20_1.png","C_Dist_500_LN_3_LD_30_RN_6_RD_10_1.png","C_Dist_500_LN_3_LD_8_RN_14_RD_16_1.png","C_Dist_500_LN_4_LD_16_RN_15_RD_20_1.png","C_Dist_500_LN_4_LD_24_RN_12_RD_18_1.png","C_Dist_500_LN_5_LD_14_RN_6_RD_7_1.png","C_Dist_500_LN_7_LD_21_RN_20_RD_24_1.png","C_Dist_500_LN_7_LD_28_RN_12_RD_16_1.png","C_Dist_500_LN_7_LD_28_RN_9_RD_12_1.png","C_Dist_500_LN_9_LD_27_RN_20_RD_24_1.png"]],"dist500_I":[["I_Dist_500_LN_2_LD_3_RN_4_RD_24_0.png","I_Dist_500_LN_5_LD_6_RN_6_RD_18_0.png","I_Dist_500_LN_7_LD_8_RN_9_RD_24_0.png"],["I_Dist_500_LN_7_LD_21_RN_5_RD_6_1.png"]],"dist500_S":[["E_Dist_500_LN_6_LD_8_RN_6_RD_24_0.png"],["E_Dist_500_LN_2_LD_12_RN_2_RD_3_1.png","E_Dist_500_LN_6_LD_24_RN_6_RD_8_1.png"]]}},{"start_time":1552308639524,"click_time":1552308642033,"finger_time":1552308641534,"fix_duration":807.0834075355003,"trial":1,"RT":2010,"MT":499,"sideResp":2,"stimulus":[],"xmouse":[766,766,766,766,766,766,766,766,766,766,766,766,766,766,767,767,768,768,768,768,769,769,769,770,771,771,772,773,773,773,773,773,773,773,773,773,773,773,773,773,773,773,773,773,773,773,773,773,773,773,773,773,773,773,773,773,773,773,773,773,773,773,773,773,773,773,773,773,773,773,773,773,773,773,773,773,773,773,773,773,773,773,773,773,773,773,773,773,773,773,773,773,773,773,773,779,781,786,792,800,812,816,821,826,829,840,851,863,877,891,922,932,935,939,942,951,955,961,968,976,995,1006,1018,1043,1068,1125],"ymouse":[467,467,467,467,467,467,467,467,467,467,467,467,467,470,471,472,473,475,476,477,479,481,481,482,483,486,488,491,492,494,496,496,496,496,496,496,496,496,496,496,496,496,496,496,496,496,496,496,496,496,496,496,496,496,496,496,496,496,496,496,496,496,496,496,496,496,496,496,496,496,496,496,496,496,496,496,496,496,496,496,496,496,496,496,496,496,496,496,496,496,496,496,496,496,496,492,489,482,474,464,450,447,443,440,439,432,423,411,398,383,356,347,342,335,329,313,306,295,285,270,238,219,198,156,122,57],"timestamp_mouse":[10,34,48,69,88,109,129,150,169,189,208,230,249,268,289,308,329,348,369,389,408,430,449,470,488,509,529,549,570,590,608,629,648,669,689,708,729,749,769,788,809,829,849,869,889,909,930,948,968,988,1009,1029,1049,1069,1088,1109,1129,1149,1169,1190,1209,1230,1248,1268,1288,1308,1330,1349,1368,1388,1408,1430,1448,1468,1489,1508,1528,1548,1570,1588,1609,1628,1648,1668,1690,1709,1728,1748,1770,1788,1809,1829,1848,1868,1890,1909,1929,1949,1969,1990,2010,2029,2048,2069,2089,2109,2129,2149,2169,2189,2209,2229,2249,2269,2290,2309,2328,2349,2369,2389,2409,2429,2449,2469,2490,2509],"xSR":741.5,"ySR":458.25,"xT1":424.9,"yT1":0,"xT2":1058.1,"yT2":0,"toosoon":0,"cond_shown":"Incongruent","ratio_trial":300,"L_num":1,"L_den":2,"R_num":2,"R_den":10,"correct_side":1,"subjID":"sebastianpitagonzalez12","gender":"0","school":"4","age":"8"},{"start_time":1552308647324,"click_time":1552308650053,"finger_time":1552308649113,"fix_duration":1289.2100386334678,"trial":2,"RT":1789,"MT":940,"sideResp":1,"stimulus":[],"xmouse":[775,775,775,775,775,775,775,775,775,775,775,775,775,775,775,775,775,775,775,775,775,775,775,775,775,775,775,775,775,775,775,775,775,775,775,775,775,775,775,775,775,775,775,775,775,775,775,775,775,775,775,775,775,775,775,775,775,775,775,775,775,775,775,775,775,775,775,775,775,775,775,775,775,775,775,775,775,775,775,775,775,770,766,763,761,758,756,751,746,741,730,726,724,724,722,719,716,708,700,693,681,677,671,661,640,609,601,596,593,591,584,578,574,568,562,554,550,546,545,541,528,522,518,515,513,508,507,507,507,507,507,507,507,507,507,505,505],"ymouse":[497,497,497,497,497,498,498,499,499,499,499,499,499,499,499,499,499,499,499,499,499,499,499,499,499,499,499,499,499,499,499,499,499,499,499,499,499,499,499,499,499,499,499,499,499,499,499,499,499,499,499,499,499,499,499,499,499,499,499,499,499,499,499,499,499,499,499,499,499,499,499,499,499,499,499,499,499,499,499,499,499,498,495,493,492,488,484,477,470,466,448,440,435,430,420,401,386,369,352,337,311,299,283,262,231,192,177,167,159,150,137,129,124,118,113,106,103,101,101,101,101,101,101,101,101,101,101,101,101,101,101,101,101,101,101,100,99],"timestamp_mouse":[11,34,48,68,89,109,129,149,169,189,208,228,248,269,290,308,329,348,369,388,409,429,450,469,488,510,528,548,568,590,609,628,649,669,688,708,729,750,768,790,809,828,848,870,890,908,928,950,968,988,1008,1028,1048,1068,1088,1109,1129,1150,1169,1189,1208,1230,1248,1269,1288,1309,1329,1350,1369,1388,1409,1428,1449,1469,1490,1509,1528,1548,1569,1588,1608,1628,1648,1670,1689,1708,1730,1749,1768,1789,1809,1828,1849,1868,1889,1909,1929,1948,1969,1989,2008,2028,2048,2069,2088,2108,2129,2148,2169,2189,2209,2229,2248,2269,2290,2308,2328,2350,2369,2389,2408,2429,2448,2468,2488,2508,2528,2549,2570,2589,2608,2628,2649,2669,2689,2708,2728],"xSR":741.5,"ySR":458.25,"xT1":424.9,"yT1":0,"xT2":1058.1,"yT2":0,"toosoon":0,"cond_shown":"Incongruent","ratio_trial":200,"L_num":1,"L_den":2,"R_num":3,"R_den":10,"correct_side":1,"subjID":"sebastianpitagonzalez12","gender":"0","school":"4","age":"8"},{"start_time":1552308653412,"click_time":1552308654913,"finger_time":1552308653893,"fix_duration":1438.7897776049297,"trial":3,"RT":481,"MT":1020,"sideResp":2,"stimulus":[],"xmouse":[805,805,805,805,805,805,805,805,805,805,805,805,805,805,805,805,805,805,805,805,805,805,805,805,809,816,865,920,988,1068,1159,1159,1159,1159,1159,1159,1159,1159,1159,1159,1159,1159,1159,1159,1159,1159,1159,1159,1159,1159,1159,1159,1159,1159,1159,1159,1159,1159,1159,1159,1159,1159,1159,1159,1159,1159,1380,1360,1338,1307,1299,1247,1226,1201,1175,1149],"ymouse":[460,460,460,460,460,460,460,460,460,460,460,460,460,460,460,460,460,460,460,460,460,460,460,460,455,449,394,329,242,143,30,30,30,30,30,30,30,30,30,30,30,30,30,30,30,30,30,30,30,30,30,30,30,30,30,30,30,30,30,30,30,30,30,30,30,30,2,11,21,34,37,58,64,71,79,85],"timestamp_mouse":[10,21,43,61,80,102,121,141,160,181,202,222,241,261,280,301,322,340,360,382,401,421,440,460,481,500,521,541,561,582,601,622,641,661,680,700,720,741,761,781,800,820,841,861,881,900,920,940,960,982,1000,1021,1040,1061,1080,1100,1121,1140,1161,1181,1202,1221,1240,1260,1282,1302,1321,1341,1361,1380,1400,1420,1440,1462,1480,1500],"xSR":741.5,"ySR":458.25,"xT1":424.9,"yT1":0,"xT2":1058.1,"yT2":0,"toosoon":0,"cond_shown":"Incongruent","ratio_trial":200,"L_num":14,"L_den":30,"R_num":6,"R_den":9,"correct_side":2,"subjID":"sebastianpitagonzalez12","gender":"0","school":"4","age":"8"},{"start_time":1552308657919,"click_time":1552308659854,"finger_time":1552308658373,"fix_duration":785.1370585546051,"trial":4,"RT":454,"MT":1481,"sideResp":2,"stimulus":[],"xmouse":[764,765,765,767,768,768,769,770,770,771,771,771,771,773,774,776,778,779,781,783,792,799,806,809,813,816,817,818,818,818,821,823,828,832,838,842,842,842,842,842,843,843,845,845,846,847,847,847,849,850,858,863,871,882,886,909,918,924,930,933,938,938,939,941,942,943,945,948,951,955,964,968,971,974,980,984,985,986,988,991,1001,1006,1013,1019,1025,1034,1036,1037,1037,1037,1042,1045,1047,1048,1048,1055,1060],"ymouse":[492,491,491,489,489,489,488,488,488,487,487,487,487,485,485,484,483,482,481,478,467,460,450,446,442,439,438,437,436,436,434,431,427,423,416,413,413,413,412,412,411,411,409,408,407,405,404,403,401,398,386,375,363,345,339,309,297,288,280,271,264,264,262,253,245,217,204,191,180,168,146,138,130,124,114,107,106,105,103,101,94,91,86,82,77,72,70,69,69,69,65,63,62,61,61,58,56],"timestamp_mouse":[13,48,55,73,93,114,134,154,174,194,214,233,253,274,293,313,335,354,374,393,413,434,454,473,493,515,535,554,575,594,614,633,653,674,693,714,735,754,774,794,814,833,855,874,893,914,934,953,974,993,1014,1033,1053,1074,1094,1114,1134,1154,1174,1195,1214,1233,1253,1273,1294,1313,1334,1353,1374,1394,1413,1433,1455,1474,1495,1514,1534,1553,1574,1593,1613,1634,1655,1674,1694,1713,1734,1753,1774,1794,1814,1834,1853,1873,1893,1913,1933],"xSR":741.5,"ySR":458.25,"xT1":424.9,"yT1":0,"xT2":1058.1,"yT2":0,"toosoon":0,"cond_shown":"Incongruent","ratio_trial":100,"L_num":10,"L_den":25,"R_num":8,"R_den":16,"correct_side":2,"subjID":"sebastianpitagonzalez12","gender":"0","school":"4","age":"8"},{"start_time":1552308666228,"click_time":1552308669394,"finger_time":1552308667873,"fix_duration":393.61196020274014,"trial":5,"RT":1645,"MT":1521,"sideResp":2,"stimulus":[],"xmouse":[779,779,779,779,779,779,779,779,779,779,779,779,779,779,779,779,779,779,779,779,779,779,779,779,779,779,779,779,779,779,779,779,779,779,779,779,779,779,779,779,779,779,779,779,779,779,779,779,779,779,779,779,779,779,779,779,779,779,779,779,779,779,779,779,779,779,779,779,779,779,779,779,779,779,779,779,779,779,779,779,791,806,832,865,908,977,994,1005,1010,1012,1012,1012,1012,1012,1012,1013,1014,1017,1021,1027,1055,1064,1072,1081,1086,1094,1099,1101,1103,1103,1103,1103,1103,1103,1102,1102,1101,1100,1098,1097,1096,1096,1096,1096,1096,1096,1096,1096,1096,1096,1096,1096,1096,1096,1096,1096,1096,1096,1096,1096,1096,1096,1096,1096,1096,1096,1096,1096,1096,1096,1096,1097,1097,1097,1098,1098,1099,1099,1099],"ymouse":[526,526,526,526,526,526,526,526,526,526,526,526,526,526,526,526,526,526,526,526,526,526,526,526,526,526,526,526,526,526,526,526,526,526,526,526,526,526,526,526,526,526,526,526,526,526,526,526,526,526,526,526,526,526,526,526,526,526,526,526,526,526,526,526,526,526,526,526,526,526,526,526,526,526,526,526,526,526,525,523,501,481,456,434,405,366,357,350,347,345,345,345,345,345,345,344,341,336,328,313,256,235,214,199,186,164,156,151,148,146,144,143,142,142,141,139,136,134,130,125,122,122,122,122,122,122,122,122,122,122,122,122,122,122,122,122,122,122,122,122,122,122,122,121,121,120,119,119,119,118,116,115,114,113,110,106,103,101,96],"timestamp_mouse":[13,25,44,65,85,106,125,144,165,185,205,226,245,265,285,305,325,345,365,385,405,425,446,465,484,505,524,545,564,584,605,625,646,664,684,704,725,745,766,786,806,824,845,864,886,906,925,944,965,984,1004,1025,1044,1065,1085,1105,1125,1145,1164,1185,1205,1224,1245,1265,1286,1305,1325,1345,1365,1385,1405,1426,1445,1466,1485,1506,1524,1545,1566,1585,1604,1626,1645,1665,1685,1704,1724,1744,1765,1784,1804,1824,1844,1865,1885,1904,1924,1944,1965,1984,2004,2025,2045,2065,2085,2105,2124,2144,2165,2185,2204,2226,2244,2265,2284,2304,2325,2346,2366,2386,2404,2425,2446,2465,2485,2504,2526,2546,2566,2586,2604,2624,2645,2665,2685,2705,2725,2745,2766,2785,2804,2826,2846,2865,2884,2904,2925,2945,2966,2986,3005,3025,3044,3065,3085,3105,3125,3146,3166],"xSR":741.5,"ySR":458.25,"xT1":424.9,"yT1":0,"xT2":1058.1,"yT2":0,"toosoon":0,"cond_shown":"Incongruent","ratio_trial":100,"L_num":8,"L_den":16,"R_num":6,"R_den":10,"correct_side":2,"subjID":"sebastianpitagonzalez12","gender":"0","school":"4","age":"8"},{"start_time":1552308673025,"click_time":1552308675693,"finger_time":1552308675052,"fix_duration":250,"trial":6,"RT":2027,"MT":641,"sideResp":1,"stimulus":[],"xmouse":[819,819,819,819,819,819,819,819,819,819,819,819,819,819,819,819,819,819,819,819,819,819,819,819,819,819,819,819,819,819,819,819,819,819,819,819,819,819,819,819,819,819,819,819,819,819,819,819,819,819,819,819,819,819,819,819,819,819,819,819,819,819,819,819,819,819,819,819,819,819,819,819,819,819,819,819,819,819,819,819,819,819,819,819,819,819,818,818,818,818,818,818,818,818,818,818,818,818,817,816,813,811,809,807,804,802,801,801,801,800,798,797,796,794,789,770,754,739,724,698,670,658,646,638,628,607,597,589,582,570,552,540,526,507],"ymouse":[523,523,523,523,523,523,523,523,523,523,523,523,523,523,523,523,523,523,523,523,523,523,523,523,523,523,523,523,523,523,523,523,523,523,523,523,523,523,523,523,523,523,523,523,523,523,523,523,523,523,523,523,523,523,523,523,523,523,523,523,523,523,523,523,523,523,523,523,523,523,523,523,523,523,523,523,523,523,523,523,523,523,523,523,523,523,520,518,516,513,510,508,507,507,504,501,498,494,487,480,461,450,439,430,423,415,413,412,412,410,408,407,406,404,398,372,351,325,299,259,214,193,172,152,133,105,94,85,80,72,61,54,46,38],"timestamp_mouse":[9,40,48,68,88,108,129,147,169,189,207,227,249,268,288,307,329,347,368,389,408,429,448,468,489,507,528,549,567,588,607,628,647,667,687,707,729,749,767,787,808,829,848,869,888,908,928,949,968,988,1008,1028,1048,1069,1088,1107,1129,1148,1167,1189,1208,1228,1247,1268,1288,1308,1328,1348,1367,1389,1407,1428,1447,1468,1488,1508,1527,1548,1568,1588,1608,1628,1648,1668,1689,1708,1727,1747,1768,1787,1807,1829,1848,1867,1888,1908,1928,1947,1968,1988,2008,2027,2047,2067,2089,2107,2129,2149,2168,2188,2207,2227,2248,2268,2288,2307,2327,2348,2369,2389,2408,2429,2448,2468,2489,2508,2527,2547,2568,2589,2607,2629,2648,2668],"xSR":741.5,"ySR":458.25,"xT1":424.9,"yT1":0,"xT2":1058.1,"yT2":0,"toosoon":0,"cond_shown":"Incongruent","ratio_trial":100,"L_num":6,"L_den":10,"R_num":11,"R_den":22,"correct_side":1,"subjID":"sebastianpitagonzalez12","gender":"0","school":"4","age":"8"},{"start_time":1552308680662,"click_time":1552308682933,"finger_time":1552308682133,"fix_duration":487.57661837478594,"trial":7,"RT":1471,"MT":800,"sideResp":2,"stimulus":[],"xmouse":[779,779,779,779,779,779,779,779,779,779,779,779,779,779,779,779,779,779,779,779,779,779,779,779,779,779,779,779,779,779,779,779,779,779,779,779,779,779,779,779,779,779,779,779,779,779,779,779,779,779,779,779,779,779,779,779,779,779,779,779,779,779,779,779,779,779,779,779,779,779,778,782,788,813,830,851,879,900,929,931,931,932,932,932,932,932,933,933,933,933,933,933,933,933,933,933,933,933,933,934,936,938,940,953,964,978,992,1012,1026,1032,1037,1043,1049,1061],"ymouse":[491,491,491,491,491,491,491,491,491,491,491,491,491,491,491,491,491,491,491,491,491,491,491,491,491,491,491,491,491,491,491,491,491,491,491,491,491,491,491,491,491,491,491,491,491,491,491,491,491,491,491,491,491,491,491,491,491,491,491,491,491,491,491,491,491,491,491,491,491,491,487,482,470,435,417,398,378,364,347,345,344,344,344,344,344,344,343,343,343,343,343,343,343,343,343,343,343,343,343,343,340,335,332,314,300,280,258,223,181,160,140,119,98,55],"timestamp_mouse":[10,44,51,72,92,111,130,151,172,191,211,232,251,272,292,310,331,351,372,391,410,430,451,472,490,512,531,551,571,591,610,631,652,671,691,711,730,752,772,792,811,831,851,870,891,911,930,951,972,992,1012,1032,1050,1072,1092,1110,1132,1151,1171,1192,1211,1230,1252,1270,1292,1310,1331,1350,1372,1390,1411,1431,1451,1471,1490,1510,1531,1552,1571,1591,1611,1632,1650,1670,1691,1711,1732,1752,1772,1791,1810,1832,1852,1871,1892,1911,1931,1951,1970,1991,2011,2032,2051,2070,2090,2112,2131,2152,2170,2191,2211,2231,2250,2271],"xSR":741.5,"ySR":458.25,"xT1":424.9,"yT1":0,"xT2":1058.1,"yT2":0,"toosoon":0,"cond_shown":"Incongruent","ratio_trial":200,"L_num":3,"L_den":10,"R_num":1,"R_den":2,"correct_side":2,"subjID":"sebastianpitagonzalez12","gender":"0","school":"4","age":"8"},{"start_time":1552308687546,"click_time":1552308688273,"finger_time":1552308688054,"fix_duration":431.82980836009034,"trial":8,"RT":508,"MT":219,"sideResp":1,"stimulus":[],"xmouse":[815,814,814,814,812,811,810,810,810,809,809,809,809,809,809,809,809,809,809,809,807,806,798,796,761,739,713,691,664,620,603,590,567,556,534,528,522],"ymouse":[503,506,507,507,520,524,529,532,536,540,540,540,540,540,540,540,540,540,540,540,536,530,516,511,463,434,391,347,288,202,164,137,102,88,64,58,52],"timestamp_mouse":[12,26,55,67,87,108,128,147,167,187,207,227,247,267,287,308,327,346,368,387,407,426,446,467,487,508,527,546,567,587,606,626,646,667,686,707,727],"xSR":741.5,"ySR":458.25,"xT1":424.9,"yT1":0,"xT2":1058.1,"yT2":0,"toosoon":0,"cond_shown":"Incongruent","ratio_trial":300,"L_num":13,"L_den":26,"R_num":12,"R_den":15,"correct_side":2,"subjID":"sebastianpitagonzalez12","gender":"0","school":"4","age":"8"},{"start_time":1552308694497,"click_time":1552308696753,"finger_time":1552308695033,"fix_duration":863.6907110140028,"trial":9,"RT":536,"MT":1720,"sideResp":2,"stimulus":[],"xmouse":[785,785,785,785,785,785,785,785,785,785,785,785,785,785,785,785,785,785,785,785,784,784,784,785,785,786,788,790,792,794,796,815,840,875,916,927,967,975,979,983,985,988,990,990,991,991,991,991,991,991,991,991,991,992,996,997,1007,1011,1014,1016,1016,1018,1018,1018,1018,1019,1020,1021,1022,1024,1024,1024,1025,1025,1025,1025,1025,1025,1026,1026,1026,1026,1026,1026,1026,1026,1026,1026,1026,1026,1026,1026,1026,1026,1026,1026,1026,1026,1028,1028,1029,1033,1035,1037,1039,1041,1044,1045,1049,1056,1062,1072,1078],"ymouse":[495,495,495,495,495,495,495,495,495,495,495,495,495,495,495,495,495,495,495,495,493,482,476,472,469,467,458,453,449,445,439,414,394,374,346,337,304,292,281,271,262,247,240,234,229,223,214,211,209,208,207,206,204,202,198,196,188,184,177,172,168,164,163,163,161,160,156,153,150,147,146,146,146,146,146,146,145,145,144,144,144,144,144,144,144,144,144,144,144,144,144,144,144,144,144,144,144,144,144,144,143,139,138,136,134,131,128,126,121,116,113,105,97],"timestamp_mouse":[16,36,66,77,97,117,136,155,176,197,215,236,257,277,295,315,336,355,377,397,416,435,456,476,496,516,536,556,576,595,615,635,656,675,695,715,735,756,776,796,817,835,856,876,896,915,936,956,976,996,1017,1035,1057,1076,1096,1115,1135,1157,1177,1196,1217,1236,1257,1275,1296,1316,1335,1355,1377,1396,1416,1435,1456,1475,1497,1515,1537,1557,1576,1596,1616,1635,1656,1676,1697,1716,1736,1756,1776,1797,1816,1836,1856,1876,1896,1915,1935,1956,1976,1997,2017,2036,2056,2075,2096,2116,2136,2156,2175,2195,2215,2235,2256],"xSR":741.5,"ySR":458.25,"xT1":424.9,"yT1":0,"xT2":1058.1,"yT2":0,"toosoon":0,"cond_shown":"Congruent","ratio_trial":300,"L_num":11,"L_den":22,"R_num":4,"R_den":20,"correct_side":1,"subjID":"sebastianpitagonzalez12","gender":"0","school":"4","age":"8"},{"start_time":1552308700330,"click_time":1552308703113,"finger_time":1552308701752,"fix_duration":1196.5917508706398,"trial":10,"RT":1422,"MT":1361,"sideResp":1,"stimulus":[],"xmouse":[770,770,770,770,770,770,770,770,770,770,770,770,770,770,770,769,769,769,769,769,769,769,769,769,769,769,769,769,769,769,769,769,769,769,769,769,769,769,769,769,769,769,769,769,769,769,769,769,769,769,769,769,769,769,769,769,769,769,769,769,769,769,769,769,769,769,769,767,764,759,744,654,595,481,400,189,30,0,0,0,0,0,0,0,0,14,28,50,74,99,124,129,132,140,142,136,131,130,129,129,129,132,139,150,170,212,235,258,280,294,316,329,341,351,355,361,364,365,367,368,374,379,382,387,392,396,398,400,403,405,410,412,413,416,419,424,427,431,434,438],"ymouse":[505,505,505,505,505,505,505,505,505,505,505,505,505,505,505,504,504,504,504,504,504,504,504,504,504,504,504,504,504,504,504,504,504,504,504,504,504,504,504,504,504,504,504,504,504,504,504,504,504,504,504,504,504,504,504,504,504,504,504,504,504,504,504,504,504,504,504,504,502,499,489,462,459,459,459,459,459,459,459,459,465,465,465,465,465,452,436,407,379,361,348,344,340,330,327,316,311,307,302,297,288,282,275,266,255,238,231,223,216,211,196,188,181,175,172,166,164,163,160,158,151,148,145,142,139,135,134,134,131,130,127,126,125,123,121,117,113,108,102,96],"timestamp_mouse":[14,25,42,62,82,104,124,143,163,183,203,223,244,262,283,303,323,342,363,384,403,423,443,462,483,503,523,543,562,582,603,623,642,663,683,703,722,744,762,782,803,822,843,863,884,903,923,942,962,984,1003,1024,1043,1063,1083,1103,1124,1143,1163,1182,1203,1224,1243,1263,1284,1302,1322,1343,1364,1382,1402,1422,1444,1463,1483,1503,1522,1543,1564,1583,1603,1622,1643,1663,1684,1703,1724,1742,1763,1783,1802,1824,1844,1863,1883,1902,1923,1942,1963,1983,2003,2023,2043,2062,2082,2102,2122,2143,2162,2183,2203,2223,2244,2264,2283,2303,2323,2343,2363,2383,2403,2423,2442,2463,2484,2503,2523,2543,2563,2582,2602,2623,2643,2663,2683,2703,2723,2742,2763,2783],"xSR":741.5,"ySR":458.25,"xT1":424.9,"yT1":0,"xT2":1058.1,"yT2":0,"toosoon":0,"cond_shown":"Incongruent","ratio_trial":300,"L_num":4,"L_den":5,"R_num":6,"R_den":12,"correct_side":1,"subjID":"sebastianpitagonzalez12","gender":"0","school":"4","age":"8"},{"start_time":1552308708316,"click_time":1552308711752,"finger_time":1552308710473,"fix_duration":760.0061826466456,"trial":11,"RT":2157,"MT":1279,"sideResp":2,"stimulus":[],"xmouse":[782,782,782,782,782,782,782,782,782,782,782,782,782,782,782,782,782,782,782,782,782,782,782,782,782,782,782,782,782,782,782,782,782,782,782,782,782,782,782,782,782,782,782,782,782,782,782,782,782,782,782,782,782,782,782,782,782,782,782,782,782,782,782,782,782,782,782,782,782,782,782,782,782,782,782,782,782,782,782,782,782,782,782,782,782,782,782,782,782,782,782,780,780,780,779,778,777,776,774,774,772,771,770,769,766,759,757,753,749,745,735,726,716,706,690,679,675,674,674,674,674,674,674,674,674,674,674,674,674,674,674,674,674,674,674,687,722,773,829,885,966,989,1012,1034,1060,1112,1125,1132,1135,1136,1137,1137,1138,1138,1138,1138,1138,1138,1138,1138,1136,1135,1134,1132,1131,1130,1129,1129,1129,1129,1129,1128],"ymouse":[535,535,535,535,535,535,535,532,531,528,528,528,528,528,528,528,527,527,526,526,526,524,524,524,523,522,520,520,519,519,519,519,519,519,519,519,519,519,519,519,519,519,519,519,519,519,519,519,519,519,519,519,519,519,519,519,519,519,519,519,519,519,519,519,519,519,519,519,519,519,519,519,519,519,519,519,519,519,519,519,519,519,519,519,519,519,519,519,519,517,513,511,510,509,509,506,502,499,497,494,490,488,485,483,478,467,462,455,448,442,416,399,384,371,355,344,341,340,340,339,339,339,339,339,339,339,339,339,339,339,339,339,339,339,339,330,316,293,270,252,224,213,200,187,173,143,135,130,127,125,124,123,122,121,121,121,121,120,119,118,113,111,110,108,106,103,102,102,102,102,100,98],"timestamp_mouse":[16,39,56,76,97,118,136,156,177,196,217,236,257,276,297,317,338,357,376,397,416,437,457,476,496,517,538,557,577,596,617,636,658,677,697,716,738,761,777,798,817,836,858,877,897,917,937,958,977,997,1017,1037,1056,1077,1098,1117,1136,1157,1178,1198,1216,1238,1257,1277,1297,1317,1337,1357,1378,1397,1417,1437,1456,1478,1497,1517,1537,1556,1577,1597,1617,1636,1676,1676,1697,1716,1736,1757,1778,1796,1816,1836,1858,1877,1898,1916,1938,1957,1977,1997,2017,2037,2056,2076,2097,2116,2138,2157,2176,2196,2216,2237,2257,2278,2298,2317,2337,2357,2377,2398,2416,2436,2456,2477,2497,2517,2537,2558,2576,2597,2617,2636,2657,2677,2697,2717,2737,2758,2777,2798,2816,2837,2856,2877,2896,2917,2936,2956,2976,2996,3017,3037,3057,3077,3098,3116,3137,3156,3177,3198,3216,3237,3256,3277,3297,3317,3336,3356,3377,3398,3417,3436],"xSR":741.5,"ySR":458.25,"xT1":424.9,"yT1":0,"xT2":1058.1,"yT2":0,"toosoon":0,"cond_shown":"Congruent","ratio_trial":300,"L_num":1,"L_den":3,"R_num":19,"R_den":30,"correct_side":2,"subjID":"sebastianpitagonzalez12","gender":"0","school":"4","age":"8"},{"start_time":1552308721728,"click_time":1552308722254,"finger_time":1552308721833,"fix_duration":1253.4284094433717,"trial":12,"RT":105,"MT":421,"sideResp":1,"stimulus":[],"xmouse":[776,776,775,775,769,758,753,740,722,700,659,645,635,629,621,605,598,587,576,560,529,518,511,503,497,487,469],"ymouse":[502,498,496,496,473,453,442,426,409,390,363,356,351,347,344,341,338,335,330,320,293,279,264,242,218,166,43],"timestamp_mouse":[12,25,54,65,85,105,125,144,166,185,205,226,244,265,286,306,324,345,365,385,405,426,446,466,485,504,526],"xSR":741.5,"ySR":458.25,"xT1":424.9,"yT1":0,"xT2":1058.1,"yT2":0,"toosoon":0,"cond_shown":"Incongruent","ratio_trial":100,"L_num":12,"L_den":30,"R_num":2,"R_den":4,"correct_side":2,"subjID":"sebastianpitagonzalez12","gender":"0","school":"4","age":"8"},{"start_time":1552308731597,"click_time":1552308733155,"finger_time":1552308732473,"fix_duration":1082.745821821407,"trial":13,"RT":876,"MT":682,"sideResp":2,"stimulus":[],"xmouse":[764,764,764,764,764,764,764,764,764,764,764,764,764,764,764,764,764,764,764,764,764,764,764,764,764,764,764,764,764,764,764,764,764,764,764,764,764,764,764,764,764,764,766,769,783,796,821,828,834,838,842,844,848,851,856,864,873,893,905,917,929,939,942,948,956,962,977,985,993,1001,1006,1009,1010,1013,1020,1032,1056,1063],"ymouse":[488,488,488,488,488,488,488,488,488,488,488,488,488,488,488,488,488,488,488,488,488,488,488,488,488,488,488,488,488,488,488,488,488,488,488,488,488,488,488,488,488,488,482,455,408,362,275,250,233,223,205,196,182,175,164,152,141,117,104,93,81,69,66,62,58,53,46,44,41,39,39,39,39,39,39,39,41,41],"timestamp_mouse":[17,37,57,77,96,117,136,156,176,197,217,235,257,277,296,315,336,357,375,396,416,437,455,475,495,515,536,557,576,596,615,636,657,677,696,717,735,757,776,796,816,837,856,876,896,916,936,955,976,995,1015,1035,1057,1076,1096,1116,1135,1156,1177,1197,1217,1236,1256,1277,1297,1317,1336,1355,1376,1397,1417,1436,1457,1477,1496,1517,1537,1557],"xSR":741.5,"ySR":458.25,"xT1":424.9,"yT1":0,"xT2":1058.1,"yT2":0,"toosoon":0,"cond_shown":"Incongruent","ratio_trial":300,"L_num":1,"L_den":2,"R_num":2,"R_den":10,"correct_side":1,"subjID":"sebastianpitagonzalez12","gender":"0","school":"4","age":"8"},{"start_time":1552308740877,"click_time":1552308744673,"finger_time":1552308742633,"fix_duration":1162.8065230055338,"trial":14,"RT":1756,"MT":2040,"sideResp":1,"stimulus":[],"xmouse":[763,763,763,763,763,763,763,763,764,764,764,764,764,764,764,764,764,764,764,764,764,764,764,764,764,764,764,764,764,764,764,764,764,764,764,764,764,764,763,763,762,761,760,760,759,758,758,756,756,755,755,755,755,755,755,755,755,755,755,755,755,755,755,755,755,755,755,755,755,755,755,755,755,755,755,755,755,755,755,755,755,755,755,755,755,755,752,723,703,674,654,642,630,626,619,610,598,574,569,567,567,567,567,565,564,561,559,554,551,548,544,538,528,525,522,521,517,513,512,510,510,510,509,509,509,509,509,509,508,505,504,503,500,500,499,498,498,498,498,498,498,498,498,498,498,498,498,498,498,498,498,498,504,506,506,506,506,506,506,506,506,505,504,504,504,503,503,503,503,503,503,503,503,503,503,503,503,503,503,503,503,502,502,501,501,500,500,499,499,498],"ymouse":[502,502,502,502,502,502,502,502,502,502,502,502,502,502,502,502,502,502,502,502,502,502,502,502,502,502,502,502,502,502,502,502,502,502,502,502,500,499,497,495,492,491,487,485,484,482,481,479,478,477,477,477,477,477,477,477,477,477,477,477,477,477,477,477,477,477,477,477,477,477,477,477,477,477,477,477,477,477,477,477,477,477,477,477,477,476,470,420,392,350,325,309,294,290,283,276,269,256,254,253,253,253,253,252,252,250,250,246,245,243,239,234,226,223,221,220,215,209,204,202,200,198,197,196,196,195,193,186,182,176,173,172,165,161,158,154,153,153,153,153,153,153,153,153,153,153,153,153,153,153,151,145,132,128,126,125,122,118,116,114,112,110,108,107,106,105,105,105,105,105,105,105,105,105,105,105,105,105,105,105,105,105,103,103,103,101,101,100,100,99],"timestamp_mouse":[16,42,57,77,97,116,136,157,177,196,216,237,257,276,296,316,336,357,376,395,417,437,455,477,497,516,536,557,576,596,617,635,656,677,697,717,736,756,777,796,816,836,856,876,897,916,936,956,977,995,1016,1036,1056,1077,1096,1116,1137,1156,1177,1195,1217,1237,1255,1275,1297,1317,1337,1355,1377,1397,1417,1437,1457,1476,1496,1517,1536,1557,1577,1597,1617,1637,1656,1677,1695,1716,1736,1756,1776,1796,1816,1837,1856,1877,1895,1916,1936,1956,1977,1997,2017,2036,2056,2077,2097,2116,2137,2156,2176,2196,2216,2236,2256,2277,2297,2316,2336,2357,2376,2397,2415,2436,2456,2476,2497,2516,2536,2556,2576,2595,2617,2637,2655,2676,2697,2716,2737,2756,2777,2797,2817,2836,2856,2876,2895,2916,2937,2956,2977,2997,3017,3037,3056,3076,3097,3116,3137,3156,3177,3196,3215,3236,3257,3276,3296,3317,3337,3357,3376,3397,3417,3436,3456,3475,3497,3517,3536,3557,3576,3597,3616,3636,3656,3677,3697,3716,3735,3756,3776,3796],"xSR":741.5,"ySR":458.25,"xT1":424.9,"yT1":0,"xT2":1058.1,"yT2":0,"toosoon":0,"cond_shown":"Congruent","ratio_trial":200,"L_num":8,"L_den":15,"R_num":7,"R_den":21,"correct_side":1,"subjID":"sebastianpitagonzalez12","gender":"0","school":"4","age":"8"},{"start_time":1552308753159,"click_time":1552308755013,"finger_time":1552308753674,"fix_duration":424.5468439944483,"trial":15,"RT":515,"MT":1339,"sideResp":2,"stimulus":[],"xmouse":[805,804,803,803,803,803,803,803,803,803,803,802,801,801,801,801,800,800,798,797,797,797,797,809,820,840,857,875,897,913,934,957,995,1042,1056,1063,1066,1066,1067,1067,1067,1067,1070,1075,1079,1081,1083,1086,1090,1091,1092,1092,1092,1092,1092,1092,1093,1093,1095,1095,1095,1095,1095,1095,1095,1097,1099,1100,1101,1102,1102,1102,1102,1102,1102,1102,1102,1102,1102,1102,1102,1102,1102,1102,1102,1102,1102,1102,1102,1104,1108,1115,1129],"ymouse":[498,498,498,498,498,498,498,498,498,498,498,498,498,498,498,498,498,498,496,496,496,496,492,473,462,449,438,427,408,389,375,360,344,322,309,297,287,280,269,264,260,254,243,220,207,196,186,178,167,164,163,163,163,163,163,162,162,160,157,156,155,155,155,155,155,152,150,147,144,144,144,144,144,144,144,144,144,144,144,144,144,144,144,144,144,144,144,144,144,142,135,123,99],"timestamp_mouse":[16,36,55,75,94,115,135,154,174,193,215,235,254,274,294,314,334,355,374,394,413,435,454,473,494,515,535,555,575,593,614,635,655,674,694,714,735,754,774,794,814,835,854,874,894,914,934,954,975,995,1014,1034,1055,1075,1094,1115,1135,1155,1174,1194,1214,1235,1254,1274,1295,1315,1334,1354,1374,1395,1415,1434,1455,1474,1494,1514,1535,1555,1574,1595,1614,1635,1654,1675,1694,1713,1735,1755,1773,1794,1815,1834,1854],"xSR":741.5,"ySR":458.25,"xT1":424.9,"yT1":0,"xT2":1058.1,"yT2":0,"toosoon":0,"cond_shown":"Incongruent","ratio_trial":300,"L_num":13,"L_den":26,"R_num":12,"R_den":15,"correct_side":2,"subjID":"sebastianpitagonzalez12","gender":"0","school":"4","age":"8"},{"start_time":1552308759821,"click_time":1552308762753,"finger_time":1552308760753,"fix_duration":467.2230643185772,"trial":16,"RT":932,"MT":2000,"sideResp":2,"stimulus":[],"xmouse":[773,773,773,773,776,797,817,830,836,837,837,833,833,833,833,833,833,833,833,833,833,833,833,833,833,833,833,833,833,833,833,833,833,833,833,833,833,833,833,833,833,833,833,827,816,744,720,717,717,717,717,717,717,717,717,717,717,717,717,717,717,717,717,717,717,717,717,716,715,700,661,652,651,651,651,651,651,651,651,651,651,651,651,651,651,651,651,651,651,651,651,651,651,651,651,652,664,685,707,725,746,763,789,813,837,856,882,885,885,882,877,877,889,907,918,931,947,971,982,991,996,996,996,996,996,996,996,996,996,996,996,996,996,996,996,996,996,996,996,996,996,996,996,996,996,996,1108],"ymouse":[528,528,528,528,528,535,538,540,543,543,543,539,539,539,539,539,539,539,539,539,539,539,539,539,539,539,539,539,539,539,539,539,539,539,539,539,539,539,539,539,539,539,539,539,539,558,562,562,562,562,562,562,562,562,562,562,562,562,562,562,562,562,562,562,562,562,562,562,562,510,452,447,447,447,447,447,447,447,447,447,447,447,447,447,447,447,447,447,447,447,447,447,447,447,447,447,448,456,465,468,471,473,476,476,474,464,438,417,409,380,341,323,297,267,246,204,164,112,86,31,12,12,12,12,12,12,12,12,12,12,12,12,12,12,12,12,12,12,12,12,12,12,12,12,12,12,1],"timestamp_mouse":[20,41,53,73,92,112,133,152,173,192,213,232,252,272,292,313,332,352,372,393,413,433,452,472,493,513,532,553,572,593,612,632,653,672,691,713,732,753,773,791,813,832,853,872,892,911,932,953,972,992,1012,1031,1052,1072,1092,1112,1132,1152,1172,1192,1212,1233,1252,1271,1291,1311,1332,1352,1372,1393,1412,1431,1452,1471,1493,1511,1532,1552,1573,1592,1612,1632,1653,1672,1692,1712,1733,1752,1772,1792,1812,1832,1853,1871,1893,1912,1932,1952,1973,1993,2012,2032,2053,2072,2092,2111,2132,2152,2172,2193,2212,2232,2252,2272,2292,2311,2332,2352,2372,2393,2413,2432,2453,2472,2492,2512,2533,2553,2573,2592,2612,2632,2653,2672,2693,2713,2733,2752,2773,2793,2812,2833,2852,2872,2894,2913,2932],"xSR":741.5,"ySR":458.25,"xT1":424.9,"yT1":0,"xT2":1058.1,"yT2":0,"toosoon":0,"cond_shown":"Incongruent","ratio_trial":300,"L_num":3,"L_den":6,"R_num":4,"R_den":20,"correct_side":1,"subjID":"sebastianpitagonzalez12","gender":"0","school":"4","age":"8"},{"start_time":1552308770439,"click_time":1552308774533,"finger_time":1552308772693,"fix_duration":784.5233560440126,"trial":17,"RT":2254,"MT":1840,"sideResp":1,"stimulus":[],"xmouse":[801,801,801,801,801,801,801,801,801,801,801,801,801,801,801,801,801,801,801,801,801,801,801,801,801,801,801,801,801,801,801,801,801,801,801,801,801,801,801,801,801,801,801,801,801,801,801,801,801,801,801,801,801,801,801,801,801,801,801,801,801,801,801,801,801,801,801,801,801,801,801,801,801,801,801,801,801,801,801,801,801,801,801,801,801,801,801,801,801,801,801,801,801,801,801,801,801,801,801,801,801,801,801,801,801,801,801,801,801,801,801,781,713,502,0,0,0,0,0,0,0,0,0,0,0,0,0,0,0,0,0,0,0,0,0,0,0,0,0,0,0,0,0,0,0,0,0,0,0,0,0,1,4,7,24,37,37,37,37,37,37,37,37,37,37,37,37,37,37,37,37,37,37,37,37,37,37,37,37,37,37,37,37,37,37,37,37,37,37,37,37,37,37,37,37,37,37,37,37,37,37,37,37,37,505],"ymouse":[526,526,526,526,526,526,526,526,526,526,526,526,526,526,526,526,526,526,526,526,526,526,526,526,526,526,526,526,526,526,526,526,526,526,526,526,526,526,526,526,526,526,526,526,526,526,526,526,526,526,526,526,526,526,526,526,526,526,526,526,526,526,526,526,526,526,526,526,526,526,526,526,526,526,526,526,526,526,526,526,526,526,526,526,526,526,526,526,526,526,526,526,526,526,526,526,526,526,526,526,526,526,526,526,526,526,526,526,526,526,526,526,503,437,341,329,331,352,385,389,389,389,389,389,389,389,389,389,389,389,389,389,389,389,389,389,389,389,387,383,385,395,412,429,445,421,378,319,234,173,158,148,139,126,74,30,30,30,30,30,30,30,30,30,30,30,30,30,30,30,30,30,30,30,30,30,30,30,30,30,30,30,30,30,30,30,30,30,30,30,30,30,30,30,30,30,30,30,30,30,30,30,30,30,2],"timestamp_mouse":[15,43,54,74,94,115,134,153,175,193,214,234,255,274,295,315,335,354,373,394,415,434,455,475,495,515,534,555,574,595,614,634,654,675,694,715,734,755,775,794,814,835,854,875,895,915,935,955,974,994,1014,1034,1054,1074,1094,1114,1135,1154,1174,1193,1215,1235,1254,1274,1294,1315,1335,1353,1375,1394,1414,1434,1455,1474,1494,1515,1534,1555,1575,1594,1614,1634,1655,1675,1693,1714,1733,1755,1774,1794,1814,1834,1854,1875,1894,1915,1934,1954,1975,1994,2015,2033,2053,2074,2095,2114,2135,2154,2175,2194,2221,2234,2254,2275,2294,2315,2334,2355,2374,2394,2415,2434,2454,2475,2494,2514,2534,2555,2575,2594,2615,2635,2654,2675,2695,2715,2734,2755,2774,2794,2813,2833,2854,2874,2893,2915,2935,2954,2974,2994,3013,3034,3054,3074,3094,3115,3135,3153,3174,3194,3214,3234,3254,3274,3294,3314,3333,3354,3374,3394,3414,3434,3454,3474,3495,3514,3534,3554,3573,3593,3615,3634,3654,3674,3693,3714,3733,3754,3774,3795,3814,3833,3853,3874,3893,3914,3934,3955,3975,3994,4014,4034,4055,4075,4094],"xSR":741.5,"ySR":458.25,"xT1":424.9,"yT1":0,"xT2":1058.1,"yT2":0,"toosoon":0,"cond_shown":"Incongruent","ratio_trial":100,"L_num":9,"L_den":15,"R_num":14,"R_den":28,"correct_side":1,"subjID":"sebastianpitagonzalez12","gender":"0","school":"4","age":"8"},{"start_time":1552308779897,"click_time":1552308782216,"finger_time":1552308780673,"fix_duration":862.4443919696538,"trial":18,"RT":776,"MT":1543,"sideResp":1,"stimulus":[],"xmouse":[761,761,762,762,762,762,762,762,762,762,762,762,762,762,762,762,762,762,762,762,761,761,760,760,760,760,759,759,758,758,757,756,755,754,753,751,746,743,740,736,731,718,711,702,693,686,676,672,667,662,657,647,643,640,638,636,635,635,635,635,634,634,632,628,622,608,590,583,573,558,541,481,446,415,381,367,362,362,362,362,362,362,362,362,362,362,362,362,362,362,362,362,362,362,362,362,362,362,362,362,362,362,362,362,362,362,362,362,362,362,362,362,362,451,451,452],"ymouse":[520,519,518,518,518,518,518,518,518,518,518,518,518,518,518,518,518,518,517,516,516,515,514,514,514,514,513,512,511,510,508,506,505,503,501,498,491,486,480,475,468,453,447,440,433,430,424,422,418,414,411,402,399,397,396,394,393,393,393,393,392,392,391,389,386,381,370,363,344,323,300,224,174,123,63,28,7,7,7,7,7,7,7,7,7,7,7,7,7,7,7,7,7,7,7,7,7,7,7,7,7,7,7,7,7,7,7,7,7,7,7,7,7,0,0,1],"timestamp_mouse":[15,39,56,77,97,117,136,157,176,196,216,236,257,276,297,316,336,357,377,397,417,437,458,477,498,516,536,558,577,597,618,637,656,678,697,718,737,758,776,798,817,837,857,876,896,917,938,958,977,997,1017,1036,1056,1078,1097,1118,1136,1157,1176,1198,1218,1237,1257,1278,1297,1317,1337,1357,1378,1398,1418,1436,1457,1478,1496,1517,1537,1557,1576,1597,1617,1637,1657,1677,1696,1716,1737,1756,1777,1796,1817,1836,1857,1877,1897,1917,1937,1957,1977,1997,2016,2037,2057,2077,2097,2117,2137,2156,2177,2198,2217,2238,2258,2277,2298,2319],"xSR":741.5,"ySR":458.25,"xT1":424.9,"yT1":0,"xT2":1058.1,"yT2":0,"toosoon":0,"cond_shown":"Incongruent","ratio_trial":100,"L_num":12,"L_den":30,"R_num":2,"R_den":4,"correct_side":2,"subjID":"sebastianpitagonzalez12","gender":"0","school":"4","age":"8"},{"start_time":1552308788960,"click_time":1552308791374,"finger_time":1552308789555,"fix_duration":825.2500179310521,"trial":19,"RT":595,"MT":1819,"sideResp":1,"stimulus":[],"xmouse":[775,773,772,768,767,766,765,764,762,761,760,759,758,758,757,757,757,756,756,755,753,753,752,751,750,749,748,747,746,745,745,745,745,744,744,743,742,741,738,738,738,738,737,736,736,736,735,735,735,735,735,735,735,735,735,735,735,735,735,735,735,735,735,735,735,735,735,735,734,734,734,734,734,734,734,734,734,734,734,734,733,727,709,639,596,556,531,516,499,496,493,491,490,490,490,489,488,486,483,481,480,479,478,477,477,476,476,476,476,476,476,476,474,473,471,470,468,466,460,457,454],"ymouse":[477,476,475,473,472,472,471,471,470,469,469,468,467,467,466,466,466,466,466,465,465,464,464,462,462,461,461,459,459,458,458,458,458,457,457,456,455,454,452,452,451,451,450,449,449,449,448,448,448,448,448,448,448,448,448,448,448,448,448,448,448,448,448,448,448,448,448,448,446,446,446,446,446,446,446,446,446,446,446,446,445,434,406,330,293,259,236,222,203,198,193,190,188,188,188,187,184,180,173,168,166,165,163,160,160,160,160,160,160,159,157,153,146,141,131,127,123,119,108,101,97],"timestamp_mouse":[15,35,54,74,94,115,134,155,173,194,215,234,255,274,295,314,334,354,375,395,414,434,455,474,494,513,534,555,573,595,615,634,655,674,694,714,733,755,773,794,814,833,853,873,894,915,935,954,974,994,1014,1035,1054,1074,1094,1113,1135,1155,1174,1193,1213,1233,1255,1274,1295,1313,1334,1355,1376,1395,1414,1435,1455,1474,1494,1514,1534,1553,1574,1594,1613,1634,1653,1673,1694,1715,1735,1755,1774,1793,1814,1833,1855,1874,1894,1915,1934,1954,1974,1994,2015,2034,2054,2074,2095,2114,2134,2155,2174,2194,2214,2234,2253,2273,2293,2313,2334,2355,2373,2393,2414],"xSR":741.5,"ySR":458.25,"xT1":424.9,"yT1":0,"xT2":1058.1,"yT2":0,"toosoon":0,"cond_shown":"Incongruent","ratio_trial":100,"L_num":1,"L_den":2,"R_num":8,"R_den":20,"correct_side":1,"subjID":"sebastianpitagonzalez12","gender":"0","school":"4","age":"8"},{"start_time":1552308805272,"click_time":1552308807095,"finger_time":1552308806054,"fix_duration":395.8610345656273,"trial":20,"RT":782,"MT":1041,"sideResp":1,"stimulus":[],"xmouse":[794,794,794,794,794,794,795,795,795,795,795,795,795,795,795,795,795,795,795,795,795,795,795,795,795,795,795,795,795,795,795,795,795,795,795,795,793,787,778,772,767,761,753,731,713,698,683,674,648,636,624,616,611,603,599,596,592,591,582,579,579,578,578,578,578,578,578,578,578,578,578,578,578,578,576,576,575,575,572,570,569,568,568,566,564,560,555,553,551,545,534,521],"ymouse":[499,499,499,499,499,499,498,498,498,498,498,498,498,498,498,498,498,498,498,498,498,498,498,498,498,498,498,498,498,498,498,498,498,498,498,495,493,479,461,444,427,408,388,347,325,307,289,275,243,233,224,218,214,205,201,196,190,188,181,179,179,178,177,177,177,177,177,177,177,177,177,177,177,177,177,175,174,172,167,161,157,156,154,151,149,146,142,139,135,127,113,98],"timestamp_mouse":[9,21,42,62,81,101,122,143,163,182,202,223,243,262,283,303,323,343,361,381,403,423,441,462,483,503,522,541,563,582,603,622,641,661,683,703,722,741,761,782,802,823,842,862,883,903,922,942,961,983,1002,1023,1043,1062,1083,1102,1123,1142,1162,1182,1201,1223,1243,1262,1282,1301,1322,1343,1362,1382,1402,1423,1442,1462,1482,1502,1523,1543,1562,1583,1602,1622,1642,1662,1682,1701,1722,1741,1761,1782,1802,1823],"xSR":741.5,"ySR":458.25,"xT1":424.9,"yT1":0,"xT2":1058.1,"yT2":0,"toosoon":0,"cond_shown":"Incongruent","ratio_trial":300,"L_num":8,"L_den":10,"R_num":9,"R_den":18,"correct_side":1,"subjID":"sebastianpitagonzalez12","gender":"0","school":"4","age":"8"},{"start_time":1552308810075,"click_time":1552308813894,"finger_time":1552308812673,"fix_duration":1098.6817103255096,"trial":21,"RT":2598,"MT":1221,"sideResp":2,"stimulus":[],"xmouse":[772,772,772,772,772,772,772,772,772,772,772,772,772,772,772,772,772,772,772,772,772,772,772,772,772,772,772,772,772,772,772,772,770,770,769,769,769,768,766,764,762,760,758,755,753,751,749,748,747,747,747,747,747,747,747,747,747,747,746,746,746,746,746,746,746,746,746,746,746,746,746,746,746,746,750,758,766,777,786,787,788,788,788,788,788,788,788,788,788,788,788,788,788,788,788,788,788,788,788,788,788,788,788,788,788,788,788,788,788,788,788,788,788,788,788,788,788,788,788,788,788,788,788,788,788,788,788,792,795,797,799,800,802,810,820,831,842,860,879,888,895,900,905,909,911,913,914,917,920,923,925,928,932,939,941,944,945,946,951,955,958,959,961,961,962,963,964,964,969,974,979,986,992,1000,1004,1006,1011,1013,1021,1025,1028,1032,1034,1040,1043,1046,1048,1053,1056,1058,1058,1059],"ymouse":[517,517,517,517,517,517,517,517,517,517,517,517,517,517,517,517,517,517,517,517,517,517,517,517,517,517,517,517,517,517,517,517,516,516,515,515,513,513,509,506,503,499,497,494,492,490,489,489,488,488,488,488,488,488,487,486,485,484,482,482,482,482,482,482,482,482,482,482,482,482,482,482,482,481,481,482,483,487,491,492,492,492,492,492,492,492,492,492,492,492,492,492,492,492,492,492,492,492,492,492,492,492,492,492,492,492,492,492,492,492,492,492,492,492,492,492,492,492,492,492,492,492,492,492,492,492,492,492,474,465,456,451,446,431,421,410,399,378,351,339,328,318,309,290,281,272,263,246,225,216,208,200,192,177,171,167,165,163,156,152,149,146,144,141,139,138,136,135,133,131,129,125,122,116,113,111,107,106,99,96,93,90,87,83,81,80,79,76,75,75,75,75],"timestamp_mouse":[1,19,39,60,79,99,120,138,160,180,199,219,239,258,279,300,319,339,360,380,399,420,440,459,480,498,518,538,558,578,599,619,640,658,679,699,720,739,758,779,800,819,840,858,879,900,918,940,958,980,999,1020,1039,1059,1079,1099,1120,1139,1158,1179,1200,1218,1239,1259,1279,1300,1320,1339,1360,1380,1400,1418,1439,1458,1478,1500,1519,1539,1558,1579,1598,1618,1640,1659,1678,1698,1720,1740,1758,1778,1800,1820,1839,1859,1880,1900,1919,1938,1959,1980,1999,2019,2040,2059,2080,2100,2120,2139,2158,2180,2199,2219,2240,2259,2278,2300,2320,2340,2360,2379,2400,2419,2439,2459,2478,2500,2519,2539,2558,2579,2598,2619,2638,2658,2679,2700,2720,2739,2759,2779,2799,2819,2840,2858,2879,2899,2919,2940,2959,2980,2998,3019,3039,3059,3078,3099,3120,3139,3159,3178,3199,3218,3239,3258,3278,3300,3319,3340,3359,3379,3400,3419,3440,3459,3479,3499,3518,3540,3558,3580,3600,3619,3639,3659,3678,3700,3719,3739,3759,3779,3799,3819],"xSR":741.5,"ySR":458.25,"xT1":424.9,"yT1":0,"xT2":1058.1,"yT2":0,"toosoon":0,"cond_shown":"Incongruent","ratio_trial":300,"L_num":1,"L_den":2,"R_num":2,"R_den":10,"correct_side":1,"subjID":"sebastianpitagonzalez12","gender":"0","school":"4","age":"8"},{"start_time":1552308819886,"click_time":1552308822714,"finger_time":1552308820554,"fix_duration":250,"trial":22,"RT":668,"MT":2160,"sideResp":2,"stimulus":[],"xmouse":[799,799,799,799,799,799,799,799,799,799,799,799,799,799,799,799,799,799,799,799,799,799,799,799,799,799,799,799,799,798,798,796,787,783,783,783,781,780,779,779,779,778,778,778,778,778,778,778,778,778,778,778,778,778,778,778,778,782,788,793,800,808,830,838,849,867,913,969,989,1018,1060,1110,1192,1222,1246,1281,1299,1305,1305,1305,1305,1305,1305,1305,1305,1305,1305,1305,1305,1305,1305,1305,1305,1305,1305,1305,1305,1234,1231,1230,1229,1229,1229,1229,1229,1229,1229,1228,1228,1227,1226,1226,1226,1225,1225,1225,1225,1225,1225,1225,1225,1225,1225,1225,1224,1224,1223,1220,1220,1218,1216,1214,1205,1197,1191,1186,1184,1179,1175,1169,1159,1149],"ymouse":[515,515,515,515,515,515,515,515,515,515,515,515,515,515,515,515,515,515,515,515,515,515,515,515,515,515,515,515,515,515,514,505,476,454,430,414,400,393,392,391,390,390,390,389,389,389,389,389,389,389,389,389,389,389,389,389,389,388,388,388,383,375,354,346,335,321,294,261,246,227,205,178,130,106,81,38,12,1,1,1,1,1,1,1,1,1,1,1,1,1,1,1,1,1,1,1,1,6,9,10,11,11,11,11,11,11,11,11,12,13,14,14,15,15,15,15,15,15,15,15,15,15,15,15,17,18,20,23,23,26,28,31,36,39,42,44,44,46,47,49,52,54],"timestamp_mouse":[9,42,47,69,88,107,129,149,167,188,209,228,249,269,287,309,329,349,368,389,408,429,448,469,489,509,528,547,569,588,608,629,647,668,688,708,729,747,768,788,809,828,849,867,887,907,927,948,969,988,1009,1028,1048,1068,1089,1108,1128,1147,1169,1189,1209,1228,1248,1268,1288,1307,1328,1348,1369,1389,1409,1428,1447,1469,1489,1509,1529,1547,1567,1588,1608,1627,1648,1667,1689,1708,1729,1748,1767,1789,1809,1828,1848,1868,1888,1908,1929,1948,1969,1989,2008,2029,2048,2068,2088,2109,2128,2148,2167,2189,2208,2229,2247,2268,2287,2309,2329,2348,2367,2388,2408,2429,2447,2468,2488,2508,2528,2548,2567,2587,2607,2627,2648,2668,2689,2709,2728,2748,2768,2787,2807,2827],"xSR":741.5,"ySR":458.25,"xT1":424.9,"yT1":0,"xT2":1058.1,"yT2":0,"toosoon":0,"cond_shown":"Congruent","ratio_trial":300,"L_num":1,"L_den":30,"R_num":8,"R_den":24,"correct_side":2,"subjID":"sebastianpitagonzalez12","gender":"0","school":"4","age":"8"},{"start_time":1552308827427,"click_time":1552308829934,"finger_time":1552308828435,"fix_duration":1371.804225943664,"trial":23,"RT":1008,"MT":1499,"sideResp":1,"stimulus":[],"xmouse":[821,821,821,821,821,821,821,821,821,821,821,821,821,821,821,821,821,821,821,821,821,821,821,821,821,821,821,821,821,821,821,821,821,821,821,821,821,821,821,821,821,821,821,821,821,821,820,820,820,820,820,820,817,817,817,813,811,809,807,804,804,804,803,803,803,803,803,803,803,803,803,802,802,802,802,802,802,802,798,794,787,783,779,775,771,762,754,741,718,701,672,656,641,625,609,582,576,573,572,569,564,563,561,559,557,551,548,545,543,538,532,531,529,529,529,528,527,526,526,525,523,522,521,520,519,517],"ymouse":[491,491,491,491,491,491,491,491,491,491,491,491,491,491,491,491,491,491,491,491,491,491,491,491,491,491,491,491,491,491,491,491,491,491,491,491,491,491,491,491,491,491,491,491,491,491,488,481,474,462,449,444,438,438,438,431,426,423,420,415,414,414,413,413,413,413,413,413,412,412,411,411,411,411,411,411,410,410,405,401,393,388,384,380,374,360,349,334,312,298,273,260,247,234,224,207,204,203,202,201,196,195,192,190,187,180,175,171,168,160,148,144,141,140,139,135,131,126,122,117,111,108,106,104,101,99],"timestamp_mouse":[9,42,48,67,86,107,127,148,167,187,208,228,246,267,288,308,326,347,366,387,408,428,448,467,487,508,528,548,567,587,607,628,648,666,686,706,727,748,767,788,807,828,846,867,888,908,928,946,968,988,1008,1027,1047,1067,1086,1106,1127,1148,1167,1188,1207,1228,1247,1267,1287,1307,1326,1347,1367,1388,1407,1428,1448,1467,1487,1508,1527,1547,1567,1587,1607,1626,1647,1667,1688,1707,1727,1747,1767,1788,1807,1827,1846,1867,1887,1906,1926,1947,1967,1987,2006,2027,2047,2066,2088,2106,2126,2147,2167,2186,2206,2228,2248,2267,2287,2307,2327,2346,2366,2387,2406,2428,2447,2467,2487,2506],"xSR":741.5,"ySR":458.25,"xT1":424.9,"yT1":0,"xT2":1058.1,"yT2":0,"toosoon":0,"cond_shown":"Congruent","ratio_trial":100,"L_num":10,"L_den":25,"R_num":3,"R_den":10,"correct_side":1,"subjID":"sebastianpitagonzalez12","gender":"0","school":"4","age":"8"},{"start_time":1552308832535,"click_time":1552308835255,"finger_time":1552308834074,"fix_duration":278.69900752268364,"trial":24,"RT":1539,"MT":1181,"sideResp":1,"stimulus":[],"xmouse":[751,751,749,746,745,745,745,744,744,744,744,744,744,744,744,744,744,744,744,744,746,749,753,760,760,764,764,764,764,764,764,764,764,764,764,764,764,764,764,764,764,764,764,764,764,764,764,764,764,764,764,764,764,764,764,764,764,764,764,764,764,764,764,764,764,764,764,767,768,769,774,777,781,788,796,810,813,816,817,819,819,819,819,819,819,819,819,819,819,819,819,820,820,818,813,809,805,797,786,774,750,744,742,742,742,740,738,732,726,719,707,702,698,693,684,667,656,645,635,623,600,588,575,564,555,531,525,518,511,505,495,491,488,483,476,468,463],"ymouse":[526,526,526,525,525,525,525,525,525,525,524,524,523,523,523,523,521,520,518,517,513,509,504,496,495,492,492,492,492,492,492,492,492,492,492,492,492,492,492,492,492,492,492,492,492,492,492,492,492,492,492,492,492,492,492,492,492,492,492,492,492,492,492,492,492,492,492,489,487,486,481,478,475,472,468,461,460,458,457,456,455,455,455,455,455,455,455,455,455,455,455,455,453,450,446,441,436,422,402,375,311,290,277,273,273,271,268,259,252,245,234,231,229,228,225,220,217,214,209,206,199,196,193,191,188,177,173,167,162,157,148,143,138,131,119,100,91],"timestamp_mouse":[1,28,41,60,80,99,119,139,160,180,198,219,239,259,279,299,319,339,359,379,400,419,439,459,480,498,518,540,560,578,599,619,638,658,679,698,719,740,758,780,799,818,840,858,879,898,919,940,959,980,999,1019,1040,1058,1078,1099,1119,1140,1158,1180,1199,1218,1240,1260,1279,1299,1319,1340,1360,1380,1399,1420,1440,1458,1479,1499,1520,1539,1559,1579,1599,1618,1638,1658,1680,1699,1720,1739,1758,1778,1799,1819,1838,1858,1880,1898,1920,1939,1959,1979,1999,2019,2039,2059,2079,2098,2120,2140,2160,2179,2199,2218,2238,2258,2278,2299,2320,2340,2360,2380,2399,2420,2439,2459,2479,2499,2520,2540,2560,2579,2599,2618,2640,2659,2679,2699,2719],"xSR":741.5,"ySR":458.25,"xT1":424.9,"yT1":0,"xT2":1058.1,"yT2":0,"toosoon":0,"cond_shown":"Incongruent","ratio_trial":200,"L_num":1,"L_den":2,"R_num":3,"R_den":10,"correct_side":1,"subjID":"sebastianpitagonzalez12","gender":"0","school":"4","age":"8"},{"start_time":1552308839975,"click_time":1552308841674,"finger_time":1552308840834,"fix_duration":1260.058356341223,"trial":25,"RT":859,"MT":840,"sideResp":2,"stimulus":[],"xmouse":[808,808,808,808,808,808,808,808,808,808,808,808,808,808,808,808,808,808,808,808,808,808,808,808,808,808,808,808,808,808,808,808,808,808,808,808,808,808,808,808,809,811,821,825,829,833,837,842,844,845,845,845,845,845,846,846,846,848,849,851,857,860,880,890,900,911,913,923,927,933,942,954,963,965,967,969,973,985,991,996,1002,1011,1028,1046,1074],"ymouse":[496,496,496,496,496,496,496,496,496,496,496,496,496,496,496,496,496,496,496,496,496,496,496,496,496,496,496,496,496,496,496,496,496,496,496,496,496,496,493,490,475,461,433,419,403,391,378,359,354,351,349,348,347,345,344,343,343,339,338,335,329,325,307,298,290,280,278,265,261,253,245,235,228,226,222,218,210,189,180,169,161,148,123,103,70],"timestamp_mouse":[18,42,60,80,100,118,140,159,178,198,218,240,259,280,298,320,340,360,380,400,420,438,459,479,500,518,539,559,579,599,619,639,659,680,703,719,740,759,779,799,819,839,859,880,899,919,939,959,980,1000,1019,1039,1059,1080,1099,1119,1140,1159,1179,1199,1219,1240,1259,1279,1299,1319,1340,1358,1379,1400,1420,1439,1459,1480,1500,1519,1539,1559,1579,1600,1619,1638,1659,1678,1699],"xSR":741.5,"ySR":458.25,"xT1":424.9,"yT1":0,"xT2":1058.1,"yT2":0,"toosoon":0,"cond_shown":"Congruent","ratio_trial":200,"L_num":3,"L_den":10,"R_num":11,"R_den":22,"correct_side":2,"subjID":"sebastianpitagonzalez12","gender":"0","school":"4","age":"8"},{"start_time":1552308845126,"click_time":1552308847616,"finger_time":1552308845814,"fix_duration":250,"trial":26,"RT":688,"MT":1802,"sideResp":1,"stimulus":[],"xmouse":[785,785,785,785,785,785,785,785,785,785,785,785,785,785,785,785,785,785,785,785,785,785,785,785,785,785,785,785,785,784,784,782,776,773,775,792,794,795,795,795,798,805,812,815,818,823,826,828,832,836,847,855,864,874,881,897,908,923,941,955,972,974,974,974,974,974,974,972,967,958,932,916,898,869,846,805,664,570,570,570,570,570,570,570,570,570,570,570,570,570,570,570,570,570,570,570,570,570,570,570,570,570,570,570,570,570,570,570,570,570,570,570,570,570,570,570,570,570,570,570,570,570,381,411,468],"ymouse":[535,535,535,535,535,535,535,535,535,535,535,535,535,535,535,535,535,535,535,535,535,535,535,535,535,535,533,529,522,519,518,508,485,461,428,389,383,382,382,382,376,365,357,352,350,344,341,337,333,327,316,310,303,296,289,274,259,240,221,201,178,176,176,176,176,176,175,175,174,173,169,167,163,157,149,134,65,7,7,7,7,7,7,7,7,7,7,7,7,7,7,7,7,7,7,7,7,7,7,7,7,7,7,7,7,7,7,7,7,7,7,7,7,7,7,7,7,7,7,7,7,7,0,6,15],"timestamp_mouse":[9,43,48,69,88,109,129,149,168,188,208,228,249,268,289,309,328,349,367,388,408,429,449,469,487,509,529,548,569,588,608,628,649,669,688,708,728,748,768,788,808,829,848,869,888,907,928,948,969,988,1009,1028,1049,1068,1088,1107,1127,1149,1169,1189,1208,1229,1248,1269,1289,1307,1328,1348,1369,1388,1408,1428,1449,1469,1488,1507,1528,1547,1568,1589,1609,1629,1648,1668,1689,1708,1729,1748,1768,1788,1808,1828,1849,1868,1888,1908,1928,1948,1969,1988,2009,2028,2048,2068,2088,2108,2129,2148,2168,2188,2209,2229,2248,2268,2289,2309,2328,2349,2368,2389,2408,2429,2448,2469,2489],"xSR":741.5,"ySR":458.25,"xT1":424.9,"yT1":0,"xT2":1058.1,"yT2":0,"toosoon":0,"cond_shown":"Congruent","ratio_trial":200,"L_num":14,"L_den":28,"R_num":6,"R_den":20,"correct_side":1,"subjID":"sebastianpitagonzalez12","gender":"0","school":"4","age":"8"},{"start_time":1552308854345,"click_time":1552308856614,"finger_time":1552308855455,"fix_duration":470.7407745993314,"trial":27,"RT":1110,"MT":1159,"sideResp":2,"stimulus":[],"xmouse":[790,790,790,790,790,790,790,790,790,790,790,790,790,790,790,790,790,790,790,790,790,790,790,790,790,790,790,790,790,790,790,790,790,790,790,790,790,790,790,790,790,790,790,790,790,790,790,790,790,790,790,790,790,790,793,796,803,811,821,861,897,945,1001,1095,1197,1228,1244,1253,1255,1256,1256,1256,1256,1256,1258,1260,1261,1262,1263,1263,1263,1263,1263,1263,1263,1263,1262,1259,1255,1243,1239,1232,1230,1225,1219,1218,1215,1211,1207,1200,1196,1193,1190,1187,1182,1180,1178,1177,1175,1172,1170,1168,1163,1155],"ymouse":[476,476,476,476,476,476,476,476,476,476,476,476,476,476,476,476,476,476,476,476,476,476,476,476,476,476,476,476,476,476,476,476,476,476,476,476,476,476,476,476,476,476,476,476,476,476,476,476,476,476,476,476,474,471,460,451,439,428,415,371,339,297,251,181,115,96,82,73,69,65,64,63,56,51,35,27,20,15,11,10,10,10,10,10,10,10,11,12,14,21,23,27,28,31,35,35,35,35,35,35,35,35,35,35,35,35,35,35,35,35,35,35,35,35],"timestamp_mouse":[10,38,49,69,89,109,129,150,168,189,210,228,250,270,289,309,330,350,370,390,410,429,450,469,490,508,529,549,569,590,608,630,650,669,689,710,730,750,769,789,809,828,850,870,890,909,929,950,969,990,1010,1029,1049,1068,1089,1110,1129,1148,1169,1189,1209,1229,1249,1269,1288,1309,1329,1350,1369,1389,1409,1429,1448,1469,1489,1508,1529,1549,1570,1590,1609,1629,1650,1670,1689,1710,1729,1748,1769,1789,1810,1829,1849,1870,1889,1909,1929,1950,1969,1989,2009,2030,2050,2069,2089,2110,2129,2150,2169,2189,2209,2229,2249,2269],"xSR":741.5,"ySR":458.25,"xT1":424.9,"yT1":0,"xT2":1058.1,"yT2":0,"toosoon":0,"cond_shown":"Incongruent","ratio_trial":100,"L_num":13,"L_den":26,"R_num":12,"R_den":20,"correct_side":2,"subjID":"sebastianpitagonzalez12","gender":"0","school":"4","age":"8"},{"start_time":1552308860594,"click_time":1552308862855,"finger_time":1552308861814,"fix_duration":937.0892744478316,"trial":28,"RT":1220,"MT":1041,"sideResp":1,"stimulus":[],"xmouse":[773,773,773,773,773,773,773,773,773,773,773,773,773,773,773,773,773,773,773,773,773,773,773,773,773,773,773,773,773,773,773,773,773,773,773,773,773,773,773,773,773,773,773,773,773,773,773,773,773,773,773,773,773,773,773,773,774,775,775,769,758,729,677,648,602,529,430,221,113,16,0,0,2,8,17,27,35,69,88,107,119,132,148,153,156,157,157,158,158,158,159,162,182,196,205,215,226,251,264,278,279,280,280,280,281,283,289,313,330,344,370,388,423,436],"ymouse":[482,482,482,482,482,482,482,482,482,482,482,482,482,482,482,482,482,482,482,482,482,482,482,482,482,482,482,482,482,482,482,482,482,482,482,482,482,482,482,482,482,482,482,482,482,482,482,482,482,482,482,482,482,482,482,484,485,488,489,493,496,501,508,508,508,508,499,470,456,443,435,428,372,316,273,228,197,144,122,100,83,53,17,11,8,6,6,5,5,5,5,5,7,9,10,12,13,14,14,14,14,14,14,14,14,14,15,16,17,17,18,18,20,22],"timestamp_mouse":[1,20,47,59,81,101,119,141,161,181,201,220,241,260,281,300,320,341,361,381,401,420,441,461,481,501,521,540,560,579,601,621,639,661,681,701,719,741,761,781,801,820,841,861,880,901,920,940,960,980,1000,1026,1040,1061,1080,1100,1120,1140,1160,1181,1201,1220,1240,1261,1280,1300,1321,1340,1360,1380,1400,1421,1439,1461,1479,1500,1521,1540,1560,1580,1600,1621,1641,1660,1680,1700,1721,1740,1760,1781,1800,1821,1840,1860,1880,1901,1920,1940,1960,1980,2001,2020,2040,2061,2080,2101,2120,2140,2160,2180,2201,2220,2240,2260],"xSR":741.5,"ySR":458.25,"xT1":424.9,"yT1":0,"xT2":1058.1,"yT2":0,"toosoon":0,"cond_shown":"Congruent","ratio_trial":200,"L_num":16,"L_den":30,"R_num":9,"R_den":27,"correct_side":1,"subjID":"sebastianpitagonzalez12","gender":"0","school":"4","age":"8"},{"start_time":1552308872866,"click_time":1552308874374,"finger_time":1552308873395,"fix_duration":250,"trial":29,"RT":529,"MT":979,"sideResp":2,"stimulus":[],"xmouse":[751,751,751,751,751,751,751,751,751,751,751,751,751,751,751,751,751,751,751,751,751,751,752,753,755,761,769,789,812,816,817,818,820,825,829,833,844,849,884,910,910,910,910,910,910,910,910,910,910,910,910,910,910,910,910,910,910,910,910,910,910,910,910,910,910,910,910,910,910,910,910,910,910,910,1147,1150],"ymouse":[489,489,489,489,489,489,489,489,489,489,489,489,489,489,489,489,489,489,489,489,489,489,486,481,475,462,444,409,362,351,343,337,330,307,292,268,221,201,84,22,22,22,22,22,22,22,22,22,22,22,22,22,22,22,22,22,22,22,22,22,22,22,22,22,22,22,22,22,22,22,22,22,22,22,0,6],"timestamp_mouse":[10,33,48,68,88,108,127,148,168,187,208,227,248,268,287,309,329,347,369,388,407,429,448,468,488,508,529,548,568,589,608,627,648,668,688,709,728,747,768,788,808,828,848,869,889,909,929,949,968,988,1008,1027,1047,1068,1089,1108,1129,1147,1168,1188,1209,1228,1249,1268,1289,1308,1328,1348,1368,1389,1408,1427,1449,1468,1488,1508],"xSR":741.5,"ySR":458.25,"xT1":424.9,"yT1":0,"xT2":1058.1,"yT2":0,"toosoon":0,"cond_shown":"Incongruent","ratio_trial":300,"L_num":8,"L_den":10,"R_num":14,"R_den":28,"correct_side":1,"subjID":"sebastianpitagonzalez12","gender":"0","school":"4","age":"8"},{"start_time":1552308880664,"click_time":1552308881914,"finger_time":1552308881454,"fix_duration":487.4422831491723,"trial":30,"RT":790,"MT":460,"sideResp":1,"stimulus":[],"xmouse":[783,783,783,783,783,783,783,783,783,783,783,783,783,783,783,783,783,783,783,783,783,783,783,783,783,783,783,783,783,783,783,783,783,783,783,781,777,770,745,728,709,696,684,666,661,655,642,638,615,604,597,590,581,562,550,537,513,495,462,450,439,431,425],"ymouse":[493,493,493,493,493,493,493,493,493,493,493,493,493,493,493,493,493,493,493,493,493,493,493,493,493,493,493,493,493,493,493,493,493,493,493,493,493,492,483,472,465,459,454,442,439,434,422,417,386,370,357,344,331,299,279,257,217,192,142,129,116,107,98],"timestamp_mouse":[13,37,50,70,90,109,129,149,169,189,211,230,249,271,291,310,330,351,369,391,410,429,451,471,490,511,531,550,570,591,610,629,651,671,691,711,731,751,769,790,809,831,850,871,891,911,930,949,970,990,1010,1030,1050,1070,1090,1111,1130,1149,1169,1190,1211,1231,1250],"xSR":741.5,"ySR":458.25,"xT1":424.9,"yT1":0,"xT2":1058.1,"yT2":0,"toosoon":0,"cond_shown":"Congruent","ratio_trial":200,"L_num":4,"L_den":10,"R_num":3,"R_den":15,"correct_side":1,"subjID":"sebastianpitagonzalez12","gender":"0","school":"4","age":"8"},{"start_time":1552308889351,"click_time":1552308891934,"finger_time":1552308890675,"fix_duration":1275.198597465845,"trial":31,"RT":1324,"MT":1259,"sideResp":1,"stimulus":[],"xmouse":[774,774,774,774,774,774,774,774,774,774,774,774,774,774,774,774,773,773,773,773,773,773,772,772,772,772,772,772,772,772,772,772,772,772,772,772,772,772,772,772,772,772,772,772,772,772,772,772,772,772,772,772,772,772,772,772,772,772,772,772,772,770,768,765,756,747,730,710,689,654,636,616,590,554,528,522,517,513,508,503,501,499,497,486,466,434,387,349,333,326,326,325,325,325,328,328,329,331,334,347,352,357,364,366,374,377,380,384,387,390,392,394,394,396,396,397,397,398,398,399,402,406,410,414,416,417,418,420,422,428],"ymouse":[516,516,516,516,516,516,516,516,516,516,516,516,516,516,516,516,514,514,514,514,514,514,514,514,513,513,513,513,513,513,513,513,513,513,513,513,513,513,513,513,513,513,513,513,513,513,513,513,513,513,513,513,513,513,513,513,513,513,513,513,513,510,508,504,495,487,481,473,467,455,448,439,430,410,383,370,361,356,348,340,338,337,335,329,318,295,268,252,243,236,234,232,229,226,216,212,209,205,200,192,188,184,176,174,150,141,131,121,114,102,96,89,83,78,76,75,75,74,74,74,73,72,71,69,68,68,68,66,64,55],"timestamp_mouse":[12,34,44,64,84,103,123,143,163,183,203,223,244,263,283,304,323,344,363,383,403,424,444,463,483,504,524,542,562,583,604,623,644,663,682,704,724,744,764,782,803,824,844,864,883,903,924,943,963,983,1003,1024,1044,1064,1083,1103,1123,1144,1163,1183,1202,1223,1243,1263,1283,1304,1324,1343,1364,1383,1404,1423,1443,1463,1483,1502,1523,1544,1563,1583,1603,1623,1643,1663,1683,1703,1723,1743,1763,1782,1804,1824,1843,1864,1884,1904,1924,1944,1963,1983,2003,2024,2043,2064,2083,2102,2123,2144,2163,2183,2203,2224,2243,2263,2283,2304,2324,2344,2364,2383,2404,2423,2443,2464,2483,2502,2524,2543,2564,2583],"xSR":741.5,"ySR":458.25,"xT1":424.9,"yT1":0,"xT2":1058.1,"yT2":0,"toosoon":0,"cond_shown":"Incongruent","ratio_trial":300,"L_num":4,"L_den":5,"R_num":6,"R_den":12,"correct_side":1,"subjID":"sebastianpitagonzalez12","gender":"0","school":"4","age":"8"},{"start_time":1552308896528,"click_time":1552308898334,"finger_time":1552308896594,"fix_duration":1453.5047190721186,"trial":32,"RT":66,"MT":1740,"sideResp":1,"stimulus":[],"xmouse":[807,804,799,793,792,792,792,792,792,792,792,792,792,792,792,792,792,792,792,792,792,792,792,792,792,792,792,792,792,792,792,792,792,792,792,792,792,792,792,792,792,792,792,792,792,792,792,792,792,792,792,792,792,792,780,721,673,618,567,518,416,356,303,255,242,201,191,183,183,183,183,183,183,183,183,183,183,183,183,183,183,183,183,183,279,370,392,409,417,424,458],"ymouse":[490,482,465,444,441,441,441,441,441,441,441,441,441,441,441,441,441,441,441,441,441,441,441,441,441,441,441,441,441,441,441,441,441,441,441,441,441,441,441,441,441,441,441,441,441,441,441,441,441,441,441,441,441,441,434,401,370,332,299,269,206,173,136,91,78,28,12,0,0,0,0,0,0,0,0,0,0,0,0,0,0,0,0,0,39,88,89,90,90,88,72],"timestamp_mouse":[13,37,47,66,86,106,127,146,167,186,206,225,246,267,287,306,327,347,365,387,407,426,446,467,487,506,526,546,566,586,606,627,647,666,687,706,727,747,766,786,807,826,846,867,887,905,925,946,966,987,1006,1026,1047,1067,1087,1106,1126,1146,1167,1186,1206,1226,1246,1266,1287,1306,1327,1346,1366,1386,1407,1427,1447,1466,1486,1506,1527,1546,1566,1587,1607,1626,1646,1666,1687,1707,1725,1746,1766,1787,1805],"xSR":741.5,"ySR":458.25,"xT1":424.9,"yT1":0,"xT2":1058.1,"yT2":0,"toosoon":0,"cond_shown":"Congruent","ratio_trial":200,"L_num":4,"L_den":10,"R_num":3,"R_den":15,"correct_side":1,"subjID":"sebastianpitagonzalez12","gender":"0","school":"4","age":"8"},{"start_time":1552308906839,"click_time":1552308908834,"finger_time":1552308907614,"fix_duration":822.5862751097014,"trial":33,"RT":775,"MT":1220,"sideResp":1,"stimulus":[],"xmouse":[790,790,790,790,790,790,790,790,790,790,790,790,790,790,790,790,790,790,790,790,790,790,790,790,790,790,790,790,790,790,790,790,790,790,787,782,773,770,760,751,749,746,743,741,737,736,734,732,730,729,729,728,727,726,723,720,719,718,713,707,704,702,701,698,691,687,685,681,675,661,656,649,639,625,602,597,590,583,568,550,546,541,534,525,500,493,485,479,473,463,459,457,454,452,449,449,449,449,449,449],"ymouse":[524,524,524,524,524,524,524,524,524,524,524,524,524,524,524,524,524,524,524,524,524,524,524,524,524,524,524,524,523,521,519,517,513,508,496,485,471,466,451,440,437,433,429,426,419,418,415,412,409,407,407,406,405,403,399,396,394,392,386,379,376,375,373,373,369,367,365,361,356,346,341,332,321,308,291,286,280,272,257,237,229,220,208,195,171,164,157,152,144,135,132,130,126,124,118,114,111,106,103,99],"timestamp_mouse":[15,35,55,76,95,116,135,156,176,195,219,235,256,275,295,314,336,355,376,395,415,436,456,474,495,516,535,555,575,595,616,636,655,675,695,715,735,755,775,796,815,835,855,876,895,916,934,955,975,995,1015,1035,1056,1075,1095,1115,1136,1155,1175,1194,1215,1235,1256,1275,1295,1315,1336,1355,1376,1394,1416,1434,1456,1476,1495,1515,1536,1555,1574,1594,1616,1636,1656,1675,1694,1715,1736,1755,1775,1794,1816,1835,1855,1875,1894,1915,1935,1955,1975,1994],"xSR":741.5,"ySR":458.25,"xT1":424.9,"yT1":0,"xT2":1058.1,"yT2":0,"toosoon":0,"cond_shown":"Incongruent","ratio_trial":200,"L_num":3,"L_den":10,"R_num":1,"R_den":2,"correct_side":2,"subjID":"sebastianpitagonzalez12","gender":"0","school":"4","age":"8"},{"start_time":1552308941725,"click_time":1552308945335,"finger_time":1552308943074,"fix_duration":250,"trial":34,"RT":1349,"MT":2261,"sideResp":2,"stimulus":[],"xmouse":[787,785,785,785,785,785,785,785,785,785,785,785,785,785,785,785,785,785,785,785,785,785,785,785,785,785,785,785,785,785,785,785,785,785,785,785,785,785,785,785,785,785,785,785,785,785,785,785,785,785,785,785,785,785,785,785,785,785,785,785,784,781,778,772,769,761,756,749,736,718,673,659,651,643,632,619,614,610,604,597,585,577,571,567,562,562,562,562,562,562,562,561,561,561,561,560,560,560,558,557,554,553,553,553,553,553,553,553,553,556,563,564,566,570,572,572,575,584,594,604,616,621,624,630,644,696,748,809,884,996,996,996,996,996,996,996,996,996,996,996,996,996,996,996,996,996,996,996,996,996,996,996,996,996,996,996,996,996,996,996,996,996,996,996,996,1196,1192,1188,1187,1186,1184,1184,1184,1183,1182,1177,1174,1171,1165,1159,1153],"ymouse":[506,502,502,502,502,502,502,502,502,502,502,502,502,502,502,502,502,502,502,502,502,502,502,502,502,502,502,502,502,502,502,502,502,502,502,502,502,502,502,502,502,502,502,502,502,502,502,502,502,502,502,502,502,502,502,502,502,502,502,502,500,496,492,483,480,469,464,455,441,426,382,360,341,324,295,256,238,219,196,173,130,112,99,90,84,83,83,83,83,83,83,83,83,83,83,83,83,83,83,82,82,82,82,82,82,82,82,82,83,89,99,101,102,105,105,106,106,104,101,100,100,100,98,97,95,80,66,53,37,10,10,10,10,10,10,10,10,10,10,10,10,10,10,10,10,10,10,10,10,10,10,10,10,10,10,10,10,10,10,10,10,10,10,10,10,12,21,28,32,35,37,37,37,38,38,41,43,44,45,48,49],"timestamp_mouse":[16,46,49,70,90,109,130,148,170,189,210,229,248,269,290,309,329,350,370,389,410,430,450,469,489,510,530,550,570,589,609,630,650,669,689,709,729,750,769,790,809,829,849,869,889,909,930,950,968,989,1010,1029,1049,1069,1090,1109,1129,1150,1169,1190,1210,1229,1249,1269,1290,1309,1329,1349,1369,1390,1409,1429,1450,1470,1489,1509,1529,1549,1569,1589,1608,1628,1650,1669,1690,1710,1730,1749,1769,1790,1810,1830,1850,1870,1888,1908,1930,1949,1970,1989,2009,2029,2048,2069,2088,2109,2128,2149,2169,2190,2209,2228,2250,2270,2290,2309,2329,2350,2370,2389,2410,2430,2450,2470,2489,2508,2530,2549,2568,2590,2610,2629,2649,2669,2689,2709,2729,2750,2769,2790,2809,2830,2849,2870,2888,2909,2929,2950,2969,2989,3010,3030,3048,3069,3090,3108,3130,3149,3170,3190,3209,3230,3249,3269,3290,3309,3330,3349,3369,3389,3408,3429,3450,3470,3490,3509,3530,3550,3570,3590,3610],"xSR":741.5,"ySR":458.25,"xT1":424.9,"yT1":0,"xT2":1058.1,"yT2":0,"toosoon":0,"cond_shown":"Congruent","ratio_trial":100,"L_num":7,"L_den":14,"R_num":9,"R_den":15,"correct_side":2,"subjID":"sebastianpitagonzalez12","gender":"0","school":"4","age":"8"},{"start_time":1552308947374,"click_time":1552308948734,"finger_time":1552308947834,"fix_duration":639.6417567455687,"trial":35,"RT":460,"MT":900,"sideResp":1,"stimulus":[],"xmouse":[810,810,810,810,810,810,810,810,810,810,810,810,810,810,810,810,810,810,810,810,810,810,807,782,748,713,685,666,642,629,620,615,610,601,597,593,589,585,574,572,572,572,572,572,572,572,572,570,570,567,566,565,563,560,559,559,558,557,550,546,543,540,538,533,530,528,526,525,518],"ymouse":[492,492,492,492,492,492,492,492,492,492,492,492,492,492,492,492,492,492,492,492,492,491,486,429,351,272,217,185,142,125,113,106,100,90,85,82,77,73,68,67,67,67,67,67,67,67,67,66,66,65,64,63,62,60,60,60,59,59,56,54,53,52,50,49,47,46,45,44,41],"timestamp_mouse":[13,20,40,60,79,100,121,140,160,180,201,219,241,260,279,301,320,341,360,380,401,420,440,460,480,500,521,540,560,580,601,620,641,659,681,700,720,740,759,781,800,820,840,861,880,899,921,941,961,980,999,1020,1040,1059,1080,1101,1121,1140,1159,1181,1200,1221,1240,1261,1280,1301,1320,1340,1360],"xSR":741.5,"ySR":458.25,"xT1":424.9,"yT1":0,"xT2":1058.1,"yT2":0,"toosoon":0,"cond_shown":"Incongruent","ratio_trial":100,"L_num":1,"L_den":2,"R_num":8,"R_den":20,"correct_side":1,"subjID":"sebastianpitagonzalez12","gender":"0","school":"4","age":"8"},{"start_time":1552308952273,"click_time":1552308954814,"finger_time":1552308953574,"fix_duration":1138.7946290895427,"trial":36,"RT":1301,"MT":1240,"sideResp":1,"stimulus":[],"xmouse":[804,804,804,804,804,804,805,805,805,805,805,805,805,805,805,805,805,805,805,805,805,805,805,805,805,805,805,805,805,805,805,805,805,805,805,805,805,805,805,805,805,805,805,805,805,805,805,805,805,805,805,805,805,805,805,805,805,805,805,805,805,805,805,800,794,785,774,748,707,693,685,678,668,650,643,637,634,631,630,629,628,625,620,611,608,607,606,605,605,605,605,605,605,605,604,603,601,597,591,590,587,586,584,583,583,583,583,582,580,578,573,567,563,556,554,553,552,551,547,545,541,538,536,533,532,530,525,522],"ymouse":[527,527,527,527,527,527,521,508,501,501,501,501,501,501,501,501,501,501,501,501,501,501,501,501,501,501,501,501,501,501,501,501,501,501,501,501,501,501,501,501,501,501,501,501,501,501,501,501,501,501,501,501,501,501,501,501,501,501,501,501,501,501,495,479,466,452,433,393,332,308,290,273,254,217,202,189,181,175,171,170,168,165,158,148,144,143,140,139,138,138,138,138,138,138,137,135,131,126,118,115,113,111,110,109,109,108,108,108,107,107,105,104,103,99,98,97,97,97,96,96,94,94,94,94,94,93,92,91],"timestamp_mouse":[10,21,44,62,82,100,121,141,161,182,200,222,242,261,281,302,322,341,360,381,402,421,442,462,480,501,522,542,560,582,602,620,642,662,681,701,722,742,761,781,802,820,842,861,881,901,921,942,961,980,1002,1021,1042,1061,1082,1101,1122,1142,1162,1181,1202,1220,1241,1262,1280,1301,1321,1341,1361,1382,1401,1422,1441,1461,1481,1502,1522,1542,1561,1582,1601,1622,1642,1661,1681,1702,1720,1741,1762,1782,1802,1820,1842,1861,1881,1901,1922,1941,1961,1982,2002,2021,2042,2061,2082,2101,2121,2141,2161,2181,2201,2221,2241,2260,2282,2301,2321,2342,2361,2381,2401,2422,2441,2461,2480,2502,2522,2541],"xSR":741.5,"ySR":458.25,"xT1":424.9,"yT1":0,"xT2":1058.1,"yT2":0,"toosoon":0,"cond_shown":"Congruent","ratio_trial":300,"L_num":24,"L_den":30,"R_num":2,"R_den":4,"correct_side":1,"subjID":"sebastianpitagonzalez12","gender":"0","school":"4","age":"8"},{"start_time":1552308957952,"click_time":1552308959694,"finger_time":1552308958755,"fix_duration":416.9527904198199,"trial":37,"RT":803,"MT":939,"sideResp":2,"stimulus":[],"xmouse":[800,799,799,799,799,799,799,799,799,799,799,799,799,799,799,799,799,799,799,799,799,799,799,799,799,799,799,799,799,799,799,799,799,799,799,799,798,795,791,775,765,755,733,700,624,582,563,563,563,563,563,563,563,563,563,563,563,563,563,563,563,563,563,563,563,563,563,563,563,563,563,563,563,563,563,563,563,561,578,618,645,673,699,737,857,949,1052,1149],"ymouse":[504,503,503,503,503,503,503,503,503,503,503,503,503,503,503,503,503,503,503,503,503,503,503,503,503,503,503,503,503,503,503,503,503,503,503,502,499,496,490,470,458,440,395,332,144,44,0,0,0,0,0,0,0,0,0,0,0,0,0,0,0,0,0,0,0,0,0,0,0,0,0,0,0,0,0,0,0,6,18,37,43,48,50,57,57,57,57,57],"timestamp_mouse":[1,24,49,63,82,103,123,142,161,183,202,221,242,263,283,303,321,341,362,382,403,422,442,462,483,503,522,542,563,583,603,623,642,663,681,702,723,743,763,782,803,823,843,862,882,901,922,943,962,982,1002,1022,1042,1062,1082,1103,1122,1143,1162,1183,1202,1223,1242,1262,1282,1302,1323,1342,1363,1383,1402,1422,1442,1463,1482,1502,1523,1542,1561,1582,1601,1623,1642,1662,1682,1701,1723,1742],"xSR":741.5,"ySR":458.25,"xT1":424.9,"yT1":0,"xT2":1058.1,"yT2":0,"toosoon":0,"cond_shown":"Congruent","ratio_trial":300,"L_num":4,"L_den":10,"R_num":1,"R_den":10,"correct_side":1,"subjID":"sebastianpitagonzalez12","gender":"0","school":"4","age":"8"},{"start_time":1552308969551,"click_time":1552308973034,"finger_time":1552308971373,"fix_duration":1194.5993678866582,"trial":38,"RT":1822,"MT":1661,"sideResp":1,"stimulus":[],"xmouse":[767,767,767,767,767,767,767,767,767,767,767,767,767,767,767,767,767,767,767,767,767,767,767,767,767,767,767,767,767,767,767,767,767,767,767,767,767,767,767,767,767,767,767,767,767,767,767,767,767,767,767,767,767,767,767,767,767,767,767,767,767,767,767,767,767,767,767,767,767,767,767,767,767,767,767,767,767,767,767,767,767,767,767,767,767,767,767,767,767,766,751,712,700,689,701,717,737,752,754,752,749,743,737,724,703,694,683,674,671,668,668,667,667,664,656,652,647,643,639,636,635,634,633,630,619,617,614,612,606,599,596,593,590,589,589,589,589,589,589,589,588,586,581,576,572,570,567,564,562,552,546,543,542,542,542,542,542,542,542,542,542,542,542,541,541,540,539,539,537,536,535,533,531,527,523],"ymouse":[480,480,480,480,480,480,480,480,480,480,480,480,480,480,480,480,480,480,480,480,480,480,480,480,480,480,480,480,480,480,480,480,480,480,480,480,480,480,480,480,480,480,480,480,480,480,480,480,480,480,480,480,480,480,480,480,480,480,480,480,480,480,480,480,480,480,480,480,480,480,480,480,480,480,480,480,480,480,480,480,480,480,480,480,480,480,480,480,480,479,481,488,488,477,435,400,356,321,308,296,286,274,260,237,210,203,193,185,180,177,176,175,175,169,160,155,149,145,141,140,139,139,139,139,139,139,139,139,138,137,136,136,135,135,134,134,134,134,134,134,134,132,124,118,115,112,110,108,108,105,103,101,101,101,101,101,101,101,101,101,101,101,101,100,94,91,86,85,83,78,76,72,70,63,58],"timestamp_mouse":[13,34,42,64,84,103,122,142,162,183,204,223,242,263,283,303,322,344,364,383,403,423,442,463,483,502,522,543,564,583,604,623,643,664,684,703,722,742,764,783,804,823,842,863,883,903,924,943,963,983,1002,1023,1042,1063,1083,1103,1122,1144,1164,1182,1204,1224,1242,1264,1283,1304,1322,1344,1362,1382,1404,1423,1442,1464,1483,1503,1524,1544,1564,1583,1604,1624,1642,1663,1683,1702,1723,1744,1764,1784,1803,1822,1843,1864,1882,1903,1923,1944,1963,1983,2003,2024,2044,2062,2082,2103,2123,2144,2164,2183,2203,2222,2244,2264,2283,2304,2323,2343,2363,2382,2404,2424,2443,2464,2483,2504,2522,2542,2563,2582,2603,2624,2642,2663,2684,2703,2723,2743,2764,2783,2802,2823,2842,2863,2884,2903,2923,2943,2963,2983,3003,3024,3043,3064,3082,3102,3123,3143,3164,3182,3203,3224,3243,3263,3283,3303,3323,3344,3364,3383,3402,3422,3442,3463,3482],"xSR":741.5,"ySR":458.25,"xT1":424.9,"yT1":0,"xT2":1058.1,"yT2":0,"toosoon":0,"cond_shown":"Congruent","ratio_trial":200,"L_num":14,"L_den":28,"R_num":6,"R_den":20,"correct_side":1,"subjID":"sebastianpitagonzalez12","gender":"0","school":"4","age":"8"},{"start_time":1552308975887,"click_time":1552308979414,"finger_time":1552308976794,"fix_duration":250,"trial":39,"RT":907,"MT":2620,"sideResp":1,"stimulus":[],"xmouse":[760,760,760,760,760,760,760,759,757,756,755,754,753,753,753,753,753,753,753,753,753,753,753,753,753,753,753,753,753,753,753,753,753,753,753,753,753,753,753,753,753,753,753,753,753,752,752,752,752,752,752,752,752,752,752,752,752,753,753,753,753,753,746,740,733,726,720,707,703,695,683,672,662,660,657,656,656,652,643,633,623,616,606,605,603,600,596,580,569,562,557,555,551,548,542,536,530,520,517,511,504,495,486,484,483,483,483,478,472,464,454,445,437,435,433,432,429,423,420,417,414,410,406,403,399,394,390,384,382,381,379,378,377,377,377,377,377,377,377,377,377,377,377,377,377,377,377,377,377,377,377,377,377,377,377,377,377,377,377,377,377,377,377,377,377,377,377,377,377,377,377,377,377,377,377,488,488],"ymouse":[523,523,523,523,523,523,523,523,520,518,516,514,513,513,513,513,513,513,513,513,513,513,513,513,513,513,513,513,512,511,508,504,496,493,490,483,482,481,481,481,481,480,473,467,461,457,457,457,457,457,457,457,457,455,444,439,414,388,377,368,362,351,324,308,292,280,272,257,254,250,247,245,244,243,243,243,243,241,240,236,232,230,227,226,226,224,223,221,221,219,218,218,218,217,216,215,215,213,212,212,212,212,212,212,212,212,212,212,212,211,210,208,207,206,204,203,199,189,179,168,158,146,120,104,88,69,55,34,29,23,16,8,0,0,0,0,0,0,0,0,0,0,0,0,0,0,0,0,0,0,0,0,0,0,0,0,0,0,0,0,0,0,0,0,0,0,0,0,0,0,0,0,0,0,0,0,2],"timestamp_mouse":[9,41,48,66,86,107,128,148,168,187,206,228,248,266,286,307,327,347,368,387,407,427,448,467,486,506,527,547,568,588,606,628,647,667,688,707,728,746,767,788,808,827,847,868,888,907,927,946,966,987,1008,1028,1048,1068,1087,1106,1127,1147,1168,1186,1208,1227,1247,1267,1288,1308,1327,1347,1367,1387,1408,1428,1447,1467,1487,1508,1528,1547,1567,1586,1607,1626,1647,1666,1687,1707,1728,1747,1768,1786,1806,1826,1847,1868,1888,1908,1928,1947,1967,1986,2007,2027,2047,2068,2088,2108,2128,2147,2167,2187,2207,2227,2247,2267,2287,2307,2327,2346,2366,2387,2407,2427,2446,2467,2488,2508,2527,2547,2567,2587,2608,2627,2647,2667,2687,2707,2728,2748,2767,2786,2806,2827,2848,2868,2888,2907,2928,2947,2966,2987,3006,3027,3047,3067,3087,3107,3127,3147,3166,3186,3207,3227,3247,3266,3286,3306,3328,3348,3367,3388,3408,3427,3448,3467,3487,3508,3527],"xSR":741.5,"ySR":458.25,"xT1":424.9,"yT1":0,"xT2":1058.1,"yT2":0,"toosoon":0,"cond_shown":"Incongruent","ratio_trial":200,"L_num":9,"L_den":15,"R_num":8,"R_den":10,"correct_side":2,"subjID":"sebastianpitagonzalez12","gender":"0","school":"4","age":"8"},{"start_time":1552308984943,"click_time":1552308986134,"finger_time":1552308985274,"fix_duration":466.31036354734124,"trial":40,"RT":331,"MT":860,"sideResp":2,"stimulus":[],"xmouse":[798,798,798,798,798,798,798,798,798,798,798,798,797,797,792,787,781,778,774,775,785,809,859,880,901,905,908,909,911,917,920,922,925,933,951,961,969,972,973,974,978,984,991,997,1004,1006,1008,1008,1008,1008,1010,1017,1019,1026,1032,1036,1041,1048,1053,1059],"ymouse":[511,511,511,511,511,511,511,511,511,511,509,508,505,502,482,462,440,418,398,350,317,263,201,176,153,151,149,149,148,147,145,144,142,139,132,128,125,125,124,124,122,120,118,116,113,112,111,111,111,111,110,110,109,108,106,104,100,96,92,86],"timestamp_mouse":[13,39,50,71,91,110,132,151,172,191,210,232,251,271,292,310,331,352,371,390,411,431,450,471,491,511,530,550,571,591,612,632,650,670,691,712,731,750,770,790,810,831,851,870,890,912,931,952,970,990,1010,1030,1050,1072,1091,1111,1130,1152,1171,1190],"xSR":741.5,"ySR":458.25,"xT1":424.9,"yT1":0,"xT2":1058.1,"yT2":0,"toosoon":0,"cond_shown":"Congruent","ratio_trial":100,"L_num":15,"L_den":25,"R_num":13,"R_den":26,"correct_side":1,"subjID":"sebastianpitagonzalez12","gender":"0","school":"4","age":"8"},{"start_time":1552309003089,"click_time":1552309006534,"finger_time":1552309005633,"fix_duration":672.7994627235345,"trial":41,"RT":2544,"MT":901,"sideResp":1,"stimulus":[],"xmouse":[795,7