[{"start_time":1552310063219,"click_time":1552310064625,"finger_time":1552310063883,"fix_duration":250,"trial":0,"RT":664,"MT":742,"sideResp":1,"stimulus":"img/750/randomdotsizeEA/R/15_Ratio_750_L_9_R_12.png","xmouse":[798,798,798,798,798,798,798,798,798,798,798,798,798,798,798,798,798,798,798,798,798,798,798,798,798,798,798,796,795,791,787,782,768,761,756,750,741,693,675,662,657,652,637,626,615,610,610,608,608,606,605,603,589,577,570,567,566,563,560,555,551,548,543,541,538,536,535,531,526,515],"ymouse":[507,507,507,507,507,507,507,507,507,507,507,507,507,507,507,507,507,507,507,507,507,507,507,507,507,507,507,506,500,487,472,459,435,427,420,411,395,337,320,310,298,287,244,213,191,181,181,178,177,175,173,170,151,139,133,131,129,126,121,116,112,107,98,95,91,90,88,83,78,72],"timestamp_mouse":[10,49,66,85,104,124,144,164,184,205,225,244,264,285,304,326,346,365,385,404,424,445,464,485,506,525,544,564,585,604,624,645,664,684,705,725,745,764,786,805,824,844,865,884,904,924,946,964,985,1005,1024,1045,1065,1085,1104,1125,1144,1164,1184,1205,1225,1245,1265,1285,1305,1324,1344,1364,1384,1406],"xSR":741.5,"ySR":490.1,"xT1":424.9,"yT1":0,"xT2":1058.1,"yT2":0,"toosoon":0,"cond_shown":"randomdotsizeEA","ratio_trial":750,"smaller_num":"9","larger_num":"12","correct_side":2,"subjID":"Sebastianpitagonzalez12","gender":"0","age":"8","school":"4","test":{"fix_dur":[250,1500],"timestim":300,"targets_dim":[100,100],"targets_relative_coord":[0.3,0.7],"size_stim":[880,420],"start_dim":[100,100],"size_start":[300,300],"size_fix":60,"samplingrate":20,"img_types":["equaldotsize","equaldotanddens","randomdotsizeEA"],"ratios":[250,500,750,900],"rep_conds":9,"nTrials":120,"trials_to_rest":500,"Trials_order":[32,73,3,57,82,119,100,0,110,35,104,34,92,9,10,118,86,89,51,18,56,37,99,107,74,114,48,41,70,20,103,66,26,97,49,64,79,77,1,36,50,8,94,47,68,101,112,91,65,58,42,25,93,85,6,98,31,13,111,19,21,12,117,105,45,106,87,52,11,16,72,40,67,23,15,76,29,44,113,69,102,63,96,27,33,81,4,75,28,61,88,84,55,95,115,24,62,30,2,43,83,7,46,108,14,22,59,109,80,53,90,5,38,17,54,78,60,71,116,39],"cond_shown":["randomdotsizeEA","equaldotanddens","equaldotsize","equaldotsize","equaldotanddens","randomdotsizeEA","equaldotanddens","equaldotsize","randomdotsizeEA","randomdotsizeEA","randomdotsizeEA","equaldotanddens","randomdotsizeEA","equaldotsize","equaldotanddens","equaldotanddens","randomdotsizeEA","randomdotsizeEA","equaldotsize","equaldotsize","randomdotsizeEA","equaldotanddens","equaldotsize","randomdotsizeEA","randomdotsizeEA","equaldotsize","equaldotsize","randomdotsizeEA","equaldotanddens","randomdotsizeEA","equaldotanddens","equaldotsize","randomdotsizeEA","equaldotanddens","equaldotanddens","equaldotanddens","equaldotanddens","randomdotsizeEA","equaldotanddens","equaldotsize","randomdotsizeEA","randomdotsizeEA","equaldotanddens","randomdotsizeEA","randomdotsizeEA","randomdotsizeEA","equaldotanddens","equaldotanddens","randomdotsizeEA","equaldotanddens","equaldotsize","equaldotanddens","equaldotsize","equaldotanddens","equaldotsize","randomdotsizeEA","equaldotanddens","equaldotanddens","equaldotsize","equaldotanddens","equaldotsize","equaldotsize","equaldotsize","equaldotsize","equaldotsize","equaldotanddens","equaldotsize","equaldotanddens","randomdotsizeEA","equaldotanddens","equaldotsize","equaldotanddens","equaldotanddens","randomdotsizeEA","equaldotsize","equaldotanddens","randomdotsizeEA","randomdotsizeEA","randomdotsizeEA","equaldotsize","equaldotsize","equaldotsize","equaldotsize","equaldotsize","equaldotsize","equaldotsize","equaldotanddens","equaldotsize","equaldotanddens","equaldotanddens","equaldotanddens","equaldotsize","equaldotanddens","randomdotsizeEA","equaldotanddens","equaldotsize","randomdotsizeEA","equaldotsize","randomdotsizeEA","equaldotanddens","randomdotsizeEA","equaldotanddens","equaldotanddens","equaldotsize","randomdotsizeEA","equaldotanddens","randomdotsizeEA","equaldotanddens","randomdotsizeEA","randomdotsizeEA","equaldotsize","randomdotsizeEA","randomdotsizeEA","randomdotsizeEA","equaldotsize","equaldotsize","equaldotsize","randomdotsizeEA","randomdotsizeEA","equaldotsize"],"ratio_trial":[750,250,500,900,900,900,500,250,250,900,750,900,750,900,900,900,250,500,500,750,750,250,500,900,250,750,250,500,900,750,750,750,250,250,250,500,750,500,250,250,250,750,900,900,750,500,500,750,500,900,750,250,900,250,750,250,750,250,500,750,900,250,900,900,900,900,500,500,900,500,250,500,750,900,500,500,500,750,500,900,750,500,250,500,900,900,500,500,500,250,500,250,750,900,750,250,250,750,250,750,900,750,900,250,250,900,900,250,750,500,750,500,250,500,750,750,250,900,750,500],"smaller_num":["9","4","3","18","18","18","9","5","3","18","6","9","15","9","18","9","3","1","4","15","6","2","9","18","3","15","2","9","18","15","3","15","3","2","3","6","3","6","6","3","3","9","18","18","15","9","6","12","5","18","3","2","18","3","15","2","15","2","2","15","18","2","18","9","18","9","4","9","18","1","2","5","3","9","3","6","2","6","9","18","15","9","3","2","18","18","2","4","9","2","2","3","6","9","3","2","3","12","3","9","18","3","18","3","6","18","9","3","9","5","15","5","4","9","3","15","2","9","18","3"],"larger_num":["12","16","6","20","20","20","18","20","12","20","8","10","20","10","20","10","12","2","8","20","8","8","18","20","12","20","8","18","20","20","4","20","12","8","12","12","4","12","24","12","12","12","20","20","20","18","12","16","10","20","4","8","20","12","20","8","20","8","4","20","20","8","20","10","20","10","8","18","20","2","8","10","4","10","6","12","4","8","18","20","20","18","12","4","20","20","4","8","18","8","4","12","8","10","4","8","12","16","12","12","20","4","20","12","24","20","10","12","12","10","20","10","16","18","4","20","8","10","24","6"],"correct_side":[2,2,2,2,1,1,2,2,1,1,2,1,2,2,1,1,1,2,1,2,2,1,1,1,1,2,1,2,2,2,1,2,1,1,2,1,2,1,2,1,2,2,1,2,2,2,1,2,1,2,1,1,1,1,2,1,2,1,1,2,1,2,2,1,1,1,1,1,1,2,1,1,1,1,2,1,1,1,1,1,2,2,2,1,2,1,1,1,1,1,2,1,1,2,1,1,2,2,1,2,2,1,1,1,2,1,2,1,2,2,2,1,2,2,1,2,1,2,1,2],"img_shown":["img/750/randomdotsizeEA/R/15_Ratio_750_L_9_R_12.png","img/250/equaldotanddens/R/10_Ratio_250_L_4_R_16.png","img/500/equaldotsize/R/2_Ratio_500_L_3_R_6.png","img/900/equaldotsize/R/9_Ratio_900_L_18_R_20.png","img/900/equaldotanddens/L/2_Ratio_900_L_20_R_18.png","img/900/randomdotsizeEA/L/8_Ratio_900_L_20_R_18.png","img/500/equaldotanddens/R/1_Ratio_500_L_9_R_18.png","img/250/equaldotsize/R/12_Ratio_250_L_5_R_20.png","img/250/randomdotsizeEA/L/15_Ratio_250_L_12_R_3.png","img/900/randomdotsizeEA/L/2_Ratio_900_L_20_R_18.png","img/750/randomdotsizeEA/R/2_Ratio_750_L_6_R_8.png","img/900/equaldotanddens/L/1_Ratio_900_L_10_R_9.png","img/750/randomdotsizeEA/R/5_Ratio_750_L_15_R_20.png","img/900/equaldotsize/R/3_Ratio_900_L_9_R_10.png","img/900/equaldotanddens/L/2_Ratio_900_L_20_R_18.png","img/900/equaldotanddens/L/1_Ratio_900_L_10_R_9.png","img/250/randomdotsizeEA/L/15_Ratio_250_L_12_R_3.png","img/500/randomdotsizeEA/R/12_Ratio_500_L_1_R_2.png","img/500/equaldotsize/L/8_Ratio_500_L_8_R_4.png","img/750/equaldotsize/R/4_Ratio_750_L_15_R_20.png","img/750/randomdotsizeEA/R/2_Ratio_750_L_6_R_8.png","img/250/equaldotanddens/L/7_Ratio_250_L_8_R_2.png","img/500/equaldotsize/L/4_Ratio_500_L_18_R_9.png","img/900/randomdotsizeEA/L/4_Ratio_900_L_20_R_18.png","img/250/randomdotsizeEA/L/15_Ratio_250_L_12_R_3.png","img/750/equaldotsize/R/3_Ratio_750_L_15_R_20.png","img/250/equaldotsize/L/3_Ratio_250_L_8_R_2.png","img/500/randomdotsizeEA/R/1_Ratio_500_L_9_R_18.png","img/900/equaldotanddens/R/9_Ratio_900_L_18_R_20.png","img/750/randomdotsizeEA/R/5_Ratio_750_L_15_R_20.png","img/750/equaldotanddens/L/8_Ratio_750_L_4_R_3.png","img/750/equaldotsize/R/3_Ratio_750_L_15_R_20.png","img/250/randomdotsizeEA/L/14_Ratio_250_L_12_R_3.png","img/250/equaldotanddens/L/7_Ratio_250_L_8_R_2.png","img/250/equaldotanddens/R/11_Ratio_250_L_3_R_12.png","img/500/equaldotanddens/L/11_Ratio_500_L_12_R_6.png","img/750/equaldotanddens/R/7_Ratio_750_L_3_R_4.png","img/500/randomdotsizeEA/L/11_Ratio_500_L_12_R_6.png","img/250/equaldotanddens/R/6_Ratio_250_L_6_R_24.png","img/250/equaldotsize/L/15_Ratio_250_L_12_R_3.png","img/250/randomdotsizeEA/R/4_Ratio_250_L_3_R_12.png","img/750/randomdotsizeEA/R/15_Ratio_750_L_9_R_12.png","img/900/equaldotanddens/L/4_Ratio_900_L_20_R_18.png","img/900/randomdotsizeEA/R/12_Ratio_900_L_18_R_20.png","img/750/randomdotsizeEA/R/3_Ratio_750_L_15_R_20.png","img/500/randomdotsizeEA/R/1_Ratio_500_L_9_R_18.png","img/500/equaldotanddens/L/13_Ratio_500_L_12_R_6.png","img/750/equaldotanddens/R/11_Ratio_750_L_12_R_16.png","img/500/randomdotsizeEA/L/7_Ratio_500_L_10_R_5.png","img/900/equaldotanddens/R/9_Ratio_900_L_18_R_20.png","img/750/equaldotsize/L/9_Ratio_750_L_4_R_3.png","img/250/equaldotanddens/L/1_Ratio_250_L_8_R_2.png","img/900/equaldotsize/L/8_Ratio_900_L_20_R_18.png","img/250/equaldotanddens/L/15_Ratio_250_L_12_R_3.png","img/750/equaldotsize/R/4_Ratio_750_L_15_R_20.png","img/250/randomdotsizeEA/L/7_Ratio_250_L_8_R_2.png","img/750/equaldotanddens/R/4_Ratio_750_L_15_R_20.png","img/250/equaldotanddens/L/7_Ratio_250_L_8_R_2.png","img/500/equaldotsize/L/5_Ratio_500_L_4_R_2.png","img/750/equaldotanddens/R/5_Ratio_750_L_15_R_20.png","img/900/equaldotsize/L/2_Ratio_900_L_20_R_18.png","img/250/equaldotsize/R/13_Ratio_250_L_2_R_8.png","img/900/equaldotsize/R/12_Ratio_900_L_18_R_20.png","img/900/equaldotsize/L/1_Ratio_900_L_10_R_9.png","img/900/equaldotsize/L/10_Ratio_900_L_20_R_18.png","img/900/equaldotanddens/L/1_Ratio_900_L_10_R_9.png","img/500/equaldotsize/L/8_Ratio_500_L_8_R_4.png","img/500/equaldotanddens/L/4_Ratio_500_L_18_R_9.png","img/900/randomdotsizeEA/L/8_Ratio_900_L_20_R_18.png","img/500/equaldotanddens/R/12_Ratio_500_L_1_R_2.png","img/250/equaldotsize/L/3_Ratio_250_L_8_R_2.png","img/500/equaldotanddens/L/7_Ratio_500_L_10_R_5.png","img/750/equaldotanddens/L/10_Ratio_750_L_4_R_3.png","img/900/randomdotsizeEA/L/1_Ratio_900_L_10_R_9.png","img/500/equaldotsize/R/2_Ratio_500_L_3_R_6.png","img/500/equaldotanddens/L/11_Ratio_500_L_12_R_6.png","img/500/randomdotsizeEA/L/10_Ratio_500_L_4_R_2.png","img/750/randomdotsizeEA/L/13_Ratio_750_L_8_R_6.png","img/500/randomdotsizeEA/L/4_Ratio_500_L_18_R_9.png","img/900/equaldotsize/L/2_Ratio_900_L_20_R_18.png","img/750/equaldotsize/R/4_Ratio_750_L_15_R_20.png","img/500/equaldotsize/R/1_Ratio_500_L_9_R_18.png","img/250/equaldotsize/R/11_Ratio_250_L_3_R_12.png","img/500/equaldotsize/L/10_Ratio_500_L_4_R_2.png","img/900/equaldotsize/R/9_Ratio_900_L_18_R_20.png","img/900/equaldotsize/L/8_Ratio_900_L_20_R_18.png","img/500/equaldotanddens/L/10_Ratio_500_L_4_R_2.png","img/500/equaldotsize/L/8_Ratio_500_L_8_R_4.png","img/500/equaldotanddens/L/4_Ratio_500_L_18_R_9.png","img/250/equaldotanddens/L/3_Ratio_250_L_8_R_2.png","img/500/equaldotanddens/R/9_Ratio_500_L_2_R_4.png","img/250/equaldotsize/L/15_Ratio_250_L_12_R_3.png","img/750/equaldotanddens/L/14_Ratio_750_L_8_R_6.png","img/900/randomdotsizeEA/R/3_Ratio_900_L_9_R_10.png","img/750/equaldotanddens/L/9_Ratio_750_L_4_R_3.png","img/250/equaldotsize/L/7_Ratio_250_L_8_R_2.png","img/250/randomdotsizeEA/R/11_Ratio_250_L_3_R_12.png","img/750/equaldotsize/R/11_Ratio_750_L_12_R_16.png","img/250/randomdotsizeEA/L/15_Ratio_250_L_12_R_3.png","img/750/equaldotanddens/R/15_Ratio_750_L_9_R_12.png","img/900/randomdotsizeEA/R/9_Ratio_900_L_18_R_20.png","img/750/equaldotanddens/L/8_Ratio_750_L_4_R_3.png","img/900/equaldotanddens/L/8_Ratio_900_L_20_R_18.png","img/250/equaldotsize/L/14_Ratio_250_L_12_R_3.png","img/250/randomdotsizeEA/R/6_Ratio_250_L_6_R_24.png","img/900/equaldotanddens/L/4_Ratio_900_L_20_R_18.png","img/900/randomdotsizeEA/R/5_Ratio_900_L_9_R_10.png","img/250/equaldotanddens/L/14_Ratio_250_L_12_R_3.png","img/750/randomdotsizeEA/R/15_Ratio_750_L_9_R_12.png","img/500/randomdotsizeEA/R/14_Ratio_500_L_5_R_10.png","img/750/equaldotsize/R/5_Ratio_750_L_15_R_20.png","img/500/randomdotsizeEA/L/7_Ratio_500_L_10_R_5.png","img/250/randomdotsizeEA/R/10_Ratio_250_L_4_R_16.png","img/500/randomdotsizeEA/R/6_Ratio_500_L_9_R_18.png","img/750/equaldotsize/L/8_Ratio_750_L_4_R_3.png","img/750/equaldotsize/R/5_Ratio_750_L_15_R_20.png","img/250/equaldotsize/L/3_Ratio_250_L_8_R_2.png","img/900/randomdotsizeEA/R/15_Ratio_900_L_9_R_10.png","img/750/randomdotsizeEA/L/6_Ratio_750_L_24_R_18.png","img/500/equaldotsize/R/2_Ratio_500_L_3_R_6.png"],"Rat0":[["12_Ratio_0_L_9_R_0.png","13_Ratio_0_L_6_R_0.png","5_Ratio_0_L_2_R_0.png","6_Ratio_0_L_4_R_0.png","8_Ratio_0_L_6_R_0.png"],["1_Ratio_0_L_0_R_17.png","10_Ratio_0_L_0_R_22.png","11_Ratio_0_L_0_R_1.png","14_Ratio_0_L_0_R_24.png","15_Ratio_0_L_0_R_4.png","2_Ratio_0_L_0_R_5.png","3_Ratio_0_L_0_R_17.png","4_Ratio_0_L_0_R_7.png","7_Ratio_0_L_0_R_19.png","9_Ratio_0_L_0_R_15.png"]],"Rat250":[["1_Ratio_250_L_8_R_2.png","14_Ratio_250_L_12_R_3.png","15_Ratio_250_L_12_R_3.png","2_Ratio_250_L_16_R_4.png","3_Ratio_250_L_8_R_2.png","5_Ratio_250_L_24_R_6.png","7_Ratio_250_L_8_R_2.png"],["10_Ratio_250_L_4_R_16.png","11_Ratio_250_L_3_R_12.png","12_Ratio_250_L_5_R_20.png","13_Ratio_250_L_2_R_8.png","4_Ratio_250_L_3_R_12.png","6_Ratio_250_L_6_R_24.png","8_Ratio_250_L_1_R_4.png","9_Ratio_250_L_3_R_12.png"]],"Rat500":[["10_Ratio_500_L_4_R_2.png","11_Ratio_500_L_12_R_6.png","13_Ratio_500_L_12_R_6.png","4_Ratio_500_L_18_R_9.png","5_Ratio_500_L_4_R_2.png","7_Ratio_500_L_10_R_5.png","8_Ratio_500_L_8_R_4.png"],["1_Ratio_500_L_9_R_18.png","12_Ratio_500_L_1_R_2.png","14_Ratio_500_L_5_R_10.png","15_Ratio_500_L_1_R_2.png","2_Ratio_500_L_3_R_6.png","3_Ratio_500_L_10_R_20.png","6_Ratio_500_L_9_R_18.png","9_Ratio_500_L_2_R_4.png"]],"Rat750":[["1_Ratio_750_L_20_R_15.png","10_Ratio_750_L_4_R_3.png","13_Ratio_750_L_8_R_6.png","14_Ratio_750_L_8_R_6.png","6_Ratio_750_L_24_R_18.png","8_Ratio_750_L_4_R_3.png","9_Ratio_750_L_4_R_3.png"],["11_Ratio_750_L_12_R_16.png","12_Ratio_750_L_3_R_4.png","15_Ratio_750_L_9_R_12.png","2_Ratio_750_L_6_R_8.png","3_Ratio_750_L_15_R_20.png","4_Ratio_750_L_15_R_20.png","5_Ratio_750_L_15_R_20.png","7_Ratio_750_L_3_R_4.png"]],"Rat900":[["1_Ratio_900_L_10_R_9.png","10_Ratio_900_L_20_R_18.png","2_Ratio_900_L_20_R_18.png","4_Ratio_900_L_20_R_18.png","8_Ratio_900_L_20_R_18.png"],["11_Ratio_900_L_18_R_20.png","12_Ratio_900_L_18_R_20.png","13_Ratio_900_L_18_R_20.png","14_Ratio_900_L_18_R_20.png","15_Ratio_900_L_9_R_10.png","3_Ratio_900_L_9_R_10.png","5_Ratio_900_L_9_R_10.png","6_Ratio_900_L_9_R_10.png","7_Ratio_900_L_9_R_10.png","9_Ratio_900_L_18_R_20.png"]],"Rat1000":[["10_Ratio_1000_L_16_R_16.png","11_Ratio_1000_L_6_R_6.png","12_Ratio_1000_L_14_R_14.png","13_Ratio_1000_L_20_R_20.png","15_Ratio_1000_L_15_R_15.png","2_Ratio_1000_L_17_R_17.png","4_Ratio_1000_L_9_R_9.png","5_Ratio_1000_L_6_R_6.png","6_Ratio_1000_L_19_R_19.png","8_Ratio_1000_L_14_R_14.png","9_Ratio_1000_L_25_R_25.png"],["1_Ratio_1000_L_1_R_1.png","14_Ratio_1000_L_17_R_17.png","3_Ratio_1000_L_17_R_17.png","7_Ratio_1000_L_6_R_6.png"]]}},{"start_time":1552310066543,"click_time":1552310068484,"finger_time":1552310067364,"fix_duration":498.7814138830032,"trial":1,"RT":821,"MT":1120,"sideResp":2,"stimulus":"img/250/equaldotanddens/R/10_Ratio_250_L_4_R_16.png","xmouse":[814,814,814,814,814,814,814,814,814,814,814,814,814,814,814,814,814,814,814,812,812,812,812,812,812,812,812,812,812,812,812,812,812,812,812,812,812,813,818,826,841,857,892,903,912,918,922,928,930,933,935,936,942,944,944,946,950,955,958,961,964,964,965,965,965,967,968,974,975,977,980,982,984,984,986,987,989,995,998,1002,1006,1015,1025,1027,1029,1034,1038,1048,1053,1056,1057,1061,1066,1067,1067,1068,1069,1070],"ymouse":[517,517,517,517,517,517,517,517,517,517,517,517,517,517,517,517,517,517,517,515,515,515,515,515,515,515,515,515,515,515,515,515,515,515,515,515,515,512,508,502,494,485,461,451,442,435,429,418,416,410,405,399,379,368,360,352,341,329,325,320,318,318,317,317,316,307,305,296,293,287,282,277,273,271,270,267,263,254,249,241,233,221,203,197,192,184,176,159,151,146,140,133,114,109,107,105,104,98],"timestamp_mouse":[9,20,44,60,81,100,120,141,160,181,201,220,240,260,281,301,320,340,360,381,401,421,440,460,480,501,521,540,560,580,600,620,640,660,680,701,721,740,761,781,800,821,841,861,880,900,920,940,961,980,1000,1022,1041,1060,1080,1101,1122,1141,1161,1181,1201,1220,1241,1260,1280,1301,1320,1340,1361,1381,1401,1421,1440,1461,1481,1500,1520,1540,1560,1580,1601,1622,1641,1661,1681,1700,1720,1740,1760,1781,1800,1822,1841,1861,1882,1901,1921,1941],"xSR":741.5,"ySR":458.25,"xT1":424.9,"yT1":0,"xT2":1058.1,"yT2":0,"toosoon":0,"cond_shown":"equaldotanddens","ratio_trial":250,"smaller_num":"4","larger_num":"16","correct_side":2,"subjID":"Sebastianpitagonzalez12","gender":"0","age":"8","school":"4"},{"start_time":1552310070248,"click_time":1552310072884,"finger_time":1552310070624,"fix_duration":282.5598879922205,"trial":2,"RT":376,"MT":2260,"sideResp":2,"stimulus":"img/500/equaldotsize/R/2_Ratio_500_L_3_R_6.png","xmouse":[816,815,815,815,815,815,815,815,815,815,815,815,815,815,814,813,809,807,795,778,757,725,712,704,695,689,673,668,666,661,655,643,636,634,630,629,627,626,625,625,624,622,620,618,613,607,601,600,599,597,595,592,592,592,591,590,589,588,587,585,585,585,585,585,584,586,593,595,596,598,601,609,613,615,621,630,670,691,715,739,759,805,830,854,876,896,903,903,903,903,903,905,906,906,906,906,911,916,921,925,928,932,934,935,937,941,946,950,954,955,957,966,971,976,979,981,989,993,998,1002,1005,1017,1020,1023,1025,1026,1026,1028,1037,1044,1055,1074],"ymouse":[474,475,476,476,476,476,476,476,476,476,476,476,476,476,476,476,470,466,450,430,409,373,356,342,327,314,281,269,258,246,233,206,193,184,176,171,162,159,157,156,154,151,148,144,138,132,126,124,123,121,120,117,117,116,115,114,113,112,111,110,109,109,109,109,109,111,122,124,125,125,125,125,125,125,125,125,125,125,125,125,125,131,135,139,142,144,144,144,144,144,144,143,142,142,142,142,137,134,130,128,126,123,121,120,118,115,112,110,108,107,106,102,99,96,94,93,87,84,81,78,75,65,62,59,57,56,56,56,54,50,46,37],"timestamp_mouse":[15,42,56,75,95,115,135,157,177,196,216,237,255,275,296,315,335,356,376,397,417,436,455,475,497,516,536,556,575,595,617,636,655,675,696,715,735,755,776,796,815,835,856,876,895,916,936,956,975,995,1015,1035,1056,1077,1096,1116,1136,1155,1176,1196,1215,1235,1256,1276,1295,1317,1336,1355,1376,1395,1415,1435,1455,1476,1496,1516,1535,1555,1577,1595,1616,1635,1656,1676,1695,1715,1736,1755,1776,1796,1816,1835,1857,1875,1896,1916,1935,1955,1976,1996,2016,2036,2056,2076,2095,2115,2135,2155,2175,2195,2216,2236,2257,2275,2295,2316,2335,2356,2377,2396,2416,2435,2455,2476,2496,2516,2535,2555,2576,2596,2616,2636],"xSR":741.5,"ySR":458.25,"xT1":424.9,"yT1":0,"xT2":1058.1,"yT2":0,"toosoon":0,"cond_shown":"equaldotsize","ratio_trial":500,"smaller_num":"3","larger_num":"6","correct_side":2,"subjID":"Sebastianpitagonzalez12","gender":"0","age":"8","school":"4"},{"start_time":1552310076875,"click_time":1552310078564,"finger_time":1552310077583,"fix_duration":1169.5268766295233,"trial":3,"RT":708,"MT":981,"sideResp":1,"stimulus":"img/900/equaldotsize/R/9_Ratio_900_L_18_R_20.png","xmouse":[776,776,776,776,776,776,776,776,776,776,776,776,776,776,776,776,776,776,776,776,776,776,776,776,776,776,776,776,776,774,771,768,765,761,759,752,746,735,719,697,682,681,677,671,662,643,628,615,608,607,607,607,607,605,599,581,576,573,569,565,553,546,541,538,535,533,533,533,533,530,527,526,526,526,526,526,526,525,525,525,525,525,525,525,524],"ymouse":[521,521,521,521,521,521,521,521,521,521,521,521,521,521,521,521,521,521,521,521,521,521,521,518,517,504,498,493,488,483,479,472,467,461,459,448,441,428,414,399,387,385,381,372,361,337,322,312,308,307,307,307,307,304,296,278,274,266,256,241,202,179,155,134,114,63,48,40,34,26,17,16,16,16,16,16,15,15,15,15,15,15,15,15,16],"timestamp_mouse":[9,28,48,69,88,109,128,148,168,188,209,229,250,270,288,308,328,348,368,388,408,428,448,469,489,508,529,549,568,589,608,629,649,669,688,708,729,748,769,789,808,828,848,868,888,908,929,950,969,988,1009,1028,1050,1069,1089,1109,1129,1148,1168,1188,1209,1228,1249,1269,1289,1308,1328,1348,1370,1389,1409,1428,1449,1468,1489,1508,1528,1549,1568,1589,1608,1629,1648,1669,1688],"xSR":741.5,"ySR":458.25,"xT1":424.9,"yT1":0,"xT2":1058.1,"yT2":0,"toosoon":0,"cond_shown":"equaldotsize","ratio_trial":900,"smaller_num":"18","larger_num":"20","correct_side":2,"subjID":"Sebastianpitagonzalez12","gender":"0","age":"8","school":"4"},{"start_time":1552310080620,"click_time":1552310082164,"finger_time":1552310081223,"fix_duration":595.3171863305774,"trial":4,"RT":603,"MT":941,"sideResp":2,"stimulus":"img/900/equaldotanddens/L/2_Ratio_900_L_20_R_18.png","xmouse":[767,767,767,767,767,767,767,767,767,767,767,767,767,767,767,767,767,767,767,767,767,767,767,767,771,776,786,795,828,836,843,851,860,878,889,903,925,948,959,964,968,973,978,988,994,1000,1006,1012,1023,1028,1033,1038,1042,1056,1065,1073,1078,1080,1083,1084,1085,1085,1085,1085,1086,1087,1087,1089,1093,1093,1094,1094,1094,1095,1096,1097,1097,1097],"ymouse":[512,512,512,512,512,512,512,512,512,512,512,512,512,512,512,512,512,512,512,512,512,512,512,512,511,509,503,497,477,469,460,448,434,406,392,379,368,356,345,340,336,331,328,322,316,308,301,293,279,272,266,260,255,232,216,203,191,186,172,166,162,160,160,160,158,156,151,140,125,122,120,118,114,109,106,103,100,94],"timestamp_mouse":[3,25,45,63,83,103,124,143,164,183,203,224,244,263,284,303,323,343,363,384,404,425,444,464,485,503,524,544,563,583,603,623,644,663,684,703,724,743,764,783,804,825,844,864,883,903,924,943,963,984,1004,1025,1044,1064,1084,1105,1124,1143,1164,1184,1203,1225,1243,1263,1283,1303,1323,1344,1363,1383,1403,1424,1444,1465,1483,1504,1523,1544],"xSR":741.5,"ySR":458.25,"xT1":424.9,"yT1":0,"xT2":1058.1,"yT2":0,"toosoon":0,"cond_shown":"equaldotanddens","ratio_trial":900,"smaller_num":"18","larger_num":"20","correct_side":1,"subjID":"Sebastianpitagonzalez12","gender":"0","age":"8","school":"4"},{"start_time":1552310084137,"click_time":1552310085504,"finger_time":1552310084624,"fix_duration":531.3818999728097,"trial":5,"RT":487,"MT":880,"sideResp":1,"stimulus":"img/900/randomdotsizeEA/L/8_Ratio_900_L_20_R_18.png","xmouse":[774,774,774,774,774,774,774,774,774,774,774,774,774,774,774,774,774,774,774,774,774,773,773,772,768,761,759,759,757,752,739,710,693,693,682,667,651,629,620,615,610,606,594,591,590,589,583,576,574,572,571,571,570,568,564,561,556,553,552,549,546,543,533,530,528,528,527,525,524],"ymouse":[479,479,479,479,479,479,479,479,479,479,479,479,479,479,479,479,479,479,479,479,479,479,477,472,453,427,406,378,365,350,326,291,274,272,262,250,239,216,206,200,194,188,174,171,170,166,160,155,153,153,152,152,152,150,147,143,139,136,135,131,126,122,105,101,98,96,95,91,90],"timestamp_mouse":[9,27,47,66,87,107,126,146,167,186,206,227,247,266,288,308,327,347,367,386,406,426,448,467,487,506,526,546,566,586,606,628,646,666,686,706,727,746,766,786,806,826,846,867,886,907,926,947,966,987,1006,1026,1046,1067,1088,1106,1127,1146,1166,1188,1206,1227,1247,1267,1287,1306,1326,1347,1367],"xSR":741.5,"ySR":458.25,"xT1":424.9,"yT1":0,"xT2":1058.1,"yT2":0,"toosoon":0,"cond_shown":"randomdotsizeEA","ratio_trial":900,"smaller_num":"18","larger_num":"20","correct_side":1,"subjID":"Sebastianpitagonzalez12","gender":"0","age":"8","school":"4"},{"start_time":1552310087939,"click_time":1552310089383,"finger_time":1552310088643,"fix_duration":694.0591847660422,"trial":6,"RT":704,"MT":740,"sideResp":2,"stimulus":"img/500/equaldotanddens/R/1_Ratio_500_L_9_R_18.png","xmouse":[796,796,796,796,796,796,796,796,796,796,796,796,796,796,796,796,796,796,796,796,796,796,796,796,796,796,796,796,796,796,796,796,797,807,827,848,869,903,910,915,919,927,946,960,979,994,1007,1029,1034,1040,1046,1052,1060,1060,1060,1061,1061,1062,1062,1062,1064,1064,1067,1069,1070,1072,1072,1075,1075,1075,1075,1075,1073],"ymouse":[503,503,503,503,503,503,503,503,503,503,503,503,503,503,503,503,503,503,503,503,503,503,503,503,503,503,503,503,503,503,503,503,503,495,482,470,459,445,442,438,433,426,407,396,384,372,361,326,305,282,266,252,213,201,194,190,184,172,170,167,164,163,152,146,141,138,136,129,126,120,116,108,94],"timestamp_mouse":[10,24,44,64,84,105,124,145,165,185,204,225,244,265,284,304,325,346,364,385,405,425,446,466,485,506,524,544,565,585,604,625,645,665,685,704,725,745,764,786,805,824,844,866,884,906,925,944,965,985,1004,1024,1045,1064,1085,1104,1125,1144,1164,1184,1205,1224,1244,1264,1286,1307,1325,1344,1365,1384,1404,1425,1444],"xSR":741.5,"ySR":458.25,"xT1":424.9,"yT1":0,"xT2":1058.1,"yT2":0,"toosoon":0,"cond_shown":"equaldotanddens","ratio_trial":500,"smaller_num":"9","larger_num":"18","correct_side":2,"subjID":"Sebastianpitagonzalez12","gender":"0","age":"8","school":"4"},{"start_time":1552310092456,"click_time":1552310094224,"finger_time":1552310093083,"fix_duration":250,"trial":7,"RT":627,"MT":1141,"sideResp":2,"stimulus":"img/250/equaldotsize/R/12_Ratio_250_L_5_R_20.png","xmouse":[791,791,791,791,791,791,791,791,791,791,791,791,791,791,791,791,791,791,791,791,791,791,791,791,791,791,791,791,787,786,784,778,772,769,762,751,736,730,726,721,719,715,715,715,715,715,715,716,717,719,720,726,731,739,756,788,835,856,870,875,877,879,880,881,883,888,895,898,901,904,908,922,933,949,967,995,1019,1026,1027,1030,1034,1045,1049,1052,1054,1058,1062,1065,1068],"ymouse":[483,483,483,483,483,483,483,483,483,483,483,483,483,483,483,483,483,483,483,483,483,483,483,483,483,483,483,483,479,473,468,450,437,425,407,378,342,328,318,309,302,293,293,293,293,293,291,290,290,289,289,289,286,285,278,267,246,233,220,214,210,206,206,205,203,198,191,188,185,184,182,177,174,168,160,150,140,136,135,133,129,123,120,117,115,112,105,100,96],"timestamp_mouse":[9,42,47,67,88,108,128,148,167,187,207,227,248,268,288,308,328,347,367,387,407,427,448,467,488,507,527,548,567,588,608,627,647,667,688,707,728,747,768,789,808,827,848,867,887,907,927,947,967,988,1007,1027,1048,1068,1087,1107,1128,1148,1167,1187,1208,1227,1248,1268,1288,1308,1327,1347,1367,1389,1408,1427,1448,1468,1488,1508,1528,1548,1567,1588,1608,1627,1648,1668,1688,1708,1728,1748,1768],"xSR":741.5,"ySR":458.25,"xT1":424.9,"yT1":0,"xT2":1058.1,"yT2":0,"toosoon":0,"cond_shown":"equaldotsize","ratio_trial":250,"smaller_num":"5","larger_num":"20","correct_side":2,"subjID":"Sebastianpitagonzalez12","gender":"0","age":"8","school":"4"},{"start_time":1552310096192,"click_time":1552310097343,"finger_time":1552310096544,"fix_duration":686.6850039464764,"trial":8,"RT":352,"MT":799,"sideResp":1,"stimulus":"img/250/randomdotsizeEA/L/15_Ratio_250_L_12_R_3.png","xmouse":[784,784,784,783,783,783,783,783,783,783,783,783,783,783,783,783,781,778,776,766,760,751,734,714,689,685,677,668,658,643,633,620,608,600,591,590,587,584,577,572,570,569,568,566,560,555,551,549,546,543,541,538,535,533,528,527,525,524],"ymouse":[465,465,465,464,464,464,464,464,464,464,464,464,464,464,464,464,460,457,454,439,427,410,385,357,319,307,293,280,265,239,226,213,199,191,178,175,170,165,154,141,137,134,131,126,113,104,97,93,88,82,78,75,71,66,60,58,56,54],"timestamp_mouse":[11,41,51,72,93,111,131,152,171,192,211,232,251,272,291,312,332,352,371,391,412,432,453,473,492,511,531,552,572,591,612,632,652,672,691,711,732,751,772,791,812,831,851,871,891,911,931,951,971,991,1011,1032,1051,1071,1092,1113,1132,1151],"xSR":741.5,"ySR":458.25,"xT1":424.9,"yT1":0,"xT2":1058.1,"yT2":0,"toosoon":0,"cond_shown":"randomdotsizeEA","ratio_trial":250,"smaller_num":"3","larger_num":"12","correct_side":1,"subjID":"Sebastianpitagonzalez12","gender":"0","age":"8","school":"4"},{"start_time":1552310099888,"click_time":1552310101744,"finger_time":1552310100444,"fix_duration":1063.8334500828403,"trial":9,"RT":556,"MT":1300,"sideResp":1,"stimulus":"img/900/randomdotsizeEA/L/2_Ratio_900_L_20_R_18.png","xmouse":[760,760,760,760,760,760,760,760,760,760,760,760,760,760,760,760,760,760,760,760,760,760,760,760,760,760,759,756,751,735,727,721,717,713,702,694,684,671,658,632,622,614,605,595,578,575,574,572,570,565,563,560,556,554,549,548,547,546,544,540,538,538,536,535,532,531,530,529,528,527,526,526,526,526,526,526,526,525,525,525,525,525,525,525,525,525,525,525,525,525,525,525,524],"ymouse":[482,482,482,482,482,482,482,482,482,482,482,482,482,482,482,482,482,482,482,482,482,482,481,478,473,467,461,451,437,407,393,385,380,375,359,349,338,325,312,286,276,267,256,244,221,217,212,208,203,194,187,181,172,165,152,147,144,140,136,127,123,120,117,113,108,104,100,95,92,86,85,83,83,82,82,82,82,81,81,81,81,81,81,81,81,81,81,81,81,81,81,81,79],"timestamp_mouse":[17,37,55,75,97,115,136,156,176,196,215,235,255,275,296,315,336,356,375,397,415,435,455,475,495,516,535,556,576,595,616,635,656,676,696,716,735,756,776,795,816,835,856,875,896,916,935,956,977,997,1015,1036,1056,1076,1096,1116,1136,1156,1176,1195,1215,1235,1257,1276,1296,1315,1335,1355,1377,1395,1415,1435,1455,1477,1496,1516,1535,1555,1576,1595,1615,1637,1655,1675,1695,1715,1735,1755,1775,1795,1816,1836,1856],"xSR":741.5,"ySR":458.25,"xT1":424.9,"yT1":0,"xT2":1058.1,"yT2":0,"toosoon":0,"cond_shown":"randomdotsizeEA","ratio_trial":900,"smaller_num":"18","larger_num":"20","correct_side":1,"subjID":"Sebastianpitagonzalez12","gender":"0","age":"8","school":"4"},{"start_time":1552310104622,"click_time":1552310105684,"finger_time":1552310105183,"fix_duration":1015.7876782238747,"trial":10,"RT":561,"MT":501,"sideResp":1,"stimulus":"img/750/randomdotsizeEA/R/2_Ratio_750_L_6_R_8.png","xmouse":[771,771,771,771,771,771,771,771,771,771,771,771,771,771,771,771,771,771,771,771,771,771,771,771,771,771,771,771,753,744,731,720,715,712,711,708,701,694,688,687,685,682,679,668,657,637,608,591,566,556,545,534,529,523],"ymouse":[493,493,493,493,493,493,493,493,493,493,493,493,493,493,493,493,493,493,493,493,493,493,493,493,493,493,487,480,434,423,414,406,401,399,395,390,378,365,345,335,325,315,300,265,244,217,182,156,107,88,71,55,45,28],"timestamp_mouse":[10,21,41,61,82,103,122,143,162,181,201,222,241,261,282,301,322,342,362,382,401,422,442,462,482,501,522,543,561,583,602,622,642,662,681,701,722,742,761,782,802,822,841,862,882,902,923,942,961,982,1003,1022,1042,1062],"xSR":741.5,"ySR":458.25,"xT1":424.9,"yT1":0,"xT2":1058.1,"yT2":0,"toosoon":0,"cond_shown":"randomdotsizeEA","ratio_trial":750,"smaller_num":"6","larger_num":"8","correct_side":2,"subjID":"Sebastianpitagonzalez12","gender":"0","age":"8","school":"4"},{"start_time":1552310108141,"click_time":1552310109284,"finger_time":1552310108904,"fix_duration":675.0972428542846,"trial":11,"RT":763,"MT":380,"sideResp":2,"stimulus":"img/900/equaldotanddens/L/1_Ratio_900_L_10_R_9.png","xmouse":[785,785,785,785,785,785,785,785,785,785,785,785,785,785,785,785,785,785,785,785,785,785,785,785,785,785,785,785,785,785,785,785,785,788,791,798,809,832,847,861,871,878,887,892,898,908,921,943,955,968,981,1000,1042,1075,1106,1120,1127,1121],"ymouse":[513,513,513,513,513,513,513,513,513,513,513,513,513,513,513,513,513,513,513,513,513,513,513,513,513,513,513,513,513,513,513,513,513,513,513,512,509,502,497,493,490,489,484,482,476,470,462,446,436,421,400,351,250,205,170,148,126,81],"timestamp_mouse":[9,23,43,63,83,104,122,142,162,182,202,224,242,262,284,302,323,342,362,384,402,423,442,462,482,502,523,542,563,582,602,622,642,663,684,702,723,744,763,782,802,822,842,863,882,903,923,944,963,982,1003,1024,1043,1062,1083,1103,1123,1142],"xSR":741.5,"ySR":458.25,"xT1":424.9,"yT1":0,"xT2":1058.1,"yT2":0,"toosoon":0,"cond_shown":"equaldotanddens","ratio_trial":900,"smaller_num":"9","larger_num":"10","correct_side":1,"subjID":"Sebastianpitagonzalez12","gender":"0","age":"8","school":"4"},{"start_time":1552310114004,"click_time":1552310115583,"finger_time":1552310114484,"fix_duration":899.20086487651,"trial":12,"RT":480,"MT":1099,"sideResp":1,"stimulus":"img/750/randomdotsizeEA/R/5_Ratio_750_L_15_R_20.png","xmouse":[770,770,770,770,769,769,769,769,769,769,769,769,769,769,769,769,769,769,769,769,769,769,769,760,748,739,731,728,727,726,724,716,709,699,695,691,687,684,671,667,664,661,658,651,647,643,641,640,637,635,631,624,613,601,596,591,589,586,578,574,570,566,562,558,554,549,545,542,539,539,539,539,539,539,538,538,535,531,523],"ymouse":[476,475,474,473,473,473,473,473,473,473,473,473,473,473,473,473,473,473,473,473,473,473,469,436,399,364,342,330,303,288,273,254,237,210,197,183,172,162,134,127,120,115,110,99,95,92,91,90,89,88,87,85,82,80,79,78,78,78,76,75,74,74,73,72,72,70,69,68,67,67,67,67,67,67,66,66,66,66,63],"timestamp_mouse":[19,40,62,79,99,121,141,161,180,199,220,240,259,279,301,320,339,360,380,399,420,440,460,480,500,519,540,559,579,599,619,640,660,679,700,719,739,759,779,800,820,841,860,880,900,920,940,959,979,1000,1019,1040,1059,1079,1100,1120,1139,1159,1180,1200,1220,1240,1260,1280,1299,1319,1340,1360,1380,1400,1420,1440,1459,1479,1499,1519,1540,1560,1579],"xSR":741.5,"ySR":458.25,"xT1":424.9,"yT1":0,"xT2":1058.1,"yT2":0,"toosoon":0,"cond_shown":"randomdotsizeEA","ratio_trial":750,"smaller_num":"15","larger_num":"20","correct_side":2,"subjID":"Sebastianpitagonzalez12","gender":"0","age":"8","school":"4"},{"start_time":1552310117472,"click_time":1552310119004,"finger_time":1552310118183,"fix_duration":347.81277044260605,"trial":13,"RT":711,"MT":821,"sideResp":2,"stimulus":"img/900/equaldotsize/R/3_Ratio_900_L_9_R_10.png","xmouse":[775,775,775,775,775,775,775,775,775,775,775,775,775,775,775,775,775,775,775,775,775,775,775,776,778,795,801,806,810,812,815,818,821,827,835,848,853,857,866,879,922,942,960,971,978,992,1001,1012,1020,1029,1039,1043,1046,1047,1048,1050,1051,1052,1052,1052,1054,1054,1055,1056,1056,1059,1060,1061,1062,1063,1064,1064,1065,1065,1067,1068,1068],"ymouse":[504,504,504,504,504,504,504,504,504,504,504,504,504,504,504,504,504,504,504,504,504,504,504,504,504,502,500,500,498,497,495,493,490,481,465,451,445,437,426,414,379,365,351,339,331,307,292,273,253,234,200,187,179,173,170,162,158,156,156,153,146,141,136,132,128,120,118,116,113,111,109,108,107,106,103,100,99],"timestamp_mouse":[15,31,52,71,91,111,132,153,172,191,212,231,252,273,292,311,332,352,371,391,411,432,451,471,492,511,532,552,573,592,611,632,651,672,691,711,732,752,772,792,812,832,852,872,891,911,932,952,972,993,1011,1032,1051,1072,1092,1111,1132,1151,1172,1192,1212,1232,1252,1272,1291,1312,1333,1351,1371,1392,1413,1433,1452,1473,1492,1512,1532],"xSR":741.5,"ySR":458.25,"xT1":424.9,"yT1":0,"xT2":1058.1,"yT2":0,"toosoon":0,"cond_shown":"equaldotsize","ratio_trial":900,"smaller_num":"9","larger_num":"10","correct_side":2,"subjID":"Sebastianpitagonzalez12","gender":"0","age":"8","school":"4"},{"start_time":1552310125567,"click_time":1552310127724,"finger_time":1552310126865,"fix_duration":1482.1655338308306,"trial":14,"RT":1298,"MT":859,"sideResp":1,"stimulus":"img/900/equaldotanddens/L/2_Ratio_900_L_20_R_18.png","xmouse":[790,790,790,790,790,790,790,790,790,790,790,790,790,790,790,790,790,790,790,790,790,790,790,790,790,790,790,790,790,790,790,790,790,790,790,790,790,790,790,790,790,790,790,790,790,790,790,790,790,790,788,788,788,788,787,786,783,782,781,781,777,770,764,757,752,748,745,740,734,723,706,698,688,678,669,658,651,646,639,627,616,611,605,597,584,567,561,557,554,550,545,544,544,544,544,544,544,544,544,544,544,544,544,544,544,540,530,519],"ymouse":[512,508,506,506,506,506,506,506,506,506,506,506,506,506,506,506,506,506,506,506,506,506,506,506,506,506,506,506,506,506,506,506,506,506,506,506,506,506,506,506,506,506,506,506,506,506,506,506,506,506,504,504,504,504,503,500,496,495,493,492,487,478,471,460,454,448,441,431,418,398,364,343,321,297,276,250,237,221,201,170,137,121,105,88,70,46,37,33,28,22,17,17,16,16,16,16,16,16,16,16,16,16,16,16,16,16,19,22],"timestamp_mouse":[16,38,56,76,97,117,136,158,177,197,216,237,256,277,297,317,337,357,376,398,416,437,457,476,496,516,537,557,576,596,617,637,663,676,696,716,738,757,777,797,816,837,857,876,896,917,937,956,978,997,1016,1038,1057,1076,1097,1116,1136,1156,1177,1197,1216,1236,1258,1277,1298,1316,1336,1357,1377,1396,1416,1436,1456,1478,1497,1517,1536,1557,1577,1596,1616,1637,1657,1676,1697,1716,1738,1758,1776,1796,1816,1836,1857,1877,1897,1917,1937,1957,1977,1997,2016,2038,2057,2076,2097,2116,2137,2157],"xSR":741.5,"ySR":458.25,"xT1":424.9,"yT1":0,"xT2":1058.1,"yT2":0,"toosoon":0,"cond_shown":"equaldotanddens","ratio_trial":900,"smaller_num":"18","larger_num":"20","correct_side":1,"subjID":"Sebastianpitagonzalez12","gender":"0","age":"8","school":"4"},{"start_time":1552310154418,"click_time":1552310156183,"finger_time":1552310155443,"fix_duration":1433.320395945903,"trial":15,"RT":1025,"MT":740,"sideResp":1,"stimulus":"img/900/equaldotanddens/L/1_Ratio_900_L_10_R_9.png","xmouse":[817,817,817,817,817,817,817,817,814,810,807,802,799,799,799,799,799,799,799,799,799,799,799,799,799,799,799,799,799,799,799,799,799,799,799,799,799,799,799,799,799,799,799,799,799,799,798,797,793,791,787,784,781,774,771,767,763,755,747,742,734,717,686,601,566,566,566,566,566,566,566,566,566,566,566,566,566,566,566,566,566,566,566,566,566,566,566,515,514],"ymouse":[476,476,476,476,476,476,476,476,479,481,483,486,487,488,488,488,488,488,488,488,488,488,488,488,488,488,488,488,488,488,488,488,488,488,488,488,488,488,488,488,488,488,488,488,488,488,488,488,475,467,459,454,448,439,435,429,421,409,393,376,347,288,210,56,4,4,4,4,4,4,4,4,4,4,4,4,4,4,4,4,4,4,4,4,4,4,4,0,1],"timestamp_mouse":[12,49,49,65,86,105,125,146,165,186,206,225,247,265,285,305,325,345,365,385,406,426,446,465,486,506,526,546,565,585,605,626,646,667,687,706,726,746,765,786,806,825,847,866,886,906,926,946,965,986,1006,1025,1045,1065,1086,1105,1126,1147,1166,1187,1206,1225,1245,1266,1286,1307,1326,1345,1365,1385,1406,1427,1446,1466,1485,1505,1526,1546,1566,1585,1605,1627,1646,1667,1686,1706,1726,1745,1765],"xSR":741.5,"ySR":458.25,"xT1":424.9,"yT1":0,"xT2":1058.1,"yT2":0,"toosoon":0,"cond_shown":"equaldotanddens","ratio_trial":900,"smaller_num":"9","larger_num":"10","correct_side":1,"subjID":"Sebastianpitagonzalez12","gender":"0","age":"8","school":"4"},{"start_time":1552310157876,"click_time":1552310159763,"finger_time":1552310158643,"fix_duration":250,"trial":16,"RT":767,"MT":1120,"sideResp":1,"stimulus":"img/250/randomdotsizeEA/L/15_Ratio_250_L_12_R_3.png","xmouse":[778,778,778,778,778,778,778,778,778,778,778,778,778,778,778,778,778,778,778,778,778,778,778,778,778,778,779,783,784,788,795,797,801,806,810,827,834,838,843,848,852,854,854,854,854,855,855,855,855,855,854,853,849,846,843,813,786,746,709,678,646,641,637,634,629,613,609,607,607,607,607,607,607,607,607,602,597,591,585,579,575,575,575,575,575,575,575,575,575,574,566,558,547,531,511],"ymouse":[502,502,502,502,502,502,502,502,502,502,502,502,502,502,502,502,502,502,502,502,502,502,502,502,502,502,502,502,502,500,497,495,492,490,487,478,475,473,471,469,466,465,465,465,465,464,464,463,461,456,447,442,435,425,414,352,292,233,187,158,134,130,127,123,115,90,85,83,83,83,83,83,83,83,82,79,75,70,63,55,49,49,49,49,49,49,49,49,49,49,49,48,46,44,41],"timestamp_mouse":[12,37,47,68,88,107,127,148,167,188,207,228,247,267,288,307,328,348,368,387,407,428,447,468,487,507,527,548,567,588,607,627,648,668,688,707,728,747,767,788,807,827,847,868,887,907,927,948,967,988,1008,1026,1047,1066,1086,1107,1127,1147,1167,1187,1208,1227,1247,1267,1287,1307,1328,1348,1367,1388,1407,1427,1448,1468,1488,1507,1527,1547,1567,1587,1607,1627,1647,1667,1687,1707,1727,1747,1768,1788,1807,1827,1847,1867,1887],"xSR":741.5,"ySR":458.25,"xT1":424.9,"yT1":0,"xT2":1058.1,"yT2":0,"toosoon":0,"cond_shown":"randomdotsizeEA","ratio_trial":250,"smaller_num":"3","larger_num":"12","correct_side":1,"subjID":"Sebastianpitagonzalez12","gender":"0","age":"8","school":"4"},{"start_time":1552310161517,"click_time":1552310163065,"finger_time":1552310162383,"fix_duration":250,"trial":17,"RT":866,"MT":682,"sideResp":2,"stimulus":"img/500/randomdotsizeEA/R/12_Ratio_500_L_1_R_2.png","xmouse":[790,790,790,790,790,790,790,790,790,790,790,790,790,790,790,790,790,790,790,790,790,790,790,791,791,791,791,791,791,791,791,791,791,791,791,791,791,791,791,791,791,793,797,815,824,831,838,846,859,867,876,886,898,927,938,952,961,973,992,999,1007,1017,1033,1050,1055,1061,1064,1065,1070,1071,1072,1073,1075,1084,1086,1091,1094,1096],"ymouse":[471,471,471,471,471,471,471,471,471,471,471,471,471,471,471,471,471,471,471,471,471,472,473,475,475,475,476,476,476,476,476,476,476,476,476,476,476,476,476,476,476,476,474,451,440,434,428,423,413,405,398,388,378,354,344,332,320,305,277,269,258,243,221,197,190,183,178,177,170,169,167,165,162,143,133,118,104,96],"timestamp_mouse":[9,26,47,66,86,106,126,147,167,187,207,227,247,266,287,306,326,347,367,387,406,426,446,466,486,507,527,547,566,587,606,625,646,666,687,707,726,745,765,787,806,826,847,866,886,906,926,946,966,987,1006,1026,1046,1067,1086,1106,1126,1146,1166,1186,1207,1226,1246,1266,1287,1306,1325,1347,1367,1386,1407,1426,1447,1466,1486,1506,1527,1547],"xSR":741.5,"ySR":458.25,"xT1":424.9,"yT1":0,"xT2":1058.1,"yT2":0,"toosoon":0,"cond_shown":"randomdotsizeEA","ratio_trial":500,"smaller_num":"1","larger_num":"2","correct_side":2,"subjID":"Sebastianpitagonzalez12","gender":"0","age":"8","school":"4"},{"start_time":1552310165765,"click_time":1552310167023,"finger_time":1552310166564,"fix_duration":1380.2593636872234,"trial":18,"RT":799,"MT":459,"sideResp":1,"stimulus":"img/500/equaldotsize/L/8_Ratio_500_L_8_R_4.png","xmouse":[820,820,820,820,820,820,820,820,820,820,820,820,820,820,820,820,820,820,820,820,820,820,820,820,820,820,820,820,820,820,820,820,820,820,820,820,817,812,803,790,771,763,755,747,737,715,704,693,682,672,640,625,611,599,584,565,559,555,554,549,532,526,524],"ymouse":[480,480,480,480,480,480,480,480,480,480,480,480,480,480,480,480,480,480,480,480,480,480,480,480,480,480,480,480,480,480,480,480,480,480,480,480,480,476,465,451,421,406,387,367,347,308,287,263,242,225,171,150,130,116,99,81,77,75,74,70,58,55,53],"timestamp_mouse":[18,38,67,78,99,119,139,159,177,199,218,239,259,277,298,319,339,358,379,399,418,438,459,479,498,519,539,558,579,598,619,639,658,679,698,719,738,759,777,799,818,839,859,878,899,917,939,958,979,998,1018,1037,1057,1078,1099,1118,1139,1157,1178,1198,1219,1239,1258],"xSR":741.5,"ySR":458.25,"xT1":424.9,"yT1":0,"xT2":1058.1,"yT2":0,"toosoon":0,"cond_shown":"equaldotsize","ratio_trial":500,"smaller_num":"4","larger_num":"8","correct_side":1,"subjID":"Sebastianpitagonzalez12","gender":"0","age":"8","school":"4"},{"start_time":1552310168685,"click_time":1552310170282,"finger_time":1552310169443,"fix_duration":500.95743050706244,"trial":19,"RT":758,"MT":839,"sideResp":2,"stimulus":"img/750/equaldotsize/R/4_Ratio_750_L_15_R_20.png","xmouse":[791,791,791,791,791,791,791,791,791,791,791,791,791,791,791,791,791,791,791,791,791,791,791,791,791,791,791,791,791,791,791,791,791,791,794,800,811,830,896,924,949,975,1002,1024,1047,1050,1050,1050,1050,1050,1050,1050,1050,1044,1044,1044,1046,1049,1049,1052,1053,1054,1055,1057,1060,1062,1064,1065,1067,1069,1069,1069,1070,1070,1072,1073,1074,1076,1077,1078],"ymouse":[487,487,487,487,487,487,487,487,487,487,487,487,487,487,487,487,487,487,487,487,487,487,487,487,487,487,487,487,487,487,487,487,487,487,488,477,462,446,421,414,405,393,383,374,353,340,328,320,314,304,298,289,274,254,243,239,234,231,227,219,216,210,207,200,189,182,174,166,156,141,136,135,133,132,124,119,113,108,102,97],"timestamp_mouse":[19,41,58,78,99,118,138,159,179,198,219,238,258,279,299,318,338,359,379,398,418,439,457,479,499,518,539,559,578,598,618,639,658,679,698,718,738,758,780,797,817,838,858,879,898,919,938,957,978,998,1019,1039,1059,1079,1098,1119,1138,1158,1177,1198,1218,1238,1258,1277,1299,1319,1339,1358,1378,1398,1418,1439,1458,1478,1499,1518,1539,1558,1578,1597],"xSR":741.5,"ySR":458.25,"xT1":424.9,"yT1":0,"xT2":1058.1,"yT2":0,"toosoon":0,"cond_shown":"equaldotsize","ratio_trial":750,"smaller_num":"15","larger_num":"20","correct_side":2,"subjID":"Sebastianpitagonzalez12","gender":"0","age":"8","school":"4"},{"start_time":1552310171882,"click_time":1552310172763,"finger_time":1552310172382,"fix_duration":438.1340550732957,"trial":20,"RT":500,"MT":381,"sideResp":1,"stimulus":"img/750/randomdotsizeEA/R/2_Ratio_750_L_6_R_8.png","xmouse":[813,813,813,813,813,813,813,813,813,813,813,813,813,813,813,813,813,813,813,813,813,813,813,810,805,779,768,755,742,735,724,716,706,692,675,634,621,608,597,585,562,548,535,524,520],"ymouse":[478,478,478,478,478,478,478,478,478,478,478,478,478,478,478,478,478,478,478,478,478,478,478,478,475,445,429,413,398,388,374,362,345,323,300,242,225,210,197,180,148,129,114,100,95],"timestamp_mouse":[11,22,41,62,81,101,121,141,162,182,202,222,241,262,282,300,321,340,361,381,401,421,441,462,481,500,521,541,562,580,602,620,641,662,682,701,721,740,761,782,802,822,841,862,880],"xSR":741.5,"ySR":458.25,"xT1":424.9,"yT1":0,"xT2":1058.1,"yT2":0,"toosoon":0,"cond_shown":"randomdotsizeEA","ratio_trial":750,"smaller_num":"6","larger_num":"8","correct_side":2,"subjID":"Sebastianpitagonzalez12","gender":"0","age":"8","school":"4"},{"start_time":1552310175723,"click_time":1552310177284,"finger_time":1552310176603,"fix_duration":1338.0560846288633,"trial":21,"RT":880,"MT":681,"sideResp":1,"stimulus":"img/250/equaldotanddens/L/7_Ratio_250_L_8_R_2.png","xmouse":[801,800,799,798,798,798,797,797,797,797,797,797,797,797,797,797,797,797,797,797,797,797,797,797,797,797,797,797,797,797,797,797,797,797,797,797,797,797,797,797,797,797,797,795,794,791,789,786,775,772,767,762,757,728,714,697,678,657,605,583,570,565,565,565,565,565,565,565,565,565,565,565,565,565,565,565,565,502,497],"ymouse":[486,484,482,481,480,479,479,479,479,478,478,478,478,478,478,478,478,478,478,478,478,478,478,478,478,478,478,478,478,478,478,478,478,478,478,478,478,478,477,475,474,473,471,462,456,448,441,430,402,391,380,369,357,308,282,250,216,170,65,28,10,2,2,2,2,2,2,2,2,2,2,2,2,2,2,2,2,0,6],"timestamp_mouse":[1,20,40,60,80,100,120,139,159,180,201,220,241,261,280,300,321,340,360,380,400,421,441,460,481,501,520,540,560,580,601,620,639,660,681,701,721,740,760,780,799,821,840,860,880,901,920,941,960,980,1000,1021,1040,1060,1080,1101,1120,1141,1161,1180,1201,1220,1240,1261,1280,1300,1321,1340,1361,1381,1401,1421,1440,1461,1480,1500,1521,1541,1560],"xSR":741.5,"ySR":458.25,"xT1":424.9,"yT1":0,"xT2":1058.1,"yT2":0,"toosoon":0,"cond_shown":"equaldotanddens","ratio_trial":250,"smaller_num":"2","larger_num":"8","correct_side":1,"subjID":"Sebastianpitagonzalez12","gender":"0","age":"8","school":"4"},{"start_time":1552310178901,"click_time":1552310181683,"finger_time":1552310179623,"fix_duration":836.6003262558055,"trial":22,"RT":722,"MT":2060,"sideResp":1,"stimulus":"img/500/equaldotsize/L/4_Ratio_500_L_18_R_9.png","xmouse":[765,765,765,765,765,765,765,765,765,765,765,765,765,765,765,765,765,765,765,765,765,765,765,765,765,765,765,765,765,765,768,769,777,786,822,833,842,847,850,854,858,863,871,880,906,915,924,933,942,959,968,974,979,985,987,988,989,989,989,990,990,991,991,992,992,992,992,992,992,992,992,992,992,992,985,969,949,930,916,897,890,887,885,884,881,877,870,863,854,838,829,819,810,803,784,778,770,763,756,737,722,706,689,668,626,614,607,599,594,584,576,567,560,553,547,546,545,544,544,542,540,538,537,535,533,532,531,530,529,528,528,528,528,528,528,528,528,527,526,523],"ymouse":[513,513,513,513,513,513,513,513,513,513,513,513,513,513,513,513,513,513,513,513,513,513,513,513,513,513,513,513,513,513,513,512,506,500,477,469,462,459,457,454,449,442,432,419,381,369,357,344,334,303,285,272,259,244,238,235,232,230,226,222,219,217,215,214,213,212,210,209,209,209,209,209,209,209,198,184,169,160,151,140,137,135,134,134,133,132,130,128,127,124,123,122,120,119,116,113,112,111,110,107,105,103,100,97,89,87,86,84,82,78,74,70,67,63,58,57,56,55,55,54,53,52,52,51,51,51,50,50,50,50,50,50,50,50,50,50,50,50,49,49],"timestamp_mouse":[6,23,42,64,82,102,122,143,162,182,203,223,242,263,282,302,323,343,363,383,403,422,443,462,483,502,522,543,562,582,602,622,642,662,681,703,722,743,762,782,802,823,842,862,882,902,921,943,962,982,1002,1023,1042,1061,1082,1101,1122,1142,1163,1183,1202,1223,1242,1263,1282,1302,1322,1341,1361,1381,1402,1423,1443,1461,1481,1502,1523,1542,1563,1582,1603,1623,1642,1664,1682,1702,1721,1743,1762,1782,1802,1823,1842,1862,1882,1903,1922,1942,1961,1983,2002,2023,2042,2062,2081,2103,2123,2142,2164,2182,2201,2223,2243,2262,2282,2303,2323,2342,2362,2382,2403,2422,2442,2464,2482,2502,2521,2543,2563,2582,2603,2622,2643,2662,2682,2701,2723,2743,2762,2782],"xSR":741.5,"ySR":458.25,"xT1":424.9,"yT1":0,"xT2":1058.1,"yT2":0,"toosoon":0,"cond_shown":"equaldotsize","ratio_trial":500,"smaller_num":"9","larger_num":"18","correct_side":1,"subjID":"Sebastianpitagonzalez12","gender":"0","age":"8","school":"4"},{"start_time":1552310183837,"click_time":1552310185483,"finger_time":1552310184583,"fix_duration":512.3586491089962,"trial":23,"RT":746,"MT":900,"sideResp":2,"stimulus":"img/900/randomdotsizeEA/L/4_Ratio_900_L_20_R_18.png","xmouse":[767,767,767,768,768,769,769,770,770,770,770,771,771,771,771,771,771,771,771,771,771,771,771,771,771,771,771,772,773,775,777,778,780,781,782,785,788,802,812,824,836,851,878,897,918,937,959,1000,1007,1012,1015,1018,1021,1022,1023,1024,1026,1030,1033,1036,1037,1040,1042,1043,1044,1045,1046,1047,1048,1049,1050,1051,1053,1054,1055,1055,1056,1057,1057,1057,1057,1057,1061],"ymouse":[476,477,478,478,479,480,481,483,484,484,484,485,485,485,485,485,485,485,485,485,485,485,485,485,485,485,485,485,484,483,481,480,476,475,474,471,468,457,448,435,417,396,352,332,315,301,285,259,252,248,240,235,231,230,228,224,220,205,198,189,181,174,165,161,157,154,151,146,142,136,130,125,117,114,112,110,108,103,102,101,101,100,96],"timestamp_mouse":[7,27,48,66,87,107,127,146,167,185,207,227,247,267,287,306,325,346,367,386,407,425,447,467,485,506,526,546,566,585,607,626,647,665,685,707,727,746,767,786,807,827,846,866,886,905,926,946,966,986,1007,1027,1046,1065,1086,1106,1126,1145,1166,1187,1206,1227,1245,1266,1287,1306,1328,1346,1367,1387,1405,1426,1447,1466,1487,1506,1527,1546,1566,1586,1605,1627,1646],"xSR":741.5,"ySR":458.25,"xT1":424.9,"yT1":0,"xT2":1058.1,"yT2":0,"toosoon":0,"cond_shown":"randomdotsizeEA","ratio_trial":900,"smaller_num":"18","larger_num":"20","correct_side":1,"subjID":"Sebastianpitagonzalez12","gender":"0","age":"8","school":"4"},{"start_time":1552310190386,"click_time":1552310192724,"finger_time":1552310190423,"fix_duration":401.40824767788706,"trial":24,"RT":37,"MT":2301,"sideResp":1,"stimulus":"img/250/randomdotsizeEA/L/15_Ratio_250_L_12_R_3.png","xmouse":[804,805,805,805,805,805,805,805,805,805,805,805,802,801,801,800,800,800,800,800,800,800,800,797,795,793,791,789,785,781,778,773,769,765,763,763,763,763,763,763,763,763,763,763,763,763,763,763,763,763,763,763,763,763,763,763,763,763,759,757,755,752,749,742,741,739,739,738,737,737,736,734,732,725,720,712,704,698,682,677,674,671,665,662,659,656,650,642,625,619,615,613,610,601,595,590,584,573,559,552,547,544,541,539,539,539,539,539,539,539,539,539,539,537,530,519],"ymouse":[451,440,437,437,437,437,437,437,437,437,436,421,406,389,385,383,383,383,383,383,383,383,383,385,390,395,400,404,415,423,432,441,452,463,465,466,466,466,466,466,466,466,466,466,466,466,466,466,466,466,466,466,466,466,466,466,466,462,440,429,421,410,399,375,367,361,355,351,343,339,335,329,321,302,292,278,266,257,237,232,228,225,218,216,211,207,203,199,190,186,183,182,178,164,156,148,139,120,93,81,73,69,64,62,62,62,62,62,62,62,62,62,62,62,62,62],"timestamp_mouse":[37,58,79,98,117,138,158,178,197,217,236,257,278,297,317,338,358,378,397,418,438,457,477,497,518,538,558,578,597,618,637,657,676,696,718,737,757,777,798,817,838,858,877,897,918,937,958,978,998,1017,1037,1058,1077,1097,1117,1137,1157,1177,1197,1216,1237,1257,1277,1298,1317,1338,1357,1378,1397,1416,1437,1458,1478,1498,1518,1538,1557,1579,1597,1618,1637,1658,1679,1697,1716,1737,1757,1778,1797,1817,1838,1857,1877,1898,1916,1938,1958,1978,1998,2017,2038,2057,2077,2097,2117,2138,2157,2176,2197,2217,2238,2257,2277,2298,2317,2338],"xSR":741.5,"ySR":458.25,"xT1":424.9,"yT1":0,"xT2":1058.1,"yT2":0,"toosoon":0,"cond_shown":"randomdotsizeEA","ratio_trial":250,"smaller_num":"3","larger_num":"12","correct_side":1,"subjID":"Sebastianpitagonzalez12","gender":"0","age":"8","school":"4"},{"start_time":1552310195982,"click_time":1552310196984,"finger_time":1552310196824,"fix_duration":798.1816823067059,"trial":25,"RT":842,"MT":160,"sideResp":2,"stimulus":"img/750/equaldotsize/R/3_Ratio_750_L_15_R_20.png","xmouse":[782,782,782,782,782,782,782,782,782,782,782,782,782,782,782,782,782,782,782,782,782,782,782,782,782,782,782,782,782,782,782,785,785,786,786,786,786,786,786,787,797,810,830,862,894,951,978,1013,1044,1062,1075],"ymouse":[468,468,486,506,507,507,507,507,507,507,507,507,507,507,507,507,507,507,507,507,507,507,507,507,507,507,507,507,507,507,507,505,502,500,499,499,499,499,499,497,486,471,448,408,368,283,238,186,142,115,86],"timestamp_mouse":[12,22,41,61,81,102,121,142,162,182,201,222,242,260,280,301,322,341,362,381,402,421,442,461,482,501,522,542,561,581,602,621,641,661,681,702,722,743,761,781,801,822,842,862,882,901,922,942,962,981,1002],"xSR":741.5,"ySR":458.25,"xT1":424.9,"yT1":0,"xT2":1058.1,"yT2":0,"toosoon":0,"cond_shown":"equaldotsize","ratio_trial":750,"smaller_num":"15","larger_num":"20","correct_side":2,"subjID":"Sebastianpitagonzalez12","gender":"0","age":"8","school":"4"},{"start_time":1552310200954,"click_time":1552310202223,"finger_time":1552310201483,"fix_duration":1069.7861502100418,"trial":26,"RT":529,"MT":740,"sideResp":1,"stimulus":"img/250/equaldotsize/L/3_Ratio_250_L_8_R_2.png","xmouse":[794,794,794,794,794,794,794,794,794,794,794,794,794,794,794,794,794,794,794,794,794,794,794,794,794,794,784,772,764,758,751,738,732,723,716,710,702,696,691,686,677,660,655,649,641,632,613,605,600,596,596,595,591,588,582,579,572,567,562,553,545,533,528,522],"ymouse":[502,502,502,502,502,502,502,502,502,502,502,502,502,502,502,502,502,502,502,502,502,502,502,502,499,490,410,368,342,322,294,247,228,211,197,187,175,169,163,158,152,142,139,136,132,129,121,118,115,113,113,112,110,107,104,101,97,92,87,78,69,57,51,44],"timestamp_mouse":[9,45,49,68,90,109,129,148,168,190,209,230,250,268,290,310,329,349,369,390,410,430,449,468,489,509,529,550,569,590,611,629,650,669,690,709,730,749,770,789,811,829,850,869,889,909,930,950,969,989,1010,1029,1049,1070,1089,1111,1129,1150,1169,1190,1210,1228,1249,1269],"xSR":741.5,"ySR":458.25,"xT1":424.9,"yT1":0,"xT2":1058.1,"yT2":0,"toosoon":0,"cond_shown":"equaldotsize","ratio_trial":250,"smaller_num":"2","larger_num":"8","correct_side":1,"subjID":"Sebastianpitagonzalez12","gender":"0","age":"8","school":"4"},{"start_time":1552310204382,"click_time":1552310206323,"finger_time":1552310205343,"fix_duration":1017.4310579951912,"trial":27,"RT":961,"MT":980,"sideResp":1,"stimulus":"img/500/randomdotsizeEA/R/1_Ratio_500_L_9_R_18.png","xmouse":[790,790,790,790,790,790,790,791,791,791,791,791,791,791,791,791,791,791,791,791,791,791,791,791,791,791,791,791,791,791,791,791,791,791,791,791,791,792,792,792,792,792,792,792,792,792,792,792,792,789,781,776,771,766,760,744,734,725,713,702,680,673,669,664,657,647,643,639,639,637,632,627,621,618,616,613,609,603,592,583,572,570,568,565,562,557,554,551,548,546,542,538,535,530,523,514,512,509],"ymouse":[517,517,517,517,517,517,517,516,515,515,515,514,514,514,514,513,512,512,512,512,512,512,512,511,510,510,510,509,509,507,506,506,504,503,503,502,500,498,496,495,487,485,481,479,477,471,466,459,448,427,399,386,372,362,351,332,322,315,307,299,284,279,276,271,266,258,255,250,250,248,239,233,230,229,228,228,226,224,221,217,211,209,206,202,197,187,182,176,173,168,157,150,142,134,124,108,102,96],"timestamp_mouse":[10,21,48,61,82,102,122,141,162,181,202,222,242,261,281,301,321,341,362,381,402,421,442,461,480,502,522,542,561,581,601,621,642,661,680,701,727,741,761,782,801,821,841,861,882,901,922,941,961,981,1001,1021,1041,1061,1081,1101,1121,1142,1161,1183,1201,1222,1241,1262,1281,1301,1322,1348,1361,1381,1401,1421,1441,1462,1481,1501,1521,1541,1561,1580,1602,1622,1641,1660,1681,1701,1721,1742,1760,1782,1802,1821,1841,1862,1881,1900,1921,1941],"xSR":741.5,"ySR":458.25,"xT1":424.9,"yT1":0,"xT2":1058.1,"yT2":0,"toosoon":0,"cond_shown":"randomdotsizeEA","ratio_trial":500,"smaller_num":"9","larger_num":"18","correct_side":2,"subjID":"Sebastianpitagonzalez12","gender":"0","age":"8","school":"4"},{"start_time":1552310208472,"click_time":1552310210903,"finger_time":1552310209183,"fix_duration":688.2840569016059,"trial":28,"RT":711,"MT":1720,"sideResp":2,"stimulus":"img/900/equaldotanddens/R/9_Ratio_900_L_18_R_20.png","xmouse":[779,779,779,779,779,779,779,779,779,779,779,779,779,779,779,779,779,779,779,779,779,779,779,779,779,779,779,779,779,779,782,784,786,788,789,797,800,804,811,819,843,854,863,868,872,876,877,880,881,883,887,891,894,898,901,911,917,921,927,934,954,965,971,976,981,991,993,995,996,997,999,1000,1001,1002,1005,1007,1009,1009,1010,1011,1012,1013,1015,1016,1017,1022,1023,1026,1028,1030,1035,1036,1037,1039,1039,1040,1040,1041,1042,1043,1044,1046,1046,1047,1048,1050,1050,1050,1050,1050,1050,1050,1050,1050,1051,1051,1051,1052,1052,1053,1056,1059],"ymouse":[492,492,492,492,492,492,492,492,492,492,492,492,492,492,492,492,492,492,492,492,492,492,492,492,492,492,492,492,492,489,483,477,472,465,464,458,456,452,443,428,385,362,348,341,335,332,332,330,329,327,322,319,318,316,313,306,303,299,293,286,269,261,257,253,249,238,235,233,231,229,226,223,222,221,217,212,211,209,208,206,204,203,199,197,195,184,180,175,169,163,153,149,146,143,141,139,138,137,135,134,131,128,125,124,121,118,118,118,118,117,117,117,117,117,116,116,116,115,113,111,103,97],"timestamp_mouse":[11,43,52,71,91,111,132,151,171,191,211,231,251,271,292,311,332,350,371,392,412,432,452,472,491,511,532,550,572,591,612,632,651,672,692,711,731,750,772,792,811,832,852,871,892,910,930,951,971,992,1011,1032,1051,1072,1091,1111,1131,1151,1171,1191,1211,1231,1252,1271,1291,1311,1332,1352,1372,1392,1411,1431,1451,1470,1492,1512,1531,1551,1572,1592,1611,1632,1652,1671,1691,1711,1731,1752,1771,1791,1811,1832,1852,1871,1892,1911,1931,1951,1972,1991,2011,2032,2051,2070,2091,2112,2131,2152,2171,2192,2212,2231,2251,2270,2290,2311,2331,2352,2371,2392,2412,2431],"xSR":741.5,"ySR":458.25,"xT1":424.9,"yT1":0,"xT2":1058.1,"yT2":0,"toosoon":0,"cond_shown":"equaldotanddens","ratio_trial":900,"smaller_num":"18","larger_num":"20","correct_side":2,"subjID":"Sebastianpitagonzalez12","gender":"0","age":"8","school":"4"},{"start_time":1552310213861,"click_time":1552310215465,"finger_time":1552310214663,"fix_duration":1456.3735353535615,"trial":29,"RT":802,"MT":802,"sideResp":1,"stimulus":"img/750/randomdotsizeEA/R/5_Ratio_750_L_15_R_20.png","xmouse":[784,784,784,784,784,784,784,784,784,784,784,784,784,784,784,784,784,784,784,784,784,784,786,791,796,802,803,803,803,803,803,804,805,806,806,806,804,801,794,783,769,726,702,680,661,651,632,629,625,622,620,618,617,616,616,616,614,611,607,604,603,602,598,594,590,588,582,578,568,562,558,554,554,553,553,552,550,545,538,530,524],"ymouse":[495,495,495,495,495,495,495,495,495,495,495,495,495,495,495,495,495,495,495,495,495,495,497,505,512,520,521,521,521,521,520,512,503,497,493,491,489,484,474,459,438,365,320,283,255,239,207,198,186,175,165,138,128,121,115,109,97,90,85,80,79,77,75,72,69,68,65,63,60,58,57,57,57,57,56,56,55,54,52,50,49],"timestamp_mouse":[11,33,41,63,83,102,122,143,162,183,203,222,243,262,282,302,322,343,362,382,402,423,442,462,482,502,522,542,562,582,602,623,643,663,682,703,722,743,762,782,802,823,841,862,882,902,922,943,962,982,1002,1022,1042,1063,1082,1102,1121,1142,1162,1182,1203,1223,1243,1262,1282,1302,1323,1342,1362,1382,1402,1421,1443,1461,1483,1502,1523,1542,1562,1582,1603],"xSR":741.5,"ySR":458.25,"xT1":424.9,"yT1":0,"xT2":1058.1,"yT2":0,"toosoon":0,"cond_shown":"randomdotsizeEA","ratio_trial":750,"smaller_num":"15","larger_num":"20","correct_side":2,"subjID":"Sebastianpitagonzalez12","gender":"0","age":"8","school":"4"},{"start_time":1552310217972,"click_time":1552310219582,"finger_time":1552310218504,"fix_duration":947.7124523365674,"trial":30,"RT":532,"MT":1078,"sideResp":2,"stimulus":"img/750/equaldotanddens/L/8_Ratio_750_L_4_R_3.png","xmouse":[787,787,787,787,787,787,787,787,787,787,787,787,787,787,787,788,790,791,792,793,801,805,809,816,822,837,845,853,859,868,901,914,922,931,936,951,958,965,970,978,990,998,1006,1013,1019,1028,1030,1031,1031,1031,1035,1035,1035,1037,1037,1039,1040,1041,1041,1042,1046,1047,1048,1049,1050,1052,1052,1054,1055,1056,1057,1057,1057,1058,1058,1059,1060,1060,1062,1063,1065],"ymouse":[522,522,522,522,522,522,522,522,522,522,522,522,522,522,522,521,521,520,520,519,516,515,513,509,505,494,488,483,478,471,442,432,424,418,412,395,385,377,370,357,338,324,311,298,285,258,242,224,208,193,173,170,167,164,160,155,152,150,148,145,138,134,131,130,127,123,121,118,116,115,112,112,112,111,111,109,106,106,105,103,99],"timestamp_mouse":[10,42,51,71,91,111,132,150,170,192,210,232,251,270,291,311,332,350,372,391,410,431,451,471,490,510,532,551,572,591,611,630,651,671,692,711,730,752,770,790,810,831,850,872,891,911,931,951,971,991,1010,1032,1051,1072,1092,1112,1131,1152,1172,1192,1210,1231,1252,1272,1292,1312,1332,1351,1371,1392,1411,1430,1451,1472,1491,1511,1531,1551,1571,1593,1610],"xSR":741.5,"ySR":458.25,"xT1":424.9,"yT1":0,"xT2":1058.1,"yT2":0,"toosoon":0,"cond_shown":"equaldotanddens","ratio_trial":750,"smaller_num":"3","larger_num":"4","correct_side":1,"subjID":"Sebastianpitagonzalez12","gender":"0","age":"8","school":"4"},{"start_time":1552310221750,"click_time":1552310223103,"finger_time":1552310222264,"fix_duration":1006.347110411418,"trial":31,"RT":514,"MT":839,"sideResp":1,"stimulus":"img/750/equaldotsize/R/3_Ratio_750_L_15_R_20.png","xmouse":[788,788,788,788,788,788,788,788,788,788,788,788,788,788,788,788,788,788,788,788,788,788,788,785,780,771,750,738,727,717,708,689,683,675,667,658,638,630,620,609,597,572,566,562,560,559,557,556,556,556,556,554,554,554,554,554,554,554,554,554,554,553,550,547,543,537,526,520],"ymouse":[484,484,484,484,484,484,484,484,484,484,484,484,484,484,484,484,484,484,484,484,484,484,484,481,470,449,403,380,356,336,317,283,270,253,234,213,175,158,135,111,90,52,44,38,34,33,30,29,28,28,28,27,27,27,27,27,27,27,27,27,27,27,27,26,24,23,19,17],"timestamp_mouse":[15,39,53,74,92,114,133,152,174,192,213,233,252,273,293,313,334,353,374,392,413,433,453,473,493,514,532,552,573,594,614,633,653,672,692,713,734,753,773,792,814,833,854,872,894,913,933,953,973,994,1014,1033,1054,1074,1093,1114,1132,1154,1173,1193,1214,1233,1253,1273,1293,1314,1334,1353],"xSR":741.5,"ySR":458.25,"xT1":424.9,"yT1":0,"xT2":1058.1,"yT2":0,"toosoon":0,"cond_shown":"equaldotsize","ratio_trial":750,"smaller_num":"15","larger_num":"20","correct_side":2,"subjID":"Sebastianpitagonzalez12","gender":"0","age":"8","school":"4"},{"start_time":1552310226598,"click_time":1552310228142,"finger_time":1552310227464,"fix_duration":412.7952565869671,"trial":32,"RT":866,"MT":678,"sideResp":1,"stimulus":"img/250/randomdotsizeEA/L/14_Ratio_250_L_12_R_3.png","xmouse":[794,794,794,794,794,794,794,794,794,794,794,794,794,794,794,794,794,794,794,794,794,794,794,794,794,794,794,794,794,794,794,794,794,794,794,794,794,794,794,794,794,794,793,791,783,780,778,776,773,748,735,726,717,712,699,691,682,672,664,639,628,618,608,600,586,580,575,570,566,559,558,556,551,547,537,534,528,511],"ymouse":[478,478,478,478,478,478,478,478,478,478,478,478,478,478,478,478,478,478,478,478,478,478,478,478,478,478,478,478,478,478,478,478,478,478,478,478,478,478,478,478,478,470,462,444,407,396,390,384,372,314,287,268,252,239,208,192,177,163,152,121,109,97,85,76,65,60,56,53,50,46,46,45,43,40,36,35,32,27],"timestamp_mouse":[9,40,46,65,86,105,125,144,165,186,206,226,244,264,284,305,326,346,365,384,404,425,445,464,484,506,526,546,564,584,605,625,646,666,685,705,725,744,765,786,805,824,845,866,885,904,925,945,965,985,1006,1026,1046,1065,1085,1105,1126,1145,1165,1185,1205,1225,1246,1265,1285,1305,1324,1345,1366,1385,1405,1424,1445,1465,1485,1505,1525,1544],"xSR":741.5,"ySR":458.25,"xT1":424.9,"yT1":0,"xT2":1058.1,"yT2":0,"toosoon":0,"cond_shown":"randomdotsizeEA","ratio_trial":250,"smaller_num":"3","larger_num":"12","correct_side":1,"subjID":"Sebastianpitagonzalez12","gender":"0","age":"8","school":"4"},{"start_time":1552310230616,"click_time":1552310231943,"finger_time":1552310231284,"fix_duration":751.1593062325682,"trial":33,"RT":668,"MT":659,"sideResp":1,"stimulus":"img/250/equaldotanddens/L/7_Ratio_250_L_8_R_2.png","xmouse":[772,772,772,772,772,772,772,772,772,772,772,772,772,772,772,772,772,772,772,772,772,772,772,772,772,772,772,772,772,772,772,778,780,788,792,795,797,798,798,797,790,784,775,750,724,689,645,598,566,562,559,555,552,551,551,551,551,551,551,551,551,551,551,550,544,532,518],"ymouse":[496,496,496,496,496,496,496,496,496,496,496,496,496,496,496,496,496,496,496,496,496,496,496,496,496,496,496,496,496,496,496,484,480,455,444,430,416,397,346,325,304,285,267,220,184,148,117,91,72,67,63,58,55,52,52,52,52,52,52,52,52,52,52,52,52,51,50],"timestamp_mouse":[12,35,47,68,88,106,127,148,167,188,207,228,248,267,287,306,328,347,367,386,406,428,447,466,486,507,528,548,568,587,606,626,648,668,686,708,727,747,767,787,807,827,846,867,887,908,927,947,967,987,1007,1028,1047,1067,1086,1106,1126,1147,1167,1188,1208,1228,1247,1266,1287,1308,1327],"xSR":741.5,"ySR":458.25,"xT1":424.9,"yT1":0,"xT2":1058.1,"yT2":0,"toosoon":0,"cond_shown":"equaldotanddens","ratio_trial":250,"smaller_num":"2","larger_num":"8","correct_side":1,"subjID":"Sebastianpitagonzalez12","gender":"0","age":"8","school":"4"},{"start_time":1552310233277,"click_time":1552310234844,"finger_time":1552310234182,"fix_duration":250,"trial":34,"RT":905,"MT":662,"sideResp":2,"stimulus":"img/250/equaldotanddens/R/11_Ratio_250_L_3_R_12.png","xmouse":[802,802,802,802,802,802,802,802,802,802,802,802,802,802,802,802,802,802,802,802,802,802,802,802,802,802,802,802,802,802,802,802,802,802,802,802,802,802,802,802,802,802,805,808,819,887,928,973,1015,1041,1073,1083,1091,1099,1118,1139,1147,1152,1156,1159,1160,1160,1160,1160,1156,1152,1152,1152,1152,1152,1150,1149,1148,1148,1147,1146,1145,1140,1128],"ymouse":[497,497,497,497,497,497,497,497,497,497,497,497,497,497,497,497,497,497,497,497,497,497,497,497,497,497,497,497,497,497,497,497,497,497,497,497,497,497,497,497,497,497,497,497,497,487,482,475,466,457,439,434,427,422,405,375,359,345,332,318,292,276,256,238,220,199,196,193,189,184,176,170,163,160,153,143,133,116,94],"timestamp_mouse":[11,42,46,67,86,105,126,146,167,186,207,226,246,265,287,306,326,345,366,386,405,426,445,466,485,507,525,545,566,586,606,626,645,665,685,706,725,746,767,786,806,826,845,867,887,905,925,945,967,987,1007,1027,1047,1065,1086,1105,1125,1145,1165,1185,1206,1225,1246,1266,1287,1306,1327,1346,1365,1386,1405,1426,1447,1465,1487,1506,1526,1545,1567],"xSR":741.5,"ySR":458.25,"xT1":424.9,"yT1":0,"xT2":1058.1,"yT2":0,"toosoon":0,"cond_shown":"equaldotanddens","ratio_trial":250,"smaller_num":"3","larger_num":"12","correct_side":2,"subjID":"Sebastianpitagonzalez12","gender":"0","age":"8","school":"4"},{"start_time":1552310237190,"click_time":1552310238104,"finger_time":1552310237844,"fix_duration":1085.0229376488714,"trial":35,"RT":654,"MT":260,"sideResp":1,"stimulus":"img/500/equaldotanddens/L/11_Ratio_500_L_12_R_6.png","xmouse":[794,794,794,794,794,794,794,794,794,794,794,794,794,794,794,794,794,794,794,794,794,794,794,794,794,794,794,794,794,793,792,789,786,775,732,698,664,644,623,580,563,545,527,511,485,475],"ymouse":[482,482,482,482,482,482,482,482,482,482,482,482,482,482,482,482,482,482,482,482,482,482,482,482,482,482,482,482,480,476,471,466,457,442,392,363,338,320,301,249,226,205,179,155,105,80],"timestamp_mouse":[14,40,54,74,94,114,133,153,173,194,213,233,252,273,292,312,333,354,373,394,412,432,453,474,493,514,532,552,573,592,612,633,654,673,693,713,732,752,773,792,813,833,853,872,892,914],"xSR":741.5,"ySR":458.25,"xT1":424.9,"yT1":0,"xT2":1058.1,"yT2":0,"toosoon":0,"cond_shown":"equaldotanddens","ratio_trial":500,"smaller_num":"6","larger_num":"12","correct_side":1,"subjID":"Sebastianpitagonzalez12","gender":"0","age":"8","school":"4"},{"start_time":1552310240858,"click_time":1552310242424,"finger_time":1552310241544,"fix_duration":1092.545479377387,"trial":36,"RT":686,"MT":880,"sideResp":2,"stimulus":"img/750/equaldotanddens/R/7_Ratio_750_L_3_R_4.png","xmouse":[767,767,767,767,767,767,767,767,767,767,767,767,767,767,767,767,767,767,767,767,767,767,767,767,767,767,767,767,767,768,771,794,811,832,853,872,912,929,947,968,989,1062,1104,1148,1179,1197,1204,1204,1204,1204,1204,1204,1204,1204,1204,1204,1204,1204,1204,1204,1204,1204,1204,1204,1204,1204,1204,1204,1204,1204,1204,1204,1204,1204,1204,1204,1204,1204,1141],"ymouse":[502,502,502,502,502,502,502,502,502,502,502,502,502,502,502,502,502,502,502,502,502,502,502,502,502,502,502,502,503,503,503,489,478,469,458,448,421,408,390,370,342,278,247,217,186,148,53,53,53,53,53,53,53,53,53,53,53,53,53,53,53,53,53,53,53,53,53,53,53,53,53,53,53,53,53,53,53,53,3],"timestamp_mouse":[10,25,46,66,85,106,125,144,164,185,205,226,245,266,285,305,325,344,364,386,404,424,446,466,484,505,525,544,565,586,606,626,646,665,686,705,724,745,766,786,805,825,846,864,885,904,924,945,964,985,1005,1026,1045,1064,1084,1106,1125,1145,1165,1185,1204,1226,1245,1266,1286,1305,1325,1346,1365,1385,1405,1425,1445,1464,1485,1505,1526,1545,1566],"xSR":741.5,"ySR":458.25,"xT1":424.9,"yT1":0,"xT2":1058.1,"yT2":0,"toosoon":0,"cond_shown":"equaldotanddens","ratio_trial":750,"smaller_num":"3","larger_num":"4","correct_side":2,"subjID":"Sebastianpitagonzalez12","gender":"0","age":"8","school":"4"},{"start_time":1552310245062,"click_time":1552310246582,"finger_time":1552310245682,"fix_duration":896.9341998112208,"trial":37,"RT":620,"MT":900,"sideResp":1,"stimulus":"img/500/randomdotsizeEA/L/11_Ratio_500_L_12_R_6.png","xmouse":[807,807,807,807,807,807,807,807,807,807,807,807,807,807,807,807,807,807,807,807,807,807,807,807,807,807,807,807,806,804,800,786,776,762,750,739,722,718,712,703,693,671,662,656,649,642,627,619,608,598,585,575,574,573,571,569,566,563,562,560,558,555,553,552,550,548,544,543,540,539,539,536,534,532,530,526,523],"ymouse":[501,501,501,501,501,501,501,501,501,501,501,501,501,501,501,501,501,501,501,501,501,501,501,501,501,501,492,489,486,481,473,450,435,416,398,384,357,351,340,328,315,287,274,265,255,245,215,201,184,169,155,144,143,142,139,137,134,132,130,127,125,121,119,117,115,112,105,103,100,97,97,93,91,89,87,83,80],"timestamp_mouse":[10,20,47,61,81,102,121,141,160,180,201,221,242,260,281,301,321,340,362,382,401,422,442,461,481,501,522,541,562,580,600,620,642,662,681,700,721,742,761,781,801,820,840,861,881,902,921,941,961,982,1001,1021,1040,1060,1081,1102,1121,1141,1161,1181,1201,1222,1241,1261,1281,1301,1320,1340,1360,1381,1402,1422,1441,1461,1481,1501,1520],"xSR":741.5,"ySR":458.25,"xT1":424.9,"yT1":0,"xT2":1058.1,"yT2":0,"toosoon":0,"cond_shown":"randomdotsizeEA","ratio_trial":500,"smaller_num":"6","larger_num":"12","correct_side":1,"subjID":"Sebastianpitagonzalez12","gender":"0","age":"8","school":"4"},{"start_time":1552310249999,"click_time":1552310252183,"finger_time":1552310250943,"fix_duration":953.1188932471341,"trial":38,"RT":944,"MT":1240,"sideResp":2,"stimulus":"img/250/equaldotanddens/R/6_Ratio_250_L_6_R_24.png","xmouse":[797,797,797,797,797,797,797,797,797,797,797,797,797,797,797,797,797,797,797,797,797,797,797,797,797,797,797,797,797,797,797,797,797,797,797,797,797,797,797,797,797,797,797,797,798,800,809,824,840,862,866,872,879,889,906,915,923,927,929,931,932,932,933,934,939,941,945,949,953,971,977,983,986,988,989,989,989,989,990,995,998,1002,1006,1010,1020,1025,1027,1029,1033,1036,1039,1042,1048,1054,1067,1072,1080,1084,1091,1093,1094,1094,1094,1094,1097,1097,1098,1099,1101,1105],"ymouse":[473,473,473,473,473,473,473,473,473,473,473,473,473,473,473,473,473,473,473,473,473,473,473,473,473,473,473,473,473,473,473,473,473,473,473,473,473,473,473,473,473,473,473,473,473,472,469,456,443,419,411,398,374,340,291,276,267,263,259,257,257,256,256,254,251,247,241,236,229,202,188,176,168,163,162,162,162,162,162,159,156,153,150,147,141,140,139,138,137,135,133,131,128,125,119,116,113,111,106,106,106,105,105,105,104,103,102,102,100,97],"timestamp_mouse":[10,24,44,64,85,104,125,144,165,185,204,224,244,264,283,303,325,345,364,385,403,425,445,465,485,504,523,545,564,584,605,625,643,664,684,704,725,743,764,785,804,823,844,865,885,904,923,944,963,984,1003,1024,1044,1064,1085,1105,1123,1145,1164,1183,1204,1225,1244,1265,1284,1304,1324,1344,1365,1384,1403,1424,1444,1465,1485,1504,1525,1543,1564,1584,1604,1625,1645,1665,1684,1704,1724,1744,1764,1783,1804,1824,1844,1864,1885,1904,1924,1944,1966,1984,2004,2024,2043,2064,2084,2103,2124,2143,2164,2184],"xSR":741.5,"ySR":458.25,"xT1":424.9,"yT1":0,"xT2":1058.1,"yT2":0,"toosoon":0,"cond_shown":"equaldotanddens","ratio_trial":250,"smaller_num":"6","larger_num":"24","correct_side":2,"subjID":"Sebastianpitagonzalez12","gender":"0","age":"8","school":"4"},{"start_time":1552310254922,"click_time":1552310256702,"finger_time":1552310255484,"fix_duration":1397.6274754502506,"trial":39,"RT":562,"MT":1218,"sideResp":1,"stimulus":"img/250/equaldotsize/L/15_Ratio_250_L_12_R_3.png","xmouse":[808,808,808,808,808,808,808,808,808,808,808,808,808,808,808,808,808,808,808,808,808,808,808,808,808,808,808,803,780,765,753,739,723,689,681,672,666,655,632,623,617,612,607,582,573,567,562,557,553,552,551,551,550,548,548,547,547,547,547,547,547,546,545,545,545,544,544,544,544,544,544,543,542,540,539,538,538,537,535,535,535,535,535,533,531,531,530,529,525,524],"ymouse":[476,476,476,476,476,476,476,476,476,476,476,476,476,476,476,476,476,476,476,476,476,476,476,476,476,476,471,460,415,396,377,357,335,285,269,256,244,231,202,190,182,174,165,129,115,102,94,82,72,69,67,65,63,59,59,58,58,58,58,58,58,58,57,57,56,56,56,56,56,56,56,56,56,56,56,56,56,56,56,56,56,56,56,56,55,55,55,55,55,55],"timestamp_mouse":[13,27,45,60,80,102,121,140,161,181,202,221,241,260,282,301,320,342,361,382,400,422,441,460,481,500,521,542,562,581,600,620,641,660,681,701,720,741,760,782,801,822,841,862,881,901,922,942,961,981,1002,1020,1040,1061,1081,1100,1120,1141,1161,1182,1201,1222,1241,1260,1280,1301,1322,1342,1361,1381,1400,1421,1441,1460,1480,1501,1522,1542,1561,1581,1602,1620,1641,1660,1681,1702,1721,1741,1762,1780],"xSR":741.5,"ySR":458.25,"xT1":424.9,"yT1":0,"xT2":1058.1,"yT2":0,"toosoon":0,"cond_shown":"equaldotsize","ratio_trial":250,"smaller_num":"3","larger_num":"12","correct_side":1,"subjID":"Sebastianpitagonzalez12","gender":"0","age":"8","school":"4"},{"start_time":1552310258639,"click_time":1552310260203,"finger_time":1552310259243,"fix_duration":355.47377578738934,"trial":40,"RT":604,"MT":960,"sideResp":2,"stimulus":"img/250/randomdotsizeEA/R/4_Ratio_250_L_3_R_12.png","xmouse":[776,776,776,776,776,776,776,776,776,776,776,776,776,776,776,776,776,776,776,776,776,776,776,776,776,779,783,795,800,804,811,821,840,847,855,865,879,909,916,921,928,935,948,954,958,960,962,965,966,968,970,973,985,991,997,1005,1014,1036,1041,1043,1044,1046,1047,1047,1049,1049,1052,1057,1059,1063,1067,1073,1077,1078,1081,1081,1081,1082,1082],"ymouse":[485,485,485,485,485,485,485,485,485,485,485,485,485,485,485,485,485,485,485,485,485,485,485,485,486,486,481,471,467,463,456,445,423,415,404,389,365,323,314,306,296,284,254,240,230,225,222,217,216,214,212,211,201,195,190,182,172,154,150,147,147,143,142,141,139,138,134,127,126,123,120,117,113,111,106,104,103,100,99],"timestamp_mouse":[10,24,45,77,84,104,125,143,164,184,203,224,243,263,283,303,324,345,363,385,404,423,444,463,485,504,524,544,564,585,604,624,643,665,684,704,723,743,765,784,805,825,843,864,883,904,924,943,964,984,1005,1024,1044,1064,1085,1104,1124,1144,1165,1184,1203,1224,1244,1264,1284,1304,1325,1344,1365,1385,1405,1424,1444,1463,1483,1504,1524,1543,1564],"xSR":741.5,"ySR":458.25,"xT1":424.9,"yT1":0,"xT2":1058.1,"yT2":0,"toosoon":0,"cond_shown":"randomdotsizeEA","ratio_trial":250,"smaller_num":"3","larger_num":"12","correct_side":2,"subjID":"Sebastianpitagonzalez12","gender":"0","age":"8","school":"4"},{"start_time":1552310262331,"click_time":1552310263402,"finger_time":1552310262843,"fix_duration":966.7259688608385,"trial":41,"RT":512,"MT":559,"sideResp":1,"stimulus":"img/750/randomdotsizeEA/R/15_Ratio_750_L_9_R_12.png","xmouse":[791,791,791,791,791,791,791,791,791,791,791,791,791,791,791,791,791,791,791,791,791,791,780,774,767,760,751,728,706,675,645,618,586,581,577,574,568,567,563,559,556,551,542,539,536,534,531,524,520,518,517,515,508,505],"ymouse":[505,505,505,505,505,505,505,505,505,505,505,505,505,505,505,505,505,505,505,505,505,502,486,476,464,451,435,401,372,337,308,285,252,244,236,230,212,207,198,189,180,171,151,142,137,130,127,117,114,111,110,107,101,96],"timestamp_mouse":[14,36,51,72,93,112,132,152,171,193,212,232,252,272,292,312,333,352,371,393,413,433,452,472,493,512,533,552,572,592,611,633,652,672,692,712,739,752,771,792,811,832,852,872,893,913,933,952,973,992,1012,1032,1052,1071],"xSR":741.5,"ySR":458.25,"xT1":424.9,"yT1":0,"xT2":1058.1,"yT2":0,"toosoon":0,"cond_shown":"randomdotsizeEA","ratio_trial":750,"smaller_num":"9","larger_num":"12","correct_side":2,"subjID":"Sebastianpitagonzalez12","gender":"0","age":"8","school":"4"},{"start_time":1552310266409,"click_time":1552310268524,"finger_time":1552310266903,"fix_duration":1343.029348218532,"trial":42,"RT":494,"MT":1621,"sideResp":1,"stimulus":"img/900/equaldotanddens/L/4_Ratio_900_L_20_R_18.png","xmouse":[778,778,778,778,778,778,778,778,778,778,778,778,778,778,778,778,778,778,779,781,786,791,796,811,822,834,848,871,900,913,924,932,938,950,954,960,965,970,984,989,996,1002,1010,1022,1026,1029,1030,1030,1032,1032,1033,1033,1033,1033,1034,1034,1034,1034,1034,1034,1029,1021,1011,992,985,981,976,959,928,907,882,854,822,761,740,720,699,680,643,634,625,620,616,611,611,610,608,606,599,594,588,582,578,575,574,574,574,573,565,560,554,548,542,532,525,517],"ymouse":[489,489,489,489,489,489,489,489,489,489,489,489,489,489,489,489,489,489,489,488,485,482,478,466,457,448,437,420,396,386,376,368,361,345,338,331,324,316,293,281,265,250,235,215,210,205,204,203,200,199,197,197,197,197,196,196,196,196,196,196,201,209,215,221,222,222,219,206,193,191,190,190,190,190,190,190,187,184,176,173,169,167,165,162,161,160,158,155,144,137,130,123,119,116,115,115,115,115,111,108,105,100,96,86,79,70],"timestamp_mouse":[14,44,54,75,95,113,135,155,174,194,215,234,254,275,293,314,335,355,375,394,414,433,455,474,494,515,534,555,574,594,613,634,654,675,695,714,734,753,774,794,814,834,854,874,894,915,934,955,974,993,1014,1034,1054,1074,1094,1114,1133,1153,1173,1194,1213,1234,1255,1274,1294,1314,1334,1355,1375,1394,1414,1434,1454,1473,1494,1514,1534,1554,1574,1594,1615,1635,1654,1674,1693,1713,1733,1755,1774,1794,1815,1835,1855,1874,1894,1915,1934,1954,1973,1994,2014,2033,2054,2075,2094,2115],"xSR":741.5,"ySR":458.25,"xT1":424.9,"yT1":0,"xT2":1058.1,"yT2":0,"toosoon":0,"cond_shown":"equaldotanddens","ratio_trial":900,"smaller_num":"18","larger_num":"20","correct_side":1,"subjID":"Sebastianpitagonzalez12","gender":"0","age":"8","school":"4"},{"start_time":1552310270348,"click_time":1552310271342,"finger_time":1552310271024,"fix_duration":505.8785841953033,"trial":43,"RT":676,"MT":318,"sideResp":2,"stimulus":"img/900/randomdotsizeEA/R/12_Ratio_900_L_18_R_20.png","xmouse":[773,773,773,773,773,773,773,773,773,773,773,773,773,773,773,773,773,773,773,773,773,773,773,773,773,773,773,773,773,778,782,803,811,819,828,838,861,877,894,911,930,969,985,999,1014,1025,1044,1051,1057,1062],"ymouse":[514,514,514,514,514,514,514,514,514,514,514,514,514,514,514,514,514,514,514,514,514,514,514,514,514,514,514,514,514,510,503,472,461,450,439,428,402,383,363,340,321,283,266,249,226,202,148,121,103,89],"timestamp_mouse":[14,36,55,75,95,114,134,155,176,195,215,235,254,276,296,315,335,355,376,396,414,435,456,475,495,514,535,556,575,596,614,635,655,676,695,715,735,756,776,795,816,835,855,875,895,914,935,955,976,994],"xSR":741.5,"ySR":458.25,"xT1":424.9,"yT1":0,"xT2":1058.1,"yT2":0,"toosoon":0,"cond_shown":"randomdotsizeEA","ratio_trial":900,"smaller_num":"18","larger_num":"20","correct_side":2,"subjID":"Sebastianpitagonzalez12","gender":"0","age":"8","school":"4"},{"start_time":1552310274273,"click_time":1552310275663,"finger_time":1552310275262,"fix_duration":1447.0788130397093,"trial":44,"RT":989,"MT":401,"sideResp":1,"stimulus":"img/750/randomdotsizeEA/R/3_Ratio_750_L_15_R_20.png","xmouse":[805,805,805,805,805,805,805,805,805,805,805,805,805,805,805,805,805,805,805,805,804,804,804,804,804,804,804,804,804,804,804,804,804,804,804,804,804,804,804,804,804,804,804,804,804,804,804,799,793,782,757,743,728,715,701,673,664,654,647,637,617,609,605,600,582,565,553,542,528,515],"ymouse":[504,504,504,504,504,504,504,504,504,504,504,504,504,504,504,504,504,504,504,504,502,502,502,501,501,500,500,500,499,499,499,499,499,499,499,499,499,499,499,499,499,499,499,499,499,499,496,487,475,456,419,398,377,355,329,271,250,232,218,204,177,167,162,155,137,126,120,113,106,96],"timestamp_mouse":[14,29,50,70,89,109,129,151,170,189,210,230,249,271,289,309,329,350,370,391,410,431,451,470,490,510,530,551,571,590,610,631,651,669,691,710,731,750,770,790,810,831,851,870,889,909,930,951,970,989,1010,1031,1050,1070,1089,1110,1130,1150,1171,1189,1209,1230,1251,1270,1292,1309,1330,1350,1371,1390],"xSR":741.5,"ySR":458.25,"xT1":424.9,"yT1":0,"xT2":1058.1,"yT2":0,"toosoon":0,"cond_shown":"randomdotsizeEA","ratio_trial":750,"smaller_num":"15","larger_num":"20","correct_side":2,"subjID":"Sebastianpitagonzalez12","gender":"0","age":"8","school":"4"},{"start_time":1552310278215,"click_time":1552310279822,"finger_time":1552310279223,"fix_duration":250,"trial":45,"RT":1008,"MT":599,"sideResp":1,"stimulus":"img/500/randomdotsizeEA/R/1_Ratio_500_L_9_R_18.png","xmouse":[795,795,795,795,795,795,795,795,795,795,795,795,795,795,795,795,795,795,795,795,795,795,795,795,795,795,795,795,795,795,795,795,795,795,795,795,795,795,795,795,795,795,795,795,795,795,795,795,794,791,787,784,782,772,766,759,746,728,664,652,644,640,638,634,632,630,629,629,627,624,624,624,624,620,615,609,601,590,554,536,521],"ymouse":[477,477,477,480,480,480,480,480,480,480,480,480,480,480,480,480,480,480,480,480,480,480,480,480,480,480,480,480,480,480,480,480,480,480,480,480,480,480,480,480,480,480,480,480,480,480,480,480,477,468,458,449,438,407,386,362,328,280,180,165,153,145,141,131,126,121,119,118,117,116,116,116,116,112,110,108,104,99,88,83,79],"timestamp_mouse":[12,35,48,69,88,108,128,148,168,189,208,227,247,267,289,307,328,347,368,387,408,428,447,467,487,508,529,548,567,588,607,628,649,668,688,707,728,747,767,788,807,827,849,867,887,907,927,948,968,987,1008,1028,1047,1067,1087,1107,1128,1147,1167,1187,1207,1227,1247,1268,1288,1308,1328,1348,1367,1388,1408,1427,1448,1468,1488,1508,1527,1548,1567,1587,1607],"xSR":741.5,"ySR":458.25,"xT1":424.9,"yT1":0,"xT2":1058.1,"yT2":0,"toosoon":0,"cond_shown":"randomdotsizeEA","ratio_trial":500,"smaller_num":"9","larger_num":"18","correct_side":2,"subjID":"Sebastianpitagonzalez12","gender":"0","age":"8","school":"4"},{"start_time":1552310283169,"click_time":1552310285463,"finger_time":1552310284062,"fix_duration":1345.967553316465,"trial":46,"RT":893,"MT":1401,"sideResp":1,"stimulus":"img/500/equaldotanddens/L/13_Ratio_500_L_12_R_6.png","xmouse":[785,785,785,785,785,785,785,785,785,785,785,785,785,785,785,785,785,785,785,785,785,785,785,785,785,785,785,785,785,785,785,785,785,785,785,785,785,785,786,787,795,800,805,813,817,828,831,834,836,837,840,841,842,842,842,842,842,842,839,835,823,817,809,801,788,754,742,733,728,720,715,712,709,705,699,682,669,655,634,602,542,535,533,532,531,529,527,527,526,525,525,525,525,525,525,525,525,525,525,525,525,525,525,525,525,525,525,525,525,525,525,525,525,525,524],"ymouse":[486,486,486,486,486,486,486,486,486,486,486,486,486,486,486,486,486,486,486,486,486,486,486,486,486,486,486,486,486,486,486,486,486,486,486,486,486,486,486,486,479,474,467,459,451,438,432,428,425,422,418,416,414,413,409,397,390,384,376,367,342,330,315,297,277,237,226,217,212,203,197,193,190,184,179,161,151,142,128,116,98,94,92,91,89,85,82,81,79,78,78,78,78,78,78,78,78,78,78,78,78,78,78,78,78,78,78,78,78,78,78,78,78,78,77],"timestamp_mouse":[14,45,53,73,93,113,133,154,173,193,213,233,254,274,294,314,334,354,373,394,413,433,453,474,494,513,535,554,574,594,613,634,653,673,694,713,733,755,773,793,813,834,854,873,893,914,933,954,974,993,1013,1033,1053,1073,1093,1114,1133,1153,1173,1193,1213,1233,1253,1274,1293,1313,1334,1354,1375,1395,1413,1433,1453,1474,1494,1514,1535,1553,1573,1593,1613,1633,1654,1673,1694,1713,1734,1753,1773,1793,1814,1834,1853,1873,1893,1913,1934,1953,1973,1994,2013,2033,2053,2073,2094,2114,2135,2153,2173,2193,2213,2234,2255,2274,2294],"xSR":741.5,"ySR":458.25,"xT1":424.9,"yT1":0,"xT2":1058.1,"yT2":0,"toosoon":0,"cond_shown":"equaldotanddens","ratio_trial":500,"smaller_num":"6","larger_num":"12","correct_side":1,"subjID":"Sebastianpitagonzalez12","gender":"0","age":"8","school":"4"},{"start_time":1552310287137,"click_time":1552310294882,"finger_time":1552310288102,"fix_duration":250,"trial":47,"RT":965,"MT":6780,"sideResp":1,"stimulus":"img/750/equaldotanddens/R/11_Ratio_750_L_12_R_16.png","xmouse":[806,806,806,807,808,809,810,810,810,810,810,810,810,810,810,810,810,810,810,810,810,810,810,810,810,810,810,810,810,810,810,810,810,810,810,810,810,810,810,810,810,810,810,810,810,810,810,814,821,828,831,832,833,833,834,838,842,849,849,849,849,849,849,849,848,845,841,840,840,840,840,840,839,837,835,833,833,833,833,832,830,824,816,812,809,806,804,797,791,782,775,767,756,752,751,748,747,747,747,747,747,747,747,747,747,747,747,747,747,747,747,747,747,747,747,747,747,747,747,747,747,747,747,747,747,747,747,747,747,747,747,747,747,747,747,747,747,747,747,747,747,747,752,757,758,759,760,760,760,760,761,761,761,762,764,764,766,766,766,766,766,766,766,766,766,768,768,770,772,772,772,772,772,772,772,772,772,772,772,772,772,772,772,772,772,772,772,772,772,772,773,774,775,776,778,779,783,787,788,788,788,788,788,788,788,788,788,788,788,788,788,788,788,788,789,789,789,789,789,789,789,789,789,789,789,789,789,789,789,789,789,789,789,789,789,789,789,789,789,789,789,789,789,789,789,789,789,789,789,789,789,789,789,789,789,789,789,789,789,789,789,789,789,789,789,789,789,789,789,789,789,789,789,789,789,789,789,789,789,789,789,789,789,789,789,789,789,789,789,789,789,789,789,789,789,789,789,789,789,789,789,789,789,789,789,789,789,789,789,789,789,789,789,789,789,789,789,789,789,789,789,788,787,785,784,780,775,761,752,745,742,733,718,703,689,676,663,640,630,621,617,614,609,608,606,603,600,593,589,586,584,582,579,577,576,573,567,554,550,547,544,543,540,539,538,537,537,537,537,535,534,532,532,532,532,532,532,532,532,532,532,532,532,531,528,526,525,521],"ymouse":[511,511,510,506,501,495,489,485,485,485,485,485,485,485,485,485,485,485,485,485,485,485,485,485,485,485,485,485,485,485,485,485,485,485,485,485,485,485,485,485,485,485,485,485,485,485,485,474,457,440,434,431,429,426,417,404,392,375,372,371,371,371,371,371,378,392,403,407,407,407,407,407,409,412,415,416,417,417,417,417,419,428,437,441,444,448,452,465,473,485,494,508,530,534,535,538,539,539,539,539,539,539,539,539,539,539,539,539,539,539,539,539,539,539,539,539,539,539,539,539,539,539,539,539,539,539,539,539,539,539,539,539,539,539,540,540,540,540,540,540,540,540,532,526,523,522,522,522,522,522,522,522,522,522,522,523,523,523,523,523,523,523,523,523,523,524,525,530,533,533,533,533,533,533,533,533,533,533,533,533,533,533,533,533,533,533,533,533,533,533,533,533,533,533,532,531,528,526,525,525,525,525,525,525,525,525,525,525,525,525,525,525,525,525,524,524,523,523,522,521,520,519,518,517,516,515,513,511,510,510,510,510,510,510,510,510,510,510,510,510,510,510,510,510,510,510,510,510,510,510,510,510,510,510,510,510,510,510,510,510,510,510,510,510,510,510,510,510,510,510,510,510,510,510,510,510,510,510,510,510,510,510,510,510,510,510,510,510,510,510,510,510,510,510,510,510,510,510,510,510,510,510,510,510,510,510,510,510,510,510,510,510,510,510,510,510,510,510,510,510,507,504,495,490,480,468,452,422,408,396,384,356,327,304,282,261,243,210,193,179,172,167,160,157,153,148,143,131,126,121,118,115,110,107,105,101,95,83,79,77,75,73,71,70,69,69,69,69,69,69,68,67,67,67,67,67,67,67,67,67,67,67,67,67,65,63,61,58],"timestamp_mouse":[9,27,46,66,86,106,127,147,165,186,206,226,246,265,285,306,326,346,367,386,405,426,445,466,486,506,525,545,565,587,606,626,645,667,686,706,726,747,766,786,806,825,846,867,886,906,926,945,965,985,1005,1026,1045,1065,1085,1106,1125,1145,1166,1185,1205,1226,1246,1265,1285,1306,1325,1345,1367,1386,1405,1425,1445,1465,1485,1506,1526,1546,1565,1586,1606,1626,1646,1666,1686,1705,1726,1746,1766,1786,1805,1826,1845,1866,1885,1906,1925,1945,1966,1986,2007,2025,2046,2065,2086,2107,2126,2145,2166,2185,2206,2226,2245,2265,2285,2305,2326,2345,2366,2386,2407,2425,2445,2465,2485,2505,2525,2545,2565,2586,2606,2625,2645,2666,2686,2706,2726,2745,2765,2786,2806,2825,2845,2865,2886,2907,2925,2945,2966,2987,3005,3026,3046,3066,3086,3105,3126,3145,3166,3185,3206,3226,3246,3265,3287,3306,3325,3347,3366,3385,3406,3426,3446,3466,3486,3505,3527,3545,3565,3585,3605,3626,3645,3666,3686,3705,3726,3745,3765,3786,3805,3825,3845,3865,3885,3906,3926,3947,3966,3986,4006,4026,4046,4066,4086,4105,4126,4145,4165,4186,4206,4225,4246,4266,4285,4306,4325,4345,4366,4387,4406,4425,4445,4465,4485,4506,4526,4547,4565,4587,4606,4626,4645,4666,4685,4705,4725,4745,4765,4786,4805,4825,4845,4865,4885,4905,4926,4945,4965,4987,5006,5026,5045,5065,5085,5106,5126,5145,5165,5185,5206,5226,5245,5266,5287,5306,5326,5345,5366,5386,5405,5425,5446,5467,5487,5505,5527,5547,5566,5587,5606,5626,5645,5666,5686,5707,5725,5745,5766,5786,5806,5826,5845,5866,5885,5906,5926,5945,5967,5986,6006,6026,6045,6066,6086,6106,6126,6146,6165,6186,6205,6226,6245,6266,6286,6305,6325,6345,6366,6387,6405,6425,6445,6466,6486,6506,6526,6546,6565,6585,6606,6628,6646,6667,6686,6706,6726,6745,6766,6786,6805,6825,6845,6865,6886,6906,6926,6946,6965,6985,7005,7025,7045,7066,7086,7106,7127,7145,7166,7185,7206,7226,7246,7266,7285,7306,7325,7346,7365,7386,7406,7426,7446,7467,7486,7507,7526,7545,7565,7585,7606,7626,7645,7665,7685,7705,7725,7745],"xSR":741.5,"ySR":458.25,"xT1":424.9,"yT1":0,"xT2":1058.1,"yT2":0,"toosoon":0,"cond_shown":"equaldotanddens","ratio_trial":750,"smaller_num":"12","larger_num":"16","correct_side":2,"subjID":"Sebastianpitagonzalez12","gender":"0","age":"8","school":"4"},{"start_time":1552310296436,"click_time":1552310298443,"finger_time":1552310297382,"fix_duration":250,"trial":48,"RT":946,"MT":1061,"sideResp":2,"stimulus":"img/500/randomdotsizeEA/L/7_Ratio_500_L_10_R_5.png","xmouse":[786,786,786,786,787,787,787,787,787,787,787,787,787,787,787,787,787,787,787,787,787,787,787,787,787,787,787,787,787,787,787,787,787,787,787,787,787,787,787,788,789,789,792,796,802,808,816,823,826,830,834,840,854,860,866,874,884,903,909,915,921,928,945,952,958,965,970,991,1003,1012,1019,1026,1034,1038,1040,1042,1045,1047,1049,1051,1053,1054,1059,1060,1061,1064,1065,1069,1069,1070,1070,1070,1072,1072,1072,1072,1072,1073,1073,1073,1073],"ymouse":[525,524,520,520,516,516,516,516,516,516,516,516,516,516,516,516,516,516,516,516,516,516,516,516,516,516,515,515,515,514,513,513,513,513,513,513,513,513,513,511,510,509,506,501,492,481,463,454,448,442,435,425,403,394,387,378,368,344,337,329,322,314,300,294,288,282,276,249,233,217,205,197,185,179,176,173,170,164,161,157,153,150,142,139,137,132,128,120,119,117,115,114,112,112,111,109,108,104,102,101,99],"timestamp_mouse":[7,26,61,67,87,106,127,147,166,186,207,226,247,267,286,306,326,347,366,386,407,427,446,466,488,507,527,547,566,588,608,626,646,667,686,707,727,746,766,786,806,827,848,867,887,906,928,946,966,986,1007,1027,1046,1066,1087,1107,1127,1146,1166,1186,1207,1227,1247,1267,1287,1306,1326,1346,1367,1386,1406,1426,1447,1466,1487,1506,1526,1547,1567,1587,1606,1626,1647,1666,1686,1706,1727,1746,1767,1788,1807,1827,1847,1867,1887,1906,1926,1946,1967,1986,2007],"xSR":741.5,"ySR":458.25,"xT1":424.9,"yT1":0,"xT2":1058.1,"yT2":0,"toosoon":0,"cond_shown":"randomdotsizeEA","ratio_trial":500,"smaller_num":"5","larger_num":"10","correct_side":1,"subjID":"Sebastianpitagonzalez12","gender":"0","age":"8","school":"4"},{"start_time":1552310300396,"click_time":1552310301923,"finger_time":1552310301162,"fix_duration":671.9706624962266,"trial":49,"RT":766,"MT":761,"sideResp":1,"stimulus":"img/900/equaldotanddens/R/9_Ratio_900_L_18_R_20.png","xmouse":[787,787,787,787,787,787,787,787,787,786,785,785,785,785,785,785,785,785,785,785,785,785,785,785,785,785,785,785,785,785,785,784,784,783,782,781,780,779,776,773,771,768,765,762,758,754,750,747,742,734,730,725,718,705,674,666,661,658,650,631,619,606,599,594,590,588,584,581,578,566,561,555,550,544,533,526,522],"ymouse":[550,549,549,545,539,536,533,528,522,510,507,505,505,504,504,504,504,504,504,504,504,504,504,504,504,504,504,504,504,504,504,500,496,490,478,473,468,462,453,443,438,432,427,423,411,402,393,384,373,353,343,329,311,290,254,246,239,235,223,201,187,175,169,164,159,156,150,146,142,126,119,111,104,95,78,70,63],"timestamp_mouse":[14,38,47,67,86,107,127,146,166,186,207,226,247,268,287,307,326,347,367,386,406,427,447,467,487,506,526,546,567,586,606,626,647,666,687,707,727,746,766,786,806,826,847,867,886,907,926,947,966,986,1006,1027,1046,1066,1086,1107,1127,1147,1166,1186,1206,1226,1247,1267,1286,1307,1327,1347,1368,1386,1407,1428,1448,1468,1487,1506,1527],"xSR":741.5,"ySR":458.25,"xT1":424.9,"yT1":0,"xT2":1058.1,"yT2":0,"toosoon":0,"cond_shown":"equaldotanddens","ratio_trial":900,"smaller_num":"18","larger_num":"20","correct_side":2,"subjID":"Sebastianpitagonzalez12","gender":"0","age":"8","school":"4"},{"start_time":1552310304519,"click_time":1552310305502,"finger_time":1552310305363,"fix_duration":954.4941093634762,"trial":50,"RT":844,"MT":139,"sideResp":1,"stimulus":"img/750/equaldotsize/L/9_Ratio_750_L_4_R_3.png","xmouse":[773,773,773,773,773,773,773,774,774,774,774,774,775,776,776,777,778,778,778,778,778,778,778,778,778,778,778,778,778,778,778,778,778,778,778,778,778,778,778,778,778,778,775,748,728,701,661,613,525,496],"ymouse":[503,503,503,503,503,503,504,502,500,499,498,496,492,487,484,482,479,477,475,474,474,474,473,473,472,472,472,472,472,472,472,472,472,472,472,472,472,472,472,472,472,463,455,416,388,343,273,193,65,26],"timestamp_mouse":[14,26,43,78,84,103,123,143,164,184,203,225,245,263,284,305,324,344,363,384,404,424,445,465,484,504,524,544,563,583,603,623,643,664,684,705,723,743,763,783,804,824,844,864,884,903,924,944,963,983],"xSR":741.5,"ySR":458.25,"xT1":424.9,"yT1":0,"xT2":1058.1,"yT2":0,"toosoon":0,"cond_shown":"equaldotsize","ratio_trial":750,"smaller_num":"3","larger_num":"4","correct_side":1,"subjID":"Sebastianpitagonzalez12","gender":"0","age":"8","school":"4"},{"start_time":1552310307448,"click_time":1552310309003,"finger_time":1552310308362,"fix_duration":485.08510168579323,"trial":51,"RT":914,"MT":641,"sideResp":1,"stimulus":"img/250/equaldotanddens/L/1_Ratio_250_L_8_R_2.png","xmouse":[788,788,788,788,788,788,788,788,788,788,788,788,788,788,788,788,788,788,788,788,788,788,787,787,787,787,787,787,787,787,787,787,787,787,786,784,773,766,761,756,754,753,753,751,746,738,724,724,724,724,717,709,701,695,691,683,658,637,617,598,591,585,582,578,575,569,563,555,545,532,515,488,478,474,470,466,444,436],"ymouse":[532,532,532,532,532,532,532,532,532,532,532,532,532,532,532,532,532,532,528,523,518,510,507,505,503,500,496,496,496,495,495,495,495,495,495,497,507,512,515,517,519,519,519,519,512,499,451,441,435,430,412,398,383,370,361,341,302,278,259,246,239,233,230,224,220,214,206,197,186,173,159,136,129,126,123,120,104,97],"timestamp_mouse":[14,41,54,75,96,114,134,154,174,195,215,234,254,275,294,315,335,355,374,395,414,434,455,475,495,515,534,556,574,595,614,634,656,674,694,715,734,756,774,794,814,835,855,874,894,914,934,955,975,995,1016,1034,1055,1075,1096,1116,1135,1155,1175,1196,1215,1234,1254,1275,1294,1315,1334,1355,1374,1395,1414,1435,1454,1474,1495,1515,1535,1555],"xSR":741.5,"ySR":458.25,"xT1":424.9,"yT1":0,"xT2":1058.1,"yT2":0,"toosoon":0,"cond_shown":"equaldotanddens","ratio_trial":250,"smaller_num":"2","larger_num":"8","correct_side":1,"subjID":"Sebastianpitagonzalez12","gender":"0","age":"8","school":"4"},{"start_time":1552310311599,"click_time":1552310314683,"finger_time":1552310312582,"fix_duration":995.907309822744,"trial":52,"RT":983,"MT":2101,"sideResp":2,"stimulus":"img/900/equaldotsize/L/8_Ratio_900_L_20_R_18.png","xmouse":[773,773,773,773,773,773,773,773,773,773,773,773,773,773,773,773,773,773,773,773,773,773,773,773,773,773,773,773,773,773,773,773,773,773,773,773,773,773,773,773,773,773,773,773,773,773,773,773,773,758,756,754,754,754,752,752,752,752,752,765,771,774,775,775,779,785,796,809,829,841,849,860,872,881,894,899,901,902,902,903,904,906,908,910,910,913,914,917,920,925,930,934,937,938,949,964,985,1003,1016,1021,1021,1024,1027,1030,1031,1032,1032,1033,1033,1033,1033,1034,1039,1043,1049,1050,1051,1052,1052,1052,1052,1052,1052,1052,1052,1052,1052,1052,1052,1052,1053,1053,1053,1053,1053,1053,1053,1053,1055,1058,1061,1061,1063,1063,1065,1066,1066,1067,1067,1068,1068,1068,1068,1068,1068],"ymouse":[489,490,490,490,490,490,490,490,490,490,490,490,490,490,490,490,490,490,490,490,490,490,490,490,490,490,490,490,489,487,487,487,487,487,487,487,487,487,487,487,487,487,487,487,487,487,487,483,476,404,379,370,370,370,369,370,370,372,374,386,388,389,389,389,374,352,331,316,306,300,295,286,275,266,258,258,258,258,258,257,257,257,256,255,255,254,254,252,251,247,243,239,236,236,226,218,208,199,190,187,186,184,182,179,178,177,175,173,173,173,173,172,165,160,149,145,142,141,141,141,141,141,141,141,141,141,141,139,136,134,134,134,134,134,134,133,133,131,130,125,121,118,115,113,108,107,105,104,103,101,101,101,101,100,98],"timestamp_mouse":[9,23,52,64,85,104,124,144,163,184,204,223,243,263,284,304,323,343,365,385,403,423,445,465,484,504,523,543,563,584,604,623,644,664,683,703,723,744,764,783,803,823,844,864,883,903,923,944,964,983,1005,1023,1043,1063,1083,1104,1124,1143,1163,1183,1203,1223,1244,1264,1283,1304,1324,1343,1363,1383,1403,1423,1444,1463,1483,1504,1524,1544,1565,1584,1605,1625,1645,1667,1684,1703,1724,1743,1765,1784,1803,1823,1844,1863,1883,1904,1925,1944,1964,1984,2003,2024,2043,2064,2084,2103,2123,2143,2165,2183,2204,2223,2244,2264,2284,2304,2323,2343,2364,2383,2404,2424,2444,2464,2483,2504,2524,2543,2565,2583,2605,2624,2644,2664,2683,2703,2724,2744,2763,2784,2803,2824,2844,2864,2884,2903,2923,2944,2964,2983,3004,3023,3043,3063,3084],"xSR":741.5,"ySR":458.25,"xT1":424.9,"yT1":0,"xT2":1058.1,"yT2":0,"toosoon":0,"cond_shown":"equaldotsize","ratio_trial":900,"smaller_num":"18","larger_num":"20","correct_side":1,"subjID":"Sebastianpitagonzalez12","gender":"0","age":"8","school":"4"},{"start_time":1552310316034,"click_time":1552310317262,"finger_time":1552310316543,"fix_duration":250,"trial":53,"RT":509,"MT":719,"sideResp":1,"stimulus":"img/250/equaldotanddens/L/15_Ratio_250_L_12_R_3.png","xmouse":[806,806,806,805,805,804,803,802,802,802,802,802,802,802,802,802,801,797,794,792,792,790,788,786,783,779,774,761,759,759,759,759,759,759,759,759,757,750,746,744,742,742,742,739,735,734,734,733,727,717,704,692,670,662,656,649,631,611,592,561,525,494],"ymouse":[484,484,484,480,479,475,468,463,463,463,463,463,463,463,463,463,462,469,473,475,476,476,473,470,463,449,436,416,415,415,415,415,415,415,415,415,413,403,394,389,387,387,386,387,388,389,389,389,386,373,360,346,320,309,300,288,254,219,181,146,103,61],"timestamp_mouse":[10,29,60,68,89,109,129,149,168,188,209,228,248,268,288,308,328,349,368,389,408,428,449,469,489,509,529,549,569,588,609,628,648,669,688,709,728,749,769,790,809,829,848,870,888,909,929,948,968,989,1008,1028,1048,1068,1089,1109,1130,1148,1170,1189,1208,1228],"xSR":741.5,"ySR":458.25,"xT1":424.9,"yT1":0,"xT2":1058.1,"yT2":0,"toosoon":0,"cond_shown":"equaldotanddens","ratio_trial":250,"smaller_num":"3","larger_num":"12","correct_side":1,"subjID":"Sebastianpitagonzalez12","gender":"0","age":"8","school":"4"},{"start_time":1552310321249,"click_time":1552310322763,"finger_time":1552310321922,"fix_duration":1426.9504342634775,"trial":54,"RT":673,"MT":84