[{"start_time":1552054971364,"click_time":1552054979347,"finger_time":1552054971371,"fix_duration":250,"trial":0,"RT":7,"MT":7976,"sideResp":1,"stimulus":"img/500/randomdotsizeEA/R/12_Ratio_500_L_1_R_2.png","xmouse":[812,812,812,812,812,812,812,812,812,812,812,812,812,812,812,812,812,812,812,812,812,812,812,812,812,812,812,812,812,812,812,812,812,812,812,812,812,812,812,812,812,812,812,812,812,812,812,812,812,812,812,812,812,812,812,812,812,812,812,812,812,812,813,813,813,813,813,813,813,813,813,812,812,812,812,811,811,811,811,811,811,811,811,811,811,811,811,811,811,811,811,811,811,811,811,811,811,811,811,811,811,811,811,811,811,811,811,811,811,811,810,800,794,793,792,791,791,791,791,791,791,791,790,790,790,790,790,790,790,790,790,790,790,789,789,789,789,789,789,789,789,789,789,789,789,789,789,789,789,789,789,789,789,789,789,789,789,789,789,789,789,789,789,789,789,789,789,789,789,789,789,789,789,789,789,789,789,789,789,789,789,789,789,789,789,789,789,789,789,789,789,789,789,789,789,789,789,789,789,789,789,789,789,789,789,789,789,789,789,789,789,789,789,789,789,789,789,789,789,789,789,789,789,789,789,789,789,789,789,789,789,789,789,789,789,789,789,789,789,789,789,789,789,789,789,789,789,789,789,789,789,789,789,789,789,789,789,789,789,789,789,789,789,789,789,789,789,789,789,789,789,789,789,789,789,789,789,789,789,789,789,789,789,789,789,789,789,789,789,789,789,789,789,789,789,789,789,789,789,789,789,789,789,789,789,789,789,789,789,789,789,789,789,789,789,789,789,789,789,789,789,789,789,789,789,789,789,789,789,789,789,789,795,789,778,778,756,756,756,756,756,756,756,756,756,756,756,756,756,756,756,756,756,756,756,756,756,756,756,756,755,754,751,744,740,735,730,720,696,688,684,684,684,683,671,656,646,644,644,644,643,641,635,613,600,592,583,575,575,575,575,575,575,575,572,559,543,531,528,520],"ymouse":[527,527,527,527,527,527,527,527,527,527,527,527,527,527,527,527,527,527,527,527,527,527,527,527,527,527,527,527,527,527,527,527,527,527,527,527,527,527,527,527,527,527,527,527,527,527,527,527,527,527,527,527,527,527,527,527,527,527,527,536,550,561,563,564,564,564,564,565,566,566,566,568,569,570,570,572,573,576,576,576,576,576,576,576,576,576,576,576,576,576,576,576,576,576,576,576,576,576,576,576,576,576,576,576,576,576,576,576,576,576,579,597,604,607,611,612,612,612,612,612,612,612,613,614,614,614,614,614,614,614,614,614,616,618,618,618,618,618,618,618,618,618,618,618,618,618,618,618,618,618,618,618,618,618,618,618,618,618,618,618,618,618,618,618,618,618,618,618,618,618,618,618,618,618,618,618,618,618,618,618,618,618,618,618,618,618,618,618,618,618,618,618,618,618,618,618,618,618,618,618,618,618,618,618,618,618,618,618,618,618,618,618,618,618,618,618,618,618,618,618,618,618,618,618,618,618,618,618,618,618,618,618,618,618,618,618,618,618,618,618,618,618,618,618,618,618,618,618,618,618,618,618,618,618,618,618,618,618,618,618,618,618,618,618,618,618,618,618,618,618,618,618,618,618,618,618,618,618,618,618,618,618,618,618,618,618,618,618,618,618,618,618,618,618,618,618,618,618,618,618,618,618,618,618,618,618,618,618,618,618,618,618,618,618,618,618,618,618,618,618,618,618,618,618,618,618,618,618,618,618,618,619,357,117,35,35,0,0,0,0,0,0,0,0,0,0,0,0,0,0,0,0,0,0,4,13,19,22,24,24,25,28,33,49,58,70,79,92,107,111,113,113,113,113,113,114,114,114,114,114,114,115,116,115,115,115,115,113,113,113,113,113,113,113,107,93,78,68,66,62],"timestamp_mouse":[6,24,44,64,83,103,124,144,165,184,204,224,245,265,284,304,324,343,364,384,404,424,445,464,485,505,525,545,565,584,604,624,644,663,683,703,725,745,765,785,805,825,844,864,885,905,924,944,963,983,1004,1025,1044,1064,1084,1103,1124,1143,1164,1185,1204,1224,1245,1264,1284,1303,1324,1345,1365,1384,1404,1424,1443,1465,1485,1504,1524,1544,1563,1584,1605,1624,1644,1663,1685,1703,1723,1743,1764,1784,1805,1825,1845,1863,1884,1905,1923,1945,1965,1983,2004,2024,2044,2064,2083,2105,2123,2144,2163,2185,2203,2224,2245,2263,2284,2304,2325,2344,2363,2384,2405,2425,2444,2464,2483,2505,2525,2545,2563,2584,2605,2625,2645,2664,2684,2705,2723,2744,2765,2784,2804,2824,2845,2863,2884,2904,2925,2944,2965,2984,3004,3023,3043,3065,3083,3105,3124,3143,3165,3184,3204,3223,3243,3265,3283,3304,3324,3345,3363,3383,3405,3424,3444,3463,3484,3503,3525,3543,3564,3584,3605,3624,3645,3665,3685,3704,3725,3744,3764,3785,3803,3823,3845,3865,3885,3905,3924,3945,3965,3984,4003,4025,4045,4064,4084,4105,4123,4144,4165,4184,4204,4224,4243,4264,4284,4303,4323,4345,4364,4385,4405,4423,4443,4465,4483,4503,4523,4544,4564,4583,4603,4623,4645,4663,4683,4703,4725,4744,4765,4783,4805,4825,4844,4865,4883,4904,4925,4944,4963,4984,5005,5025,5043,5064,5085,5103,5123,5145,5163,5184,5203,5224,5243,5263,5285,5304,5323,5344,5365,5384,5403,5424,5443,5464,5483,5503,5523,5544,5565,5583,5605,5624,5644,5663,5685,5703,5725,5745,5764,5785,5804,5823,5844,5863,5884,5905,5924,5943,5964,5983,6005,6023,6043,6064,6084,6105,6124,6144,6164,6183,6204,6223,6243,6264,6284,6305,6323,6345,6363,6383,6404,6425,6444,6464,6484,6503,6524,6545,6564,6585,6603,6624,6644,6664,6684,6704,6724,6745,6764,6784,6803,6824,6844,6865,6883,6903,6923,6944,6964,6983,7003,7023,7045,7063,7083,7103,7123,7143,7163,7183,7204,7224,7243,7264,7284,7304,7324,7344,7364,7383,7403,7423,7443,7465,7483,7504,7524,7544,7565,7583,7604,7624,7643,7664,7683,7704,7725,7745,7764,7783,7803,7824,7845,7865,7885,7905,7924,7944,7963,7983],"xSR":741.5,"ySR":500.5,"xT1":424.9,"yT1":0,"xT2":1058.1,"yT2":0,"toosoon":0,"cond_shown":"randomdotsizeEA","ratio_trial":500,"smaller_num":"1","larger_num":"2","correct_side":2,"subjID":"sergiomonroy8","gender":"0","age":"9","school":"4","test":{"fix_dur":[250,1500],"timestim":300,"targets_dim":[100,100],"targets_relative_coord":[0.3,0.7],"size_stim":[880,420],"start_dim":[100,100],"size_start":[300,300],"size_fix":60,"samplingrate":20,"img_types":["equaldotsize","equaldotanddens","randomdotsizeEA"],"ratios":[250,500,750,900],"rep_conds":9,"nTrials":120,"trials_to_rest":500,"Trials_order":[41,99,15,24,88,83,82,2,108,7,107,118,36,27,59,67,87,3,25,32,53,104,51,52,85,61,109,49,80,8,56,21,106,43,18,72,44,66,98,9,115,95,57,116,45,96,58,74,75,55,62,13,22,76,89,60,6,34,70,86,91,64,5,119,28,16,37,79,33,65,1,42,10,30,4,47,20,0,40,103,77,78,93,11,29,94,23,39,31,54,48,12,90,105,117,100,111,73,68,97,14,113,35,46,114,19,101,38,17,84,110,63,69,26,50,92,112,71,102,81],"cond_shown":["randomdotsizeEA","equaldotsize","equaldotsize","equaldotsize","equaldotanddens","randomdotsizeEA","equaldotanddens","randomdotsizeEA","equaldotsize","equaldotanddens","randomdotsizeEA","equaldotanddens","equaldotsize","equaldotsize","randomdotsizeEA","equaldotanddens","equaldotsize","equaldotsize","equaldotanddens","randomdotsizeEA","randomdotsizeEA","randomdotsizeEA","equaldotsize","equaldotanddens","equaldotanddens","equaldotanddens","equaldotanddens","equaldotanddens","randomdotsizeEA","randomdotsizeEA","randomdotsizeEA","equaldotsize","equaldotanddens","equaldotanddens","equaldotsize","equaldotsize","randomdotsizeEA","equaldotsize","randomdotsizeEA","equaldotsize","equaldotanddens","randomdotsizeEA","equaldotsize","randomdotsizeEA","equaldotsize","equaldotsize","equaldotanddens","randomdotsizeEA","equaldotsize","equaldotanddens","randomdotsizeEA","equaldotanddens","equaldotanddens","equaldotanddens","randomdotsizeEA","equaldotsize","equaldotsize","equaldotanddens","equaldotanddens","randomdotsizeEA","equaldotanddens","equaldotanddens","randomdotsizeEA","randomdotsizeEA","equaldotanddens","equaldotanddens","equaldotanddens","equaldotanddens","equaldotsize","randomdotsizeEA","equaldotanddens","equaldotsize","equaldotanddens","equaldotsize","equaldotanddens","randomdotsizeEA","randomdotsizeEA","equaldotsize","equaldotanddens","equaldotanddens","randomdotsizeEA","equaldotsize","equaldotsize","randomdotsizeEA","randomdotsizeEA","equaldotanddens","randomdotsizeEA","equaldotsize","equaldotanddens","equaldotsize","equaldotsize","equaldotsize","equaldotsize","equaldotsize","equaldotsize","equaldotanddens","equaldotsize","equaldotanddens","randomdotsizeEA","equaldotanddens","randomdotsizeEA","randomdotsizeEA","randomdotsizeEA","equaldotanddens","equaldotsize","equaldotanddens","randomdotsizeEA","randomdotsizeEA","randomdotsizeEA","equaldotsize","randomdotsizeEA","equaldotsize","equaldotsize","randomdotsizeEA","randomdotsizeEA","randomdotsizeEA","equaldotanddens","randomdotsizeEA","equaldotsize","equaldotsize"],"ratio_trial":[500,500,500,250,500,900,900,250,250,750,900,900,250,500,900,750,500,500,250,750,500,750,500,500,250,250,250,250,750,750,750,900,900,750,750,250,750,750,250,900,750,900,900,750,900,250,900,250,500,750,250,250,900,500,500,250,750,900,900,250,750,500,500,900,500,500,250,750,900,500,250,750,900,750,500,900,750,250,500,750,500,750,900,900,500,900,900,500,750,750,250,250,750,900,900,500,500,250,750,250,250,500,900,900,750,750,500,250,500,250,250,500,900,250,250,750,500,900,750,900],"smaller_num":["1","2","2","4","10","18","9","6","4","9","18","18","3","10","9","18","5","3","4","18","9","15","3","1","5","6","4","3","15","15","3","18","18","12","12","3","3","15","2","18","6","18","9","6","18","2","9","3","5","3","3","6","9","5","6","6","3","9","18","3","3","2","9","9","9","9","3","3","9","4","6","15","9","6","6","18","15","1","2","9","6","3","18","9","1","18","9","1","12","6","3","3","6","9","9","2","1","3","15","2","3","1","9","9","3","15","9","1","6","6","2","2","18","2","3","18","6","9","12","18"],"larger_num":["2","4","4","16","20","20","10","24","16","12","20","20","12","20","10","24","10","6","16","24","18","20","6","2","20","24","16","12","20","20","4","20","20","16","16","12","4","20","8","20","8","20","10","8","20","8","10","12","10","4","12","24","10","10","12","24","4","10","20","12","4","4","18","10","18","18","12","4","10","8","24","20","10","8","12","20","20","4","4","12","12","4","20","10","2","20","10","2","16","8","12","12","8","10","10","4","2","12","20","8","12","2","10","10","4","20","18","4","12","24","8","4","20","8","12","24","12","10","16","20"],"correct_side":[2,2,1,1,2,1,1,2,1,2,2,1,1,2,2,1,1,2,2,1,1,2,2,2,2,1,1,2,2,1,1,1,2,2,2,2,1,2,1,1,1,1,2,1,2,1,2,1,2,2,1,2,2,2,1,1,1,2,1,2,2,1,2,2,2,1,1,1,1,1,2,1,2,1,1,1,1,2,1,2,1,2,2,2,2,2,2,2,2,1,1,1,1,2,2,2,2,2,2,1,2,2,2,2,2,1,2,2,1,1,1,1,1,1,2,1,1,2,2,1],"img_shown":["img/500/randomdotsizeEA/R/12_Ratio_500_L_1_R_2.png","img/500/equaldotsize/R/9_Ratio_500_L_2_R_4.png","img/500/equaldotsize/L/10_Ratio_500_L_4_R_2.png","img/250/equaldotsize/L/2_Ratio_250_L_16_R_4.png","img/500/equaldotanddens/R/3_Ratio_500_L_10_R_20.png","img/900/randomdotsizeEA/L/8_Ratio_900_L_20_R_18.png","img/900/equaldotanddens/L/1_Ratio_900_L_10_R_9.png","img/250/randomdotsizeEA/R/6_Ratio_250_L_6_R_24.png","img/250/equaldotsize/L/2_Ratio_250_L_16_R_4.png","img/750/equaldotanddens/R/15_Ratio_750_L_9_R_12.png","img/900/randomdotsizeEA/R/12_Ratio_900_L_18_R_20.png","img/900/equaldotanddens/L/8_Ratio_900_L_20_R_18.png","img/250/equaldotsize/L/14_Ratio_250_L_12_R_3.png","img/500/equaldotsize/R/3_Ratio_500_L_10_R_20.png","img/900/randomdotsizeEA/R/5_Ratio_900_L_9_R_10.png","img/750/equaldotanddens/L/6_Ratio_750_L_24_R_18.png","img/500/equaldotsize/L/7_Ratio_500_L_10_R_5.png","img/500/equaldotsize/R/2_Ratio_500_L_3_R_6.png","img/250/equaldotanddens/R/10_Ratio_250_L_4_R_16.png","img/750/randomdotsizeEA/L/6_Ratio_750_L_24_R_18.png","img/500/randomdotsizeEA/L/4_Ratio_500_L_18_R_9.png","img/750/randomdotsizeEA/R/5_Ratio_750_L_15_R_20.png","img/500/equaldotsize/R/2_Ratio_500_L_3_R_6.png","img/500/equaldotanddens/R/15_Ratio_500_L_1_R_2.png","img/250/equaldotanddens/R/12_Ratio_250_L_5_R_20.png","img/250/equaldotanddens/L/5_Ratio_250_L_24_R_6.png","img/250/equaldotanddens/L/2_Ratio_250_L_16_R_4.png","img/250/equaldotanddens/R/11_Ratio_250_L_3_R_12.png","img/750/randomdotsizeEA/R/3_Ratio_750_L_15_R_20.png","img/750/randomdotsizeEA/L/1_Ratio_750_L_20_R_15.png","img/750/randomdotsizeEA/L/9_Ratio_750_L_4_R_3.png","img/900/equaldotsize/L/2_Ratio_900_L_20_R_18.png","img/900/equaldotanddens/R/12_Ratio_900_L_18_R_20.png","img/750/equaldotanddens/R/11_Ratio_750_L_12_R_16.png","img/750/equaldotsize/R/11_Ratio_750_L_12_R_16.png","img/250/equaldotsize/R/9_Ratio_250_L_3_R_12.png","img/750/randomdotsizeEA/L/10_Ratio_750_L_4_R_3.png","img/750/equaldotsize/R/3_Ratio_750_L_15_R_20.png","img/250/randomdotsizeEA/L/1_Ratio_250_L_8_R_2.png","img/900/equaldotsize/L/10_Ratio_900_L_20_R_18.png","img/750/equaldotanddens/L/14_Ratio_750_L_8_R_6.png","img/900/randomdotsizeEA/L/10_Ratio_900_L_20_R_18.png","img/900/equaldotsize/R/6_Ratio_900_L_9_R_10.png","img/750/randomdotsizeEA/L/14_Ratio_750_L_8_R_6.png","img/900/equaldotsize/R/11_Ratio_900_L_18_R_20.png","img/250/equaldotsize/L/7_Ratio_250_L_8_R_2.png","img/900/equaldotanddens/R/5_Ratio_900_L_9_R_10.png","img/250/randomdotsizeEA/L/14_Ratio_250_L_12_R_3.png","img/500/equaldotsize/R/14_Ratio_500_L_5_R_10.png","img/750/equaldotanddens/R/12_Ratio_750_L_3_R_4.png","img/250/randomdotsizeEA/L/14_Ratio_250_L_12_R_3.png","img/250/equaldotanddens/R/6_Ratio_250_L_6_R_24.png","img/900/equaldotanddens/R/5_Ratio_900_L_9_R_10.png","img/500/equaldotanddens/R/14_Ratio_500_L_5_R_10.png","img/500/randomdotsizeEA/L/11_Ratio_500_L_12_R_6.png","img/250/equaldotsize/L/5_Ratio_250_L_24_R_6.png","img/750/equaldotsize/L/10_Ratio_750_L_4_R_3.png","img/900/equaldotanddens/R/6_Ratio_900_L_9_R_10.png","img/900/equaldotanddens/L/2_Ratio_900_L_20_R_18.png","img/250/randomdotsizeEA/R/9_Ratio_250_L_3_R_12.png","img/750/equaldotanddens/R/7_Ratio_750_L_3_R_4.png","img/500/equaldotanddens/L/5_Ratio_500_L_4_R_2.png","img/500/randomdotsizeEA/R/6_Ratio_500_L_9_R_18.png","img/900/randomdotsizeEA/R/3_Ratio_900_L_9_R_10.png","img/500/equaldotanddens/R/1_Ratio_500_L_9_R_18.png","img/500/equaldotanddens/L/4_Ratio_500_L_18_R_9.png","img/250/equaldotanddens/L/14_Ratio_250_L_12_R_3.png","img/750/equaldotanddens/L/9_Ratio_750_L_4_R_3.png","img/900/equaldotsize/L/1_Ratio_900_L_10_R_9.png","img/500/randomdotsizeEA/L/8_Ratio_500_L_8_R_4.png","img/250/equaldotanddens/R/6_Ratio_250_L_6_R_24.png","img/750/equaldotsize/L/1_Ratio_750_L_20_R_15.png","img/900/equaldotanddens/R/15_Ratio_900_L_9_R_10.png","img/750/equaldotsize/L/14_Ratio_750_L_8_R_6.png","img/500/equaldotanddens/L/13_Ratio_500_L_12_R_6.png","img/900/randomdotsizeEA/L/10_Ratio_900_L_20_R_18.png","img/750/randomdotsizeEA/L/1_Ratio_750_L_20_R_15.png","img/250/equaldotsize/R/8_Ratio_250_L_1_R_4.png","img/500/equaldotanddens/L/5_Ratio_500_L_4_R_2.png","img/750/equaldotanddens/R/15_Ratio_750_L_9_R_12.png","img/500/randomdotsizeEA/L/13_Ratio_500_L_12_R_6.png","img/750/equaldotsize/R/12_Ratio_750_L_3_R_4.png","img/900/equaldotsize/R/14_Ratio_900_L_18_R_20.png","img/900/randomdotsizeEA/R/6_Ratio_900_L_9_R_10.png","img/500/randomdotsizeEA/R/15_Ratio_500_L_1_R_2.png","img/900/equaldotanddens/R/12_Ratio_900_L_18_R_20.png","img/900/randomdotsizeEA/R/6_Ratio_900_L_9_R_10.png","img/500/equaldotsize/R/15_Ratio_500_L_1_R_2.png","img/750/equaldotanddens/R/11_Ratio_750_L_12_R_16.png","img/750/equaldotsize/L/13_Ratio_750_L_8_R_6.png","img/250/equaldotsize/L/14_Ratio_250_L_12_R_3.png","img/250/equaldotsize/L/15_Ratio_250_L_12_R_3.png","img/750/equaldotsize/L/14_Ratio_750_L_8_R_6.png","img/900/equaldotsize/R/3_Ratio_900_L_9_R_10.png","img/900/equaldotsize/R/7_Ratio_900_L_9_R_10.png","img/500/equaldotanddens/R/9_Ratio_500_L_2_R_4.png","img/500/equaldotsize/R/12_Ratio_500_L_1_R_2.png","img/250/equaldotanddens/R/9_Ratio_250_L_3_R_12.png","img/750/randomdotsizeEA/R/5_Ratio_750_L_15_R_20.png","img/250/equaldotanddens/L/3_Ratio_250_L_8_R_2.png","img/250/randomdotsizeEA/R/4_Ratio_250_L_3_R_12.png","img/500/randomdotsizeEA/R/12_Ratio_500_L_1_R_2.png","img/900/randomdotsizeEA/R/6_Ratio_900_L_9_R_10.png","img/900/equaldotanddens/R/15_Ratio_900_L_9_R_10.png","img/750/equaldotsize/R/12_Ratio_750_L_3_R_4.png","img/750/equaldotanddens/L/1_Ratio_750_L_20_R_15.png","img/500/randomdotsizeEA/R/1_Ratio_500_L_9_R_18.png","img/250/randomdotsizeEA/R/8_Ratio_250_L_1_R_4.png","img/500/randomdotsizeEA/L/13_Ratio_500_L_12_R_6.png","img/250/equaldotsize/L/5_Ratio_250_L_24_R_6.png","img/250/randomdotsizeEA/L/1_Ratio_250_L_8_R_2.png","img/500/equaldotsize/L/5_Ratio_500_L_4_R_2.png","img/900/equaldotsize/L/4_Ratio_900_L_20_R_18.png","img/250/randomdotsizeEA/L/7_Ratio_250_L_8_R_2.png","img/250/randomdotsizeEA/R/11_Ratio_250_L_3_R_12.png","img/750/randomdotsizeEA/L/6_Ratio_750_L_24_R_18.png","img/500/equaldotanddens/L/13_Ratio_500_L_12_R_6.png","img/900/randomdotsizeEA/R/3_Ratio_900_L_9_R_10.png","img/750/equaldotsize/R/11_Ratio_750_L_12_R_16.png","img/900/equaldotsize/L/10_Ratio_900_L_20_R_18.png"],"Rat0":[["12_Ratio_0_L_9_R_0.png","13_Ratio_0_L_6_R_0.png","5_Ratio_0_L_2_R_0.png","6_Ratio_0_L_4_R_0.png","8_Ratio_0_L_6_R_0.png"],["1_Ratio_0_L_0_R_17.png","10_Ratio_0_L_0_R_22.png","11_Ratio_0_L_0_R_1.png","14_Ratio_0_L_0_R_24.png","15_Ratio_0_L_0_R_4.png","2_Ratio_0_L_0_R_5.png","3_Ratio_0_L_0_R_17.png","4_Ratio_0_L_0_R_7.png","7_Ratio_0_L_0_R_19.png","9_Ratio_0_L_0_R_15.png"]],"Rat250":[["1_Ratio_250_L_8_R_2.png","14_Ratio_250_L_12_R_3.png","15_Ratio_250_L_12_R_3.png","2_Ratio_250_L_16_R_4.png","3_Ratio_250_L_8_R_2.png","5_Ratio_250_L_24_R_6.png","7_Ratio_250_L_8_R_2.png"],["10_Ratio_250_L_4_R_16.png","11_Ratio_250_L_3_R_12.png","12_Ratio_250_L_5_R_20.png","13_Ratio_250_L_2_R_8.png","4_Ratio_250_L_3_R_12.png","6_Ratio_250_L_6_R_24.png","8_Ratio_250_L_1_R_4.png","9_Ratio_250_L_3_R_12.png"]],"Rat500":[["10_Ratio_500_L_4_R_2.png","11_Ratio_500_L_12_R_6.png","13_Ratio_500_L_12_R_6.png","4_Ratio_500_L_18_R_9.png","5_Ratio_500_L_4_R_2.png","7_Ratio_500_L_10_R_5.png","8_Ratio_500_L_8_R_4.png"],["1_Ratio_500_L_9_R_18.png","12_Ratio_500_L_1_R_2.png","14_Ratio_500_L_5_R_10.png","15_Ratio_500_L_1_R_2.png","2_Ratio_500_L_3_R_6.png","3_Ratio_500_L_10_R_20.png","6_Ratio_500_L_9_R_18.png","9_Ratio_500_L_2_R_4.png"]],"Rat750":[["1_Ratio_750_L_20_R_15.png","10_Ratio_750_L_4_R_3.png","13_Ratio_750_L_8_R_6.png","14_Ratio_750_L_8_R_6.png","6_Ratio_750_L_24_R_18.png","8_Ratio_750_L_4_R_3.png","9_Ratio_750_L_4_R_3.png"],["11_Ratio_750_L_12_R_16.png","12_Ratio_750_L_3_R_4.png","15_Ratio_750_L_9_R_12.png","2_Ratio_750_L_6_R_8.png","3_Ratio_750_L_15_R_20.png","4_Ratio_750_L_15_R_20.png","5_Ratio_750_L_15_R_20.png","7_Ratio_750_L_3_R_4.png"]],"Rat900":[["1_Ratio_900_L_10_R_9.png","10_Ratio_900_L_20_R_18.png","2_Ratio_900_L_20_R_18.png","4_Ratio_900_L_20_R_18.png","8_Ratio_900_L_20_R_18.png"],["11_Ratio_900_L_18_R_20.png","12_Ratio_900_L_18_R_20.png","13_Ratio_900_L_18_R_20.png","14_Ratio_900_L_18_R_20.png","15_Ratio_900_L_9_R_10.png","3_Ratio_900_L_9_R_10.png","5_Ratio_900_L_9_R_10.png","6_Ratio_900_L_9_R_10.png","7_Ratio_900_L_9_R_10.png","9_Ratio_900_L_18_R_20.png"]],"Rat1000":[["10_Ratio_1000_L_16_R_16.png","11_Ratio_1000_L_6_R_6.png","12_Ratio_1000_L_14_R_14.png","13_Ratio_1000_L_20_R_20.png","15_Ratio_1000_L_15_R_15.png","2_Ratio_1000_L_17_R_17.png","4_Ratio_1000_L_9_R_9.png","5_Ratio_1000_L_6_R_6.png","6_Ratio_1000_L_19_R_19.png","8_Ratio_1000_L_14_R_14.png","9_Ratio_1000_L_25_R_25.png"],["1_Ratio_1000_L_1_R_1.png","14_Ratio_1000_L_17_R_17.png","3_Ratio_1000_L_17_R_17.png","7_Ratio_1000_L_6_R_6.png"]]}},{"start_time":1552054980620,"click_time":1552054982788,"finger_time":1552054981849,"fix_duration":250,"trial":1,"RT":1229,"MT":939,"sideResp":2,"stimulus":"img/500/equaldotsize/R/9_Ratio_500_L_2_R_4.png","xmouse":[778,778,778,778,778,778,778,778,778,778,778,778,778,778,778,778,778,778,778,778,778,778,778,778,778,778,778,778,778,778,778,778,778,778,778,778,778,778,778,778,778,778,778,778,778,778,778,778,778,778,778,778,778,778,778,779,781,785,789,827,860,881,903,924,962,983,1001,1013,1029,1055,1066,1075,1079,1084,1085,1085,1085,1085,1085,1085,1085,1085,1085,1084,1080,1076,1071,1066,1062,1052,1049,1048,1048,1048,1048,1048,1048,1048,1048,1048,1048,1048,1048,1048,1048,1051,1056,1067],"ymouse":[618,618,618,618,618,618,618,618,618,618,618,618,618,618,618,618,618,618,618,618,618,618,618,618,618,618,618,618,618,618,618,618,618,618,618,618,618,618,618,618,618,618,618,618,618,618,618,618,618,618,618,618,618,618,618,618,617,615,612,594,577,561,540,512,459,430,401,379,349,298,273,245,231,216,201,183,179,175,172,168,166,165,164,164,156,146,133,117,103,73,67,65,65,65,65,65,65,65,65,65,65,65,65,65,65,63,63,61],"timestamp_mouse":[13,52,68,87,108,128,148,167,189,208,228,248,267,288,309,329,348,369,388,408,429,448,468,488,509,528,549,569,589,607,627,647,669,689,709,729,748,768,787,808,828,848,869,889,908,928,948,968,989,1008,1029,1047,1068,1088,1109,1128,1148,1167,1187,1208,1229,1248,1267,1288,1308,1327,1348,1369,1389,1408,1427,1449,1468,1489,1508,1528,1548,1567,1588,1609,1627,1649,1669,1688,1708,1727,1748,1769,1787,1809,1828,1849,1868,1889,1908,1928,1948,1968,1987,2009,2027,2047,2068,2088,2107,2129,2148,2168],"xSR":741.5,"ySR":573.95,"xT1":424.9,"yT1":0,"xT2":1058.1,"yT2":0,"toosoon":0,"cond_shown":"equaldotsize","ratio_trial":500,"smaller_num":"2","larger_num":"4","correct_side":2,"subjID":"sergiomonroy8","gender":"0","age":"9","school":"4"},{"start_time":1552054984772,"click_time":1552054986268,"finger_time":1552054985588,"fix_duration":1022.5912286913269,"trial":2,"RT":816,"MT":680,"sideResp":1,"stimulus":"img/500/equaldotsize/L/10_Ratio_500_L_4_R_2.png","xmouse":[792,792,792,792,792,792,792,792,792,792,792,792,792,792,792,792,792,792,792,792,792,792,792,792,792,792,792,792,792,792,792,792,792,792,792,792,792,792,779,763,750,738,719,638,611,602,596,589,583,578,570,569,569,576,580,581,580,552,525,491,471,469,469,469,469,469,469,469,469,469,469,469,469,469,471],"ymouse":[588,588,588,588,588,588,588,588,588,588,588,588,588,588,588,588,588,588,588,588,588,588,588,588,588,588,588,588,588,588,588,588,588,588,588,588,588,588,584,578,572,562,543,439,400,374,351,326,299,282,264,255,248,238,227,210,194,157,137,118,108,107,107,107,107,107,107,107,107,107,107,107,107,105,89],"timestamp_mouse":[17,37,56,76,95,116,136,156,177,195,216,236,255,275,297,316,335,355,377,396,417,436,456,475,496,517,537,555,577,595,615,637,655,676,695,715,736,756,775,796,816,836,856,876,896,915,936,957,977,996,1016,1037,1057,1075,1095,1116,1135,1157,1175,1196,1216,1236,1255,1275,1296,1317,1337,1356,1376,1396,1417,1435,1455,1475,1495],"xSR":741.5,"ySR":573.95,"xT1":424.9,"yT1":0,"xT2":1058.1,"yT2":0,"toosoon":0,"cond_shown":"equaldotsize","ratio_trial":500,"smaller_num":"2","larger_num":"4","correct_side":1,"subjID":"sergiomonroy8","gender":"0","age":"9","school":"4"},{"start_time":1552054989537,"click_time":1552054991208,"finger_time":1552054990508,"fix_duration":507.4069717980859,"trial":3,"RT":971,"MT":700,"sideResp":1,"stimulus":"img/250/equaldotsize/L/2_Ratio_250_L_16_R_4.png","xmouse":[788,788,788,788,788,788,788,788,788,788,788,788,788,788,788,788,788,788,788,788,788,788,788,788,788,788,788,788,788,788,788,788,788,788,788,788,788,788,788,788,788,788,788,788,788,788,788,787,780,771,756,751,745,735,729,713,707,699,692,684,667,656,641,623,591,540,514,495,485,481,480,480,479,479,479,479,479,479,479,479,482,484,485,487],"ymouse":[647,647,647,647,647,647,647,647,647,647,647,647,647,647,647,647,647,647,647,647,647,647,647,647,647,647,647,647,647,647,647,647,647,647,647,647,647,647,647,647,647,647,647,647,647,636,608,576,535,500,449,430,412,388,373,347,337,329,321,312,294,285,275,263,245,216,200,187,179,174,174,174,173,173,173,173,173,173,167,159,133,115,107,87],"timestamp_mouse":[14,36,50,71,90,111,131,151,172,190,210,231,250,272,292,311,330,352,372,391,412,430,450,470,490,511,531,552,572,592,611,631,652,671,691,712,732,750,772,791,811,832,850,870,892,911,932,951,971,990,1012,1030,1051,1072,1092,1111,1131,1151,1172,1191,1210,1231,1251,1271,1291,1311,1330,1350,1370,1392,1411,1432,1452,1470,1492,1511,1530,1550,1570,1590,1611,1630,1651,1671],"xSR":741.5,"ySR":573.95,"xT1":424.9,"yT1":0,"xT2":1058.1,"yT2":0,"toosoon":0,"cond_shown":"equaldotsize","ratio_trial":250,"smaller_num":"4","larger_num":"16","correct_side":1,"subjID":"sergiomonroy8","gender":"0","age":"9","school":"4"},{"start_time":1552054993889,"click_time":1552054995967,"finger_time":1552054994827,"fix_duration":1219.1212247957728,"trial":4,"RT":938,"MT":1140,"sideResp":2,"stimulus":"img/500/equaldotanddens/R/3_Ratio_500_L_10_R_20.png","xmouse":[803,803,803,803,803,803,803,803,803,803,803,803,803,803,803,803,803,803,803,803,803,803,803,803,803,803,803,803,803,803,803,803,803,803,803,803,803,803,803,811,814,820,823,823,823,832,846,890,932,932,931,929,926,922,922,925,929,934,946,954,964,974,981,1003,1008,1010,1012,1018,1053,1063,1066,1066,1066,1068,1069,1070,1071,1072,1074,1075,1076,1077,1078,1079,1080,1080,1080,1080,1077,1075,1072,1071,1070,1070,1070,1070,1070,1070,1070,1071,1072,1072,1073,1078],"ymouse":[629,629,629,629,629,629,629,629,629,629,629,629,629,629,629,629,629,629,629,629,629,629,629,629,629,629,629,629,629,629,629,629,629,629,629,629,629,629,629,627,622,615,610,610,610,603,592,561,518,507,499,493,484,465,454,445,435,423,401,386,372,358,346,320,314,312,311,308,296,290,286,283,280,266,261,253,247,238,223,218,213,208,199,183,180,178,175,173,162,156,149,145,141,140,138,138,138,137,133,131,129,125,121,98],"timestamp_mouse":[18,40,59,80,100,119,140,160,178,198,219,239,259,279,299,318,339,360,378,400,418,440,459,478,499,520,540,559,579,599,619,640,659,678,700,719,740,759,779,799,819,839,859,879,899,918,938,958,978,998,1018,1039,1060,1078,1099,1119,1138,1159,1179,1198,1219,1238,1260,1279,1299,1318,1338,1359,1379,1399,1419,1440,1459,1480,1498,1518,1538,1558,1579,1599,1620,1639,1658,1678,1699,1719,1739,1758,1779,1799,1820,1840,1860,1878,1898,1918,1939,1959,1979,1999,2020,2039,2059,2078],"xSR":741.5,"ySR":573.95,"xT1":424.9,"yT1":0,"xT2":1058.1,"yT2":0,"toosoon":0,"cond_shown":"equaldotanddens","ratio_trial":500,"smaller_num":"10","larger_num":"20","correct_side":2,"subjID":"sergiomonroy8","gender":"0","age":"9","school":"4"},{"start_time":1552054998390,"click_time":1552055006887,"finger_time":1552055002708,"fix_duration":1301.7047070629376,"trial":5,"RT":4318,"MT":4179,"sideResp":2,"stimulus":"img/900/randomdotsizeEA/L/8_Ratio_900_L_20_R_18.png","xmouse":[808,808,808,808,808,808,808,808,808,808,808,808,808,808,808,808,808,808,808,808,808,808,808,808,808,808,808,808,808,808,808,808,808,808,808,808,808,808,808,808,808,808,808,808,808,808,808,808,808,808,808,808,808,808,808,808,808,808,808,808,808,808,808,808,808,808,808,808,808,808,808,808,808,808,808,808,808,808,808,808,808,808,808,808,808,808,808,808,808,808,808,808,808,808,808,808,808,808,808,808,808,808,808,808,808,808,808,808,808,808,808,808,808,808,808,808,808,808,808,808,808,808,808,808,808,808,808,808,808,808,808,808,808,808,808,808,808,808,808,808,808,808,808,808,808,808,808,808,808,808,808,808,808,808,808,808,808,808,808,808,808,808,808,808,808,808,808,808,808,808,808,808,808,808,808,808,808,808,808,808,808,808,808,808,808,808,808,808,808,808,808,808,808,808,808,808,808,808,808,808,808,808,808,808,808,808,808,808,808,808,808,808,808,808,808,867,981,1091,1132,1132,1132,1132,1132,1132,1132,1132,1132,1132,1132,1132,1132,1132,1132,1132,1132,1132,1132,1126,1080,1065,1060,1059,1056,1054,1053,1053,1053,1053,1053,1053,1053,1053,1053,1053,1053,1053,1053,1053,1053,1053,1053,1053,1053,1045,1035,1030,1028,1022,1012,1004,1004,1004,1004,1004,1004,1004,1000,998,996,993,991,990,989,989,988,987,986,985,985,985,985,985,985,985,985,985,985,985,985,985,985,985,985,985,982,979,978,977,977,977,977,977,977,977,990,1001,1006,1006,975,692,434,147,0,0,247,600,1117,1117,1117,1117,1558,1368,1052,428,0,0,48,302,684,1192,1192,1192,1515,1216,197,0,0,1,133,466,1322,1322,1322,1322,1290,961,561,165,0,6,168,269,637,952,1372,1387,1341,1188,962,738,465,456,456,456,478,568,657,698,707,707,703,659,584,567,556,556,556,556,563,584,592,593,593,593,593,593,593,593,593,593,594,598,607,613,636,655,678,707,764,905,965,1007,1021,1026,1029,1029,1029,1029,1029,1029,1029,1031,1039,1055,1076],"ymouse":[613,613,613,613,613,613,613,613,613,613,613,613,613,613,613,613,613,613,613,613,613,613,613,613,613,613,613,613,613,613,613,613,613,613,613,613,613,613,613,613,613,613,613,613,613,613,613,613,613,613,613,613,613,613,613,613,613,613,613,613,613,613,613,613,613,613,613,613,613,613,613,613,613,613,613,613,613,613,613,613,613,613,613,613,613,613,613,613,613,613,613,613,613,613,613,613,613,613,613,613,613,613,613,613,613,613,613,613,613,613,613,613,613,613,613,613,613,613,613,613,613,613,613,613,613,613,613,613,613,613,613,613,613,613,613,613,613,613,613,613,613,613,613,613,613,613,613,613,613,613,613,613,613,613,613,613,613,613,613,613,613,613,613,613,613,613,613,613,613,613,613,613,613,613,613,613,613,613,613,613,613,613,613,613,613,613,613,613,613,613,613,613,613,613,613,613,613,613,613,613,613,613,613,613,613,613,613,613,613,613,613,613,613,613,606,481,301,165,123,123,123,123,123,123,123,123,123,123,123,123,123,123,123,123,123,123,123,123,123,123,123,127,136,143,147,147,147,147,147,147,147,147,147,147,147,147,147,147,147,147,147,149,152,178,205,223,238,253,270,281,281,281,281,281,281,281,284,286,289,295,298,301,303,304,306,307,308,308,308,308,308,308,308,308,308,308,308,308,308,308,308,308,308,308,308,308,308,308,308,308,308,308,308,308,286,266,242,204,127,0,0,0,0,0,0,0,0,0,0,0,0,0,0,0,0,0,0,0,0,0,0,0,10,12,12,12,0,0,0,0,0,0,0,0,3,0,0,0,0,0,0,0,0,0,11,23,38,75,109,139,178,179,179,179,177,160,149,144,144,144,143,136,125,121,113,112,107,101,94,81,78,77,77,77,77,77,77,77,77,77,77,77,77,77,77,77,77,77,77,77,77,77,75,75,74,74,74,74,74,74,74,74,72,72,72],"timestamp_mouse":[19,44,59,79,97,118,138,158,177,199,218,239,257,278,298,317,339,358,377,399,417,437,457,477,498,519,537,559,577,598,618,639,658,677,699,719,739,759,778,797,817,838,858,878,898,918,937,958,977,999,1018,1038,1059,1079,1098,1118,1139,1159,1177,1198,1218,1239,1258,1279,1297,1318,1339,1359,1378,1398,1417,1438,1459,1478,1498,1517,1538,1558,1577,1598,1619,1638,1658,1678,1698,1718,1739,1759,1779,1797,1818,1839,1857,1877,1898,1917,1938,1957,1977,1999,2018,2038,2058,2078,2098,2118,2139,2159,2177,2198,2219,2238,2258,2278,2299,2318,2338,2358,2377,2399,2418,2438,2457,2479,2497,2518,2538,2559,2578,2597,2617,2637,2657,2679,2699,2718,2738,2758,2779,2797,2818,2839,2859,2879,2897,2918,2939,2958,2979,2998,3018,3039,3057,3077,3098,3119,3137,3157,3177,3199,3219,3237,3258,3278,3298,3319,3339,3358,3378,3397,3419,3439,3458,3479,3499,3518,3538,3558,3579,3599,3618,3637,3657,3677,3698,3719,3738,3758,3777,3797,3819,3838,3858,3879,3898,3918,3938,3958,3977,3999,4018,4038,4058,4077,4098,4119,4138,4159,4179,4199,4217,4238,4258,4279,4299,4318,4339,4359,4379,4399,4418,4438,4457,4478,4497,4518,4538,4558,4577,4598,4618,4639,4658,4677,4697,4717,4738,4757,4779,4797,4818,4838,4859,4878,4898,4918,4937,4958,4978,4999,5019,5038,5057,5078,5098,5118,5139,5158,5179,5198,5218,5238,5258,5279,5297,5319,5337,5357,5379,5397,5418,5439,5459,5478,5498,5518,5537,5557,5577,5598,5619,5639,5658,5678,5697,5718,5738,5758,5778,5798,5818,5837,5857,5878,5899,5918,5937,5957,5979,5999,6018,6037,6058,6077,6097,6117,6137,6158,6178,6197,6218,6237,6258,6277,6297,6318,6337,6358,6377,6398,6418,6438,6458,6477,6498,6518,6537,6558,6579,6598,6617,6638,6657,6677,6697,6718,6739,6758,6778,6800,6817,6837,6858,6877,6898,6919,6937,6958,6978,6998,7017,7038,7058,7079,7097,7119,7137,7159,7179,7198,7217,7237,7257,7277,7299,7318,7338,7357,7378,7398,7418,7438,7458,7479,7498,7518,7537,7559,7579,7597,7618,7637,7657,7678,7698,7718,7738,7758,7778,7798,7817,7838,7859,7878,7897,7917,7937,7957,7977,7998,8018,8039,8059,8079,8098,8117,8138,8158,8177,8198,8219,8238,8258,8278,8297,8318,8338,8359,8379,8398,8418,8438,8458,8477,8497],"xSR":741.5,"ySR":573.95,"xT1":424.9,"yT1":0,"xT2":1058.1,"yT2":0,"toosoon":0,"cond_shown":"randomdotsizeEA","ratio_trial":900,"smaller_num":"18","larger_num":"20","correct_side":1,"subjID":"sergiomonroy8","gender":"0","age":"9","school":"4"},{"start_time":1552055010602,"click_time":1552055012589,"finger_time":1552055012048,"fix_duration":250,"trial":6,"RT":1446,"MT":541,"sideResp":1,"stimulus":"img/900/equaldotanddens/L/1_Ratio_900_L_10_R_9.png","xmouse":[791,791,793,793,793,793,793,793,793,793,793,793,793,793,793,793,793,793,793,793,793,793,793,793,793,793,793,793,793,793,793,793,793,793,793,793,793,793,793,793,793,793,793,793,793,793,793,793,793,793,793,793,793,793,793,793,793,793,793,793,793,793,793,793,793,793,793,793,793,793,793,766,745,695,620,612,608,607,605,602,602,600,597,590,585,580,577,573,569,565,560,553,545,541,527,518,508,498,482],"ymouse":[588,588,588,588,588,588,588,588,588,588,588,588,588,588,588,588,588,588,588,588,588,588,588,588,588,588,588,588,588,588,588,588,588,588,588,588,588,588,588,588,588,588,588,588,588,588,588,588,588,588,588,588,588,588,588,588,588,588,588,588,588,588,588,588,588,588,588,588,588,588,588,552,524,472,396,381,370,364,350,336,328,321,312,288,274,261,251,243,233,223,213,201,191,183,158,146,132,116,89],"timestamp_mouse":[19,46,66,85,107,125,146,167,186,205,227,247,266,286,307,326,346,367,385,405,426,447,466,485,505,525,546,565,585,606,627,646,667,686,705,726,745,766,786,805,826,847,866,885,907,925,947,966,987,1005,1025,1045,1067,1086,1105,1126,1147,1167,1186,1206,1225,1245,1267,1286,1306,1325,1347,1367,1386,1406,1425,1446,1466,1485,1506,1526,1546,1566,1587,1605,1626,1646,1667,1687,1706,1725,1746,1765,1787,1805,1825,1845,1866,1886,1906,1926,1946,1966,1987],"xSR":741.5,"ySR":573.95,"xT1":424.9,"yT1":0,"xT2":1058.1,"yT2":0,"toosoon":0,"cond_shown":"equaldotanddens","ratio_trial":900,"smaller_num":"9","larger_num":"10","correct_side":1,"subjID":"sergiomonroy8","gender":"0","age":"9","school":"4"},{"start_time":1552055014681,"click_time":1552055017228,"finger_time":1552055015968,"fix_duration":1012.58298527688,"trial":7,"RT":1287,"MT":1260,"sideResp":2,"stimulus":"img/250/randomdotsizeEA/R/6_Ratio_250_L_6_R_24.png","xmouse":[785,785,785,785,785,785,785,785,785,785,785,785,785,785,785,785,785,785,785,785,785,785,785,785,785,785,785,785,785,785,785,785,785,785,785,785,785,785,785,785,785,785,785,785,785,785,785,785,785,785,785,785,785,785,785,785,785,785,785,785,783,776,766,764,755,750,744,742,740,737,733,725,722,721,720,720,720,720,720,720,720,720,720,720,720,720,720,720,720,720,720,720,720,720,720,720,720,720,725,730,734,742,744,746,750,758,769,800,819,844,879,966,1007,1077,1123,1153,1207,1216,1220,1220,1220,1212,1205,1194,1177,1171,1163,1152],"ymouse":[617,617,617,617,617,617,617,617,617,617,617,617,617,617,617,617,617,617,617,617,617,617,617,617,617,617,617,617,617,617,617,617,617,617,617,617,617,617,617,617,617,617,617,617,617,617,617,617,617,617,617,617,617,617,617,617,617,617,617,617,613,601,587,581,564,553,538,533,530,525,520,509,503,499,498,498,498,498,498,498,498,498,498,498,498,498,498,498,498,498,498,498,498,498,498,498,497,501,514,525,534,551,554,557,557,557,557,538,522,495,457,362,316,251,208,185,132,114,101,91,85,64,52,39,24,21,20,20],"timestamp_mouse":[12,42,47,68,86,107,128,147,168,187,208,228,246,266,287,308,328,346,367,386,406,427,447,468,486,506,528,548,566,586,608,627,646,667,686,708,726,747,767,788,808,826,847,867,888,907,928,946,966,988,1007,1028,1047,1067,1087,1106,1127,1148,1166,1186,1208,1226,1247,1267,1287,1307,1327,1346,1366,1387,1407,1427,1448,1468,1487,1507,1526,1546,1567,1587,1608,1627,1647,1666,1686,1708,1727,1746,1766,1787,1808,1827,1847,1866,1887,1908,1926,1947,1967,1986,2008,2026,2046,2068,2088,2107,2127,2148,2167,2187,2206,2227,2247,2268,2287,2306,2326,2346,2366,2388,2408,2426,2446,2467,2486,2508,2527,2547],"xSR":741.5,"ySR":573.95,"xT1":424.9,"yT1":0,"xT2":1058.1,"yT2":0,"toosoon":0,"cond_shown":"randomdotsizeEA","ratio_trial":250,"smaller_num":"6","larger_num":"24","correct_side":2,"subjID":"sergiomonroy8","gender":"0","age":"9","school":"4"},{"start_time":1552055020546,"click_time":1552055021867,"finger_time":1552055021409,"fix_duration":1256.517006857866,"trial":8,"RT":863,"MT":458,"sideResp":1,"stimulus":"img/250/equaldotsize/L/2_Ratio_250_L_16_R_4.png","xmouse":[841,841,841,841,841,841,841,841,841,841,841,841,841,841,841,841,841,841,841,841,841,841,841,841,841,841,841,841,841,841,841,841,841,841,841,841,841,841,841,841,841,841,833,747,698,664,629,591,542,533,529,521,506,482,424,409,404,404,404,414,416,417,417,417,421,423,428],"ymouse":[594,594,594,594,594,594,594,594,594,594,594,594,594,594,594,594,594,594,594,594,594,594,594,594,594,594,594,594,594,594,594,594,594,594,594,594,594,594,594,594,594,594,594,545,497,463,427,392,341,321,305,282,258,235,186,170,158,146,134,108,101,94,88,82,74,71,67],"timestamp_mouse":[12,35,42,62,82,102,122,142,162,182,201,221,241,262,282,301,322,343,362,382,403,423,443,462,483,502,522,542,561,582,603,623,642,661,681,702,721,743,762,781,802,823,843,863,882,902,922,941,962,981,1003,1021,1041,1061,1081,1102,1122,1142,1163,1182,1202,1222,1242,1263,1283,1303,1321],"xSR":741.5,"ySR":573.95,"xT1":424.9,"yT1":0,"xT2":1058.1,"yT2":0,"toosoon":0,"cond_shown":"equaldotsize","ratio_trial":250,"smaller_num":"4","larger_num":"16","correct_side":1,"subjID":"sergiomonroy8","gender":"0","age":"9","school":"4"},{"start_time":1552055023250,"click_time":1552055024547,"finger_time":1552055024127,"fix_duration":541.8223414021633,"trial":9,"RT":877,"MT":420,"sideResp":2,"stimulus":"img/750/equaldotanddens/R/15_Ratio_750_L_9_R_12.png","xmouse":[754,754,754,754,754,754,754,754,754,754,754,754,754,754,754,754,754,754,755,755,755,755,755,755,755,755,755,755,755,755,755,755,755,755,755,755,755,755,755,755,755,757,777,836,862,889,906,916,934,945,955,964,973,999,1008,1019,1032,1044,1070,1083,1093,1100,1107,1112,1114],"ymouse":[652,652,652,652,652,652,652,652,652,652,652,652,652,652,652,652,652,652,652,652,652,652,652,652,652,652,652,652,652,652,652,652,652,652,652,652,652,652,652,652,652,646,625,559,527,504,485,465,415,386,361,337,316,274,257,238,218,199,165,150,140,133,125,110,97],"timestamp_mouse":[18,43,58,77,97,118,138,158,179,197,218,238,257,277,297,318,339,358,378,397,418,438,458,477,499,517,539,557,579,599,617,638,659,678,698,719,737,758,778,797,818,838,858,877,897,917,938,958,978,999,1019,1038,1059,1078,1098,1117,1137,1158,1177,1198,1219,1237,1258,1277,1297],"xSR":741.5,"ySR":573.95,"xT1":424.9,"yT1":0,"xT2":1058.1,"yT2":0,"toosoon":0,"cond_shown":"equaldotanddens","ratio_trial":750,"smaller_num":"9","larger_num":"12","correct_side":2,"subjID":"sergiomonroy8","gender":"0","age":"9","school":"4"},{"start_time":1552055026879,"click_time":1552055030769,"finger_time":1552055029228,"fix_duration":1329.4405478051772,"trial":10,"RT":2349,"MT":1541,"sideResp":1,"stimulus":"img/900/randomdotsizeEA/R/12_Ratio_900_L_18_R_20.png","xmouse":[787,787,787,787,787,787,787,787,787,787,787,787,787,787,787,787,787,787,787,787,788,796,805,806,806,806,806,806,806,806,806,806,806,806,806,806,806,806,806,806,806,806,806,806,806,806,806,806,806,806,806,806,806,806,806,806,806,806,806,806,806,806,806,806,806,806,806,806,806,806,806,806,806,806,806,806,806,806,806,806,806,806,806,806,806,806,806,806,806,806,806,806,806,806,806,806,806,806,806,806,806,806,806,806,806,806,806,806,806,806,806,806,806,806,806,806,806,810,810,810,810,810,809,809,808,807,807,806,800,789,785,784,773,766,753,737,721,704,695,686,679,674,668,658,654,646,629,574,539,495,478,469,468,468,468,468,468,468,468,467,467,467,467,467,467,467,467,467,467,467,467,467,467,467,467,467,467,467,467,467,467,467,467,467,467,467,467,467,467,467,467,467,467,467,468],"ymouse":[613,613,613,613,613,613,613,613,613,613,613,613,613,613,613,613,613,613,613,613,613,608,603,602,602,602,602,602,602,602,602,602,602,602,602,602,602,602,602,602,602,602,602,602,602,602,602,602,602,602,602,602,602,602,602,602,602,602,602,602,602,602,602,602,602,602,602,602,602,602,602,602,602,602,602,602,602,602,602,602,602,602,602,602,602,602,602,602,602,602,602,602,602,602,602,602,602,602,602,602,602,602,602,602,602,602,602,602,602,602,602,602,602,602,602,601,598,568,562,554,552,549,545,543,542,539,537,533,513,488,477,470,452,435,415,391,368,334,310,298,285,277,270,260,255,249,236,205,189,169,162,156,155,155,155,155,155,155,155,152,149,143,133,127,122,118,115,111,110,110,110,110,110,110,110,110,110,110,110,110,110,110,110,110,110,109,108,107,105,104,103,103,103,101,99],"timestamp_mouse":[13,35,49,68,89,110,128,149,170,189,210,228,249,270,289,309,329,349,369,388,410,429,448,469,489,509,530,549,568,589,610,630,650,668,689,710,730,750,770,789,809,829,848,870,890,910,929,948,968,988,1009,1029,1049,1068,1089,1110,1129,1148,1168,1189,1209,1229,1248,1268,1289,1310,1330,1349,1368,1390,1408,1429,1450,1469,1490,1510,1529,1549,1568,1589,1609,1628,1649,1668,1690,1710,1730,1749,1768,1789,1810,1830,1849,1869,1889,1910,1929,1949,1968,1989,2010,2030,2049,2069,2088,2109,2129,2150,2169,2190,2210,2229,2248,2268,2290,2309,2329,2349,2368,2389,2409,2429,2449,2469,2488,2510,2530,2548,2569,2589,2610,2629,2649,2668,2690,2710,2730,2749,2769,2789,2810,2829,2849,2869,2889,2910,2930,2950,2969,2990,3009,3029,3050,3069,3089,3110,3129,3150,3168,3189,3208,3229,3250,3269,3289,3310,3330,3350,3369,3389,3409,3429,3450,3470,3490,3509,3529,3550,3569,3589,3609,3630,3649,3669,3689,3709,3730,3749,3770,3790,3810,3829,3849,3870,3889],"xSR":741.5,"ySR":573.95,"xT1":424.9,"yT1":0,"xT2":1058.1,"yT2":0,"toosoon":0,"cond_shown":"randomdotsizeEA","ratio_trial":900,"smaller_num":"18","larger_num":"20","correct_side":2,"subjID":"sergiomonroy8","gender":"0","age":"9","school":"4"},{"start_time":1552055034185,"click_time":1552055035888,"finger_time":1552055034668,"fix_duration":734.2158731695862,"trial":11,"RT":483,"MT":1220,"sideResp":1,"stimulus":"img/900/equaldotanddens/L/8_Ratio_900_L_20_R_18.png","xmouse":[786,786,786,786,786,786,786,786,786,786,786,786,786,786,786,786,786,784,783,782,782,782,782,782,775,758,739,725,725,725,725,725,725,725,725,725,725,727,737,743,747,747,747,747,747,747,748,749,756,759,760,760,760,749,737,725,708,694,666,640,596,573,570,570,570,569,568,563,559,554,553,544,519,446,415,394,386,386,388,392,393,393,393,396,407,426],"ymouse":[657,657,657,657,657,657,657,657,657,657,657,657,657,657,657,658,663,666,670,671,671,671,671,671,675,677,679,677,677,677,677,677,677,677,677,677,677,677,677,677,677,677,677,677,677,677,677,677,676,674,674,674,674,641,620,609,603,600,590,586,581,576,576,576,576,574,573,572,570,543,524,466,382,225,172,133,116,113,110,107,105,99,96,93,91,88],"timestamp_mouse":[12,24,44,63,83,104,124,144,163,184,203,224,244,263,284,303,324,344,363,383,403,423,443,464,483,503,524,544,563,583,603,624,644,663,684,704,724,744,763,783,804,823,843,863,883,903,924,943,964,983,1004,1023,1043,1063,1084,1103,1123,1143,1164,1183,1204,1223,1243,1264,1284,1304,1324,1344,1390,1392,1403,1424,1444,1462,1483,1504,1523,1543,1564,1584,1603,1623,1643,1663,1682,1703],"xSR":741.5,"ySR":573.95,"xT1":424.9,"yT1":0,"xT2":1058.1,"yT2":0,"toosoon":0,"cond_shown":"equaldotanddens","ratio_trial":900,"smaller_num":"18","larger_num":"20","correct_side":1,"subjID":"sergiomonroy8","gender":"0","age":"9","school":"4"},{"start_time":1552055039056,"click_time":1552055040088,"finger_time":1552055039729,"fix_duration":1245.6273962059188,"trial":12,"RT":673,"MT":359,"sideResp":1,"stimulus":"img/250/equaldotsize/L/14_Ratio_250_L_12_R_3.png","xmouse":[783,783,783,783,783,783,783,783,783,783,783,783,783,783,783,783,783,783,783,782,782,782,782,782,783,783,783,783,783,783,783,783,780,771,757,718,690,677,666,652,644,639,636,631,625,594,577,559,544,501,483,467],"ymouse":[626,626,626,626,626,626,626,626,626,626,626,626,625,625,624,624,624,624,624,624,623,622,621,619,616,614,612,611,610,606,601,595,581,560,534,474,435,416,402,383,373,367,362,354,343,295,270,245,221,154,122,93],"timestamp_mouse":[13,39,53,72,92,112,133,152,172,192,213,233,252,273,293,312,332,352,373,393,412,432,451,471,493,513,532,552,572,593,613,633,653,673,692,713,733,753,773,792,812,833,852,872,892,913,932,952,972,992,1013,1032],"xSR":741.5,"ySR":573.95,"xT1":424.9,"yT1":0,"xT2":1058.1,"yT2":0,"toosoon":0,"cond_shown":"equaldotsize","ratio_trial":250,"smaller_num":"3","larger_num":"12","correct_side":1,"subjID":"sergiomonroy8","gender":"0","age":"9","school":"4"},{"start_time":1552055042766,"click_time":1552055044609,"finger_time":1552055043568,"fix_duration":1216.0902142014684,"trial":13,"RT":802,"MT":1041,"sideResp":2,"stimulus":"img/500/equaldotsize/R/3_Ratio_500_L_10_R_20.png","xmouse":[791,791,791,791,791,791,791,791,791,791,791,791,791,791,791,791,791,791,791,791,791,791,791,791,791,791,791,791,791,791,791,791,791,791,791,791,791,791,791,796,800,806,811,821,833,834,834,836,841,845,874,889,903,917,935,938,940,943,946,952,954,955,955,955,955,963,973,980,986,992,998,1001,1003,1005,1007,1010,1012,1014,1016,1018,1027,1028,1029,1029,1032,1036,1039,1040,1041,1043,1068,1102],"ymouse":[597,596,596,596,596,596,596,596,596,596,596,596,596,596,596,596,596,596,596,596,596,596,596,596,596,596,596,596,596,596,596,596,596,596,596,596,596,595,593,562,547,535,529,524,512,494,484,477,469,460,433,418,395,371,326,309,300,289,284,277,273,272,272,272,272,254,240,227,218,210,202,199,194,189,180,172,166,160,155,150,137,136,135,134,133,132,130,129,128,127,105,87],"timestamp_mouse":[13,45,63,82,102,122,142,162,182,202,222,243,262,282,302,322,343,363,383,401,423,443,462,482,503,523,543,561,583,602,623,642,662,683,702,723,742,762,783,802,821,843,863,882,903,921,943,962,983,1002,1022,1042,1063,1083,1103,1122,1143,1163,1183,1202,1222,1242,1263,1282,1303,1322,1342,1362,1381,1401,1423,1443,1462,1482,1503,1522,1542,1562,1582,1602,1623,1642,1663,1682,1703,1721,1743,1762,1783,1802,1823,1843],"xSR":741.5,"ySR":573.95,"xT1":424.9,"yT1":0,"xT2":1058.1,"yT2":0,"toosoon":0,"cond_shown":"equaldotsize","ratio_trial":500,"smaller_num":"10","larger_num":"20","correct_side":2,"subjID":"sergiomonroy8","gender":"0","age":"9","school":"4"},{"start_time":1552055045844,"click_time":1552055047868,"finger_time":1552055046888,"fix_duration":353.31275825399536,"trial":14,"RT":1044,"MT":980,"sideResp":1,"stimulus":"img/900/randomdotsizeEA/R/5_Ratio_900_L_9_R_10.png","xmouse":[790,790,790,790,790,790,790,790,790,790,790,790,790,790,790,790,790,790,790,790,790,790,790,790,790,790,790,790,790,790,790,790,790,790,790,790,790,790,790,790,790,790,790,790,790,790,790,790,790,790,791,792,796,796,794,791,791,785,773,751,716,673,649,639,634,625,615,595,587,577,570,570,570,569,568,564,555,544,544,544,544,544,544,544,543,543,543,542,540,539,539,539,537,536,535,533,532,530,530,529,526,520],"ymouse":[621,621,621,621,621,621,621,621,621,621,621,621,621,621,621,621,621,621,621,621,621,621,621,621,621,621,621,621,621,621,621,621,621,621,621,621,621,621,621,621,621,621,621,621,621,621,621,621,621,621,620,612,570,557,544,535,531,517,498,466,423,383,352,335,321,302,283,237,211,183,163,162,161,161,156,150,140,133,133,133,133,133,133,133,130,122,115,100,94,91,89,89,85,81,78,75,72,70,70,69,68,66],"timestamp_mouse":[11,24,44,65,85,104,124,144,164,184,205,224,244,265,283,304,325,345,365,385,405,425,444,465,484,504,524,544,565,583,605,625,645,665,684,704,725,745,765,784,804,824,845,864,884,904,925,944,964,984,1005,1025,1044,1065,1085,1104,1125,1145,1165,1185,1204,1225,1244,1264,1284,1305,1324,1344,1365,1384,1404,1425,1444,1465,1484,1505,1524,1544,1564,1585,1605,1624,1645,1664,1685,1705,1724,1744,1765,1785,1805,1823,1844,1863,1884,1904,1924,1944,1964,1985,2004,2024],"xSR":741.5,"ySR":573.95,"xT1":424.9,"yT1":0,"xT2":1058.1,"yT2":0,"toosoon":0,"cond_shown":"randomdotsizeEA","ratio_trial":900,"smaller_num":"9","larger_num":"10","correct_side":2,"subjID":"sergiomonroy8","gender":"0","age":"9","school":"4"},{"start_time":1552055053133,"click_time":1552055054689,"finger_time":1552055054089,"fix_duration":943.9685646373257,"trial":15,"RT":956,"MT":600,"sideResp":1,"stimulus":"img/750/equaldotanddens/L/6_Ratio_750_L_24_R_18.png","xmouse":[778,778,778,778,778,778,778,778,778,778,778,778,778,778,778,778,778,778,778,778,778,778,778,778,778,778,778,778,778,778,778,778,778,778,778,778,778,778,778,778,777,774,755,755,755,754,752,735,722,706,689,675,645,629,609,591,558,496,476,463,455,454,454,457,457,454,449,446,446,446,446,446,446,440,440,440,444,462],"ymouse":[653,653,653,653,653,653,653,653,653,653,653,653,653,653,653,653,653,653,653,653,653,653,653,653,653,653,653,653,653,653,653,653,653,653,653,653,653,653,653,653,653,653,652,652,652,652,650,631,616,598,576,557,522,498,468,447,409,365,352,339,321,298,278,243,235,225,218,213,205,201,195,187,176,149,139,128,112,69],"timestamp_mouse":[15,39,56,75,94,116,135,156,176,195,216,236,255,275,296,315,336,355,375,396,415,436,455,476,496,516,536,555,576,595,615,635,656,676,696,716,735,756,775,796,814,836,855,875,895,916,935,956,975,995,1015,1035,1055,1075,1095,1115,1136,1156,1175,1196,1215,1235,1256,1274,1295,1316,1336,1355,1375,1395,1416,1435,1455,1475,1496,1515,1536,1556],"xSR":741.5,"ySR":573.95,"xT1":424.9,"yT1":0,"xT2":1058.1,"yT2":0,"toosoon":0,"cond_shown":"equaldotanddens","ratio_trial":750,"smaller_num":"18","larger_num":"24","correct_side":1,"subjID":"sergiomonroy8","gender":"0","age":"9","school":"4"},{"start_time":1552055058678,"click_time":1552055059969,"finger_time":1552055059388,"fix_duration":767.2402845756814,"trial":16,"RT":710,"MT":581,"sideResp":1,"stimulus":"img/500/equaldotsize/L/7_Ratio_500_L_10_R_5.png","xmouse":[786,782,780,780,780,780,780,780,780,780,780,780,780,780,780,780,780,780,780,779,778,775,774,774,774,773,772,772,769,767,763,751,747,746,744,741,736,735,734,734,734,732,731,730,730,730,723,718,712,703,696,674,658,652,628,612,563,535,517,507,500,490,481,463,455],"ymouse":[596,595,595,595,595,595,595,595,595,595,595,595,595,595,595,595,595,595,595,595,595,595,595,595,595,595,595,595,595,595,595,595,594,593,591,589,585,584,583,582,576,562,556,547,539,527,496,480,463,445,430,400,376,368,340,319,249,214,193,178,166,149,133,107,95],"timestamp_mouse":[10,35,51,70,90,110,130,150,170,191,210,230,251,271,290,310,330,350,371,390,410,429,450,471,490,511,531,551,570,591,610,630,650,671,690,710,730,750,771,791,809,830,850,870,891,911,930,950,970,991,1010,1030,1050,1071,1090,1110,1130,1151,1170,1191,1210,1230,1251,1270,1291],"xSR":741.5,"ySR":573.95,"xT1":424.9,"yT1":0,"xT2":1058.1,"yT2":0,"toosoon":0,"cond_shown":"equaldotsize","ratio_trial":500,"smaller_num":"5","larger_num":"10","correct_side":1,"subjID":"sergiomonroy8","gender":"0","age":"9","school":"4"},{"start_time":1552055061592,"click_time":1552055063910,"finger_time":1552055062989,"fix_duration":561.428964616524,"trial":17,"RT":1397,"MT":921,"sideResp":2,"stimulus":"img/500/equaldotsize/R/2_Ratio_500_L_3_R_6.png","xmouse":[778,778,778,778,778,778,778,778,778,778,778,778,778,778,778,778,778,778,778,778,778,778,778,778,778,778,778,778,778,778,778,778,778,778,778,778,778,778,778,778,778,778,778,778,778,778,778,778,778,778,778,778,778,778,778,778,778,778,778,778,778,778,778,778,778,778,781,794,805,818,833,886,924,976,1039,1075,1100,1104,1109,1114,1119,1127,1130,1130,1130,1120,1076,1065,1060,1057,1048,1043,1043,1043,1043,1043,1043,1043,1043,1043,1044,1064,1075,1077,1078,1079,1077,1077,1075,1075,1075,1075,1074,1073,1072,1071],"ymouse":[620,620,620,620,620,620,620,620,620,620,620,620,620,620,620,620,620,620,620,620,620,620,620,620,620,620,620,620,620,620,620,620,620,620,620,620,620,620,620,620,620,620,620,620,620,620,620,620,620,620,620,620,620,620,620,620,620,620,620,620,620,620,618,617,615,614,607,591,576,565,547,470,438,421,412,411,401,397,390,385,382,369,359,353,340,326,269,241,221,202,178,161,161,161,161,161,161,161,161,160,159,145,136,135,132,128,117,113,109,108,105,104,103,103,101,99],"timestamp_mouse":[16,35,56,77,96,116,136,157,176,197,215,237,256,277,297,317,336,356,377,397,417,436,457,475,496,517,537,556,576,597,616,636,657,677,696,716,737,755,777,797,816,836,856,876,897,917,937,956,976,997,1016,1036,1057,1077,1096,1116,1136,1155,1177,1196,1215,1237,1255,1277,1297,1317,1336,1357,1376,1397,1415,1436,1456,1476,1497,1516,1536,1556,1577,1596,1615,1637,1656,1676,1697,1717,1736,1757,1775,1797,1815,1837,1856,1877,1895,1916,1936,1956,1976,1997,2015,2036,2057,2077,2097,2117,2136,2156,2177,2197,2217,2236,2257,2276,2297,2317],"xSR":741.5,"ySR":573.95,"xT1":424.9,"yT1":0,"xT2":1058.1,"yT2":0,"toosoon":0,"cond_shown":"equaldotsize","ratio_trial":500,"smaller_num":"3","larger_num":"6","correct_side":2,"subjID":"sergiomonroy8","gender":"0","age":"9","school":"4"},{"start_time":1552055067103,"click_time":1552055068649,"finger_time":1552055067807,"fix_duration":832.2466746476048,"trial":18,"RT":704,"MT":842,"sideResp":2,"stimulus":"img/250/equaldotanddens/R/10_Ratio_250_L_4_R_16.png","xmouse":[759,759,759,759,759,759,759,759,759,759,759,759,759,759,759,759,759,759,759,759,759,759,759,761,761,763,767,768,769,770,772,786,793,802,808,816,847,874,898,912,926,938,941,951,966,985,1005,1016,1018,1020,1022,1025,1026,1027,1028,1029,1029,1029,1029,1029,1029,1028,1028,1028,1028,1028,1028,1028,1028,1028,1029,1029,1030,1030,1033,1036,1049,1059],"ymouse":[639,639,639,639,639,639,639,639,639,639,639,639,639,639,639,639,639,639,639,639,639,639,637,634,633,630,626,623,621,620,617,603,596,588,580,571,539,521,502,486,465,450,444,434,420,405,387,377,376,369,365,356,352,347,343,339,331,327,323,320,318,310,307,306,306,304,293,289,284,274,270,264,253,241,223,199,130,87],"timestamp_mouse":[13,38,45,66,84,106,125,145,165,185,206,226,244,265,286,305,325,345,365,385,406,424,446,465,486,504,526,546,566,585,605,625,646,665,686,704,725,745,765,785,805,825,846,865,885,905,926,945,966,986,1005,1026,1046,1065,1085,1106,1124,1145,1166,1185,1205,1225,1245,1265,1286,1305,1326,1345,1365,1386,1406,1426,1445,1465,1485,1506,1528,1546],"xSR":741.5,"ySR":573.95,"xT1":424.9,"yT1":0,"xT2":1058.1,"yT2":0,"toosoon":0,"cond_shown":"equaldotanddens","ratio_trial":250,"smaller_num":"4","larger_num":"16","correct_side":2,"subjID":"sergiomonroy8","gender":"0","age":"9","school":"4"},{"start_time":1552055070332,"click_time":1552055072688,"finger_time":1552055071508,"fix_duration":781.6396799152598,"trial":19,"RT":1176,"MT":1180,"sideResp":1,"stimulus":"img/750/randomdotsizeEA/L/6_Ratio_750_L_24_R_18.png","xmouse":[787,787,787,787,787,787,787,787,787,787,787,787,787,787,787,787,787,787,787,787,787,787,787,787,787,787,787,787,787,787,787,787,787,787,787,787,787,787,787,787,787,787,787,787,787,787,787,787,787,787,787,787,787,787,787,787,787,785,781,776,766,764,763,763,756,755,753,749,744,739,722,713,706,697,687,677,677,677,676,675,672,670,668,667,654,639,632,629,623,622,617,613,606,597,593,591,589,587,585,580,570,566,565,563,559,541,534,530,530,530,530,530,529,528,526,511,505,500],"ymouse":[599,599,599,599,599,599,599,599,599,599,599,599,599,599,599,599,599,599,599,599,599,599,599,599,599,599,599,599,599,599,599,599,599,599,599,599,599,599,599,599,599,599,599,599,599,599,599,599,599,599,599,599,599,599,599,599,596,583,570,557,535,528,520,512,491,481,475,469,460,450,430,420,412,391,369,351,351,350,350,349,348,348,346,343,318,288,277,270,264,260,253,247,236,224,220,215,211,208,201,192,173,167,165,161,155,132,125,122,122,122,122,122,121,121,120,109,103,97],"timestamp_mouse":[21,47,56,76,97,116,137,157,176,196,216,235,257,276,295,316,336,357,377,397,416,436,455,477,496,516,536,557,577,597,616,637,657,676,697,716,736,757,776,796,816,837,857,876,896,916,937,956,977,996,1016,1036,1056,1077,1097,1116,1137,1157,1176,1195,1216,1237,1256,1276,1298,1316,1336,1355,1376,1395,1416,1437,1456,1476,1497,1517,1536,1556,1576,1596,1617,1637,1656,1677,1697,1716,1736,1756,1777,1796,1816,1836,1857,1876,1897,1916,1937,1956,1976,1996,2016,2036,2056,2076,2097,2116,2136,2156,2177,2196,2217,2236,2256,2276,2297,2316,2336,2355],"xSR":741.5,"ySR":573.95,"xT1":424.9,"yT1":0,"xT2":1058.1,"yT2":0,"toosoon":0,"cond_shown":"randomdotsizeEA","ratio_trial":750,"smaller_num":"18","larger_num":"24","correct_side":1,"subjID":"sergiomonroy8","gender":"0","age":"9","school":"4"},{"start_time":1552055074981,"click_time":1552055082269,"finger_time":1552055078168,"fix_duration":1430.874287637196,"trial":20,"RT":3187,"MT":4101,"sideResp":2,"stimulus":"img/500/randomdotsizeEA/L/4_Ratio_500_L_18_R_9.png","xmouse":[765,765,765,765,765,765,765,765,765,765,765,765,765,765,765,765,765,765,765,765,765,765,765,765,765,765,765,765,765,765,765,765,765,765,765,765,765,765,765,765,765,765,765,765,765,765,765,765,765,765,765,765,765,765,765,765,765,765,765,765,765,765,765,765,765,765,765,765,765,765,765,765,765,765,765,765,765,765,765,765,765,765,763,762,762,762,762,761,761,761,761,761,761,761,761,761,761,761,761,761,761,761,761,761,761,761,761,761,761,761,761,761,761,761,761,761,761,761,761,761,761,761,761,761,761,761,761,761,761,761,761,761,761,761,761,761,761,761,761,761,761,761,761,761,761,761,761,761,761,761,761,761,761,761,761,761,762,764,769,772,774,776,778,785,790,790,798,806,816,821,825,832,842,886,919,926,938,944,947,951,956,975,986,986,986,986,986,986,986,986,986,986,989,993,993,993,993,993,993,994,994,995,997,998,998,999,1000,1001,1002,1004,1004,1004,1004,1004,1004,1005,1005,1005,1005,1006,1007,1009,1011,1012,1013,1014,1015,1015,1016,1016,1017,1017,1019,1020,1021,1023,1024,1026,1027,1032,1033,1034,1035,1035,1036,1037,1037,1038,1038,1039,1039,1039,1039,1039,1039,1040,1040,1040,1041,1042,1042,1043,1043,1043,1043,1043,1043,1043,1043,1043,1043,1043,1043,1043,1043,1043,1043,1043,1043,1043,1043,1043,1043,1043,1043,1043,1043,1043,1043,1043,1043,1043,1043,1043,1044,1045,1045,1045,1047,1047,1047,1047,1047,1047,1047,1047,1047,1047,1047,1047,1047,1047,1047,1047,1048,1048,1048,1048,1048,1048,1048,1048,1048,1048,1048,1048,1048,1048,1048,1048,1048,1048,1048,1048,1048,1048,1048,1048,1048,1048,1048,1049,1049,1049,1050,1051,1052,1052,1052,1052,1053,1053,1053,1053,1053,1053,1053,1053,1053,1053,1054,1055,1057,1058,1059],"ymouse":[611,611,611,611,611,611,611,611,611,611,611,611,611,611,611,611,611,611,611,611,611,611,611,611,611,611,611,611,611,611,611,611,611,611,611,611,611,611,611,611,611,611,611,611,611,611,611,611,611,611,611,611,611,611,611,611,611,611,611,611,611,611,611,611,611,611,611,611,611,611,611,611,611,611,611,611,611,611,611,611,611,611,610,607,605,604,603,602,602,602,602,602,602,602,602,602,602,602,602,602,602,602,602,602,602,602,602,602,602,602,602,602,602,602,602,602,602,602,602,602,602,602,602,602,602,602,602,602,602,602,602,602,602,602,602,602,602,602,602,602,602,602,602,602,602,602,602,602,602,602,602,602,602,602,602,601,599,593,575,562,543,532,519,483,457,457,407,371,328,304,292,273,255,184,152,146,136,133,131,128,125,112,106,106,106,106,106,106,106,106,106,106,103,99,99,99,99,99,99,98,98,97,96,96,96,96,96,96,96,96,96,96,96,96,96,96,96,96,96,96,97,97,98,99,100,100,100,100,101,101,101,101,101,102,102,102,102,102,102,102,102,102,102,102,102,102,102,100,100,100,100,100,100,100,100,99,99,99,97,95,94,94,94,94,94,94,94,94,94,94,94,94,94,94,94,94,94,94,94,94,94,94,94,94,94,94,94,94,94,94,94,94,94,94,92,92,91,91,88,88,88,88,88,88,88,88,88,88,88,88,88,88,88,88,87,87,87,87,87,87,87,87,87,87,87,87,87,87,87,87,87,87,87,87,87,87,87,87,87,87,87,87,87,87,87,87,87,87,87,87,87,87,87,87,87,87,87,87,87,87,87,87,87,87,87],"timestamp_mouse":[11,35,48,67,86,107,127,147,167,188,207,227,247,267,287,308,327,346,367,388,407,427,447,467,488,507,527,547,568,587,607,627,647,667,688,708,726,747,767,787,808,827,847,868,887,907,927,947,966,988,1007,1027,1048,1068,1087,1108,1127,1148,1166,1187,1208,1227,1247,1268,1287,1308,1327,1346,1368,1387,1407,1428,1447,1467,1487,1508,1528,1547,1568,1586,1608,1628,1647,1666,1688,1707,1728,1747,1768,1788,1808,1826,1848,1868,1888,1907,1928,1947,1967,1988,2007,2027,2048,2067,2088,2107,2128,2148,2167,2188,2207,2227,2248,2267,2288,2308,2328,2347,2368,2387,2406,2428,2447,2468,2486,2506,2527,2546,2567,2588,2607,2628,2648,2668,2688,2707,2727,2748,2767,2788,2808,2827,2848,2868,2887,2907,2928,2947,2967,2988,3007,3027,3048,3067,3087,3107,3128,3148,3167,3187,3207,3227,3248,3267,3288,3307,3327,3347,3369,3387,3408,3426,3448,3468,3493,3508,3528,3547,3567,3586,3607,3627,3648,3667,3687,3707,3728,3747,3768,3787,3807,3828,3847,3866,3888,3908,3927,3948,3966,3987,4007,4028,4048,4068,4086,4108,4127,4148,4168,4187,4208,4227,4248,4267,4287,4308,4326,4347,4368,4387,4407,4428,4447,4467,4487,4507,4527,4546,4568,4588,4608,4627,4648,4668,4688,4707,4728,4748,4767,4788,4807,4827,4847,4868,4888,4907,4927,4947,4966,4987,5008,5028,5047,5068,5086,5107,5128,5148,5168,5188,5207,5228,5248,5267,5287,5308,5327,5348,5368,5386,5407,5428,5447,5467,5488,5507,5527,5548,5567,5586,5608,5627,5647,5667,5688,5707,5727,5747,5768,5787,5808,5828,5847,5867,5888,5907,5928,5948,5967,5988,6006,6027,6047,6068,6088,6107,6128,6147,6168,6187,6208,6228,6247,6266,6287,6307,6327,6348,6367,6387,6407,6428,6448,6468,6487,6507,6527,6547,6567,6587,6608,6627,6648,6667,6688,6707,6727,6746,6767,6788,6808,6828,6848,6867,6887,6907,6926,6947,6968,6988,7008,7028,7047,7067,7087,7108,7127,7148,7167,7187,7207,7228,7247,7267,7288],"xSR":741.5,"ySR":573.95,"xT1":424.9,"yT1":0,"xT2":1058.1,"yT2":0,"toosoon":0,"cond_shown":"randomdotsizeEA","ratio_trial":500,"smaller_num":"9","larger_num":"18","correct_side":1,"subjID":"sergiomonroy8","gender":"0","age":"9","school":"4"},{"start_time":1552055086781,"click_time":1552055090709,"finger_time":1552055088189,"fix_duration":250,"trial":21,"RT":1408,"MT":2520,"sideResp":2,"stimulus":"img/750/randomdotsizeEA/R/5_Ratio_750_L_15_R_20.png","xmouse":[830,830,830,830,830,830,830,830,830,830,830,830,830,830,830,830,830,830,830,830,830,830,830,830,830,830,830,830,830,830,830,830,830,830,830,830,830,830,830,830,830,830,830,830,830,830,830,830,830,830,830,830,830,830,830,830,830,829,829,829,828,828,827,826,826,823,823,822,821,820,816,813,810,809,804,803,801,799,798,794,792,790,789,788,787,787,786,786,786,786,788,788,788,790,791,799,805,817,830,846,869,869,819,627,0,0,0,30,516,1071,1071,1071,1566,1397,1046,0,0,0,0,46,786,1426,1426,1426,1426,1151,540,0,0,0,3,76,330,812,812,812,812,1487,1138,0,0,0,0,17,257,1164,1164,1164,1164,1164,1379,1042,592,67,0,2,64,202,417,665,1120,1264,1304,1304,1297,1050,781,461,135,0,1,37,200,480,1037,1465,1465,1465,1515,1078,706,253,0,0,0,9,44,270,490,742,1312,1580,1580,1580,1580,1411,1155],"ymouse":[629,629,629,629,629,629,629,629,629,629,629,629,629,629,629,629,629,629,629,629,629,629,629,629,629,629,629,629,629,629,629,629,629,629,629,629,629,629,629,629,629,629,629,629,629,629,629,629,629,629,629,629,629,629,629,629,629,629,627,625,619,615,613,610,607,597,595,591,588,585,573,564,557,551,541,537,531,524,514,489,475,464,457,452,444,438,433,424,416,408,394,389,386,383,378,360,346,328,310,287,244,239,232,203,64,52,39,16,0,0,0,0,0,37,93,125,111,111,110,94,26,26,26,26,26,185,195,195,188,176,176,164,124,107,107,107,107,261,295,295,291,268,267,264,227,215,215,215,215,215,479,483,483,460,395,357,325,300,281,281,281,287,288,288,289,289,289,289,289,262,244,226,198,198,198,198,198,198,197,256,281,285,285,268,227,61,7,0,0,0,0,18,18,18,18,79,79],"timestamp_mouse":[13,38,47,67,87,107,128,148,167,188,207,227,248,267,288,307,328,348,368,386,408,428,448,467,488,508,528,548,567,587,608,627,648,667,687,708,727,747,768,788,808,827,848,868,888,907,927,948,967,987,1008,1028,1047,1067,1088,1108,1128,1147,1166,1187,1207,1227,1247,1267,1288,1308,1328,1347,1366,1387,1408,1427,1447,1468,1488,1506,1527,1548,1567,1588,1606,1626,1647,1667,1688,1707,1727,1747,1768,1787,1807,1827,1847,1868,1887,1907,1927,1947,1968,1988,2007,2027,2048,2067,2088,2107,2128,2147,2168,2187,2208,2227,2247,2267,2286,2308,2327,2348,2367,2387,2409,2426,2447,2466,2488,2507,2528,2547,2568,2587,2608,2628,2648,2667,2688,2707,2727,2747,2767,2788,2807,2827,2847,2867,2888,2907,2927,2947,2969,2988,3008,3028,3049,3069,3088,3109,3128,3147,3168,3188,3208,3227,3249,3267,3288,3307,3329,3348,3368,3389,3408,3429,3448,3469,3488,3507,3527,3547,3567,3589,3608,3628,3647,3669,3689,3709,3727,3748,3767,3788,3807,3828,3848,3867,3888,3909,3928],"xSR":741.5,"ySR":573.95,"xT1":424.9,"yT1":0,"xT2":1058.1,"yT2":0,"toosoon":0,"cond_shown":"randomdotsizeEA","ratio_trial":750,"smaller_num":"15","larger_num":"20","correct_side":2,"subjID":"sergiomonroy8","gender":"0","age":"9","school":"4"},{"start_time":1552055092718,"click_time":1552055094590,"finger_time":1552055093669,"fix_duration":526.449455950773,"trial":22,"RT":951,"MT":921,"sideResp":2,"stimulus":"img/500/equaldotsize/R/2_Ratio_500_L_3_R_6.png","xmouse":[780,780,780,780,780,780,780,780,780,780,780,780,780,780,780,780,780,780,780,780,779,778,777,776,775,775,774,774,773,773,772,772,772,771,771,771,771,771,771,771,771,771,771,768,766,763,754,748,738,738,738,738,738,738,738,738,738,738,738,738,738,739,743,760,772,792,807,824,854,870,882,895,902,905,905,905,905,905,909,915,920,922,925,944,955,1003,1027,1041,1048,1049,1049,1050,1054,1064],"ymouse":[662,662,662,662,662,662,662,662,662,662,662,662,662,662,662,662,662,662,662,662,662,661,655,648,647,645,644,643,642,641,639,638,637,634,633,631,631,631,631,631,631,631,630,623,614,603,580,567,555,555,555,555,555,555,555,555,555,555,555,555,553,547,539,505,474,427,406,386,356,345,335,319,309,306,305,305,305,305,299,285,277,274,271,246,232,177,148,134,126,123,119,117,111,96],"timestamp_mouse":[19,44,52,71,90,111,131,150,171,190,211,231,251,271,290,311,330,351,372,392,410,432,452,471,491,511,531,550,571,591,611,631,651,671,692,711,731,751,772,791,810,830,851,870,891,911,931,951,970,991,1012,1032,1052,1071,1091,1110,1131,1151,1172,1191,1211,1231,1252,1270,1290,1312,1331,1350,1371,1392,1411,1431,1450,1471,1491,1512,1531,1551,1571,1590,1610,1632,1651,1672,1690,1710,1730,1751,1770,1791,1811,1832,1851,1871],"xSR":741.5,"ySR":573.95,"xT1":424.9,"yT1":0,"xT2":1058.1,"yT2":0,"toosoon":0,"cond_shown":"equaldotsize","ratio_trial":500,"smaller_num":"3","larger_num":"6","correct_side":2,"subjID":"sergiomonroy8","gender":"0","age":"9","school":"4"},{"start_time":1552055096910,"click_time":1552055098630,"finger_time":1552055097949,"fix_duration":1120.7864212506126,"trial":23,"RT":1039,"MT":681,"sideResp":2,"stimulus":"img/500/equaldotanddens/R/15_Ratio_500_L_1_R_2.png","xmouse":[762,762,762,762,762,762,762,762,762,762,762,762,762,762,762,762,762,762,762,762,762,762,762,762,762,762,762,762,762,762,762,762,762,762,762,762,762,762,762,762,763,766,766,768,771,771,771,772,774,775,777,807,885,947,980,982,985,990,1004,1017,1033,1044,1049,1054,1087,1102,1119,1128,1132,1133,1133,1133,1133,1133,1133,1133,1131,1127,1108,1099,1093,1086,1080,1072,1063,1061],"ymouse":[579,579,579,579,579,579,579,579,579,579,579,579,579,579,579,579,579,579,579,579,579,579,579,579,579,579,579,579,579,579,579,579,579,579,579,579,579,579,579,579,578,578,579,580,582,582,583,585,586,586,586,556,490,451,432,429,421,409,388,378,368,358,349,340,299,279,254,233,219,214,214,214,214,214,207,206,202,197,181,171,163,150,138,118,102,99],"timestamp_mouse":[19,39,59,79,99,120,138,158,180,198,220,238,260,278,298,319,340,360,378,400,419,438,458,480,500,519,538,560,579,600,619,639,659,680,698,720,740,760,779,799,819,839,858,878,898,920,940,958,979,998,1019,1039,1060,1078,1098,1119,1140,1159,1180,1198,1218,1239,1258,1279,1298,1319,1339,1360,1380,1399,1419,1440,1460,1479,1500,1518,1538,1559,1580,1598,1620,1640,1660,1679,1700,1719],"xSR":741.5,"ySR":573.95,"xT1":424.9,"yT1":0,"xT2":1058.1,"yT2":0,"toosoon":0,"cond_shown":"equaldotanddens","ratio_trial":500,"smaller_num":"1","larger_num":"2","correct_side":2,"subjID":"sergiomonroy8","gender":"0","age":"9","school":"4"},{"start_time":1552055110349,"click_time":1552055112810,"finger_time":1552055111689,"fix_duration":1218.0771701343679,"trial":24,"RT":1340,"MT":1121,"sideResp":2,"stimulus":"img/250/equaldotanddens/R/12_Ratio_250_L_5_R_20.png","xmouse":[790,790,790,789,788,788,788,787,787,787,787,787,787,787,787,787,787,787,787,787,787,787,787,787,787,787,787,787,787,787,787,787,787,787,787,787,787,787,787,787,787,787,783,773,767,762,761,761,759,758,758,758,758,758,761,766,768,768,768,768,768,768,768,772,785,810,844,863,914,941,954,961,969,984,997,1004,1011,1015,1017,1017,1011,999,982,953,946,945,944,944,944,943,942,942,942,941,939,938,938,941,956,965,973,977,979,981,981,982,983,983,984,985,987,988,990,999,1005,1010,1012,1017,1024,1031,1040,1051,1060],"ymouse":[652,652,652,652,652,652,652,652,644,640,637,637,637,637,637,637,637,637,637,637,637,637,637,637,637,637,637,637,637,637,637,637,637,637,637,637,637,637,637,637,637,637,637,639,641,642,642,642,641,639,637,633,630,624,620,615,613,613,613,613,613,613,613,610,604,593,576,563,476,442,424,408,386,351,341,338,335,330,317,310,301,289,277,249,235,222,206,195,187,175,174,172,170,162,147,132,119,109,84,71,60,54,52,49,48,47,46,46,46,46,46,46,46,49,52,54,54,55,55,51,45,40,36],"timestamp_mouse":[19,39,60,80,99,120,140,160,180,200,219,241,261,281,300,320,341,359,381,399,419,441,461,480,501,519,540,560,580,599,621,641,661,680,700,719,740,761,781,801,820,840,860,879,900,920,941,960,981,1000,1019,1040,1059,1079,1100,1120,1139,1161,1180,1200,1221,1239,1261,1279,1300,1320,1340,1361,1379,1400,1421,1441,1459,1479,1501,1520,1540,1560,1579,1600,1621,1641,1661,1680,1699,1721,1740,1761,1780,1800,1820,1841,1860,1879,1900,1919,1941,1960,1979,1999,2021,2040,2060,2079,2100,2120,2141,2160,2180,2200,2221,2241,2259,2280,2300,2320,2340,2361,2379,2400,2420,2441,2461],"xSR":741.5,"ySR":573.95,"xT1":424.9,"yT1":0,"xT2":1058.1,"yT2":0,"toosoon":0,"cond_shown":"equaldotanddens","ratio_trial":250,"smaller_num":"5","larger_num":"20","correct_side":2,"subjID":"sergiomonroy8","gender":"0","age":"9","school":"4"},{"start_time":1552055117039,"click_time":1552055118669,"finger_time":1552055117848,"fix_duration":1248.2175173482174,"trial":25,"RT":809,"MT":821,"sideResp":1,"stimulus":"img/250/equaldotanddens/L/5_Ratio_250_L_24_R_6.png","xmouse":[770,770,770,770,770,770,770,770,770,770,770,770,770,770,770,770,770,770,770,770,770,770,770,770,770,770,770,770,770,770,770,770,770,770,770,770,764,760,759,759,747,739,736,730,718,712,707,704,701,697,691,686,680,678,678,677,677,677,677,650,636,622,608,592,577,551,548,547,546,546,544,544,542,542,542,539,536,529,523,517,508,506],"ymouse":[643,643,643,643,643,643,643,643,643,643,643,643,643,643,643,643,643,643,643,643,643,643,643,643,643,643,643,643,643,643,643,643,643,643,640,630,616,605,599,595,552,533,517,499,466,454,445,440,437,431,420,409,400,396,396,395,395,395,395,373,357,337,317,296,274,238,231,229,225,223,208,203,198,196,194,188,180,166,152,132,102,96],"timestamp_mouse":[13,41,51,69,91,111,131,149,171,190,211,230,250,269,291,310,330,351,369,389,410,431,450,471,490,511,529,550,571,591,609,631,651,671,690,709,730,751,770,790,809,830,850,870,891,909,930,950,971,991,1009,1030,1050,1069,1089,1109,1129,1150,1171,1191,1209,1229,1249,1270,1291,1310,1331,1350,1370,1390,1409,1430,1454,1470,1489,1510,1529,1550,1569,1590,1610,1629],"xSR":741.5,"ySR":573.95,"xT1":424.9,"yT1":0,"xT2":1058.1,"yT2":0,"toosoon":0,"cond_shown":"equaldotanddens","ratio_trial":250,"smaller_num":"6","larger_num":"24","correct_side":1,"subjID":"sergiomonroy8","gender":"0","age":"9","school":"4"},{"start_time":1552055121190,"click_time":1552055122709,"finger_time":1552055121970,"fix_duration":1139.4526813379741,"trial":26,"RT":780,"MT":739,"sideResp":1,"stimulus":"img/250/equaldotanddens/L/2_Ratio_250_L_16_R_4.png","xmouse":[749,749,749,749,749,749,749,749,749,749,749,749,749,749,749,749,749,749,749,749,749,749,749,749,749,749,749,749,749,749,749,749,749,749,749,749,749,749,746,741,740,733,721,694,679,668,658,654,651,651,650,649,647,643,641,637,637,634,620,610,590,575,565,544,539,533,531,531,531,531,531,531,531,531,526,525,524],"ymouse":[604,604,604,604,604,604,604,604,604,604,604,604,604,604,604,604,604,604,604,604,604,604,604,604,604,604,604,604,604,604,604,604,604,604,604,604,604,605,605,604,584,538,477,380,338,310,293,284,272,268,257,246,236,211,204,200,198,193,177,163,139,119,101,76,71,68,67,67,67,67,67,67,67,67,67,67,67],"timestamp_mouse":[1,19,39,59,79,98,118,138,159,179,198,220,240,259,279,298,319,338,359,380,398,418,439,459,479,500,520,540,560,579,598,619,639,659,680,699,718,738,759,780,799,819,839,859,878,898,920,939,959,979,999,1019,1039,1059,1078,1099,1119,1139,1160,1178,1199,1219,1239,1259,1278,1299,1318,1339,1360,1379,1398,1418,1440,1459,1480,1499,1519],"xSR":741.5,"ySR":573.95,"xT1":424.9,"yT1":0,"xT2":1058.1,"yT2":0,"toosoon":0,"cond_shown":"equaldotanddens","ratio_trial":250,"smaller_num":"4","larger_num":"16","correct_side":1,"subjID":"sergiomonroy8","gender":"0","age":"9","school":"4"},{"start_time":1552055125855,"click_time":1552055127370,"finger_time":1552055126630,"fix_duration":825.0584708634757,"trial":27,"RT":775,"MT":740,"sideResp":2,"stimulus":"img/250/equaldotanddens/R/11_Ratio_250_L_3_R_12.png","xmouse":[811,811,811,811,811,811,811,811,811,811,811,811,811,811,811,811,811,811,811,811,811,811,811,811,811,811,811,811,811,811,811,811,811,811,811,817,820,823,827,829,834,839,843,851,867,888,909,930,943,957,988,1001,1017,1030,1045,1063,1076,1095,1112,1113,1114,1114,1111,1107,1100,1081,1075,1072,1071,1071,1071,1071,1071,1071,1071,1071],"ymouse":[638,638,638,638,638,638,638,638,638,638,638,638,638,638,638,638,638,638,638,638,638,638,638,638,638,638,638,638,638,638,638,638,638,638,636,624,613,595,573,554,518,500,486,470,443,409,375,344,328,312,273,255,234,216,195,170,153,132,123,121,120,118,114,112,109,104,102,102,102,101,101,101,101,101,101,99],"timestamp_mouse":[18,36,54,73,93,115,133,155,173,194,213,234,254,273,294,314,334,353,375,394,415,435,454,475,495,513,533,555,575,593,615,635,654,674,694,715,734,754,775,794,814,834,853,874,894,915,934,953,973,995,1016,1033,1053,1074,1095,1114,1134,1154,1173,1195,1214,1235,1253,1273,1294,1314,1334,1354,1373,1395,1415,1434,1455,1474,1494,1515],"xSR":741.5,"ySR":573.95,"xT1":424.9,"yT1":0,"xT2":1058.1,"yT2":0,"toosoon":0,"cond_shown":"equaldotanddens","ratio_trial":250,"smaller_num":"3","larger_num":"12","correct_side":2,"subjID":"sergiomonroy8","gender":"0","age":"9","school":"4"},{"start_time":1552055129283,"click_time":1552055132189,"finger_time":1552055129320,"fix_duration":951.9175918942638,"trial":28,"RT":37,"MT":2869,"sideResp":2,"stimulus":"img/750/randomdotsizeEA/R/3_Ratio_750_L_15_R_20.png","xmouse":[838,842,842,846,850,851,852,855,859,866,869,869,874,876,882,885,888,893,897,903,908,909,909,910,910,910,910,910,910,910,910,910,910,908,905,904,898,892,890,887,886,884,882,877,869,867,865,859,849,815,789,776,767,765,765,762,760,758,758,758,758,759,771,787,793,796,798,801,805,817,817,817,814,812,811,806,805,804,803,803,806,807,809,809,810,810,810,810,812,814,818,826,840,849,850,850,850,850,850,850,850,849,849,849,849,849,849,849,849,849,849,849,849,848,826,806,792,788,788,788,788,788,787,787,791,799,800,800,800,800,800,800,800,800,800,800,800,801,802,803,820,842,906,978,1088,1132],"ymouse":[630,627,627,623,618,616,614,612,607,598,594,592,585,581,567,559,550,541,534,527,521,520,520,519,519,519,519,519,519,519,519,519,519,518,517,517,517,516,516,516,516,516,516,516,518,521,531,548,572,645,678,687,693,696,696,696,696,696,696,696,693,688,685,683,681,681,674,656,631,601,600,600,602,605,606,607,608,608,610,610,609,607,606,605,605,605,605,605,605,607,625,639,652,656,657,657,657,657,657,657,657,657,657,657,657,657,657,657,657,657,657,657,657,657,639,617,596,589,589,589,588,588,590,601,614,628,629,629,629,629,629,629,629,629,629,629,629,630,630,630,620,597,507,389,151,51],"timestamp_mouse":[13,37,46,66,85,106,126,145,165,186,206,227,247,267,286,305,326,347,365,385,406,425,445,466,487,506,527,547,565,586,606,626,646,665,685,706,727,747,766,786,805,826,846,865,886,905,926,945,967,986,1007,1026,1047,1067,1086,1105,1127,1146,1166,1186,1207,1226,1246,1265,1286,1306,1326,1347,1367,1386,1406,1426,1446,1465,1487,1506,1526,1547,1567,1586,1607,1626,1646,1665,1685,1706,1727,1745,1766,1786,1807,1826,1846,1867,1885,1906,1927,1946,1965,1987,2006,2027,2045,2066,2085,2106,2126,2147,2166,2187,2205,2226,2245,2266,2287,2306,2325,2346,2365,2387,2407,2426,2446,2465,2485,2506,2526,2546,2566,2586,2605,2626,2647,2666,2685,2706,2726,2746,2767,2786,2806,2825,2846,2865,2887,2906],"xSR":741.5,"ySR":573.95,"xT1":424.9,"yT1":0,"xT2":1058.1,"yT2":0,"toosoon":0,"cond_shown":"randomdotsizeEA","ratio_trial":750,"smaller_num":"15","larger_num":"20","correct_side":2,"subjID":"sergiomonroy8","gender":"0","age":"9","school":"4"},{"start_time":1552055136911,"click_time":1552055138909,"finger_time":1552055138228,"fix_duration":399.3633910132359,"trial":29,"RT":1317,"MT":681,"sideResp":2,"stimulus":"img/750/randomdotsizeEA/L/1_Ratio_750_L_20_R_15.png","xmouse":[784,785,785,785,786,788,789,789,791,792,794,796,797,797,800,800,800,800,800,800,800,800,800,800,800,800,800,800,800,800,800,800,800,800,800,800,800,800,800,800,800,800,800,800,800,800,800,800,800,800,800,800,801,803,805,805,806,807,810,813,815,817,818,820,824,832,840,853,897,932,956,977,996,1033,1043,1040,1008,876,317,68,1,8,112,561,804,1052,1067,1067,847,538,139,0,0,0,129,443,659,858,1004,1061],"ymouse":[641,639,639,639,639,637,637,637,635,634,633,630,629,628,625,625,625,625,625,625,625,625,625,625,625,625,625,625,625,625,625,625,625,625,625,625,625,625,625,625,625,625,625,625,625,625,625,625,625,625,625,625,626,627,627,627,627,626,618,611,605,600,597,586,577,559,547,535,516,501,489,480,469,438,423,418,408,374,235,179,164,162,148,137,137,137,137,137,106,61,2,0,0,0,0,0,0,19,40,42],"timestamp_mouse":[18,43,57,78,98,117,137,158,179,198,218,238,257,277,298,319,337,359,378,398,418,439,459,477,498,519,539,559,578,598,619,639,657,678,699,718,738,758,779,799,817,838,859,879,898,919,938,958,979,999,1017,1038,1059,1077,1098,1117,1139,1158,1177,1198,1218,1238,1258,1278,1298,1317,1338,1358,1378,1398,1418,1438,1457,1478,1498,1518,1539,1559,1578,1597,1618,1639,1659,1678,1697,1718,1738,1758,1778,1798,1817,1838,1858,1879,1898,1918,1938,1957,1979,1998],"xSR":741.5,"ySR":573.95,"xT1":424.9,"yT1":0,"xT2":1058.1,"yT2":0,"toosoon":0,"cond_shown":"randomdotsizeEA","ratio_trial":750,"smaller_num":"15","larger_num":"20","correct_side":1,"subjID":"sergiomonroy8","gender":"0","age":"9","school":"4"},{"start_time":1552055142541,"click_time":1552055144849,"finger_time":1552055143010,"fix_duration":250,"trial":30,"RT":469,"MT":1839,"sideResp":1,"stimulus":"img/750/randomdotsizeEA/L/9_Ratio_750_L_4_R_3.png","xmouse":[812,812,812,812,812,812,812,812,812,812,812,812,812,812,812,812,812,812,814,814,814,814,814,814,815,819,834,937,1038,1139,1185,1185,1185,1175,1153,1130,1113,1106,1103,1103,1103,1103,1103,1103,1103,1103,1102,1097,1068,1048,1019,1008,1007,1007,1007,1007,1007,1007,1007,1007,1007,1007,1006,1007,1014,1018,1016,1007,1006,1006,960,786,745,756,871,1128,1453,1453,1453,1577,1449,1173,536,0,0,0,72,292,1024,1405,1405,1405,1550,1002,614,265,44,4,189,690,888,1517,1517,1517,1534,1331,981,579,0,0,0,22,85,302,406,501],"ymouse":[601,601,601,601,601,601,601,601,601,601,601,601,601,601,601,601,597,591,579,575,574,574,574,573,571,567,559,490,435,399,383,383,383,383,385,392,399,402,404,404,404,404,404,404,404,404,404,406,423,424,419,416,416,416,416,416,416,416,416,416,416,415,411,394,377,363,343,337,337,337,327,287,278,275,275,288,331,331,331,416,406,361,246,128,105,104,86,70,70,98,98,98,169,118,67,28,0,0,0,4,35,126,126,126,275,264,213,145,37,25,25,25,25,32,47,65],"timestamp_mouse":[18,34,48,69,88,108,127,148,168,188,209,228,249,268,289,308,328,347,368,389,408,428,447,469,488,508,528,549,567,587,608,628,648,668,689,708,729,749,768,787,807,829,848,868,887,907,928,948,968,988,1007,1028,1048,1069,1088,1107,1128,1149,1167,1188,1209,1228,1249,1268,1288,1308,1328,1349,1367,1389,1408,1428,1448,1469,1488,1507,1528,1547,1568,1587,1608,1627,1647,1668,1689,1709,1727,1749,1768,1788,1808,1828,1848,1868,1888,1908,1928,1948,1968,1987,2009,2028,2048,2067,2087,2108,2128,2149,2168,2189,2208,2227,2247,2269,2288,2308],"xSR":741.5,"ySR":573.95,"xT1":424.9,"yT1":0,"xT2":1058.1,"yT2":0,"toosoon":0,"cond_shown":"randomdotsizeEA","ratio_trial":750,"smaller_num":"3","larger_num":"4","correct_side":1,"subjID":"sergiomonroy8","gender":"0","age":"9","school":"4"},{"start_time":1552055146944,"click_time":1552055149369,"finger_time":1552055148168,"fix_duration":534.8260578920145,"trial":31,"RT":1224,"MT":1201,"sideResp":1,"stimulus":"img/900/equaldotsize/L/2_Ratio_900_L_20_R_18.png","xmouse":[775,775,775,775,775,775,775,775,775,775,775,775,775,775,775,775,775,775,775,775,775,775,775,775,775,775,775,775,775,775,775,775,775,775,775,775,775,775,775,775,775,775,775,775,775,775,775,775,775,775,775,774,773,773,772,772,772,772,772,772,774,776,778,780,788,794,802,809,835,849,854,857,858,858,818,740,621,451,147,125,125,154,268,776,1072,1337,1480,1505,1505,1477,1282,1054,762,346,329,332,365,497,804,858,883,900,903,903,871,806,724,689,688,834,924,965,970,960,876,756,580,399,233,237,318,522],"ymouse":[612,612,612,612,612,612,612,612,612,612,612,612,612,612,612,612,612,612,612,612,612,612,612,612,612,612,612,612,612,612,612,612,612,612,612,612,612,612,612,612,612,612,612,612,612,612,612,612,610,606,603,599,596,593,589,586,585,583,581,578,576,572,569,566,557,553,547,542,521,505,494,482,474,467,459,453,439,415,361,351,350,339,321,328,375,415,436,440,440,439,438,424,403,396,396,398,403,387,312,289,278,270,267,265,245,226,214,210,209,124,60,16,0,0,0,8,36,63,84,84,71,51],"timestamp_mouse":[13,39,46,65,86,104,124,146,166,185,204,226,246,265,286,305,326,345,365,386,406,426,445,464,486,505,525,546,565,586,606,625,645,666,685,706,725,745,765,786,806,825,845,866,885,904,925,946,965,986,1005,1025,1044,1065,1085,1105,1125,1145,1165,1185,1205,1224,1245,1266,1285,1305,1325,1346,1365,1385,1405,1426,1445,1465,1485,1505,1525,1544,1566,1584,1606,1625,1645,1665,1684,1705,1725,1744,1765,1786,1806,1824,1845,1866,1885,1904,1924,1945,1966,1985,2004,2025,2046,2066,2085,2104,2125,2146,2166,2184,2205,2225,2246,2266,2286,2305,2325,2346,2367,2385,2405,2425],"xSR":741.5,"ySR":573.95,"xT1":424.9,"yT1":0,"xT2":1058.1,"yT2":0,"toosoon":0,"cond_shown":"equaldotsize","ratio_trial":900,"smaller_num":"18","larger_num":"20","correct_side":1,"subjID":"sergiomonroy8","gender":"0","age":"9","school":"4"},{"start_time":1552055151229,"click_time":1552055153749,"finger_time":1552055152329,"fix_duration":518.7379756986132,"trial":32,"RT":1100,"MT":1420,"sideResp":2,"stimulus":"img/900/equaldotanddens/R/12_Ratio_900_L_18_R_20.png","xmouse":[807,807,807,807,807,807,807,807,807,807,807,807,807,807,807,807,807,807,807,807,807,807,807,807,807,807,807,807,807,807,807,807,807,807,807,807,807,807,807,807,807,807,807,807,807,807,807,807,807,807,807,807,807,808,815,862,892,917,934,939,916,837,709,480,369,309,312,339,427,574,866,933,933,925,868,550,379,290,269,269,307,394,546,646,714,722,720,698,626,523,474,474,488,558,648,792,804,805,805,805,798,789,789,789,790,807,822,832,839,843,850,855,857,858,864,885,902,924,950,972,996,1031,1038,1045,1047,1053,1068],"ymouse":[650,650,650,650,650,650,650,650,650,650,650,650,650,650,650,650,650,650,650,650,650,650,650,650,650,650,650,650,650,650,650,650,650,650,650,650,650,650,650,650,650,650,650,650,650,650,650,650,650,650,650,650,650,649,642,609,587,565,538,513,483,474,470,468,452,439,435,424,409,395,395,401,401,401,398,355,331,318,315,315,311,309,309,309,309,308,308,308,308,308,308,307,301,294,294,294,294,294,294,294,290,283,280,279,277,264,252,242,230,223,211,205,203,203,200,195,189,179,171,161,151,133,125,116,112,104,89],"timestamp_mouse":[10,35,40,60,80,101,120,141,161,181,201,221,240,261,279,300,320,340,360,380,400,421,441,460,479,499,521,539,561,581,600,621,641,660,680,700,721,739,761,779,800,821,840,861,881,901,920,940,960,981,1001,1020,1040,1061,1080,1100,1120,1140,1160,1181,1199,1221,1241,1260,1281,1299,1320,1339,1360,1380,1400,1420,1440,1461,1480,1500,1519,1540,1561,1581,1600,1621,1640,1660,1680,1700,1720,1741,1760,1781,1800,1821,1840,1859,1880,1900,1920,1940,1961,1981,1999,2021,2041,2060,2081,2100,2121,2140,2161,2180,2200,2220,2240,2260,2281,2300,2319,2340,2360,2380,2400,2421,2441,2460,2481,2500,2520],"xSR":741.5,"ySR":573.95,"xT1":424.9,"yT1":0,"xT2":1058.1,"yT2":0,"toosoon":0,"cond_shown":"equaldotanddens","ratio_trial":900,"smaller_num":"18","larger_num":"20","correct_side":2,"subjID":"sergiomonroy8","gender":"0","age":"9","school":"4"},{"start_time":1552055157803,"click_time":1552055159069,"finger_time":1552055158729,"fix_duration":1332.9283065051839,"trial":33,"RT":926,"MT":340,"sideResp":2,"stimulus":"img/750/equaldotanddens/R/11_Ratio_750_L_12_R_16.png","xmouse":[817,817,817,817,817,817,817,817,817,817,817,817,817,817,817,817,817,817,817,817,817,817,817,817,817,817,817,817,817,817,817,817,817,817,817,817,817,817,817,817,817,817,817,816,816,815,813,810,811,817,822,830,852,877,907,945,978,993,994,996,1002,1011,1055,1069],"ymouse":[629,629,629,629,629,629,629,629,629,629,629,629,629,629,629,629,629,629,629,629,629,629,629,629,629,629,629,629,629,629,629,629,629,629,629,629,629,629,629,629,629,629,629,629,617,593,567,520,501,483,463,438,318,263,205,158,122,112,111,110,103,93,59,50],"timestamp_mouse":[13,43,46,67,86,107,127,147,166,187,206,225,247,266,287,307,326,347,367,386,407,426,446,467,487,507,527,545,567,586,607,626,646,666,687,706,725,746,767,787,806,827,846,866,886,906,926,946,967,986,1007,1027,1046,1066,1086,1106,1126,1146,1167,1186,1206,1225,1247,1266],"xSR":741.5,"ySR":573.95,"xT1":424.9,"yT1":0,"xT2":1058.1,"yT2":0,"toosoon":0,"cond_shown":"equaldotanddens","ratio_trial":750,"smaller_num":"12","larger_num":"16","correct_side":2,"subjID":"sergiomonroy8","gender":"0","age":"9","school":"4"},{"start_time":1552055164560,"click_time":1552055166829,"finger_time":1552055165770,"fix_duration":988.4549580901761,"trial":34,"RT":1210,"MT":1059,"sideResp":1,"stimulus":"img/750/equaldotsize/R/11_Ratio_750_L_12_R_16.png","xmouse":[782,782,782,782,782,782,781,779,778,777,773,772,772,772,772,772,772,772,772,772,772,772,772,772,772,772,772,772,772,772,772,772,772,772,772,772,772,772,772,772,772,772,772,772,772,772,772,772,772,772,772,772,772,772,772,772,772,772,779,811,945,1073,1223,1367,1500,1500,1500,1500,1408,1158,1138,1139,1165,1250,1546,1546,1546,1546,1546,1546,1460,1163,904,618,264,256,256,263,319,614,723,799,829,831,831,797,707,554,365,186,67,67,78,127,550,676,1008,1146,1191,1192,1111,940,716,474],"ymouse":[666,666,666,666,666,666,665,664,664,664,662,661,661,661,661,661,661,661,661,661,661,661,661,661,661,661,661,661,661,661,661,661,661,661,661,661,661,661,661,661,661,661,661,660,660,659,659,659,659,659,659,659,659,659,659,659,659,659,656,639,581,509,418,310,181,177,177,177,183,194,194,192,175,149,113,113,113,113,113,113,82,23,0,0,0,0,0,0,0,0,0,0,1,1,3,20,37,49,49,46,35,35,35,35,39,55,98,117,125,125,125,122,87,60],"timestamp_mouse":[14,37,50,70,89,109,129,149,170,189,209,230,249,269,288,310,330,350,370,389,409,429,450,470,489,509,530,550,569,589,610,629,650,670,690,709,728,750,770,789,809,828,850,869,889,910,928,950,970,990,1009,1028,1049,1070,1088,1110,1129,1149,1170,1189,1210,1229,1249,1270,1289,1309,1329,1349,1369,1389,1409,1429,1450,1469,1490,1508,1529,1550,1570,1589,1609,1629,1649,1669,1689,1709,1729,1749,1770,1791,1809,1829,1849,1869,1889,1909,1929,1948,1970,1989,2009,2029,2049,2069,2091,2109,2128,2149,2170,2190,2209,2230,2250,2269],"xSR":741.5,"ySR":573.95,"xT1":424.9,"yT1":0,"xT2":1058.1,"yT2":0,"toosoon":0,"cond_shown":"equaldotsize","ratio_trial":750,"smaller_num":"12","larger_num":"16","correct_side":2,"subjID":"sergiomonroy8","gender":"0","age":"9","school":"4"},{"start_time":1552055172705,"click_time":1552055175470,"finger_time":1552055173490,"fix_duration":1395.7370968696744,"trial":35,"RT":785,"MT":1980,"sideResp":2,"stimulus":"img/250/equaldotsize/R/9_Ratio_250_L_3_R_12.png","xmouse":[800,800,800,800,800,800,800,800,800,800,800,800,800,800,800,800,800,800,800,800,800,800,800,800,800,800,800,800,800,800,800,800,800,800,800,801,801,802,815,839,859,1039,1258,1529,1529,1529,1529,1531,1357,940,603,256,0,0,9,143,403,718,1144,1311,1311,1259,1019,263,0,0,0,0,289,830,1216,1216,1216,1216,1457,1142,666,141,0,0,34,226,550,897,1423,1525,1539,1517,1325,974,660,554,544,565,688,904,1182,1467,1467,1467,1569,1569,1569,1485,1270,1278,1323,1450,1450,1450,1450,1450,1450,1578,1578,1512,1216,952,758,676,703,840,1078,1380,1380,1380,1380,1380,1545,1245,900,596,391,346,382,522,733,930,1118],"ymouse":[640,640,640,640,640,640,640,640,640,640,640,640,640,640,640,640,640,640,640,640,640,640,640,640,640,640,640,640,640,640,640,640,640,640,640,638,634,623,584,536,509,356,196,28,28,28,28,0,0,0,0,0,0,0,0,0,0,0,0,0,0,0,0,0,0,0,0,0,0,0,4,4,4,4,153,153,149,146,114,113,104,94,94,94,131,157,166,178,192,192,177,160,158,147,121,96,84,84,84,84,82,82,82,80,87,88,88,104,104,104,104,104,104,148,148,148,148,148,148,139,134,119,115,115,115,115,115,115,131,130,130,130,130,130,121,102,97,97,99],"timestamp_mouse":[4,23,45,65,85,104,124,144,164,183,204,225,244,265,284,305,324,344,364,384,405,425,443,465,484,505,523,544,564,585,604,623,645,665,684,704,724,745,764,785,804,825,844,864,885,904,924,943,965,985,1004,1024,1044,1064,1084,1104,1124,1145,1164,1183,1203,1224,1244,1264,1284,1304,1323,1343,1366,1384,1405,1424,1444,1464,1484,1506,1524,1544,1566,1584,1604,1623,1644,1664,1683,1704,1725,1744,1764,1784,1805,1825,1844,1866,1884,1904,1924,1943,1965,1984,2004,2024,2044,2064,2084,2104,2125,2145,2165,2184,2204,2224,2244,2264,2285,2304,2325,2344,2364,2384,2404,2425,2444,2464,2484,2505,2524,2544,2564,2585,2604,2625,2644,2665,2684,2704,2724,2744,2765],"xSR":741.5,"ySR":573.95,"xT1":424.9,"yT1":0,"xT2":1058.1,"yT2":0,"toosoon":0,"cond_shown":"equaldotsize","ratio_trial":250,"smaller_num":"3","larger_num":"12","correct_side":2,"subjID":"sergiomonroy8","gender":"0","age":"9","school":"4"},{"start_time":1552055178209,"click_time":1552055180629,"finger_time":1552055178388,"fix_duration":1219.1903912795963,"trial":36,"RT":179,"MT":2241,"sideResp":1,"stimulus":"img/750/randomdotsizeEA/L/10_Ratio_750_L_4_R_3.png","xmouse":[824,824,824,824,824,824,824,825,825,850,876,896,904,904,905,905,905,905,905,905,905,905,905,905,905,905,905,905,905,905,905,905,905,905,905,905,905,905,905,905,905,920,940,956,963,963,963,963,963,940,886,747,414,203,15,17,78,265,550,1238,1238,1238,1238,1502,876,492,120,0,0,77,282,597,1157,1531,1531,1531,1531,1531,1531,1037,757,724,866,1216,1216,1216,1216,1216,1580,1580,1321,933,472,416,559,832,1155,1470,1470,1470,1373,1109,751,390,3,0,8,103,266,298,317,320,316,278,45,0,0,0,0,16,248,512],"ymouse":[639,639,639,639,639,639,639,639,638,613,600,592,588,588,588,588,588,588,588,588,588,588,588,588,588,588,588,588,588,588,588,588,588,588,588,588,588,588,588,588,588,577,557,546,540,540,540,540,540,529,518,495,447,415,382,380,350,317,281,272,272,272,272,288,294,294,291,267,254,226,190,159,156,156,156,156,156,156,156,174,174,174,155,150,150,150,150,150,208,208,200,193,193,186,168,154,154,154,154,154,193,193,191,191,186,185,184,153,122,116,112,112,111,106,104,104,104,104,103,103,82,82],"timestamp_mouse":[2,20,40,61,80,100,120,140,160,179,200,219,240,259,280,300,320,340,359,380,400,419,440,459,479,500,521,541,561,581,601,621,640,661,681,700,721,741,761,780,800,819,841,860,881,901,920,941,960,979,1001,1021,1040,1060,1080,1100,1121,1140,1161,1179,1200,1221,1240,1260,1280,1300,1321,1341,1360,1380,1400,1421,1439,1461,1480,1501,1520,1541,1560,1579,1602,1620,1640,1660,1681,1699,1720,1740,1760,1780,1800,1820,1840,1860,1880,1900,1920,1941,1960,1979,2000,2020,2041,2061,2080,2101,2120,2141,2160,2180,2200,2221,2241,2260,2280,2300,2320,2340,2361,2380,2400,2420],"xSR":741.5,"ySR":573.95,"xT1":424.9,"yT1":0,"xT2":1058.1,"yT2":0,"toosoon":0,"cond_shown":"randomdotsizeEA","ratio_trial":750,"smaller_num":"3","larger_num":"4","correct_side":1,"subjID":"sergiomonroy8","gender":"0","age":"9","school":"4"},{"start_time":1552055182380,"click_time":1552055183790,"finger_time":1552055182589,"fix_duration":250,"trial":37,"RT":209,"MT":1201,"sideResp":1,"stimulus":"img/750/equaldotsize/R/3_Ratio_750_L_15_R_20.png","xmouse":[783,783,783,783,783,782,782,784,784,784,784,784,786,787,791,798,803,807,810,810,810,810,811,812,812,812,812,812,812,812,812,812,812,812,811,806,803,797,790,780,753,705,672,660,646,652,658,661,662,662,662,668,676,688,710,761,769,771,771,771,771,771,771,771,771,771,771,761,716,620,429],"ymouse":[631,631,631,631,631,631,627,614,599,583,567,534,522,514,502,478,461,443,424,406,379,372,370,368,368,368,368,368,368,368,368,368,367,365,362,354,349,340,330,312,238,126,51,15,0,0,0,0,0,0,0,0,4,15,35,65,69,71,71,71,71,71,71,71,71,71,71,71,61,38,9],"timestamp_mouse":[12,42,50,69,89,110,129,150,169,189,209,229,250,270,289,310,329,349,369,389,408,429,449,470,489,510,530,549,568,590,609,630,648,669,689,709,729,749,769,789,809,830,850,869,890,909,929,949,969,989,1010,1030,1049,1070,1089,1109,1129,1149,1169,1188,1210,1230,1249,1269,1289,1311,1330,1350,1370,1390,1409],"xSR":741.5,"ySR":573.95,"xT1":424.9,"yT1":0,"xT2":1058.1,"yT2":0,"toosoon":0,"cond_shown":"equaldotsize","ratio_trial":750,"smaller_num":"15","larger_num":"20","correct_side":2,"subjID":"sergiomonroy8","gender":"0","age":"9","school":"4"},{"start_time":1552055187046,"click_time":1552055188669,"finger_time":1552055187609,"fix_duration":255.6278183136478,"trial":38,"RT":563,"MT":1060,"sideResp":1,"stimulus":"img/250/randomdotsizeEA/L/1_Ratio_250_L_8_R_2.png","xmouse":[823,823,823,823,823,823,823,823,823,823,823,823,823,823,823,823,823,823,823,823,823,823,823,823,824,829,832,838,843,844,844,845,846,848,849,849,849,846,800,707,557,397,302,297,383,536,707,937,1034,1033,1013,988,969,966,966,966,966,966,966,965,947,917,870,730,664,651,631,629,625,620,608,593,576,548,542,539,539,538,535,531,524,513],"ymouse":[634,634,634,634,634,634,634,634,634,634,634,634,634,634,634,634,634,634,634,634,634,634,632,627,622,614,610,606,600,598,594,592,589,584,581,578,572,566,538,508,471,445,430,429,427,405,377,354,354,354,354,354,354,354,354,354,354,354,354,354,354,346,329,280,246,238,223,220,210,203,190,171,152,122,117,113,111,110,107,104,100,92],"timestamp_mouse":[12,22,43,63,84,102,124,143,164,183,203,224,244,263,284,302,323,343,364,384,403,424,443,463,483,503,524,544,563,583,603,623,643,663,683,703,723,743,763,783,803,823,844,863,883,903,923,943,962,983,1003,1024,1043,1064,1084,1103,1123,1144,1163,1183,1202,1223,1244,1263,1283,1304,1324,1343,1363,1383,1403,1423,1442,1463,1483,1503,1524,1543,1563,1584,1602,1623],"xSR":741.5,"ySR":573.95,"xT1":424.9,"yT1":0,"xT2":1058.1,"yT2":0,"toosoon":0,"cond_shown":"randomdotsizeEA","ratio_trial":250,"smaller_num":"2","larger_num":"8","correct_side":1,"subjID":"sergiomonroy8","gender":"0","age":"9","school":"4"},{"start_time":1552055190537,"click_time":1552055192609,"finger_time":1552055192130,"fix_duration":905.3091886782398,"trial":39,"RT":1593,"MT":479,"sideResp":1,"stimulus":"img/900/equaldotsize/L/10_Ratio_900_L_20_R_18.png","xmouse":[769,769,769,769,769,769,769,769,769,769,769,769,769,769,769,769,769,769,769,769,769,769,769,769,769,769,769,769,769,769,769,769,769,769,769,769,769,769,769,769,769,769,769,769,769,769,770,770,770,770,770,770,770,770,770,770,770,770,770,770,770,770,770,770,770,770,770,770,770,770,770,770,770,770,770,770,770,770,767,740,726,717,711,686,665,644,625,604,582,551,544,538,535,530,528,526,524,522,521,517,515,512,509,500],"ymouse":[657,657,657,657,657,657,657,657,657,657,657,657,657,657,657,657,657,657,657,657,657,657,657,657,657,657,657,657,657,657,657,657,657,657,657,657,657,657,657,657,657,657,657,657,657,657,657,657,657,657,657,657,657,657,657,657,657,657,657,657,657,657,657,657,657,657,657,657,657,657,657,657,657,657,657,657,657,637,606,499,466,445,423,382,356,328,300,269,241,193,180,170,163,151,147,142,136,133,130,119,116,111,107,93],"timestamp_mouse":[13,39,53,73,92,113,132,152,172,192,212,232,252,273,291,312,332,353,372,393,412,432,452,472,493,511,533,553,572,593,612,633,652,672,692,713,733,751,773,793,813,832,852,872,893,912,933,952,971,993,1012,1032,1052,1073,1093,1113,1131,1153,1173,1193,1212,1233,1253,1273,1293,1313,1333,1352,1371,1393,1413,1432,1453,1473,1493,1512,1532,1552,1572,1593,1613,1632,1651,1672,1692,1713,1732,1752,1772,1792,1812,1833,1852,1872,1892,1912,1932,1953,1973,1992,2012,2032,2052,2072],"xSR":741.5,"ySR":573.95,"xT1":424.9,"yT1":0,"xT2":1058.1,"yT2":0,"toosoon":0,"cond_shown":"equaldotsize","ratio_trial":900,"smaller_num":"18","larger_num":"20","correct_side":1,"subjID":"sergiomonroy8","gender":"0","age":"9","school":"4"},{"start_time":1552055195156,"click_time":1552055196649,"finger_time":1552055196029,"fix_duration":1284.6954015851502,"trial":40,"RT":873,"MT":620,"sideResp":1,"stimulus":"img/750/equaldotanddens/L/14_Ratio_750_L_8_R_6.png","xmouse":[794,794,794,794,794,794,794,794,794,794,794,794,794,794,794,794,794,794,794,794,794,794,794,794,794,794,794,794,794,794,794,794,794,794,794,794,794,794,794,794,794,783,779,772,764,751,737,707,658,623,577,530,473,410,407,406,406,406,406,406,406,406,406,404,402,402,402,402,416,434,448,457,463,478,479],"ymouse":[640,640,640,640,640,640,640,640,640,640,640,640,640,640,640,640,640,640,640,640,640,640,640,640,640,640,640,640,640,640,640,640,640,640,640,640,640,640,640,640,640,618,605,566,548,533,517,493,468,454,434,412,381,351,347,345,345,343,343,343,343,343,343,336,325,317,309,300,266,239,214,190,165,109,90],"timestamp_mouse":[13,36,54,74,93,112,133,153,173,194,212,234,254,273,294,313,333,353,373,393,413,433,454,472,494,514,534,554,574,593,613,634,653,674,693,713,734,754,773,793,813,833,854,873,893,913,934,953,972,993,1013,1033,1053,1074,1094,1113,1134,1154,1173,1194,1213,1233,1253,1273,1293,1313,1333,1353,1373,1393,1413,1433,1454,1473,1493],"xSR":741.5,"ySR":573.95,"xT1":424.9,"yT1":0,"xT2":1058.1,"yT2":0,"toosoon":0,"cond_shown":"equaldotanddens","ratio_trial":750,"smaller_num":"6","larger_num":"8","correct_side":1,"subjID":"sergiomonroy8","gender":"0","age":"9","school":"4"},{"start_time":1552055199390,"click_time":1552055201730,"finger_time":1552055201208,"fix_duration":1459.3507150292096,"trial":41,"RT":1818,"MT":522,"sideResp":1,"stimulus":"img/900/randomdotsizeEA/L/10_Ratio_900_L_20_R_18.png","xmouse":[756,756,756,756,756,756,756,756,756,756,756,756,756,756,756,756,756,756,756,756,756,756,756,756,756,756,756,756,756,756,756,756,756,756,756,756,756,756,756,756,756,756,756,756,756,756,756,756,756,756,756,756,756,756,756,756,756,756,757,757,757,758,758,759,759,759,759,759,759,759,759,759,759,759,759,759,759,759,759,759,759,759,759,759,759,759,759,760,760,755,727,702,655,628,608,596,592,591,589,582,570,517,505,498,494,493,489,486,485,485,485,485,485,485,484,483,482],"ymouse":[646,646,646,646,646,646,646,646,646,646,646,646,646,646,646,646,646,646,646,646,646,646,646,646,646,646,646,646,646,646,646,646,646,646,646,646,646,646,646,646,646,646,646,646,646,646,646,646,646,646,646,646,646,646,646,646,646,646,646,646,645,644,644,644,644,644,644,644,644,644,644,644,644,644,644,644,644,644,644,644,644,644,644,644,644,644,644,643,628,609,519,462,359,318,294,280,276,266,260,249,234,199,188,181,176,173,167,163,162,162,162,162,162,153,142,124,93],"timestamp_mouse":[19,39,59,79,100,120,140,159,179,199,219,239,259,279,299,319,339,359,379,400,419,440,460,479,500,518,538,559,580,600,620,640,659,680,699,720,739,760,779,800,819,840,860,878,898,918,938,958,980,999,1019,1039,1059,1079,1099,1119,1139,1159,1179,1198,1220,1239,1259,1279,1299,1319,1339,1360,1379,1399,1419,1439,1460,1479,1499,1519,1539,1559,1579,1599,1618,1638,1659,1678,1698,1718,1738,1759,1778,1799,1818,1838,1859,1879,1898,1920,1939,1959,1980,2000,2019,2040,2058,2080,2100,2120,2140,2160,2179,2200,2219,2239,2260,2280,2299,2319,2340],"xSR":741.5,"ySR":573.95,"xT1":424.9,"yT1":0,"xT2":1058.1,"yT2":0,"toosoon":0,"cond_shown":"randomdotsizeEA","ratio_trial":900,"smaller_num":"18","larger_num":"20","correct_side":1,"subjID":"sergiomonroy8","gender":"0","age":"9","school":"4"},{"start_time":1552055203934,"click_time":1552055207949,"finger_time":1552055205309,"fix_duration":1202.6477933869025,"trial":42,"RT":1375,"MT":2640,"sideResp":2,"stimulus":"img/900/equaldotsize/R/6_Ratio_900_L_9_R_10.png","xmouse":[821,821,821,821,821,821,821,821,821,821,821,821,821,821,821,821,821,821,821,821,821,821,821,821,821,821,821,821,821,821,821,821,821,821,821,821,821,821,821,821,821,821,821,821,821,821,821,821,821,821,821,821,822,822,823,824,825,826,827,828,829,829,829,829,829,829,830,836,845,854,862,864,869,878,884,890,896,901,906,911,919,922,925,928,929,931,933,934,934,934,934,935,937,939,940,940,941,941,942,942,942,942,942,942,942,942,942,942,942,942,942,942,942,942,942,942,942,942,942,942,942,942,942,942,942,942,942,942,942,942,942,942,942,942,942,942,942,942,942,942,942,942,942,942,942,942,942,942,942,942,942,942,942,942,942,942,942,943,945,945,952,961,977,985,988,989,989,989,989,990,992,994,997,998,999,1000,1002,1003,1004,1008,1028,1035,1035,1036,103