[{"start_time":1552054072623,"click_time":1552054116529,"finger_time":1552054072634,"fix_duration":250,"trial":0,"RT":11,"MT":43895,"sideResp":2,"stimulus":[],"xmouse":[767,767,767,767,767,767,767,767,767,767,767,766,766,766,766,766,766,766,766,765,765,765,765,765,765,765,765,765,765,765,765,765,765,765,765,793,950,1042,1074,1077,1077,1077,1077,1077,1077,1077,1077,1077,1077,1077,1077,1077,1077,1077,1077,1077,1077,1077,1077,1077,1077,1077,1077,1077,1077,1077,1077,1077,1077,1077,1077,1077,1077,1077,1077,1077,1077,1077,1077,1077,1077,1077,1077,1077,1077,1077,1077,1077,1077,1077,1077,1077,1077,1077,1077,1077,1077,1077,1077,1077,1077,1077,1077,1077,1077,1077,1077,1077,1077,1077,1077,1077,1077,1077,1077,1077,1077,1077,1077,1077,1077,1077,1077,1077,1077,1077,1077,1077,1077,1077,1077,1077,1077,1077,1077,1077,1077,1077,1077,1077,1077,1077,1077,1077,1077,1077,1077,1077,1077,1077,1077,1077,1077,1077,1077,1077,1077,1077,1077,1077,1077,1077,1077,1077,1077,1077,1077,1077,1077,1077,1077,1077,1077,1077,1077,1077,1077,1077,1077,1077,1077,1077,1077,1077,1077,1077,1077,1077,1077,1077,1077,1077,1077,1077,1077,1077,1077,1077,1077,1077,1077,1077,1077,1077,1077,1077,1077,1077,1077,1077,1077,1077,1077,1077,1077,1077,1077,1077,1077,1077,1077,1077,1077,1077,1077,1077,1077,1077,1077,1077,1077,1077,1077,1077,1077,1077,1077,1077,1077,1077,1077,1077,1077,1077,1077,1077,1077,1077,1077,1077,1077,1077,1077,1077,1077,1077,1077,1077,1077,1077,1077,1077,1077,1077,1077,1077,1077,1077,1077,1077,1077,1077,1077,1077,1077,1077,1077,1077,1077,1077,1077,1077,1077,1077,1077,1077,1077,1077,1077,1077,1077,1077,1077,1077,1077,1077,1077,1077,1077,1077,1077,1077,1077,1077,1077,1077,1077,1077,1077,1077,1077,1077,1077,1077,1077,1077,1077,1077,1077,1077,1077,1077,1077,1077,1077,1077,1077,1077,1077,1077,1077,1077,1077,1077,1077,1077,1077,1077,1077,1077,1077,1077,1077,1077,1077,1077,1077,1077,1077,1077,1077,1077,1077,1077,1077,1077,1077,1077,1077,1077,1077,1077,1077,1077,1077,1077,1077,1077,1077,1077,1077,1077,1077,1077,1077,1077,1077,1077,1077,1077,1077,1077,1077,1077,1077,1077,1077,1077,1077,1077,1077,1077,1077,1077,1077,1077,1077,1077,1077,1077,1077,1077,1077,1077,1077,1077,1077,1077,1077,1077,1077,1077,1077,1077,1077,1077,1077,1077,1077,1077,1077,1077,1077,1077,1077,1077,1077,1077,1077,1077,1077,1077,1077,1077,1077,1077,1077,1077,1077,1077,1077,1077,1077,1077,1077,1077,1077,1077,1077,1077,1077,1077,1077,1077,1077,1077,1077,1077,1077,1077,1077,1077,1077,1077,1077,1077,1077,1077,1077,1077,1077,1077,1077,1077,1077,1077,1077,1077,1077,1077,1077,1077,1077,1077,1077,1077,1077,1077,1077,1077,1077,1077,1077,1077,1077,1077,1077,1077,1077,1077,1077,1077,1077,1077,1077,1077,1077,1077,1077,1077,1077,1077,1077,1077,1077,1077,1077,1077,1077,1077,1077,1077,1077,1077,1077,1077,1077,1077,1077,1077,1077,1077,1077,1077,1077,1077,1077,1077,1077,1077,1077,1077,1077,1077,1077,1077,1077,1077,1077,1077,1077,1077,1077,1077,1077,1077,1077,1077,1077,1077,1077,1077,1077,1077,1077,1077,1077,1077,1077,1077,1077,1077,1077,1077,1077,1077,1077,1077,1077,1077,1077,1077,1077,1077,1077,1077,1077,1077,1077,1077,1077,1077,1077,1077,1077,1077,1077,1077,1077,1077,1077,1077,1077,1077,1077,1077,1077,1077,1077,1077,1077,1077,1077,1077,1077,1077,1077,1077,1077,1077,1077,1077,1077,1077,1077,1077,1077,1077,1077,1077,1077,1077,1077,1077,1077,1077,1077,1077,1077,1077,1077,1077,1077,1077,1077,1077,1077,1077,1077,1077,1077,1077,1077,1077,1077,1077,1077,1077,1077,1077,1077,1077,1077,1077,1077,1077,1077,1077,1077,1077,1077,1077,1077,1077,1077,1077,1077,1077,1077,1077,1077,1077,1077,1077,1077,1077,1077,1077,1077,1077,1077,1077,1077,1077,1077,1077,1077,1077,1077,1077,1077,1077,1077,1077,1077,1077,1077,1077,1077,1077,1077,1077,1077,1077,1077,1077,1077,1077,1077,1077,1077,1077,1077,1077,1077,1077,1077,1077,1077,1077,1077,1077,1077,1077,1077,1077,1077,1077,1077,1077,1077,1077,1077,1077,1077,1077,1077,1077,1077,1077,1077,1077,1077,1077,1077,1077,1077,1077,1077,1077,1077,1077,1077,1077,1077,1077,1077,1077,1077,1077,1077,1077,1077,1077,1077,1077,1077,1077,1077,1077,1077,1077,1077,1077,1077,1077,1077,1077,1077,1077,1077,1077,1077,1077,1077,1077,1077,1077,1077,1077,1077,1077,1077,1077,1077,1077,1077,1077,1077,1077,1077,1077,1077,1077,1077,1077,1077,1077,1077,1077,1077,1077,1077,1077,1077,1077,1077,1077,1077,1077,1077,1077,1077,1077,1077,1077,1077,1077,1077,1077,1077,1077,1077,1077,1077,1077,1077,1077,1077,1077,1077,1077,1077,1077,1077,1077,1077,1077,1077,1077,1077,1077,1077,1077,1077,1077,1077,1077,1077,1077,1077,1077,1077,1077,1077,1077,1077,1077,1077,1077,1077,1077,1077,1077,1077,1077,1077,1077,1077,1077,1077,1077,1077,1077,1077,1077,1077,1077,1077,1077,1077,1077,1077,1077,1077,1077,1077,1077,1077,1077,1077,1077,1077,1077,1077,1077,1077,1077,1077,1077,1077,1077,1077,1077,1077,1077,1077,1077,1077,1077,1077,1077,1077,1077,1077,1077,1077,1077,1077,1077,1077,1077,1077,1077,1077,1077,1077,1077,1077,1077,1077,1077,1077,1077,1077,1077,1077,1077,1077,1077,1077,1077,1077,1077,1077,1077,1077,1077,1077,1077,1077,1077,1077,1077,1077,1077,1077,1077,1077,1077,1077,1077,1077,1077,1077,1077,1077,1077,1077,1077,1077,1077,1077,1077,1077,1077,1077,1077,1077,1077,1077,1077,1077,1077,1077,1077,1077,1077,1077,1077,1077,1077,1077,1077,1077,1077,1077,1077,1077,1077,1077,1077,1077,1077,1077,1077,1077,1077,1077,1077,1077,1077,1077,1077,1077,1077,1077,1077,1077,1077,1077,1077,1077,1077,1077,1077,1077,1077,1077,1077,1077,1077,1077,1077,1077,1077,1077,1077,1077,1077,1077,1077,1077,1077,1077,1077,1077,1077,1077,1077,1077,1077,1077,1077,1077,1077,1077,1077,1077,1077,1077,1077,1077,1077,1077,1077,1077,1077,1077,1077,1077,1077,1077,1077,1077,1077,1077,1077,1077,1077,1077,1077,1077,1077,1077,1077,1077,1077,1077,1077,1077,1077,1077,1077,1077,1077,1077,1077,1077,1077,1077,1077,1077,1077,1077,1077,1077,1077,1077,1077,1077,1077,1077,1077,1077,1077,1077,1077,1077,1077,1077,1077,1077,1077,1077,1077,1077,1077,1077,1077,1077,1077,1077,1077,1077,1077,1077,1077,1077,1077,1077,1077,1077,1077,1077,1077,1077,1077,1077,1077,1077,1077,1077,1077,1077,1077,1077,1077,1077,1077,1077,1077,1077,1077,1077,1077,1077,1077,1077,1077,1077,1077,1077,1077,1077,1077,1077,1077,1077,1077,1077,1077,1077,1077,1077,1077,1077,1077,1077,1077,1077,1077,1077,1077,1077,1077,1077,1077,1077,1077,1077,1077,1077,1077,1077,1077,1077,1077,1077,1077,1077,1077,1077,1077,1077,1077,1077,1077,1077,1077,1077,1077,1077,1077,1077,1077,1077,1077,1077,1077,1077,1077,1077,1077,1077,1077,1077,1077,1077,1077,1077,1077,1077,1077,1077,1077,1077,1077,1077,1077,1077,1077,1077,1077,1077,1077,1077,1077,1077,1077,1077,1077,1077,1077,1077,1077,1077,1077,1077,1077,1077,1077,1077,1077,1077,1077,1077,1077,1077,1077,1077,1077,1077,1077,1077,1077,1077,1077,1077,1077,1077,1077,1077,1077,1077,1077,1077,1077,1077,1077,1077,1077,1077,1077,1077,1077,1077,1077,1077,1077,1077,1077,1077,1077,1077,1077,1077,1077,1077,1077,1077,1077,1077,1077,1077,1077,1077,1077,1077,1077,1077,1077,1077,1077,1077,1077,1077,1077,1077,1077,1077,1077,1077,1077,1077,1077,1077,1077,1077,1077,1077,1077,1077,1077,1077,1077,1077,1077,1077,1077,1077,1077,1077,1077,1077,1077,1077,1077,1077,1077,1077,1077,1077,1077,1077,1077,1077,1077,1077,1077,1077,1077,1077,1077,1077,1077,1077,1077,1077,1077,1077,1077,1077,1077,1077,1077,1077,1077,1077,1077,1077,1077,1077,1077,1077,1077,1077,1077,1077,1077,1077,1077,1077,1077,1077,1077,1077,1077,1077,1077,1077,1077,1077,1077,1077,1077,1077,1077,1077,1077,1077,1077,1077,1077,1077,1077,1077,1077,1077,1077,1077,1077,1077,1077,1077,1077,1077,1077,1077,1077,1077,1077,1077,1077,1077,1077,1077,1077,1077,1077,1077,1077,1077,1077,1077,1077,1077,1077,1077,1077,1077,1077,1077,1077,1077,1077,1077,1077,1077,1077,1077,1077,1077,1077,1077,1077,1077,1077,1077,1077,1077,1077,1077,1077,1077,1077,1077,1077,1077,1077,1077,1077,1077,1077,1077,1077,1077,1077,1077,1077,1077,1077,1077,1077,1077,1077,1077,1077,1077,1077,1077,1077,1077,1077,1077,1077,1077,1077,1077,1077,1077,1077,1077,1077,1077,1077,1077,1077,1077,1077,1077,1077,1077,1077,1077,1077,1077,1077,1077,1077,1077,1077,1077,1077,1077,1077,1077,1077,1077,1077,1077,1077,1077,1077,1077,1077,1077,1077,1077,1077,1077,1077,1077,1077,1077,1077,1077,1077,1077,1077,1077,1077,1077,1077,1077,1077,1077,1077,1077,1077,1077,1077,1077,1077,1077,1077,1077,1077,1077,1077,1077,1077,1077,1077,1077,1077,1077,1077,1077,1077,1077,1077,1077,1077,1077,1077,1077,1077,1077,1077,1077,1077,1077,1077,1077,1077,1077,1077,1077,1077,1077,1077,1077,1077,1077,1077,1077,1077,1077,1077,1077,1077,1077,1077,1077,1077,1077,1077,1077,1077,1077,1077,1077,1077,1077,1077,1077,1077,1077,1077,1077,1077,1077,1077,1077,1077,1077,1077,1077,1077,1077,1077,1077,1077,1077,1077,1077,1077,1077,1077,1077,1077,1077,1077,1077,1077,1077,1077,1077,1077,1077,1077,1077,1077,1077,1077,1077,1077,1077,1077,1077,1077,1077,1077,1077,1077,1077,1077,1077,1077,1077,1077,1077,1077,1077,1077,1077,1077,1077,1077,1077,1077,1077,1077,1077,1077,1077,1077,1077,1077,1077,1077,1077,1077,1077,1077,1077,1077,1077,1077,1077,1077,1077,1077,1077,1077,1077,1077,1077,1077,1077,1077,1077,1077,1077,1077,1077,1077,1077,1077,1077,1077,1077,1077,1077,1077,1077,1077,1077,1077,1077,1077,1077,1077,1077,1077,1077,1077,1077,1077,1077,1077,1077,1077,1077,1077,1077,1077,1077,1077,1077,1077,1077,1077,1077,1077,1077,1077,1077,1077,1077,1077,1077,1077,1077,1077,1077,1077,1077,1077,1077,1077,1077,1077,1077,1077,1077,1077,1077,1077,1077,1077,1077,1077,1077,1077,1077,1077,1077,1077,1077,1077,1077,1077,1077,1077,1077,1077,1077,1077,1077,1077,1077,1077,1077,1077,1077,1077,1077,1077,1077,1077,1077,1077,1077,1077,1077,1077,1077,1077,1077,1077,1077,1077,1077,1077,1077,1077,1077,1077,1077,1077,1077,1077,1077,1077,1077,1077,1077,1077,1077,1077,1077,1077,1077,1077,1077,1077,1077,1077,1077,1077,1077,1077,1077,1077,1077,1077,1077,1077,1077,1077,1077,1077,1077,1077,1077,1077,1077,1077,1077,1077,1077,1077,1077,1077,1077,1077,1077,1077,1077,1077,1077,1077,1077,1077,1077,1077,1077,1077,1077,1077,1077,1077,1077,1077,1077,1077,1077,1077,1077,1077,1077,1077,1077,1077,1077,1077,1077,1077,1077,1077,1077,1077,1077,1077,1077,1077,1077,1077,1077,1077,1077,1077,1077,1077,1077,1077,1077,1077,1077,1077,1077,1077,1077,1077,1077,1077,1077,1077,1077,1077,1077,1077,1077,1077,1077,1077,1077,1077,1077,1077,1077,1077,1077,1077,1077,1077,1077,1077,1077,1077,1077,1077,1077,1077,1077,1077,1077,1077,1077,1077,1077,1077,1077,1077,1077,1077,1077,1077,1077,1077,1077,1077,1077,1077,1077,1077,1077,1077,1077,1077,1077,1077,1077,1077,1077,1077,1077,1077,1077,1077,1077,1077,1077,1077,1077,1077,1077,1077,1077,1077,1077,1077,1077,1077,1077,1077,1077,1077,1077,1077,1077,1077,1077,1077,1077,1077,1077,1077,1077,1077,1077,1077,1077,1077,1077,1077,1077,1077,1077,1077,1077,1077,1077,1077,1077,1077,1077,1077,1077,1077,1077,1077,1077,1077,1077,1077,1077,1077,1077,1077,1077,1077,1077,1077,1077,1077,1077,1077,1077,1077,1077,1077,1077,1077,1077,1077,1077,1077,1077,1077,1077,1077,1077,1077,1077,1077,1077,1077,1077,1078,1092,1165,1229,1280,1280,1280,1280,1280,1280,1280,1280,1280,1280,1293,1296,1298,1299,1299,1299,1299,1299,1299,1276,1251,1231,1216,1203,1186,1182,1181,1181,1188,1197,1197,1197,1198,1198,1192,1178,1171,1167,1163,1161,1154],"ymouse":[527,527,527,527,527,527,527,527,527,528,531,533,533,533,533,533,533,533,533,534,534,534,534,534,534,534,534,534,534,534,534,534,534,534,534,539,651,732,759,761,761,761,761,761,761,761,761,761,761,761,761,761,761,761,761,761,761,761,761,761,761,761,761,761,761,761,761,761,761,761,761,761,761,761,761,761,761,761,761,761,761,761,761,761,761,761,761,761,761,761,761,761,761,761,761,761,761,761,761,761,761,761,761,761,761,761,761,761,761,761,761,761,761,761,761,761,761,761,761,761,761,761,761,761,761,761,761,761,761,761,761,761,761,761,761,761,761,761,761,761,761,761,761,761,761,761,761,761,761,761,761,761,761,761,761,761,761,761,761,761,761,761,761,761,761,761,761,761,761,761,761,761,761,761,761,761,761,761,761,761,761,761,761,761,761,761,761,761,761,761,761,761,761,761,761,761,761,761,761,761,761,761,761,761,761,761,761,761,761,761,761,761,761,761,761,761,761,761,761,761,761,761,761,761,761,761,761,761,761,761,761,761,761,761,761,761,761,761,761,761,761,761,761,761,761,761,761,761,761,761,761,761,761,761,761,761,761,761,761,761,761,761,761,761,761,761,761,761,761,761,761,761,761,761,761,761,761,761,761,761,761,761,761,761,761,761,761,761,761,761,761,761,761,761,761,761,761,761,761,761,761,761,761,761,761,761,761,761,761,761,761,761,761,761,761,761,761,761,761,761,761,761,761,761,761,761,761,761,761,761,761,761,761,761,761,761,761,761,761,761,761,761,761,761,761,761,761,761,761,761,761,761,761,761,761,761,761,761,761,761,761,761,761,761,761,761,761,761,761,761,761,761,761,761,761,761,761,761,761,761,761,761,761,761,761,761,761,761,761,761,761,761,761,761,761,761,761,761,761,761,761,761,761,761,761,761,761,761,761,761,761,761,761,761,761,761,761,761,761,761,761,761,761,761,761,761,761,761,761,761,761,761,761,761,761,761,761,761,761,761,761,761,761,761,761,761,761,761,761,761,761,761,761,761,761,761,761,761,761,761,761,761,761,761,761,761,761,761,761,761,761,761,761,761,761,761,761,761,761,761,761,761,761,761,761,761,761,761,761,761,761,761,761,761,761,761,761,761,761,761,761,761,761,761,761,761,761,761,761,761,761,761,761,761,761,761,761,761,761,761,761,761,761,761,761,761,761,761,761,761,761,761,761,761,761,761,761,761,761,761,761,761,761,761,761,761,761,761,761,761,761,761,761,761,761,761,761,761,761,761,761,761,761,761,761,761,761,761,761,761,761,761,761,761,761,761,761,761,761,761,761,761,761,761,761,761,761,761,761,761,761,761,761,761,761,761,761,761,761,761,761,761,761,761,761,761,761,761,761,761,761,761,761,761,761,761,761,761,761,761,761,761,761,761,761,761,761,761,761,761,761,761,761,761,761,761,761,761,761,761,761,761,761,761,761,761,761,761,761,761,761,761,761,761,761,761,761,761,761,761,761,761,761,761,761,761,761,761,761,761,761,761,761,761,761,761,761,761,761,761,761,761,761,761,761,761,761,761,761,761,761,761,761,761,761,761,761,761,761,761,761,761,761,761,761,761,761,761,761,761,761,761,761,761,761,761,761,761,761,761,761,761,761,761,761,761,761,761,761,761,761,761,761,761,761,761,761,761,761,761,761,761,761,761,761,761,761,761,761,761,761,761,761,761,761,761,761,761,761,761,761,761,761,761,761,761,761,761,761,761,761,761,761,761,761,761,761,761,761,761,761,761,761,761,761,761,761,761,761,761,761,761,761,761,761,761,761,761,761,761,761,761,761,761,761,761,761,761,761,761,761,761,761,761,761,761,761,761,761,761,761,761,761,761,761,761,761,761,761,761,761,761,761,761,761,761,761,761,761,761,761,761,761,761,761,761,761,761,761,761,761,761,761,761,761,761,761,761,761,761,761,761,761,761,761,761,761,761,761,761,761,761,761,761,761,761,761,761,761,761,761,761,761,761,761,761,761,761,761,761,761,761,761,761,761,761,761,761,761,761,761,761,761,761,761,761,761,761,761,761,761,761,761,761,761,761,761,761,761,761,761,761,761,761,761,761,761,761,761,761,761,761,761,761,761,761,761,761,761,761,761,761,761,761,761,761,761,761,761,761,761,761,761,761,761,761,761,761,761,761,761,761,761,761,761,761,761,761,761,761,761,761,761,761,761,761,761,761,761,761,761,761,761,761,761,761,761,761,761,761,761,761,761,761,761,761,761,761,761,761,761,761,761,761,761,761,761,761,761,761,761,761,761,761,761,761,761,761,761,761,761,761,761,761,761,761,761,761,761,761,761,761,761,761,761,761,761,761,761,761,761,761,761,761,761,761,761,761,761,761,761,761,761,761,761,761,761,761,761,761,761,761,761,761,761,761,761,761,761,761,761,761,761,761,761,761,761,761,761,761,761,761,761,761,761,761,761,761,761,761,761,761,761,761,761,761,761,761,761,761,761,761,761,761,761,761,761,761,761,761,761,761,761,761,761,761,761,761,761,761,761,761,761,761,761,761,761,761,761,761,761,761,761,761,761,761,761,761,761,761,761,761,761,761,761,761,761,761,761,761,761,761,761,761,761,761,761,761,761,761,761,761,761,761,761,761,761,761,761,761,761,761,761,761,761,761,761,761,761,761,761,761,761,761,761,761,761,761,761,761,761,761,761,761,761,761,761,761,761,761,761,761,761,761,761,761,761,761,761,761,761,761,761,761,761,761,761,761,761,761,761,761,761,761,761,761,761,761,761,761,761,761,761,761,761,761,761,761,761,761,761,761,761,761,761,761,761,761,761,761,761,761,761,761,761,761,761,761,761,761,761,761,761,761,761,761,761,761,761,761,761,761,761,761,761,761,761,761,761,761,761,761,761,761,761,761,761,761,761,761,761,761,761,761,761,761,761,761,761,761,761,761,761,761,761,761,761,761,761,761,761,761,761,761,761,761,761,761,761,761,761,761,761,761,761,761,761,761,761,761,761,761,761,761,761,761,761,761,761,761,761,761,761,761,761,761,761,761,761,761,761,761,761,761,761,761,761,761,761,761,761,761,761,761,761,761,761,761,761,761,761,761,761,761,761,761,761,761,761,761,761,761,761,761,761,761,761,761,761,761,761,761,761,761,761,761,761,761,761,761,761,761,761,761,761,761,761,761,761,761,761,761,761,761,761,761,761,761,761,761,761,761,761,761,761,761,761,761,761,761,761,761,761,761,761,761,761,761,761,761,761,761,761,761,761,761,761,761,761,761,761,761,761,761,761,761,761,761,761,761,761,761,761,761,761,761,761,761,761,761,761,761,761,761,761,761,761,761,761,761,761,761,761,761,761,761,761,761,761,761,761,761,761,761,761,761,761,761,761,761,761,761,761,761,761,761,761,761,761,761,761,761,761,761,761,761,761,761,761,761,761,761,761,761,761,761,761,761,761,761,761,761,761,761,761,761,761,761,761,761,761,761,761,761,761,761,761,761,761,761,761,761,761,761,761,761,761,761,761,761,761,761,761,761,761,761,761,761,761,761,761,761,761,761,761,761,761,761,761,761,761,761,761,761,761,761,761,761,761,761,761,761,761,761,761,761,761,761,761,761,761,761,761,761,761,761,761,761,761,761,761,761,761,761,761,761,761,761,761,761,761,761,761,761,761,761,761,761,761,761,761,761,761,761,761,761,761,761,761,761,761,761,761,761,761,761,761,761,761,761,761,761,761,761,761,761,761,761,761,761,761,761,761,761,761,761,761,761,761,761,761,761,761,761,761,761,761,761,761,761,761,761,761,761,761,761,761,761,761,761,761,761,761,761,761,761,761,761,761,761,761,761,761,761,761,761,761,761,761,761,761,761,761,761,761,761,761,761,761,761,761,761,761,761,761,761,761,761,761,761,761,761,761,761,761,761,761,761,761,761,761,761,761,761,761,761,761,761,761,761,761,761,761,761,761,761,761,761,761,761,761,761,761,761,761,761,761,761,761,761,761,761,761,761,761,761,761,761,761,761,761,761,761,761,761,761,761,761,761,761,761,761,761,761,761,761,761,761,761,761,761,761,761,761,761,761,761,761,761,761,761,761,761,761,761,761,761,761,761,761,761,761,761,761,761,761,761,761,761,761,761,761,761,761,761,761,761,761,761,761,761,761,761,761,761,761,761,761,761,761,761,761,761,761,761,761,761,761,761,761,761,761,761,761,761,761,761,761,761,761,761,761,761,761,761,761,761,761,761,761,761,761,761,761,761,761,761,761,761,761,761,761,761,761,761,761,761,761,761,761,761,761,761,761,761,761,761,761,761,761,761,761,761,761,761,761,761,761,761,761,761,761,761,761,761,761,761,761,761,761,761,761,761,761,761,761,761,761,761,761,761,761,761,761,761,761,761,761,761,761,761,761,761,761,761,761,761,761,761,761,761,761,761,761,761,761,761,761,761,761,761,761,761,761,761,761,761,761,761,761,761,761,761,761,761,761,761,761,761,761,761,761,761,761,761,761,761,761,761,761,761,761,761,761,761,761,761,761,761,761,761,761,761,761,761,761,761,761,761,761,761,761,761,761,761,761,761,761,761,761,761,761,761,761,761,761,761,761,761,761,761,761,761,761,761,761,761,761,761,761,761,761,761,761,761,761,761,761,761,761,761,761,761,761,761,761,761,761,761,761,761,761,761,761,761,761,761,761,761,761,761,761,761,761,761,761,761,761,761,761,761,761,761,761,761,761,761,761,761,761,761,761,761,761,761,761,761,761,761,761,761,761,761,761,761,761,761,761,761,761,761,761,761,761,761,761,761,761,761,761,761,761,761,761,761,761,761,761,761,761,761,761,761,761,761,761,761,761,761,761,761,761,758,729,692,638,638,638,638,638,638,638,638,638,638,614,596,591,590,589,589,589,589,588,543,469,368,262,178,70,42,26,20,13,8,8,8,7,7,7,10,11,13,15,16,20],"timestamp_mouse":[11,24,44,64,84,104,124,145,164,184,205,225,244,264,285,304,324,344,364,384,404,424,445,464,484,504,525,545,564,585,604,625,644,665,684,705,725,745,764,784,805,825,844,865,884,904,925,944,965,984,1005,1024,1046,1064,1085,1104,1124,1144,1165,1185,1204,1224,1246,1265,1285,1304,1325,1344,1364,1385,1405,1425,1445,1465,1484,1504,1524,1544,1566,1585,1605,1625,1645,1664,1685,1704,1725,1744,1764,1785,1804,1824,1844,1865,1884,1905,1925,1945,1965,1984,2005,2024,2044,2065,2085,2104,2124,2145,2165,2185,2204,2225,2245,2265,2285,2305,2325,2345,2365,2385,2405,2424,2445,2465,2485,2504,2524,2545,2565,2585,2605,2625,2645,2665,2685,2704,2724,2744,2765,2785,2805,2824,2845,2866,2885,2905,2924,2944,2965,2985,3004,3025,3045,3064,3085,3105,3124,3145,3165,3184,3204,3225,3244,3265,3284,3305,3324,3344,3364,3385,3405,3424,3445,3465,3484,3504,3525,3545,3565,3584,3605,3624,3645,3665,3685,3705,3725,3744,3765,3785,3805,3824,3845,3864,3885,3906,3925,3945,3965,3985,4005,4025,4044,4065,4085,4105,4124,4145,4165,4185,4204,4225,4246,4265,4285,4304,4325,4345,4364,4385,4405,4425,4444,4464,4485,4504,4524,4545,4565,4585,4605,4625,4645,4665,4685,4705,4724,4745,4764,4785,4804,4824,4845,4864,4885,4905,4924,4944,4965,4984,5004,5025,5045,5065,5084,5106,5125,5145,5165,5185,5204,5225,5245,5265,5285,5305,5325,5345,5364,5385,5404,5425,5445,5464,5485,5504,5525,5545,5565,5585,5605,5624,5644,5664,5685,5704,5726,5744,5764,5785,5804,5825,5844,5865,5884,5904,5924,5945,5964,5985,6004,6024,6045,6064,6084,6104,6125,6144,6165,6185,6204,6225,6245,6265,6284,6304,6325,6345,6365,6384,6405,6426,6444,6465,6485,6505,6524,6545,6564,6585,6605,6625,6644,6665,6685,6704,6724,6745,6764,6784,6805,6824,6845,6865,6885,6905,6924,6945,6965,6984,7005,7024,7045,7065,7085,7104,7124,7145,7164,7185,7204,7225,7245,7264,7285,7304,7325,7344,7365,7385,7404,7425,7445,7465,7485,7504,7524,7545,7565,7585,7606,7625,7645,7664,7685,7705,7725,7745,7765,7785,7804,7825,7846,7865,7886,7905,7925,7945,7964,7985,8005,8024,8044,8065,8085,8105,8125,8145,8164,8185,8204,8224,8245,8265,8285,8304,8324,8345,8365,8385,8405,8424,8444,8464,8484,8505,8524,8545,8564,8586,8605,8625,8645,8665,8685,8704,8724,8744,8764,8785,8805,8824,8845,8865,8884,8905,8924,8944,8965,8985,9004,9024,9045,9065,9086,9105,9125,9145,9165,9184,9205,9224,9245,9264,9285,9305,9324,9345,9364,9385,9404,9424,9445,9464,9485,9504,9525,9545,9565,9585,9604,9625,9645,9665,9684,9705,9725,9744,9765,9784,9805,9824,9844,9865,9885,9905,9924,9944,9965,9984,10004,10025,10045,10065,10084,10104,10125,10145,10165,10185,10204,10225,10245,10264,10284,10305,10325,10345,10365,10385,10405,10425,10444,10464,10485,10505,10525,10545,10565,10585,10605,10625,10644,10664,10684,10705,10724,10744,10765,10784,10805,10825,10845,10865,10885,10905,10925,10945,10965,10985,11005,11025,11045,11064,11085,11105,11125,11145,11165,11185,11205,11225,11245,11265,11285,11305,11325,11345,11365,11385,11405,11425,11445,11464,11484,11505,11525,11545,11565,11585,11604,11625,11645,11664,11684,11705,11725,11746,11764,11785,11805,11825,11845,11865,11885,11905,11924,11945,11965,11984,12005,12024,12044,12065,12085,12105,12124,12144,12165,12185,12205,12225,12245,12264,12285,12304,12325,12344,12365,12384,12405,12425,12445,12465,12485,12505,12525,12544,12565,12585,12605,12625,12645,12666,12685,12705,12725,12744,12765,12785,12805,12824,12845,12865,12885,12904,12925,12946,12965,12985,13005,13024,13045,13065,13085,13105,13125,13144,13164,13184,13205,13225,13245,13265,13285,13304,13325,13345,13364,13384,13405,13425,13445,13465,13485,13505,13524,13544,13565,13585,13605,13625,13644,13665,13685,13706,13725,13744,13765,13784,13805,13825,13844,13865,13885,13905,13925,13945,13965,13984,14005,14024,14045,14064,14084,14105,14124,14145,14166,14185,14205,14225,14244,14264,14285,14304,14325,14346,14365,14385,14405,14425,14445,14464,14485,14505,14524,14545,14565,14585,14605,14625,14645,14665,14685,14704,14725,14744,14764,14785,14804,14825,14844,14865,14884,14905,14925,14944,14965,14985,15005,15024,15045,15065,15085,15105,15125,15144,15165,15184,15205,15224,15246,15265,15285,15305,15325,15345,15364,15384,15404,15424,15444,15464,15485,15505,15525,15545,15565,15584,15604,15625,15644,15664,15685,15705,15726,15746,15764,15784,15804,15825,15844,15865,15885,15904,15924,15944,15964,15985,16005,16025,16045,16065,16085,16105,16125,16145,16165,16184,16204,16225,16245,16265,16284,16305,16325,16345,16365,16384,16404,16424,16444,16464,16485,16505,16525,16545,16564,16585,16606,16625,16645,16665,16685,16705,16725,16744,16764,16785,16805,16825,16844,16865,16884,16905,16926,16944,16965,16984,17005,17025,17044,17064,17085,17105,17125,17145,17164,17185,17204,17225,17244,17264,17284,17305,17325,17345,17364,17386,17404,17424,17444,17464,17485,17505,17524,17545,17564,17585,17604,17624,17644,17665,17684,17704,17725,17745,17764,17785,17804,17825,17844,17864,17884,17904,17924,17945,17965,17984,18005,18025,18045,18065,18085,18104,18125,18145,18164,18184,18204,18225,18245,18264,18285,18305,18325,18344,18365,18385,18405,18425,18444,18464,18484,18504,18525,18544,18564,18585,18605,18624,18644,18664,18685,18704,18725,18751,18764,18785,18805,18824,18844,18865,18885,18905,18925,18945,18965,18984,19005,19024,19044,19065,19084,19105,19125,19145,19164,19184,19205,19225,19245,19264,19285,19305,19325,19344,19364,19385,19405,19425,19445,19465,19485,19505,19525,19545,19564,19584,19604,19625,19644,19664,19684,19705,19725,19745,19765,19784,19804,19824,19844,19865,19885,19905,19925,19945,19965,19985,20005,20025,20044,20064,20085,20105,20125,20145,20165,20185,20205,20225,20245,20265,20285,20305,20325,20344,20364,20385,20404,20425,20445,20465,20485,20505,20525,20545,20564,20585,20605,20625,20645,20665,20685,20705,20725,20745,20765,20785,20805,20825,20844,20865,20885,20905,20924,20945,20965,20985,21005,21024,21045,21064,21084,21105,21124,21144,21164,21184,21205,21224,21245,21265,21285,21304,21325,21345,21365,21385,21407,21425,21444,21464,21484,21504,21525,21544,21564,21584,21604,21625,21644,21664,21684,21705,21725,21744,21764,21784,21805,21825,21845,21865,21884,21905,21924,21945,21964,21985,22004,22025,22045,22065,22085,22104,22124,22145,22164,22185,22205,22225,22244,22265,22285,22305,22324,22344,22364,22385,22405,22425,22444,22464,22484,22505,22525,22544,22564,22584,22604,22625,22645,22664,22684,22705,22724,22744,22765,22784,22805,22824,22844,22864,22884,22904,22925,22945,22964,22985,23005,23024,23044,23065,23084,23105,23125,23144,23164,23184,23204,23225,23244,23264,23284,23305,23324,23344,23365,23385,23404,23425,23444,23464,23484,23505,23525,23544,23564,23584,23604,23624,23644,23665,23685,23705,23724,23745,23764,23784,23804,23825,23844,23864,23884,23904,23925,23944,23965,23984,24004,24025,24045,24064,24084,24105,24126,24144,24165,24185,24204,24224,24245,24264,24285,24305,24324,24345,24365,24385,24405,24425,24445,24464,24485,24505,24524,24545,24565,24585,24604,24625,24644,24665,24685,24705,24725,24745,24764,24785,24805,24824,24845,24865,24885,24905,24924,24944,24965,24985,25005,25025,25045,25064,25085,25105,25125,25145,25165,25184,25205,25225,25245,25264,25285,25305,25324,25345,25365,25385,25405,25424,25445,25464,25485,25506,25525,25544,25565,25584,25604,25625,25645,25664,25684,25705,25724,25744,25765,25784,25805,25824,25845,25864,25885,25905,25924,25945,25965,25985,26005,26025,26045,26064,26084,26105,26125,26144,26165,26185,26205,26225,26244,26264,26285,26305,26325,26345,26364,26384,26405,26424,26445,26465,26485,26504,26526,26545,26565,26585,26605,26624,26645,26665,26685,26705,26725,26745,26764,26784,26805,26825,26844,26865,26884,26904,26924,26945,26964,26985,27005,27025,27045,27064,27084,27104,27124,27144,27164,27185,27205,27225,27245,27265,27285,27305,27325,27344,27365,27385,27405,27424,27445,27465,27485,27505,27525,27545,27565,27585,27605,27625,27644,27665,27685,27704,27726,27744,27765,27784,27805,27825,27845,27864,27885,27905,27925,27945,27964,27985,28005,28025,28045,28065,28084,28104,28124,28144,28165,28184,28204,28225,28245,28265,28284,28305,28324,28345,28365,28384,28404,28425,28445,28465,28485,28505,28525,28545,28565,28584,28604,28625,28645,28664,28685,28705,28725,28745,28765,28784,28805,28824,28845,28865,28884,28904,28924,28945,28965,28985,29005,29025,29045,29064,29085,29105,29125,29144,29165,29184,29205,29225,29245,29265,29284,29304,29324,29344,29366,29384,29404,29424,29445,29465,29485,29504,29525,29545,29565,29585,29604,29624,29645,29666,29685,29705,29725,29745,29765,29785,29805,29825,29846,29864,29885,29904,29925,29945,29965,29985,30005,30024,30044,30065,30085,30105,30125,30145,30164,30185,30204,30226,30245,30265,30285,30305,30325,30345,30365,30385,30404,30424,30444,30465,30485,30505,30525,30544,30565,30585,30604,30625,30645,30664,30684,30705,30724,30745,30764,30785,30804,30825,30844,30865,30884,30905,30925,30945,30965,30985,31005,31025,31045,31064,31085,31105,31125,31145,31165,31185,31205,31225,31245,31265,31284,31304,31325,31345,31365,31385,31405,31425,31445,31464,31484,31506,31525,31544,31565,31584,31605,31624,31644,31664,31684,31705,31724,31744,31764,31784,31804,31824,31845,31864,31885,31904,31925,31945,31965,31985,32005,32024,32045,32065,32085,32104,32125,32144,32164,32186,32205,32225,32244,32265,32284,32305,32325,32344,32365,32384,32405,32425,32445,32465,32485,32505,32525,32544,32565,32584,32604,32625,32645,32665,32685,32705,32725,32745,32765,32785,32805,32825,32845,32864,32885,32905,32924,32945,32965,32985,33005,33025,33045,33065,33085,33105,33125,33145,33165,33185,33205,33225,33244,33265,33284,33305,33324,33345,33365,33384,33404,33425,33445,33464,33485,33505,33525,33545,33565,33585,33605,33625,33645,33665,33685,33705,33725,33745,33765,33785,33805,33825,33845,33865,33884,33904,33925,33945,33964,33984,34004,34025,34044,34065,34084,34105,34124,34145,34165,34184,34204,34225,34245,34265,34285,34305,34325,34344,34365,34384,34404,34425,34444,34465,34485,34505,34525,34545,34565,34584,34605,34625,34645,34665,34685,34705,34725,34746,34765,34785,34805,34825,34845,34864,34885,34904,34925,34944,34964,34984,35005,35024,35045,35064,35085,35105,35124,35145,35165,35184,35204,35225,35244,35265,35284,35304,35324,35345,35364,35384,35406,35424,35445,35465,35484,35504,35524,35545,35564,35585,35605,35625,35645,35664,35685,35705,35725,35745,35764,35784,35805,35825,35844,35864,35885,35905,35925,35945,35965,35984,36005,36024,36045,36064,36085,36104,36125,36144,36165,36184,36204,36224,36245,36265,36284,36304,36325,36345,36364,36384,36405,36424,36444,36465,36484,36505,36525,36545,36565,36584,36605,36625,36645,36665,36685,36705,36724,36745,36765,36784,36804,36825,36845,36865,36885,36905,36925,36945,36964,36985,37004,37025,37044,37065,37085,37105,37125,37145,37164,37184,37204,37224,37244,37264,37284,37305,37325,37345,37365,37385,37404,37425,37445,37464,37485,37505,37525,37545,37565,37584,37605,37624,37645,37665,37685,37705,37725,37745,37764,37785,37804,37825,37845,37865,37885,37905,37925,37945,37964,37985,38005,38024,38045,38065,38085,38105,38125,38145,38166,38185,38205,38225,38245,38265,38285,38305,38324,38345,38365,38384,38404,38424,38444,38465,38484,38505,38525,38545,38565,38584,38605,38624,38646,38665,38685,38705,38725,38745,38765,38784,38804,38824,38845,38864,38885,38904,38925,38945,38964,38985,39004,39025,39045,39065,39084,39104,39125,39145,39165,39185,39205,39224,39245,39265,39285,39305,39325,39344,39364,39384,39405,39424,39445,39465,39485,39505,39525,39545,39564,39585,39605,39624,39645,39664,39685,39706,39724,39744,39764,39784,39805,39824,39845,39864,39884,39905,39924,39945,39964,39986,40005,40025,40044,40065,40084,40104,40125,40146,40164,40185,40204,40225,40245,40265,40285,40305,40324,40344,40365,40385,40405,40425,40445,40465,40485,40505,40524,40545,40564,40585,40605,40625,40645,40664,40684,40706,40725,40745,40765,40785,40805,40825,40845,40864,40885,40905,40924,40944,40964,40985,41006,41025,41045,41065,41085,41105,41125,41145,41165,41184,41205,41225,41244,41265,41285,41304,41325,41345,41365,41385,41404,41424,41445,41464,41485,41505,41524,41545,41565,41585,41604,41625,41644,41665,41685,41705,41725,41745,41765,41785,41804,41825,41845,41864,41885,41904,41925,41945,41964,41985,42004,42025,42044,42065,42084,42105,42125,42145,42164,42185,42204,42224,42245,42265,42284,42304,42324,42345,42365,42384,42404,42425,42444,42465,42485,42505,42525,42545,42565,42584,42604,42624,42645,42664,42684,42705,42724,42745,42764,42785,42804,42825,42845,42864,42885,42905,42924,42945,42964,42985,43005,43024,43044,43064,43084,43104,43124,43145,43165,43185,43205,43224,43244,43266,43284,43304,43324,43345,43365,43384,43405,43425,43445,43464,43485,43504,43524,43544,43564,43585,43604,43624,43646,43665,43685,43705,43724,43744,43765,43785,43804,43824,43844,43864,43884,43905],"xSR":741.5,"ySR":500.5,"xT1":424.9,"yT1":0,"xT2":1058.1,"yT2":0,"toosoon":0,"cond_shown":"Incongruent","ratio_trial":100,"L_num":8,"L_den":20,"R_num":1,"R_den":2,"correct_side":2,"subjID":"sergiomonroy8","gender":"0","age":"9","school":"4","test":{"fix_dur":[250,1500],"timestim":1000,"targets_dim":[100,100],"targets_relative_coord":[0.3,0.7],"size_stim":[880,420],"start_dim":[100,100],"size_start":[300,300],"size_fix":60,"samplingrate":20,"img_types":["Congruent","Incongruent"],"ratios":[100,200,300],"rep_conds":19,"nTrials":120,"trials_to_rest":500,"Trials_order":[43,85,117,5,35,91,65,59,47,104,32,8,12,102,87,51,42,73,118,56,9,86,2,74,38,50,64,96,92,71,4,34,78,103,53,25,17,36,100,30,18,105,66,84,22,116,13,88,11,3,112,37,75,109,67,23,62,27,99,10,29,76,114,33,94,97,52,61,15,7,16,1,45,54,26,79,40,110,107,6,14,55,20,31,68,108,28,80,58,57,98,81,70,63,95,101,46,82,93,24,119,77,83,21,49,113,72,111,115,19,41,90,44,69,60,106,89,48,0,39],"cond_shown":["Incongruent","Incongruent","Incongruent","Incongruent","Incongruent","Incongruent","Incongruent","Incongruent","Incongruent","Congruent","Congruent","Congruent","Congruent","Congruent","Incongruent","Incongruent","Congruent","Incongruent","Congruent","Congruent","Incongruent","Congruent","Congruent","Congruent","Congruent","Congruent","Congruent","Congruent","Congruent","Incongruent","Congruent","Congruent","Congruent","Incongruent","Incongruent","Incongruent","Incongruent","Congruent","Congruent","Congruent","Congruent","Incongruent","Congruent","Congruent","Congruent","Congruent","Incongruent","Congruent","Incongruent","Incongruent","Congruent","Incongruent","Incongruent","Incongruent","Incongruent","Incongruent","Congruent","Incongruent","Incongruent","Congruent","Incongruent","Congruent","Congruent","Incongruent","Congruent","Incongruent","Congruent","Incongruent","Incongruent","Incongruent","Congruent","Incongruent","Incongruent","Congruent","Congruent","Incongruent","Congruent","Congruent","Incongruent","Congruent","Congruent","Incongruent","Congruent","Incongruent","Congruent","Congruent","Congruent","Congruent","Congruent","Incongruent","Congruent","Incongruent","Congruent","Incongruent","Incongruent","Incongruent","Congruent","Congruent","Incongruent","Congruent","Incongruent","Incongruent","Incongruent","Incongruent","Incongruent","Incongruent","Congruent","Incongruent","Incongruent","Incongruent","Incongruent","Congruent","Congruent","Incongruent","Congruent","Congruent","Incongruent","Congruent","Congruent","Incongruent"],"ratio_trial":[100,100,200,300,300,100,300,300,300,200,200,200,100,100,200,200,100,100,300,200,200,200,200,200,200,200,300,100,200,300,300,300,100,100,300,100,300,100,300,100,100,200,100,100,300,200,100,300,300,200,300,100,200,100,100,300,200,200,200,300,300,300,100,200,300,100,300,100,200,100,300,100,200,100,200,100,300,200,300,100,200,100,200,100,200,100,300,200,300,200,200,200,300,200,300,300,300,300,200,100,300,300,300,200,100,300,100,200,100,100,300,100,200,200,100,300,300,100,100,200],"left_num":[8,2,4,8,13,6,4,8,4,1,9,20,1,7,4,4,8,2,8,3,1,3,11,8,13,3,9,11,8,4,4,11,1,10,13,12,3,10,1,7,3,4,3,2,11,3,3,1,4,7,4,13,3,12,12,4,3,3,11,1,4,3,6,14,1,6,3,9,7,17,3,6,7,7,3,12,11,8,4,7,3,11,3,1,6,6,8,9,1,7,11,1,1,7,13,8,1,2,7,8,13,13,13,7,12,13,6,1,9,6,1,6,21,7,7,4,8,3,3,1],"right_num":[1,6,1,14,12,7,2,14,6,21,13,9,18,15,14,14,2,8,1,14,2,7,3,3,14,14,3,6,7,6,13,4,3,9,12,9,4,3,7,9,2,6,2,6,1,7,8,8,2,8,2,6,1,2,9,8,11,1,3,3,8,4,5,6,6,7,11,6,8,10,11,3,6,15,14,9,2,2,2,9,14,9,9,8,11,15,1,4,6,8,3,2,11,14,12,14,19,10,6,2,12,12,12,12,2,12,5,2,6,11,3,15,2,4,9,1,9,4,2,2],"left_den":[20,4,30,10,26,10,20,10,5,2,30,25,2,14,6,6,16,4,16,10,3,10,22,15,26,6,10,22,15,5,20,22,2,25,26,24,6,25,20,14,6,5,6,5,22,10,5,30,20,10,5,26,10,30,24,5,10,10,20,5,5,6,20,30,5,10,12,18,10,30,12,12,15,14,6,24,22,15,20,14,10,22,12,2,20,12,16,20,5,10,22,3,5,10,26,10,3,20,15,16,26,26,26,10,30,26,20,3,18,10,2,12,30,15,14,10,10,20,6,3],"right_den":[2,15,3,28,15,14,4,28,12,30,26,15,30,25,30,30,5,20,5,28,15,14,10,9,20,20,5,15,21,12,26,20,5,18,15,15,20,10,20,15,5,10,5,12,5,14,16,24,4,16,4,10,2,4,15,16,22,2,4,6,16,5,25,9,12,14,20,10,16,15,20,5,9,25,20,15,10,6,4,15,28,15,20,20,22,25,5,16,12,16,10,15,22,28,15,28,30,25,9,5,15,15,15,24,4,15,25,15,10,22,15,25,4,6,15,10,18,16,5,15],"correct_side":[2,1,2,1,2,1,2,1,1,2,2,1,2,2,1,1,1,1,1,2,1,2,1,1,2,2,1,1,1,1,2,1,2,2,2,2,1,1,2,2,1,1,1,2,1,2,1,2,2,1,1,2,2,2,2,1,2,2,2,2,1,2,1,2,2,1,2,2,1,2,2,2,2,2,2,2,1,1,2,2,2,2,2,1,2,2,1,1,2,1,1,1,2,1,2,1,2,2,2,1,2,2,2,1,2,2,1,1,2,1,1,2,1,2,2,1,1,2,1,1],"img_shown":["img2/100/Incongruent/R/I_Dist_100_LN_8_LD_20_RN_1_RD_2_1.png","img2/100/Incongruent/L/I_Dist_100_LN_2_LD_4_RN_6_RD_15_0.png","img2/200/Incongruent/R/I_Dist_200_LN_4_LD_30_RN_1_RD_3_1.png","img2/300/Incongruent/L/I_Dist_300_LN_8_LD_10_RN_14_RD_28_0.png","img2/300/Incongruent/R/I_Dist_300_LN_13_LD_26_RN_12_RD_15_1.png","img2/100/Incongruent/L/I_Dist_100_LN_6_LD_10_RN_7_RD_14_0.png","img2/300/Incongruent/R/I_Dist_300_LN_4_LD_20_RN_2_RD_4_1.png","img2/300/Incongruent/L/I_Dist_300_LN_8_LD_10_RN_14_RD_28_0.png","img2/300/Incongruent/L/I_Dist_300_LN_4_LD_5_RN_6_RD_12_0.png","img2/200/Congruent/R/C_Dist_200_LN_1_LD_2_RN_21_RD_30_1.png","img2/200/Congruent/R/C_Dist_200_LN_9_LD_30_RN_13_RD_26_1.png","img2/200/Congruent/L/C_Dist_200_LN_20_LD_25_RN_9_RD_15_0.png","img2/100/Congruent/R/C_Dist_100_LN_1_LD_2_RN_18_RD_30_1.png","img2/100/Congruent/R/C_Dist_100_LN_7_LD_14_RN_15_RD_25_1.png","img2/200/Incongruent/L/I_Dist_200_LN_4_LD_6_RN_14_RD_30_0.png","img2/200/Incongruent/L/I_Dist_200_LN_4_LD_6_RN_14_RD_30_0.png","img2/100/Congruent/L/C_Dist_100_LN_8_LD_16_RN_2_RD_5_0.png","img2/100/Incongruent/L/I_Dist_100_LN_2_LD_4_RN_8_RD_20_0.png","img2/300/Congruent/L/C_Dist_300_LN_8_LD_16_RN_1_RD_5_0.png","img2/200/Congruent/R/C_Dist_200_LN_3_LD_10_RN_14_RD_28_1.png","img2/200/Incongruent/L/I_Dist_200_LN_1_LD_3_RN_2_RD_15_0.png","img2/200/Congruent/R/C_Dist_200_LN_3_LD_10_RN_7_RD_14_1.png","img2/200/Congruent/L/C_Dist_200_LN_11_LD_22_RN_3_RD_10_0.png","img2/200/Congruent/L/C_Dist_200_LN_8_LD_15_RN_3_RD_9_0.png","img2/200/Congruent/R/C_Dist_200_LN_13_LD_26_RN_14_RD_20_1.png","img2/200/Congruent/R/C_Dist_200_LN_3_LD_6_RN_14_RD_20_1.png","img2/300/Congruent/L/C_Dist_300_LN_9_LD_10_RN_3_RD_5_0.png","img2/100/Congruent/L/C_Dist_100_LN_11_LD_22_RN_6_RD_15_0.png","img2/200/Congruent/L/C_Dist_200_LN_8_LD_15_RN_7_RD_21_0.png","img2/300/Incongruent/L/I_Dist_300_LN_4_LD_5_RN_6_RD_12_0.png","img2/300/Congruent/R/C_Dist_300_LN_4_LD_20_RN_13_RD_26_1.png","img2/300/Congruent/L/C_Dist_300_LN_11_LD_22_RN_4_RD_20_0.png","img2/100/Congruent/R/C_Dist_100_LN_1_LD_2_RN_3_RD_5_1.png","img2/100/Incongruent/R/I_Dist_100_LN_10_LD_25_RN_9_RD_18_1.png","img2/300/Incongruent/R/I_Dist_300_LN_13_LD_26_RN_12_RD_15_1.png","img2/100/Incongruent/R/I_Dist_100_LN_12_LD_24_RN_9_RD_15_1.png","img2/300/Incongruent/L/I_Dist_300_LN_3_LD_6_RN_4_RD_20_0.png","img2/100/Congruent/L/C_Dist_100_LN_10_LD_25_RN_3_RD_10_0.png","img2/300/Congruent/R/C_Dist_300_LN_1_LD_20_RN_7_RD_20_1.png","img2/100/Congruent/R/C_Dist_100_LN_7_LD_14_RN_9_RD_15_1.png","img2/100/Congruent/L/C_Dist_100_LN_3_LD_6_RN_2_RD_5_0.png","img2/200/Incongruent/L/I_Dist_200_LN_4_LD_5_RN_6_RD_10_0.png","img2/100/Congruent/L/C_Dist_100_LN_3_LD_6_RN_2_RD_5_0.png","img2/100/Congruent/R/C_Dist_100_LN_2_LD_5_RN_6_RD_12_1.png","img2/300/Congruent/L/C_Dist_300_LN_11_LD_22_RN_1_RD_5_0.png","img2/200/Congruent/R/C_Dist_200_LN_3_LD_10_RN_7_RD_14_1.png","img2/100/Incongruent/L/I_Dist_100_LN_3_LD_5_RN_8_RD_16_0.png","img2/300/Congruent/R/C_Dist_300_LN_1_LD_30_RN_8_RD_24_1.png","img2/300/Incongruent/R/I_Dist_300_LN_4_LD_20_RN_2_RD_4_1.png","img2/200/Incongruent/L/I_Dist_200_LN_7_LD_10_RN_8_RD_16_0.png","img2/300/Congruent/L/C_Dist_300_LN_4_LD_5_RN_2_RD_4_0.png","img2/100/Incongruent/R/I_Dist_100_LN_13_LD_26_RN_6_RD_10_1.png","img2/200/Incongruent/R/I_Dist_200_LN_3_LD_10_RN_1_RD_2_1.png","img2/100/Incongruent/R/I_Dist_100_LN_12_LD_30_RN_2_RD_4_1.png","img2/100/Incongruent/R/I_Dist_100_LN_12_LD_24_RN_9_RD_15_1.png","img2/300/Incongruent/L/I_Dist_300_LN_4_LD_5_RN_8_RD_16_0.png","img2/200/Congruent/R/C_Dist_200_LN_3_LD_10_RN_11_RD_22_1.png","img2/200/Incongruent/R/I_Dist_200_LN_3_LD_10_RN_1_RD_2_1.png","img2/200/Incongruent/R/I_Dist_200_LN_11_LD_20_RN_3_RD_4_1.png","img2/300/Congruent/R/C_Dist_300_LN_1_LD_5_RN_3_RD_6_1.png","img2/300/Incongruent/L/I_Dist_300_LN_4_LD_5_RN_8_RD_16_0.png","img2/300/Congruent/R/C_Dist_300_LN_3_LD_6_RN_4_RD_5_1.png","img2/100/Congruent/L/C_Dist_100_LN_6_LD_20_RN_5_RD_25_0.png","img2/200/Incongruent/R/I_Dist_200_LN_14_LD_30_RN_6_RD_9_1.png","img2/300/Congruent/R/C_Dist_300_LN_1_LD_5_RN_6_RD_12_1.png","img2/100/Incongruent/L/I_Dist_100_LN_6_LD_10_RN_7_RD_14_0.png","img2/300/Congruent/R/C_Dist_300_LN_3_LD_12_RN_11_RD_20_1.png","img2/100/Incongruent/R/I_Dist_100_LN_9_LD_18_RN_6_RD_10_1.png","img2/200/Incongruent/L/I_Dist_200_LN_7_LD_10_RN_8_RD_16_0.png","img2/100/Incongruent/R/I_Dist_100_LN_17_LD_30_RN_10_RD_15_1.png","img2/300/Congruent/R/C_Dist_300_LN_3_LD_12_RN_11_RD_20_1.png","img2/100/Incongruent/R/I_Dist_100_LN_6_LD_12_RN_3_RD_5_1.png","img2/200/Incongruent/R/I_Dist_200_LN_7_LD_15_RN_6_RD_9_1.png","img2/100/Congruent/R/C_Dist_100_LN_7_LD_14_RN_15_RD_25_1.png","img2/200/Congruent/R/C_Dist_200_LN_3_LD_6_RN_14_RD_20_1.png","img2/100/Incongruent/R/I_Dist_100_LN_12_LD_24_RN_9_RD_15_1.png","img2/300/Congruent/L/C_Dist_300_LN_11_LD_22_RN_2_RD_10_0.png","img2/200/Congruent/L/C_Dist_200_LN_8_LD_15_RN_2_RD_6_0.png","img2/300/Incongruent/R/I_Dist_300_LN_4_LD_20_RN_2_RD_4_1.png","img2/100/Congruent/R/C_Dist_100_LN_7_LD_14_RN_9_RD_15_1.png","img2/200/Congruent/R/C_Dist_200_LN_3_LD_10_RN_14_RD_28_1.png","img2/100/Incongruent/R/I_Dist_100_LN_11_LD_22_RN_9_RD_15_1.png","img2/200/Congruent/R/C_Dist_200_LN_3_LD_12_RN_9_RD_20_1.png","img2/100/Incongruent/L/I_Dist_100_LN_1_LD_2_RN_8_RD_20_0.png","img2/200/Congruent/R/C_Dist_200_LN_6_LD_20_RN_11_RD_22_1.png","img2/100/Congruent/R/C_Dist_100_LN_6_LD_12_RN_15_RD_25_1.png","img2/300/Congruent/L/C_Dist_300_LN_8_LD_16_RN_1_RD_5_0.png","img2/200/Congruent/L/C_Dist_200_LN_9_LD_20_RN_4_RD_16_0.png","img2/300/Congruent/R/C_Dist_300_LN_1_LD_5_RN_6_RD_12_1.png","img2/200/Incongruent/L/I_Dist_200_LN_7_LD_10_RN_8_RD_16_0.png","img2/200/Congruent/L/C_Dist_200_LN_11_LD_22_RN_3_RD_10_0.png","img2/200/Incongruent/L/I_Dist_200_LN_1_LD_3_RN_2_RD_15_0.png","img2/300/Congruent/R/C_Dist_300_LN_1_LD_5_RN_11_RD_22_1.png","img2/200/Incongruent/L/I_Dist_200_LN_7_LD_10_RN_14_RD_28_0.png","img2/300/Incongruent/R/I_Dist_300_LN_13_LD_26_RN_12_RD_15_1.png","img2/300/Incongruent/L/I_Dist_300_LN_8_LD_10_RN_14_RD_28_0.png","img2/300/Congruent/R/C_Dist_300_LN_1_LD_3_RN_19_RD_30_1.png","img2/300/Congruent/R/C_Dist_300_LN_2_LD_20_RN_10_RD_25_1.png","img2/200/Incongruent/R/I_Dist_200_LN_7_LD_15_RN_6_RD_9_1.png","img2/100/Congruent/L/C_Dist_100_LN_8_LD_16_RN_2_RD_5_0.png","img2/300/Incongruent/R/I_Dist_300_LN_13_LD_26_RN_12_RD_15_1.png","img2/300/Incongruent/R/I_Dist_300_LN_13_LD_26_RN_12_RD_15_1.png","img2/300/Incongruent/R/I_Dist_300_LN_13_LD_26_RN_12_RD_15_1.png","img2/200/Incongruent/L/I_Dist_200_LN_7_LD_10_RN_12_RD_24_0.png","img2/100/Incongruent/R/I_Dist_100_LN_12_LD_30_RN_2_RD_4_1.png","img2/300/Incongruent/R/I_Dist_300_LN_13_LD_26_RN_12_RD_15_1.png","img2/100/Congruent/L/C_Dist_100_LN_6_LD_20_RN_5_RD_25_0.png","img2/200/Incongruent/L/I_Dist_200_LN_1_LD_3_RN_2_RD_15_0.png","img2/100/Incongruent/R/I_Dist_100_LN_9_LD_18_RN_6_RD_10_1.png","img2/100/Incongruent/L/I_Dist_100_LN_6_LD_10_RN_11_RD_22_0.png","img2/300/Incongruent/L/I_Dist_300_LN_1_LD_2_RN_3_RD_15_0.png","img2/100/Congruent/R/C_Dist_100_LN_6_LD_12_RN_15_RD_25_1.png","img2/200/Congruent/L/C_Dist_200_LN_21_LD_30_RN_2_RD_4_0.png","img2/200/Incongruent/R/I_Dist_200_LN_7_LD_15_RN_4_RD_6_1.png","img2/100/Congruent/R/C_Dist_100_LN_7_LD_14_RN_9_RD_15_1.png","img2/300/Congruent/L/C_Dist_300_LN_4_LD_10_RN_1_RD_10_0.png","img2/300/Incongruent/L/I_Dist_300_LN_8_LD_10_RN_9_RD_18_0.png","img2/100/Congruent/R/C_Dist_100_LN_3_LD_20_RN_4_RD_16_1.png","img2/100/Congruent/L/C_Dist_100_LN_3_LD_6_RN_2_RD_5_0.png","img2/200/Incongruent/L/I_Dist_200_LN_1_LD_3_RN_2_RD_15_0.png"],"dist100_C":[["C_Dist_100_LN_10_LD_25_RN_3_RD_10_0.png","C_Dist_100_LN_11_LD_22_RN_4_RD_10_0.png","C_Dist_100_LN_11_LD_22_RN_6_RD_15_0.png","C_Dist_100_LN_15_LD_25_RN_13_RD_26_0.png","C_Dist_100_LN_3_LD_6_RN_2_RD_5_0.png","C_Dist_100_LN_6_LD_20_RN_5_RD_25_0.png","C_Dist_100_LN_8_LD_16_RN_2_RD_5_0.png","C_Dist_100_LN_9_LD_15_RN_8_RD_16_0.png"],["C_Dist_100_LN_1_LD_2_RN_18_RD_30_1.png","C_Dist_100_LN_1_LD_2_RN_3_RD_5_1.png","C_Dist_100_LN_12_LD_30_RN_13_RD_26_1.png","C_Dist_100_LN_2_LD_5_RN_11_RD_22_1.png","C_Dist_100_LN_2_LD_5_RN_6_RD_12_1.png","C_Dist_100_LN_3_LD_20_RN_4_RD_16_1.png","C_Dist_100_LN_4_LD_10_RN_15_RD_30_1.png","C_Dist_100_LN_4_LD_8_RN_6_RD_10_1.png","C_Dist_100_LN_6_LD_12_RN_15_RD_25_1.png","C_Dist_100_LN_7_LD_14_RN_15_RD_25_1.png","C_Dist_100_LN_7_LD_14_RN_9_RD_15_1.png"]],"dist100_I":[["I_Dist_100_LN_1_LD_2_RN_8_RD_20_0.png","I_Dist_100_LN_2_LD_4_RN_6_RD_15_0.png","I_Dist_100_LN_2_LD_4_RN_8_RD_20_0.png","I_Dist_100_LN_3_LD_5_RN_11_RD_22_0.png","I_Dist_100_LN_3_LD_5_RN_8_RD_16_0.png","I_Dist_100_LN_3_LD_6_RN_4_RD_10_0.png","I_Dist_100_LN_3_LD_9_RN_7_RD_30_0.png","I_Dist_100_LN_4_LD_8_RN_8_RD_20_0.png","I_Dist_100_LN_6_LD_10_RN_11_RD_22_0.png","I_Dist_100_LN_6_LD_10_RN_13_RD_26_0.png","I_Dist_100_LN_6_LD_10_RN_7_RD_14_0.png","I_Dist_100_LN_9_LD_10_RN_20_RD_25_0.png","I_Dist_100_LN_9_LD_15_RN_13_RD_26_0.png","I_Dist_100_LN_9_LD_15_RN_14_RD_28_0.png"],["I_Dist_100_LN_10_LD_25_RN_8_RD_16_1.png","I_Dist_100_LN_10_LD_25_RN_9_RD_18_1.png","I_Dist_100_LN_11_LD_22_RN_9_RD_15_1.png","I_Dist_100_LN_12_LD_24_RN_9_RD_15_1.png","I_Dist_100_LN_12_LD_30_RN_2_RD_4_1.png","I_Dist_100_LN_13_LD_26_RN_12_RD_20_1.png","I_Dist_100_LN_13_LD_26_RN_6_RD_10_1.png","I_Dist_100_LN_17_LD_30_RN_10_RD_15_1.png","I_Dist_100_LN_6_LD_12_RN_3_RD_5_1.png","I_Dist_100_LN_8_LD_16_RN_6_RD_10_1.png","I_Dist_100_LN_8_LD_20_RN_1_RD_2_1.png","I_Dist_100_LN_9_LD_18_RN_6_RD_10_1.png"]],"dist100_S":[["E_Dist_100_LN_2_LD_12_RN_2_RD_30_0.png","E_Dist_100_LN_6_LD_10_RN_6_RD_12_0.png"],["E_Dist_100_LN_6_LD_12_RN_6_RD_10_1.png"]],"dist200_C":[["C_Dist_200_LN_11_LD_22_RN_3_RD_10_0.png","C_Dist_200_LN_12_LD_15_RN_6_RD_10_0.png","C_Dist_200_LN_12_LD_20_RN_6_RD_15_0.png","C_Dist_200_LN_14_LD_28_RN_6_RD_20_0.png","C_Dist_200_LN_15_LD_25_RN_4_RD_10_0.png","C_Dist_200_LN_16_LD_20_RN_12_RD_20_0.png","C_Dist_200_LN_16_LD_30_RN_9_RD_27_0.png","C_Dist_200_LN_20_LD_25_RN_9_RD_15_0.png","C_Dist_200_LN_21_LD_30_RN_2_RD_4_0.png","C_Dist_200_LN_4_LD_10_RN_3_RD_15_0.png","C_Dist_200_LN_4_LD_8_RN_3_RD_10_0.png","C_Dist_200_LN_6_LD_15_RN_3_RD_15_0.png","C_Dist_200_LN_7_LD_21_RN_2_RD_15_0.png","C_Dist_200_LN_8_LD_15_RN_2_RD_6_0.png","C_Dist_200_LN_8_LD_15_RN_3_RD_9_0.png","C_Dist_200_LN_8_LD_15_RN_7_RD_21_0.png","C_Dist_200_LN_9_LD_20_RN_4_RD_16_0.png"],["C_Dist_200_LN_1_LD_2_RN_21_RD_30_1.png","C_Dist_200_LN_13_LD_26_RN_14_RD_20_1.png","C_Dist_200_LN_3_LD_10_RN_11_RD_22_1.png","C_Dist_200_LN_3_LD_10_RN_14_RD_28_1.png","C_Dist_200_LN_3_LD_10_RN_7_RD_14_1.png","C_Dist_200_LN_3_LD_12_RN_9_RD_20_1.png","C_Dist_200_LN_3_LD_6_RN_14_RD_20_1.png","C_Dist_200_LN_5_LD_10_RN_14_RD_20_1.png","C_Dist_200_LN_6_LD_12_RN_7_RD_10_1.png","C_Dist_200_LN_6_LD_20_RN_11_RD_22_1.png","C_Dist_200_LN_7_LD_15_RN_18_RD_27_1.png","C_Dist_200_LN_9_LD_30_RN_13_RD_26_1.png"]],"dist200_I":[["I_Dist_200_LN_1_LD_2_RN_3_RD_10_0.png","I_Dist_200_LN_1_LD_3_RN_2_RD_15_0.png","I_Dist_200_LN_3_LD_4_RN_11_RD_20_0.png","I_Dist_200_LN_4_LD_5_RN_6_RD_10_0.png","I_Dist_200_LN_4_LD_6_RN_14_RD_30_0.png","I_Dist_200_LN_7_LD_10_RN_12_RD_24_0.png","I_Dist_200_LN_7_LD_10_RN_14_RD_28_0.png","I_Dist_200_LN_7_LD_10_RN_8_RD_16_0.png"],["I_Dist_200_LN_11_LD_20_RN_3_RD_4_1.png","I_Dist_200_LN_14_LD_30_RN_12_RD_18_1.png","I_Dist_200_LN_14_LD_30_RN_6_RD_9_1.png","I_Dist_200_LN_3_LD_10_RN_1_RD_2_1.png","I_Dist_200_LN_4_LD_30_RN_1_RD_3_1.png","I_Dist_200_LN_6_LD_20_RN_3_RD_6_1.png","I_Dist_200_LN_7_LD_15_RN_4_RD_6_1.png","I_Dist_200_LN_7_LD_15_RN_6_RD_9_1.png","I_Dist_200_LN_9_LD_15_RN_8_RD_10_1.png"]],"dist200_S":[["E_Dist_200_LN_3_LD_6_RN_3_RD_10_0.png"],["E_Dist_200_LN_3_LD_10_RN_3_RD_6_1.png"]],"dist300_C":[["C_Dist_300_LN_11_LD_22_RN_1_RD_5_0.png","C_Dist_300_LN_11_LD_22_RN_2_RD_10_0.png","C_Dist_300_LN_11_LD_22_RN_4_RD_20_0.png","C_Dist_300_LN_12_LD_24_RN_2_RD_10_0.png","C_Dist_300_LN_18_LD_20_RN_9_RD_15_0.png","C_Dist_300_LN_20_LD_25_RN_13_RD_26_0.png","C_Dist_300_LN_20_LD_25_RN_14_RD_28_0.png","C_Dist_300_LN_20_LD_25_RN_5_RD_10_0.png","C_Dist_300_LN_20_LD_25_RN_8_RD_16_0.png","C_Dist_300_LN_20_LD_25_RN_9_RD_18_0.png","C_Dist_300_LN_24_LD_30_RN_2_RD_4_0.png","C_Dist_300_LN_24_LD_30_RN_8_RD_16_0.png","C_Dist_300_LN_3_LD_6_RN_2_RD_10_0.png","C_Dist_300_LN_4_LD_10_RN_1_RD_10_0.png","C_Dist_300_LN_4_LD_5_RN_2_RD_4_0.png","C_Dist_300_LN_8_LD_16_RN_1_RD_5_0.png","C_Dist_300_LN_9_LD_10_RN_3_RD_5_0.png"],["C_Dist_300_LN_1_LD_20_RN_7_RD_20_1.png","C_Dist_300_LN_1_LD_3_RN_19_RD_30_1.png","C_Dist_300_LN_1_LD_30_RN_8_RD_24_1.png","C_Dist_300_LN_1_LD_5_RN_11_RD_22_1.png","C_Dist_300_LN_1_LD_5_RN_3_RD_6_1.png","C_Dist_300_LN_1_LD_5_RN_6_RD_12_1.png","C_Dist_300_LN_2_LD_10_RN_12_RD_24_1.png","C_Dist_300_LN_2_LD_20_RN_10_RD_25_1.png","C_Dist_300_LN_3_LD_12_RN_11_RD_20_1.png","C_Dist_300_LN_3_LD_6_RN_4_RD_5_1.png","C_Dist_300_LN_4_LD_20_RN_13_RD_26_1.png","C_Dist_300_LN_5_LD_25_RN_6_RD_12_1.png","C_Dist_300_LN_5_LD_25_RN_7_RD_14_1.png","C_Dist_300_LN_7_LD_14_RN_20_RD_25_1.png","C_Dist_300_LN_8_LD_15_RN_10_RD_12_1.png"]],"dist300_I":[["I_Dist_300_LN_1_LD_2_RN_2_RD_10_0.png","I_Dist_300_LN_1_LD_2_RN_3_RD_15_0.png","I_Dist_300_LN_2_LD_4_RN_6_RD_30_0.png","I_Dist_300_LN_3_LD_6_RN_4_RD_20_0.png","I_Dist_300_LN_4_LD_5_RN_6_RD_12_0.png","I_Dist_300_LN_4_LD_5_RN_8_RD_16_0.png","I_Dist_300_LN_7_LD_10_RN_8_RD_20_0.png","I_Dist_300_LN_8_LD_10_RN_14_RD_28_0.png","I_Dist_300_LN_8_LD_10_RN_9_RD_18_0.png"],["I_Dist_300_LN_13_LD_26_RN_12_RD_15_1.png","I_Dist_300_LN_4_LD_20_RN_2_RD_4_1.png"]],"dist300_S":[["E_Dist_300_LN_9_LD_12_RN_9_RD_20_0.png"],["E_Dist_300_LN_18_LD_30_RN_18_RD_20_1.png","E_Dist_300_LN_3_LD_10_RN_3_RD_5_1.png","E_Dist_300_LN_9_LD_20_RN_9_RD_12_1.png"]],"dist500_C":[["C_Dist_500_LN_10_LD_13_RN_7_RD_26_0.png","C_Dist_500_LN_10_LD_15_RN_4_RD_24_0.png","C_Dist_500_LN_12_LD_16_RN_3_RD_12_0.png","C_Dist_500_LN_12_LD_18_RN_4_RD_24_0.png","C_Dist_500_LN_15_LD_18_RN_5_RD_15_0.png","C_Dist_500_LN_15_LD_20_RN_1_RD_4_0.png","C_Dist_500_LN_18_LD_27_RN_1_RD_6_0.png","C_Dist_500_LN_20_LD_24_RN_1_RD_3_0.png","C_Dist_500_LN_20_LD_24_RN_3_RD_9_0.png","C_Dist_500_LN_20_LD_24_RN_7_RD_21_0.png","C_Dist_500_LN_20_LD_28_RN_3_RD_14_0.png","C_Dist_500_LN_21_LD_28_RN_6_RD_24_0.png","C_Dist_500_LN_22_LD_28_RN_2_RD_7_0.png","C_Dist_500_LN_25_LD_30_RN_9_RD_27_0.png","C_Dist_500_LN_4_LD_6_RN_1_RD_6_0.png","C_Dist_500_LN_5_LD_6_RN_2_RD_6_0.png","C_Dist_500_LN_6_LD_9_RN_1_RD_6_0.png","C_Dist_500_LN_7_LD_10_RN_1_RD_5_0.png","C_Dist_500_LN_8_LD_12_RN_1_RD_6_0.png","C_Dist_500_LN_8_LD_12_RN_4_RD_24_0.png"],["C_Dist_500_LN_1_LD_4_RN_12_RD_16_1.png","C_Dist_500_LN_1_LD_4_RN_9_RD_12_1.png","C_Dist_500_LN_1_LD_9_RN_11_RD_18_1.png","C_Dist_500_LN_10_LD_24_RN_22_RD_24_1.png","C_Dist_500_LN_2_LD_12_RN_10_RD_15_1.png","C_Dist_500_LN_2_LD_12_RN_12_RD_18_1.png","C_Dist_500_LN_2_LD_12_RN_4_RD_6_1.png","C_Dist_500_LN_2_LD_24_RN_7_RD_12_1.png","C_Dist_500_LN_2_LD_5_RN_18_RD_20_1.png","C_Dist_500_LN_2_LD_5_RN_9_RD_10_1.png","C_Dist_500_LN_2_LD_8_RN_12_RD_16_1.png","C_Dist_500_LN_2_LD_8_RN_21_RD_28_1.png","C_Dist_500_LN_3_LD_10_RN_4_RD_5_1.png","C_Dist_500_LN_3_LD_12_RN_15_RD_20_1.png","C_Dist_500_LN_3_LD_30_RN_6_RD_10_1.png","C_Dist_500_LN_3_LD_8_RN_14_RD_16_1.png","C_Dist_500_LN_4_LD_16_RN_15_RD_20_1.png","C_Dist_500_LN_4_LD_24_RN_12_RD_18_1.png","C_Dist_500_LN_5_LD_14_RN_6_RD_7_1.png","C_Dist_500_LN_7_LD_21_RN_20_RD_24_1.png","C_Dist_500_LN_7_LD_28_RN_12_RD_16_1.png","C_Dist_500_LN_7_LD_28_RN_9_RD_12_1.png","C_Dist_500_LN_9_LD_27_RN_20_RD_24_1.png"]],"dist500_I":[["I_Dist_500_LN_2_LD_3_RN_4_RD_24_0.png","I_Dist_500_LN_5_LD_6_RN_6_RD_18_0.png","I_Dist_500_LN_7_LD_8_RN_9_RD_24_0.png"],["I_Dist_500_LN_7_LD_21_RN_5_RD_6_1.png"]],"dist500_S":[["E_Dist_500_LN_6_LD_8_RN_6_RD_24_0.png"],["E_Dist_500_LN_2_LD_12_RN_2_RD_3_1.png","E_Dist_500_LN_6_LD_24_RN_6_RD_8_1.png"]]}},{"start_time":1552054120839,"click_time":1552054125047,"finger_time":1552054123688,"fix_duration":250,"trial":1,"RT":2849,"MT":1359,"sideResp":1,"stimulus":[],"xmouse":[771,771,771,771,771,771,771,771,771,771,771,771,771,771,771,771,771,771,771,771,771,771,771,771,771,771,771,771,771,771,771,771,771,771,771,771,771,771,771,771,771,771,771,771,771,771,771,771,771,771,771,771,771,771,771,771,771,771,771,771,771,771,771,771,771,771,771,771,771,771,771,771,771,771,771,771,771,771,771,771,771,771,771,771,771,771,771,771,771,771,771,771,771,771,771,771,771,771,771,771,771,771,771,771,771,771,771,771,771,771,771,771,771,771,771,771,771,771,771,771,771,771,771,771,771,771,771,771,771,771,771,771,771,771,771,771,771,771,771,777,779,791,805,816,817,817,819,820,821,821,821,821,821,821,821,821,821,821,821,821,821,815,809,801,796,794,791,789,783,771,749,711,689,669,667,667,667,667,666,664,659,657,654,642,628,616,614,614,602,564,544,535,533,533,531,525,514,497,469,469,469,469,469,469,469,469,469,469,469,468],"ymouse":[606,606,606,606,606,606,606,606,606,606,606,606,606,606,606,606,606,606,606,606,606,606,606,606,606,606,606,606,606,606,606,606,606,606,606,606,606,606,606,606,606,606,606,606,606,606,606,606,606,606,606,606,606,606,606,606,606,606,606,606,606,606,606,606,606,606,606,606,606,606,606,606,606,606,606,606,606,606,606,606,606,606,606,606,606,606,606,606,606,606,606,606,606,606,606,606,606,606,606,606,606,606,606,606,606,606,606,606,606,606,606,606,606,606,606,606,606,606,606,606,606,606,606,606,606,606,606,606,606,606,606,606,606,606,606,606,606,606,606,592,584,553,532,518,518,517,516,515,513,513,513,513,513,513,513,513,513,513,513,513,513,512,512,514,516,517,518,518,515,493,460,423,409,400,399,399,399,399,398,394,384,378,367,343,331,323,321,321,302,231,211,204,203,202,200,193,182,169,149,147,145,140,136,130,126,123,118,113,102,92],"timestamp_mouse":[21,51,68,88,108,128,148,168,189,210,228,248,269,288,309,329,350,368,388,408,429,448,468,488,508,528,548,569,589,609,629,649,669,688,709,729,749,769,789,809,829,849,869,890,908,929,949,968,988,1010,1029,1049,1068,1088,1109,1129,1149,1169,1189,1208,1229,1248,1268,1289,1309,1328,1348,1369,1388,1408,1429,1449,1469,1488,1508,1529,1548,1568,1589,1609,1629,1648,1669,1689,1708,1728,1749,1769,1788,1809,1828,1849,1868,1889,1909,1929,1948,1969,1988,2009,2028,2048,2069,2088,2110,2129,2148,2169,2188,2208,2229,2248,2268,2289,2309,2329,2349,2369,2389,2408,2428,2449,2469,2488,2508,2528,2548,2569,2589,2609,2628,2649,2668,2688,2708,2728,2749,2768,2789,2809,2829,2849,2868,2888,2908,2929,2948,2969,2989,3009,3029,3049,3068,3088,3108,3129,3148,3168,3188,3209,3228,3248,3268,3288,3308,3329,3348,3369,3388,3408,3428,3449,3469,3488,3509,3529,3548,3569,3588,3608,3628,3648,3668,3689,3709,3728,3748,3768,3788,3808,3828,3849,3868,3889,3908,3928,3948,3968,3989,4008,4028,4048,4069,4088,4108,4129,4148,4170,4188,4208],"xSR":741.5,"ySR":573.95,"xT1":424.9,"yT1":0,"xT2":1058.1,"yT2":0,"toosoon":0,"cond_shown":"Incongruent","ratio_trial":100,"L_num":2,"L_den":4,"R_num":6,"R_den":15,"correct_side":1,"subjID":"sergiomonroy8","gender":"0","school":"4","age":"9"},{"start_time":1552054128961,"click_time":1552054132647,"finger_time":1552054131227,"fix_duration":551.1061657430001,"trial":2,"RT":2266,"MT":1420,"sideResp":2,"stimulus":[],"xmouse":[785,785,785,785,785,785,785,785,785,785,785,785,785,785,785,785,785,785,785,785,785,785,785,785,785,785,785,785,785,785,785,785,785,785,785,785,785,785,785,785,785,785,785,785,785,785,785,785,785,785,785,785,785,785,785,785,785,785,785,785,785,785,785,785,785,785,785,786,789,790,791,792,793,793,793,793,793,793,793,793,793,793,793,793,793,793,793,793,793,793,793,793,793,793,793,793,793,793,793,793,793,793,793,793,793,793,793,793,793,793,793,794,795,795,795,795,795,795,795,795,795,795,795,795,795,795,795,795,795,795,795,795,795,795,795,795,795,795,795,795,795,795,795,795,795,795,795,795,795,795,795,795,795,795,798,799,799,799,798,798,798,798,802,820,894,929,952,969,986,1006,1009,1011,1013,1015,1018,1021,1025,1029,1031,1036,1040,1051,1062,1075,1099],"ymouse":[602,602,602,602,602,602,602,602,602,602,602,602,602,602,602,602,602,602,602,602,602,602,602,602,602,602,602,602,602,602,602,602,602,602,602,602,602,602,602,602,602,602,602,602,602,602,602,602,602,602,602,602,602,602,602,602,602,602,602,602,602,602,602,602,602,602,601,600,596,593,591,589,588,587,587,587,587,587,587,587,587,587,587,587,587,587,587,587,587,587,587,587,587,587,587,587,587,587,587,587,587,587,587,587,587,587,587,587,587,587,585,582,574,570,568,568,567,567,567,567,567,567,567,567,567,567,567,567,567,567,567,567,567,567,567,567,567,567,567,567,567,567,567,567,567,567,567,567,567,567,567,567,567,567,569,570,573,575,577,578,578,558,534,479,329,263,232,214,203,187,184,182,180,179,176,173,171,169,167,163,160,150,140,125,91],"timestamp_mouse":[12,43,46,67,86,106,127,147,166,187,206,227,248,267,287,306,326,347,367,386,407,426,447,466,486,506,527,547,567,588,607,627,647,666,686,706,727,747,766,787,806,826,847,866,886,907,926,947,967,988,1007,1026,1046,1067,1086,1107,1126,1147,1167,1187,1206,1228,1246,1267,1287,1307,1327,1346,1367,1386,1407,1426,1446,1467,1487,1506,1527,1547,1567,1587,1607,1626,1647,1668,1687,1706,1727,1746,1768,1786,1807,1827,1846,1867,1886,1908,1927,1947,1967,1987,2006,2027,2047,2066,2087,2107,2127,2147,2167,2187,2207,2226,2247,2266,2287,2306,2326,2346,2367,2386,2407,2426,2446,2466,2487,2507,2526,2546,2567,2586,2607,2626,2646,2666,2686,2707,2727,2746,2768,2786,2807,2827,2847,2867,2887,2906,2927,2947,2967,2987,3007,3027,3048,3067,3088,3107,3126,3147,3166,3186,3208,3226,3246,3267,3287,3306,3326,3347,3367,3386,3407,3427,3446,3466,3486,3506,3527,3546,3566,3587,3608,3627,3647,3666,3686],"xSR":741.5,"ySR":573.95,"xT1":424.9,"yT1":0,"xT2":1058.1,"yT2":0,"toosoon":0,"cond_shown":"Incongruent","ratio_trial":200,"L_num":4,"L_den":30,"R_num":1,"R_den":3,"correct_side":2,"subjID":"sergiomonroy8","gender":"0","school":"4","age":"9"},{"start_time":1552054137914,"click_time":1552054140808,"finger_time":1552054140007,"fix_duration":1165.4042824966073,"trial":3,"RT":2093,"MT":801,"sideResp":1,"stimulus":[],"xmouse":[760,760,760,760,760,760,760,760,760,760,760,760,760,760,760,760,760,760,760,760,760,760,760,760,760,760,760,760,760,760,760,760,760,760,760,760,760,760,760,760,760,760,760,760,760,760,760,760,760,760,760,760,760,760,760,760,760,760,760,760,760,760,760,760,760,760,760,760,760,760,760,760,760,760,760,760,760,760,760,760,760,760,760,760,760,760,760,760,760,760,760,760,760,760,760,760,760,760,760,760,760,760,757,746,731,711,683,604,564,539,512,508,495,492,491,487,472,463,450,440,426,417,386,359,327,301,288,286,293,310,319,323,324,324,327,339,354,374,378,378,378,378,382,401,426],"ymouse":[663,663,663,663,663,663,663,663,663,663,640,615,614,614,614,614,614,614,614,614,614,614,614,614,614,614,614,614,614,614,614,614,614,614,614,614,614,614,614,614,614,614,614,614,614,614,614,614,614,614,614,614,614,614,614,614,614,614,614,614,614,614,614,614,614,614,614,614,614,614,614,614,614,614,614,614,614,614,614,614,614,614,614,614,614,614,614,614,614,614,614,614,614,614,614,614,614,614,614,614,614,614,610,601,587,567,534,419,354,305,258,249,225,222,220,214,188,172,157,147,138,134,124,119,115,108,102,100,98,96,95,94,94,94,94,93,91,88,87,87,87,87,86,84,80],"timestamp_mouse":[13,36,53,74,94,113,134,153,173,193,213,234,254,273,295,313,333,353,373,395,414,435,454,474,493,515,534,554,574,594,613,633,653,674,694,714,735,754,774,793,813,834,855,874,893,913,935,954,974,994,1014,1035,1055,1073,1093,1115,1134,1155,1174,1194,1215,1234,1253,1273,1293,1314,1333,1355,1373,1393,1413,1433,1453,1473,1493,1513,1533,1553,1573,1593,1613,1633,1653,1673,1693,1713,1734,1755,1774,1793,1813,1834,1855,1874,1894,1915,1934,1954,1973,1995,2015,2034,2053,2073,2093,2113,2133,2153,2174,2194,2214,2233,2254,2273,2294,2313,2334,2354,2373,2393,2414,2433,2455,2474,2494,2513,2533,2553,2573,2593,2614,2635,2655,2673,2694,2713,2734,2754,2773,2793,2814,2833,2854,2873,2893],"xSR":741.5,"ySR":573.95,"xT1":424.9,"yT1":0,"xT2":1058.1,"yT2":0,"toosoon":0,"cond_shown":"Incongruent","ratio_trial":300,"L_num":8,"L_den":10,"R_num":14,"R_den":28,"correct_side":1,"subjID":"sergiomonroy8","gender":"0","school":"4","age":"9"},{"start_time":1552054145880,"click_time":1552054147807,"finger_time":1552054147427,"fix_duration":250,"trial":4,"RT":1547,"MT":380,"sideResp":2,"stimulus":[],"xmouse":[820,820,820,820,820,820,820,820,820,820,820,820,820,820,820,820,820,820,820,820,820,820,820,820,820,820,820,820,820,820,820,820,820,820,820,820,820,820,820,820,820,820,820,820,820,820,820,820,820,820,820,820,820,820,820,820,820,820,820,820,820,820,820,820,820,821,826,829,830,830,831,831,831,832,832,835,839,846,863,897,956,969,981,996,1010,1034,1047,1053,1059,1064,1076,1081,1085,1087,1091,1095,1096],"ymouse":[625,625,625,625,625,625,625,625,625,625,625,625,625,625,625,625,625,625,625,625,625,625,625,625,625,625,625,625,625,625,625,625,625,625,625,625,625,625,625,625,625,625,625,625,625,625,625,625,625,625,625,625,625,625,625,625,625,625,625,625,625,625,625,625,624,624,621,618,618,617,617,616,616,615,614,609,602,593,577,547,499,479,456,420,368,298,275,267,256,245,211,191,171,151,129,100,92],"timestamp_mouse":[13,39,48,69,87,107,127,147,168,189,209,228,248,267,289,307,328,347,368,387,409,427,447,468,488,507,528,549,568,587,608,627,648,668,687,707,728,748,768,787,808,827,848,868,887,908,927,949,968,988,1007,1029,1048,1068,1089,1108,1128,1148,1168,1188,1208,1228,1248,1269,1288,1307,1327,1348,1368,1387,1409,1428,1448,1467,1488,1507,1528,1547,1568,1587,1607,1627,1647,1667,1688,1708,1727,1747,1768,1787,1807,1827,1848,1867,1887,1908,1927],"xSR":741.5,"ySR":573.95,"xT1":424.9,"yT1":0,"xT2":1058.1,"yT2":0,"toosoon":0,"cond_shown":"Incongruent","ratio_trial":300,"L_num":13,"L_den":26,"R_num":12,"R_den":15,"correct_side":2,"subjID":"sergiomonroy8","gender":"0","school":"4","age":"9"},{"start_time":1552054149085,"click_time":1552054152809,"finger_time":1552054150647,"fix_duration":274.1097688555399,"trial":5,"RT":1562,"MT":2162,"sideResp":1,"stimulus":[],"xmouse":[788,788,788,788,788,788,788,788,788,788,788,788,788,788,788,788,788,788,788,788,788,788,788,788,788,788,788,788,788,788,788,788,788,788,788,788,788,788,788,788,788,788,788,788,788,788,788,788,788,788,788,788,788,788,788,788,788,788,788,788,788,788,788,788,788,788,788,788,788,789,790,790,790,790,791,795,805,813,821,832,841,854,859,864,875,886,892,894,896,897,897,897,897,897,897,897,897,897,897,897,897,897,897,897,897,897,897,898,898,898,898,898,898,898,898,898,898,898,898,898,898,898,898,898,898,898,898,898,898,898,898,898,898,898,898,898,893,886,877,865,853,841,838,834,826,769,493,346,246,198,182,180,181,182,183,183,185,186,187,189,192,204,217,220,232,240,250,255,261,265,272,289,307,316,336,342,348,354,363,372,377,379,379,380,380,387,425],"ymouse":[629,629,629,629,629,629,629,629,629,629,629,629,629,629,629,629,629,629,629,629,629,629,629,629,629,629,629,629,629,629,629,629,629,629,629,629,629,629,629,629,629,629,629,629,629,629,629,629,629,629,629,629,629,629,629,629,629,629,629,629,629,629,629,629,629,629,629,629,626,624,622,621,621,620,618,612,594,579,558,533,512,479,467,455,440,416,399,389,384,382,380,380,380,380,380,380,380,380,380,380,380,380,380,380,380,380,377,375,374,374,374,374,374,374,374,374,374,374,374,374,374,374,374,374,374,374,374,374,374,374,374,374,374,374,374,373,370,367,364,361,357,351,349,346,339,308,197,123,58,8,0,0,0,0,0,0,0,0,0,0,0,0,0,0,0,0,2,3,5,6,7,10,12,13,16,17,19,21,24,26,28,28,28,28,29,31,37],"timestamp_mouse":[13,38,42,63,82,104,123,142,162,184,202,223,244,264,283,303,322,342,363,383,404,424,444,463,483,502,524,544,563,582,602,623,643,664,684,704,722,743,762,784,802,822,843,863,882,903,923,942,962,983,1002,1023,1043,1062,1082,1102,1123,1144,1164,1182,1203,1222,1244,1263,1283,1303,1322,1342,1363,1382,1403,1422,1442,1463,1484,1503,1524,1542,1562,1583,1604,1622,1643,1663,1682,1703,1722,1742,1762,1782,1804,1822,1843,1862,1883,1902,1922,1943,1963,1983,2002,2023,2042,2062,2083,2102,2124,2143,2163,2182,2203,2222,2244,2262,2282,2303,2322,2342,2362,2383,2404,2423,2443,2463,2482,2503,2522,2543,2563,2583,2602,2623,2642,2662,2683,2702,2722,2742,2762,2782,2802,2822,2843,2863,2882,2902,2923,2942,2962,2982,3002,3022,3042,3063,3082,3103,3124,3143,3162,3182,3202,3223,3243,3263,3282,3302,3323,3342,3362,3382,3402,3424,3442,3463,3483,3502,3523,3543,3563,3583,3603,3623,3644,3663,3682,3702,3723],"xSR":741.5,"ySR":573.95,"xT1":424.9,"yT1":0,"xT2":1058.1,"yT2":0,"toosoon":0,"cond_shown":"Incongruent","ratio_trial":100,"L_num":6,"L_den":10,"R_num":7,"R_den":14,"correct_side":1,"subjID":"sergiomonroy8","gender":"0","school":"4","age":"9"},{"start_time":1552054156557,"click_time":1552054158509,"finger_time":1552054157808,"fix_duration":986.0806169014148,"trial":6,"RT":1251,"MT":701,"sideResp":2,"stimulus":[],"xmouse":[802,802,802,802,802,802,802,802,802,802,802,802,802,802,802,802,802,802,802,802,802,802,802,802,802,802,802,802,802,802,802,802,802,802,802,802,802,802,802,802,802,802,802,802,802,802,802,802,802,802,802,802,802,802,802,802,802,802,810,815,816,822,858,875,891,910,926,947,989,1010,1030,1045,1047,1048,1048,1049,1052,1052,1052,1052,1052,1052,1052,1052,1056,1058,1059,1059,1063,1063,1064,1065,1065,1066,1067,1069,1076,1078],"ymouse":[608,608,608,608,608,608,608,608,608,608,608,608,608,608,608,608,608,608,608,608,608,608,608,608,608,608,608,608,608,608,608,608,608,608,608,608,608,608,608,608,608,608,608,608,608,608,608,608,608,608,608,608,608,608,608,608,608,608,602,600,600,599,592,582,553,507,458,387,248,217,192,179,177,176,175,169,161,161,161,161,161,161,161,161,153,147,145,145,136,133,131,129,126,122,118,114,101,98],"timestamp_mouse":[13,34,50,70,90,110,132,152,171,191,210,231,251,271,291,310,331,352,371,391,410,431,451,470,491,512,530,550,570,592,611,632,651,671,690,711,732,750,770,791,810,830,850,871,890,910,930,951,970,991,1010,1032,1051,1071,1091,1112,1130,1150,1170,1191,1211,1230,1251,1270,1290,1310,1332,1351,1371,1390,1410,1431,1450,1470,1491,1511,1531,1551,1570,1590,1611,1631,1650,1670,1691,1710,1730,1752,1771,1790,1810,1830,1851,1870,1890,1910,1931,1952],"xSR":741.5,"ySR":573.95,"xT1":424.9,"yT1":0,"xT2":1058.1,"yT2":0,"toosoon":0,"cond_shown":"Incongruent","ratio_trial":300,"L_num":4,"L_den":20,"R_num":2,"R_den":4,"correct_side":2,"subjID":"sergiomonroy8","gender":"0","school":"4","age":"9"},{"start_time":1552054162541,"click_time":1552054165368,"finger_time":1552054163988,"fix_duration":250,"trial":7,"RT":1447,"MT":1380,"sideResp":1,"stimulus":[],"xmouse":[766,766,766,766,766,766,766,766,766,766,766,766,766,766,766,766,766,766,766,766,766,766,766,766,766,766,766,766,766,766,766,766,766,766,766,766,766,766,766,766,766,766,766,766,766,766,766,766,766,766,766,766,766,766,766,766,766,766,766,766,766,766,766,766,766,766,766,766,766,766,765,752,739,732,731,731,731,731,731,731,731,731,731,731,731,731,731,731,731,731,731,731,731,731,731,731,731,731,730,726,715,706,700,693,684,670,654,625,585,509,494,487,486,486,484,483,481,480,476,452,417,386,371,366,366,380,385,388,390,394,396,398,400,404,420,424,424,424,424,425,428,435],"ymouse":[652,652,652,652,652,652,652,652,652,652,652,652,652,652,652,652,652,652,652,652,652,652,652,652,652,652,652,652,652,652,652,652,652,652,652,652,652,652,652,652,652,652,652,652,652,652,652,652,652,652,652,652,652,652,652,652,652,652,652,652,652,652,652,652,652,652,652,652,652,652,644,631,620,616,615,615,615,615,615,615,615,615,615,615,615,615,615,615,615,615,615,615,615,615,615,615,615,615,608,598,561,540,527,516,505,493,486,478,468,437,418,407,407,407,405,402,398,397,389,330,271,227,206,194,188,157,145,137,134,127,126,124,123,122,115,112,112,112,112,112,104,91],"timestamp_mouse":[13,38,47,67,88,106,126,146,168,186,206,228,248,266,288,306,327,348,366,386,406,427,447,466,487,507,526,546,567,588,606,628,647,666,686,708,727,747,766,786,806,827,846,868,886,906,928,947,966,988,1006,1027,1048,1066,1087,1107,1128,1147,1166,1188,1207,1226,1247,1268,1287,1307,1327,1347,1366,1387,1406,1428,1447,1467,1487,1507,1526,1547,1567,1587,1607,1627,1646,1668,1687,1707,1726,1747,1767,1786,1808,1827,1848,1867,1887,1906,1927,1947,1966,1986,2006,2026,2046,2066,2086,2106,2127,2146,2167,2186,2206,2226,2246,2267,2287,2308,2327,2347,2366,2386,2406,2426,2446,2466,2487,2506,2527,2547,2567,2586,2606,2627,2647,2666,2687,2707,2726,2747,2767,2787,2806,2826],"xSR":741.5,"ySR":573.95,"xT1":424.9,"yT1":0,"xT2":1058.1,"yT2":0,"toosoon":0,"cond_shown":"Incongruent","ratio_trial":300,"L_num":8,"L_den":10,"R_num":14,"R_den":28,"correct_side":1,"subjID":"sergiomonroy8","gender":"0","school":"4","age":"9"},{"start_time":1552054169608,"click_time":1552054171527,"finger_time":1552054170568,"fix_duration":1459.5770761886042,"trial":8,"RT":960,"MT":959,"sideResp":1,"stimulus":[],"xmouse":[819,819,819,819,819,819,819,819,819,819,819,819,819,819,819,819,819,819,819,819,819,819,819,819,819,819,819,819,819,819,819,819,819,819,819,819,819,819,819,819,819,819,819,819,819,819,819,818,799,793,776,762,723,701,685,685,685,681,648,640,640,640,640,640,640,640,640,640,640,620,572,544,521,516,515,514,508,501,501,501,501,501,501,501,501,501,501,501,501,501,499,499,496,493,492,491,490],"ymouse":[620,620,620,620,620,620,620,620,620,620,620,620,620,620,620,620,620,620,620,620,620,620,620,620,620,620,620,620,620,620,620,620,620,620,620,620,620,620,620,620,620,620,620,620,620,620,620,618,541,517,467,432,368,339,322,321,321,311,259,253,253,253,253,253,253,253,253,253,253,238,213,196,180,167,167,164,159,151,149,149,149,148,144,144,143,143,142,142,140,137,132,127,117,110,105,101,92],"timestamp_mouse":[1,19,40,61,80,99,119,139,159,179,199,219,240,260,280,301,319,341,361,381,399,419,439,461,480,500,520,540,561,580,600,619,639,659,679,699,721,740,759,781,799,819,841,859,879,899,921,939,960,980,1000,1019,1039,1059,1080,1099,1119,1139,1159,1180,1200,1219,1240,1260,1280,1300,1321,1340,1360,1379,1400,1419,1439,1460,1479,1499,1521,1539,1560,1579,1599,1619,1639,1660,1680,1699,1720,1739,1760,1779,1799,1819,1840,1859,1880,1900,1919],"xSR":741.5,"ySR":573.95,"xT1":424.9,"yT1":0,"xT2":1058.1,"yT2":0,"toosoon":0,"cond_shown":"Incongruent","ratio_trial":300,"L_num":4,"L_den":5,"R_num":6,"R_den":12,"correct_side":1,"subjID":"sergiomonroy8","gender":"0","school":"4","age":"9"},{"start_time":1552054175133,"click_time":1552054176467,"finger_time":1552054176348,"fix_duration":1024.3212593590665,"trial":9,"RT":1215,"MT":119,"sideResp":2,"stimulus":[],"xmouse":[793,793,793,793,793,793,793,793,794,794,794,794,794,794,794,794,794,794,794,794,794,794,794,794,794,794,794,794,794,794,794,794,794,794,794,794,794,794,794,794,794,794,794,794,794,794,794,794,794,794,794,794,794,794,794,794,794,794,794,796,822,852,884,924,969,1052,1083],"ymouse":[579,579,579,579,579,579,579,579,579,579,579,579,579,579,579,579,579,579,579,579,579,579,579,579,579,579,579,579,579,579,579,579,579,579,579,579,579,579,579,579,579,579,579,579,579,579,579,579,579,579,579,579,579,579,579,579,579,579,579,578,535,489,433,376,298,107,29],"timestamp_mouse":[18,43,54,75,96,116,135,155,175,194,214,234,255,276,295,314,335,354,376,394,414,434,454,474,496,515,534,555,575,595,616,636,655,675,694,715,734,755,775,807,816,835,854,876,895,915,934,955,974,995,1014,1034,1054,1075,1095,1116,1135,1156,1175,1195,1215,1234,1254,1275,1294,1315,1334],"xSR":741.5,"ySR":573.95,"xT1":424.9,"yT1":0,"xT2":1058.1,"yT2":0,"toosoon":0,"cond_shown":"Congruent","ratio_trial":200,"L_num":1,"L_den":2,"R_num":21,"R_den":30,"correct_side":2,"subjID":"sergiomonroy8","gender":"0","school":"4","age":"9"},{"start_time":1552054180280,"click_time":1552054183227,"finger_time":1552054181488,"fix_duration":250,"trial":10,"RT":1208,"MT":1739,"sideResp":2,"stimulus":[],"xmouse":[766,766,766,766,766,766,766,766,766,766,766,766,766,766,766,766,766,766,766,766,766,766,766,766,766,766,766,766,766,766,766,766,766,766,766,766,766,766,766,766,766,766,766,766,766,766,766,766,766,767,768,768,769,770,771,771,772,772,772,778,789,795,798,798,798,800,803,805,805,806,806,806,806,806,806,806,806,806,806,806,806,806,806,806,806,806,806,806,769,700,694,693,690,681,651,635,623,616,612,609,607,607,607,607,607,607,608,612,636,710,747,770,797,826,898,937,965,990,1011,1036,1048,1064,1102,1158,1221,1289,1289,1289,1289,1279,1261,1248,1238,1233,1233,1231,1231,1230,1228,1222,1221,1220,1219,1217,1214,1190,1167,1135],"ymouse":[622,622,622,622,622,622,622,622,622,622,622,622,622,622,622,622,622,622,622,622,622,622,622,622,622,622,622,622,622,622,622,622,622,622,622,622,622,622,622,622,622,622,622,622,621,621,619,618,617,617,612,609,605,601,592,589,586,584,583,576,567,565,565,565,565,565,562,560,559,558,558,558,558,558,556,556,556,556,555,555,555,555,555,555,555,555,555,555,504,418,406,401,395,383,356,345,337,331,327,324,322,322,322,322,322,322,322,325,335,362,376,384,390,397,402,402,393,378,363,335,315,292,242,175,112,40,40,40,40,35,26,21,18,15,15,15,15,15,16,31,37,44,48,52,55,64,68,72],"timestamp_mouse":[13,33,48,67,87,107,127,148,168,187,207,228,247,269,288,308,327,349,368,388,408,427,448,467,489,507,528,547,569,589,608,628,648,668,688,708,727,748,768,788,808,829,847,867,888,907,928,948,969,988,1007,1027,1048,1067,1087,1107,1128,1147,1168,1187,1208,1228,1248,1267,1289,1307,1327,1347,1367,1387,1408,1428,1448,1467,1487,1507,1528,1547,1568,1588,1608,1628,1648,1667,1688,1707,1727,1748,1767,1788,1807,1828,1849,1868,1887,1907,1927,1947,1969,1988,2007,2027,2047,2068,2088,2108,2127,2148,2168,2187,2207,2228,2248,2267,2288,2308,2328,2347,2368,2388,2408,2427,2447,2468,2487,2507,2527,2549,2568,2588,2608,2628,2648,2667,2687,2707,2729,2747,2767,2788,2807,2827,2847,2868,2887,2907,2927,2947],"xSR":741.5,"ySR":573.95,"xT1":424.9,"yT1":0,"xT2":1058.1,"yT2":0,"toosoon":0,"cond_shown":"Congruent","ratio_trial":200,"L_num":9,"L_den":30,"R_num":13,"R_den":26,"correct_side":2,"subjID":"sergiomonroy8","gender":"0","school":"4","age":"9"},{"start_time":1552054187286,"click_time":1552054189088,"finger_time":1552054188507,"fix_duration":636.623709210496,"trial":11,"RT":1221,"MT":581,"sideResp":1,"stimulus":[],"xmouse":[755,755,755,755,755,755,755,755,755,755,755,755,755,755,755,755,755,755,755,755,755,755,755,755,755,755,755,755,755,755,755,755,755,755,755,755,755,755,755,755,755,755,755,755,755,755,755,755,755,755,755,755,756,756,756,756,755,753,750,747,742,738,733,726,712,681,651,641,614,605,599,597,595,586,575,518,511,507,506,506,506,506,506,506,503,499,496,492,489,487,482],"ymouse":[637,637,637,637,637,637,637,637,637,637,637,637,637,637,637,637,637,637,637,637,637,637,637,637,637,637,637,637,637,637,637,637,637,637,637,637,637,637,637,637,637,637,637,637,637,637,637,637,637,637,637,637,635,632,630,625,621,617,610,604,592,583,572,554,530,479,443,435,415,408,404,402,398,386,366,260,241,230,225,217,190,179,170,162,155,144,137,123,114,109,99],"timestamp_mouse":[11,38,42,62,83,103,122,141,161,181,201,222,243,261,282,302,322,343,363,381,401,421,442,462,483,502,521,542,563,581,601,621,642,662,681,701,721,742,762,782,801,821,841,862,882,902,923,941,962,981,1001,1022,1042,1061,1081,1101,1121,1141,1163,1182,1202,1221,1242,1261,1281,1301,1321,1341,1361,1382,1401,1422,1442,1461,1481,1501,1523,1542,1562,1582,1603,1621,1641,1661,1682,1702,1722,1742,1761,1782,1802],"xSR":741.5,"ySR":573.95,"xT1":424.9,"yT1":0,"xT2":1058.1,"yT2":0,"toosoon":0,"cond_shown":"Congruent","ratio_trial":200,"L_num":20,"L_den":25,"R_num":9,"R_den":15,"correct_side":1,"subjID":"sergiomonroy8","gender":"0","school":"4","age":"9"},{"start_time":1552054192371,"click_time":1552054194248,"finger_time":1552054193607,"fix_duration":501.9616769979206,"trial":12,"RT":1236,"MT":641,"sideResp":2,"stimulus":[],"xmouse":[822,822,822,822,822,822,822,822,822,822,822,822,822,822,822,822,822,822,822,822,822,822,822,822,822,822,822,822,822,822,822,822,822,822,822,822,822,822,822,822,822,822,822,822,822,822,822,822,822,822,822,822,822,822,823,825,828,830,831,833,835,842,844,847,852,866,872,874,876,880,886,897,904,910,916,925,926,927,927,928,935,942,948,952,960,975,983,991,1004,1026,1049,1053,1055,1059],"ymouse":[643,643,643,643,643,643,643,643,643,643,643,643,643,643,643,643,643,643,643,643,643,643,643,643,643,643,643,643,643,643,643,643,643,643,643,643,643,643,643,643,643,643,643,643,643,643,643,643,643,643,643,643,643,643,641,630,620,614,606,599,591,569,560,552,542,522,513,504,492,472,424,351,299,256,227,199,196,194,193,192,181,173,167,163,156,144,139,132,125,114,99,95,92,86],"timestamp_mouse":[16,37,57,77,98,117,138,157,176,198,218,237,258,278,297,317,336,356,378,397,418,436,456,477,497,516,538,558,578,597,617,636,657,676,698,716,738,757,777,798,817,836,858,876,896,918,938,957,977,996,1017,1037,1057,1078,1096,1117,1136,1157,1178,1196,1216,1236,1257,1277,1296,1316,1336,1358,1376,1396,1417,1436,1457,1476,1497,1517,1536,1556,1577,1597,1617,1637,1657,1677,1697,1717,1736,1757,1776,1797,1817,1836,1857,1877],"xSR":741.5,"ySR":573.95,"xT1":424.9,"yT1":0,"xT2":1058.1,"yT2":0,"toosoon":0,"cond_shown":"Congruent","ratio_trial":100,"L_num":1,"L_den":2,"R_num":18,"R_den":30,"correct_side":2,"subjID":"sergiomonroy8","gender":"0","school":"4","age":"9"},{"start_time":1552054197426,"click_time":1552054199308,"finger_time":1552054198769,"fix_duration":856.3100103019557,"trial":13,"RT":1343,"MT":539,"sideResp":2,"stimulus":[],"xmouse":[761,761,761,761,761,761,761,761,761,761,761,761,761,761,761,761,761,761,761,761,761,761,761,761,761,761,761,761,761,761,761,761,761,761,761,761,761,761,761,761,761,761,761,761,761,761,761,761,761,761,761,761,761,761,761,761,761,761,762,762,762,762,763,763,764,765,765,768,773,783,786,792,796,799,802,802,784,771,769,781,815,851,892,926,963,975,998,1025,1067,1099,1113,1113,1113,1114,1118],"ymouse":[581,581,581,581,581,581,581,581,581,581,581,581,581,581,581,581,581,581,581,581,581,581,581,581,581,581,581,581,581,581,581,581,581,581,581,581,581,581,581,581,581,581,581,581,581,581,581,581,581,581,581,581,581,581,581,581,581,581,580,580,579,579,578,578,577,575,574,567,560,542,533,518,505,493,462,435,338,274,225,142,93,58,33,18,3,0,0,0,0,0,0,0,0,0,4],"timestamp_mouse":[10,38,43,63,81,101,123,143,162,183,201,222,242,262,282,301,321,343,362,383,402,422,442,461,482,502,522,542,562,582,601,622,642,663,681,703,722,743,761,783,802,822,842,861,883,901,922,942,962,983,1001,1022,1042,1061,1082,1101,1121,1143,1162,1181,1203,1223,1241,1262,1281,1302,1323,1343,1361,1381,1401,1422,1442,1462,1481,1502,1522,1542,1561,1581,1601,1621,1641,1662,1683,1702,1721,1741,1762,1782,1802,1822,1842,1863,1882],"xSR":741.5,"ySR":573.95,"xT1":424.9,"yT1":0,"xT2":1058.1,"yT2":0,"toosoon":0,"cond_shown":"Congruent","ratio_trial":100,"L_num":7,"L_den":14,"R_num":15,"R_den":25,"correct_side":2,"subjID":"sergiomonroy8","gender":"0","school":"4","age":"9"},{"start_time":1552054203051,"click_time":1552054204927,"finger_time":1552054204628,"fix_duration":441.9087948527657,"trial":14,"RT":1577,"MT":299,"sideResp":1,"stimulus":[],"xmouse":[759,759,759,759,759,759,759,759,759,759,759,759,759,759,759,759,759,759,760,760,761,766,770,770,770,770,770,772,773,777,783,796,797,797,797,797,797,797,797,797,797,797,797,796,796,796,796,796,796,796,796,796,796,796,796,796,796,796,796,796,796,796,796,796,796,796,796,796,796,796,796,795,794,793,791,785,772,759,731,712,696,681,676,668,663,655,642,635,628,624,618,599,577,514],"ymouse":[613,613,613,613,613,613,613,613,613,613,613,613,613,613,613,613,613,613,614,614,614,613,611,611,611,611,611,610,609,609,610,621,621,621,621,621,621,621,621,621,621,621,621,622,622,622,622,622,622,622,622,622,622,622,622,622,622,622,622,622,622,622,622,622,622,622,622,622,622,622,622,621,620,619,617,612,601,590,549,515,475,428,404,355,326,266,222,190,155,147,139,125,113,78],"timestamp_mouse":[17,38,56,77,98,116,137,158,177,196,216,237,257,278,297,316,336,358,378,397,416,437,458,477,497,516,537,557,576,597,616,636,656,677,698,718,738,757,777,798,818,836,856,877,896,917,937,957,977,997,1017,1038,1058,1077,1097,1118,1136,1156,1176,1196,1217,1237,1256,1277,1298,1317,1337,1356,1377,1398,1418,1437,1457,1476,1496,1517,1536,1557,1577,1598,1618,1638,1657,1678,1697,1717,1736,1757,1776,1798,1817,1836,1856,1876],"xSR":741.5,"ySR":573.95,"xT1":424.9,"yT1":0,"xT2":1058.1,"yT2":0,"toosoon":0,"cond_shown":"Incongruent","ratio_trial":200,"L_num":4,"L_den":6,"R_num":14,"R_den":30,"correct_side":1,"subjID":"sergiomonroy8","gender":"0","school":"4","age":"9"},{"start_time":1552054206721,"click_time":1552054208287,"finger_time":1552054207488,"fix_duration":592.780160888595,"trial":15,"RT":767,"MT":799,"sideResp":1,"stimulus":[],"xmouse":[801,801,801,801,801,801,801,801,801,801,801,801,801,801,801,801,801,801,801,801,801,801,801,801,801,801,801,801,801,801,801,801,801,801,801,801,801,799,797,797,783,771,756,743,729,705,691,684,677,672,666,663,658,652,642,604,598,591,588,586,584,580,573,566,560,553,551,549,547,545,542,539,535,531,531,528,526,525,523],"ymouse":[625,625,625,625,625,625,625,625,625,625,625,625,625,625,625,625,625,625,625,625,625,625,625,625,625,625,625,625,625,625,625,625,625,625,625,625,615,588,554,505,416,380,345,320,299,268,249,240,233,227,222,220,217,213,206,186,181,175,170,164,153,143,131,121,114,106,104,100,98,96,93,90,85,81,80,77,74,72,70],"timestamp_mouse":[8,28,46,66,88,107,126,146,168,188,207,226,246,267,288,307,327,347,366,387,407,427,447,467,488,507,527,547,566,587,608,628,647,666,686,707,727,746,767,787,806,826,847,867,887,907,927,947,967,986,1007,1026,1046,1066,1087,1107,1128,1147,1167,1187,1206,1227,1247,1268,1286,1307,1328,1347,1366,1387,1406,1426,1447,1466,1486,1507,1527,1546,1566],"xSR":741.5,"ySR":573.95,"xT1":424.9,"yT1":0,"xT2":1058.1,"yT2":0,"toosoon":0,"cond_shown":"Incongruent","ratio_trial":200,"L_num":4,"L_den":6,"R_num":14,"R_den":30,"correct_side":1,"subjID":"sergiomonroy8","gender":"0","school":"4","age":"9"},{"start_time":1552054211407,"click_time":1552054213489,"finger_time":1552054213088,"fix_duration":1317.3791336797349,"trial":16,"RT":1681,"MT":401,"sideResp":1,"stimulus":[],"xmouse":[811,811,811,811,811,811,811,811,811,811,811,811,811,811,811,811,811,811,811,811,811,811,811,811,811,811,811,811,811,811,811,811,811,811,811,811,811,811,811,812,812,812,812,812,812,812,812,812,812,812,812,812,812,812,812,812,812,812,812,812,812,812,812,812,812,812,812,812,812,812,812,812,812,812,812,812,812,809,808,807,806,804,802,799,796,789,780,770,759,748,735,730,725,722,716,706,697,683,674,670,658,643,555,529,521],"ymouse":[620,620,620,620,620,620,620,620,620,620,620,620,620,620,620,620,620,620,620,620,620,620,620,620,620,620,620,620,620,620,620,620,620,620,620,620,618,617,617,616,615,615,615,614,614,614,614,614,614,614,614,614,614,614,614,614,614,614,614,614,614,614,614,614,614,614,614,614,613,613,612,612,612,612,612,612,609,602,598,595,590,587,582,575,567,554,538,486,428,390,359,348,335,331,324,318,314,308,302,299,278,255,118,79,61],"timestamp_mouse":[12,21,41,61,80,102,121,141,160,181,201,221,242,260,281,302,320,340,362,380,400,421,440,461,480,501,520,542,561,580,601,620,641,660,682,700,721,741,762,780,801,821,841,860,882,902,922,940,961,982,1000,1021,1040,1062,1081,1101,1120,1141,1161,1182,1200,1221,1242,1262,1280,1301,1320,1341,1362,1380,1400,1421,1440,1461,1481,1500,1521,1540,1560,1581,1600,1621,1642,1660,1681,1700,1720,1740,1762,1781,1801,1821,1840,1860,1881,1900,1921,1940,1961,1981,2000,2021,2041,2061,2082],"xSR":741.5,"ySR":573.95,"xT1":424.9,"yT1":0,"xT2":1058.1,"yT2":0,"toosoon":0,"cond_shown":"Congruent","ratio_trial":100,"L_num":8,"L_den":16,"R_num":2,"R_den":5,"correct_side":1,"subjID":"sergiomonroy8","gender":"0","school":"4","age":"9"},{"start_time":1552054215474,"click_time":1552054217688,"finger_time":1552054217008,"fix_duration":805.993122256675,"trial":17,"RT":1534,"MT":680,"sideResp":1,"stimulus":[],"xmouse":[787,787,787,787,787,787,787,787,787,784,780,776,775,774,774,774,774,774,774,774,774,774,774,774,774,774,774,774,774,774,774,774,774,774,774,774,774,774,774,774,774,774,774,774,773,770,767,762,759,759,759,759,759,759,759,759,759,759,759,759,759,759,759,759,759,759,759,759,759,759,759,759,759,758,754,749,742,737,723,713,702,693,685,671,658,650,640,630,610,603,587,575,565,546,537,532,532,531,530,530,530,530,530,530,530,530,530,530,530,528,523],"ymouse":[639,639,639,639,639,639,639,639,639,636,631,626,625,623,623,623,623,623,623,623,623,623,623,623,623,623,623,623,623,623,623,623,623,623,623,623,623,623,623,623,623,623,623,623,622,618,612,605,603,603,603,603,603,603,603,603,603,603,603,603,603,603,603,603,603,603,603,603,603,603,603,603,603,602,587,574,559,550,526,510,493,479,467,451,444,436,424,404,353,303,244,214,189,144,125,117,114,111,107,107,107,107,107,107,107,107,107,107,106,103,99],"timestamp_mouse":[13,38,53,73,93,115,133,153,174,193,214,233,254,273,293,315,333,353,373,393,413,435,455,475,494,514,534,553,575,594,614,634,653,673,693,714,733,754,775,794,814,834,854,874,894,913,934,954,974,994,1013,1034,1054,1074,1095,1115,1134,1153,1174,1194,1214,1235,1253,1275,1293,1314,1334,1353,1374,1395,1414,1434,1453,1474,1494,1513,1534,1555,1574,1593,1613,1633,1654,1674,1694,1714,1734,1754,1774,1793,1815,1833,1854,1874,1893,1914,1934,1953,1974,1993,2015,2034,2053,2074,2095,2115,2135,2155,2174,2193,2214],"xSR":741.5,"ySR":573.95,"xT1":424.9,"yT1":0,"xT2":1058.1,"yT2":0,"toosoon":0,"cond_shown":"Incongruent","ratio_trial":100,"L_num":2,"L_den":4,"R_num":8,"R_den":20,"correct_side":1,"subjID":"sergiomonroy8","gender":"0","school":"4","age":"9"},{"start_time":1552054219517,"click_time":1552054221428,"finger_time":1552054220708,"fix_duration":287.2008106292697,"trial":18,"RT":1191,"MT":720,"sideResp":1,"stimulus":[],"xmouse":[753,753,753,753,753,753,753,753,753,753,753,753,753,753,753,753,753,753,753,753,753,753,753,753,753,753,753,753,753,753,753,753,753,753,753,753,753,753,753,753,753,753,753,753,753,753,753,753,753,753,753,753,753,753,753,753,753,753,748,739,717,672,658,654,652,652,652,652,651,651,649,646,625,608,589,567,542,497,485,479,478,478,480,481,482,485,492,506,507,508,511,511,511,511,511,511],"ymouse":[614,614,614,614,614,614,614,614,614,614,614,614,614,614,614,614,614,614,614,614,614,614,614,614,614,614,614,614,614,614,614,614,614,614,614,614,614,614,614,614,614,614,614,614,614,614,614,614,614,614,614,614,614,614,614,614,614,614,609,598,563,490,471,461,459,458,458,458,457,457,455,452,436,424,409,389,361,265,224,201,177,167,157,155,152,149,144,133,132,129,121,118,111,106,101,95],"timestamp_mouse":[13,34,51,71,90,111,132,151,171,192,210,232,251,271,290,311,330,350,372,390,411,431,452,472,492,511,531,550,570,592,610,630,650,672,691,711,730,751,772,791,811,831,850,870,891,911,931,951,971,992,1011,1031,1052,1071,1091,1112,1130,1150,1172,1191,1211,1232,1250,1271,1290,1310,1331,1352,1370,1391,1411,1431,1451,1471,1492,1511,1531,1550,1570,1591,1612,1631,1650,1671,1690,1710,1731,1750,1771,1791,1810,1830,1850,1870,1892,1911],"xSR":741.5,"ySR":573.95,"xT1":424.9,"yT1":0,"xT2":1058.1,"yT2":0,"toosoon":0,"cond_shown":"Congruent","ratio_trial":300,"L_num":8,"L_den":16,"R_num":1,"R_den":5,"correct_side":1,"subjID":"sergiomonroy8","gender":"0","school":"4","age":"9"},{"start_time":1552054223484,"click_time":1552054226228,"finger_time":1552054225368,"fix_duration":1055.4456799351606,"trial":19,"RT":1884,"MT":860,"sideResp":2,"stimulus":[],"xmouse":[817,817,817,817,817,817,817,817,817,817,817,817,817,817,817,817,817,817,817,817,817,817,817,817,817,817,817,817,817,817,817,817,817,817,817,817,817,817,817,817,817,817,817,817,817,817,817,817,817,817,817,817,817,817,817,817,817,817,817,817,817,817,817,817,817,817,817,817,817,817,817,817,817,817,817,817,817,817,817,817,817,817,817,817,817,819,820,820,820,820,820,820,829,841,859,868,872,873,874,874,874,874,875,879,892,905,919,937,954,983,1001,1013,1019,1022,1026,1028,1029,1029,1029,1029,1028,1033,1034,1034,1034,1034,1034,1034,1035,1036,1037,1043,1054,1067,1069,1069,1068,1068],"ymouse":[605,605,605,605,605,605,605,605,605,605,605,605,605,605,605,605,605,605,605,605,605,605,605,605,605,605,605,605,605,605,605,605,605,605,605,605,605,605,605,605,605,605,605,605,605,605,605,605,605,605,605,605,605,605,605,605,605,605,605,605,605,605,605,605,605,605,605,605,605,605,605,605,605,605,605,605,605,605,605,605,605,606,607,607,608,609,609,609,609,609,609,609,601,583,550,533,521,507,493,468,450,439,428,414,383,365,347,330,317,298,286,279,275,272,265,261,254,245,234,223,193,171,164,160,159,159,159,159,158,156,155,153,151,146,143,138,117,89],"timestamp_mouse":[20,28,46,63,83,105,124,144,164,183,205,224,245,263,284,305,324,344,365,384,403,424,444,464,484,505,524,545,564,584,604,624,645,665,685,703,724,745,763,783,803,823,843,865,884,904,924,943,963,983,1005,1024,1043,1063,1084,1105,1125,1143,1163,1184,1205,1224,1245,1265,1284,1303,1324,1343,1363,1384,1404,1425,1445,1464,1483,1504,1523,1545,1564,1583,1604,1625,1643,1664,1683,1704,1725,1743,1764,1784,1804,1823,1844,1864,1884,1903,1924,1944,1965,1983,2004,2024,2043,2063,2084,2103,2123,2144,2164,2183,2203,2224,2243,2264,2283,2303,2325,2344,2363,2383,2404,2424,2445,2465,2484,2503,2523,2545,2565,2583,2603,2624,2644,2665,2684,2703,2724,2744],"xSR":741.5,"ySR":573.95,"xT1":424.9,"yT1":0,"xT2":1058.1,"yT2":0,"toosoon":0,"cond_shown":"Congruent","ratio_trial":200,"L_num":3,"L_den":10,"R_num":14,"R_den":28,"correct_side":2,"subjID":"sergiomonroy8","gender":"0","school":"4","age":"9"},{"start_time":1552054228898,"click_time":1552054230828,"finger_time":1552054230247,"fix_duration":389.6049461523631,"trial":20,"RT":1349,"MT":581,"sideResp":2,"stimulus":[],"xmouse":[818,818,818,818,818,818,818,818,818,818,818,818,818,818,818,818,818,818,818,818,818,818,818,818,818,818,818,818,818,818,818,816,816,816,816,816,816,816,816,816,816,816,816,816,816,816,817,818,818,819,819,819,819,819,819,819,819,819,819,819,819,819,819,819,819,821,825,840,859,917,932,940,948,954,968,975,987,991,1011,1039,1054,1064,1072,1079,1088,1091,1093,1093,1093,1093,1093,1093,1093,1093,1093,1093,1093],"ymouse":[593,593,593,593,593,593,593,593,593,593,593,593,593,593,593,593,593,593,593,593,593,593,593,593,593,593,593,593,593,593,593,595,595,595,595,595,595,595,595,595,595,595,595,595,595,596,597,597,597,597,597,597,597,597,597,597,597,597,597,597,597,597,597,597,597,597,594,572,546,469,443,429,414,401,367,350,324,314,284,251,235,221,205,191,155,137,124,114,107,105,105,105,105,105,103,101,99],"timestamp_mouse":[13,37,49,69,90,111,129,150,171,191,211,229,250,269,290,311,330,350,370,391,409,431,451,470,489,510,531,549,569,589,609,630,650,669,690,710,730,750,770,791,809,829,850,871,889,910,930,949,969,989,1011,1030,1049,1070,1090,1111,1130,1149,1170,1189,1209,1229,1251,1269,1290,1309,1330,1349,1370,1390,1409,1430,1449,1470,1489,1510,1530,1550,1569,1590,1610,1630,1650,1669,1689,1710,1730,1751,1769,1791,1810,1831,1850,1870,1889,1909,1930],"xSR":741.5,"ySR":573.95,"xT1":424.9,"yT1":0,"xT2":1058.1,"yT2":0,"toosoon":0,"cond_shown":"Incongruent","ratio_trial":200,"L_num":1,"L_den":3,"R_num":2,"R_den":15,"correct_side":1,"subjID":"sergiomonroy8","gender":"0","school":"4","age":"9"},{"start_time":1552054236936,"click_time":1552054238529,"finger_time":1552054237948,"fix_duration":946.1757553334919,"trial":21,"RT":1012,"MT":581,"sideResp":2,"stimulus":[],"xmouse":[810,810,810,810,810,810,810,810,810,810,810,810,810,810,810,810,810,810,810,810,810,810,810,810,810,810,810,810,810,810,810,810,810,810,810,810,810,810,810,810,810,810,810,810,810,810,810,810,811,840,914,945,967,1011,1033,1059,1070,1073,1071,1066,1059,1046,1031,1014,1013,1013,1013,1003,984,980,979,980,985,988,988,988,991,991,1051,1104],"ymouse":[623,623,623,623,623,623,623,623,623,623,623,623,623,623,623,623,623,623,623,623,623,623,623,623,623,623,623,623,623,623,623,623,623,623,623,623,623,623,623,623,623,623,623,623,623,623,623,623,623,617,596,584,574,551,519,457,404,364,304,288,273,253,235,200,183,163,129,84,36,22,10,5,0,0,0,0,0,0,19,38],"timestamp_mouse":[13,35,52,71,92,112,132,153,173,192,211,233,252,273,292,313,333,352,372,392,412,432,452,472,492,512,531,553,572,593,613,632,652,672,691,713,732,752,773,792,812,832,852,871,893,913,932,952,971,992,1012,1031,1051,1073,1092,1113,1132,1151,1171,1192,1212,1231,1252,1272,1292,1312,1332,1353,1371,1393,1412,1431,1452,1472,1492,1512,1532,1552,1571,1592],"xSR":741.5,"ySR":573.95,"xT1":424.9,"yT1":0,"xT2":1058.1,"yT2":0,"toosoon":0,"cond_shown":"Congruent","ratio_trial":200,"L_num":3,"L_den":10,"R_num":7,"R_den":14,"correct_side":2,"subjID":"sergiomonroy8","gender":"0","school":"4","age":"9"},{"start_time":1552054242107,"click_time":1552054243767,"finger_time":1552054243567,"fix_duration":1096.2411732505304,"trial":22,"RT":1460,"MT":200,"sideResp":1,"stimulus":[],"xmouse":[826,826,826,826,826,826,826,826,826,826,826,826,826,826,826,826,826,826,826,826,826,826,826,826,826,826,826,826,826,826,826,826,826,826,826,826,826,826,826,826,826,826,826,826,826,826,826,826,826,826,826,826,826,826,826,826,826,826,826,826,826,826,826,827,827,827,827,827,825,822,814,805,799,791,778,769,752,720,682,587,558,529,501],"ymouse":[637,637,637,637,637,637,637,637,637,637,637,637,637,637,637,637,637,637,637,637,637,637,637,637,637,637,637,637,637,637,637,637,637,637,637,637,637,637,637,637,637,637,635,634,633,633,633,633,633,633,633,633,633,633,633,633,633,633,633,633,633,633,633,631,631,630,628,626,623,616,596,576,557,534,496,477,435,367,298,168,131,90,35],"timestamp_mouse":[21,43,62,81,100,121,142,160,181,201,221,240,260,281,302,321,340,362,380,401,422,442,460,480,502,521,542,562,582,601,620,642,661,680,701,720,741,762,781,802,821,840,861,880,902,921,941,961,980,1000,1022,1041,1062,1081,1100,1121,1141,1160,1181,1202,1221,1242,1260,1281,1301,1321,1342,1360,1380,1401,1421,1440,1460,1481,1501,1520,1540,1560,1581,1601,1622,1640,1660],"xSR":741.5,"ySR":573.95,"xT1":424.9,"yT1":0,"xT2":1058.1,"yT2":0,"toosoon":0,"cond_shown":"Congruent","ratio_trial":200,"L_num":11,"L_den":22,"R_num":3,"R_den":10,"correct_side":1,"subjID":"sergiomonroy8","gender":"0","school":"4","age":"9"},{"start_time":1552054246466,"click_time":1552054248888,"finger_time":1552054248209,"fix_duration":1335.5739219688076,"trial":23,"RT":1743,"MT":679,"sideResp":1,"stimulus":[],"xmouse":[784,784,784,784,784,784,784,784,784,784,784,784,784,784,784,784,784,784,784,784,785,785,786,786,786,786,786,786,786,786,787,788,789,789,789,789,789,789,789,789,789,789,789,789,789,789,789,789,789,789,789,789,789,789,789,789,789,789,789,789,789,789,789,789,789,789,789,790,790,790,791,791,791,791,791,791,791,791,791,791,791,791,791,791,791,791,787,766,714,698,680,673,667,650,637,629,623,620,616,611,595,578,567,556,554,549,545,542,537,534,531,530,529,527,526,526,525,524,524,524,522,519],"ymouse":[642,642,642,642,642,642,642,642,642,642,642,642,642,642,642,642,642,642,642,642,641,638,637,637,637,637,637,637,637,637,636,634,633,633,633,633,633,633,633,633,633,633,633,633,633,633,633,633,633,633,633,633,633,633,633,633,633,633,633,633,633,633,633,633,633,633,633,633,633,633,633,633,633,633,633,633,633,633,633,633,633,633,633,633,628,617,590,527,422,395,370,358,346,309,288,272,261,256,250,244,228,211,197,178,173,164,153,143,129,123,117,113,111,108,108,107,106,105,105,104,100,96],"timestamp_mouse":[10,22,41,61,81,103,123,142,163,183,202,222,242,262,283,302,322,341,361,382,401,423,441,462,482,501,522,543,562,582,601,621,642,662,681,701,723,741,762,782,802,822,841,862,883,903,921,942,963,983,1001,1022,1043,1062,1083,1101,1123,1143,1162,1182,1203,1221,1242,1261,1283,1303,1321,1341,1362,1381,1403,1422,1441,1461,1483,1503,1521,1542,1562,1583,1603,1621,1643,1662,1681,1702,1722,1742,1762,1782,1802,1822,1842,1861,1882,1901,1922,1941,1961,1983,2002,2022,2042,2061,2082,2101,2121,2142,2161,2182,2202,2222,2242,2262,2281,2302,2321,2342,2361,2381,2402,2422],"xSR":741.5,"ySR":573.95,"xT1":424.9,"yT1":0,"xT2":1058.1,"yT2":0,"toosoon":0,"cond_shown":"Congruent","ratio_trial":200,"L_num":8,"L_den":15,"R_num":3,"R_den":9,"correct_side":1,"subjID":"sergiomonroy8","gender":"0","school":"4","age":"9"},{"start_time":1552054250201,"click_time":1552054253188,"finger_time":1552054252127,"fix_duration":472.54050354833953,"trial":24,"RT":1926,"MT":1061,"sideResp":1,"stimulus":[],"xmouse":[766,766,766,766,766,766,766,766,766,766,766,766,766,766,766,766,766,766,766,766,766,766,766,766,766,766,766,766,766,766,766,766,766,766,766,766,766,766,766,766,766,766,766,766,766,766,766,766,766,766,766,766,766,766,766,766,766,766,766,766,766,766,766,766,766,766,766,766,766,766,766,766,766,766,766,766,766,766,766,766,766,766,766,766,766,766,766,766,765,765,765,765,765,764,762,758,739,714,682,650,623,600,592,585,578,573,566,563,560,557,555,551,543,536,528,515,413,372,360,360,359,359,359,359,359,359,359,359,359,359,359,359,359,359,359,359,359,359,359,359,359,361,364,365,369,370,374,381,396,430],"ymouse":[648,648,648,648,648,648,648,648,648,648,648,648,648,648,648,648,648,648,648,648,648,648,648,648,648,648,648,648,648,648,648,648,648,648,648,648,648,648,648,648,648,648,648,648,648,648,648,648,648,648,648,648,648,648,648,648,648,648,648,648,648,648,648,648,648,648,648,648,648,648,648,648,648,648,648,648,648,648,648,648,648,648,648,648,648,648,648,648,647,646,646,646,645,641,635,625,583,535,480,424,376,336,319,304,291,283,269,265,260,256,253,244,233,223,214,201,162,157,155,155,155,155,155,155,155,155,155,155,155,155,155,155,155,155,155,155,155,155,155,155,154,152,148,147,143,143,133,124,109,87],"timestamp_mouse":[21,42,47,66,87,106,128,147,168,187,206,228,246,268,287,306,327,347,366,387,408,428,447,467,487,508,528,547,568,588,607,627,647,668,687,707,727,747,766,788,807,828,847,867,886,907,928,947,967,987,1007,1027,1047,1066,1087,1106,1128,1147,1167,1188,1207,1227,1246,1267,1287,1306,1327,1347,1368,1387,1406,1426,1447,1468,1486,1507,1528,1547,1566,1586,1607,1627,1646,1668,1687,1706,1728,1746,1767,1786,1808,1826,1847,1866,1888,1907,1926,1946,1968,1987,2006,2027,2046,2067,2087,2107,2127,2146,2167,2187,2207,2227,2247,2267,2287,2307,2327,2346,2366,2386,2406,2427,2447,2466,2487,2507,2526,2547,2566,2587,2607,2627,2647,2667,2686,2707,2728,2747,2768,2788,2806,2827,2846,2867,2888,2907,2927,2946,2968,2987],"xSR":741.5,"ySR":573.95,"xT1":424.9,"yT1":0,"xT2":1058.1,"yT2":0,"toosoon":0,"cond_shown":"Congruent","ratio_trial":200,"L_num":13,"L_den":26,"R_num":14,"R_den":20,"correct_side":2,"subjID":"sergiomonroy8","gender":"0","school":"4","age":"9"},{"start_time":1552054256880,"click_time":1552054258507,"finger_time":1552054257067,"fix_duration":250,"trial":25,"RT":187,"MT":1440,"sideResp":2,"stimulus":[],"xmouse":[805,805,805,801,794,775,760,752,744,743,743,743,743,743,743,743,743,744,748,750,752,752,752,752,752,752,752,752,752,752,753,753,754,755,758,763,769,779,784,786,786,787,787,784,779,777,776,776,776,776,778,780,785,800,811,822,839,852,869,872,874,878,882,907,929,938,968,973,982,987,994,999,1002,1006,1007,1011,1023,1034,1051,1054,1057,1059],"ymouse":[604,604,604,601,601,601,600,595,577,571,569,568,568,568,568,568,568,568,568,568,567,567,567,567,567,567,567,567,567,567,567,567,567,567,566,566,565,561,557,554,549,541,528,487,466,444,423,416,411,409,405,400,395,383,376,369,355,342,303,281,261,238,214,171,139,128,93,84,64,56,49,43,39,30,29,25,16,11,5,4,2,2],"timestamp_mouse":[12,34,48,67,87,107,127,147,168,187,208,228,247,268,289,308,328,347,368,388,408,428,447,468,487,509,527,547,568,588,607,627,648,667,687,708,728,748,768,787,809,828,847,867,887,907,927,947,968,987,1008,1028,1048,1067,1089,1107,112