[{"start_time":1552313823948,"click_time":1552313826635,"finger_time":1552313823954,"fix_duration":250,"trial":0,"RT":6,"MT":2681,"sideResp":1,"stimulus":[],"xmouse":[1023,1023,1015,1002,980,942,905,887,883,880,879,877,873,872,870,870,870,869,859,854,850,842,836,820,814,811,810,810,827,873,920,932,922,915,914,914,915,942,959,959,960,957,945,943,943,943,947,956,957,959,959,959,959,959,952,928,917,879,823,783,759,733,705,700,699,699,699,703,720,748,786,824,844,853,853,853,853,854,868,875,880,881,881,876,867,851,847,838,828,826,823,819,814,793,782,781,781,785,810,821,826,827,827,822,818,810,794,784,766,760,753,744,717,696,674,654,611,591,591,591,591,591,591,591,591,591,591,591,591,591,591,591,591,591,442],"ymouse":[481,449,426,421,421,433,452,470,480,484,486,487,491,491,492,492,492,493,499,502,504,508,512,521,524,526,526,526,495,395,285,199,81,71,71,71,72,86,90,90,90,92,98,98,98,97,91,82,81,81,81,81,81,81,85,114,131,182,257,307,341,377,446,476,493,498,499,499,471,431,360,312,299,296,296,296,296,296,305,322,341,354,383,400,419,459,471,506,541,551,555,559,562,572,578,580,580,579,545,525,510,499,492,480,477,473,468,462,436,413,384,349,258,208,156,108,31,6,6,6,6,6,6,6,6,6,6,6,6,6,6,6,6,6,9],"timestamp_mouse":[6,26,46,66,87,106,126,146,166,186,205,227,247,266,286,307,326,347,366,386,407,426,446,465,487,506,526,545,566,586,607,625,647,666,686,706,726,747,766,786,806,827,847,865,886,906,926,946,967,986,1007,1026,1047,1066,1086,1106,1126,1147,1166,1186,1206,1226,1247,1266,1286,1307,1327,1347,1367,1386,1406,1426,1446,1466,1487,1506,1526,1546,1566,1586,1607,1627,1647,1666,1686,1706,1726,1746,1767,1785,1807,1826,1845,1866,1887,1906,1926,1946,1966,1986,2007,2026,2047,2066,2086,2106,2126,2147,2166,2186,2206,2226,2247,2266,2286,2306,2326,2347,2366,2386,2406,2427,2446,2466,2487,2505,2526,2547,2567,2587,2606,2626,2647,2666,2686],"xSR":741.5,"ySR":573.95,"xT1":424.9,"yT1":0,"xT2":1058.1,"yT2":0,"toosoon":0,"cond_shown":"Incongruent","ratio_trial":300,"L_num":4,"L_den":20,"R_num":2,"R_den":4,"correct_side":2,"subjID":"Shirly Julieta Avendaño Campos 2","gender":"1","age":"9","school":"4","test":{"fix_dur":[250,1500],"timestim":1000,"targets_dim":[100,100],"targets_relative_coord":[0.3,0.7],"size_stim":[880,420],"start_dim":[100,100],"size_start":[300,300],"size_fix":60,"samplingrate":20,"img_types":["Congruent","Incongruent"],"ratios":[100,200,300],"rep_conds":19,"nTrials":120,"trials_to_rest":500,"Trials_order":[101,4,63,26,30,109,113,28,45,72,15,14,100,60,70,110,7,31,67,115,56,82,44,68,39,37,89,5,76,29,43,3,27,95,25,24,34,6,119,65,83,40,84,20,74,1,117,88,57,94,105,22,75,32,118,92,64,91,41,80,42,112,87,12,81,98,103,61,53,36,9,8,50,73,78,104,11,10,71,77,18,107,97,111,46,38,51,21,52,58,96,17,66,48,86,49,47,102,2,19,108,55,114,85,35,13,0,90,116,59,62,33,99,79,54,106,69,23,16,93],"cond_shown":["Incongruent","Congruent","Incongruent","Congruent","Congruent","Incongruent","Incongruent","Congruent","Incongruent","Congruent","Incongruent","Congruent","Congruent","Congruent","Congruent","Congruent","Incongruent","Incongruent","Incongruent","Incongruent","Congruent","Congruent","Congruent","Congruent","Incongruent","Incongruent","Incongruent","Incongruent","Congruent","Incongruent","Incongruent","Incongruent","Incongruent","Incongruent","Incongruent","Congruent","Congruent","Congruent","Incongruent","Incongruent","Incongruent","Congruent","Congruent","Congruent","Congruent","Incongruent","Incongruent","Congruent","Incongruent","Congruent","Incongruent","Congruent","Incongruent","Congruent","Congruent","Congruent","Congruent","Incongruent","Incongruent","Congruent","Congruent","Congruent","Incongruent","Congruent","Incongruent","Congruent","Incongruent","Incongruent","Incongruent","Congruent","Incongruent","Congruent","Congruent","Incongruent","Congruent","Congruent","Incongruent","Congruent","Incongruent","Incongruent","Congruent","Incongruent","Incongruent","Incongruent","Congruent","Congruent","Incongruent","Incongruent","Congruent","Congruent","Congruent","Incongruent","Congruent","Congruent","Congruent","Incongruent","Incongruent","Congruent","Congruent","Incongruent","Congruent","Incongruent","Congruent","Incongruent","Incongruent","Incongruent","Congruent","Congruent","Congruent","Incongruent","Congruent","Incongruent","Incongruent","Incongruent","Congruent","Congruent","Incongruent","Incongruent","Congruent","Incongruent"],"ratio_trial":[300,300,200,200,100,100,300,300,200,100,200,200,300,100,300,200,100,100,100,100,200,300,200,200,200,100,300,300,300,300,100,200,200,300,100,100,300,100,300,300,300,300,100,200,200,100,200,300,200,300,200,300,200,200,300,200,300,100,300,200,100,300,200,100,200,200,100,100,300,100,200,200,200,100,100,200,300,300,300,300,100,300,100,200,300,200,200,200,300,300,100,300,100,100,200,100,300,100,200,100,100,100,100,100,300,100,100,100,200,300,200,200,200,100,100,300,200,300,300,200],"left_num":[4,20,7,20,2,8,1,3,7,10,7,4,1,8,1,16,2,3,1,9,14,24,16,9,7,2,4,4,11,7,2,1,4,7,8,11,24,10,13,1,8,4,6,14,1,12,14,11,14,5,11,11,1,20,20,16,11,4,4,4,3,2,14,1,4,14,1,9,1,11,3,6,6,1,10,3,13,1,4,7,7,13,6,7,11,3,6,7,3,3,15,13,11,7,11,10,1,3,9,1,6,12,8,2,8,9,15,6,3,1,4,4,9,3,10,24,11,13,20,7],"right_num":[2,5,14,9,11,6,2,11,12,3,12,3,3,2,3,9,8,8,8,20,6,2,9,4,8,8,2,2,4,8,6,3,1,8,6,6,8,3,12,3,9,1,5,6,21,2,12,4,12,7,3,1,2,9,9,9,4,8,2,3,4,12,6,3,14,6,8,13,3,6,11,7,11,8,3,11,12,11,2,8,9,12,13,8,1,9,3,12,2,11,13,12,4,15,3,8,2,2,13,8,15,9,2,8,9,14,13,15,7,2,3,6,8,7,3,8,3,12,14,8],"left_den":[20,25,10,25,5,16,2,12,10,25,10,8,5,16,5,30,4,5,2,10,28,30,30,20,10,4,20,20,22,10,4,2,30,10,16,22,30,25,26,2,10,10,20,28,2,30,30,22,30,25,20,22,3,25,25,30,22,8,20,8,20,10,30,2,6,28,2,15,2,22,4,12,20,2,25,10,26,5,20,10,14,26,10,10,22,12,20,10,6,12,25,26,22,14,22,25,2,6,30,2,12,24,16,4,10,15,25,12,10,2,10,5,15,9,25,30,20,26,25,10],"right_den":[4,10,28,15,22,10,10,20,24,10,24,10,6,5,6,27,20,16,20,25,20,4,27,16,16,20,4,4,20,20,15,10,3,20,10,15,16,10,15,15,18,10,25,20,30,4,18,20,18,14,4,5,15,15,18,27,20,20,4,10,16,24,9,5,30,20,20,26,15,15,20,10,22,20,10,22,15,22,4,20,15,15,26,16,5,20,6,24,10,20,26,15,10,25,10,16,10,5,26,20,25,15,5,20,18,28,26,25,14,10,15,10,10,30,10,16,4,15,28,16],"correct_side":[2,1,1,1,2,2,1,2,1,1,1,1,2,1,2,1,1,1,1,1,1,1,1,1,1,1,2,2,1,1,1,1,2,1,2,1,1,1,2,1,1,1,1,1,2,2,2,1,2,2,2,1,1,1,1,1,1,1,2,1,2,2,2,2,1,1,1,1,1,1,1,2,2,1,1,2,2,2,2,1,2,2,1,1,1,2,2,1,1,2,1,2,1,2,1,2,1,1,2,1,2,2,1,1,1,1,1,2,2,1,1,1,2,1,1,1,2,2,1,1],"img_shown":["img2/300/Incongruent/R/I_Dist_300_LN_4_LD_20_RN_2_RD_4_1.png","img2/300/Congruent/L/C_Dist_300_LN_20_LD_25_RN_5_RD_10_0.png","img2/200/Incongruent/L/I_Dist_200_LN_7_LD_10_RN_14_RD_28_0.png","img2/200/Congruent/L/C_Dist_200_LN_20_LD_25_RN_9_RD_15_0.png","img2/100/Congruent/R/C_Dist_100_LN_2_LD_5_RN_11_RD_22_1.png","img2/100/Incongruent/R/I_Dist_100_LN_8_LD_16_RN_6_RD_10_1.png","img2/300/Incongruent/L/I_Dist_300_LN_1_LD_2_RN_2_RD_10_0.png","img2/300/Congruent/R/C_Dist_300_LN_3_LD_12_RN_11_RD_20_1.png","img2/200/Incongruent/L/I_Dist_200_LN_7_LD_10_RN_12_RD_24_0.png","img2/100/Congruent/L/C_Dist_100_LN_10_LD_25_RN_3_RD_10_0.png","img2/200/Incongruent/L/I_Dist_200_LN_7_LD_10_RN_12_RD_24_0.png","img2/200/Congruent/L/C_Dist_200_LN_4_LD_8_RN_3_RD_10_0.png","img2/300/Congruent/R/C_Dist_300_LN_1_LD_5_RN_3_RD_6_1.png","img2/100/Congruent/L/C_Dist_100_LN_8_LD_16_RN_2_RD_5_0.png","img2/300/Congruent/R/C_Dist_300_LN_1_LD_5_RN_3_RD_6_1.png","img2/200/Congruent/L/C_Dist_200_LN_16_LD_30_RN_9_RD_27_0.png","img2/100/Incongruent/L/I_Dist_100_LN_2_LD_4_RN_8_RD_20_0.png","img2/100/Incongruent/L/I_Dist_100_LN_3_LD_5_RN_8_RD_16_0.png","img2/100/Incongruent/L/I_Dist_100_LN_1_LD_2_RN_8_RD_20_0.png","img2/100/Incongruent/L/I_Dist_100_LN_9_LD_10_RN_20_RD_25_0.png","img2/200/Congruent/L/C_Dist_200_LN_14_LD_28_RN_6_RD_20_0.png","img2/300/Congruent/L/C_Dist_300_LN_24_LD_30_RN_2_RD_4_0.png","img2/200/Congruent/L/C_Dist_200_LN_16_LD_30_RN_9_RD_27_0.png","img2/200/Congruent/L/C_Dist_200_LN_9_LD_20_RN_4_RD_16_0.png","img2/200/Incongruent/L/I_Dist_200_LN_7_LD_10_RN_8_RD_16_0.png","img2/100/Incongruent/L/I_Dist_100_LN_2_LD_4_RN_8_RD_20_0.png","img2/300/Incongruent/R/I_Dist_300_LN_4_LD_20_RN_2_RD_4_1.png","img2/300/Incongruent/R/I_Dist_300_LN_4_LD_20_RN_2_RD_4_1.png","img2/300/Congruent/L/C_Dist_300_LN_11_LD_22_RN_4_RD_20_0.png","img2/300/Incongruent/L/I_Dist_300_LN_7_LD_10_RN_8_RD_20_0.png","img2/100/Incongruent/L/I_Dist_100_LN_2_LD_4_RN_6_RD_15_0.png","img2/200/Incongruent/L/I_Dist_200_LN_1_LD_2_RN_3_RD_10_0.png","img2/200/Incongruent/R/I_Dist_200_LN_4_LD_30_RN_1_RD_3_1.png","img2/300/Incongruent/L/I_Dist_300_LN_7_LD_10_RN_8_RD_20_0.png","img2/100/Incongruent/R/I_Dist_100_LN_8_LD_16_RN_6_RD_10_1.png","img2/100/Congruent/L/C_Dist_100_LN_11_LD_22_RN_6_RD_15_0.png","img2/300/Congruent/L/C_Dist_300_LN_24_LD_30_RN_8_RD_16_0.png","img2/100/Congruent/L/C_Dist_100_LN_10_LD_25_RN_3_RD_10_0.png","img2/300/Incongruent/R/I_Dist_300_LN_13_LD_26_RN_12_RD_15_1.png","img2/300/Incongruent/L/I_Dist_300_LN_1_LD_2_RN_3_RD_15_0.png","img2/300/Incongruent/L/I_Dist_300_LN_8_LD_10_RN_9_RD_18_0.png","img2/300/Congruent/L/C_Dist_300_LN_4_LD_10_RN_1_RD_10_0.png","img2/100/Congruent/L/C_Dist_100_LN_6_LD_20_RN_5_RD_25_0.png","img2/200/Congruent/L/C_Dist_200_LN_14_LD_28_RN_6_RD_20_0.png","img2/200/Congruent/R/C_Dist_200_LN_1_LD_2_RN_21_RD_30_1.png","img2/100/Incongruent/R/I_Dist_100_LN_12_LD_30_RN_2_RD_4_1.png","img2/200/Incongruent/R/I_Dist_200_LN_14_LD_30_RN_12_RD_18_1.png","img2/300/Congruent/L/C_Dist_300_LN_11_LD_22_RN_4_RD_20_0.png","img2/200/Incongruent/R/I_Dist_200_LN_14_LD_30_RN_12_RD_18_1.png","img2/300/Congruent/R/C_Dist_300_LN_5_LD_25_RN_7_RD_14_1.png","img2/200/Incongruent/R/I_Dist_200_LN_11_LD_20_RN_3_RD_4_1.png","img2/300/Congruent/L/C_Dist_300_LN_11_LD_22_RN_1_RD_5_0.png","img2/200/Incongruent/L/I_Dist_200_LN_1_LD_3_RN_2_RD_15_0.png","img2/200/Congruent/L/C_Dist_200_LN_20_LD_25_RN_9_RD_15_0.png","img2/300/Congruent/L/C_Dist_300_LN_20_LD_25_RN_9_RD_18_0.png","img2/200/Congruent/L/C_Dist_200_LN_16_LD_30_RN_9_RD_27_0.png","img2/300/Congruent/L/C_Dist_300_LN_11_LD_22_RN_4_RD_20_0.png","img2/100/Incongruent/L/I_Dist_100_LN_4_LD_8_RN_8_RD_20_0.png","img2/300/Incongruent/R/I_Dist_300_LN_4_LD_20_RN_2_RD_4_1.png","img2/200/Congruent/L/C_Dist_200_LN_4_LD_8_RN_3_RD_10_0.png","img2/100/Congruent/R/C_Dist_100_LN_3_LD_20_RN_4_RD_16_1.png","img2/300/Congruent/R/C_Dist_300_LN_2_LD_10_RN_12_RD_24_1.png","img2/200/Incongruent/R/I_Dist_200_LN_14_LD_30_RN_6_RD_9_1.png","img2/100/Congruent/R/C_Dist_100_LN_1_LD_2_RN_3_RD_5_1.png","img2/200/Incongruent/L/I_Dist_200_LN_4_LD_6_RN_14_RD_30_0.png","img2/200/Congruent/L/C_Dist_200_LN_14_LD_28_RN_6_RD_20_0.png","img2/100/Incongruent/L/I_Dist_100_LN_1_LD_2_RN_8_RD_20_0.png","img2/100/Incongruent/L/I_Dist_100_LN_9_LD_15_RN_13_RD_26_0.png","img2/300/Incongruent/L/I_Dist_300_LN_1_LD_2_RN_3_RD_15_0.png","img2/100/Congruent/L/C_Dist_100_LN_11_LD_22_RN_6_RD_15_0.png","img2/200/Incongruent/L/I_Dist_200_LN_3_LD_4_RN_11_RD_20_0.png","img2/200/Congruent/R/C_Dist_200_LN_6_LD_12_RN_7_RD_10_1.png","img2/200/Congruent/R/C_Dist_200_LN_6_LD_20_RN_11_RD_22_1.png","img2/100/Incongruent/L/I_Dist_100_LN_1_LD_2_RN_8_RD_20_0.png","img2/100/Congruent/L/C_Dist_100_LN_10_LD_25_RN_3_RD_10_0.png","img2/200/Congruent/R/C_Dist_200_LN_3_LD_10_RN_11_RD_22_1.png","img2/300/Incongruent/R/I_Dist_300_LN_13_LD_26_RN_12_RD_15_1.png","img2/300/Congruent/R/C_Dist_300_LN_1_LD_5_RN_11_RD_22_1.png","img2/300/Incongruent/R/I_Dist_300_LN_4_LD_20_RN_2_RD_4_1.png","img2/300/Incongruent/L/I_Dist_300_LN_7_LD_10_RN_8_RD_20_0.png","img2/100/Congruent/R/C_Dist_100_LN_7_LD_14_RN_9_RD_15_1.png","img2/300/Incongruent/R/I_Dist_300_LN_13_LD_26_RN_12_RD_15_1.png","img2/100/Incongruent/L/I_Dist_100_LN_6_LD_10_RN_13_RD_26_0.png","img2/200/Incongruent/L/I_Dist_200_LN_7_LD_10_RN_8_RD_16_0.png","img2/300/Congruent/L/C_Dist_300_LN_11_LD_22_RN_1_RD_5_0.png","img2/200/Congruent/R/C_Dist_200_LN_3_LD_12_RN_9_RD_20_1.png","img2/200/Incongruent/R/I_Dist_200_LN_6_LD_20_RN_3_RD_6_1.png","img2/200/Incongruent/L/I_Dist_200_LN_7_LD_10_RN_12_RD_24_0.png","img2/300/Congruent/L/C_Dist_300_LN_3_LD_6_RN_2_RD_10_0.png","img2/300/Congruent/R/C_Dist_300_LN_3_LD_12_RN_11_RD_20_1.png","img2/100/Congruent/L/C_Dist_100_LN_15_LD_25_RN_13_RD_26_0.png","img2/300/Incongruent/R/I_Dist_300_LN_13_LD_26_RN_12_RD_15_1.png","img2/100/Congruent/L/C_Dist_100_LN_11_LD_22_RN_4_RD_10_0.png","img2/100/Congruent/R/C_Dist_100_LN_7_LD_14_RN_15_RD_25_1.png","img2/200/Congruent/L/C_Dist_200_LN_11_LD_22_RN_3_RD_10_0.png","img2/100/Incongruent/R/I_Dist_100_LN_10_LD_25_RN_8_RD_16_1.png","img2/300/Incongruent/L/I_Dist_300_LN_1_LD_2_RN_2_RD_10_0.png","img2/100/Congruent/L/C_Dist_100_LN_3_LD_6_RN_2_RD_5_0.png","img2/200/Congruent/R/C_Dist_200_LN_9_LD_30_RN_13_RD_26_1.png","img2/100/Incongruent/L/I_Dist_100_LN_1_LD_2_RN_8_RD_20_0.png","img2/100/Congruent/R/C_Dist_100_LN_6_LD_12_RN_15_RD_25_1.png","img2/100/Incongruent/R/I_Dist_100_LN_12_LD_24_RN_9_RD_15_1.png","img2/100/Congruent/L/C_Dist_100_LN_8_LD_16_RN_2_RD_5_0.png","img2/100/Incongruent/L/I_Dist_100_LN_2_LD_4_RN_8_RD_20_0.png","img2/300/Incongruent/L/I_Dist_300_LN_8_LD_10_RN_9_RD_18_0.png","img2/100/Incongruent/L/I_Dist_100_LN_9_LD_15_RN_14_RD_28_0.png","img2/100/Congruent/L/C_Dist_100_LN_15_LD_25_RN_13_RD_26_0.png","img2/100/Congruent/R/C_Dist_100_LN_6_LD_12_RN_15_RD_25_1.png","img2/200/Congruent/R/C_Dist_200_LN_3_LD_10_RN_7_RD_14_1.png","img2/300/Incongruent/L/I_Dist_300_LN_1_LD_2_RN_2_RD_10_0.png","img2/200/Congruent/L/C_Dist_200_LN_4_LD_10_RN_3_RD_15_0.png","img2/200/Incongruent/L/I_Dist_200_LN_4_LD_5_RN_6_RD_10_0.png","img2/200/Incongruent/R/I_Dist_200_LN_9_LD_15_RN_8_RD_10_1.png","img2/100/Incongruent/L/I_Dist_100_LN_3_LD_9_RN_7_RD_30_0.png","img2/100/Congruent/L/C_Dist_100_LN_10_LD_25_RN_3_RD_10_0.png","img2/300/Congruent/L/C_Dist_300_LN_24_LD_30_RN_8_RD_16_0.png","img2/200/Incongruent/R/I_Dist_200_LN_11_LD_20_RN_3_RD_4_1.png","img2/300/Incongruent/R/I_Dist_300_LN_13_LD_26_RN_12_RD_15_1.png","img2/300/Congruent/L/C_Dist_300_LN_20_LD_25_RN_14_RD_28_0.png","img2/200/Incongruent/L/I_Dist_200_LN_7_LD_10_RN_8_RD_16_0.png"],"dist100_C":[["C_Dist_100_LN_10_LD_25_RN_3_RD_10_0.png","C_Dist_100_LN_11_LD_22_RN_4_RD_10_0.png","C_Dist_100_LN_11_LD_22_RN_6_RD_15_0.png","C_Dist_100_LN_15_LD_25_RN_13_RD_26_0.png","C_Dist_100_LN_3_LD_6_RN_2_RD_5_0.png","C_Dist_100_LN_6_LD_20_RN_5_RD_25_0.png","C_Dist_100_LN_8_LD_16_RN_2_RD_5_0.png","C_Dist_100_LN_9_LD_15_RN_8_RD_16_0.png"],["C_Dist_100_LN_1_LD_2_RN_18_RD_30_1.png","C_Dist_100_LN_1_LD_2_RN_3_RD_5_1.png","C_Dist_100_LN_12_LD_30_RN_13_RD_26_1.png","C_Dist_100_LN_2_LD_5_RN_11_RD_22_1.png","C_Dist_100_LN_2_LD_5_RN_6_RD_12_1.png","C_Dist_100_LN_3_LD_20_RN_4_RD_16_1.png","C_Dist_100_LN_4_LD_10_RN_15_RD_30_1.png","C_Dist_100_LN_4_LD_8_RN_6_RD_10_1.png","C_Dist_100_LN_6_LD_12_RN_15_RD_25_1.png","C_Dist_100_LN_7_LD_14_RN_15_RD_25_1.png","C_Dist_100_LN_7_LD_14_RN_9_RD_15_1.png"]],"dist100_I":[["I_Dist_100_LN_1_LD_2_RN_8_RD_20_0.png","I_Dist_100_LN_2_LD_4_RN_6_RD_15_0.png","I_Dist_100_LN_2_LD_4_RN_8_RD_20_0.png","I_Dist_100_LN_3_LD_5_RN_11_RD_22_0.png","I_Dist_100_LN_3_LD_5_RN_8_RD_16_0.png","I_Dist_100_LN_3_LD_6_RN_4_RD_10_0.png","I_Dist_100_LN_3_LD_9_RN_7_RD_30_0.png","I_Dist_100_LN_4_LD_8_RN_8_RD_20_0.png","I_Dist_100_LN_6_LD_10_RN_11_RD_22_0.png","I_Dist_100_LN_6_LD_10_RN_13_RD_26_0.png","I_Dist_100_LN_6_LD_10_RN_7_RD_14_0.png","I_Dist_100_LN_9_LD_10_RN_20_RD_25_0.png","I_Dist_100_LN_9_LD_15_RN_13_RD_26_0.png","I_Dist_100_LN_9_LD_15_RN_14_RD_28_0.png"],["I_Dist_100_LN_10_LD_25_RN_8_RD_16_1.png","I_Dist_100_LN_10_LD_25_RN_9_RD_18_1.png","I_Dist_100_LN_11_LD_22_RN_9_RD_15_1.png","I_Dist_100_LN_12_LD_24_RN_9_RD_15_1.png","I_Dist_100_LN_12_LD_30_RN_2_RD_4_1.png","I_Dist_100_LN_13_LD_26_RN_12_RD_20_1.png","I_Dist_100_LN_13_LD_26_RN_6_RD_10_1.png","I_Dist_100_LN_17_LD_30_RN_10_RD_15_1.png","I_Dist_100_LN_6_LD_12_RN_3_RD_5_1.png","I_Dist_100_LN_8_LD_16_RN_6_RD_10_1.png","I_Dist_100_LN_8_LD_20_RN_1_RD_2_1.png","I_Dist_100_LN_9_LD_18_RN_6_RD_10_1.png"]],"dist100_S":[["E_Dist_100_LN_2_LD_12_RN_2_RD_30_0.png","E_Dist_100_LN_6_LD_10_RN_6_RD_12_0.png"],["E_Dist_100_LN_6_LD_12_RN_6_RD_10_1.png"]],"dist200_C":[["C_Dist_200_LN_11_LD_22_RN_3_RD_10_0.png","C_Dist_200_LN_12_LD_15_RN_6_RD_10_0.png","C_Dist_200_LN_12_LD_20_RN_6_RD_15_0.png","C_Dist_200_LN_14_LD_28_RN_6_RD_20_0.png","C_Dist_200_LN_15_LD_25_RN_4_RD_10_0.png","C_Dist_200_LN_16_LD_20_RN_12_RD_20_0.png","C_Dist_200_LN_16_LD_30_RN_9_RD_27_0.png","C_Dist_200_LN_20_LD_25_RN_9_RD_15_0.png","C_Dist_200_LN_21_LD_30_RN_2_RD_4_0.png","C_Dist_200_LN_4_LD_10_RN_3_RD_15_0.png","C_Dist_200_LN_4_LD_8_RN_3_RD_10_0.png","C_Dist_200_LN_6_LD_15_RN_3_RD_15_0.png","C_Dist_200_LN_7_LD_21_RN_2_RD_15_0.png","C_Dist_200_LN_8_LD_15_RN_2_RD_6_0.png","C_Dist_200_LN_8_LD_15_RN_3_RD_9_0.png","C_Dist_200_LN_8_LD_15_RN_7_RD_21_0.png","C_Dist_200_LN_9_LD_20_RN_4_RD_16_0.png"],["C_Dist_200_LN_1_LD_2_RN_21_RD_30_1.png","C_Dist_200_LN_13_LD_26_RN_14_RD_20_1.png","C_Dist_200_LN_3_LD_10_RN_11_RD_22_1.png","C_Dist_200_LN_3_LD_10_RN_14_RD_28_1.png","C_Dist_200_LN_3_LD_10_RN_7_RD_14_1.png","C_Dist_200_LN_3_LD_12_RN_9_RD_20_1.png","C_Dist_200_LN_3_LD_6_RN_14_RD_20_1.png","C_Dist_200_LN_5_LD_10_RN_14_RD_20_1.png","C_Dist_200_LN_6_LD_12_RN_7_RD_10_1.png","C_Dist_200_LN_6_LD_20_RN_11_RD_22_1.png","C_Dist_200_LN_7_LD_15_RN_18_RD_27_1.png","C_Dist_200_LN_9_LD_30_RN_13_RD_26_1.png"]],"dist200_I":[["I_Dist_200_LN_1_LD_2_RN_3_RD_10_0.png","I_Dist_200_LN_1_LD_3_RN_2_RD_15_0.png","I_Dist_200_LN_3_LD_4_RN_11_RD_20_0.png","I_Dist_200_LN_4_LD_5_RN_6_RD_10_0.png","I_Dist_200_LN_4_LD_6_RN_14_RD_30_0.png","I_Dist_200_LN_7_LD_10_RN_12_RD_24_0.png","I_Dist_200_LN_7_LD_10_RN_14_RD_28_0.png","I_Dist_200_LN_7_LD_10_RN_8_RD_16_0.png"],["I_Dist_200_LN_11_LD_20_RN_3_RD_4_1.png","I_Dist_200_LN_14_LD_30_RN_12_RD_18_1.png","I_Dist_200_LN_14_LD_30_RN_6_RD_9_1.png","I_Dist_200_LN_3_LD_10_RN_1_RD_2_1.png","I_Dist_200_LN_4_LD_30_RN_1_RD_3_1.png","I_Dist_200_LN_6_LD_20_RN_3_RD_6_1.png","I_Dist_200_LN_7_LD_15_RN_4_RD_6_1.png","I_Dist_200_LN_7_LD_15_RN_6_RD_9_1.png","I_Dist_200_LN_9_LD_15_RN_8_RD_10_1.png"]],"dist200_S":[["E_Dist_200_LN_3_LD_6_RN_3_RD_10_0.png"],["E_Dist_200_LN_3_LD_10_RN_3_RD_6_1.png"]],"dist300_C":[["C_Dist_300_LN_11_LD_22_RN_1_RD_5_0.png","C_Dist_300_LN_11_LD_22_RN_2_RD_10_0.png","C_Dist_300_LN_11_LD_22_RN_4_RD_20_0.png","C_Dist_300_LN_12_LD_24_RN_2_RD_10_0.png","C_Dist_300_LN_18_LD_20_RN_9_RD_15_0.png","C_Dist_300_LN_20_LD_25_RN_13_RD_26_0.png","C_Dist_300_LN_20_LD_25_RN_14_RD_28_0.png","C_Dist_300_LN_20_LD_25_RN_5_RD_10_0.png","C_Dist_300_LN_20_LD_25_RN_8_RD_16_0.png","C_Dist_300_LN_20_LD_25_RN_9_RD_18_0.png","C_Dist_300_LN_24_LD_30_RN_2_RD_4_0.png","C_Dist_300_LN_24_LD_30_RN_8_RD_16_0.png","C_Dist_300_LN_3_LD_6_RN_2_RD_10_0.png","C_Dist_300_LN_4_LD_10_RN_1_RD_10_0.png","C_Dist_300_LN_4_LD_5_RN_2_RD_4_0.png","C_Dist_300_LN_8_LD_16_RN_1_RD_5_0.png","C_Dist_300_LN_9_LD_10_RN_3_RD_5_0.png"],["C_Dist_300_LN_1_LD_20_RN_7_RD_20_1.png","C_Dist_300_LN_1_LD_3_RN_19_RD_30_1.png","C_Dist_300_LN_1_LD_30_RN_8_RD_24_1.png","C_Dist_300_LN_1_LD_5_RN_11_RD_22_1.png","C_Dist_300_LN_1_LD_5_RN_3_RD_6_1.png","C_Dist_300_LN_1_LD_5_RN_6_RD_12_1.png","C_Dist_300_LN_2_LD_10_RN_12_RD_24_1.png","C_Dist_300_LN_2_LD_20_RN_10_RD_25_1.png","C_Dist_300_LN_3_LD_12_RN_11_RD_20_1.png","C_Dist_300_LN_3_LD_6_RN_4_RD_5_1.png","C_Dist_300_LN_4_LD_20_RN_13_RD_26_1.png","C_Dist_300_LN_5_LD_25_RN_6_RD_12_1.png","C_Dist_300_LN_5_LD_25_RN_7_RD_14_1.png","C_Dist_300_LN_7_LD_14_RN_20_RD_25_1.png","C_Dist_300_LN_8_LD_15_RN_10_RD_12_1.png"]],"dist300_I":[["I_Dist_300_LN_1_LD_2_RN_2_RD_10_0.png","I_Dist_300_LN_1_LD_2_RN_3_RD_15_0.png","I_Dist_300_LN_2_LD_4_RN_6_RD_30_0.png","I_Dist_300_LN_3_LD_6_RN_4_RD_20_0.png","I_Dist_300_LN_4_LD_5_RN_6_RD_12_0.png","I_Dist_300_LN_4_LD_5_RN_8_RD_16_0.png","I_Dist_300_LN_7_LD_10_RN_8_RD_20_0.png","I_Dist_300_LN_8_LD_10_RN_14_RD_28_0.png","I_Dist_300_LN_8_LD_10_RN_9_RD_18_0.png"],["I_Dist_300_LN_13_LD_26_RN_12_RD_15_1.png","I_Dist_300_LN_4_LD_20_RN_2_RD_4_1.png"]],"dist300_S":[["E_Dist_300_LN_9_LD_12_RN_9_RD_20_0.png"],["E_Dist_300_LN_18_LD_30_RN_18_RD_20_1.png","E_Dist_300_LN_3_LD_10_RN_3_RD_5_1.png","E_Dist_300_LN_9_LD_20_RN_9_RD_12_1.png"]],"dist500_C":[["C_Dist_500_LN_10_LD_13_RN_7_RD_26_0.png","C_Dist_500_LN_10_LD_15_RN_4_RD_24_0.png","C_Dist_500_LN_12_LD_16_RN_3_RD_12_0.png","C_Dist_500_LN_12_LD_18_RN_4_RD_24_0.png","C_Dist_500_LN_15_LD_18_RN_5_RD_15_0.png","C_Dist_500_LN_15_LD_20_RN_1_RD_4_0.png","C_Dist_500_LN_18_LD_27_RN_1_RD_6_0.png","C_Dist_500_LN_20_LD_24_RN_1_RD_3_0.png","C_Dist_500_LN_20_LD_24_RN_3_RD_9_0.png","C_Dist_500_LN_20_LD_24_RN_7_RD_21_0.png","C_Dist_500_LN_20_LD_28_RN_3_RD_14_0.png","C_Dist_500_LN_21_LD_28_RN_6_RD_24_0.png","C_Dist_500_LN_22_LD_28_RN_2_RD_7_0.png","C_Dist_500_LN_25_LD_30_RN_9_RD_27_0.png","C_Dist_500_LN_4_LD_6_RN_1_RD_6_0.png","C_Dist_500_LN_5_LD_6_RN_2_RD_6_0.png","C_Dist_500_LN_6_LD_9_RN_1_RD_6_0.png","C_Dist_500_LN_7_LD_10_RN_1_RD_5_0.png","C_Dist_500_LN_8_LD_12_RN_1_RD_6_0.png","C_Dist_500_LN_8_LD_12_RN_4_RD_24_0.png"],["C_Dist_500_LN_1_LD_4_RN_12_RD_16_1.png","C_Dist_500_LN_1_LD_4_RN_9_RD_12_1.png","C_Dist_500_LN_1_LD_9_RN_11_RD_18_1.png","C_Dist_500_LN_10_LD_24_RN_22_RD_24_1.png","C_Dist_500_LN_2_LD_12_RN_10_RD_15_1.png","C_Dist_500_LN_2_LD_12_RN_12_RD_18_1.png","C_Dist_500_LN_2_LD_12_RN_4_RD_6_1.png","C_Dist_500_LN_2_LD_24_RN_7_RD_12_1.png","C_Dist_500_LN_2_LD_5_RN_18_RD_20_1.png","C_Dist_500_LN_2_LD_5_RN_9_RD_10_1.png","C_Dist_500_LN_2_LD_8_RN_12_RD_16_1.png","C_Dist_500_LN_2_LD_8_RN_21_RD_28_1.png","C_Dist_500_LN_3_LD_10_RN_4_RD_5_1.png","C_Dist_500_LN_3_LD_12_RN_15_RD_20_1.png","C_Dist_500_LN_3_LD_30_RN_6_RD_10_1.png","C_Dist_500_LN_3_LD_8_RN_14_RD_16_1.png","C_Dist_500_LN_4_LD_16_RN_15_RD_20_1.png","C_Dist_500_LN_4_LD_24_RN_12_RD_18_1.png","C_Dist_500_LN_5_LD_14_RN_6_RD_7_1.png","C_Dist_500_LN_7_LD_21_RN_20_RD_24_1.png","C_Dist_500_LN_7_LD_28_RN_12_RD_16_1.png","C_Dist_500_LN_7_LD_28_RN_9_RD_12_1.png","C_Dist_500_LN_9_LD_27_RN_20_RD_24_1.png"]],"dist500_I":[["I_Dist_500_LN_2_LD_3_RN_4_RD_24_0.png","I_Dist_500_LN_5_LD_6_RN_6_RD_18_0.png","I_Dist_500_LN_7_LD_8_RN_9_RD_24_0.png"],["I_Dist_500_LN_7_LD_21_RN_5_RD_6_1.png"]],"dist500_S":[["E_Dist_500_LN_6_LD_8_RN_6_RD_24_0.png"],["E_Dist_500_LN_2_LD_12_RN_2_RD_3_1.png","E_Dist_500_LN_6_LD_24_RN_6_RD_8_1.png"]]}},{"start_time":1552313830866,"click_time":1552313833796,"finger_time":1552313832334,"fix_duration":250,"trial":1,"RT":1468,"MT":1462,"sideResp":1,"stimulus":[],"xmouse":[777,777,777,777,777,777,777,777,777,777,777,778,778,778,778,778,778,778,778,778,778,778,778,778,778,778,778,778,778,778,778,778,778,778,778,778,778,778,778,778,778,778,778,778,778,778,778,778,778,778,778,778,778,778,778,777,773,768,763,762,762,762,761,760,759,759,759,759,759,759,757,753,749,735,731,729,729,729,729,729,726,717,699,641,594,532,470,391,391,391,391,391,391,391,391,391,391,391,391,391,391,391,392,392,384,374,361,346,329,317,303,284,265,231,222,216,216,216,218,220,224,233,244,252,252,250,249,249,249,249,248,247,242,234,228,222,219,216,215,216,221,232,290,340,384,421,448],"ymouse":[543,543,543,543,543,543,543,543,543,543,543,543,544,545,546,546,546,546,546,546,546,546,546,546,546,546,546,546,546,546,546,546,546,546,546,546,546,546,546,546,546,546,546,546,546,546,546,546,546,546,546,546,546,546,550,552,558,569,579,581,584,586,588,591,592,592,592,592,592,592,593,587,582,562,557,555,555,555,555,555,554,549,536,501,476,450,424,384,381,380,380,380,380,380,380,380,380,380,380,380,380,377,342,321,300,280,262,246,217,202,189,171,156,121,99,82,71,67,67,67,67,68,74,92,103,113,117,117,117,117,118,119,123,136,147,160,173,193,212,213,214,215,209,186,163,135,35],"timestamp_mouse":[11,32,48,68,88,107,127,148,169,189,208,229,249,268,289,309,329,348,367,389,409,427,447,469,489,508,528,548,569,589,608,629,648,668,689,708,727,748,769,789,807,828,848,869,888,907,928,949,969,989,1009,1029,1048,1069,1089,1108,1128,1148,1169,1188,1209,1228,1248,1268,1288,1308,1329,1349,1369,1388,1409,1428,1448,1468,1488,1508,1528,1549,1569,1588,1609,1629,1649,1667,1688,1708,1728,1749,1768,1788,1809,1829,1847,1869,1888,1909,1928,1949,1968,1988,2009,2028,2049,2068,2088,2109,2128,2148,2168,2188,2208,2228,2247,2267,2289,2308,2329,2348,2368,2387,2408,2428,2449,2467,2488,2507,2529,2549,2569,2588,2608,2628,2648,2667,2689,2708,2729,2748,2769,2788,2808,2828,2849,2867,2888,2908,2929],"xSR":741.5,"ySR":501.8,"xT1":424.9,"yT1":0,"xT2":1058.1,"yT2":0,"toosoon":0,"cond_shown":"Congruent","ratio_trial":300,"L_num":20,"L_den":25,"R_num":5,"R_den":10,"correct_side":1,"subjID":"Shirly Julieta Avendaño Campos 2","gender":"1","school":"4","age":"9"},{"start_time":1552313844306,"click_time":1552313847134,"finger_time":1552313846214,"fix_duration":250,"trial":2,"RT":1908,"MT":920,"sideResp":2,"stimulus":[],"xmouse":[804,804,804,804,804,804,804,804,804,804,804,804,804,804,804,804,804,804,804,804,804,804,804,804,804,804,804,804,804,804,804,804,804,804,804,804,804,804,804,804,804,804,804,804,804,804,804,804,804,804,804,804,804,804,804,804,804,804,804,803,803,801,800,800,799,798,798,796,795,794,794,793,792,791,791,791,790,790,789,789,788,788,788,788,788,788,788,788,788,788,788,788,788,789,790,790,790,790,790,788,771,754,740,739,739,738,738,738,738,740,746,753,787,809,833,849,857,874,880,886,889,894,911,921,925,927,927,928,929,932,944,961,989,993,995,997,1003,1033,1050,1055,1058,1062],"ymouse":[557,557,557,557,557,557,556,556,556,555,554,554,554,554,554,554,554,554,554,554,552,552,552,551,549,548,547,547,547,547,547,547,547,547,547,547,547,547,547,547,547,547,547,547,547,547,547,547,547,547,547,547,547,547,547,547,546,546,546,545,545,543,543,542,542,542,542,540,539,538,536,536,535,534,533,533,532,532,531,531,530,530,530,530,530,530,530,530,530,530,530,530,530,529,507,490,485,484,484,484,486,486,484,483,483,481,479,475,470,460,451,440,411,398,384,373,361,256,224,202,192,182,151,137,131,129,128,127,127,127,127,130,141,141,141,135,114,70,64,63,62,62],"timestamp_mouse":[12,32,48,68,88,107,128,149,168,188,209,228,248,267,289,308,329,347,368,388,409,427,449,468,489,508,527,549,569,588,609,629,649,668,687,707,729,748,768,789,807,829,849,868,889,907,929,949,969,988,1009,1029,1048,1069,1089,1109,1128,1148,1168,1187,1208,1229,1248,1268,1287,1309,1328,1348,1368,1388,1408,1428,1448,1469,1488,1508,1528,1548,1569,1589,1608,1629,1649,1668,1687,1709,1729,1749,1767,1787,1808,1829,1848,1868,1887,1908,1929,1949,1968,1988,2009,2028,2048,2068,2088,2108,2127,2149,2168,2188,2208,2227,2249,2268,2289,2308,2329,2348,2368,2388,2409,2428,2448,2468,2489,2509,2529,2548,2569,2588,2607,2628,2648,2669,2689,2708,2727,2748,2769,2788,2808,2828],"xSR":741.5,"ySR":501.8,"xT1":424.9,"yT1":0,"xT2":1058.1,"yT2":0,"toosoon":0,"cond_shown":"Incongruent","ratio_trial":200,"L_num":7,"L_den":10,"R_num":14,"R_den":28,"correct_side":1,"subjID":"Shirly Julieta Avendaño Campos 2","gender":"1","school":"4","age":"9"},{"start_time":1552313869106,"click_time":1552313871934,"finger_time":1552313871054,"fix_duration":1010.4263734977667,"trial":3,"RT":1948,"MT":880,"sideResp":2,"stimulus":[],"xmouse":[796,796,796,796,796,796,796,796,796,796,796,796,796,796,796,796,796,796,796,796,796,796,796,796,796,796,796,796,796,796,796,796,796,796,796,796,796,796,796,796,796,796,796,796,796,796,796,796,796,796,796,796,796,796,796,796,796,796,796,796,796,796,796,796,796,796,796,796,796,796,796,796,796,796,796,796,796,796,796,796,796,796,796,796,796,796,796,796,796,796,796,796,796,796,796,800,814,846,867,880,888,888,888,891,922,1126,1243,1388,1475,1531,1573,1573,1573,1573,1573,1573,1573,1573,1573,1573,1578,1564,1546,1524,1498,1451,1420,1400,1385,1375,1366,1361,1358,1353,1346,1321,1297,1278,1256,1229,1172,1147],"ymouse":[575,575,575,575,575,575,575,575,575,575,575,575,575,575,575,575,575,575,575,575,575,575,575,575,575,575,575,575,575,575,575,575,575,575,575,575,575,575,575,575,575,575,575,575,575,575,575,575,575,575,575,575,575,575,575,575,575,575,575,575,575,575,575,575,575,575,575,575,575,575,575,575,575,575,575,575,575,575,575,575,575,575,575,575,575,575,575,575,575,575,575,575,575,575,574,562,546,525,519,519,519,519,519,519,499,413,397,388,373,345,308,308,308,308,308,308,308,308,308,308,130,126,121,115,110,103,99,96,94,91,89,87,86,85,84,80,77,74,72,70,69,67],"timestamp_mouse":[17,39,47,67,88,109,127,148,169,189,207,228,249,269,287,309,329,348,368,389,408,429,449,468,489,508,528,547,568,589,608,628,649,668,687,709,728,749,769,787,809,829,849,869,888,909,928,949,968,989,1009,1029,1048,1069,1088,1108,1129,1149,1167,1188,1209,1228,1248,1267,1288,1309,1327,1349,1368,1388,1409,1428,1449,1469,1488,1509,1529,1549,1569,1589,1607,1629,1649,1668,1688,1709,1729,1749,1767,1789,1807,1828,1848,1869,1888,1908,1928,1948,1968,1987,2008,2029,2048,2068,2089,2108,2128,2148,2167,2189,2208,2228,2248,2268,2288,2307,2329,2348,2368,2388,2408,2428,2449,2468,2487,2508,2528,2548,2568,2588,2608,2627,2648,2667,2689,2708,2728,2748,2768,2788,2808,2827],"xSR":741.5,"ySR":501.8,"xT1":424.9,"yT1":0,"xT2":1058.1,"yT2":0,"toosoon":0,"cond_shown":"Congruent","ratio_trial":200,"L_num":20,"L_den":25,"R_num":9,"R_den":15,"correct_side":1,"subjID":"Shirly Julieta Avendaño Campos 2","gender":"1","school":"4","age":"9"},{"start_time":1552313875246,"click_time":1552313877654,"finger_time":1552313876834,"fix_duration":250,"trial":4,"RT":1588,"MT":820,"sideResp":2,"stimulus":[],"xmouse":[775,775,775,775,775,775,775,775,775,775,775,775,775,775,775,775,775,775,775,775,775,775,775,775,778,782,784,787,788,788,788,788,788,788,788,788,788,788,788,788,788,788,788,788,788,788,788,788,788,788,788,788,788,788,788,788,788,788,788,788,788,788,788,788,788,788,788,788,788,788,788,788,788,788,788,788,788,795,811,850,862,866,866,866,866,866,866,866,866,866,866,866,866,866,866,866,867,911,950,967,991,1023,1058,1094,1148,1166,1177,1179,1179,1171,1169,1168,1168,1168,1168,1165,1164,1159,1154,1150,1149],"ymouse":[598,598,598,598,598,598,598,598,598,598,598,598,598,598,598,598,598,598,598,598,598,598,598,596,591,585,582,578,571,570,570,570,570,570,570,570,570,570,570,570,570,570,570,570,570,570,570,570,570,570,570,570,570,570,570,570,570,570,570,570,570,570,570,570,570,570,570,570,570,570,570,570,570,570,570,570,570,570,568,562,560,560,560,560,560,560,560,560,560,560,560,560,560,560,560,560,560,529,478,452,416,372,327,280,207,181,161,149,147,145,144,144,144,144,137,130,125,116,108,100,96],"timestamp_mouse":[9,28,47,68,87,108,128,148,168,188,208,229,248,267,288,309,329,348,369,389,409,429,448,469,488,508,528,548,568,588,608,628,647,669,689,708,729,749,768,789,809,829,849,867,889,909,929,949,969,989,1007,1027,1047,1068,1089,1109,1128,1149,1169,1189,1208,1229,1248,1268,1288,1309,1328,1349,1368,1389,1408,1429,1448,1469,1488,1508,1528,1548,1568,1588,1608,1629,1649,1669,1689,1708,1728,1748,1769,1787,1807,1828,1849,1869,1889,1908,1928,1948,1969,1989,2008,2027,2049,2068,2087,2108,2128,2149,2167,2187,2209,2229,2249,2268,2287,2308,2328,2349,2368,2388,2408],"xSR":741.5,"ySR":501.8,"xT1":424.9,"yT1":0,"xT2":1058.1,"yT2":0,"toosoon":0,"cond_shown":"Congruent","ratio_trial":100,"L_num":2,"L_den":5,"R_num":11,"R_den":22,"correct_side":2,"subjID":"Shirly Julieta Avendaño Campos 2","gender":"1","school":"4","age":"9"},{"start_time":1552313881492,"click_time":1552313885895,"finger_time":1552313884235,"fix_duration":794.0553820255201,"trial":5,"RT":2743,"MT":1660,"sideResp":1,"stimulus":[],"xmouse":[766,766,766,766,766,766,766,766,766,766,766,766,766,766,766,766,766,766,766,766,766,766,766,766,766,766,766,766,766,766,766,766,766,766,766,766,766,766,766,766,766,766,766,766,766,766,766,766,766,766,766,766,766,766,766,766,766,766,766,766,766,766,766,766,766,766,766,766,766,766,766,766,766,766,766,766,766,766,766,766,766,766,766,766,766,766,766,766,766,766,766,766,766,766,766,766,766,766,766,766,766,766,766,766,766,766,766,766,766,766,766,766,766,766,766,766,766,766,766,766,766,766,766,766,766,766,766,766,766,766,766,766,766,766,766,783,810,972,1063,1128,1166,1202,1207,1213,1213,1213,1213,1213,1213,1213,1213,1214,1306,1351,1383,1418,1445,1478,1478,1478,1478,1478,1478,1478,1478,1478,1478,1478,1478,1478,1478,1478,1478,1478,1478,1478,1478,1478,1478,1478,1478,1478,1478,1478,1478,1478,1478,1478,1478,1478,1478,1478,1478,1478,18,28,44,65,68,70,70,72,74,80,82,85,86,87,87,87,87,86,85,81,83,95,117,154,308,408,501],"ymouse":[601,601,601,601,601,601,601,601,601,601,601,601,601,601,601,601,601,601,601,601,601,601,601,601,601,601,601,601,601,601,601,601,601,601,601,601,601,601,601,601,601,601,601,601,601,601,601,601,601,601,601,601,601,601,601,601,601,601,601,601,601,601,601,601,601,601,601,601,601,601,601,601,601,601,601,601,601,601,601,601,601,601,601,601,601,601,601,601,601,601,601,601,601,601,601,601,601,601,601,601,601,601,601,601,601,601,601,601,601,601,601,601,601,601,601,601,601,601,601,601,601,601,601,601,601,601,601,601,601,601,601,601,601,601,601,593,578,486,433,391,373,361,361,360,360,360,360,360,360,360,360,360,338,313,285,243,183,12,12,12,12,12,12,12,12,12,12,12,12,12,12,12,12,12,12,12,12,12,12,12,12,12,12,12,12,12,12,12,12,12,12,12,12,12,65,136,206,278,283,283,283,283,281,279,277,277,275,272,271,271,271,270,270,273,275,278,280,271,198,133,67],"timestamp_mouse":[8,23,43,62,82,102,123,142,161,183,203,224,244,263,283,304,324,343,363,382,404,424,444,463,482,502,522,543,563,582,602,623,643,663,682,704,724,743,764,783,804,824,844,862,882,904,923,944,963,983,1002,1023,1043,1064,1082,1104,1123,1144,1163,1184,1203,1222,1243,1262,1283,1304,1324,1343,1364,1383,1404,1424,1443,1463,1484,1504,1523,1543,1564,1584,1603,1623,1643,1663,1683,1703,1723,1743,1764,1784,1804,1823,1842,1864,1883,1903,1924,1943,1963,1984,2003,2024,2043,2064,2083,2102,2123,2143,2163,2184,2203,2224,2242,2263,2282,2304,2324,2343,2362,2382,2403,2423,2443,2464,2482,2502,2522,2543,2564,2583,2603,2622,2644,2662,2684,2704,2723,2743,2762,2783,2803,2822,2842,2863,2882,2903,2924,2943,2963,2983,3002,3024,3044,3063,3083,3103,3122,3144,3162,3182,3202,3223,3243,3263,3283,3304,3323,3342,3364,3384,3404,3423,3444,3464,3483,3503,3524,3544,3564,3583,3603,3623,3644,3662,3684,3703,3724,3743,3764,3784,3803,3823,3843,3862,3882,3903,3923,3944,3962,3983,4003,4023,4043,4063,4083,4102,4122,4144,4162,4183,4202,4223,4242,4262,4283,4304,4323,4343,4362,4383,4402],"xSR":741.5,"ySR":501.8,"xT1":424.9,"yT1":0,"xT2":1058.1,"yT2":0,"toosoon":0,"cond_shown":"Incongruent","ratio_trial":100,"L_num":8,"L_den":16,"R_num":6,"R_den":10,"correct_side":2,"subjID":"Shirly Julieta Avendaño Campos 2","gender":"1","school":"4","age":"9"},{"start_time":1552313892786,"click_time":1552313893195,"finger_time":1552313892808,"fix_duration":250,"trial":6,"RT":22,"MT":387,"sideResp":2,"stimulus":[],"xmouse":[854,876,876,907,912,912,912,912,913,914,916,921,929,956,971,986,1001,1017,1044,1054,1065],"ymouse":[555,545,545,529,525,525,525,525,524,523,520,514,503,458,423,374,317,260,172,134,98],"timestamp_mouse":[22,39,49,68,89,109,129,150,169,188,209,229,248,270,288,308,328,348,370,389,408],"xSR":741.5,"ySR":501.8,"xT1":424.9,"yT1":0,"xT2":1058.1,"yT2":0,"toosoon":0,"cond_shown":"Incongruent","ratio_trial":300,"L_num":1,"L_den":2,"R_num":2,"R_den":10,"correct_side":1,"subjID":"Shirly Julieta Avendaño Campos 2","gender":"1","school":"4","age":"9"},{"start_time":1552313897775,"click_time":1552313899735,"finger_time":1552313899494,"fix_duration":936.7572452937557,"trial":7,"RT":1719,"MT":241,"sideResp":1,"stimulus":[],"xmouse":[803,803,803,803,803,803,803,802,802,802,802,802,802,802,802,802,802,802,802,802,802,802,802,802,802,802,802,802,802,802,802,802,802,802,801,798,798,798,798,798,798,798,798,798,798,798,798,798,798,798,798,798,798,798,797,797,797,797,797,795,794,791,790,789,789,789,789,789,789,789,789,788,787,786,786,786,786,786,786,786,786,786,786,785,781,766,757,746,735,724,713,686,671,655,634,583,559,537,524],"ymouse":[547,547,547,547,547,547,547,547,547,547,547,547,547,547,547,547,547,547,547,547,547,547,547,547,547,547,547,547,547,547,547,547,547,547,547,547,547,547,547,547,547,547,547,547,547,547,547,547,547,547,547,547,547,547,547,547,547,547,547,547,547,547,547,547,547,547,547,547,547,547,547,547,547,547,547,547,547,547,547,547,547,547,547,547,540,514,497,477,458,438,419,366,340,313,278,191,148,109,81],"timestamp_mouse":[8,30,41,60,79,100,120,140,161,180,199,220,241,260,280,300,320,341,359,379,401,420,441,461,481,499,520,540,559,581,599,621,640,660,679,701,719,741,760,780,799,820,841,861,880,899,921,941,960,980,1000,1020,1040,1060,1080,1100,1121,1141,1159,1179,1199,1221,1239,1259,1279,1301,1320,1340,1361,1380,1399,1420,1439,1460,1480,1499,1521,1540,1561,1581,1601,1620,1641,1661,1679,1700,1719,1740,1760,1781,1800,1820,1840,1860,1880,1900,1919,1940,1960],"xSR":741.5,"ySR":501.8,"xT1":424.9,"yT1":0,"xT2":1058.1,"yT2":0,"toosoon":0,"cond_shown":"Congruent","ratio_trial":300,"L_num":3,"L_den":12,"R_num":11,"R_den":20,"correct_side":2,"subjID":"Shirly Julieta Avendaño Campos 2","gender":"1","school":"4","age":"9"},{"start_time":1552313926634,"click_time":1552313929454,"finger_time":1552313928114,"fix_duration":978.7086504607735,"trial":8,"RT":1480,"MT":1340,"sideResp":1,"stimulus":[],"xmouse":[803,803,803,803,803,803,803,803,803,803,803,803,803,803,803,803,803,803,803,802,801,800,800,800,800,800,800,800,800,800,800,800,800,800,800,800,800,800,800,800,800,800,800,800,800,800,800,800,800,800,800,800,800,800,800,800,800,800,800,800,800,800,800,800,800,800,800,800,800,800,800,800,794,785,739,716,537,452,369,296,160,92,33,0,0,0,0,0,0,0,0,0,0,0,0,0,0,0,0,0,0,0,0,0,0,0,0,0,0,0,0,0,0,0,319,335,339,343,346,349,352,358,361,365,368,373,373,373,373,374,376,383,386,389,393,399,407,411,415,419,423,432],"ymouse":[556,556,556,556,556,556,556,556,556,556,556,556,556,556,556,556,556,556,556,556,556,556,556,556,556,556,556,556,556,556,556,556,556,556,556,556,556,556,556,556,556,556,556,556,556,556,556,556,556,556,556,556,556,556,556,556,556,556,556,556,556,556,556,556,556,556,556,556,556,556,556,556,554,551,533,524,450,420,386,351,275,225,175,136,96,85,0,0,0,0,0,0,0,0,0,0,0,0,0,0,0,0,0,0,0,0,0,0,0,0,0,0,0,0,8,30,35,41,45,50,54,61,63,65,66,67,67,67,67,67,67,67,67,67,67,67,68,70,71,73,75,81],"timestamp_mouse":[8,30,40,61,81,100,120,141,162,181,201,230,241,262,280,300,322,341,361,380,400,421,441,461,480,501,521,542,562,581,601,620,642,662,682,700,720,741,762,782,802,821,841,862,882,900,922,941,962,981,1001,1021,1041,1060,1081,1101,1121,1142,1162,1181,1201,1222,1241,1261,1282,1301,1321,1340,1361,1381,1401,1420,1441,1461,1480,1501,1521,1540,1560,1581,1601,1620,1641,1661,1681,1701,1720,1741,1762,1780,1802,1821,1840,1860,1880,1902,1922,1941,1960,1980,2002,2020,2040,2061,2080,2102,2121,2141,2162,2181,2202,2221,2242,2261,2281,2301,2321,2340,2362,2382,2401,2420,2441,2460,2481,2502,2520,2541,2561,2581,2602,2621,2641,2661,2681,2701,2721,2741,2761,2781,2800,2820],"xSR":741.5,"ySR":501.8,"xT1":424.9,"yT1":0,"xT2":1058.1,"yT2":0,"toosoon":0,"cond_shown":"Incongruent","ratio_trial":200,"L_num":7,"L_den":10,"R_num":12,"R_den":24,"correct_side":1,"subjID":"Shirly Julieta Avendaño Campos 2","gender":"1","school":"4","age":"9"},{"start_time":1552313931826,"click_time":1552313932815,"finger_time":1552313932236,"fix_duration":589.8504475619884,"trial":9,"RT":410,"MT":579,"sideResp":2,"stimulus":[],"xmouse":[785,785,785,785,785,785,785,785,785,785,785,785,785,784,783,783,782,779,773,765,752,715,692,668,651,646,642,642,642,642,642,645,651,659,670,685,726,755,806,832,863,958,1001,1048,1074,1081,1098,1099,1099,1096],"ymouse":[532,532,532,532,532,532,532,532,532,532,532,532,532,531,531,531,529,524,515,505,491,451,431,411,388,374,347,337,327,317,307,290,279,271,264,258,247,241,229,223,215,188,168,148,136,132,117,112,106,99],"timestamp_mouse":[10,30,49,68,89,108,129,150,169,190,209,229,250,268,290,309,329,348,369,389,410,429,449,469,489,509,529,549,570,589,609,628,648,668,688,709,728,748,768,788,810,829,849,868,889,908,929,949,969,989],"xSR":741.5,"ySR":501.8,"xT1":424.9,"yT1":0,"xT2":1058.1,"yT2":0,"toosoon":0,"cond_shown":"Congruent","ratio_trial":100,"L_num":10,"L_den":25,"R_num":3,"R_den":10,"correct_side":1,"subjID":"Shirly Julieta Avendaño Campos 2","gender":"1","school":"4","age":"9"},{"start_time":1552313934368,"click_time":1552313935035,"finger_time":1552313934815,"fix_duration":250,"trial":10,"RT":447,"MT":220,"sideResp":1,"stimulus":[],"xmouse":[774,774,774,774,774,773,773,773,773,773,773,773,773,773,773,773,773,773,773,769,762,749,731,709,681,592,555,520,490,472,462,461,461,461],"ymouse":[571,570,570,570,569,567,565,564,563,561,560,560,560,560,560,560,560,558,557,548,537,521,501,476,444,329,275,225,186,161,130,119,109,98],"timestamp_mouse":[11,27,48,67,87,107,126,147,167,187,207,226,248,268,286,308,326,347,366,387,406,427,447,467,487,507,526,548,567,587,606,627,646,667],"xSR":741.5,"ySR":501.8,"xT1":424.9,"yT1":0,"xT2":1058.1,"yT2":0,"toosoon":0,"cond_shown":"Incongruent","ratio_trial":200,"L_num":7,"L_den":10,"R_num":12,"R_den":24,"correct_side":1,"subjID":"Shirly Julieta Avendaño Campos 2","gender":"1","school":"4","age":"9"},{"start_time":1552313937099,"click_time":1552313937757,"finger_time":1552313937494,"fix_duration":962.9507267274535,"trial":11,"RT":395,"MT":263,"sideResp":1,"stimulus":[],"xmouse":[792,792,792,792,792,792,792,792,792,792,792,792,792,792,791,790,789,787,776,768,755,737,715,670,640,612,577,509,492,480,469,459,449],"ymouse":[538,538,538,538,538,538,538,538,538,538,538,538,538,538,536,535,533,530,510,498,480,458,435,393,363,331,288,198,178,159,139,121,92],"timestamp_mouse":[20,44,57,76,97,115,135,156,175,196,215,235,255,277,297,316,337,356,376,395,416,435,455,475,495,515,536,557,576,596,617,636,658],"xSR":741.5,"ySR":501.8,"xT1":424.9,"yT1":0,"xT2":1058.1,"yT2":0,"toosoon":0,"cond_shown":"Congruent","ratio_trial":200,"L_num":4,"L_den":8,"R_num":3,"R_den":10,"correct_side":1,"subjID":"Shirly Julieta Avendaño Campos 2","gender":"1","school":"4","age":"9"},{"start_time":1552313939868,"click_time":1552313940715,"finger_time":1552313940094,"fix_duration":1111.2599587094062,"trial":12,"RT":226,"MT":621,"sideResp":1,"stimulus":[],"xmouse":[800,800,800,800,800,800,800,800,800,800,800,799,793,780,759,699,674,648,625,613,591,577,564,550,538,532,532,532,532,532,532,532,532,532,532,532,532,532,533,533,528,523,515],"ymouse":[530,530,530,530,530,530,530,530,529,523,504,489,468,443,413,345,322,297,265,247,207,185,163,144,128,122,122,122,122,121,121,120,120,120,120,120,120,120,120,116,107,101,91],"timestamp_mouse":[11,36,47,68,87,108,127,147,167,187,206,226,247,267,286,307,327,346,366,387,407,426,446,467,488,507,527,547,566,586,608,626,647,668,687,707,726,747,767,786,807,827,847],"xSR":741.5,"ySR":501.8,"xT1":424.9,"yT1":0,"xT2":1058.1,"yT2":0,"toosoon":0,"cond_shown":"Congruent","ratio_trial":300,"L_num":1,"L_den":5,"R_num":3,"R_den":6,"correct_side":2,"subjID":"Shirly Julieta Avendaño Campos 2","gender":"1","school":"4","age":"9"},{"start_time":1552313945717,"click_time":1552313955815,"finger_time":1552313947355,"fix_duration":259.3627162002375,"trial":13,"RT":1638,"MT":8460,"sideResp":1,"stimulus":[],"xmouse":[820,820,820,820,820,820,820,820,820,820,820,820,820,820,820,820,820,820,820,820,820,820,820,820,820,819,819,819,819,819,819,819,819,819,819,819,819,819,819,819,818,818,817,817,817,817,817,817,817,817,817,817,817,817,814,813,811,810,809,809,809,809,809,809,809,808,807,806,805,804,804,804,804,804,804,804,804,803,802,799,797,796,794,794,794,794,794,794,794,794,794,794,794,794,794,794,794,794,794,794,794,794,794,794,794,794,794,794,794,794,794,794,794,794,794,794,794,794,794,794,794,794,794,794,794,794,794,794,794,794,794,794,794,794,794,794,790,786,782,774,770,764,761,758,752,751,748,746,744,744,744,744,744,744,744,744,744,744,744,744,744,744,744,744,744,744,744,744,744,744,744,743,743,742,741,740,739,738,738,737,737,737,737,737,737,737,737,737,737,737,737,737,737,737,737,737,737,737,737,737,737,737,737,737,737,737,737,737,737,737,737,737,737,737,737,737,737,737,737,737,737,737,737,737,737,737,737,737,737,737,737,737,737,737,737,737,737,737,737,737,737,737,737,737,737,737,737,737,738,738,738,738,738,738,738,738,738,738,738,738,738,738,738,738,738,738,738,738,738,738,738,738,738,738,738,738,738,738,738,738,738,738,738,738,738,738,738,738,738,738,738,738,738,738,738,738,739,739,743,751,752,754,755,757,759,759,759,759,759,759,759,759,759,759,759,759,759,759,759,759,759,759,759,759,759,759,759,759,760,760,760,760,760,760,761,762,763,765,766,769,769,769,769,769,769,769,769,769,769,760,754,748,740,734,720,712,700,685,673,652,642,634,629,625,617,612,605,598,588,578,578,578,578,578,578,578,578,578,578,578,578,578,578,578,578,578,578,578,578,578,578,578,578,578,578,578,578,578,578,578,578,578,578,578,578,578,578,578,578,578,578,578,578,578,578,578,578,578,578,578,578,578,578,578,578,578,578,578,578,578,578,578,578,578,578,578,578,578,578,578,578,578,578,578,578,578,578,578,578,578,476],"ymouse":[569,569,569,569,569,569,569,569,569,569,569,569,569,569,569,569,569,569,569,569,569,569,569,569,569,569,569,569,569,569,569,569,569,569,569,569,569,569,569,569,569,569,570,570,570,570,570,570,570,570,570,570,570,571,575,576,579,581,581,582,582,582,582,582,583,584,585,586,587,588,588,588,588,588,588,588,588,589,589,594,597,599,603,603,604,604,604,604,604,604,604,604,604,604,604,604,604,604,604,604,604,604,604,604,604,604,604,604,604,604,604,604,604,604,604,604,604,604,604,604,604,604,604,604,604,604,604,604,604,604,604,604,604,604,604,604,605,607,610,617,622,629,632,637,643,646,650,651,653,653,653,653,653,653,653,653,653,653,653,653,653,653,653,653,653,653,653,653,653,653,653,653,654,654,654,654,654,654,654,654,654,654,654,654,654,654,654,654,654,654,654,654,654,654,654,654,654,654,654,654,654,654,654,654,654,654,654,654,654,654,654,654,654,654,654,654,654,654,654,654,654,654,654,654,654,654,654,654,654,654,654,654,654,654,654,654,654,654,654,654,654,654,654,654,654,654,654,654,654,654,654,654,654,654,654,654,654,654,654,654,654,654,654,654,654,654,654,654,654,654,654,654,654,654,654,654,654,654,654,654,654,654,654,654,654,654,654,654,654,654,654,654,654,654,654,654,654,654,665,687,694,700,707,713,721,722,722,722,722,722,722,722,722,722,722,722,722,722,722,722,722,722,722,722,722,722,723,723,724,728,731,731,731,731,732,732,732,732,732,734,735,735,736,736,736,736,736,737,737,732,727,721,712,700,665,646,617,579,538,440,362,310,267,227,158,132,108,82,54,21,21,21,21,21,21,21,21,21,21,21,21,21,21,21,21,21,21,21,21,21,21,21,21,21,21,21,21,21,21,21,21,21,21,21,21,21,21,21,21,21,21,21,21,21,21,21,21,21,21,21,21,21,21,21,21,21,21,21,21,21,21,21,21,21,21,21,21,21,21,21,21,21,21,21,21,21,21,21,21,21,2],"timestamp_mouse":[1,19,38,59,78,98,122,138,158,179,198,218,238,258,278,299,318,338,359,378,399,418,438,458,479,498,518,539,559,578,598,619,638,657,679,699,719,739,758,778,798,818,838,859,879,897,919,938,959,978,1000,1018,1039,1058,1079,1097,1118,1137,1158,1179,1199,1219,1239,1259,1278,1298,1319,1339,1359,1379,1398,1418,1439,1459,1478,1499,1519,1538,1559,1578,1599,1618,1638,1658,1678,1698,1719,1738,1759,1778,1799,1819,1839,1859,1877,1899,1918,1938,1959,1978,1998,2019,2039,2059,2078,2098,2119,2138,2158,2178,2199,2219,2238,2259,2278,2298,2319,2338,2359,2378,2398,2419,2438,2457,2478,2498,2518,2538,2559,2578,2598,2619,2638,2658,2678,2698,2719,2738,2758,2778,2798,2817,2839,2859,2879,2897,2918,2939,2959,2978,2999,3019,3038,3059,3079,3098,3118,3138,3157,3178,3199,3219,3238,3258,3279,3298,3318,3338,3358,3379,3398,3418,3438,3458,3478,3498,3519,3538,3560,3578,3598,3619,3639,3659,3678,3698,3719,3738,3758,3779,3798,3819,3838,3858,3878,3899,3918,3938,3959,3978,3998,4019,4039,4058,4078,4098,4118,4139,4158,4179,4199,4218,4238,4258,4278,4299,4319,4338,4358,4378,4398,4419,4438,4458,4479,4499,4519,4538,4559,4579,4598,4618,4637,4657,4678,4698,4718,4738,4758,4779,4799,4819,4839,4859,4878,4899,4919,4938,4957,4979,4999,5019,5038,5059,5078,5099,5118,5137,5159,5179,5198,5219,5239,5259,5279,5298,5319,5339,5358,5378,5398,5418,5438,5459,5478,5499,5518,5539,5558,5579,5598,5618,5638,5657,5679,5698,5719,5738,5759,5778,5798,5818,5839,5858,5879,5899,5919,5939,5957,5978,5998,6018,6039,6058,6078,6098,6119,6139,6159,6179,6198,6218,6238,6258,6278,6298,6318,6338,6359,6378,6398,6419,6438,6458,6478,6498,6519,6538,6558,6578,6599,6618,6639,6658,6678,6699,6718,6738,6758,6778,6799,6818,6839,6859,6878,6898,6919,6938,6958,6979,6999,7018,7038,7058,7079,7098,7118,7139,7159,7178,7199,7218,7238,7258,7278,7298,7318,7338,7359,7379,7398,7418,7438,7459,7478,7499,7519,7539,7558,7578,7598,7619,7638,7658,7678,7698,7718,7739,7758,7779,7798,7818,7838,7859,7878,7897,7918,7939,7959,7978,7999,8018,8038,8058,8079,8099,8118,8139,8158,8178,8199,8218,8238,8258,8278,8299,8319,8338,8359,8378,8399,8418,8438,8722,9594,9599,9619,9638,9659,9678,9699,9718,9739,9758,9778,9798,9818,9838,9858,9878,9898,9919,9938,9959,9979,9999,10019,10039,10058,10079,10098],"xSR":741.5,"ySR":501.8,"xT1":424.9,"yT1":0,"xT2":1058.1,"yT2":0,"toosoon":0,"cond_shown":"Congruent","ratio_trial":100,"L_num":8,"L_den":16,"R_num":2,"R_den":5,"correct_side":1,"subjID":"Shirly Julieta Avendaño Campos 2","gender":"1","school":"4","age":"9"},{"start_time":1552313961336,"click_time":1552313964096,"finger_time":1552313961895,"fix_duration":599.6890703981696,"trial":14,"RT":559,"MT":2201,"sideResp":1,"stimulus":[],"xmouse":[784,784,784,784,784,784,784,784,784,781,780,780,779,779,779,779,778,778,778,778,778,778,778,778,778,778,776,760,733,690,682,681,681,682,693,697,700,704,705,705,705,705,705,705,705,705,705,705,705,705,706,709,716,725,733,750,751,751,752,752,752,752,753,754,755,761,765,768,771,774,775,776,777,778,779,780,782,782,783,783,783,783,784,784,784,785,785,785,785,785,786,786,786,786,786,786,786,786,785,785,785,785,784,784,783,780,779,777,776,774,758,743,723,684,655,607,591,584,584,584,584,584,585,590,591,591,591,591,589,584,555,541,529,520,501,495,493,493,495],"ymouse":[524,524,524,524,524,524,524,524,524,530,533,539,542,547,553,556,558,560,562,563,564,564,564,564,564,564,565,566,563,551,545,539,530,516,473,459,448,441,439,439,439,439,439,439,439,439,439,439,439,439,439,439,443,455,472,499,502,503,504,505,507,509,510,512,513,513,512,510,508,507,507,507,507,507,507,506,504,503,501,500,500,499,498,497,496,494,494,494,493,493,493,493,492,492,492,492,492,492,492,492,492,492,491,491,485,476,470,461,451,439,394,360,326,262,227,181,170,164,164,164,164,164,164,164,164,164,164,164,164,164,156,149,144,139,129,123,112,106,99],"timestamp_mouse":[1,31,39,60,80,99,120,140,158,179,198,219,239,260,279,299,318,339,360,380,400,420,439,460,479,500,518,539,559,579,599,619,639,659,680,699,719,739,760,779,800,820,839,860,879,900,919,939,959,979,998,1020,1039,1060,1079,1100,1120,1139,1160,1179,1200,1219,1240,1259,1279,1299,1318,1339,1359,1379,1400,1419,1438,1460,1479,1500,1519,1539,1559,1579,1599,1620,1638,1660,1680,1699,1720,1740,1759,1780,1799,1819,1840,1860,1878,1899,1920,1939,1960,1980,2000,2020,2040,2059,2080,2099,2119,2139,2159,2179,2199,2220,2239,2260,2280,2299,2319,2339,2359,2379,2399,2419,2439,2459,2479,2500,2519,2539,2559,2579,2600,2619,2640,2659,2681,2699,2719,2740,2760],"xSR":741.5,"ySR":501.8,"xT1":424.9,"yT1":0,"xT2":1058.1,"yT2":0,"toosoon":0,"cond_shown":"Congruent","ratio_trial":300,"L_num":1,"L_den":5,"R_num":3,"R_den":6,"correct_side":2,"subjID":"Shirly Julieta Avendaño Campos 2","gender":"1","school":"4","age":"9"},{"start_time":1552313966944,"click_time":1552313967975,"finger_time":1552313967375,"fix_duration":1447.5401939779167,"trial":15,"RT":431,"MT":600,"sideResp":2,"stimulus":[],"xmouse":[801,803,803,803,801,798,797,797,797,797,797,797,796,796,794,794,794,794,794,807,821,852,883,914,976,996,1004,1007,1008,1011,1017,1024,1028,1032,1045,1056,1066,1076,1079,1083,1087,1090,1097,1104,1124,1129,1130,1130,1130,1130,1135,1141],"ymouse":[553,552,552,553,558,563,565,565,565,565,565,565,567,569,572,574,574,574,572,557,537,499,461,426,370,354,344,336,333,328,323,317,311,303,283,268,257,248,245,237,227,218,200,182,146,139,137,137,137,137,119,94],"timestamp_mouse":[14,30,51,71,91,111,132,152,172,192,212,232,251,271,291,311,332,351,372,390,412,431,451,472,492,511,531,551,572,591,612,631,652,671,692,711,731,751,771,791,812,831,851,871,891,911,932,952,972,991,1012,1031],"xSR":741.5,"ySR":501.8,"xT1":424.9,"yT1":0,"xT2":1058.1,"yT2":0,"toosoon":0,"cond_shown":"Congruent","ratio_trial":200,"L_num":16,"L_den":30,"R_num":9,"R_den":27,"correct_side":1,"subjID":"Shirly Julieta Avendaño Campos 2","gender":"1","school":"4","age":"9"},{"start_time":1552313973948,"click_time":1552313975375,"finger_time":1552313974916,"fix_duration":1192.833487004942,"trial":16,"RT":968,"MT":459,"sideResp":1,"stimulus":[],"xmouse":[800,801,801,802,803,804,805,805,805,805,805,805,805,805,805,805,805,805,805,805,805,805,805,805,805,805,805,805,805,805,805,805,805,805,805,805,805,805,805,805,805,804,802,801,799,797,796,785,776,763,730,704,681,656,627,591,577,569,565,561,559,558,558,557,556,552,543,540,525,514,489,478],"ymouse":[532,530,528,525,521,518,517,516,516,516,516,516,516,516,516,516,516,516,515,515,514,514,514,514,514,514,514,514,514,514,514,514,514,514,514,514,514,514,514,514,514,514,514,514,514,514,514,506,494,476,434,401,370,337,302,259,238,227,221,215,211,210,209,206,205,199,187,183,164,149,115,98],"timestamp_mouse":[14,32,48,67,87,107,128,147,168,187,207,226,247,267,287,307,328,347,368,387,407,428,447,468,487,508,528,547,568,587,608,627,648,668,687,708,727,747,766,786,808,826,847,867,887,907,928,947,968,987,1007,1026,1047,1068,1087,1107,1130,1147,1168,1187,1207,1228,1246,1267,1288,1307,1327,1347,1367,1387,1407,1427],"xSR":741.5,"ySR":501.8,"xT1":424.9,"yT1":0,"xT2":1058.1,"yT2":0,"toosoon":0,"cond_shown":"Incongruent","ratio_trial":100,"L_num":2,"L_den":4,"R_num":8,"R_den":20,"correct_side":1,"subjID":"Shirly Julieta Avendaño Campos 2","gender":"1","school":"4","age":"9"},{"start_time":1552313979187,"click_time":1552313982915,"finger_time":1552313982596,"fix_duration":709.8055030357235,"trial":17,"RT":3409,"MT":319,"sideResp":1,"stimulus":[],"xmouse":[776,776,776,776,776,776,776,776,776,776,776,776,776,776,776,776,776,776,776,776,776,776,776,776,776,776,776,776,776,776,776,776,776,776,776,776,776,776,776,776,776,776,776,776,776,776,776,776,776,776,776,776,776,776,776,776,776,776,776,776,776,776,776,776,776,776,776,776,776,776,776,776,776,776,776,776,776,776,776,776,776,776,776,776,776,776,776,776,776,776,776,776,776,776,776,776,776,776,776,776,776,776,776,776,776,776,776,776,776,776,776,776,776,776,776,776,776,776,776,776,776,776,776,776,776,776,776,776,776,776,776,776,776,776,776,776,776,776,776,776,776,776,776,776,776,776,776,776,776,776,776,776,776,776,776,776,776,776,781,790,790,790,790,790,790,790,790,790,790,791,791,790,756,756,756,756,756,756,756,756,756,756,756,756,756,756,483],"ymouse":[595,595,595,595,595,595,595,595,595,595,595,595,595,595,595,595,595,595,595,595,595,595,595,595,595,595,595,595,595,595,595,595,595,595,595,595,595,595,595,595,595,595,595,595,595,595,595,595,595,595,595,595,595,595,595,595,595,595,595,595,595,595,595,595,595,595,595,595,595,595,595,595,595,595,595,595,595,595,595,595,595,595,595,595,595,595,595,595,595,595,595,595,595,595,595,595,595,595,595,595,595,595,595,595,595,595,595,595,595,595,595,595,595,595,595,595,595,595,595,595,595,595,595,595,595,595,595,595,595,595,595,595,595,595,595,595,595,595,595,595,595,595,595,595,595,595,595,595,595,595,595,595,595,595,595,595,595,595,593,590,590,590,590,590,590,590,590,590,590,572,408,224,1,1,1,1,1,1,1,1,1,1,1,1,1,1,8],"timestamp_mouse":[8,37,48,68,89,109,129,148,168,188,209,227,248,269,288,309,328,349,369,389,409,429,448,469,489,509,528,549,569,588,609,628,649,668,689,708,729,748,768,789,808,829,848,868,888,908,929,949,968,988,1009,1028,1048,1068,1089,1108,1129,1148,1169,1189,1207,1229,1249,1269,1288,1309,1329,1349,1368,1388,1409,1429,1449,1468,1488,1509,1529,1549,1569,1589,1608,1629,1649,1669,1689,1708,1728,1749,1769,1789,1809,1828,1849,1869,1888,1909,1928,1949,1969,1988,2008,2028,2048,2068,2089,2109,2128,2149,2169,2188,2209,2228,2249,2269,2289,2309,2329,2349,2368,2389,2409,2428,2447,2468,2488,2509,2529,2548,2569,2589,2609,2628,2649,2669,2689,2709,2728,2749,2768,2789,2808,2829,2849,2869,2889,2908,2928,2948,2968,2989,3008,3028,3048,3069,3089,3108,3129,3149,3168,3188,3209,3228,3248,3269,3288,3309,3328,3349,3368,3387,3409,3428,3448,3469,3489,3508,3528,3548,3569,3589,3608,3629,3649,3667,3688,3709,3728],"xSR":741.5,"ySR":501.8,"xT1":424.9,"yT1":0,"xT2":1058.1,"yT2":0,"toosoon":0,"cond_shown":"Incongruent","ratio_trial":100,"L_num":3,"L_den":5,"R_num":8,"R_den":16,"correct_side":1,"subjID":"Shirly Julieta Avendaño Campos 2","gender":"1","school":"4","age":"9"},{"start_time":1552313988548,"click_time":1552313992576,"finger_time":1552313989995,"fix_duration":250,"trial":18,"RT":1447,"MT":2581,"sideResp":1,"stimulus":[],"xmouse":[790,790,790,790,790,790,790,790,790,790,790,790,790,790,790,790,790,790,790,790,790,790,790,790,790,790,790,790,790,790,790,790,790,790,790,790,790,790,790,790,790,790,790,790,790,790,790,790,792,792,792,792,792,792,792,792,792,792,792,792,792,792,792,792,792,792,792,792,792,792,789,783,749,705,644,568,485,376,363,362,363,368,374,377,378,381,384,385,389,391,395,396,396,396,396,396,396,396,396,396,396,399,400,402,402,402,402,402,402,402,402,402,401,392,376,350,299,112,6,0,0,0,0,0,0,0,0,1,2,9,24,78,78,78,78,78,78,78,78,78,78,78,78,78,78,78,78,78,78,78,78,78,78,78,78,78,78,78,78,78,78,78,78,78,78,78,78,78,78,78,78,78,78,78,78,78,78,78,78,78,78,78,78,78,78,78,78,78,78,78,631,631,631,631,631,631,631,621,610,580,556,524],"ymouse":[565,565,565,565,565,565,565,565,565,565,565,565,565,565,565,565,565,565,565,565,565,565,565,565,565,565,565,565,565,565,565,565,565,565,565,565,565,565,565,565,565,565,565,565,565,564,563,561,560,560,560,560,560,560,560,560,560,560,559,559,559,559,559,559,559,559,559,559,559,557,552,544,493,432,360,279,205,119,110,106,104,103,100,98,97,94,90,89,86,85,83,82,82,82,82,82,82,82,82,82,82,81,80,80,80,80,80,80,80,80,80,80,80,82,90,97,112,152,158,160,160,160,158,158,158,157,157,155,142,107,73,7,7,7,7,7,7,7,7,7,7,7,7,7,7,7,7,7,7,7,7,7,7,7,7,7,7,7,7,7,7,7,7,7,7,7,7,7,7,7,7,7,7,7,7,7,7,7,7,7,7,7,7,7,7,7,7,7,7,7,8,10,11,11,11,11,12,13,15,17,19,22],"timestamp_mouse":[7,27,47,66,88,108,127,148,167,187,207,228,248,268,288,308,328,348,368,388,408,428,448,468,488,507,527,546,567,588,607,628,647,668,687,708,727,747,768,787,808,828,848,868,888,907,927,947,967,987,1008,1028,1048,1068,1088,1108,1127,1148,1167,1187,1208,1228,1248,1268,1288,1308,1327,1348,1367,1387,1408,1428,1447,1467,1488,1508,1527,1547,1568,1587,1607,1628,1648,1667,1687,1706,1729,1747,1767,1787,1808,1828,1847,1868,1888,1907,1928,1947,1967,1987,2008,2029,2047,2067,2088,2107,2127,2148,2167,2188,2207,2228,2247,2268,2287,2307,2327,2347,2368,2388,2407,2427,2447,2467,2487,2508,2528,2547,2567,2586,2607,2627,2647,2667,2688,2708,2728,2748,2767,2788,2807,2828,2848,2868,2887,2907,2929,2948,2968,2988,3007,3027,3048,3067,3088,3107,3128,3147,3167,3187,3208,3227,3247,3268,3288,3308,3327,3348,3368,3388,3408,3428,3448,3468,3487,3508,3527,3548,3567,3587,3607,3627,3647,3668,3687,3707,3728,3747,3767,3787,3808,3828,3847,3868,3887,3907,3927,3947,3967,3987,4007,4027],"xSR":741.5,"ySR":501.8,"xT1":424.9,"yT1":0,"xT2":1058.1,"yT2":0,"toosoon":0,"cond_shown":"Incongruent","ratio_trial":100,"L_num":1,"L_den":2,"R_num":8,"R_den":20,"correct_side":1,"subjID":"Shirly Julieta Avendaño Campos 2","gender":"1","school":"4","age":"9"},{"start_time":1552314001449,"click_time":1552314002815,"finger_time":1552314001956,"fix_duration":1011.6478424906057,"trial":19,"RT":507,"MT":859,"sideResp":1,"stimulus":[],"xmouse":[770,770,770,770,770,770,770,770,770,770,770,770,771,773,774,775,775,775,773,757,752,746,745,743,742,740,739,736,734,721,714,711,710,709,709,709,709,709,709,709,709,709,709,709,709,709,709,709,700,692,688,686,681,675,671,669,667,664,651,641,634,624,612,583,569,554,542,533,521],"ymouse":[578,578,578,578,578,578,578,578,577,576,575,574,573,569,567,565,564,564,560,552,551,548,547,539,534,529,524,517,512,499,494,491,490,489,489,488,488,488,488,488,488,486,484,472,458,442,420,393,337,297,271,245,227,203,195,192,190,190,187,182,178,171,164,147,137,127,117,109,95],"timestamp_mouse":[10,29,47,66,87,106,127,146,166,186,206,226,245,266,286,306,326,346,366,387,406,427,446,466,486,507,526,547,566,587,605,626,647,666,686,706,726,746,767,787,806,827,846,866,886,906,926,947,966,986,1006,1026,1046,1066,1086,1106,1127,1147,1166,1186,1206,1227,1246,1266,1286,1306,1326,1346,1366],"xSR":741.5,"ySR":501.8,"xT1":424.9,"yT1":0,"xT2":1058.1,"yT2":0,"toosoon":0,"cond_shown":"Incongruent","ratio_trial":100,"L_num":9,"L_den":10,"R_num":20,"R_den":25,"correct_side":1,"subjID":"Shirly Julieta Avendaño Campos 2","gender":"1","school":"4","age":"9"},{"start_time":1552314011131,"click_time":1552314013976,"finger_time":1552314013016,"fix_duration":575.2190526453963,"trial":20,"RT":1885,"MT":960,"sideResp":1,"stimulus":[],"xmouse":[764,764,764,764,766,777,781,785,788,791,795,800,804,808,813,818,818,818,818,818,818,818,818,818,818,818,818,818,818,818,818,818,818,818,818,818,815,814,812,811,811,811,811,811,811,811,811,811,811,811,811,811,811,811,811,811,810,809,808,806,804,804,804,804,804,804,804,804,804,804,804,804,804,804,804,804,804,804,804,804,804,804,803,803,802,802,802,802,802,802,802,806,819,836,863,918,925,925,914,893,838,818,818,818,818,818,818,818,818,818,818,818,818,818,818,818,818,818,818,818,818,818,818,818,818,818,818,818,818,818,818,818,818,818,818,548,546,546,546,542,534,527,522],"ymouse":[516,516,516,516,516,516,518,518,519,520,522,525,527,529,532,536,537,537,537,537,538,538,538,538,538,538,538,538,538,538,538,538,538,538,538,539,539,539,539,539,539,539,539,539,539,539,539,539,539,539,539,539,539,539,539,539,537,536,533,529,524,523,523,523,523,523,523,523,523,523,523,523,523,523,523,523,523,523,523,523,523,524,527,529,530,530,530,530,530,530,531,528,519,506,474,362,300,232,169,115,28,8,8,8,8,8,8,8,8,8,8,8,8,8,8,8,8,8,8,8,8,8,8,8,8,8,8,8,8,8,8,8,8,8,8,6,9,10,10,14,18,21,22],"timestamp_mouse":[11,35,44,64,86,105,124,145,165,185,204,224,245,265,284,304,324,344,365,385,405,424,446,464,485,504,524,545,566,585,604,624,645,665,686,705,724,744,764,786,806,825,845,865,884,905,924,944,964,984,1006,1025,1044,1064,1086,1104,1124,1145,1164,1185,1204,1225,1244,1264,1284,1304,1326,1345,1366,1386,1404,1426,1446,1464,1485,1505,1526,1545,1566,1585,1604,1625,1644,1665,1686,1705,1724,1744,1765,1785,1805,1825,1845,1864,1885,1905,1925,1945,1965,1984,2005,2024,2045,2065,2085,2105,2125,2145,2164,2185,2204,2224,2244,2264,2284,2305,2325,2345,2364,2384,2404,2425,2445,2464,2484,2505,2525,2546,2566,2585,2605,2625,2644,2664,2684,2705,2724,2745,2765,2784,2805,2824,2845],"xSR":741.5,"ySR":501.8,"xT1":424.9,"yT1":0,"xT2":1058.1,"yT2":0,"toosoon":0,"cond_shown":"Congruent","ratio_trial":200,"L_num":14,"L_den":28,"R_num":6,"R_den":20,"correct_side":1,"subjID":"Shirly Julieta Avendaño Campos 2","gender":"1","school":"4","age":"9"},{"start_time":1552314016508,"click_time":1552314018676,"finger_time":1552314017037,"fix_duration":1330.822988215124,"trial":21,"RT":529,"MT":1639,"sideResp":2,"stimulus":[],"xmouse":[817,817,817,817,818,821,826,829,835,835,835,835,835,835,835,835,835,835,835,835,835,836,837,838,839,841,847,852,857,861,864,867,868,871,873,876,880,881,882,883,884,884,885,885,885,885,885,887,888,890,890,890,890,890,890,891,895,912,931,963,983,1006,1010,1010,1010,1010,1010,1010,1011,1016,1020,1022,1024,1026,1029,1033,1034,1042,1048,1050,1054,1059,1068,1073,1074,1076,1076,1077,1078,1080,1083,1085,1088,1088,1088,1088,1089,1095,1107,1116,1120,1124,1124,1124,1124,1124,1116,1112,1112],"ymouse":[514,514,514,514,513,512,509,509,507,507,507,507,507,507,507,507,507,507,507,507,507,507,507,507,507,506,503,499,495,493,491,488,486,484,481,476,469,467,466,465,462,461,459,458,458,458,455,451,443,432,409,390,347,323,299,280,267,261,258,243,228,184,167,155,151,151,151,151,150,150,150,151,151,151,151,152,152,153,155,155,156,156,158,158,158,158,158,158,158,158,156,153,148,146,145,145,143,139,134,130,128,127,126,126,126,124,115,111,97],"timestamp_mouse":[11,31,49,69,87,108,129,147,167,189,207,228,248,267,289,308,328,348,367,389,408,428,447,467,487,507,529,547,568,587,608,629,648,667,689,708,729,747,767,788,809,827,848,867,888,907,929,947,969,988,1007,1027,1047,1069,1087,1108,1128,1147,1167,1188,1208,1228,1247,1268,1287,1309,1328,1349,1367,1387,1407,1427,1448,1467,1488,1507,1528,1547,1568,1588,1608,1628,1648,1667,1688,1707,1728,1747,1767,1789,1809,1827,1847,1867,1888,1907,1928,1947,1968,1988,2008,2027,2047,2067,2089,2109,2128,2147,2168],"xSR":741.5,"ySR":501.8,"xT1":424.9,"yT1":0,"xT2":1058.1,"yT2":0,"toosoon":0,"cond_shown":"Congruent","ratio_trial":300,"L_num":24,"L_den":30,"R_num":2,"R_den":4,"correct_side":1,"subjID":"Shirly Julieta Avendaño Campos 2","gender":"1","school":"4","age":"9"},{"start_time":1552314038096,"click_time":1552314039535,"finger_time":1552314038495,"fix_duration":439.906491938897,"trial":22,"RT":399,"MT":1040,"sideResp":1,"stimulus":[],"xmouse":[755,755,755,755,755,755,755,754,756,772,775,775,775,775,775,775,776,781,798,873,911,940,959,975,980,975,966,950,928,891,758,701,648,600,530,511,498,493,492,492,492,492,492,492,492,492,492,492,492,511,524,532,536,537,539,541,541,543,544,544,542,539,534,528,514,506,497,490,482,472,472,470],"ymouse":[558,558,558,558,558,558,558,558,561,574,578,584,589,591,592,592,592,592,592,592,592,592,592,583,558,544,530,511,490,462,375,337,305,278,242,234,230,229,229,229,229,229,229,229,229,229,229,229,229,227,224,223,223,223,218,214,210,205,197,188,183,179,173,169,157,150,140,131,120,103,102,99],"timestamp_mouse":[26,39,59,79,99,120,140,159,180,199,220,239,260,279,300,319,339,359,379,399,420,439,461,480,500,519,541,559,579,599,621,639,659,680,699,719,739,760,779,799,820,840,859,880,900,919,940,959,980,1000,1021,1039,1060,1081,1099,1119,1139,1160,1179,1200,1219,1239,1259,1279,1300,1320,1341,1361,1381,1399,1419,1439],"xSR":741.5,"ySR":501.8,"xT1":424.9,"yT1":0,"xT2":1058.1,"yT2":0,"toosoon":0,"cond_shown":"Congruent","ratio_trial":200,"L_num":16,"L_den":30,"R_num":9,"R_den":27,"correct_side":1,"subjID":"Shirly Julieta Avendaño Campos 2","gender":"1","school":"4","age":"9"},{"start_time":1552314049767,"click_time":1552314051236,"finger_time":1552314050496,"fix_duration":250,"trial":23,"RT":729,"MT":740,"sideResp":1,"stimulus":[],"xmouse":[826,824,824,812,802,793,783,780,780,780,780,780,780,780,780,780,780,780,780,780,780,780,780,780,780,780,781,789,795,800,808,814,820,828,834,839,844,853,857,859,859,859,859,859,859,859,859,859,859,859,858,857,853,847,842,836,830,810,796,778,757,728,697,684,674,662,654,645,632,624,613,585,557,500],"ymouse":[556,556,556,566,574,580,587,589,589,589,589,589,589,589,589,589,589,589,589,589,589,589,589,589,589,589,589,589,589,589,588,585,582,574,568,561,553,537,529,524,522,521,521,521,521,521,521,518,514,509,501,498,487,468,456,444,429,392,369,345,318,285,245,227,216,204,195,189,180,175,169,152,135,96],"timestamp_mouse":[9,38,48,70,88,109,129,148,169,189,208,230,249,269,288,310,330,349,368,388,410,428,449,468,488,510,529,549,568,588,608,630,648,668,688,708,729,750,768,788,808,828,850,870,888,909,928,950,968,989,1008,1029,1048,1068,1088,1109,1129,1150,1168,1188,1208,1228,1250,1268,1288,1309,1328,1349,1369,1389,1408,1430,1448,1468],"xSR":741.5,"ySR":501.8,"xT1":424.9,"yT1":0,"xT2":1058.1,"yT2":0,"toosoon":0,"cond_shown":"Congruent","ratio_trial":200,"L_num":9,"L_den":20,"R_num":4,"R_den":16,"correct_side":1,"subjID":"Shirly Julieta Avendaño Campos 2","gender":"1","school":"4","age":"9"},{"start_time":1552314053179,"click_time":1552314054635,"finger_time":1552314053596,"fix_duration":442.7621522403492,"trial":24,"RT":417,"MT":1039,"sideResp":2,"stimulus":[],"xmouse":[816,819,824,825,826,826,826,827,828,829,829,829,830,830,831,832,833,834,835,840,846,854,879,893,912,932,950,972,972,972,972,972,972,972,972,972,972,972,972,972,970,1000,1080,1124,1158,1180,1191,1204,1207,1211,1213,1215,1216,1212,1203,1191,1178,1136,1124,1117,1116,1116,1116,1116,1116,1116,1116,1116,1116,1116,1117,1118,1119],"ymouse":[591,590,586,585,584,584,584,582,581,580,579,578,576,575,575,574,573,571,569,562,550,533,469,417,352,274,186,30,30,30,30,30,30,30,30,30,30,30,30,30,29,75,165,203,224,236,240,241,239,234,225,216,196,180,167,153,141,116,110,108,108,108,108,108,108,108,108,108,108,107,105,101,94],"timestamp_mouse":[18,38,57,76,97,118,136,157,177,197,217,236,258,276,297,318,336,356,377,398,417,436,456,477,496,516,536,557,576,596,617,637,658,677,696,717,737,757,777,796,816,836,856,876,897,918,937,957,977,996,1017,1037,1056,1077,1096,1116,1138,1157,1177,1196,1217,1236,1256,1278,1297,1317,1336,1357,1376,1396,1416,1436,1456],"xSR":741.5,"ySR":501.8,"xT1":424.9,"yT1":0,"xT2":1058.1,"yT2":0,"toosoon":0,"cond_shown":"Incongruent","ratio_trial":200,"L_num":7,"L_den":10,"R_num":8,"R_den":16,"correct_side":1,"subjID":"Shirly Julieta Avendaño Campos 2","gender":"1","school":"4","age":"9"},{"start_time":1552314056375,"click_time":1552314057495,"finger_time":1552314056815,"fix_duration":298.91761832840325,"trial":25,"RT":440,"MT":680,"sideResp":1,"stimulus":[],"xmouse":[813,813,813,813,813,813,812,811,810,810,810,810,810,810,810,810,809,808,804,801,796,790,783,755,726,687,654,633,618,616,616,616,616,616,616,616,616,616,616,616,616,616,616,616,616,616,616,616,616,616,616,616,616,616,616,486,488],"ymouse":[558,558,558,557,556,556,555,555,555,555,555,555,555,555,555,555,555,553,544,535,522,505,480,371,293,219,149,98,20,8,8,8,8,8,8,8,8,8,8,8,8,8,8,8,8,8,8,8,8,8,8,8,8,8,8,0,2],"timestamp_mouse":[9,21,41,60,80,100,122,141,161,182,200,221,241,260,282,300,321,340,360,381,401,421,440,462,480,500,520,542,561,581,601,621,640,660,680,700,720,740,760,781,800,820,841,861,881,901,921,942,961,982,1000,1020,1040,1061,1081,1101,1120],"xSR":741.5,"ySR":501.8,"xT1":424.9,"yT1":0,"xT2":1058.1,"yT2":0,"toosoon":0,"cond_shown":"Incongruent","ratio_trial":100,"L_num":2,"L_den":4,"R_num":8,"R_den":20,"correct_side":1,"subjID":"Shirly Julieta Avendaño Campos 2","gender":"1","school":"4","age":"9"},{"start_time":1552314059436,"click_time":1552314060376,"finger_time":1552314059855,"fix_duration":878.9457557077155,"trial":26,"RT":419,"MT":521,"sideResp":2,"stimulus":[],"xmouse":[811,816,817,817,817,817,817,817,817,817,817,817,817,817,817,817,817,817,817,817,817,812,799,765,730,663,647,638,636,635,634,634,634,635,649,665,717,760,810,862,949,977,998,1021,1032,1041,1054,1063],"ymouse":[535,537,537,537,537,537,537,537,537,537,537,537,537,537,537,537,537,537,536,535,530,500,460,346,255,99,56,35,26,22,22,22,22,21,21,21,23,26,27,27,33,36,39,42,45,46,48,49],"timestamp_mouse":[2,31,41,60,79,99,119,141,160,181,200,219,240,260,279,301,320,340,359,380,400,419,439,459,480,501,519,539,559,580,601,619,639,659,680,701,719,740,759,780,801,819,839,859,881,899,920,940],"xSR":741.5,"ySR":501.8,"xT1":424.9,"yT1":0,"xT2":1058.1,"yT2":0,"toosoon":0,"cond_shown":"Incongruent","ratio_trial":300,"L_num":4,"L_den":20,"R_num":2,"R_den":4,"correct_side":2,"subjID":"Shirly Julieta Avendaño Campos 2","gender":"1","school":"4","age":"9"},{"start_time":1552314063451,"click_time":1552314064855,"finger_time":1552314063976,"fix_duration":414.661548916622,"trial":27,"RT":525,"MT":879,"sideResp":2,"stimulus":[],"xmouse":[796,796,796,796,796,796,796,796,796,796,796,796,796,796,796,796,796,796,796,796,796,796,796,796,797,798,806,809,811,813,815,816,816,816,816,818,820,825,832,841,860,877,888,898,907,925,932,935,939,940,942,944,951,957,970,996,1008,1008,1008,1008,1008,1008,1008,1008,1008,1008,1008,1008,1008,1008,1061],"ymouse":[537,537,537,537,537,537,537,537,537,537,537,537,537,537,537,537,537,537,537,537,537,537,537,537,534,529,493,472,451,436,420,418,418,418,418,413,405,394,381,365,338,317,305,292,283,265,259,256,253,251,247,238,223,205,177,82,26,26,26,26,26,26,26,26,26,26,26,26,26,26,12],"timestamp_mouse":[8,24,45,65,85,105,124,145,165,186,205,224,245,265,286,306,325,345,365,385,404,426,446,465,484,504,525,545,564,585,604,624,645,665,685,704,724,744,764,784,804,824,844,865,884,904,924,945,965,984,1004,1024,1044,1066,1085,1104,1124,1144,1165,1185,1204,1224,1245,1265,1285,1304,1325,1344,1364,1385,1404],"xSR":741.5,"ySR":501.8,"xT1":424.9,"yT1":0,"xT2":1058.1,"yT2":0,"toosoon":0,"cond_shown":"Incongruent","ratio_trial":300,"L_num":4,"L_den":20,"R_num":2,"R_den":4,"correct_side":2,"subjID":"Shirly Julieta Avendaño Campos 2","gender":"1","school":"4","age":"9"},{"start_time":1552314069485,"click_time":1552314071436,"finger_time":1552314070875,"fix_duration":568.5654595543966,"trial":28,"RT":1390,"MT":561,"sideResp":1,"stimulus":[],"xmouse":[798,798,798,798,798,798,798,798,798,798,798,798,798,798,798,798,798,798,798,798,798,798,798,798,798,798,798,798,798,798,798,798,798,798,799,799,799,799,799,799,799,799,799,799,799,799,799,799,798,798,798,798,798,798,798,798,798,798,798,798,798,798,798,798,798,798,798,798,798,800,802,803,804,807,812,814,814,812,805,769,745,711,681,645,577,560,545,537,537,537,537,537,537,537,537,537,537,509],"ymouse":[516,515,513,512,510,510,508,508,507,507,506,506,506,506,506,506,506,506,506,506,506,506,506,506,506,506,505,505,505,505,505,505,505,505,506,506,506,506,506,506,506,506,506,506,506,506,506,506,506,506,506,506,506,506,506,506,506,506,506,506,506,506,506,506,506,506,506,506,505,500,496,492,486,477,453,439,414,391,365,295,255,208,162,121,42,23,7,0,0,0,0,0,0,0,0,0,0,1],"timestamp_mouse":[11,35,50,70,90,111,130,151,170,190,210,231,250,271,290,311,330,350,371,390,410,431,451,471,491,510,530,551,571,590,612,631,650,670,691,710,730,750,771,791,810,831,850,870,891,911,930,951,971,991,1010,1031,1051,1071,1091,1111,1132,1151,1171,1190,1211,1230,1250,1271,1290,1310,1331,1351,1370,1390,1410,1430,1450,1470,1490,1510,1530,1551,1570,1591,1610,1630,1650,1671,1690,1710,1730,1751,1771,1790,1810,1830,1850,1870,1890,1910,1932,1950],"xSR":741.5,"ySR":501.8,"xT1":424.9,"yT1":0,"xT2":1058.1,"yT2":0,"toosoon":0,"cond_shown":"Congruent","ratio_trial":300,"L_num":11,"L_den":22,"R_num":4,"R_den":20,"correct_side":1,"subjID":"Shirly Julieta Avendaño Campos 2","gender":"1","school":"4","age":"9"},{"start_time":1552314076944,"click_time":1552314078595,"finger_time":1552314078035,"fix_duration":1166.8000470309105,"trial":29,"RT":1091,"MT":560,"sideResp":1,"stimulus":[],"xmouse":[811,811,811,811,811,811,811,811,811,811,811,811,811,811,811,811,811,811,811,811,811,811,811,811,811,811,811,811,811,811,811,811,811,811,811,811,811,811,811,811,810,808,804,803,802,800,798,797,793,787,783,780,779,778,777,774,761,744,717,709,694,690,687,687,687,687,686,673,669,665,665,662,659,652,641,629,614,586,571,559,546,528,523],"ymouse":[584,584,584,584,584,584,584,584,584,584,584,584,584,584,584,584,584,584,584,584,584,584,584,584,584,584,584,584,584,584,584,584,584,584,584,584,584,584,584,584,584,584,584,584,584,584,584,584,584,581,573,561,524,504,481,457,393,353,307,297,274,264,255,255,255,255,255,253,252,251,251,250,249,245,240,229,217,179,159,137,106,78,73],"timestamp_mouse":[11,31,51,73,91,112,131,151,172,192,212,232,251,273,293,311,331,352,372,393,412,432,452,472,492,512,532,553,571,592,611,631,652,671,692,712,732,753,772,792,811,831,852,871,892,912,932,951,971,991,1011,1031,1051,1071,1091,1111,1133,1151,1171,1191,1211,1231,1252,1271,1291,1311,1332,1351,1372,1391,1412,1433,1451,1472,1491,1511,1532,1551,1571,1591,1611,1633,1651],"xSR":741.5,"ySR":501.8,"xT1":424.9,"yT1":0,"xT2":1058.1,"yT2":0,"toosoon":0,"cond_shown":"Incongruent","ratio_trial":300,"L_num":7,"L_den":10,"R_num":8,"R_den":20,"correct_side":1,"subjID":"Shirly Julieta Avendaño Campos 2","gender":"1","school":"4","age":"9"},{"start_time":1552314089602,"click_time":1552314091075,"finger_time":1552314089815,"fix_duration":485.84264355623264,"trial":30,"RT":213,"MT":1260,"sideResp":1,"stimulus":[],"xmouse":[819,819,819,819,819,819,820,821,823,827,842,864,881,902,917,936,983,1006,1027,1041,1051,1051,1051,1051,1051,1052,1052,1052,1052,1051,1048,1020,990,948,908,809,765,735,714,708,702,695,694,694,697,707,712,713,715,716,718,719,720,722,722,723,723,723,728,742,771,830,841,850,852,846,828,801,765,725,614,568,536,516],"ymouse":[569,569,569,569,569,569,570,570,570,570,577,595,605,614,618,623,640,650,659,665,669,669,669,669,669,669,670,670,670,671,671,670,665,658,647,618,605,596,587,581,567,550,540,530,522,513,511,511,511,510,510,510,510,510,511,519,524,531,543,559,578,596,592,581,566,518,473,413,356,287,122,63,23,1],"timestamp_mouse":[13,35,53,74,93,115,133,154,173,193,213,233,253,273,294,313,333,353,373,395,413,434,453,473,494,513,533,554,573,594,613,634,653,674,693,713,733,754,773,794,813,833,853,873,894,914,934,953,974,993,1015,1034,1053,1074,1093,1113,1134,1154,1173,1193,1213,1234,1254,1273,1293,1313,1334,1353,1373,1394,1413,1433,1453,1473],"xSR":741.5,"ySR":501.8,"xT1":424.9,"yT1":0,"xT2":1058.1,"yT2":0,"toosoon":0,"cond_shown":"Incongruent","ratio_trial":100,"L_num":2,"L_den":4,"R_num":6,"R_den":15,"correct_side":1,"subjID":"Shirly Julieta Avendaño Campos 2","gender":"1","school":"4","age":"9"},{"start_time":1552314094737,"click_time":1552314096575,"finger_time":1552314095276,"fix_duration":520.7396656958448,"trial":31,"RT":539,"MT":1299,"sideResp":1,"stimulus":[],"xmouse":[766,766,766,766,766,766,766,766,766,766,766,766,766,766,766,766,766,766,766,766,766,766,766,766,770,771,773,774,774,774,775,775,775,775,775,776,777,777,777,777,777,777,782,792,828,860,893,918,934,939,938,935,933,931,931,930,927,922,909,868,828,802,784,770,750,744,740,736,731,723,717,707,697,683,646,622,599,579,563,543,538,536,536,536,536,536,536,536,536,533,530,520],"ymouse":[548,548,548,548,548,548,548,548,548,548,548,548,548,548,548,548,548,548,548,548,548,543,534,526,511,506,501,499,497,495,492,491,489,488,485,484,482,482,481,481,480,477,474,467,445,421,388,350,308,251,220,209,203,202,201,201,199,198,192,169,145,126,109,97,81,79,78,78,77,76,75,75,75,75,76,76,76,76,76,76,76,75,75,75,75,75,75,75,75,75,75,78],"timestamp_mouse":[18,38,58,79,98,119,139,159,178,198,219,239,259,278,299,318,338,358,380,400,419,438,458,478,499,518,539,559,578,598,619,638,659,678,698,718,739,758,779,798,818,838,859,879,898,918,939,959,978,998,1019,1038,1059,1078,1098,1118,1139,1158,1178,1198,1218,1238,1259,1278,1298,1318,1339,1358,1379,1398,1418,1438,1459,1478,1498,1518,1538,1558,1578,1598,1619,1639,1659,1680,1699,1719,1739,1759,1779,1798,1818,1838],"xSR":741.5,"ySR":501.8,"xT1":424.9,"yT1":0,"xT2":1058.1,"yT2":0,"toosoon":0,"cond_shown":"Incongruent","ratio_trial":200,"L_num":1,"L_den":2,"R_num":3,"R_den":10,"correct_side":1,"subjID":"Shirly Julieta Avendaño Campos 2","gender":"1","school":"4","age":"9"},{"start_time":1552314099848,"click_time":1552314103916,"finger_time":1552314101255,"fix_duration":331.00380428250986,"trial":32,"RT":1407,"MT":2661,"sideResp":2,"stimulus":[],"xmouse":[831,831,831,831,831,831,831,831,831,831,831,831,830,825,818,814,810,807,802,800,800,799,800,807,831,836,840,840,840,840,840,839,838,836,830,826,823,819,815,807,803,798,795,792,790,790,790,790,790,789,788,788,788,788,780,776,774,774,774,774,774,774,774,774,774,774,774,774,768,754,740,725,711,706,683,665,645,630,621,617,617,617,615,608,596,592,590,589,589,589,589,589,589,589,589,589,589,589,588,586,581,580,575,568,547,531,512,491,469,433,419,409,400,391,384,384,384,384,384,384,384,384,384,384,382,383,383,384,385,385,385,385,385,385,385,392,397,404,410,418,435,441,456,461,474,491,499,507,519,531,557,569,591,609,630,678,700,729,759,823,865,911,979,1020,1086,1110,1133,1154,1173,1209,1221,1227,1232,1232,1232,1232,1229,1220,1204,1173,1158,1153,1146,1143,1143,1143,1143,1143,1143,1143,1143,1143,1143,1143,1143,1143,1143,1143,1143,1143,1143,1144,1144,1145],"ymouse":[592,592,592,592,592,592,592,592,592,592,592,589,587,582,579,578,577,576,573,572,572,571,570,564,546,537,532,530,529,528,528,528,529,531,537,538,540,541,544,549,552,558,561,563,564,564,564,564,564,562,560,560,560,559,562,563,563,563,563,563,563,563,563,563,563,563,563,563,563,562,555,549,541,537,524,519,515,512,511,511,517,533,555,591,631,642,647,647,647,647,647,647,647,647,647,647,647,648,648,648,648,648,650,656,669,681,692,704,715,728,729,731,731,731,732,732,732,732,732,732,732,732,732,732,731,724,717,711,707,705,703,703,703,702,694,664,643,620,595,571,516,490,451,440,408,372,356,348,340,334,331,329,325,323,320,313,309,302,292,271,256,245,233,227,217,214,209,201,191,167,155,146,136,133,132,131,130,130,127,121,118,116,114,114,114,114,114,114,114,114,114,114,114,112,110,108,108,108,107,107,105,104,102,98],"timestamp_mouse":[11,33,47,68,87,107,128,148,168,187,208,227,247,268,287,308,327,348,367,388,408,428,447,468,487,508,527,547,568,588,608,627,647,668,687,708,727,747,767,787,808,827,847,867,887,908,928,947,967,987,1007,1027,1047,1067,1087,1108,1127,1147,1168,1188,1207,1228,1247,1267,1287,1309,1327,1347,1367,1388,1407,1427,1447,1467,1488,1507,1527,1548,1567,1588,1608,1627,1647,1667,1688,1707,1727,1748,1767,1788,1808,1827,1847,1867,1888,1907,1927,1948,1967,1988,2008,2027,2047,2068,2088,2107,2127,2147,2168,2188,2207,2227,2247,2268,2287,2308,2327,2347,2368,2388,2407,2428,2447,2468,2487,2507,2527,2547,2567,2588,2608,2628,2648,2667,2688,2707,2727,2748,2767,2788,2807,2828,2847,2868,2887,2907,2928,2947,2967,2989,3007,3027,3048,3067,3087,3107,3127,3147,3167,3189,3207,3227,3247,3267,3288,3307,3327,3348,3368,3389,3407,3427,3448,3468,3487,3507,3527,3547,3568,3589,3607,3628,3647,3668,3688,3708,3727,3747,3767,3788,3807,3828,3847,3867,3889,3907,3927,3947,3967,3987,4007,4028,4048,4067],"xSR":741.5,"ySR":501.8,"xT1":424.9,"yT1":0,"xT2":1058.1,"yT2":0,"toosoon":0,"cond_shown":"Incongruent","ratio_trial":200,"L_num":4,"L_den":30,"R_num":1,"R_den":3,"correct_side":2,"subjID":"Shirly Julieta Avendaño Campos 2","gender":"1","school":"4","age":"9"},{"start_time":1552314112453,"click_time":1552314114895,"finger_time":1552314113676,"fix_duration":795.0548334057216,"trial":33,"RT":1223,"MT":1219,"sideResp":1,"stimulus":[],"xmouse":[781,781,781,781,781,781,781,781,781,781,781,782,783,783,783,783,784,784,784,784,784,784,784,784,784,783,782,782,782,781,781,781,781,781,781,781,781,781,781,781,781,781,781,781,781,781,781,781,781,781,781,781,780,780,779,776,775,773,770,769,766,758,754,749,742,721,710,696,676,659,645,617,610,608,606,606,600,598,591,587,581,569,564,561,558,556,552,548,544,542,538,529,525,520,516,512,509,508,508,508,507,503,502,500,499,498,498,498,498,498,498,498,498,498,498,498,498,498,498,498,498,498,496],"ymouse":[582,582,582,582,582,582,582,582,582,582,582,581,579,577,575,572,570,570,570,569,569,569,567,566,563,560,558,557,555,555,555,555,555,555,555,555,555,555,555,555,555,555,555,555,555,555,555,555,555,555,555,555,552,547,544,534,530,525,519,515,510,499,494,486,471,420,384,352,308,281,259,232,228,226,226,226,222,218,208,201,190,172,165,161,157,156,155,154,152,149,146,137,132,126,119,115,112,111,111,111,110,106,105,102,101,101,101,101,100,100,100,100,100,100,100,100,100,100,100,100,100,100,99],"timestamp_mouse":[2,32,42,62,83,103,122,143,163,183,202,223,242,262,282,304,322,342,364,382,403,423,443,463,482,503,522,542,562,582,603,623,643,662,682,703,722,743,763,782,803,823,842,864,883,902,923,943,962,983,1002,1022,1043,1062,1082,1104,1122,1143,1162,1183,1202,1223,1242,1262,1282,1304,1322,1343,1362,1382,1403,1422,1443,1462,1482,1503,1522,1543,1563,1582,1602,1622,1643,1662,1682,1703,1722,1743,1763,1783,1802,1822,1842,1862,1882,1903,1922,1942,1962,1983,2002,2022,2042,2062,2082,2103,2123,2143,2162,2182,2203,2222,2243,2262,2282,2303,2322,2342,2362,2383,2403,2423,2442],"xSR":741.5,"ySR":501.8,"xT1":424.9,"yT1":0,"xT2":1058.1,"yT2":0,"toosoon":0,"cond_shown":"Incongruent","ratio_trial":300,"L_num":7,"L_den":10,"R_num":8,"R_den":20,"correct_side":1,"subjID":"Shirly Julieta Avendaño Campos 2","gender":"1","school":"4","age":"9"},{"start_time":1552314130488,"click_time":1552314132057,"finger_time":1552314131016,"fix_duration":1150.9521771661575,"trial":34,"RT":528,"MT":1041,"sideResp":2,"stimulus":[],"xmouse":[814,813,807,806,804,802,801,801,800,799,799,799,799,799,798,798,798,798,798,798,797,797,796,795,793,793,790,789,788,788,790,806,817,827,838,848,872,891,906,923,939,981,1003,1022,1039,1054,1077,1080,1081,1082,1082,1082,1082,1082,1082,1082,1082,1084,1085,1086,1088,1092,1093,1093,1093,1093,1093,1093,1093,1093,1093,1093,1093,1093,1093,1093,1094,1094,1094],"ymouse":[544,544,543,543,543,542,542,542,542,542,542,542,542,542,542,542,542,542,542,542,540,536,531,525,516,510,493,484,469,458,447,416,400,384,367,351,319,298,283,268,256,230,218,206,195,186,172,170,169,169,169,169,169,168,168,167,160,155,149,144,140,133,133,133,133,133,132,124,118,116,115,115,115,115,115,115,111,106,96],"timestamp_mouse":[8,28,49,69,89,108,128,149,169,188,209,228,248,268,288,309,329,348,369,389,408,428,448,469,488,508,528,548,568,588,608,628,648,669,689,708,728,748,768,789,809,828,849,868,888,909,928,948,969,989,1008,1028,1048,1068,1089,1108,1128,1148,1168,1188,1209,1228,1249,1268,1288,1308,1328,1347,1368,1389,1408,1428,1448,1469,1489,1508,1528,1548,1569],"xSR":741.5,"ySR":501.8,"xT1":424.9,"yT1":0,"xT2":1058.1,"yT2":0,"toosoon":0,"cond_shown":"Incongruent","ratio_trial":100,"L_num":8,"L_den":16,"R_num":6,"R_den":10,"correct_side":2,"subjID":"Shirly Julieta Avendaño Campos 2","gender":"1","school":"4","age":"9"},{"start_time":1552314137616,"click_time":1552314139597,"finger_time":1552314138095,"fix_duration":879.3487461013725,"trial":35,"RT":479,"MT":1502,"sideResp":2,"stimulus":[],"xmouse":[786,786,786,786,786,786,786,786,786,786,786,786,786,786,786,782,780,779,779,779,779,779,779,779,779,779,779,779,779,779,779,779,779,779,779,779,771,762,760,759,759,763,769,774,780,791,796,801,808,813,819,830,836,841,845,848,850,852,859,887,917,1016,1102,1201,1304,1396,1558,1558,1558,1558,1558,1558,1558,1558,1558,1558,1558,1558,1558,1558,1558,1558,1558,1558,1558,1558,1279,1279,1279,1280,1281,1281,1279,1272,1259,1247,1213,1194,1164,1150],"ymouse":[533,533,533,533,533,533,533,533,533,533,533,533,533,533,533,532,532,531,531,531,531,530,525,514,500,480,437,426,424,424,424,423,423,423,423,423,437,470,482,526,552,583,590,593,595,597,598,599,600,601,603,604,605,605,606,607,607,607,607,607,607,582,546,485,391,273,30,30,30,30,30,30,30,30,30,30,30,30,30,30,30,30,30,30,30,30,6,16,26,29,30,33,35,36,40,41,52,56,66,73],"timestamp_mouse":[1,31,40,61,81,100,120,140,161,181,201,221,241,260,280,301,321,340,359,381,401,420,440,461,479,500,520,540,560,581,601,619,640,661,679,699,720,740,760,780,800,821,840,860,880,901,921,941,960,980,1000,1020,1040,1061,1080,1100,1119,1140,1160,1180,1200,1220,1240,1260,1280,1300,1320,1340,1361,1380,1401,1420,1441,1461,1481,1499,1521,1539,1560,1580,1599,1620,1640,1660,1680,1700,1719,1740,1760,1781,1801,1820,1840,1860,1880,1901,1920,1940,1960,1980],"xSR":741.5,"ySR":501.8,"xT1":424.9,"yT1":0,"xT2":1058.1,"yT2":0,"toosoon":0,"cond_shown":"Congruent","ratio_trial":100,"L_num":11,"L_den":22,"R_num":6,"R_den":15,"correct_side":1,"subjID":"Shirly Julieta Avendaño Campos 2","gender":"1","school":"4","age":"9"},{"start_time":1552314142082,"click_time":1552314143537,"finger_time":1552314142997,"fix_duration":925.3384673031848,"trial":36,"RT":915,"MT":540,"sideResp":1,"stimulus":[],"xmouse":[781,781,781,781,779,779,778,778,777,777,776,776,775,774,774,773,773,771,771,771,771,771,771,771,771,771,771,770,770,770,770,770,768,768,768,767,767,765,764,762,760,758,753,753,752,752,751,750,749,749,749,747,745,741,737,733,729,719,713,706,697,683,631,610,590,569,553,541,520,511,506,502,501],"ymouse":[581,581,581,581,581,581,581,581,581,581,581,581,581,581,580,580,580,579,579,579,579,579,579,579,579,579,579,579,579,579,579,579,579,579,579,579,579,578,577,575,571,564,534,519,505,491,481,473,472,471,466,461,449,435,421,406,390,358,344,332,319,304,267,249,230,208,188,168,131,115,106,100,98],"timestamp_mouse":[14,34,55,74,95,114,135,155,174,194,214,234,254,274,295,315,335,354,374,395,414,435,455,474,494,513,534,554,574,594,615,634,654,675,695,714,735,754,773,794,814,834,854,874,894,915,934,954,974,994,1014,1034,1054,1075,1094,1115,1134,1154,1173,1195,1214,1234,1254,1274,1294,1314,1335,1354,1375,1395,1414,1435,1455],"xSR":741.5,"ySR":501.8,"xT1":424.9,"yT1":0,"xT2":1058.1,"yT2":0,"toosoon":0,"cond_shown":"Congruent","ratio_trial":300,"L_num":24,"L_den":30,"R_num":8,"R_den":16,"correct_side":1,"subjID":"Shirly Julieta Avendaño Campos 2","gender":"1","school":"4","age":"9"},{"start_time":1552314146505,"click_time":1552314148617,"finger_time":1552314148116,"fix_duration":1487.6670172239824,"trial":37,"RT":1611,"MT":501,"sideResp":1,"stimulus":[],"xmouse":[796,796,796,796,796,796,796,796,796,796,796,796,796,796,796,796,796,796,796,796,796,796,796,796,796,796,796,796,796,796,796,796,796,796,796,796,796,796,796,796,796,796,796,796,796,796,796,796,796,796,796,796,796,796,796,796,796,796,796,796,796,796,796,796,796,796,796,796,796,796,796,796,796,796,796,796,796,795,795,794,785,775,769,765,755,744,731,695,655,624,589,561,510,493,480,472,467,467,468,473,473,475,476,476,476,476],"ymouse":[546,546,546,546,546,546,546,546,546,546,546,546,546,546,546,546,546,546,546,546,546,546,546,546,546,546,546,546,546,546,546,546,546,546,546,546,546,546,546,546,546,546,546,546,546,546,546,546,546,546,546,546,546,546,546,546,546,546,546,546,546,546,546,546,546,546,546,546,546,546,546,546,546,546,546,546,546,542,532,520,493,455,434,413,391,371,352,317,291,273,254,238,204,191,178,168,156,138,131,118,112,107,102,100,100,99],"timestamp_mouse":[11,31,51,72,92,111,131,152,171,191,211,231,251,271,291,311,331,351,371,391,411,431,451,471,491,510,532,551,571,592,611,632,651,671,692,712,731,752,771,792,811,832,852,872,892,911,931,952,971,991,1011,1031,1051,1072,1091,1110,1132,1151,1172,1192,1210,1231,1252,1271,1292,1312,1331,1352,1370,1392,1410,1431,1452,1471,1492,1511,1531,1551,1572,1592,1611,1632,1651,1671,1691,1711,1732,1751,1771,1791,1811,1832,1852,1871,1891,1911,1931,1951,1971,1991,2012,2031,2050,2071,2090,2112],"xSR":741.5,"ySR":501.8,"xT1":424.9,"yT1":0,"xT2":1058.1,"yT2":0,"toosoon":0,"cond_shown":"Congruent","ratio_trial":100,"L_num":10,"L_den":25,"R_num":3,"R_den":10,"correct_side":1,"subjID":"Shirly Julieta Avendaño Campos 2","gender":"1","school":"4","age":"9"},{"start_time":1552314151472,"click_time":1552314154276,"finger_time":1552314152576,"fix_duration":1294.446898310992,"trial":38,"RT":1104,"MT":1700,"sideResp":2,"stimulus":[],"xmouse":[800,800,800,800,800,800,800,800,800,800,800,800,800,800,800,800,800,800,800,800,800,800,800,800,800,800,800,800,800,800,800,800,800,800,800,800,800,800,800,800,800,800,800,800,800,800,800,800,800,800,800,800,800,807,841,857,871,881,888,901,906,915,925,936,944,961,972,984,996,1010,1043,1052,1059,1062,1065,1067,1070,1077,1087,1109,1137,1150,1160,1171,1180,1197,1205,1211,1215,1218,1218,1218,1218,1216,1210,1208,1204,1201,1195,1187,1180,1176,1173,1165,1147,1143,1143,1130,1110,1110,1110,1110,1110,1110,1110,1110,1110,1110,1110,1110,1110,1110,1110,1110,1110,1110,1110,1110,1110,1110,1110,1110,1110,1110,1110,1110,1110,1110,1110,1109,1109],"ymouse":[551,551,551,551,551,551,551,551,551,551,551,551,551,551,551,551,551,551,551,551,551,551,551,551,551,551,551,551,551,551,551,551,551,551,551,551,551,551,551,551,551,551,551,551,551,551,551,551,551,551,551,551,551,551,554,556,558,559,559,552,546,537,525,512,499,468,448,427,408,388,352,345,340,339,337,337,334,330,324,310,291,281,272,260,251,228,219,211,204,197,196,196,195,195,193,191,188,182,175,161,150,147,144,139,134,132,132,128,122,122,122,122,122,122,122,122,122,122,122,122,122,122,122,122,122,122,122,122,122,122,122,122,122,122,122,121,121,121,120,115,93],"timestamp_mouse":[10,29,44,65,84,104,125,144,165,185,205,225,244,265,284,305,324,344,365,384,403,424,445,465,485,503,525,545,565,585,605,625,645,664,684,704,724,744,765,785,805,824,844,865,884,905,925,945,965,984,1004,1025,1044,1063,1084,1104,1124,1145,1166,1184,1204,1224,1245,1264,1284,1304,1324,1344,1365,1384,1404,1424,1444,1465,1485,1504,1524,1545,1565,1585,1605,1624,1644,1664,1684,1704,1724,1744,1765,1785,1804,1825,1845,1865,1885,1904,1924,1944,1963,1984,2004,2023,2044,2064,2084,2104,2124,2144,2164,2185,2205,2225,2245,2264,2285,2304,2324,2345,2365,2385,2405,2424,2445,2464,2484,2505,2524,2544,2564,2584,2603,2624,2645,2664,2684,2704,2724,2744,2765,2785,2804],"xSR":741.5,"ySR":501.8,"xT1":424.9,"yT1":0,"xT2":1058.1,"yT2":0,"toosoon":0,"cond_shown":"Incongruent","ratio_trial":300,"L_num":13,"L_den":26,"R_num":12,"R_den":15,"correct_side":2,"subjID":"Shirly Julieta Avendaño Campos 2","gender":"1","school":"4","age":"9"},{"start_time":1552314163117,"click_time":1552314164617,"finger_time":1552314163896,"fix_duration":1020.7091974373968,"trial":39,"RT":779,"MT":721,"sideResp":1,"stimulus":[],"xmouse":[813,813,811,811,811,811,811,811,811,811,811,810,810,810,810,810,810,810,810,810,810,810,810,810,810,810,810,810,810,810,810,810,810,810,809,808,808,808,809,810,810,810,810,798,791,782,772,766,766,766,766,766,766,766,766,766,766,762,737,714,661,634,597,586,578,574,571,563,558,554,549,544,536,525,517],"ymouse":[529,529,528,528,528,528,528,528,528,528,528,528,528,528,528,528,528,528,528,528,528,528,528,528,528,528,528,528,528,528,528,528,528,528,527,524,518,514,480,457,430,408,372,296,271,244,223,210,209,209,209,209,209,209,209,209,209,206,188,172,141,118,93,83,78,76,74,73,72,70,69,67,65,61,58],"timestamp_mouse":[28,39,59,79,100,119,139,159,178,200,220,239,259,280,300,318,340,360,380,399,420,440,459,480,500,519,539,560,579,599,620,639,660,678,699,719,739,760,779,799,819,840,859,879,899,919,939,959,979,1000,1019,1039,1059,1079,1100,1120,1140,1160,1179,1200,1219,1240,1261,1279,1299,1319,1340,1361,1379,1399,1420,1440,1459,1479,1500],"xSR":741.5,"ySR":501.8,"xT1":424.9,"yT1":0,"xT2":1058.1,"yT2":0,"toosoon":0,"cond_shown":"Incongruent","ratio_trial":300,"L_num":1,"L_den":2,"R_num":3,"R_den":15,"correct_side":1,"subjID":"Shirly Julieta Avendaño Campos 2","gender":"1","school":"4","age":"9"},{"start_time":1552314167771,"click_time":1552314170356,"finger_time":1552314168357,"fix_duration":932.473885350436,"trial":40,"RT":586,"MT":1999,"sideResp":1,"stimulus":[],"xmouse":[786,786,786,786,786,786,786,786,786,786,786,786,786,786,786,786,786,786,786,786,786,786,786,788,789,793,803,803,803,802,801,798,798,797,796,796,796,796,796,796,791,777,768,756,722,722,722,722,722,722,722,722,722,722,722,722,722,722,722,722,722,722,722,722,722,722,722,722,722,722,722,722,722,722,722,722,722,722,722,722,722,722,722,722,722,722,722,722,722,722,722,722,722,722,722,722,722,722,722,722,722,722,595,641,711,775,839,839,839,838,831,799,776,749,722,698,645,626,609,590,572,546,537,533,530,530,529,529,527,524],"ymouse":[536,536,536,536,536,536,536,536,536,536,536,536,536,536,536,536,536,536,536,536,536,536,536,534,533,527,512,507,502,498,495,491,488,485,479,473,457,436,418,391,358,257,205,136,27,27,27,27,27,27,27,27,27,27,27,27,27,27,27,27,27,27,27,27,27,27,27,27,27,27,27,27,27,27,27,27,27,27,27,27,27,27,27,27,27,27,27,27,27,27,27,27,27,27,27,27,27,27,27,27,27,27,22,56,100,137,175,175,175,176,176,168,163,157,151,145,132,129,123,118,112,103,98,96,94,94,93,92,89,86],"timestamp_mouse":[11,35,45,65,85,104,126,145,166,185,205,225,245,265,286,304,325,346,365,385,406,425,444,465,485,505,524,545,565,586,605,625,645,665,685,706,724,746,765,786,805,825,845,866,884,906,925,946,965,986,1006,1025,1045,1066,1086,1105,1125,1146,1166,1186,1206,1225,1246,1265,1285,1305,1325,1346,1364,1386,1406,1426,1446,1465,1485,1506,1526,1546,1566,1585,1606,1625,1646,1666,1686,1706,1725,1746,1765,1786,1805,1825,1846,1866,1886,1906,1925,1945,1964,1985,2005,2026,2045,2065,2086,2106,2126,2146,2166,2185,2204,2226,2245,2266,2285,2305,2326,2346,2365,2385,2406,2425,2445,2465,2486,2505,2525,2546,2565,2585],"xSR":741.5,"ySR":501.8,"xT1":424.9,"yT1":0,"xT2":1058.1,"yT2":0,"toosoon":0,"cond_shown":"Incongruent","ratio_trial":300,"L_num":8,"L_den":10,"R_num":9,"R_den":18,"correct_side":1,"subjID":"Shirly Julieta Avendaño Campos 2","gender":"1","school":"4","age":"9"},{"start_time":1552314177583,"click_time":1552314179817,"finger_time":1552314178576,"fix_duration":885.8502499719256,"trial":41,"RT":993,"MT":1241,"sideResp":1,"stimulus":[],"xmouse":[771,771,771,771,771,771,771,771,771,771,771,771,771,771,771,771,771,771,771,771,771,771,771,771,771,771,771,771,771,771,771,771,771,771,771,771,771,771,771,771,771,771,771,770,766,762,755,749,746,741,736,728,724,719,712,703,674,659,642,629,616,609,609,609,609,609,609,609,607,603,599,583,578,571,563,553,541,521,513,509,508,508,508,509,510,512,517,521,527,536,545,562,568,577,583,590,595,595,595,595,595,595,595,595,595,595,595,595,595,595,595,450],"ymouse":[532,532,532,532,532,532,532,532,532,532,532,532,532,532,532,532,532,532,532,532,532,533,533,533,533,533,533,533,533,533,533,533,533,533,533,533,533,533,533,533,533,533,533,532,531,530,528,526,526,523,522,520,518,514,511,505,486,476,466,457,448,445,445,445,445,445,445,444,442,439,435,417,411,402,392,376,359,323,308,296,286,276,271,269,262,256,237,223,210,193,177,125,102,77,52,27,4,4,4,4,4,4,4,4,4,4,4,4,4,4,4,29],"timestamp_mouse":[13,33,53,74,94,113,133,154,173,193,214,233,254,274,293,314,332,353,374,392,413,433,453,473,494,514,532,554,574,592,614,633,653,674,694,713,733,753,773,793,814,833,853,873,893,913,933,953,973,993,1013,1033,1053,1072,1094,1113,1133,1153,1174,1194,1213,1233,1253,1273,1293,1313,1333,1354,1374,1394,1414,1434,1453,1473,1493,1513,1534,1553,1574,1594,1613,1633,1652,1673,1694,1713,1733,1753,1773,1794,1813,1834,1854,1873,1894,1914,1933,1953,1974,1994,2013,2034,2055,2072,2093,2113,2134,2154,2173,2194,2214,2234],"xSR":741.5,"ySR":501.8,"xT1":424.9,"yT1":0,"xT2":1058.1,"yT2":0,"toosoon":0,"cond_shown":"Congruent","ratio_trial":300,"L_num":4,"L_den":10,"R_num":1,"R_den":10,"correct_side":1,"subjID":"Shirly Julieta Avendaño Campos 2","gender":"1","school":"4","age":"9"},{"start_time":1552314195748,"click_time":1552314197456,"finger_time":1552314197376,"fix_duration":250,"trial":42,"RT":1628,"MT":80,"sideResp":1,"stimulus":[],"xmouse":[758,758,758,758,758,758,758,757,757,757,757,757,757,757,757,757,757,757,757,757,757,757,757,757,757,757,757,757,757,757,757,757,757,757,757,757,757,757,757,757,757,757,757,757,757,757,757,757,757,757,757,757,757,757,757,757,757,757,757,757,757,757,757,757,757,757,757,757,757,757,757,757,757,757,757,757,757,757,757,757,708,647,585,525,506],"ymouse":[584,584,584,584,584,584,584,584,584,584,584,584,584,584,584,584,584,584,584,584,584,584,584,584,584,584,584,584,584,584,584,584,584,584,584,584,584,584,584,584,584,584,584,584,584,584,584,584,584,584,584,584,584,584,584,584,584,584,584,584,584,584,584,584,584,584,584,584,584,584,584,584,584,584,584,584,584,584,584,583,515,428,321,159,20],"timestamp_mouse":[29,49,69,88,108,129,149,169,188,208,229,248,268,289,308,328,348,369,389,408,429,449,468,488,508,529,549,569,589,608,629,649,669,688,709,729,749,768,789,809,828,849,869,890,908,929,949,969,989,1008,1029,1048,1069,1089,1109,1129,1149,1169,1189,1208,1229,1249,1269,1289,1308,1328,1348,1369,1389,1408,1428,1449,1468,1488,1508,1528,1549,1570,1589,1609,1628,1648,1669,1688,1708],"xSR":741.5,"ySR":501.8,"xT1":424.9,"yT1":0,"xT2":1058.1,"yT2":0,"toosoon":0,"cond_shown":"Congruent","ratio_trial":100,"L_num":6,"L_den":20,"R_num":5,"R_den":25,"correct_side":1,"subjID":"Shirly Julieta Avendaño Campos 2","gender":"1","school":"4","age":"9"},{"start_time":1552314199347,"click_time":1552314200317,"finger_time":1552314199776,"fix_duration":250,"trial":43,"RT":429,"MT":541,"sideResp":1,"stimulus":[],"xmouse":[826,825,822,819,818,817,817,817,816,814,813,811,810,809,808,807,804,802,798,788,775,729,699,660,638,604,592,583,575,568,559,556,554,551,550,550,550,550,550,550,550,550,550,549,549,547,541,532,517],"ymouse":[568,568,568,568,568,568,568,568,568,568,568,567,567,567,567,566,565,563,559,552,539,497,469,425,398,351,332,312,293,277,242,226,211,190,179,171,160,156,153,150,148,145,143,139,137,134,122,112,98],"timestamp_mouse":[9,31,49,70,90,110,130,150,170,190,210,229,250,269,290,309,329,349,369,389,409,429,449,469,489,510,530,549,569,589,611,629,650,669,690,710,729,749,770,790,809,828,849,870,889,909,930,949,970],"xSR":741.5,"ySR":501.8,"xT1":424.9,"yT1":0,"xT2":1058.1,"yT2":0,"toosoon":0,"cond_shown":"Congruent","ratio_trial":200,"L_num":14,"L_den":28,"R_num":6,"R_den":20,"correct_side":1,"subjID":"Shirly Julieta Avendaño Campos 2","gender":"1","school":"4","age":"9"},{"start_time":1552314202462,"click_time":1552314206236,"finger_time":1552314202757,"fix