[{"start_time":1552314827875,"click_time":1552314830994,"finger_time":1552314830033,"fix_duration":637.6410836886029,"trial":0,"RT":2158,"MT":961,"sideResp":2,"stimulus":"img/500/randomdotsizeEA/R/9_Ratio_500_L_2_R_4.png","xmouse":[794,794,794,794,794,794,794,794,794,794,794,794,794,794,794,794,794,794,794,794,794,794,794,794,794,794,794,794,794,794,794,794,794,794,794,794,794,794,794,794,794,794,794,794,794,794,794,794,794,794,794,794,794,794,794,794,794,794,794,794,794,794,794,794,794,794,794,794,794,794,794,794,794,794,794,794,794,794,794,794,794,794,794,794,794,794,794,794,794,794,794,794,794,794,794,794,794,794,794,794,794,794,794,794,794,794,796,835,851,850,850,850,853,924,968,1002,1004,1004,1010,1026,1050,1091,1142,1255,1297,1324,1331,1334,1335,1335,1335,1335,1335,1325,1310,1275,1236,1196,1173,1161,1161,1160,1158,1155,1157,1158,1159,1159,1155,1151,1149,1145,1140,1135,1124,1119,1112],"ymouse":[527,527,527,527,527,527,527,527,527,527,527,527,527,527,527,527,527,527,527,527,527,527,527,527,527,527,527,527,527,527,527,527,527,527,527,527,527,527,527,527,527,527,527,527,527,527,527,527,527,527,527,527,527,527,527,527,527,527,527,527,527,527,527,527,527,527,527,527,527,527,527,527,527,527,527,527,527,527,527,527,527,527,527,527,527,527,527,527,527,527,527,527,527,527,527,527,527,527,527,527,527,527,527,527,527,527,525,505,506,510,510,510,505,448,433,429,429,429,424,409,386,352,305,210,166,114,89,70,50,45,40,37,36,34,44,80,121,153,172,179,179,179,173,162,156,145,137,127,112,108,107,107,107,107,105,101,90],"timestamp_mouse":[9,18,39,59,78,98,119,139,159,179,198,219,239,258,278,298,318,338,358,378,399,418,437,459,479,499,519,539,558,579,599,617,639,658,678,697,719,739,758,778,798,817,839,859,878,899,919,939,959,978,997,1019,1038,1058,1079,1099,1119,1139,1158,1179,1198,1218,1239,1258,1279,1299,1319,1339,1358,1377,1399,1419,1438,1458,1479,1499,1519,1539,1557,1578,1599,1619,1639,1658,1679,1699,1718,1738,1758,1778,1798,1819,1839,1858,1877,1899,1919,1938,1957,1978,1998,2019,2038,2058,2079,2099,2119,2138,2158,2179,2198,2219,2238,2259,2278,2298,2318,2338,2359,2378,2398,2418,2438,2458,2478,2499,2518,2537,2558,2578,2598,2619,2638,2659,2679,2698,2718,2739,2758,2778,2798,2818,2838,2859,2878,2898,2919,2938,2958,2978,2998,3019,3038,3058,3079,3098,3119],"xSR":741.5,"ySR":469.95,"xT1":424.9,"yT1":0,"xT2":1058.1,"yT2":0,"toosoon":0,"cond_shown":"randomdotsizeEA","ratio_trial":500,"smaller_num":"2","larger_num":"4","correct_side":2,"subjID":"shirlyjulietaavendaño2","gender":"1","age":"9","school":"4","test":{"fix_dur":[250,1500],"timestim":300,"targets_dim":[100,100],"targets_relative_coord":[0.3,0.7],"size_stim":[880,420],"start_dim":[100,100],"size_start":[300,300],"size_fix":60,"samplingrate":20,"img_types":["equaldotsize","equaldotanddens","randomdotsizeEA"],"ratios":[250,500,750,900],"rep_conds":9,"nTrials":120,"trials_to_rest":500,"Trials_order":[101,112,70,18,53,47,66,21,111,40,34,93,75,71,92,114,78,116,95,22,77,113,33,1,73,64,26,86,20,2,68,62,97,0,58,27,12,67,107,54,83,17,90,109,74,13,3,117,29,99,44,72,89,52,5,28,55,25,106,14,49,63,105,23,60,80,85,37,45,9,38,96,31,10,51,32,39,84,115,6,48,118,94,4,46,82,16,36,87,11,19,41,65,43,100,7,76,88,50,24,108,30,59,8,81,98,61,42,103,110,57,69,15,35,91,56,119,104,102,79],"cond_shown":["randomdotsizeEA","equaldotanddens","equaldotanddens","equaldotsize","randomdotsizeEA","randomdotsizeEA","equaldotsize","equaldotsize","equaldotsize","equaldotanddens","equaldotanddens","equaldotsize","equaldotsize","randomdotsizeEA","randomdotsizeEA","equaldotsize","equaldotsize","randomdotsizeEA","randomdotsizeEA","equaldotanddens","randomdotsizeEA","randomdotsizeEA","equaldotsize","equaldotanddens","equaldotanddens","equaldotanddens","randomdotsizeEA","randomdotsizeEA","randomdotsizeEA","randomdotsizeEA","randomdotsizeEA","randomdotsizeEA","equaldotanddens","equaldotsize","equaldotanddens","equaldotsize","equaldotsize","equaldotanddens","randomdotsizeEA","equaldotsize","randomdotsizeEA","randomdotsizeEA","equaldotsize","equaldotanddens","randomdotsizeEA","equaldotanddens","equaldotsize","equaldotsize","randomdotsizeEA","equaldotsize","randomdotsizeEA","equaldotsize","randomdotsizeEA","equaldotanddens","randomdotsizeEA","equaldotanddens","equaldotanddens","equaldotanddens","equaldotanddens","randomdotsizeEA","equaldotanddens","equaldotsize","equaldotsize","randomdotsizeEA","equaldotsize","randomdotsizeEA","equaldotanddens","equaldotanddens","equaldotsize","equaldotsize","randomdotsizeEA","equaldotsize","equaldotanddens","equaldotanddens","equaldotsize","randomdotsizeEA","equaldotsize","equaldotsize","equaldotanddens","equaldotsize","equaldotsize","equaldotanddens","equaldotanddens","equaldotanddens","equaldotanddens","equaldotanddens","equaldotanddens","equaldotsize","equaldotsize","randomdotsizeEA","equaldotanddens","randomdotsizeEA","randomdotsizeEA","equaldotanddens","equaldotanddens","equaldotanddens","equaldotanddens","equaldotanddens","randomdotsizeEA","equaldotsize","equaldotsize","equaldotsize","randomdotsizeEA","randomdotsizeEA","equaldotsize","randomdotsizeEA","equaldotanddens","equaldotsize","equaldotanddens","randomdotsizeEA","equaldotsize","equaldotsize","equaldotsize","randomdotsizeEA","equaldotanddens","randomdotsizeEA","randomdotsizeEA","randomdotsizeEA","equaldotsize","equaldotanddens"],"ratio_trial":[500,500,900,750,500,900,750,900,500,500,900,900,500,900,750,750,750,750,900,900,500,500,900,250,250,500,250,250,750,250,750,250,250,250,900,500,250,750,900,750,900,500,750,250,250,250,500,900,500,500,750,250,500,500,500,500,750,250,900,250,250,500,900,900,250,750,250,250,900,900,250,250,750,900,500,750,500,250,750,750,250,900,900,500,900,900,500,250,500,900,750,500,500,750,500,750,500,500,250,250,250,750,900,750,900,250,250,750,750,250,900,900,500,900,750,750,900,750,750,750],"smaller_num":["2","6","18","9","5","18","6","18","6","1","18","18","5","9","18","9","6","15","18","18","5","2","9","6","5","5","6","3","18","2","6","2","2","1","18","10","5","3","18","15","9","6","6","2","3","3","6","18","6","3","3","3","2","2","6","3","3","6","9","3","5","9","18","18","2","3","2","4","9","9","3","3","6","18","9","3","6","6","15","18","3","9","9","6","18","9","9","2","2","18","3","1","1","15","6","9","2","1","4","6","3","15","18","18","9","4","3","3","15","1","18","18","3","9","15","3","18","3","6","3"],"larger_num":["4","12","20","12","10","20","8","20","12","2","20","20","10","10","24","12","8","20","20","20","10","4","10","24","20","10","24","12","24","8","8","8","8","4","20","20","20","4","20","20","10","12","8","8","12","12","12","20","12","6","4","12","4","4","12","6","4","24","10","12","20","18","20","20","8","4","8","16","10","10","12","12","8","20","18","4","12","24","20","24","12","10","10","12","20","10","18","8","4","20","4","2","2","20","12","12","4","2","16","24","12","20","20","24","10","16","12","4","20","4","20","20","6","10","20","4","20","4","8","4"],"correct_side":[2,1,1,2,2,2,1,2,1,2,1,2,1,2,1,2,1,2,1,2,2,1,2,2,2,1,2,2,1,1,2,1,1,2,1,2,2,2,1,2,2,1,1,1,2,1,1,1,1,2,1,1,1,1,1,2,2,2,2,1,2,2,1,2,1,1,1,2,1,2,2,2,1,2,1,1,1,1,2,1,1,2,2,1,2,2,2,1,1,1,2,2,2,2,1,2,1,2,1,2,1,2,1,1,2,2,2,2,2,2,1,1,2,1,1,1,1,1,1,1],"img_shown":["img/500/randomdotsizeEA/R/9_Ratio_500_L_2_R_4.png","img/500/equaldotanddens/L/13_Ratio_500_L_12_R_6.png","img/900/equaldotanddens/L/8_Ratio_900_L_20_R_18.png","img/750/equaldotsize/R/15_Ratio_750_L_9_R_12.png","img/500/randomdotsizeEA/R/14_Ratio_500_L_5_R_10.png","img/900/randomdotsizeEA/R/9_Ratio_900_L_18_R_20.png","img/750/equaldotsize/L/13_Ratio_750_L_8_R_6.png","img/900/equaldotsize/R/13_Ratio_900_L_18_R_20.png","img/500/equaldotsize/L/13_Ratio_500_L_12_R_6.png","img/500/equaldotanddens/R/15_Ratio_500_L_1_R_2.png","img/900/equaldotanddens/L/2_Ratio_900_L_20_R_18.png","img/900/equaldotsize/R/12_Ratio_900_L_18_R_20.png","img/500/equaldotsize/L/7_Ratio_500_L_10_R_5.png","img/900/randomdotsizeEA/R/7_Ratio_900_L_9_R_10.png","img/750/randomdotsizeEA/L/6_Ratio_750_L_24_R_18.png","img/750/equaldotsize/R/15_Ratio_750_L_9_R_12.png","img/750/equaldotsize/L/13_Ratio_750_L_8_R_6.png","img/750/randomdotsizeEA/R/4_Ratio_750_L_15_R_20.png","img/900/randomdotsizeEA/L/10_Ratio_900_L_20_R_18.png","img/900/equaldotanddens/R/12_Ratio_900_L_18_R_20.png","img/500/randomdotsizeEA/R/14_Ratio_500_L_5_R_10.png","img/500/randomdotsizeEA/L/5_Ratio_500_L_4_R_2.png","img/900/equaldotsize/R/5_Ratio_900_L_9_R_10.png","img/250/equaldotanddens/R/6_Ratio_250_L_6_R_24.png","img/250/equaldotanddens/R/12_Ratio_250_L_5_R_20.png","img/500/equaldotanddens/L/7_Ratio_500_L_10_R_5.png","img/250/randomdotsizeEA/R/6_Ratio_250_L_6_R_24.png","img/250/randomdotsizeEA/R/9_Ratio_250_L_3_R_12.png","img/750/randomdotsizeEA/L/6_Ratio_750_L_24_R_18.png","img/250/randomdotsizeEA/L/7_Ratio_250_L_8_R_2.png","img/750/randomdotsizeEA/R/2_Ratio_750_L_6_R_8.png","img/250/randomdotsizeEA/L/7_Ratio_250_L_8_R_2.png","img/250/equaldotanddens/L/7_Ratio_250_L_8_R_2.png","img/250/equaldotsize/R/8_Ratio_250_L_1_R_4.png","img/900/equaldotanddens/L/10_Ratio_900_L_20_R_18.png","img/500/equaldotsize/R/3_Ratio_500_L_10_R_20.png","img/250/equaldotsize/R/12_Ratio_250_L_5_R_20.png","img/750/equaldotanddens/R/12_Ratio_750_L_3_R_4.png","img/900/randomdotsizeEA/L/2_Ratio_900_L_20_R_18.png","img/750/equaldotsize/R/4_Ratio_750_L_15_R_20.png","img/900/randomdotsizeEA/R/6_Ratio_900_L_9_R_10.png","img/500/randomdotsizeEA/L/11_Ratio_500_L_12_R_6.png","img/750/equaldotsize/L/13_Ratio_750_L_8_R_6.png","img/250/equaldotanddens/L/3_Ratio_250_L_8_R_2.png","img/250/randomdotsizeEA/R/4_Ratio_250_L_3_R_12.png","img/250/equaldotanddens/L/14_Ratio_250_L_12_R_3.png","img/500/equaldotsize/L/13_Ratio_500_L_12_R_6.png","img/900/equaldotsize/L/8_Ratio_900_L_20_R_18.png","img/500/randomdotsizeEA/L/13_Ratio_500_L_12_R_6.png","img/500/equaldotsize/R/2_Ratio_500_L_3_R_6.png","img/750/randomdotsizeEA/L/10_Ratio_750_L_4_R_3.png","img/250/equaldotsize/L/15_Ratio_250_L_12_R_3.png","img/500/randomdotsizeEA/L/5_Ratio_500_L_4_R_2.png","img/500/equaldotanddens/L/5_Ratio_500_L_4_R_2.png","img/500/randomdotsizeEA/L/13_Ratio_500_L_12_R_6.png","img/500/equaldotanddens/R/2_Ratio_500_L_3_R_6.png","img/750/equaldotanddens/R/12_Ratio_750_L_3_R_4.png","img/250/equaldotanddens/R/6_Ratio_250_L_6_R_24.png","img/900/equaldotanddens/R/6_Ratio_900_L_9_R_10.png","img/250/randomdotsizeEA/L/15_Ratio_250_L_12_R_3.png","img/250/equaldotanddens/R/12_Ratio_250_L_5_R_20.png","img/500/equaldotsize/R/6_Ratio_500_L_9_R_18.png","img/900/equaldotsize/L/2_Ratio_900_L_20_R_18.png","img/900/randomdotsizeEA/R/14_Ratio_900_L_18_R_20.png","img/250/equaldotsize/L/3_Ratio_250_L_8_R_2.png","img/750/randomdotsizeEA/L/10_Ratio_750_L_4_R_3.png","img/250/equaldotanddens/L/3_Ratio_250_L_8_R_2.png","img/250/equaldotanddens/R/10_Ratio_250_L_4_R_16.png","img/900/equaldotsize/L/1_Ratio_900_L_10_R_9.png","img/900/equaldotsize/R/7_Ratio_900_L_9_R_10.png","img/250/randomdotsizeEA/R/11_Ratio_250_L_3_R_12.png","img/250/equaldotsize/R/11_Ratio_250_L_3_R_12.png","img/750/equaldotanddens/L/13_Ratio_750_L_8_R_6.png","img/900/equaldotanddens/R/12_Ratio_900_L_18_R_20.png","img/500/equaldotsize/L/4_Ratio_500_L_18_R_9.png","img/750/randomdotsizeEA/L/10_Ratio_750_L_4_R_3.png","img/500/equaldotsize/L/13_Ratio_500_L_12_R_6.png","img/250/equaldotsize/L/5_Ratio_250_L_24_R_6.png","img/750/equaldotanddens/R/3_Ratio_750_L_15_R_20.png","img/750/equaldotsize/L/6_Ratio_750_L_24_R_18.png","img/250/equaldotsize/L/14_Ratio_250_L_12_R_3.png","img/900/equaldotanddens/R/3_Ratio_900_L_9_R_10.png","img/900/equaldotanddens/R/3_Ratio_900_L_9_R_10.png","img/500/equaldotanddens/L/13_Ratio_500_L_12_R_6.png","img/900/equaldotanddens/R/11_Ratio_900_L_18_R_20.png","img/900/equaldotanddens/R/3_Ratio_900_L_9_R_10.png","img/500/equaldotanddens/R/1_Ratio_500_L_9_R_18.png","img/250/equaldotsize/L/7_Ratio_250_L_8_R_2.png","img/500/equaldotsize/L/10_Ratio_500_L_4_R_2.png","img/900/randomdotsizeEA/L/8_Ratio_900_L_20_R_18.png","img/750/equaldotanddens/R/7_Ratio_750_L_3_R_4.png","img/500/randomdotsizeEA/R/12_Ratio_500_L_1_R_2.png","img/500/randomdotsizeEA/R/12_Ratio_500_L_1_R_2.png","img/750/equaldotanddens/R/5_Ratio_750_L_15_R_20.png","img/500/equaldotanddens/L/13_Ratio_500_L_12_R_6.png","img/750/equaldotanddens/R/15_Ratio_750_L_9_R_12.png","img/500/equaldotanddens/L/5_Ratio_500_L_4_R_2.png","img/500/equaldotanddens/R/12_Ratio_500_L_1_R_2.png","img/250/randomdotsizeEA/L/2_Ratio_250_L_16_R_4.png","img/250/equaldotsize/R/6_Ratio_250_L_6_R_24.png","img/250/equaldotsize/L/15_Ratio_250_L_12_R_3.png","img/750/equaldotsize/R/5_Ratio_750_L_15_R_20.png","img/900/randomdotsizeEA/L/10_Ratio_900_L_20_R_18.png","img/750/randomdotsizeEA/L/6_Ratio_750_L_24_R_18.png","img/900/equaldotsize/R/6_Ratio_900_L_9_R_10.png","img/250/randomdotsizeEA/R/10_Ratio_250_L_4_R_16.png","img/250/equaldotanddens/R/11_Ratio_250_L_3_R_12.png","img/750/equaldotsize/R/12_Ratio_750_L_3_R_4.png","img/750/equaldotanddens/R/4_Ratio_750_L_15_R_20.png","img/250/randomdotsizeEA/R/8_Ratio_250_L_1_R_4.png","img/900/equaldotsize/L/4_Ratio_900_L_20_R_18.png","img/900/equaldotsize/L/2_Ratio_900_L_20_R_18.png","img/500/equaldotsize/R/2_Ratio_500_L_3_R_6.png","img/900/randomdotsizeEA/L/1_Ratio_900_L_10_R_9.png","img/750/equaldotanddens/L/1_Ratio_750_L_20_R_15.png","img/750/randomdotsizeEA/L/9_Ratio_750_L_4_R_3.png","img/900/randomdotsizeEA/L/2_Ratio_900_L_20_R_18.png","img/750/randomdotsizeEA/L/10_Ratio_750_L_4_R_3.png","img/750/equaldotsize/L/13_Ratio_750_L_8_R_6.png","img/750/equaldotanddens/L/10_Ratio_750_L_4_R_3.png"],"Rat0":[["12_Ratio_0_L_9_R_0.png","13_Ratio_0_L_6_R_0.png","5_Ratio_0_L_2_R_0.png","6_Ratio_0_L_4_R_0.png","8_Ratio_0_L_6_R_0.png"],["1_Ratio_0_L_0_R_17.png","10_Ratio_0_L_0_R_22.png","11_Ratio_0_L_0_R_1.png","14_Ratio_0_L_0_R_24.png","15_Ratio_0_L_0_R_4.png","2_Ratio_0_L_0_R_5.png","3_Ratio_0_L_0_R_17.png","4_Ratio_0_L_0_R_7.png","7_Ratio_0_L_0_R_19.png","9_Ratio_0_L_0_R_15.png"]],"Rat250":[["1_Ratio_250_L_8_R_2.png","14_Ratio_250_L_12_R_3.png","15_Ratio_250_L_12_R_3.png","2_Ratio_250_L_16_R_4.png","3_Ratio_250_L_8_R_2.png","5_Ratio_250_L_24_R_6.png","7_Ratio_250_L_8_R_2.png"],["10_Ratio_250_L_4_R_16.png","11_Ratio_250_L_3_R_12.png","12_Ratio_250_L_5_R_20.png","13_Ratio_250_L_2_R_8.png","4_Ratio_250_L_3_R_12.png","6_Ratio_250_L_6_R_24.png","8_Ratio_250_L_1_R_4.png","9_Ratio_250_L_3_R_12.png"]],"Rat500":[["10_Ratio_500_L_4_R_2.png","11_Ratio_500_L_12_R_6.png","13_Ratio_500_L_12_R_6.png","4_Ratio_500_L_18_R_9.png","5_Ratio_500_L_4_R_2.png","7_Ratio_500_L_10_R_5.png","8_Ratio_500_L_8_R_4.png"],["1_Ratio_500_L_9_R_18.png","12_Ratio_500_L_1_R_2.png","14_Ratio_500_L_5_R_10.png","15_Ratio_500_L_1_R_2.png","2_Ratio_500_L_3_R_6.png","3_Ratio_500_L_10_R_20.png","6_Ratio_500_L_9_R_18.png","9_Ratio_500_L_2_R_4.png"]],"Rat750":[["1_Ratio_750_L_20_R_15.png","10_Ratio_750_L_4_R_3.png","13_Ratio_750_L_8_R_6.png","14_Ratio_750_L_8_R_6.png","6_Ratio_750_L_24_R_18.png","8_Ratio_750_L_4_R_3.png","9_Ratio_750_L_4_R_3.png"],["11_Ratio_750_L_12_R_16.png","12_Ratio_750_L_3_R_4.png","15_Ratio_750_L_9_R_12.png","2_Ratio_750_L_6_R_8.png","3_Ratio_750_L_15_R_20.png","4_Ratio_750_L_15_R_20.png","5_Ratio_750_L_15_R_20.png","7_Ratio_750_L_3_R_4.png"]],"Rat900":[["1_Ratio_900_L_10_R_9.png","10_Ratio_900_L_20_R_18.png","2_Ratio_900_L_20_R_18.png","4_Ratio_900_L_20_R_18.png","8_Ratio_900_L_20_R_18.png"],["11_Ratio_900_L_18_R_20.png","12_Ratio_900_L_18_R_20.png","13_Ratio_900_L_18_R_20.png","14_Ratio_900_L_18_R_20.png","15_Ratio_900_L_9_R_10.png","3_Ratio_900_L_9_R_10.png","5_Ratio_900_L_9_R_10.png","6_Ratio_900_L_9_R_10.png","7_Ratio_900_L_9_R_10.png","9_Ratio_900_L_18_R_20.png"]],"Rat1000":[["10_Ratio_1000_L_16_R_16.png","11_Ratio_1000_L_6_R_6.png","12_Ratio_1000_L_14_R_14.png","13_Ratio_1000_L_20_R_20.png","15_Ratio_1000_L_15_R_15.png","2_Ratio_1000_L_17_R_17.png","4_Ratio_1000_L_9_R_9.png","5_Ratio_1000_L_6_R_6.png","6_Ratio_1000_L_19_R_19.png","8_Ratio_1000_L_14_R_14.png","9_Ratio_1000_L_25_R_25.png"],["1_Ratio_1000_L_1_R_1.png","14_Ratio_1000_L_17_R_17.png","3_Ratio_1000_L_17_R_17.png","7_Ratio_1000_L_6_R_6.png"]]}},{"start_time":1552314833197,"click_time":1552314834734,"finger_time":1552314834353,"fix_duration":1361.3519066054987,"trial":1,"RT":1156,"MT":381,"sideResp":1,"stimulus":"img/500/equaldotanddens/L/13_Ratio_500_L_12_R_6.png","xmouse":[766,766,766,766,766,766,766,766,766,766,766,766,766,766,766,766,766,766,766,766,766,766,766,766,766,766,766,766,766,766,766,766,766,766,766,766,766,766,766,766,766,766,766,766,766,765,765,765,765,765,765,765,765,764,761,753,749,720,708,697,689,684,677,675,671,667,663,650,640,631,618,605,563,530,497,468,445],"ymouse":[544,544,544,544,544,544,544,544,544,544,544,544,544,544,544,544,544,544,544,544,544,544,544,544,544,544,544,544,544,544,544,544,544,544,544,544,544,544,544,544,544,544,544,542,541,540,540,540,540,540,540,538,534,527,519,499,490,440,419,401,384,372,352,344,336,328,324,317,311,305,292,271,198,153,118,101,93],"timestamp_mouse":[16,37,57,76,96,117,137,157,176,198,217,237,256,277,296,317,336,356,376,397,416,436,457,477,497,516,537,557,575,597,617,635,657,677,696,717,737,756,777,797,817,836,856,877,897,917,937,957,977,996,1017,1037,1055,1077,1096,1117,1137,1156,1176,1197,1217,1236,1256,1276,1296,1317,1336,1356,1376,1396,1416,1437,1456,1476,1497,1517,1536],"xSR":741.5,"ySR":469.95,"xT1":424.9,"yT1":0,"xT2":1058.1,"yT2":0,"toosoon":0,"cond_shown":"equaldotanddens","ratio_trial":500,"smaller_num":"6","larger_num":"12","correct_side":1,"subjID":"shirlyjulietaavendaño2","gender":"1","age":"9","school":"4"},{"start_time":1552314836831,"click_time":1552314838094,"finger_time":1552314837753,"fix_duration":557.2246058947916,"trial":2,"RT":922,"MT":341,"sideResp":1,"stimulus":"img/900/equaldotanddens/L/8_Ratio_900_L_20_R_18.png","xmouse":[773,773,773,773,773,773,773,773,773,773,773,773,773,773,773,773,773,773,773,773,773,773,773,773,773,773,773,773,773,773,773,773,774,774,774,774,774,774,774,774,774,774,774,774,773,770,754,743,727,711,695,664,649,645,639,635,625,616,608,596,580,529,488,449],"ymouse":[548,548,548,548,548,548,548,548,548,548,548,548,548,548,548,548,548,548,548,548,548,548,548,548,548,548,548,548,548,548,548,548,548,547,544,543,543,543,543,543,543,543,542,536,524,508,465,440,417,397,383,354,332,325,304,290,263,248,234,214,194,143,107,75],"timestamp_mouse":[12,24,42,63,82,103,123,141,163,182,202,222,242,262,282,302,322,342,362,383,403,422,442,463,483,502,522,542,564,583,603,622,642,662,682,703,723,742,763,783,803,823,843,862,882,902,922,942,962,983,1003,1022,1041,1063,1082,1103,1122,1143,1163,1181,1202,1222,1242,1263],"xSR":741.5,"ySR":469.95,"xT1":424.9,"yT1":0,"xT2":1058.1,"yT2":0,"toosoon":0,"cond_shown":"equaldotanddens","ratio_trial":900,"smaller_num":"18","larger_num":"20","correct_side":1,"subjID":"shirlyjulietaavendaño2","gender":"1","age":"9","school":"4"},{"start_time":1552314840958,"click_time":1552314842355,"finger_time":1552314841773,"fix_duration":703.8298505248347,"trial":3,"RT":815,"MT":582,"sideResp":2,"stimulus":"img/750/equaldotsize/R/15_Ratio_750_L_9_R_12.png","xmouse":[762,762,762,762,762,762,762,762,762,762,762,762,762,762,762,762,762,762,762,762,762,762,762,762,762,762,762,762,762,762,762,762,762,762,765,766,768,772,776,784,809,828,846,873,905,929,938,945,952,962,967,972,976,980,985,1004,1013,1020,1025,1025,1025,1025,1025,1025,1025,1028,1030,1032,1037,1066],"ymouse":[525,525,525,525,525,525,525,525,525,525,525,525,525,525,525,525,525,525,525,525,525,525,525,525,525,525,525,525,525,525,525,525,525,524,518,514,509,503,495,485,454,433,410,378,331,279,260,242,226,200,187,173,162,148,135,86,68,55,49,49,49,49,49,49,49,49,49,49,49,59],"timestamp_mouse":[16,37,56,76,96,116,136,155,176,195,216,236,256,275,295,315,336,355,376,396,415,436,455,476,496,515,535,556,575,596,616,635,656,675,696,715,734,756,775,795,815,835,856,875,895,915,935,955,975,996,1015,1036,1056,1076,1096,1115,1135,1155,1175,1196,1216,1235,1255,1276,1295,1315,1335,1355,1376,1397],"xSR":741.5,"ySR":469.95,"xT1":424.9,"yT1":0,"xT2":1058.1,"yT2":0,"toosoon":0,"cond_shown":"equaldotsize","ratio_trial":750,"smaller_num":"9","larger_num":"12","correct_side":2,"subjID":"shirlyjulietaavendaño2","gender":"1","age":"9","school":"4"},{"start_time":1552314845619,"click_time":1552314847474,"finger_time":1552314847154,"fix_duration":823.2145911139903,"trial":4,"RT":1535,"MT":320,"sideResp":2,"stimulus":"img/500/randomdotsizeEA/R/14_Ratio_500_L_5_R_10.png","xmouse":[797,797,797,797,797,797,797,797,797,797,797,797,797,797,797,797,797,797,797,797,797,797,797,797,797,797,797,797,797,797,797,797,797,797,797,797,797,797,797,797,797,797,797,797,798,798,798,798,798,798,798,798,798,798,798,798,798,798,799,799,799,799,799,799,799,799,799,799,799,799,799,799,801,803,809,816,827,876,913,963,989,1006,1030,1038,1042,1045,1048,1051,1072,1085,1100,1118,1146],"ymouse":[507,507,507,507,507,507,507,507,507,507,507,507,507,507,507,507,507,507,507,507,507,507,507,507,507,507,507,507,507,507,507,507,507,507,507,507,507,507,507,507,507,507,507,506,506,506,506,506,506,506,506,506,506,506,506,506,506,506,507,507,507,507,507,507,507,507,507,507,507,507,507,507,507,504,495,483,465,396,353,286,250,223,188,177,172,170,167,163,146,134,120,104,65],"timestamp_mouse":[14,33,54,75,94,115,133,154,174,194,213,235,255,273,294,315,335,354,375,395,414,434,455,474,495,513,535,554,575,595,615,634,655,674,694,715,734,754,775,795,814,835,854,874,895,914,934,954,975,994,1014,1035,1053,1075,1095,1115,1134,1155,1175,1194,1214,1234,1254,1274,1295,1314,1335,1354,1374,1394,1415,1434,1454,1474,1495,1514,1535,1554,1575,1595,1615,1634,1654,1675,1694,1715,1734,1754,1775,1794,1815,1835,1855],"xSR":741.5,"ySR":469.95,"xT1":424.9,"yT1":0,"xT2":1058.1,"yT2":0,"toosoon":0,"cond_shown":"randomdotsizeEA","ratio_trial":500,"smaller_num":"5","larger_num":"10","correct_side":2,"subjID":"shirlyjulietaavendaño2","gender":"1","age":"9","school":"4"},{"start_time":1552314849385,"click_time":1552314850893,"finger_time":1552314850194,"fix_duration":508.5076037761197,"trial":5,"RT":809,"MT":699,"sideResp":1,"stimulus":"img/900/randomdotsizeEA/R/9_Ratio_900_L_18_R_20.png","xmouse":[799,799,799,796,794,785,784,783,783,783,783,783,783,783,783,783,783,783,783,783,783,783,783,783,783,783,783,783,783,783,783,783,783,783,783,783,783,783,783,787,797,806,818,828,842,843,843,843,842,837,832,828,821,813,789,775,761,742,723,683,652,631,612,600,593,584,582,580,578,574,560,554,542,529,512,484],"ymouse":[515,515,515,513,513,509,509,508,508,508,508,508,508,508,508,508,508,508,508,508,508,508,508,508,508,508,508,508,508,508,508,508,508,508,508,508,508,507,504,482,453,431,404,381,346,336,330,326,324,322,322,319,315,310,291,278,267,250,231,191,165,152,145,143,142,142,142,142,142,142,140,137,132,124,114,97],"timestamp_mouse":[12,35,48,68,88,108,128,149,168,188,208,228,248,269,288,308,329,349,369,389,409,429,448,469,488,508,528,549,568,589,609,628,648,669,688,708,728,749,769,789,809,829,849,869,890,908,928,948,968,990,1008,1028,1050,1068,1089,1108,1128,1148,1169,1190,1208,1228,1249,1269,1288,1309,1329,1349,1369,1388,1408,1429,1449,1468,1488,1508],"xSR":741.5,"ySR":469.95,"xT1":424.9,"yT1":0,"xT2":1058.1,"yT2":0,"toosoon":0,"cond_shown":"randomdotsizeEA","ratio_trial":900,"smaller_num":"18","larger_num":"20","correct_side":2,"subjID":"shirlyjulietaavendaño2","gender":"1","age":"9","school":"4"},{"start_time":1552314853329,"click_time":1552314854694,"finger_time":1552314853693,"fix_duration":1353.280526766182,"trial":6,"RT":364,"MT":1001,"sideResp":1,"stimulus":"img/750/equaldotsize/L/13_Ratio_750_L_8_R_6.png","xmouse":[800,800,800,800,801,801,801,801,801,801,801,801,801,803,806,810,814,821,835,847,860,880,896,931,950,966,982,992,1008,1009,1010,1010,1010,1010,1010,1010,1010,1010,1008,1000,978,960,943,908,896,886,873,857,813,766,748,701,672,635,575,554,539,530,526,526,526,526,526,526,526,526,526,525,521],"ymouse":[497,497,497,497,499,500,502,503,503,503,503,503,504,504,501,497,489,479,453,438,423,402,387,358,343,330,315,303,280,278,278,278,278,278,278,278,278,278,277,276,276,276,274,262,251,238,219,199,156,130,123,111,106,102,102,102,101,100,99,99,99,99,99,98,94,89,82,75,65],"timestamp_mouse":[17,24,44,64,85,105,124,145,165,185,205,225,245,264,284,304,324,344,364,384,404,425,445,464,485,504,525,545,564,585,604,625,645,664,684,704,724,744,764,784,804,824,844,864,885,904,925,945,964,985,1004,1025,1044,1064,1084,1104,1124,1144,1164,1185,1204,1224,1245,1264,1284,1305,1325,1344,1364],"xSR":741.5,"ySR":469.95,"xT1":424.9,"yT1":0,"xT2":1058.1,"yT2":0,"toosoon":0,"cond_shown":"equaldotsize","ratio_trial":750,"smaller_num":"6","larger_num":"8","correct_side":1,"subjID":"shirlyjulietaavendaño2","gender":"1","age":"9","school":"4"},{"start_time":1552314856394,"click_time":1552314857913,"finger_time":1552314857433,"fix_duration":778.1693113129446,"trial":7,"RT":1039,"MT":480,"sideResp":2,"stimulus":"img/900/equaldotsize/R/13_Ratio_900_L_18_R_20.png","xmouse":[802,802,802,802,802,802,802,802,802,802,802,802,802,802,802,802,802,802,802,802,802,802,802,802,802,802,802,802,802,802,802,802,802,802,802,802,802,802,802,802,802,802,802,802,802,802,804,805,806,809,812,821,827,835,842,848,859,868,875,883,893,921,935,948,960,969,989,994,1000,1006,1016,1020,1024,1030,1037,1052,1063],"ymouse":[516,516,516,516,516,516,516,516,516,516,516,516,516,516,516,516,516,516,516,516,516,516,516,516,516,516,516,516,516,516,516,516,516,516,516,516,516,516,516,516,516,516,516,516,516,516,514,511,510,504,499,475,458,438,416,396,369,358,350,342,330,301,287,273,260,249,221,211,200,188,166,155,143,132,119,88,64],"timestamp_mouse":[1,33,39,60,80,99,120,139,160,180,199,220,239,259,280,299,319,340,359,379,399,419,440,459,479,499,520,540,560,579,599,620,639,660,679,699,720,739,760,779,800,819,840,859,880,899,919,939,960,980,999,1019,1039,1059,1079,1100,1120,1140,1159,1180,1200,1220,1239,1259,1280,1299,1319,1339,1359,1379,1400,1419,1439,1460,1479,1501,1519],"xSR":741.5,"ySR":469.95,"xT1":424.9,"yT1":0,"xT2":1058.1,"yT2":0,"toosoon":0,"cond_shown":"equaldotsize","ratio_trial":900,"smaller_num":"18","larger_num":"20","correct_side":2,"subjID":"shirlyjulietaavendaño2","gender":"1","age":"9","school":"4"},{"start_time":1552314861356,"click_time":1552314862313,"finger_time":1552314861454,"fix_duration":602.0474302202649,"trial":8,"RT":98,"MT":859,"sideResp":1,"stimulus":"img/500/equaldotsize/L/13_Ratio_500_L_12_R_6.png","xmouse":[783,783,784,785,786,786,789,793,794,794,794,795,796,796,796,796,796,796,796,796,796,796,796,796,796,796,796,796,796,796,796,796,796,796,782,763,736,665,638,620,608,600,588,581,569,539,506,447],"ymouse":[568,568,568,569,570,571,571,571,571,571,571,571,571,571,571,571,571,571,571,571,571,571,571,571,571,571,571,571,571,571,571,571,571,569,547,522,496,457,445,438,431,423,405,391,358,272,194,22],"timestamp_mouse":[36,37,58,77,98,118,138,157,178,198,217,238,257,277,297,317,338,358,378,398,417,437,458,478,497,518,538,558,577,598,617,639,657,677,697,718,738,757,778,798,817,838,857,878,898,917,937,957],"xSR":741.5,"ySR":469.95,"xT1":424.9,"yT1":0,"xT2":1058.1,"yT2":0,"toosoon":0,"cond_shown":"equaldotsize","ratio_trial":500,"smaller_num":"6","larger_num":"12","correct_side":1,"subjID":"shirlyjulietaavendaño2","gender":"1","age":"9","school":"4"},{"start_time":1552314865855,"click_time":1552314867033,"finger_time":1552314866634,"fix_duration":1360.2154580173371,"trial":9,"RT":779,"MT":399,"sideResp":2,"stimulus":"img/500/equaldotanddens/R/15_Ratio_500_L_1_R_2.png","xmouse":[804,804,804,804,804,804,804,804,804,804,804,804,804,804,804,804,804,804,804,804,804,804,804,804,804,804,804,804,804,804,804,804,804,804,804,807,810,837,865,886,906,923,939,953,956,957,957,959,963,969,975,984,1007,1022,1038,1055,1067,1088,1100],"ymouse":[513,513,513,513,513,513,513,513,513,513,513,513,513,513,513,513,513,513,513,513,513,513,513,513,513,513,513,513,513,513,513,513,513,513,513,512,511,502,488,474,453,427,394,337,315,299,286,265,250,238,228,216,190,177,163,148,134,100,71],"timestamp_mouse":[18,38,59,78,98,119,139,158,178,199,219,238,258,279,298,319,339,359,378,399,418,438,459,480,498,519,539,558,578,599,619,639,659,678,699,718,738,759,779,798,818,838,858,878,898,918,939,958,979,998,1018,1038,1058,1079,1098,1119,1138,1159,1178],"xSR":741.5,"ySR":469.95,"xT1":424.9,"yT1":0,"xT2":1058.1,"yT2":0,"toosoon":0,"cond_shown":"equaldotanddens","ratio_trial":500,"smaller_num":"1","larger_num":"2","correct_side":2,"subjID":"shirlyjulietaavendaño2","gender":"1","age":"9","school":"4"},{"start_time":1552314869352,"click_time":1552314870613,"finger_time":1552314870073,"fix_duration":817.3180859758875,"trial":10,"RT":721,"MT":540,"sideResp":1,"stimulus":"img/900/equaldotanddens/L/2_Ratio_900_L_20_R_18.png","xmouse":[804,804,804,804,804,804,804,804,804,804,805,806,807,807,809,810,811,812,812,812,812,812,812,812,812,812,812,812,812,812,812,812,812,812,814,815,816,818,818,820,821,821,813,804,765,739,712,687,664,637,630,625,622,621,616,613,609,604,599,583,572,560,539,523],"ymouse":[478,478,478,478,478,478,478,478,478,478,479,479,479,479,477,477,476,476,476,476,476,476,476,476,476,476,476,476,476,476,476,476,476,476,474,471,468,460,460,443,429,412,378,349,271,231,194,163,136,105,97,91,89,88,87,87,86,86,84,83,81,79,73,69],"timestamp_mouse":[9,32,42,62,81,101,121,142,161,181,201,221,242,261,282,301,322,341,361,381,401,421,441,462,482,501,521,541,561,582,603,622,641,661,681,701,721,747,761,781,802,822,841,861,881,902,922,941,961,981,1001,1021,1041,1062,1082,1101,1121,1142,1162,1181,1201,1221,1242,1261],"xSR":741.5,"ySR":469.95,"xT1":424.9,"yT1":0,"xT2":1058.1,"yT2":0,"toosoon":0,"cond_shown":"equaldotanddens","ratio_trial":900,"smaller_num":"18","larger_num":"20","correct_side":1,"subjID":"shirlyjulietaavendaño2","gender":"1","age":"9","school":"4"},{"start_time":1552314875076,"click_time":1552314876253,"finger_time":1552314875854,"fix_duration":862.7582048127591,"trial":11,"RT":778,"MT":399,"sideResp":2,"stimulus":"img/900/equaldotsize/R/12_Ratio_900_L_18_R_20.png","xmouse":[807,807,807,807,805,805,805,805,805,805,805,805,805,805,805,805,805,805,805,805,805,805,805,805,805,805,805,805,805,805,805,805,805,805,805,808,813,821,846,867,898,926,963,1045,1072,1095,1113,1144,1158,1170,1180,1187,1193,1198,1198,1196,1190,1177,1140],"ymouse":[538,538,538,538,538,538,538,538,538,538,538,538,538,538,538,538,538,538,538,538,538,538,538,538,538,538,538,538,538,538,538,538,537,534,530,525,514,500,460,434,403,377,345,284,265,252,239,215,204,194,186,180,172,159,152,142,130,117,92],"timestamp_mouse":[17,46,58,78,97,118,137,158,177,197,218,237,257,278,297,317,338,357,377,397,417,437,458,478,497,517,538,558,578,597,618,638,658,678,697,718,738,758,778,798,818,838,857,879,898,918,938,958,977,997,1017,1037,1057,1078,1097,1117,1137,1157,1177],"xSR":741.5,"ySR":469.95,"xT1":424.9,"yT1":0,"xT2":1058.1,"yT2":0,"toosoon":0,"cond_shown":"equaldotsize","ratio_trial":900,"smaller_num":"18","larger_num":"20","correct_side":2,"subjID":"shirlyjulietaavendaño2","gender":"1","age":"9","school":"4"},{"start_time":1552314877567,"click_time":1552314878934,"finger_time":1552314878333,"fix_duration":250,"trial":12,"RT":766,"MT":601,"sideResp":1,"stimulus":"img/500/equaldotsize/L/7_Ratio_500_L_10_R_5.png","xmouse":[796,796,796,796,796,796,796,796,796,796,796,796,796,796,796,796,796,796,796,796,796,796,796,796,796,796,796,796,796,796,796,796,796,796,796,796,795,785,769,713,677,638,602,575,550,547,547,547,547,547,547,546,546,546,541,539,538,534,532,531,530,530,529,528,525,523,519,514,510],"ymouse":[530,530,530,530,530,530,530,530,530,530,530,530,530,530,530,530,530,530,530,530,530,530,530,530,530,530,530,530,530,530,530,530,530,530,530,530,520,501,468,372,323,279,243,220,202,202,202,202,202,202,202,200,194,186,159,144,133,123,114,111,110,110,110,110,109,108,105,101,97],"timestamp_mouse":[16,38,46,67,87,107,126,146,166,186,206,226,246,266,286,306,327,346,366,387,407,426,446,467,487,506,526,547,566,587,606,626,646,666,687,707,726,746,766,787,806,826,846,866,886,906,927,947,966,986,1006,1026,1046,1066,1086,1107,1126,1146,1167,1185,1206,1226,1246,1268,1286,1306,1326,1347,1367],"xSR":741.5,"ySR":469.95,"xT1":424.9,"yT1":0,"xT2":1058.1,"yT2":0,"toosoon":0,"cond_shown":"equaldotsize","ratio_trial":500,"smaller_num":"5","larger_num":"10","correct_side":1,"subjID":"shirlyjulietaavendaño2","gender":"1","age":"9","school":"4"},{"start_time":1552314880345,"click_time":1552314881654,"finger_time":1552314881214,"fix_duration":250,"trial":13,"RT":869,"MT":440,"sideResp":1,"stimulus":"img/900/randomdotsizeEA/R/7_Ratio_900_L_9_R_10.png","xmouse":[784,784,784,784,784,784,784,784,784,784,784,784,784,784,784,784,784,784,784,784,784,784,784,784,784,784,784,784,784,784,784,784,784,784,784,784,784,785,785,786,788,790,794,801,808,824,835,839,850,855,859,860,860,860,860,860,859,848,832,808,730,684,632,581,531,461],"ymouse":[508,508,508,508,508,508,508,508,508,508,508,508,508,508,508,508,508,508,508,508,508,508,508,508,508,508,508,508,508,508,508,508,508,508,506,505,501,499,496,495,490,484,478,466,454,425,406,400,386,379,372,371,370,370,370,370,367,355,342,325,268,239,204,160,120,70],"timestamp_mouse":[8,37,48,68,89,109,129,148,169,189,209,229,248,269,289,308,328,348,369,388,408,429,449,469,489,509,528,549,568,589,608,628,648,668,688,708,729,748,769,789,808,828,849,869,889,908,927,949,968,988,1008,1028,1048,1068,1089,1109,1128,1148,1168,1188,1208,1228,1248,1269,1288,1309],"xSR":741.5,"ySR":469.95,"xT1":424.9,"yT1":0,"xT2":1058.1,"yT2":0,"toosoon":0,"cond_shown":"randomdotsizeEA","ratio_trial":900,"smaller_num":"9","larger_num":"10","correct_side":2,"subjID":"shirlyjulietaavendaño2","gender":"1","age":"9","school":"4"},{"start_time":1552314884649,"click_time":1552314885854,"finger_time":1552314885453,"fix_duration":1434.1590824371033,"trial":14,"RT":804,"MT":401,"sideResp":1,"stimulus":"img/750/randomdotsizeEA/L/6_Ratio_750_L_24_R_18.png","xmouse":[797,797,797,797,797,797,797,797,797,797,797,797,797,797,797,797,797,797,797,797,797,797,797,797,797,797,797,797,797,797,797,797,797,797,795,793,788,782,774,759,725,635,585,546,527,522,526,532,537,541,548,548,549,549,549,546,540,538,533,529,524],"ymouse":[548,548,548,548,548,548,548,548,548,548,548,548,548,548,548,548,548,548,548,548,548,548,548,548,548,548,548,548,548,548,548,548,548,547,545,541,530,521,506,485,431,324,265,222,194,176,151,140,132,124,107,102,96,91,84,79,70,70,69,69,69],"timestamp_mouse":[8,25,45,64,85,105,125,145,165,185,205,224,245,265,285,304,324,345,364,384,404,425,444,464,485,504,525,545,564,584,604,624,644,665,684,704,724,745,765,785,804,824,845,864,885,904,924,945,964,984,1006,1024,1044,1064,1084,1105,1124,1144,1164,1184,1204],"xSR":741.5,"ySR":469.95,"xT1":424.9,"yT1":0,"xT2":1058.1,"yT2":0,"toosoon":0,"cond_shown":"randomdotsizeEA","ratio_trial":750,"smaller_num":"18","larger_num":"24","correct_side":1,"subjID":"shirlyjulietaavendaño2","gender":"1","age":"9","school":"4"},{"start_time":1552314888678,"click_time":1552314891354,"finger_time":1552314889533,"fix_duration":1423.3422910697836,"trial":15,"RT":855,"MT":1821,"sideResp":2,"stimulus":"img/750/equaldotsize/R/15_Ratio_750_L_9_R_12.png","xmouse":[805,805,805,805,807,808,808,808,808,808,808,808,808,808,808,808,808,809,809,809,809,809,809,809,809,809,809,809,809,809,809,809,809,811,814,815,816,818,820,829,834,840,845,849,856,860,865,869,873,878,879,880,875,863,813,786,756,748,746,746,746,745,741,734,708,689,662,650,646,645,645,645,645,645,645,643,643,642,642,642,642,642,642,641,637,625,619,617,617,617,617,617,617,617,617,617,617,617,618,619,621,623,624,626,635,642,656,666,677,699,709,720,732,747,784,824,855,886,910,954,971,985,999,1013,1036,1040,1042,1043,1044,1046,1050,1055,1058,1059],"ymouse":[503,503,503,503,503,503,503,503,503,503,503,503,503,503,503,503,503,503,503,503,503,503,503,503,503,503,503,503,503,503,503,503,503,503,500,499,497,495,493,486,481,475,470,466,457,453,444,436,429,414,406,397,385,371,333,317,296,290,287,277,267,255,240,225,194,181,164,158,156,155,155,155,155,155,155,155,155,155,155,155,155,155,155,155,154,146,142,140,140,140,140,140,138,137,134,130,127,125,124,119,117,115,114,113,113,113,113,113,113,111,111,111,111,111,111,111,109,104,102,95,93,92,89,87,84,82,80,79,78,76,75,73,72,72],"timestamp_mouse":[29,35,56,76,95,116,135,155,176,195,216,235,256,275,295,315,336,355,376,396,415,436,455,476,496,515,536,555,575,596,615,636,656,675,694,715,736,755,775,795,815,836,855,875,895,915,936,955,976,995,1015,1036,1056,1076,1095,1116,1135,1156,1176,1196,1215,1235,1256,1275,1295,1315,1335,1355,1374,1396,1415,1435,1456,1476,1495,1515,1535,1555,1575,1596,1615,1636,1655,1676,1695,1715,1735,1755,1776,1795,1815,1835,1855,1875,1895,1915,1935,1956,1976,1996,2016,2035,2055,2076,2095,2116,2135,2155,2175,2195,2215,2235,2256,2276,2296,2316,2335,2355,2375,2396,2415,2436,2455,2476,2496,2515,2536,2555,2575,2596,2615,2636,2656,2676],"xSR":741.5,"ySR":469.95,"xT1":424.9,"yT1":0,"xT2":1058.1,"yT2":0,"toosoon":0,"cond_shown":"equaldotsize","ratio_trial":750,"smaller_num":"9","larger_num":"12","correct_side":2,"subjID":"shirlyjulietaavendaño2","gender":"1","age":"9","school":"4"},{"start_time":1552314893219,"click_time":1552314894414,"finger_time":1552314893995,"fix_duration":764.1399830472069,"trial":16,"RT":776,"MT":419,"sideResp":1,"stimulus":"img/750/equaldotsize/L/13_Ratio_750_L_8_R_6.png","xmouse":[798,798,798,798,798,798,798,798,798,798,798,798,798,798,798,798,798,798,798,798,798,798,798,798,798,798,798,798,798,798,798,798,798,798,797,796,794,787,738,701,664,630,583,565,547,533,517,515,512,512,512,512,512,512,512,512,512,511,504,499],"ymouse":[505,505,505,505,505,505,505,505,505,505,505,505,505,505,505,505,505,505,505,505,505,505,505,505,505,505,505,505,505,505,505,505,505,505,505,503,497,484,418,375,332,292,230,205,183,167,155,154,152,152,152,151,151,145,141,138,134,128,109,99],"timestamp_mouse":[14,35,55,75,94,114,134,155,175,194,215,234,254,274,295,315,334,354,374,394,414,435,455,474,495,515,535,554,574,594,615,635,654,674,694,714,735,754,775,794,815,834,856,874,895,915,934,955,974,994,1014,1034,1054,1074,1095,1115,1134,1154,1174,1194],"xSR":741.5,"ySR":469.95,"xT1":424.9,"yT1":0,"xT2":1058.1,"yT2":0,"toosoon":0,"cond_shown":"equaldotsize","ratio_trial":750,"smaller_num":"6","larger_num":"8","correct_side":1,"subjID":"shirlyjulietaavendaño2","gender":"1","age":"9","school":"4"},{"start_time":1552314895990,"click_time":1552314897374,"finger_time":1552314896833,"fix_duration":495.18605601099165,"trial":17,"RT":843,"MT":541,"sideResp":1,"stimulus":"img/750/randomdotsizeEA/R/4_Ratio_750_L_15_R_20.png","xmouse":[809,807,806,805,805,805,802,801,801,801,801,800,800,799,799,799,799,799,799,799,799,799,799,799,799,799,799,799,799,799,799,799,799,799,799,799,799,799,799,798,790,783,771,757,740,689,663,629,619,614,613,613,614,615,616,619,621,623,624,624,623,619,612,604,595,572,562,552,535,522],"ymouse":[502,503,503,503,503,503,503,503,503,503,503,503,503,503,503,503,503,503,503,503,503,503,503,503,503,503,503,503,503,503,503,503,503,503,503,503,503,503,502,501,489,478,461,438,406,316,271,210,187,172,155,149,143,140,134,124,118,109,103,97,85,79,72,63,58,47,44,42,39,38],"timestamp_mouse":[11,23,43,63,84,103,123,143,164,183,203,223,244,264,284,303,323,343,363,384,404,423,444,463,484,504,523,544,564,583,604,624,644,663,684,705,724,743,764,784,803,823,843,863,884,904,923,944,964,983,1003,1023,1043,1063,1083,1103,1123,1143,1163,1183,1204,1223,1244,1264,1283,1304,1324,1343,1363,1383],"xSR":741.5,"ySR":469.95,"xT1":424.9,"yT1":0,"xT2":1058.1,"yT2":0,"toosoon":0,"cond_shown":"randomdotsizeEA","ratio_trial":750,"smaller_num":"15","larger_num":"20","correct_side":2,"subjID":"shirlyjulietaavendaño2","gender":"1","age":"9","school":"4"},{"start_time":1552314899881,"click_time":1552314901154,"finger_time":1552314900654,"fix_duration":904.8311052776162,"trial":18,"RT":773,"MT":500,"sideResp":1,"stimulus":"img/900/randomdotsizeEA/L/10_Ratio_900_L_20_R_18.png","xmouse":[780,780,780,780,780,780,780,780,780,780,780,780,782,783,784,786,786,789,790,791,791,792,792,792,793,793,793,793,793,793,793,793,793,793,793,794,795,796,796,796,774,755,729,697,675,651,645,639,632,623,617,614,611,608,604,596,593,591,589,586,572,553,535,516],"ymouse":[489,489,489,489,489,489,489,489,489,489,489,489,489,489,489,488,487,485,484,484,483,483,483,483,482,482,482,482,482,482,482,482,482,482,482,481,479,474,466,452,405,383,361,331,308,274,260,248,237,226,215,207,201,193,184,165,154,146,137,129,105,83,69,58],"timestamp_mouse":[12,32,52,73,92,112,133,153,173,192,212,233,252,272,292,313,332,352,372,393,413,432,452,474,492,513,533,553,572,593,612,632,653,672,693,713,732,752,773,792,813,832,853,873,893,913,932,952,972,992,1014,1032,1052,1072,1093,1113,1132,1153,1173,1193,1213,1232,1252,1273],"xSR":741.5,"ySR":469.95,"xT1":424.9,"yT1":0,"xT2":1058.1,"yT2":0,"toosoon":0,"cond_shown":"randomdotsizeEA","ratio_trial":900,"smaller_num":"18","larger_num":"20","correct_side":1,"subjID":"shirlyjulietaavendaño2","gender":"1","age":"9","school":"4"},{"start_time":1552314902286,"click_time":1552314903253,"finger_time":1552314902993,"fix_duration":250,"trial":19,"RT":707,"MT":260,"sideResp":2,"stimulus":"img/900/equaldotanddens/R/12_Ratio_900_L_18_R_20.png","xmouse":[780,780,780,780,780,780,780,780,780,780,780,780,780,780,780,780,780,780,780,780,780,780,780,780,780,780,780,780,780,781,784,786,788,791,796,801,813,819,827,843,896,928,968,1012,1038,1060,1097,1113,1126],"ymouse":[511,511,511,511,511,511,510,510,510,510,510,510,510,510,510,510,510,510,510,510,510,510,510,510,510,510,510,508,507,506,499,492,488,483,471,455,414,389,364,327,278,256,233,201,181,159,119,103,89],"timestamp_mouse":[9,36,47,68,87,108,127,147,168,187,208,227,248,268,288,308,327,348,368,387,407,428,448,468,488,508,527,548,567,587,617,628,647,668,687,707,727,747,768,787,809,827,848,867,888,907,927,947,967],"xSR":741.5,"ySR":469.95,"xT1":424.9,"yT1":0,"xT2":1058.1,"yT2":0,"toosoon":0,"cond_shown":"equaldotanddens","ratio_trial":900,"smaller_num":"18","larger_num":"20","correct_side":2,"subjID":"shirlyjulietaavendaño2","gender":"1","age":"9","school":"4"},{"start_time":1552314904950,"click_time":1552314906413,"finger_time":1552314905733,"fix_duration":1035.877734393797,"trial":20,"RT":783,"MT":680,"sideResp":2,"stimulus":"img/500/randomdotsizeEA/R/14_Ratio_500_L_5_R_10.png","xmouse":[807,807,807,807,807,807,807,807,807,807,807,807,807,807,807,807,807,807,807,807,807,807,807,807,807,807,807,807,807,807,807,807,807,807,807,808,809,812,816,820,824,831,838,858,872,888,912,925,943,950,956,959,960,963,965,966,971,975,987,996,1005,1015,1025,1044,1049,1054,1057,1058,1059,1059,1060,1060,1060,1060],"ymouse":[514,514,514,514,514,514,514,514,514,514,514,514,514,514,514,514,514,514,514,514,514,514,512,510,510,510,510,510,510,508,505,504,501,499,498,497,492,487,477,469,462,453,440,404,380,352,308,284,252,240,230,225,221,213,208,202,192,181,165,157,147,140,133,119,115,112,109,108,106,105,105,103,102,97],"timestamp_mouse":[10,31,44,64,84,103,124,143,163,184,204,223,243,264,284,303,323,343,364,384,404,423,443,463,484,503,524,543,563,583,604,624,643,663,684,704,724,744,764,783,803,823,844,863,884,904,924,943,963,983,1003,1023,1044,1063,1083,1103,1123,1144,1163,1183,1203,1223,1244,1263,1283,1303,1323,1343,1363,1384,1404,1424,1444,1463],"xSR":741.5,"ySR":469.95,"xT1":424.9,"yT1":0,"xT2":1058.1,"yT2":0,"toosoon":0,"cond_shown":"randomdotsizeEA","ratio_trial":500,"smaller_num":"5","larger_num":"10","correct_side":2,"subjID":"shirlyjulietaavendaño2","gender":"1","age":"9","school":"4"},{"start_time":1552314907786,"click_time":1552314909014,"finger_time":1552314908613,"fix_duration":250,"trial":21,"RT":827,"MT":401,"sideResp":1,"stimulus":"img/500/randomdotsizeEA/L/5_Ratio_500_L_4_R_2.png","xmouse":[799,799,799,799,799,799,799,799,799,799,799,799,799,799,799,799,799,799,799,799,799,799,799,799,799,799,799,799,799,799,799,799,799,799,799,799,799,799,791,776,756,710,685,677,673,673,673,673,671,667,664,658,655,651,644,634,599,573,536,495,469,448],"ymouse":[532,532,532,532,532,532,532,532,532,532,533,534,534,535,535,535,535,535,535,535,535,535,535,535,535,535,535,536,536,536,536,536,536,536,536,536,536,536,529,515,498,446,391,354,313,272,215,199,187,178,170,158,154,153,152,151,146,139,130,117,110,99],"timestamp_mouse":[10,38,47,67,87,108,128,147,167,188,207,228,247,267,288,307,329,347,368,387,407,427,447,467,487,508,527,547,567,588,607,627,648,668,687,707,727,747,767,788,807,827,848,868,888,907,928,947,968,987,1007,1028,1048,1067,1087,1107,1128,1147,1167,1187,1208,1228],"xSR":741.5,"ySR":469.95,"xT1":424.9,"yT1":0,"xT2":1058.1,"yT2":0,"toosoon":0,"cond_shown":"randomdotsizeEA","ratio_trial":500,"smaller_num":"2","larger_num":"4","correct_side":1,"subjID":"shirlyjulietaavendaño2","gender":"1","age":"9","school":"4"},{"start_time":1552314911131,"click_time":1552314912313,"finger_time":1552314911894,"fix_duration":1375.7848841174055,"trial":22,"RT":763,"MT":419,"sideResp":2,"stimulus":"img/900/equaldotsize/R/5_Ratio_900_L_9_R_10.png","xmouse":[791,791,791,791,791,791,791,791,791,791,791,791,791,791,791,791,791,791,791,791,791,791,791,791,791,791,791,791,791,791,791,793,797,799,804,814,823,835,847,867,875,878,885,892,904,927,943,956,971,996,1006,1018,1030,1042,1060,1076,1080,1083,1092,1100],"ymouse":[515,515,515,515,515,515,515,515,515,515,515,515,515,515,515,515,515,515,515,515,515,515,515,515,515,515,515,515,515,515,515,514,513,512,510,505,498,487,469,421,391,368,344,317,284,248,232,219,209,195,191,186,182,177,167,154,145,133,115,98],"timestamp_mouse":[2,22,49,62,83,102,122,143,162,182,202,223,243,262,282,301,322,343,362,382,402,422,442,463,482,502,522,542,563,583,602,623,643,663,682,703,722,742,763,783,802,823,842,863,882,902,922,942,962,984,1002,1023,1042,1062,1082,1102,1123,1142,1163,1182],"xSR":741.5,"ySR":469.95,"xT1":424.9,"yT1":0,"xT2":1058.1,"yT2":0,"toosoon":0,"cond_shown":"equaldotsize","ratio_trial":900,"smaller_num":"9","larger_num":"10","correct_side":2,"subjID":"shirlyjulietaavendaño2","gender":"1","age":"9","school":"4"},{"start_time":1552314915569,"click_time":1552314916554,"finger_time":1552314916233,"fix_duration":952.8974330913779,"trial":23,"RT":664,"MT":321,"sideResp":2,"stimulus":"img/250/equaldotanddens/R/6_Ratio_250_L_6_R_24.png","xmouse":[798,798,798,798,798,798,798,798,798,798,798,798,798,799,799,799,799,799,799,799,799,799,799,799,799,799,799,801,802,805,810,819,831,866,881,892,903,913,927,935,938,940,941,942,942,946,951,959,982,1086],"ymouse":[520,520,520,520,520,520,520,520,520,520,520,520,520,520,520,520,520,520,520,520,520,520,520,520,520,520,520,519,518,515,510,504,495,464,443,410,372,332,226,170,149,139,135,131,131,128,125,124,116,86],"timestamp_mouse":[8,24,45,64,85,104,125,145,165,185,205,224,244,265,284,304,324,345,364,384,404,425,444,465,485,504,524,545,564,585,604,625,644,664,685,705,724,744,764,784,804,824,845,864,884,905,925,944,964,985],"xSR":741.5,"ySR":469.95,"xT1":424.9,"yT1":0,"xT2":1058.1,"yT2":0,"toosoon":0,"cond_shown":"equaldotanddens","ratio_trial":250,"smaller_num":"6","larger_num":"24","correct_side":2,"subjID":"shirlyjulietaavendaño2","gender":"1","age":"9","school":"4"},{"start_time":1552314918795,"click_time":1552314919635,"finger_time":1552314919474,"fix_duration":840.652726428412,"trial":24,"RT":679,"MT":161,"sideResp":2,"stimulus":"img/250/equaldotanddens/R/12_Ratio_250_L_5_R_20.png","xmouse":[789,789,789,789,789,789,789,789,789,789,789,789,789,789,789,789,789,789,789,789,789,789,789,790,790,791,791,793,796,798,804,812,841,871,907,948,1029,1051,1065,1073,1082,1095],"ymouse":[528,528,528,528,528,528,528,528,528,528,528,528,528,528,528,528,528,528,528,528,528,528,528,528,528,528,528,527,524,522,517,510,476,441,400,354,234,195,165,143,123,88],"timestamp_mouse":[33,39,59,79,98,118,139,158,178,199,219,238,258,278,299,319,339,358,378,399,419,438,458,479,498,519,538,559,579,599,618,638,658,679,698,719,740,758,778,799,818,840],"xSR":741.5,"ySR":469.95,"xT1":424.9,"yT1":0,"xT2":1058.1,"yT2":0,"toosoon":0,"cond_shown":"equaldotanddens","ratio_trial":250,"smaller_num":"5","larger_num":"20","correct_side":2,"subjID":"shirlyjulietaavendaño2","gender":"1","age":"9","school":"4"},{"start_time":1552314921184,"click_time":1552314922235,"finger_time":1552314921734,"fix_duration":250,"trial":25,"RT":550,"MT":501,"sideResp":1,"stimulus":"img/500/equaldotanddens/L/7_Ratio_500_L_10_R_5.png","xmouse":[793,793,793,793,793,793,793,793,793,793,793,794,794,794,795,795,795,795,795,795,795,795,795,794,788,775,754,708,656,645,640,638,635,622,615,607,592,574,567,567,568,570,573,576,578,578,577,570,546,532,517,506,499],"ymouse":[512,512,512,512,512,512,512,512,512,512,512,512,512,512,511,511,511,510,509,509,509,508,506,502,499,493,484,464,442,435,429,422,410,382,361,342,322,298,287,285,282,279,275,264,256,245,227,211,171,149,130,111,94],"timestamp_mouse":[10,29,49,70,89,109,129,149,169,188,209,229,249,269,290,310,330,349,369,389,410,429,450,469,489,510,530,550,569,590,609,629,651,669,689,709,729,749,769,789,809,830,851,869,889,909,929,949,970,989,1010,1029,1050],"xSR":741.5,"ySR":469.95,"xT1":424.9,"yT1":0,"xT2":1058.1,"yT2":0,"toosoon":0,"cond_shown":"equaldotanddens","ratio_trial":500,"smaller_num":"5","larger_num":"10","correct_side":1,"subjID":"shirlyjulietaavendaño2","gender":"1","age":"9","school":"4"},{"start_time":1552314923485,"click_time":1552314924754,"finger_time":1552314924253,"fix_duration":250,"trial":26,"RT":768,"MT":501,"sideResp":2,"stimulus":"img/250/randomdotsizeEA/R/6_Ratio_250_L_6_R_24.png","xmouse":[828,826,825,821,820,819,818,817,816,814,814,814,813,813,812,812,812,812,812,812,812,812,812,812,812,812,812,812,812,812,812,812,812,812,812,812,812,813,820,830,851,872,902,989,994,1018,1054,1091,1167,1195,1220,1232,1232,1232,1232,1232,1232,1232,1232,1232,1232,1232,1164,1137],"ymouse":[511,509,508,506,506,505,505,505,504,504,504,504,504,504,503,503,503,503,503,503,503,502,501,501,500,499,497,496,492,490,487,486,486,486,486,486,482,479,460,442,408,377,338,224,219,198,153,123,56,34,14,0,0,0,0,0,0,0,0,0,0,0,1,21],"timestamp_mouse":[10,29,49,69,88,109,128,148,168,188,209,229,248,269,288,308,328,349,368,389,409,427,448,468,489,508,528,549,568,589,608,628,649,668,689,708,728,749,768,789,808,829,848,869,888,908,928,949,968,989,1008,1029,1048,1068,1089,1108,1129,1148,1168,1188,1208,1229,1249,1269],"xSR":741.5,"ySR":469.95,"xT1":424.9,"yT1":0,"xT2":1058.1,"yT2":0,"toosoon":0,"cond_shown":"randomdotsizeEA","ratio_trial":250,"smaller_num":"6","larger_num":"24","correct_side":2,"subjID":"shirlyjulietaavendaño2","gender":"1","age":"9","school":"4"},{"start_time":1552314926633,"click_time":1552314927713,"finger_time":1552314927314,"fix_duration":517.7618876864905,"trial":27,"RT":681,"MT":399,"sideResp":2,"stimulus":"img/250/randomdotsizeEA/R/9_Ratio_250_L_3_R_12.png","xmouse":[798,798,798,798,798,798,798,798,798,798,798,798,798,798,798,798,798,797,797,797,797,797,797,797,797,797,797,797,797,797,799,805,814,821,829,839,877,904,931,953,975,992,992,992,992,992,992,992,992,992,992,992,992,992,1091],"ymouse":[497,497,497,497,497,497,497,497,497,497,497,497,497,497,497,497,497,498,498,498,498,498,498,498,498,498,498,498,498,498,498,493,480,470,453,429,332,266,194,128,69,11,11,11,11,11,11,11,11,11,11,11,11,11,22],"timestamp_mouse":[9,21,40,60,80,100,121,141,160,181,200,221,240,260,281,301,321,340,361,381,401,421,441,460,481,500,520,541,560,580,601,621,641,660,681,700,722,740,760,781,800,821,841,860,880,901,921,941,960,981,1000,1021,1040,1061,1080],"xSR":741.5,"ySR":469.95,"xT1":424.9,"yT1":0,"xT2":1058.1,"yT2":0,"toosoon":0,"cond_shown":"randomdotsizeEA","ratio_trial":250,"smaller_num":"3","larger_num":"12","correct_side":2,"subjID":"shirlyjulietaavendaño2","gender":"1","age":"9","school":"4"},{"start_time":1552314932406,"click_time":1552314933353,"finger_time":1552314932834,"fix_duration":250,"trial":28,"RT":428,"MT":519,"sideResp":1,"stimulus":"img/750/randomdotsizeEA/L/6_Ratio_750_L_24_R_18.png","xmouse":[798,798,798,798,798,798,798,798,798,798,798,798,798,798,798,798,798,799,799,799,799,799,796,786,781,776,768,759,742,725,714,706,698,686,683,680,678,671,656,639,629,616,605,579,564,550,535,522],"ymouse":[512,512,512,512,512,512,512,512,512,512,512,512,511,510,509,507,506,503,494,487,478,460,446,414,396,380,361,343,303,276,260,249,237,217,208,200,191,177,144,119,104,89,77,52,41,33,25,19],"timestamp_mouse":[10,30,47,67,87,108,128,147,167,187,208,228,247,267,287,308,327,348,367,388,408,428,447,468,487,507,527,547,567,587,607,627,648,667,688,707,728,748,768,788,807,827,847,867,887,908,928,947],"xSR":741.5,"ySR":469.95,"xT1":424.9,"yT1":0,"xT2":1058.1,"yT2":0,"toosoon":0,"cond_shown":"randomdotsizeEA","ratio_trial":750,"smaller_num":"18","larger_num":"24","correct_side":1,"subjID":"shirlyjulietaavendaño2","gender":"1","age":"9","school":"4"},{"start_time":1552314939434,"click_time":1552314940734,"finger_time":1552314939993,"fix_duration":419.11090143717445,"trial":29,"RT":559,"MT":741,"sideResp":1,"stimulus":"img/250/randomdotsizeEA/L/7_Ratio_250_L_8_R_2.png","xmouse":[787,787,787,787,787,787,787,787,787,787,787,787,787,787,787,787,787,787,790,793,794,797,800,802,804,805,806,806,806,803,795,784,762,752,742,738,735,725,716,702,684,668,638,626,616,605,601,597,597,596,595,594,585,580,575,571,567,557,552,548,545,541,533,527,521],"ymouse":[504,504,504,504,504,504,504,504,504,504,504,504,504,504,504,504,504,504,503,501,500,497,493,489,486,478,472,455,443,428,409,388,346,326,301,290,276,245,225,204,181,160,121,107,94,80,76,75,74,74,74,74,74,74,74,74,74,74,74,74,73,72,70,68,64],"timestamp_mouse":[19,40,59,80,100,119,140,159,178,200,220,240,260,280,299,319,339,359,379,400,419,439,459,479,500,519,539,559,580,599,620,640,659,679,699,719,739,760,779,799,820,839,859,879,899,920,939,958,979,999,1019,1040,1059,1079,1099,1119,1139,1160,1179,1199,1219,1240,1259,1280,1300],"xSR":741.5,"ySR":469.95,"xT1":424.9,"yT1":0,"xT2":1058.1,"yT2":0,"toosoon":0,"cond_shown":"randomdotsizeEA","ratio_trial":250,"smaller_num":"2","larger_num":"8","correct_side":1,"subjID":"shirlyjulietaavendaño2","gender":"1","age":"9","school":"4"},{"start_time":1552314944791,"click_time":1552314946154,"finger_time":1552314945594,"fix_duration":1276.617419282524,"trial":30,"RT":803,"MT":560,"sideResp":2,"stimulus":"img/750/randomdotsizeEA/R/2_Ratio_750_L_6_R_8.png","xmouse":[809,809,809,809,809,809,809,809,809,809,809,809,809,809,809,809,809,809,809,809,809,809,809,809,809,809,809,809,809,809,810,811,811,811,812,813,816,819,825,831,838,853,866,877,890,916,921,931,949,970,996,1063,1106,1153,1202,1246,1261,1268,1270,1271,1273,1278,1280,1280,1278,1244,1217,1189,1157],"ymouse":[511,511,511,511,511,511,511,511,511,511,511,511,511,511,511,511,511,511,511,511,511,511,511,511,511,511,511,511,507,504,494,491,489,488,487,487,484,482,478,474,469,460,452,444,437,422,422,419,412,403,388,347,328,314,307,301,301,301,300,300,300,295,282,263,250,185,142,101,59],"timestamp_mouse":[8,22,42,63,82,102,123,143,162,183,203,223,242,262,282,302,323,342,363,383,403,423,443,463,483,503,523,542,562,582,603,622,643,662,683,702,722,742,762,782,803,822,842,863,883,904,922,943,962,982,1003,1022,1042,1063,1083,1103,1122,1142,1162,1182,1203,1222,1243,1262,1282,1303,1322,1342,1363],"xSR":741.5,"ySR":469.95,"xT1":424.9,"yT1":0,"xT2":1058.1,"yT2":0,"toosoon":0,"cond_shown":"randomdotsizeEA","ratio_trial":750,"smaller_num":"6","larger_num":"8","correct_side":2,"subjID":"shirlyjulietaavendaño2","gender":"1","age":"9","school":"4"},{"start_time":1552314952538,"click_time":1552314953514,"finger_time":1552314953073,"fix_duration":903.4166226530448,"trial":31,"RT":535,"MT":441,"sideResp":1,"stimulus":"img/250/randomdotsizeEA/L/7_Ratio_250_L_8_R_2.png","xmouse":[795,795,795,795,795,795,795,795,795,795,795,795,795,795,797,798,799,800,801,801,802,802,803,803,804,804,800,793,775,762,746,728,707,678,656,645,634,620,595,580,570,559,554,550,547,542,534,528,522],"ymouse":[512,512,512,512,512,512,512,512,512,512,512,512,512,512,512,511,510,509,507,506,504,502,500,494,484,474,459,440,389,363,330,294,259,207,175,150,128,105,64,47,33,25,21,21,21,21,21,21,21],"timestamp_mouse":[15,36,56,75,94,116,135,155,176,195,215,235,255,275,295,315,336,355,376,395,416,436,455,476,495,515,535,556,576,595,615,635,656,676,695,715,734,755,776,795,815,836,856,875,895,915,935,955,976],"xSR":741.5,"ySR":469.95,"xT1":424.9,"yT1":0,"xT2":1058.1,"yT2":0,"toosoon":0,"cond_shown":"randomdotsizeEA","ratio_trial":250,"smaller_num":"2","larger_num":"8","correct_side":1,"subjID":"shirlyjulietaavendaño2","gender":"1","age":"9","school":"4"},{"start_time":1552314956282,"click_time":1552314957294,"finger_time":1552314956873,"fix_duration":306.78491321059977,"trial":32,"RT":591,"MT":421,"sideResp":1,"stimulus":"img/250/equaldotanddens/L/7_Ratio_250_L_8_R_2.png","xmouse":[807,807,807,807,807,807,807,807,807,807,807,807,807,807,807,807,807,807,807,807,807,807,807,807,807,807,807,796,784,772,756,736,704,694,687,686,686,686,686,686,686,686,683,675,657,640,617,564,540,524,516],"ymouse":[526,526,526,526,526,526,526,526,526,526,526,526,526,526,526,526,526,526,526,526,526,526,526,526,526,526,522,502,482,460,431,395,326,300,279,267,265,265,265,265,265,265,258,246,224,206,187,145,124,110,98],"timestamp_mouse":[12,31,52,71,91,112,132,152,172,192,212,231,251,272,292,311,332,352,372,392,412,432,451,471,491,511,531,551,571,591,611,632,651,671,692,712,732,751,771,791,811,831,851,872,891,911,931,952,971,991,1012],"xSR":741.5,"ySR":469.95,"xT1":424.9,"yT1":0,"xT2":1058.1,"yT2":0,"toosoon":0,"cond_shown":"equaldotanddens","ratio_trial":250,"smaller_num":"2","larger_num":"8","correct_side":1,"subjID":"shirlyjulietaavendaño2","gender":"1","age":"9","school":"4"},{"start_time":1552314959781,"click_time":1552314961334,"finger_time":1552314960273,"fix_duration":1326.8490903450754,"trial":33,"RT":492,"MT":1061,"sideResp":2,"stimulus":"img/250/equaldotsize/R/8_Ratio_250_L_1_R_4.png","xmouse":[776,776,776,776,776,776,776,776,776,776,776,776,776,776,776,776,776,776,776,776,781,787,804,816,829,847,867,902,917,921,924,924,924,924,924,924,924,924,924,924,921,898,858,844,838,834,833,832,832,832,832,832,832,832,832,832,832,836,852,866,881,898,916,944,956,972,989,1026,1045,1053,1062,1067,1077,1082,1087,1092,1096,1097],"ymouse":[505,505,505,505,505,505,505,505,505,505,505,505,505,505,505,505,505,505,505,505,505,501,486,477,469,459,444,418,403,395,391,390,390,390,390,390,390,390,390,390,387,376,359,353,349,346,344,344,344,344,344,344,344,344,344,344,344,338,332,326,318,310,299,274,260,246,234,207,193,184,176,169,148,136,126,114,105,94],"timestamp_mouse":[13,40,53,73,93,113,133,152,173,192,213,232,253,273,292,312,333,353,372,392,413,433,452,472,492,513,532,553,573,592,612,632,653,672,692,712,733,753,772,792,813,832,852,872,893,912,933,952,972,993,1012,1032,1052,1072,1093,1113,1133,1153,1171,1192,1212,1232,1252,1272,1292,1312,1333,1353,1372,1392,1412,1432,1452,1472,1493,1512,1533,1553],"xSR":741.5,"ySR":469.95,"xT1":424.9,"yT1":0,"xT2":1058.1,"yT2":0,"toosoon":0,"cond_shown":"equaldotsize","ratio_trial":250,"smaller_num":"1","larger_num":"4","correct_side":2,"subjID":"shirlyjulietaavendaño2","gender":"1","age":"9","school":"4"},{"start_time":1552314964691,"click_time":1552314965953,"finger_time":1552314965593,"fix_duration":655.9732183781784,"trial":34,"RT":902,"MT":360,"sideResp":1,"stimulus":"img/900/equaldotanddens/L/10_Ratio_900_L_20_R_18.png","xmouse":[790,790,790,790,790,790,790,790,790,790,790,790,790,790,790,790,790,790,790,790,790,790,790,790,790,790,790,790,790,790,790,790,790,791,792,792,792,792,792,792,792,790,785,771,761,753,743,732,704,685,660,634,595,561,550,544,540,537,529,526,524,520,516,513],"ymouse":[559,559,559,559,559,559,559,559,559,559,559,559,559,559,559,559,559,559,559,559,559,559,559,559,559,559,559,559,559,559,559,558,557,556,554,554,552,550,548,545,540,530,520,497,482,468,450,429,380,348,314,278,229,189,176,166,160,153,136,125,118,112,104,95],"timestamp_mouse":[11,23,41,62,82,102,122,143,162,183,202,223,243,263,282,302,323,343,362,383,403,422,443,463,483,503,522,542,563,581,603,622,642,663,683,702,722,743,762,782,802,823,842,861,882,902,922,943,962,982,1002,1022,1042,1062,1082,1102,1122,1143,1162,1183,1202,1223,1243,1262],"xSR":741.5,"ySR":469.95,"xT1":424.9,"yT1":0,"xT2":1058.1,"yT2":0,"toosoon":0,"cond_shown":"equaldotanddens","ratio_trial":900,"smaller_num":"18","larger_num":"20","correct_side":1,"subjID":"shirlyjulietaavendaño2","gender":"1","age":"9","school":"4"},{"start_time":1552314966925,"click_time":1552314968334,"finger_time":1552314967693,"fix_duration":250,"trial":35,"RT":768,"MT":641,"sideResp":2,"stimulus":"img/500/equaldotsize/R/3_Ratio_500_L_10_R_20.png","xmouse":[808,808,808,808,808,808,808,808,808,808,808,808,808,808,808,808,808,808,808,808,808,808,808,808,808,808,808,808,808,808,808,808,809,811,812,815,828,838,854,867,890,948,987,1028,1065,1099,1138,1147,1153,1154,1154,1153,1149,1140,1131,1123,1113,1108,1107,1106,1106,1106,1106,1106,1106,1106,1106,1106,1106,1106,1106],"ymouse":[546,546,546,546,546,546,546,546,546,546,546,546,546,546,546,546,546,546,546,546,546,546,546,546,546,546,546,546,546,546,544,541,539,536,533,527,513,500,481,466,442,376,331,285,242,207,168,157,146,141,136,127,126,125,123,123,122,122,122,122,122,122,122,122,121,118,111,108,103,101,99],"timestamp_mouse":[7,34,48,69,88,108,129,148,168,189,208,228,249,269,289,308,329,349,368,388,408,429,448,469,489,509,528,549,569,589,608,628,648,669,688,709,728,748,768,788,808,828,848,869,888,910,928,949,968,988,1008,1028,1048,1068,1088,1109,1128,1149,1168,1188,1208,1229,1249,1269,1288,1309,1329,1349,1368,1388,1409],"xSR":741.5,"ySR":469.95,"xT1":424.9,"yT1":0,"xT2":1058.1,"yT2":0,"toosoon":0,"cond_shown":"equaldotsize","ratio_trial":500,"smaller_num":"10","larger_num":"20","correct_side":2,"subjID":"shirlyjulietaavendaño2","gender":"1","age":"9","school":"4"},{"start_time":1552314970204,"click_time":1552314971273,"finger_time":1552314970853,"fix_duration":808.5138104923133,"trial":36,"RT":649,"MT":420,"sideResp":2,"stimulus":"img/250/equaldotsize/R/12_Ratio_250_L_5_R_20.png","xmouse":[777,777,777,777,777,777,777,777,777,777,777,777,777,777,777,777,777,777,777,777,777,777,777,777,777,778,781,786,803,812,822,832,863,894,920,940,954,966,973,977,983,987,994,1003,1010,1018,1027,1046,1057,1066,1078,1086,1095,1110],"ymouse":[535,535,535,535,535,535,535,535,535,535,535,535,535,535,535,535,535,535,535,535,535,535,535,535,535,535,535,533,524,518,509,501,467,412,365,324,289,259,247,238,228,224,216,209,204,199,191,174,162,152,138,127,113,87],"timestamp_mouse":[8,29,49,70,90,110,129,150,169,189,210,230,250,270,289,310,329,349,369,390,410,430,450,470,490,509,529,549,569,590,609,630,649,669,689,710,729,749,769,789,809,830,850,869,889,910,928,950,969,989,1009,1030,1049,1069],"xSR":741.5,"ySR":469.95,"xT1":424.9,"yT1":0,"xT2":1058.1,"yT2":0,"toosoon":0,"cond_shown":"equaldotsize","ratio_trial":250,"smaller_num":"5","larger_num":"20","correct_side":2,"subjID":"shirlyjulietaavendaño2","gender":"1","age":"9","school":"4"},{"start_time":1552314973124,"click_time":1552314974573,"finger_time":1552314973734,"fix_duration":250,"trial":37,"RT":610,"MT":839,"sideResp":1,"stimulus":"img/750/equaldotanddens/R/12_Ratio_750_L_3_R_4.png","xmouse":[819,819,819,819,819,819,819,819,819,819,819,819,819,819,819,819,819,819,819,819,819,819,819,819,819,819,819,819,823,830,838,843,853,859,864,873,881,895,900,904,907,908,908,908,908,908,908,908,908,908,905,895,886,878,869,858,843,816,801,785,773,760,736,719,713,698,686,656,636,615,592,568,500],"ymouse":[492,492,492,492,492,492,492,492,492,492,492,492,492,492,492,492,492,492,492,492,492,492,492,492,492,492,492,492,487,478,469,462,448,441,433,422,412,395,386,382,378,376,376,376,376,376,376,376,376,375,374,366,359,350,339,324,296,254,231,214,198,183,156,143,139,128,118,98,88,78,68,60,39],"timestamp_mouse":[12,38,49,69,89,109,129,148,169,190,210,229,250,269,289,310,329,349,369,390,410,429,450,469,490,510,530,550,569,589,610,629,649,669,689,709,730,750,769,789,809,829,849,870,889,910,930,949,969,989,1009,1030,1048,1070,1089,1110,1129,1149,1169,1189,1210,1230,1249,1268,1290,1309,1329,1350,1369,1389,1409,1429,1449],"xSR":741.5,"ySR":469.95,"xT1":424.9,"yT1":0,"xT2":1058.1,"yT2":0,"toosoon":0,"cond_shown":"equaldotanddens","ratio_trial":750,"smaller_num":"3","larger_num":"4","correct_side":2,"subjID":"shirlyjulietaavendaño2","gender":"1","age":"9","school":"4"},{"start_time":1552314976607,"click_time":1552314977713,"finger_time":1552314977154,"fix_duration":933.1788003673598,"trial":38,"RT":547,"MT":559,"sideResp":1,"stimulus":"img/900/randomdotsizeEA/L/2_Ratio_900_L_20_R_18.png","xmouse":[795,795,795,795,795,795,795,795,795,795,795,795,795,795,795,795,795,795,795,795,795,795,795,796,798,801,805,808,822,831,843,848,852,853,854,854,854,854,854,854,849,843,832,802,786,766,744,716,653,613,589,568,550,518,505,491],"ymouse":[499,499,499,499,499,499,499,499,499,499,499,499,499,499,499,499,499,499,499,499,499,498,497,490,485,479,470,464,432,414,385,372,362,356,355,355,355,355,355,354,351,345,337,317,303,287,269,247,204,178,163,148,135,112,101,87],"timestamp_mouse":[11,30,46,66,86,107,127,147,166,186,206,227,246,267,285,306,327,345,367,386,407,426,447,466,486,506,527,547,566,586,606,627,646,666,687,707,726,747,766,787,806,826,847,867,886,906,926,947,966,986,1007,1026,1046,1066,1086,1106],"xSR":741.5,"ySR":469.95,"xT1":424.9,"yT1":0,"xT2":1058.1,"yT2":0,"toosoon":0,"cond_shown":"randomdotsizeEA","ratio_trial":900,"smaller_num":"18","larger_num":"20","correct_side":1,"subjID":"shirlyjulietaavendaño2","gender":"1","age":"9","school":"4"},{"start_time":1552314979542,"click_time":1552314980713,"finger_time":1552314980254,"fix_duration":786.8424808244241,"trial":39,"RT":712,"MT":459,"sideResp":2,"stimulus":"img/750/equaldotsize/R/4_Ratio_750_L_15_R_20.png","xmouse":[767,767,767,767,767,767,767,767,767,767,767,767,767,767,767,767,767,767,767,767,767,767,767,767,767,767,767,767,769,770,773,777,790,797,807,821,859,880,900,918,934,949,984,1000,1015,1028,1047,1053,1055,1057,1057,1058,1064,1071,1078,1090,1115,1127,1137],"ymouse":[538,538,538,538,538,538,538,538,538,538,538,538,538,538,538,538,538,538,538,538,538,538,538,538,538,538,538,538,538,537,535,531,508,494,475,456,420,404,390,375,360,344,308,293,278,263,241,235,232,230,229,226,216,207,198,184,145,121,99],"timestamp_mouse":[11,31,51,70,91,112,132,154,171,191,211,231,252,271,292,311,331,351,371,392,412,431,451,472,491,512,532,551,571,592,612,631,651,671,691,711,732,751,771,791,811,831,851,871,891,911,932,951,971,990,1011,1031,1052,1071,1092,1111,1132,1151,1170],"xSR":741.5,"ySR":469.95,"xT1":424.9,"yT1":0,"xT2":1058.1,"yT2":0,"toosoon":0,"cond_shown":"equaldotsize","ratio_trial":750,"smaller_num":"15","larger_num":"20","correct_side":2,"subjID":"shirlyjulietaavendaño2","gender":"1","age":"9","school":"4"},{"start_time":1552314982849,"click_time":1552314983993,"finger_time":1552314983493,"fix_duration":993.3966439004732,"trial":40,"RT":644,"MT":500,"sideResp":1,"stimulus":"img/900/randomdotsizeEA/R/6_Ratio_900_L_9_R_10.png","xmouse":[791,791,791,791,791,791,791,791,791,791,791,791,791,791,791,791,791,791,791,791,791,791,791,789,787,784,781,774,770,767,764,762,752,739,733,702,672,626,619,617,617,618,621,622,623,624,625,626,626,623,618,611,593,580,559,547,537,519],"ymouse":[510,510,510,510,510,510,510,510,510,510,510,510,510,510,510,510,510,510,510,510,510,510,510,508,505,502,498,490,487,484,479,474,459,440,430,388,355,296,277,264,253,245,232,227,223,215,209,196,187,177,169,160,143,135,124,116,109,99],"timestamp_mouse":[8,25,44,65,83,105,125,143,165,184,205,224,245,265,284,304,324,344,364,384,404,424,445,464,484,504,524,544,564,585,605,624,644,665,684,704,725,744,764,785,804,824,844,864,884,905,924,944,964,984,1004,1024,1044,1065,1084,1105,1124,1144],"xSR":741.5,"ySR":469.95,"xT1":424.9,"yT1":0,"xT2":1058.1,"yT2":0,"toosoon":0,"cond_shown":"randomdotsizeEA","ratio_trial":900,"smaller_num":"9","larger_num":"10","correct_side":2,"subjID":"shirlyjulietaavendaño2","gender":"1","age":"9","school":"4"},{"start_time":1552314987045,"click_time":1552314988033,"finger_time":1552314987773,"fix_duration":250,"trial":41,"RT":728,"MT":260,"sideResp":1,"stimulus":"img/500/randomdotsizeEA/L/11_Ratio_500_L_12_R_6.png","xmouse":[769,769,769,769,769,769,769,769,769,769,769,769,769,769,769,769,769,769,769,769,769,769,769,769,769,769,769,769,769,769,769,769,769,768,762,752,741,710,693,679,666,652,601,573,538,506,479,442,435,429],"ymouse":[531,531,531,531,531,531,531,531,531,531,531,531,531,531,531,531,531,531,531,531,531,531,531,531,531,531,531,531,531,531,531,531,531,525,514,497,475,418,386,362,340,316,251,223,192,165,142,113,103,95],"timestamp_mouse":[8,34,48,69,87,109,128,148,168,188,208,229,249,269,289,308,329,348,369,389,407,429,448,467,489,509,529,549,568,589,609,628,648,668,688,709,728,749,768,787,809,829,849,868,888,907,928,950,968,988],"xSR":741.5,"ySR":469.95,"xT1":424.9,"yT1":0,"xT2":1058.1,"yT2":0,"toosoon":0,"cond_shown":"randomdotsizeEA","ratio_trial":500,"smaller_num":"6","larger_num":"12","correct_side":1,"subjID":"shirlyjulietaavendaño2","gender":"1","age":"9","school":"4"},{"start_time":1552314991377,"click_time":1552314993013,"finger_time":1552314992274,"fix_duration":962.7148261286807,"trial":42,"RT":897,"MT":739,"sideResp":1,"stimulus":"img/750/equaldotsize/L/13_Ratio_750_L_8_R_6.png","xmouse":[769,769,769,769,769,769,769,769,769,769,769,769,769,769,769,769,769,769,769,769,769,769,769,769,769,769,769,769,769,769,769,769,769,769,769,769,769,769,769,769,768,765,761,750,741,731,702,680,659,632,606,562,549,545,544,544,541,539,536,531,528,512,504,495,489,480,467,462,460,458,456,455,455,455,455,455,455,455,455,455,455,455],"ymouse":[535,535,535,535,535,535,535,535,535,535,535,535,535,535,535,535,535,535,535,535,535,535,535,535,535,535,535,535,535,535,535,535,535,535,535,535,535,535,535,535,535,520,505,479,458,437,393,367,342,313,290,259,247,242,237,230,215,207,199,189,179,154,142,130,124,120,113,110,109,107,105,105,104,104,103,103,103,103,102,101,101,99],"timestamp_mouse":[16,36,56,76,97,117,137,157,176,197,216,236,256,276,297,316,336,357,377,397,417,437,456,477,495,516,536,556,577,595,617,635,656,677,696,716,736,756,777,797,817,836,856,876,897,916,936,956,976,996,1016,1036,1057,1076,1097,1117,1136,1156,1176,1196,1217,1236,1257,1276,1297,1317,1337,1356,1377,1396,1416,1436,1457,1476,1497,1516,1536,1555,1576,1597,1617,1636],"xSR":741.5,"ySR":469.95,"xT1":424.9,"yT1":0,"xT2":1058.1,"yT2":0,"toosoon":0,"cond_shown":"equaldotsize","ratio_trial":750,"smaller_num":"6","larger_num":"8","correct_side":1,"subjID":"shirlyjulietaavendaño2","gender":"1","age":"9","school":"4"},{"start_time":1552314995812,"click_time":1552314996873,"finger_time":1552314996513,"fix_duration":916.0999468683792,"trial":43,"RT":701,"MT":360,"sideResp":1,"stimulus":"img/250/equaldotanddens/L/3_Ratio_250_L_8_R_2.png","xmouse":[805,805,805,805,805,805,805,805,805,805,805,805,805,805,805,805,805,805,805,805,805,805,805,805,805,805,805,805,804,804,804,804,802,798,790,760,718,650,568,483,344,315,315,315,315,315,315,315,315,315,315,315,315,433],"ymouse":[541,541,541,541,541,541,541,541,541,541,541,541,541,541,541,541,541,541,541,541,541,541,540,538,538,537,537,537,537,537,537,532,526,515,501,454,406,332,250,163,29,0,0,0,0,0,0,0,0,0,0,0,0,5],"timestamp_mouse":[8,21,45,61,80,102,121,142,162,181,201,220,242,261,282,302,321,346,361,381,401,421,441,461,481,501,521,541,562,581,601,622,641,661,682,701,720,741,762,781,802,821,841,862,881,902,921,942,961,981,1001,1021,1041,1061],"xSR":741.5,"ySR":469.95,"xT1":424.9,"yT1":0,"xT2":1058.1,"yT2":0,"toosoon":0,"cond_shown":"equaldotanddens","ratio_trial":250,"smaller_num":"2","larger_num":"8","correct_side":1,"subjID":"shirlyjulietaavendaño2","gender":"1","age":"9","school":"4"},{"start_time":1552314998965,"click_time":1552315000113,"finger_time":1552314999634,"fix_duration":750.3944132627552,"trial":44,"RT":669,"MT":479,"sideResp":2,"stimulus":"img/250/randomdotsizeEA/R/4_Ratio_250_L_3_R_12.png","xmouse":[804,804,804,804,804,804,804,804,804,804,804,804,804,805,806,806,806,807,807,807,807,807,807,807,807,807,807,807,807,807,809,816,826,854,866,879,890,902,984,1036,1079,1084,1090,1091,1093,1096,1101,1113,1119,1122,1127,1131,1134,1140,1142,1144,1145,1145],"ymouse":[492,492,492,492,492,492,492,492,492,492,492,492,492,492,492,491,489,488,488,488,488,488,488,488,488,488,488,488,488,487,486,482,474,445,427,403,376,357,269,232,209,206,201,200,199,197,194,186,181,177,171,162,153,133,125,114,104,97],"timestamp_mouse":[10,30,48,69,88,107,129,148,169,188,209,229,248,268,288,309,328,347,369,388,409,429,449,468,487,509,529,549,569,589,609,629,648,669,688,709,728,747,768,789,808,828,848,868,888,908,928,949,968,989,1008,1027,1049,1068,1088,1109,1128,1148],"xSR":741.5,"ySR":469.95,"xT1":424.9,"yT1":0,"xT2":1058.1,"yT2":0,"toosoon":0,"cond_shown":"randomdotsizeEA","ratio_trial":250,"smaller_num":"3","larger_num":"12","correct_side":2,"subjID":"shirlyjulietaavendaño2","gender":"1","age":"9","school":"4"},{"start_time":1552315001819,"click_time":1552315002953,"finger_time":1552315002513,"fix_duration":704.6315772728751,"trial":45,"RT":694,"MT":440,"sideResp":1,"stimulus":"img/250/equaldotanddens/L/14_Ratio_250_L_12_R_3.png","xmouse":[782,782,782,782,782,782,782,782,783,784,786,786,788,788,788,789,790,790,791,792,792,792,792,793,793,793,793,793,793,793,793,793,791,785,777,747,733,704,691,682,674,673,673,673,673,672,663,653,637,619,576,557,543,533,530,526,524],"ymouse":[552,552,552,552,552,552,552,552,552,552,552,551,550,549,548,548,547,546,546,545,544,544,543,543,542,542,541,541,539,535,524,515,500,477,446,342,271,163,104,71,37,29,28,28,28,27,27,28,35,45,64,71,72,73,73,73,73],"timestamp_mouse":[15,34,55,74,94,114,134,154,174,194,214,234,255,275,294,314,334,354,374,394,415,434,455,474,494,515,534,554,574,595,614,634,654,675,694,715,734,754,775,794,814,834,854,875,895,914,934,954,974,994,1014,1034,1054,1073,1095,1114,1133],"xSR":741.5,"ySR":469.95,"xT1":424.9,"yT1":0,"xT2":1058.1,"yT2":0,"toosoon":0,"cond_shown":"equaldotanddens","ratio_trial":250,"smaller_num":"3","larger_num":"12","correct_side":1,"subjID":"shirlyjulietaavendaño2","gender":"1","age":"9","school":"4"},{"start_time":1552315004234,"click_time":1552315004913,"finger_time":1552315004793,"fix_duration":258.8807040544707,"trial":46,"RT":559,"MT":120,"sideResp":1,"stimulus":"img/500/equaldotsize/L/13_Ratio_500_L_12_R_6.png","xmouse":[799,799,799,799,799,799,799,799,799,799,799,799,799,799,799,799,799,799,799,799,800,800,800,800,800,800,798,793,779,760,681,625,567,512,474],"ymouse":[496,496,496,496,496,496,496,496,496,496,496,496,496,496,496,496,495,495,494,493,492,492,492,492,492,490,482,473,456,433,352,297,227,153,84],"timestamp_mouse":[1,30,39,59,79,99,120,139,160,180,199,220,239,260,280,299,320,339,359,379,399,420,440,460,478,499,519,539,559,579,600,619,639,660,679],"xSR":741.5,"ySR":469.95,"xT1":424.9,"yT1":0,"xT2":1058.1,"yT2":0,"toosoon":0,"cond_shown":"equaldotsize","ratio_trial":500,"smaller_num":"6","larger_num":"12","correct_side":1,"subjID":"shirlyjulietaavendaño2","gender":"1","age":"9","school":"4"},{"start_time":1552315006723,"click_time":1552315007835,"finger_time":1552315007353,"fix_duration":367.007449364673,"trial":47,"RT":630,"MT":482,"sideResp":2,"stimulus":"img/900/equaldotsize/L/8_Ratio_900_L_20_R_18.png","xmouse":[793,793,793,793,793,793,793,793,793,793,793,793,793,793,793,793,793,793,791,791,789,785,784,783,783,783,783,783,783,783,785,791,799,809,821,837,870,883,898,915,945,987,1005,1019,1031,1041,1054,1059,1064,1071,1080,1084,1085,1086,1089,1108],"ymouse":[527,527,527,527,527,527,527,527,527,527,527,527,527,527,527,527,527,527,523,522,516,507,503,499,496,492,487,485,482,475,473,462,454,441,427,411,381,367,352,332,300,261,244,230,215,204,191,185,179,170,155,137,130,123,115,87],"timestamp_mouse":[10,30,51,70,90,111,130,150,171,190,211,230,251,271,291,311,330,351,370,391,410,430,450,471,491,510,530,551,571,591,610,630,650,670,691,710,730,750,770,791,810,830,850,871,890,912,930,951,971,990,1010,1030,1050,1070,1091,1112],"xSR":741.5,"ySR":469.95,"xT1":424.9,"yT1":0,"xT2":1058.1,"yT2":0,"toosoon":0,"cond_shown":"equaldotsize","ratio_trial":900,"smaller_num":"18","larger_num":"20","correct_side":1,"subjID":"shirlyjulietaavendaño2","gender":"1","age":"9","school":"4"},{"start_time":1552315009382,"click_time":1552315010473,"finger_time":1552315010133,"fix_duration":826.1857551177595,"trial":48,"RT":751,"MT":340,"sideResp":1,"stimulus":"img/500/randomdotsizeEA/L/13_Ratio_500_L_12_R_6.png","xmouse":[786,786,786,786,786,786,786,786,786,786,786,786,786,786,786,786,786,786,786,786,786,786,786,786,786,786,786,786,786,786,786,786,786,787,784,780,765,754,740,736,734,730,726,708,689,646,612,586,553,546,543,542,539,530,522],"ymouse":[532,532,532,532,532,532,532,532,532,532,532,532,532,532,532,532,532,532,532,532,532,532,532,532,532,532,532,532,532,532,532,532,532,528,518,506,479,462,432,419,408,398,383,346,316,258,217,188,150,138,132,124,116,95,84],"timestamp_mouse":[17,39,51,71,91,112,132,150,172,192,211,232,252,272,291,311,331,350,371,391,411,432,451,472,492,511,532,551,572,591,612,632,651,671,692,711,732,751,771,791,811,831,851,871,891,911,931,951,971,991,1011,1031,1051,1071,1091],"xSR":741.5,"ySR":469.95,"xT1":424.9,"yT1":0,"xT2":1058.1,"yT2":0,"toosoon":0,"cond_shown":"randomdotsizeEA","ratio_trial":500,"smaller_num":"6","larger_num":"12","correct_side":1,"subjID":"shirlyjulietaavendaño2","gender":"1","age":"9","school":"4"},{"start_time":1552315011937,"click_time":1552315012993,"finger_time":1552315012593,"fix_duration":501.467388740364,"trial":49,"RT":656,"MT":400,"sideResp":2,"stimulus":"img/500/equaldotsize/R/2_Ratio_500_L_3_R_6.png","xmouse":[773,773,773,773,773,773,773,773,773,773,773,773,773,773,773,773,773,773,773,773,773,773,773,773,773,773,775,786,792,801,824,833,843,856,869,920,966,993,1011,1023,1045,1051,1059,1065,1070,1082,1087,1090,1093,1097,1104,1107,1111],"ymouse":[524,524,524,524,524,524,524,524,524,524,524,524,524,524,524,524,524,524,524,524,524,524,524,524,524,524,524,520,515,507,484,472,455,434,412,336,286,258,240,227,202,193,185,177,171,160,156,151,146,138,119,102,86],"timestamp_mouse":[16,36,57,76,97,116,137,156,177,196,217,237,257,277,297,317,337,357,376,396,417,437,457,476,497,516,536,556,576,597,616,636,656,676,696,716,736,756,776,796,816,836,855,876,896,916,936,955,976,996,1017,1036,1056],"xSR":741.5,"ySR":469.95,"xT1":424.9,"yT1":0,"xT2":1058.1,"yT2":0,"toosoon":0,"cond_shown":"equaldotsize","ratio_trial":500,"smaller_num":"3","larger_num":"6","correct_side":2,"subjID":"shirlyjulietaavendaño2","gender":"1","age":"9","school":"4"},{"start_time":1552315014562,"click_time":1552315015653,"finger_time":1552315015354,"fix_duration":607.842340477587,"trial":50,"RT":792,"MT":299,"sideResp":2,"stimulus":"img/750/randomdotsizeEA/L/10_Ratio_750_L_4_R_3.png","xmouse":[796,796,796,796,796,796,798,800,802,803,803,804,804,804,804,804,804,804,804,805,806,808,808,808,810,813,816,819,823,826,833,834,834,834,834,834,834,836,840,851,866,882,904,928,993,1014,1029,1045,1056,1066,1078,1081,1084,1087,1092],"ymouse":[506,506,506,506,506,506,506,506,506,506,506,506,506,506,506,506,506,506,506,506,506,506,506,506,506,506,505,503,501,499,493,492,492,492,492,492,492,490,485,473,462,448,427,403,313,260,208,170,148,132,116,112,107,105,99],"timestamp_mouse":[11,38,51,71,92,111,131,152,171,191,211,232,252,272,291,311,331,351,371,392,411,431,452,471,491,512,531,551,571,591,611,631,651,672,691,711,731,752,771,792,811,831,851,871,892,911,931,951,972,991,1011,1031,1051,1071,1091],"xSR":741.5,"ySR":469.95,"xT1":424.9,"yT1":0,"xT2":1058.1,"yT2":0,"toosoon":0,"cond_shown":"randomdotsizeEA","ratio_trial":750,"smaller_num":"3","larger_num":"4","correct_side":1,"subjID":"shirlyjulietaavendaño2","gender":"1","age":"9","school":"4"},{"start_time":1552315018946,"click_time":1552315019813,"finger_time":1552315019293,"fix_duration":992.7780562712262,"trial":51,"RT":347,"MT":520,"sideResp":1,"stimulus":"img/250/equaldotsize/L/15_Ratio_250_L_12_R_3.png","xmouse":[807,806,806,806,806,806,806,806,806,806,806,806,806,806,806,806,806,806,798,778,738,670,654,647,642,640,628,618,603,587,572,555,551,550,550,550,550,550,550,549,549,543,537,514],"ymouse":[486,485,485,485,485,485,485,485,485,485,485,485,485,485,485,484,472,461,440,401,341,238,209,188,164,150,126,113,101,88,78,64,61,60,60,60,60,60,60,60,60,60,59,54],"timestamp_mouse":[8,28,47,67,88,106,128,148,167,188,208,228,248,268,288,307,327,347,367,387,407,428,448,467,488,507,527,548,568,587,607,628,646,667,687,707,727,747,768,788,808,828,848,867],"xSR":741.5,"ySR":469.95,"xT1":424.9,"yT1":0,"xT2":1058.1,"yT2":0,"toosoon":0,"cond_shown":"equaldotsize","ratio_trial":250,"smaller_num":"3","larger_num":"12","correct_side":1,"subjID":"shirlyjulietaavendaño2","gender":"1","age":"9","school":"4"},{"start_time":1552315022785,"click_time":1552315023733,"finger_time":1552315023514,"fix_duration":250,"trial":52,"RT":729,"MT":219,"sideResp":1,"stimulus":"img/500/randomdotsizeEA/L/5_Ratio_500_L_4_R_2.png","xmouse":[781,781,781,781,781,781,781,781,781,781,781,781,781,781,781,781,781,781,781,781,781,781,781,781,781,781,781,781,782,783,785,786,789,796,817,831,844,854,860,862,854,839,818,785,697,631,563,499],"ymouse":[534,534,534,534,534,534,534,534,534,534,534,534,534,534,534,534,534,534,534,534,534,534,534,534,534,534,534,534,533,532,530,529,526,521,505,495,484,474,466,455,416,390,356,313,225,171,113,58],"timestamp_mouse":[16,40,49,68,89,109,129,149,169,188,209,228,249,268,289,308,329,347,369,389,407,429,449,468,489,509,529,549,569,588,608,628,648,668,688,708,729,749,768,789,809,828,848,868,889,908,929,948],"xSR":741.5,"ySR":469.95,"xT1":424.9,"yT1":0,"xT2":1058.1,"yT2":0,"toosoon":0,"cond_shown":"randomdotsizeEA","ratio_trial":500,"smaller_num":"2","larger_num":"4","correct_side":1,"subjID":"shirlyjulietaavendaño2","gender":"1","age":"9","school":"4"},{"start_time":1552315025516,"click_time":1552315026554,"finger_time":1552315026074,"fix_duration":361.95814606570275,"trial":53,"RT":558,"MT":480,"sideResp":1,"stimulus":"img/500/equaldotanddens/L/5_Ratio_500_L_4_R_2.png","xmouse":[772,772,772,772,772,772,772,772,772,772,772,772,771,771,771,771,771,771,771,771,771,771,771,769,762,752,745,741,733,727,724,711,698,662,633,595,565,552,543,541,540,541,543,551,555,558,560,561,562,557,537,514],"ymouse":[522,522,522,522,522,522,522,522,522,522,522,522,521,521,521,521,521,521,521,521,521,521,521,514,507,500,495,492,487,482,480,470,459,422,388,347,310,279,232,216,204,195,190,179,174,168,162,155,135,122,96,77],"timestamp_mouse":[17,40,57,77,98,118,138,158,178,197,218,237,258,278,297,317,337,357,377,398,418,437,457,477,497,518,537,558,577,599,618,637,657,677,697,717,738,758,777,797,817,837,857,877,897,917,937,957,977,997,1017,1038],"xSR":741.5,"ySR":469.95,"xT1":424.9,"yT1":0,"xT2":1058.1,"yT2":0,"toosoon":0,"cond_shown":"equaldotanddens","ratio_trial":500,"smaller_num":"2","larger_num":"4","correct_side":1,"subjID":"shirlyjulietaavendaño2","gender":"1","age":"9","school":"4"},{"start_time":1552315028306,"click_time":1552315029273,"finger_time":1552315028933,"fix_duration":592.3922130922804,"trial":54,"RT":627,"MT":340,"sideResp":1,"stimulus":"img/500/randomdotsizeEA/L/13_Ratio_500_L_12_R_6.png","xmouse":[813,813,813,813,813,813,813,813,813,813,813,813,813,813,813,813,813,813,813,813,813,813,813,814,814,810,804,797,792,786,785,783,782,782,781,781,781,780,777,765,758,753,749,742,730,636,562,488,428],"ymouse":[519,519,519,519,519,519,519,519,519,519,519,519,519,519,519,519,519,519,519,519,519,517,514,512,505,498,491,484,479,473,471,467,463,462,460,459,459,459,457,451,446,442,437,427,410,310,238,162,95],"timestamp_mouse":[11,33,48,66,87,108,128,148,168,187,207,227,248,268,288,307,328,347,368,388,407,427,447,468,487,507,527,548,567,587,608,627,648,667,687,707,727,747,767,787,808,827,848,867,887,907,928,947,967],"xSR":741.5,"ySR":469.95,"xT1":424.9,"yT1":0,"xT2":1058.1,"yT2":0,"toosoon":0,"cond_shown":"randomdotsizeEA","ratio_trial":500,"smaller_num":"6","larger_num":"12","correct_side":1,"subjID":"shirlyjulietaavendaño2","gender":"1","age":"9","school":"4"},{"start_time":1552315031328,"click_time":1552315032313,"finger_time":1552315031893,"fix_duration":794.5552239727305,"trial":55,"RT":565,"MT":420,"sideResp":2,"stimulus":"img/500/equaldotanddens/R/2_Ratio_500_L_3_R_6.png","xmouse":[780,780,780,780,780,780,780,780,780,780,780,780,780,780,780,780,780,780,780,780,780,780,780,782,783,784,787,791,796,812,824,836,854,903,965,1027,1093,1126,1144,1153,1154,1154,1154,1154,1154,1154,1154,1153,1149,1130],"ymouse":[517,517,517,517,517,517,517,517,517,517,517,517,517,517,516,515,514,513,507,504,500,497,493,488,485,482,478,473,467,445,428,407,372,264,196,157,136,124,118,111,108,107,106,106,106,106,105,104,101,90],"timestamp_mouse":[10,29,45,66,85,106,126,145,166,185,205,225,245,265,285,306,325,345,366,385,405,425,445,466,485,506,525,545,565,586,605,625,645,667,685,705,725,745,765,786,806,826,845,866,885,906,925,945,966,985],"xSR":741.5,"ySR":469.95,"xT1":424.9,"yT1":0,"xT2":1058.1,"yT2":0,"toosoon":0,"cond_shown":"equaldotanddens","ratio_trial":500,"smaller_num":"3","larger_num":"6","correct_side":2,"subjID":"shirlyjulietaavendaño2","gender":"1","age":"9","school":"4"},{"start_time":1552315034933,"click_time":1552315035713,"finger_time":1552315035413,"fix_duration":1419.0543410506136,"trial":56,"RT":480,"MT":300,"sideResp":2,"stimulus":"img/750/equaldotanddens/R/12_Ratio_750_L_3_R_4.png","xmouse":[813,813,813,813,813,813,813,813,813,813,813,813,813,813,813,813,813,813,813,814,815,816,818,821,835,844,850,857,859,860,862,864,867,873,890,901,917,963,1011,1120],"ymouse":[504,504,504,504,504,504,504,504,504,504,504,504,504,504,504,504,504,504,501,498,496,491,485,476,442,424,409,390,381,373,369,365,359,352,332,316,298,248,196,94],"timestamp_mouse":[8,31,40,60,81,100,120,141,161,180,200,220,240,260,280,300,320,340,360,380,400,420,440,460,480,500,520,540,561,580,600,620,641,660,680,700,720,740,760,780],"xSR":741.5,"ySR":469.95,"xT1":424.9,"yT1":0,"xT2":1058.1,"yT2":0,"toosoon":0,"cond_shown":"equaldotanddens","ratio_trial":750,"smaller_num":"3","larger_num":"4","correct_side":2,"subjID":"shirlyjulietaavendaño2","gender":"1","age":"9","school":"4"},{"start_time":1552315039914,"click_time":1552315040993,"finger_time":1552315040594,"fix_duration":1499.2091311051763,"trial":57,"RT":680,"MT":399,"sideResp":2,"stimulus":"img/250/equaldotanddens/R/6_Ratio_250_L_6_R_24.png","xmouse":[780,780,780,781,781,781,781,782,782,782,782,782,782,782,782,782,782,782,782,782,782,784,785,786,786,787,787,789,790,793,806,818,840,872,956,993,1018,1035,1049,1061,1066,1072,1078,1083,1089,1089,1084,1080,1077,1074,1071,1071,1071,1072],"ymouse":[531,531,531,532,532,532,532,532,532,532,532,532,532,532,532,532,532,532,532,532,532,532,532,532,532,532,532,530,530,527,517,507,485,451,357,314,286,270,258,244,235,223,209,193,158,146,136,129,125,121,113,109,104,97],"timestamp_mouse":[28,39,59,79,108,119,139,160,180,199,218,240,259,280,298,320,340,359,380,399,420,439,460,479,499,520,539,560,579,600,619,640,660,680,700,719,739,759,779,801,819,839,859,879,901,919,939,960,979,1000,1019,1040,1059,1078],"xSR":741.5,"ySR":469.95,"xT1":424.9,"yT1":0,"xT2":1058.1,"yT2":0,"toosoon":0,"cond_shown":"equaldotanddens","ratio_trial":250,"smaller_num":"6","larger_num":"24","correct_side":2,"subjID":"shirlyjulietaavendaño2","gender":"1","age":"9","school":"4"},{"start_time":1552315043266,"click_time":1552315044613,"finger_time":1552315044013,"fix_duration":1069.2843326934803,"trial":58,"RT":747,"MT":600,"sideResp":2,"stimulus":"img/900/equaldotanddens/R/6_Ratio_900_L_9_R_10.png","xmouse":[777,777,777,777,777,777,777,777,777,777,777,777,777,777,777,777,777,777,777,777,777,777,779,779,780,781,783,786,790,793,796,800,801,804,806,807,808,809,812,812,812,812,812,812,812,812,816,821,838,849,861,872,884,911,924,938,955,962,980,987,996,1004,1012,1032,1046,1056,1064,1070],"ymouse":[533,533,533,533,533,533,533,533,533,533,533,533,533,533,533,533,533,533,533,533,533,534,534,534,534,534,534,534,531,525,519,510,503,489,482,479,472,469,456,447,434,421,406,373,356,337,312,298,274,267,263,258,255,247,241,233,225,218,204,198,187,177,168,145,129,118,108,99],"timestamp_mouse":[10,30,47,67,88,107,127,148,167,188,207,228,247,268,287,307,328,347,368,388,408,427,447,468,487,507,528,547,567,587,607,627,647,667,687,707,728,747,767,787,807,827,848,867,888,908,927,948,967,987,1007,1027,1047,1067,1087,1107,1127,1147,1166,1187,1207,1227,1247,1267,1287,1307,1328,1347],"xSR":741.5,"ySR":469.95,"xT1":424.9,"yT1":0,"xT2":1058.1,"yT2":0,"toosoon":0,"cond_shown":"equaldotanddens","ratio_trial":900,"smaller_num":"9","larger_num":"10","correct_side":2,"subjID":"shirlyjulietaavendaño2","gender":"1","age":"9","school":"4"},{"start_time":1552315045885,"click_time":1552315046754,"finger_time":1552315046573,"fix_duration":250,"trial":59,"RT":688,"MT":181,"sideResp":1,"stimulus":"img/250/randomdotsizeEA/L/15_Ratio_250_L_12_R_3.png","xmouse":[771,771,771,771,771,771,771,771,771,771,771,771,771,771,774,776,778,780,781,783,784,786,790,791,794,795,796,798,798,799,799,799,792,782,775,770,762,752,725,703,673,638,590,488],"ymouse":[552,552,552,552,552,552,552,552,552,552,552,552,552,552,552,552,551,551,550,550,549,549,548,547,545,542,539,532,527,524,519,514,492,475,463,453,440,428,391,363,321,265,192,47],"timestamp_mouse":[8,28,48,70,89,108,129,149,168,188,209,228,248,268,288,309,328,348,368,389,409,429,448,469,488,509,528,548,568,588,608,628,648,667,688,708,728,748,768,787,809,828,848,869],"xSR":741.5,"ySR":469.95,"xT1":424.9,"yT1":0,"xT2":1058.1,"yT2":0,"toosoon":0,"cond_shown":"randomdotsizeEA","ratio_trial":250,"smaller_num":"3","larger_num":"12","correct_side":1,"subjID":"shirlyjulietaavendaño2","gender":"1","age":"9","school":"4"},{"start_time":1552315048904,"click_time":1552315050373,"finger_time":1552315049434,"fix_duration":250,"trial":60,"RT":530,"MT":939,"sideResp":2,"stimulus":"img/250/equaldotanddens/R/12_Ratio_250_L_5_R_20.png","xmouse":[750,750,750,750,750,750,750,750,750,750,750,750,750,750,750,750,750,750,750,751,752,753,771,784,800,818,852,867,880,890,896,910,915,918,919,922,924,929,932,933,936,942,953,971,998,1028,1065,1073,1080,1084,1088,1106,1115,1122,1126,1126,1126,1126,1126,1126,1126,1126,1125,1124,1122,1122,1121,1121,1120,1119,1119,1118,1115,1114],"ymouse":[523,523,523,523,524,525,527,527,528,528,528,528,528,530,531,533,535,535,535,535,535,535,533,525,514,500,472,456,440,422,405,365,351,339,333,325,318,306,300,294,285,267,252,234,213,195,172,167,164,163,161,151,145,141,138,138,138,138,138,138,138,138,131,126,121,116,114,111,110,109,108,106,101,99],"timestamp_mouse":[10,36,50,69,89,109,129,150,169,189,210,230,250,269,290,309,330,349,369,390,409,429,449,469,490,509,530,549,569,589,610,631,650,670,689,710,729,749,769,789,809,831,848,869,889,910,931,948,970,989,1009,1030,1049,1069,1089,1109,1129,1150,1169,1189,1210,1229,1249,1269,1289,1309,1329,1349,1370,1389,1410,1429,1450,1469],"xSR":741.5,"ySR":469.95,"xT1":424.9,"yT1":0,"xT2":1058.1,"yT2":0,"toosoon":0,"cond_shown":"equaldotanddens","ratio_trial":250,"smaller_num":"5","larger_num":"20","correct_side":2,"subjID":"shirlyjulietaavendaño2","gender":"1","age":"9","school":"4"},{"start_time":1552315055486,"click_time":1552315056593,"finger_time":1552315056153,"fix_duration":250,"trial":61,"RT":667,"MT":440,"sideResp":2,"stimulus":"img/500/equaldotsize/R/6_Ratio_500_L_9_R_18.png","xmouse":[799,799,799,799,799,799,799,799,799,799,799,799,799,799,799,799,799,799,799,799,799,799,799,799,799,799,799,799,800,801,802,806,811,829,845,865,885,904,939,961,973,985,995,1008,1014,1020,1024,1029,1037,1043,1048,1050,1055,1065,1072,1077],"ymouse":[518,518,518,518,518,518,518,518,518,518,518,518,518,518,518,518,518,518,518,518,518,518,518,518,518,515,514,511,508,505,501,494,484,453,424,387,348,310,243,203,182,166,152,135,130,126,123,121,116,114,112,111,109,105,102,99],"timestamp_mouse":[11,29,47,67,87,107,128,147,167,187,208,228,247,267,288,307,328,348,367,388,407,428,448,467,487,507,527,547,567,587,607,627,648,667,687,707,728,747,767,788,807,827,847,867,887,908,928,948,967,987,1007,1027,1047,1067,1086,1107],"xSR":741.5,"ySR":469.95,"xT1":424.9,"yT1":0,"xT2":1058.1,"yT2":0,"toosoon":0,"cond_shown":"equaldotsize","ratio_trial":500,"smaller_num":"9","larger_num":"18","correct_side":2,"subjID":"shirlyjulietaavendaño2","gender":"1","age":"9","school":"4"},{"start_time":1552315061332,"click_time":1552315062593,"finger_time":1552315062134,"fix_duration":856.6060593125812,"trial":62,"RT":802,"MT":459,"sideResp":1,"stimulus":"img/900/equaldotsize/L/2_Ratio_900_L_20_R_18.png","xmouse":[784,784,784,786,786,786,787,787,787,787,787,787,787,787,787,787,787,787,787,787,787,787,787,787,787,787,787,787,787,787,787,787,787,787,787,787,787,786,786,784,777,766,715,672,618,592,579,576,577,578,581,581,581,581,581,581,581,577,568,555,539,524,501,497],"ymouse":[505,505,505,508,509,509,509,509,509,509,509,509,509,509,509,509,509,509,509,509,509,509,509,509,509,509,509,509,509,509,509,509,509,509,509,509,508,501,492,479,461,435,343,281,206,173,155,147,145,144,143,143,143,143,143,143,143,143,139,133,123,116,102,98],"timestamp_mouse":[8,21,43,62,81,101,122,141,162,182,201,221,241,261,280,303,321,342,361,381,401,422,441,461,482,501,521,541,562,581,601,622,642,661,682,702,721,741,761,782,802,821,841,861,881,901,922,941,961,981,1002,1021,1041,1062,1081,1102,1121,1141,1161,1181,1201,1222,1241,1261],"xSR":741.5,"ySR":469.95,"xT1":424.9,"yT1":0,"xT2":1058.1,"yT2":0,"toosoon":0,"cond_shown":"equaldotsize","ratio_trial":900,"smaller_num":"18","larger_num":"20","correct_side":1,"subjID":"shirlyjulietaavendaño2","gender":"1","age":"9","school":"4"},{"start_time":1552315064001,"click_time":1552315065033,"finger_time":1552315064754,"fix_duration":526.7874957865546,"trial":63,"RT":753,"MT":279,"sideResp":1,"stimulus":"img/900/randomdotsizeEA/R/14_Ratio_900_L_18_R_20.png","xmouse":[810,810,810,810,810,810,810,810,810,810,810,810,810,810,810,810,810,810,810,810,810,810,810,810,810,810,810,810,810,810,810,810,810,810,810,810,808,802,778,737,709,685,671,660,650,645,638,629,597,563,540,523],"ymouse":[530,530,530,530,530,530,530,530,530,530,530,530,530,530,530,530,530,530,530,530,530,530,530,530,530,530,530,530,530,530,530,530,530,520,508,492,474,452,396,336,299,270,250,234,211,200,188,175,146,123,109,98],"timestamp_mouse":[12,35,53,72,92,113,133,152,172,193,213,232,253,272,293,313,332,353,372,392,413,432,452,472,492,512,533,551,572,592,612,632,652,672,692,712,733,753,772,793,812,833,852,872,891,912,932,953,972,993,1012,1032],"xSR":741.5,"ySR":469.95,"xT1":424.9,"yT1":0,"xT2":1058.1,"yT2":0,"toosoon":0,"cond_shown":"randomdotsizeEA","ratio_trial":900,"smaller_num":"18","larger_num":"20","correct_side":2,"subjID":"shirlyjulietaavendaño2","gender":"1","age":"9","school":"4"},{"start_time":1552315067082,"click_time":1552315068275,"finger_time":1552315067493,"fix_duration":1247.3767021716553,"trial":64,"RT":411,"MT":782,"sideResp":1,"stimulus":"img/250/equaldotsize/L/3_Ratio_250_L_8_R_2.png","xmouse":[798,798,798,798,798,798,798,798,798,798,798,798,798,800,801,806,808,811,815,826,831,839,847,852,864,875,878,878,878,876,863,850,831,810,773,726,704,685,666,633,618,601,582,566,544,537,537,537,537,537,537,537,537,534,534,530,529,527,526,523],"ymouse":[532,532,532,532,532,532,532,532,532,532,532,532,532,532,531,527,526,521,514,487,465,442,416,394,355,314,303,298,293,289,279,272,264,255,243,224,214,205,194,171,159,144,127,111,90,81,80,80,80,80,80,80,80,79,79,78,78,78,78,77],"timestamp_mouse":[11,43,52,71,91,111,132,151,172,192,212,232,251,272,291,311,331,352,372,392,411,431,452,472,491,512,531,551,571,592,611,631,651,671,691,711,731,752,771,792,810,832,851,871,891,911,932,951,971,992,1012,1031,1051,1071,1091,1111,1131,1151,1172,1192],"xSR":741.5,"ySR":469.95,"xT1":424.9,"yT1":0,"xT2":1058.1,"yT2":0,"toosoon":0,"cond_shown":"equaldotsize","ratio_trial":250,"smaller_num":"2","larger_num":"8","correct_side":1,"subjID":"shirlyjulietaavendaño2","gender":"1","age":"9","school":"4"},{"start_time":1552315070467,"click_time":1552315071793,"finger_time":1552315071013,"fix_duration":1331.9258864520498,"trial":65,"RT":546,"MT":780,"sideResp":1,"stimulus":"img/750/randomdotsizeEA/L/10_Ratio_750_L_4_R_3.png","xmouse":[793,793,793,793,793,793,793,793,793,793,793,793,793,793,793,793,793,793,794,794,795,795,795,795,795,795,793,792,790,789,789,792,802,806,810,813,819,826,837,848,860,882,888,894,899,904,907,909,909,909,909,901,885,867,848,827,786,764,742,716,690,636,609,568,548,527,505],"ymouse":[518,518,518,518,518,518,518,518,518,518,518,518,518,518,518,518,518,518,517,516,516,512,508,506,497,492,475,464,451,439,429,403,382,371,362,356,341,331,317,308,298,282,277,271,265,259,253,250,248,247,246,240,235,230,225,217,198,190,182,172,163,144,133,118,110,101,91],"timestamp_mouse":[10,36,46,67,87,106,127,146,167,186,206,227,247,267,286,306,327,346,367,387,406,426,446,466,486,507,526,546,566,586,607,626,647,666,686,706,726,746,767,786,806,826,846,866,886,906,926,946,967,986,1007,1026,1047,1066,1086,1106,1126,1146,1166,1186,1206,1226,1247,1266,1287,1307,1326],"xSR":741.5,"ySR":469.95,"xT1":424.9,"yT1":0,"xT2":1058.1,"yT2":0,"toosoon":0,"cond_shown":"randomdotsizeEA","ratio_trial":750,"smaller_num":"3","larger_num":"4","correct_side":1,"subjID":"shirlyjulietaavendaño2","gender":"1","age":"9","school":"4"},{"start_time":1552315074574,"click_time":1552315076693,"finger_time":1552315075393,"fix_duration":400.35284308940146,"trial":66,"RT":819,"MT":1300,"sideResp":1,"stimulus":"img/250/equaldotanddens/L/3_Ratio_250_L_8_R_2.png","xmouse":[790,790,790,790,790,790,790,790,790,790,790,790,790,790,790,790,790,790,790,790,790,790,790,790,790,790,790,790,790,790,790,790,791,791,792,792,793,793,793,791,774,764,752,748,748,748,741,741,741,741,720,710,699,697,697,697,697,697,697,692,661,660,660,660,655,655,639,625,608,589,554,537,523,510,489,465,455,449,447,447,447,447,447,449,454,462,493,516,542,568,592,637,658,676,691,700,700,700,700,700,695,653,621,587,552,509],"ymouse":[541,541,541,541,541,541,541,541,541,541,541,541,541,541,541,541,541,541,541,541,541,541,541,541,541,541,541,541,541,541,541,541,541,540,538,537,527,519,508,494,455,433,410,397,397,397,390,390,390,390,375,370,360,359,359,359,359,359,359,353,327,326,326,326,321,321,308,294,280,266,242,234,225,217,205,185,170,162,159,159,159,159,157,157,154,152,143,136,131,124,120,112,98,83,70,56,51,51,51,51,50,47,47,47,47,47],"timestamp_mouse":[37,39,59,79,99,119,140,159,179,200,220,240,260,280,299,319,338,360,380,400,420,440,460,480,500,519,538,559,580,599,619,639,659,679,700,719,740,759,780,799,819,839,859,879,900,919,939,960,979,999,1021,1039,1059,1079,1099,1120,1139,1159,1180,1199,1221,1240,1260,1279,1300,1319,1339,1359,1379,1399,1421,1439,1459,1480,1500,1520,1539,1559,1580,1599,1619,1639,1659,1679,1699,1719,1739,1759,1779,1799,1818,1839,1860,1879,1900,1920,1940,1959,1980,2000,2019,2039,2059,2079,2099,2119],"xSR":741.5,"ySR":469.95,"xT1":424.9,"yT1":0,"xT2":1058.1,"yT2":0,"toosoon":0,"cond_shown":"equaldotanddens","ratio_trial":250,"smaller_num":"2","larger_num":"8","correct_side":1,"subjID":"shirlyjulietaavendaño2","gender":"1","age":"9","school":"4"},{"start_time":1552315080194,"click_time":1552315081613,"finger_time":1552315080913,"fix_duration":919.6464675552589,"trial":67,"RT":719,"MT":700,"sideResp":2,"stimulus":"img/250/equaldotanddens/R/10_Ratio_250_L_4_R_16.png","xmouse":[770,770,770,770,770,770,770,770,770,770,770,770,770,770,770,770,770,770,770,770,770,770,770,770,770,770,770,770,770,770,771,775,777,787,797,807,831,844,855,868,879,895,901,901,902,903,922,935,954,968,980,986,988,991,996,1002,1016,1024,1032,1044,1054,1061,1064,1066,1067,1068,1070,1071,1073,1074,1075,1079],"ymouse":[528,528,528,528,528,528,528,528,528,528,528,528,528,528,528,528,528,528,528,528,528,528,528,528,528,528,528,528,528,528,528,524,521,505,489,471,429,405,384,359,335,298,272,254,239,226,194,178,160,153,148,146,146,144,142,140,134,130,126,122,118,115,114,113,112,111,109,108,107,106,104,97],"timestamp_mouse":[1,19,41,60,80,99,120,139,160,180,199,219,240,260,280,300,319,340,360,380,400,420,440,459,479,499,520,539,55