[{"start_time":1552327606908,"click_time":1552327608912,"finger_time":1552327608411,"fix_duration":250,"trial":0,"RT":1503,"MT":501,"sideResp":1,"stimulus":[],"xmouse":[745,745,745,747,747,752,769,780,786,789,791,791,792,792,792,792,793,793,793,793,793,793,793,793,793,793,793,793,793,793,793,793,793,793,793,793,793,793,793,793,793,793,793,793,793,793,793,793,793,793,793,793,793,793,793,793,793,793,793,793,793,793,793,793,793,793,793,793,793,793,793,793,793,793,793,790,781,769,754,731,684,671,671,671,671,671,671,671,671,671,671,671,671,671,671,671,671,671,553,542,520],"ymouse":[557,557,557,556,556,556,556,556,556,554,554,554,554,553,553,553,553,553,553,553,553,553,553,553,553,552,552,552,552,552,552,552,552,552,552,552,552,552,552,552,552,552,552,552,552,552,552,552,552,552,552,552,552,552,552,552,552,552,552,552,552,552,552,552,552,552,552,552,552,552,551,543,528,509,487,441,399,358,304,232,62,11,11,11,11,11,11,11,11,11,11,11,11,11,11,11,11,11,7,13,18],"timestamp_mouse":[10,39,42,62,83,102,122,142,162,183,203,223,243,263,283,303,323,343,363,383,402,422,443,464,482,502,523,543,564,582,602,623,643,663,683,702,724,743,763,782,802,823,843,863,883,903,922,943,963,983,1003,1023,1042,1063,1083,1103,1123,1143,1163,1183,1203,1222,1244,1263,1284,1302,1322,1343,1363,1382,1404,1422,1443,1463,1482,1503,1522,1543,1563,1584,1603,1624,1644,1663,1683,1703,1723,1742,1762,1782,1804,1823,1843,1863,1882,1903,1922,1942,1963,1983,2003],"xSR":741.5,"ySR":501.8,"xT1":424.9,"yT1":0,"xT2":1058.1,"yT2":0,"toosoon":0,"cond_shown":"Congruent","ratio_trial":300,"L_num":11,"L_den":22,"R_num":2,"R_den":10,"correct_side":1,"subjID":"silvanadiaz4","gender":"1","age":"9","school":"4","test":{"fix_dur":[250,1500],"timestim":1000,"targets_dim":[100,100],"targets_relative_coord":[0.3,0.7],"size_stim":[880,420],"start_dim":[100,100],"size_start":[300,300],"size_fix":60,"samplingrate":20,"img_types":["Congruent","Incongruent"],"ratios":[100,200,300],"rep_conds":19,"nTrials":120,"trials_to_rest":500,"Trials_order":[118,59,69,41,84,72,16,53,13,1,51,49,105,5,55,77,80,54,22,18,4,87,26,0,113,71,94,21,91,27,12,37,73,56,36,78,48,40,104,97,101,46,39,79,8,60,58,99,110,102,76,88,15,82,67,106,2,66,61,44,115,19,34,17,65,3,11,50,6,114,68,92,96,83,20,30,70,38,25,31,112,33,43,98,95,42,63,7,14,86,23,52,45,35,119,9,89,108,29,81,100,24,103,57,28,90,93,117,116,10,62,32,85,75,64,111,47,107,109,74],"cond_shown":["Congruent","Incongruent","Incongruent","Incongruent","Congruent","Congruent","Congruent","Incongruent","Incongruent","Incongruent","Incongruent","Incongruent","Incongruent","Incongruent","Incongruent","Incongruent","Congruent","Congruent","Congruent","Congruent","Congruent","Incongruent","Congruent","Congruent","Incongruent","Incongruent","Congruent","Incongruent","Incongruent","Incongruent","Congruent","Incongruent","Incongruent","Congruent","Congruent","Congruent","Congruent","Congruent","Congruent","Incongruent","Incongruent","Congruent","Incongruent","Incongruent","Congruent","Congruent","Congruent","Incongruent","Congruent","Congruent","Congruent","Congruent","Incongruent","Congruent","Incongruent","Congruent","Congruent","Congruent","Incongruent","Congruent","Incongruent","Incongruent","Congruent","Incongruent","Incongruent","Incongruent","Incongruent","Congruent","Congruent","Congruent","Congruent","Congruent","Congruent","Incongruent","Congruent","Congruent","Congruent","Congruent","Incongruent","Incongruent","Congruent","Incongruent","Incongruent","Congruent","Incongruent","Congruent","Incongruent","Incongruent","Congruent","Congruent","Incongruent","Congruent","Incongruent","Incongruent","Incongruent","Incongruent","Incongruent","Congruent","Incongruent","Incongruent","Congruent","Congruent","Incongruent","Incongruent","Congruent","Congruent","Incongruent","Incongruent","Congruent","Congruent","Congruent","Congruent","Incongruent","Incongruent","Congruent","Incongruent","Incongruent","Incongruent","Incongruent","Congruent"],"ratio_trial":[300,300,200,300,100,100,300,300,100,100,200,100,200,300,100,300,200,100,300,100,300,200,200,100,300,300,300,200,100,200,100,100,100,200,100,100,100,300,200,100,300,300,200,100,200,100,300,200,200,100,300,300,200,300,100,300,200,100,100,200,100,100,300,300,300,200,300,200,100,100,200,200,100,300,200,100,300,200,100,100,300,200,100,200,300,100,200,100,200,200,300,300,200,300,300,200,300,100,300,200,300,100,100,200,300,100,200,200,200,300,200,200,100,200,300,200,300,300,100,200],"left_num":[11,13,14,13,6,11,20,3,12,13,1,4,4,4,12,13,3,15,5,7,18,4,4,7,2,4,9,14,12,4,12,6,9,3,3,2,6,9,5,9,1,1,4,10,3,1,20,4,8,10,18,11,7,24,6,20,20,4,10,20,1,6,20,13,13,1,1,3,11,11,13,3,8,13,8,7,3,1,6,10,5,4,12,1,13,11,3,6,11,3,7,20,7,13,13,9,1,7,13,7,8,10,8,3,20,6,14,3,16,8,6,3,6,1,11,9,3,13,10,21],"right_num":[2,12,6,12,5,4,9,4,9,6,3,8,1,2,2,12,9,13,6,9,9,14,3,9,6,2,3,6,2,1,13,3,13,14,2,11,5,3,14,14,3,19,1,9,14,3,14,1,3,3,9,1,6,2,3,14,9,6,8,9,8,3,13,12,12,2,2,7,4,4,14,14,2,12,2,15,11,21,13,9,7,1,9,21,12,6,11,3,3,14,8,13,4,12,12,8,2,15,12,6,1,3,1,11,13,5,12,11,12,10,3,7,11,2,2,8,4,12,9,2],"left_den":[22,26,30,26,20,22,25,6,24,26,2,8,30,20,30,26,12,25,25,14,20,6,10,14,4,20,10,30,30,30,30,12,15,6,6,5,20,10,10,15,2,3,30,25,10,2,25,30,15,25,20,22,15,30,12,25,25,8,25,25,2,12,25,26,26,3,2,10,22,22,26,10,16,26,15,14,12,2,10,25,25,30,24,2,26,22,4,12,22,10,10,25,15,26,26,15,2,14,26,15,16,25,20,4,25,20,30,4,20,15,15,10,10,3,22,15,6,26,25,30],"right_den":[10,15,9,15,25,10,18,20,15,10,10,20,3,4,4,15,20,26,12,15,15,30,15,15,30,4,5,9,4,3,26,5,26,20,5,22,25,5,20,28,15,30,3,18,28,5,28,3,9,10,15,5,9,4,5,28,15,10,16,15,20,5,26,15,15,15,10,14,10,10,20,28,5,15,6,25,20,30,26,18,14,3,15,30,15,15,20,5,10,28,20,26,6,15,15,10,10,25,15,9,5,10,2,20,26,25,18,20,20,12,15,14,22,15,10,10,20,15,18,4],"correct_side":[1,2,2,2,1,1,1,1,2,2,1,1,2,2,2,2,2,1,2,2,1,1,1,2,1,2,1,2,2,2,2,2,1,2,1,2,1,1,2,1,1,2,2,2,2,2,1,2,1,1,1,1,2,1,2,1,1,2,2,1,1,2,1,2,2,1,1,2,1,1,2,2,1,2,1,2,2,2,1,2,2,2,2,2,2,1,1,2,1,2,1,1,2,2,2,2,1,2,2,2,1,1,2,1,1,1,2,1,1,2,1,2,1,1,1,2,1,2,2,1],"img_shown":["img2/300/Congruent/L/C_Dist_300_LN_11_LD_22_RN_2_RD_10_0.png","img2/300/Incongruent/R/I_Dist_300_LN_13_LD_26_RN_12_RD_15_1.png","img2/200/Incongruent/R/I_Dist_200_LN_14_LD_30_RN_6_RD_9_1.png","img2/300/Incongruent/R/I_Dist_300_LN_13_LD_26_RN_12_RD_15_1.png","img2/100/Congruent/L/C_Dist_100_LN_6_LD_20_RN_5_RD_25_0.png","img2/100/Congruent/L/C_Dist_100_LN_11_LD_22_RN_4_RD_10_0.png","img2/300/Congruent/L/C_Dist_300_LN_20_LD_25_RN_9_RD_18_0.png","img2/300/Incongruent/L/I_Dist_300_LN_3_LD_6_RN_4_RD_20_0.png","img2/100/Incongruent/R/I_Dist_100_LN_12_LD_24_RN_9_RD_15_1.png","img2/100/Incongruent/R/I_Dist_100_LN_13_LD_26_RN_6_RD_10_1.png","img2/200/Incongruent/L/I_Dist_200_LN_1_LD_2_RN_3_RD_10_0.png","img2/100/Incongruent/L/I_Dist_100_LN_4_LD_8_RN_8_RD_20_0.png","img2/200/Incongruent/R/I_Dist_200_LN_4_LD_30_RN_1_RD_3_1.png","img2/300/Incongruent/R/I_Dist_300_LN_4_LD_20_RN_2_RD_4_1.png","img2/100/Incongruent/R/I_Dist_100_LN_12_LD_30_RN_2_RD_4_1.png","img2/300/Incongruent/R/I_Dist_300_LN_13_LD_26_RN_12_RD_15_1.png","img2/200/Congruent/R/C_Dist_200_LN_3_LD_12_RN_9_RD_20_1.png","img2/100/Congruent/L/C_Dist_100_LN_15_LD_25_RN_13_RD_26_0.png","img2/300/Congruent/R/C_Dist_300_LN_5_LD_25_RN_6_RD_12_1.png","img2/100/Congruent/R/C_Dist_100_LN_7_LD_14_RN_9_RD_15_1.png","img2/300/Congruent/L/C_Dist_300_LN_18_LD_20_RN_9_RD_15_0.png","img2/200/Incongruent/L/I_Dist_200_LN_4_LD_6_RN_14_RD_30_0.png","img2/200/Congruent/L/C_Dist_200_LN_4_LD_10_RN_3_RD_15_0.png","img2/100/Congruent/R/C_Dist_100_LN_7_LD_14_RN_9_RD_15_1.png","img2/300/Incongruent/L/I_Dist_300_LN_2_LD_4_RN_6_RD_30_0.png","img2/300/Incongruent/R/I_Dist_300_LN_4_LD_20_RN_2_RD_4_1.png","img2/300/Congruent/L/C_Dist_300_LN_9_LD_10_RN_3_RD_5_0.png","img2/200/Incongruent/R/I_Dist_200_LN_14_LD_30_RN_6_RD_9_1.png","img2/100/Incongruent/R/I_Dist_100_LN_12_LD_30_RN_2_RD_4_1.png","img2/200/Incongruent/R/I_Dist_200_LN_4_LD_30_RN_1_RD_3_1.png","img2/100/Congruent/R/C_Dist_100_LN_12_LD_30_RN_13_RD_26_1.png","img2/100/Incongruent/R/I_Dist_100_LN_6_LD_12_RN_3_RD_5_1.png","img2/100/Incongruent/L/I_Dist_100_LN_9_LD_15_RN_13_RD_26_0.png","img2/200/Congruent/R/C_Dist_200_LN_3_LD_6_RN_14_RD_20_1.png","img2/100/Congruent/L/C_Dist_100_LN_3_LD_6_RN_2_RD_5_0.png","img2/100/Congruent/R/C_Dist_100_LN_2_LD_5_RN_11_RD_22_1.png","img2/100/Congruent/L/C_Dist_100_LN_6_LD_20_RN_5_RD_25_0.png","img2/300/Congruent/L/C_Dist_300_LN_9_LD_10_RN_3_RD_5_0.png","img2/200/Congruent/R/C_Dist_200_LN_5_LD_10_RN_14_RD_20_1.png","img2/100/Incongruent/L/I_Dist_100_LN_9_LD_15_RN_14_RD_28_0.png","img2/300/Incongruent/L/I_Dist_300_LN_1_LD_2_RN_3_RD_15_0.png","img2/300/Congruent/R/C_Dist_300_LN_1_LD_3_RN_19_RD_30_1.png","img2/200/Incongruent/R/I_Dist_200_LN_4_LD_30_RN_1_RD_3_1.png","img2/100/Incongruent/R/I_Dist_100_LN_10_LD_25_RN_9_RD_18_1.png","img2/200/Congruent/R/C_Dist_200_LN_3_LD_10_RN_14_RD_28_1.png","img2/100/Congruent/R/C_Dist_100_LN_1_LD_2_RN_3_RD_5_1.png","img2/300/Congruent/L/C_Dist_300_LN_20_LD_25_RN_14_RD_28_0.png","img2/200/Incongruent/R/I_Dist_200_LN_4_LD_30_RN_1_RD_3_1.png","img2/200/Congruent/L/C_Dist_200_LN_8_LD_15_RN_3_RD_9_0.png","img2/100/Congruent/L/C_Dist_100_LN_10_LD_25_RN_3_RD_10_0.png","img2/300/Congruent/L/C_Dist_300_LN_18_LD_20_RN_9_RD_15_0.png","img2/300/Congruent/L/C_Dist_300_LN_11_LD_22_RN_1_RD_5_0.png","img2/200/Incongruent/R/I_Dist_200_LN_7_LD_15_RN_6_RD_9_1.png","img2/300/Congruent/L/C_Dist_300_LN_24_LD_30_RN_2_RD_4_0.png","img2/100/Incongruent/R/I_Dist_100_LN_6_LD_12_RN_3_RD_5_1.png","img2/300/Congruent/L/C_Dist_300_LN_20_LD_25_RN_14_RD_28_0.png","img2/200/Congruent/L/C_Dist_200_LN_20_LD_25_RN_9_RD_15_0.png","img2/100/Congruent/R/C_Dist_100_LN_4_LD_8_RN_6_RD_10_1.png","img2/100/Incongruent/R/I_Dist_100_LN_10_LD_25_RN_8_RD_16_1.png","img2/200/Congruent/L/C_Dist_200_LN_20_LD_25_RN_9_RD_15_0.png","img2/100/Incongruent/L/I_Dist_100_LN_1_LD_2_RN_8_RD_20_0.png","img2/100/Incongruent/R/I_Dist_100_LN_6_LD_12_RN_3_RD_5_1.png","img2/300/Congruent/L/C_Dist_300_LN_20_LD_25_RN_13_RD_26_0.png","img2/300/Incongruent/R/I_Dist_300_LN_13_LD_26_RN_12_RD_15_1.png","img2/300/Incongruent/R/I_Dist_300_LN_13_LD_26_RN_12_RD_15_1.png","img2/200/Incongruent/L/I_Dist_200_LN_1_LD_3_RN_2_RD_15_0.png","img2/300/Incongruent/L/I_Dist_300_LN_1_LD_2_RN_2_RD_10_0.png","img2/200/Congruent/R/C_Dist_200_LN_3_LD_10_RN_7_RD_14_1.png","img2/100/Congruent/L/C_Dist_100_LN_11_LD_22_RN_4_RD_10_0.png","img2/100/Congruent/L/C_Dist_100_LN_11_LD_22_RN_4_RD_10_0.png","img2/200/Congruent/R/C_Dist_200_LN_13_LD_26_RN_14_RD_20_1.png","img2/200/Congruent/R/C_Dist_200_LN_3_LD_10_RN_14_RD_28_1.png","img2/100/Congruent/L/C_Dist_100_LN_8_LD_16_RN_2_RD_5_0.png","img2/300/Incongruent/R/I_Dist_300_LN_13_LD_26_RN_12_RD_15_1.png","img2/200/Congruent/L/C_Dist_200_LN_8_LD_15_RN_2_RD_6_0.png","img2/100/Congruent/R/C_Dist_100_LN_7_LD_14_RN_15_RD_25_1.png","img2/300/Congruent/R/C_Dist_300_LN_3_LD_12_RN_11_RD_20_1.png","img2/200/Congruent/R/C_Dist_200_LN_1_LD_2_RN_21_RD_30_1.png","img2/100/Incongruent/L/I_Dist_100_LN_6_LD_10_RN_13_RD_26_0.png","img2/100/Incongruent/R/I_Dist_100_LN_10_LD_25_RN_9_RD_18_1.png","img2/300/Congruent/R/C_Dist_300_LN_5_LD_25_RN_7_RD_14_1.png","img2/200/Incongruent/R/I_Dist_200_LN_4_LD_30_RN_1_RD_3_1.png","img2/100/Incongruent/R/I_Dist_100_LN_12_LD_24_RN_9_RD_15_1.png","img2/200/Congruent/R/C_Dist_200_LN_1_LD_2_RN_21_RD_30_1.png","img2/300/Incongruent/R/I_Dist_300_LN_13_LD_26_RN_12_RD_15_1.png","img2/100/Congruent/L/C_Dist_100_LN_11_LD_22_RN_6_RD_15_0.png","img2/200/Incongruent/L/I_Dist_200_LN_3_LD_4_RN_11_RD_20_0.png","img2/100/Incongruent/R/I_Dist_100_LN_6_LD_12_RN_3_RD_5_1.png","img2/200/Congruent/L/C_Dist_200_LN_11_LD_22_RN_3_RD_10_0.png","img2/200/Congruent/R/C_Dist_200_LN_3_LD_10_RN_14_RD_28_1.png","img2/300/Incongruent/L/I_Dist_300_LN_7_LD_10_RN_8_RD_20_0.png","img2/300/Congruent/L/C_Dist_300_LN_20_LD_25_RN_13_RD_26_0.png","img2/200/Incongruent/R/I_Dist_200_LN_7_LD_15_RN_4_RD_6_1.png","img2/300/Incongruent/R/I_Dist_300_LN_13_LD_26_RN_12_RD_15_1.png","img2/300/Incongruent/R/I_Dist_300_LN_13_LD_26_RN_12_RD_15_1.png","img2/200/Incongruent/R/I_Dist_200_LN_9_LD_15_RN_8_RD_10_1.png","img2/300/Incongruent/L/I_Dist_300_LN_1_LD_2_RN_2_RD_10_0.png","img2/100/Congruent/R/C_Dist_100_LN_7_LD_14_RN_15_RD_25_1.png","img2/300/Incongruent/R/I_Dist_300_LN_13_LD_26_RN_12_RD_15_1.png","img2/200/Incongruent/R/I_Dist_200_LN_7_LD_15_RN_6_RD_9_1.png","img2/300/Congruent/L/C_Dist_300_LN_8_LD_16_RN_1_RD_5_0.png","img2/100/Congruent/L/C_Dist_100_LN_10_LD_25_RN_3_RD_10_0.png","img2/100/Incongruent/R/I_Dist_100_LN_8_LD_20_RN_1_RD_2_1.png","img2/200/Incongruent/L/I_Dist_200_LN_3_LD_4_RN_11_RD_20_0.png","img2/300/Congruent/L/C_Dist_300_LN_20_LD_25_RN_13_RD_26_0.png","img2/100/Congruent/L/C_Dist_100_LN_6_LD_20_RN_5_RD_25_0.png","img2/200/Incongruent/R/I_Dist_200_LN_14_LD_30_RN_12_RD_18_1.png","img2/200/Incongruent/L/I_Dist_200_LN_3_LD_4_RN_11_RD_20_0.png","img2/200/Congruent/L/C_Dist_200_LN_16_LD_20_RN_12_RD_20_0.png","img2/300/Congruent/R/C_Dist_300_LN_8_LD_15_RN_10_RD_12_1.png","img2/200/Congruent/L/C_Dist_200_LN_6_LD_15_RN_3_RD_15_0.png","img2/200/Congruent/R/C_Dist_200_LN_3_LD_10_RN_7_RD_14_1.png","img2/100/Incongruent/L/I_Dist_100_LN_6_LD_10_RN_11_RD_22_0.png","img2/200/Incongruent/L/I_Dist_200_LN_1_LD_3_RN_2_RD_15_0.png","img2/300/Congruent/L/C_Dist_300_LN_11_LD_22_RN_2_RD_10_0.png","img2/200/Incongruent/R/I_Dist_200_LN_9_LD_15_RN_8_RD_10_1.png","img2/300/Incongruent/L/I_Dist_300_LN_3_LD_6_RN_4_RD_20_0.png","img2/300/Incongruent/R/I_Dist_300_LN_13_LD_26_RN_12_RD_15_1.png","img2/100/Incongruent/R/I_Dist_100_LN_10_LD_25_RN_9_RD_18_1.png","img2/200/Congruent/L/C_Dist_200_LN_21_LD_30_RN_2_RD_4_0.png"],"dist100_C":[["C_Dist_100_LN_10_LD_25_RN_3_RD_10_0.png","C_Dist_100_LN_11_LD_22_RN_4_RD_10_0.png","C_Dist_100_LN_11_LD_22_RN_6_RD_15_0.png","C_Dist_100_LN_15_LD_25_RN_13_RD_26_0.png","C_Dist_100_LN_3_LD_6_RN_2_RD_5_0.png","C_Dist_100_LN_6_LD_20_RN_5_RD_25_0.png","C_Dist_100_LN_8_LD_16_RN_2_RD_5_0.png","C_Dist_100_LN_9_LD_15_RN_8_RD_16_0.png"],["C_Dist_100_LN_1_LD_2_RN_18_RD_30_1.png","C_Dist_100_LN_1_LD_2_RN_3_RD_5_1.png","C_Dist_100_LN_12_LD_30_RN_13_RD_26_1.png","C_Dist_100_LN_2_LD_5_RN_11_RD_22_1.png","C_Dist_100_LN_2_LD_5_RN_6_RD_12_1.png","C_Dist_100_LN_3_LD_20_RN_4_RD_16_1.png","C_Dist_100_LN_4_LD_10_RN_15_RD_30_1.png","C_Dist_100_LN_4_LD_8_RN_6_RD_10_1.png","C_Dist_100_LN_6_LD_12_RN_15_RD_25_1.png","C_Dist_100_LN_7_LD_14_RN_15_RD_25_1.png","C_Dist_100_LN_7_LD_14_RN_9_RD_15_1.png"]],"dist100_I":[["I_Dist_100_LN_1_LD_2_RN_8_RD_20_0.png","I_Dist_100_LN_2_LD_4_RN_6_RD_15_0.png","I_Dist_100_LN_2_LD_4_RN_8_RD_20_0.png","I_Dist_100_LN_3_LD_5_RN_11_RD_22_0.png","I_Dist_100_LN_3_LD_5_RN_8_RD_16_0.png","I_Dist_100_LN_3_LD_6_RN_4_RD_10_0.png","I_Dist_100_LN_3_LD_9_RN_7_RD_30_0.png","I_Dist_100_LN_4_LD_8_RN_8_RD_20_0.png","I_Dist_100_LN_6_LD_10_RN_11_RD_22_0.png","I_Dist_100_LN_6_LD_10_RN_13_RD_26_0.png","I_Dist_100_LN_6_LD_10_RN_7_RD_14_0.png","I_Dist_100_LN_9_LD_10_RN_20_RD_25_0.png","I_Dist_100_LN_9_LD_15_RN_13_RD_26_0.png","I_Dist_100_LN_9_LD_15_RN_14_RD_28_0.png"],["I_Dist_100_LN_10_LD_25_RN_8_RD_16_1.png","I_Dist_100_LN_10_LD_25_RN_9_RD_18_1.png","I_Dist_100_LN_11_LD_22_RN_9_RD_15_1.png","I_Dist_100_LN_12_LD_24_RN_9_RD_15_1.png","I_Dist_100_LN_12_LD_30_RN_2_RD_4_1.png","I_Dist_100_LN_13_LD_26_RN_12_RD_20_1.png","I_Dist_100_LN_13_LD_26_RN_6_RD_10_1.png","I_Dist_100_LN_17_LD_30_RN_10_RD_15_1.png","I_Dist_100_LN_6_LD_12_RN_3_RD_5_1.png","I_Dist_100_LN_8_LD_16_RN_6_RD_10_1.png","I_Dist_100_LN_8_LD_20_RN_1_RD_2_1.png","I_Dist_100_LN_9_LD_18_RN_6_RD_10_1.png"]],"dist100_S":[["E_Dist_100_LN_2_LD_12_RN_2_RD_30_0.png","E_Dist_100_LN_6_LD_10_RN_6_RD_12_0.png"],["E_Dist_100_LN_6_LD_12_RN_6_RD_10_1.png"]],"dist200_C":[["C_Dist_200_LN_11_LD_22_RN_3_RD_10_0.png","C_Dist_200_LN_12_LD_15_RN_6_RD_10_0.png","C_Dist_200_LN_12_LD_20_RN_6_RD_15_0.png","C_Dist_200_LN_14_LD_28_RN_6_RD_20_0.png","C_Dist_200_LN_15_LD_25_RN_4_RD_10_0.png","C_Dist_200_LN_16_LD_20_RN_12_RD_20_0.png","C_Dist_200_LN_16_LD_30_RN_9_RD_27_0.png","C_Dist_200_LN_20_LD_25_RN_9_RD_15_0.png","C_Dist_200_LN_21_LD_30_RN_2_RD_4_0.png","C_Dist_200_LN_4_LD_10_RN_3_RD_15_0.png","C_Dist_200_LN_4_LD_8_RN_3_RD_10_0.png","C_Dist_200_LN_6_LD_15_RN_3_RD_15_0.png","C_Dist_200_LN_7_LD_21_RN_2_RD_15_0.png","C_Dist_200_LN_8_LD_15_RN_2_RD_6_0.png","C_Dist_200_LN_8_LD_15_RN_3_RD_9_0.png","C_Dist_200_LN_8_LD_15_RN_7_RD_21_0.png","C_Dist_200_LN_9_LD_20_RN_4_RD_16_0.png"],["C_Dist_200_LN_1_LD_2_RN_21_RD_30_1.png","C_Dist_200_LN_13_LD_26_RN_14_RD_20_1.png","C_Dist_200_LN_3_LD_10_RN_11_RD_22_1.png","C_Dist_200_LN_3_LD_10_RN_14_RD_28_1.png","C_Dist_200_LN_3_LD_10_RN_7_RD_14_1.png","C_Dist_200_LN_3_LD_12_RN_9_RD_20_1.png","C_Dist_200_LN_3_LD_6_RN_14_RD_20_1.png","C_Dist_200_LN_5_LD_10_RN_14_RD_20_1.png","C_Dist_200_LN_6_LD_12_RN_7_RD_10_1.png","C_Dist_200_LN_6_LD_20_RN_11_RD_22_1.png","C_Dist_200_LN_7_LD_15_RN_18_RD_27_1.png","C_Dist_200_LN_9_LD_30_RN_13_RD_26_1.png"]],"dist200_I":[["I_Dist_200_LN_1_LD_2_RN_3_RD_10_0.png","I_Dist_200_LN_1_LD_3_RN_2_RD_15_0.png","I_Dist_200_LN_3_LD_4_RN_11_RD_20_0.png","I_Dist_200_LN_4_LD_5_RN_6_RD_10_0.png","I_Dist_200_LN_4_LD_6_RN_14_RD_30_0.png","I_Dist_200_LN_7_LD_10_RN_12_RD_24_0.png","I_Dist_200_LN_7_LD_10_RN_14_RD_28_0.png","I_Dist_200_LN_7_LD_10_RN_8_RD_16_0.png"],["I_Dist_200_LN_11_LD_20_RN_3_RD_4_1.png","I_Dist_200_LN_14_LD_30_RN_12_RD_18_1.png","I_Dist_200_LN_14_LD_30_RN_6_RD_9_1.png","I_Dist_200_LN_3_LD_10_RN_1_RD_2_1.png","I_Dist_200_LN_4_LD_30_RN_1_RD_3_1.png","I_Dist_200_LN_6_LD_20_RN_3_RD_6_1.png","I_Dist_200_LN_7_LD_15_RN_4_RD_6_1.png","I_Dist_200_LN_7_LD_15_RN_6_RD_9_1.png","I_Dist_200_LN_9_LD_15_RN_8_RD_10_1.png"]],"dist200_S":[["E_Dist_200_LN_3_LD_6_RN_3_RD_10_0.png"],["E_Dist_200_LN_3_LD_10_RN_3_RD_6_1.png"]],"dist300_C":[["C_Dist_300_LN_11_LD_22_RN_1_RD_5_0.png","C_Dist_300_LN_11_LD_22_RN_2_RD_10_0.png","C_Dist_300_LN_11_LD_22_RN_4_RD_20_0.png","C_Dist_300_LN_12_LD_24_RN_2_RD_10_0.png","C_Dist_300_LN_18_LD_20_RN_9_RD_15_0.png","C_Dist_300_LN_20_LD_25_RN_13_RD_26_0.png","C_Dist_300_LN_20_LD_25_RN_14_RD_28_0.png","C_Dist_300_LN_20_LD_25_RN_5_RD_10_0.png","C_Dist_300_LN_20_LD_25_RN_8_RD_16_0.png","C_Dist_300_LN_20_LD_25_RN_9_RD_18_0.png","C_Dist_300_LN_24_LD_30_RN_2_RD_4_0.png","C_Dist_300_LN_24_LD_30_RN_8_RD_16_0.png","C_Dist_300_LN_3_LD_6_RN_2_RD_10_0.png","C_Dist_300_LN_4_LD_10_RN_1_RD_10_0.png","C_Dist_300_LN_4_LD_5_RN_2_RD_4_0.png","C_Dist_300_LN_8_LD_16_RN_1_RD_5_0.png","C_Dist_300_LN_9_LD_10_RN_3_RD_5_0.png"],["C_Dist_300_LN_1_LD_20_RN_7_RD_20_1.png","C_Dist_300_LN_1_LD_3_RN_19_RD_30_1.png","C_Dist_300_LN_1_LD_30_RN_8_RD_24_1.png","C_Dist_300_LN_1_LD_5_RN_11_RD_22_1.png","C_Dist_300_LN_1_LD_5_RN_3_RD_6_1.png","C_Dist_300_LN_1_LD_5_RN_6_RD_12_1.png","C_Dist_300_LN_2_LD_10_RN_12_RD_24_1.png","C_Dist_300_LN_2_LD_20_RN_10_RD_25_1.png","C_Dist_300_LN_3_LD_12_RN_11_RD_20_1.png","C_Dist_300_LN_3_LD_6_RN_4_RD_5_1.png","C_Dist_300_LN_4_LD_20_RN_13_RD_26_1.png","C_Dist_300_LN_5_LD_25_RN_6_RD_12_1.png","C_Dist_300_LN_5_LD_25_RN_7_RD_14_1.png","C_Dist_300_LN_7_LD_14_RN_20_RD_25_1.png","C_Dist_300_LN_8_LD_15_RN_10_RD_12_1.png"]],"dist300_I":[["I_Dist_300_LN_1_LD_2_RN_2_RD_10_0.png","I_Dist_300_LN_1_LD_2_RN_3_RD_15_0.png","I_Dist_300_LN_2_LD_4_RN_6_RD_30_0.png","I_Dist_300_LN_3_LD_6_RN_4_RD_20_0.png","I_Dist_300_LN_4_LD_5_RN_6_RD_12_0.png","I_Dist_300_LN_4_LD_5_RN_8_RD_16_0.png","I_Dist_300_LN_7_LD_10_RN_8_RD_20_0.png","I_Dist_300_LN_8_LD_10_RN_14_RD_28_0.png","I_Dist_300_LN_8_LD_10_RN_9_RD_18_0.png"],["I_Dist_300_LN_13_LD_26_RN_12_RD_15_1.png","I_Dist_300_LN_4_LD_20_RN_2_RD_4_1.png"]],"dist300_S":[["E_Dist_300_LN_9_LD_12_RN_9_RD_20_0.png"],["E_Dist_300_LN_18_LD_30_RN_18_RD_20_1.png","E_Dist_300_LN_3_LD_10_RN_3_RD_5_1.png","E_Dist_300_LN_9_LD_20_RN_9_RD_12_1.png"]],"dist500_C":[["C_Dist_500_LN_10_LD_13_RN_7_RD_26_0.png","C_Dist_500_LN_10_LD_15_RN_4_RD_24_0.png","C_Dist_500_LN_12_LD_16_RN_3_RD_12_0.png","C_Dist_500_LN_12_LD_18_RN_4_RD_24_0.png","C_Dist_500_LN_15_LD_18_RN_5_RD_15_0.png","C_Dist_500_LN_15_LD_20_RN_1_RD_4_0.png","C_Dist_500_LN_18_LD_27_RN_1_RD_6_0.png","C_Dist_500_LN_20_LD_24_RN_1_RD_3_0.png","C_Dist_500_LN_20_LD_24_RN_3_RD_9_0.png","C_Dist_500_LN_20_LD_24_RN_7_RD_21_0.png","C_Dist_500_LN_20_LD_28_RN_3_RD_14_0.png","C_Dist_500_LN_21_LD_28_RN_6_RD_24_0.png","C_Dist_500_LN_22_LD_28_RN_2_RD_7_0.png","C_Dist_500_LN_25_LD_30_RN_9_RD_27_0.png","C_Dist_500_LN_4_LD_6_RN_1_RD_6_0.png","C_Dist_500_LN_5_LD_6_RN_2_RD_6_0.png","C_Dist_500_LN_6_LD_9_RN_1_RD_6_0.png","C_Dist_500_LN_7_LD_10_RN_1_RD_5_0.png","C_Dist_500_LN_8_LD_12_RN_1_RD_6_0.png","C_Dist_500_LN_8_LD_12_RN_4_RD_24_0.png"],["C_Dist_500_LN_1_LD_4_RN_12_RD_16_1.png","C_Dist_500_LN_1_LD_4_RN_9_RD_12_1.png","C_Dist_500_LN_1_LD_9_RN_11_RD_18_1.png","C_Dist_500_LN_10_LD_24_RN_22_RD_24_1.png","C_Dist_500_LN_2_LD_12_RN_10_RD_15_1.png","C_Dist_500_LN_2_LD_12_RN_12_RD_18_1.png","C_Dist_500_LN_2_LD_12_RN_4_RD_6_1.png","C_Dist_500_LN_2_LD_24_RN_7_RD_12_1.png","C_Dist_500_LN_2_LD_5_RN_18_RD_20_1.png","C_Dist_500_LN_2_LD_5_RN_9_RD_10_1.png","C_Dist_500_LN_2_LD_8_RN_12_RD_16_1.png","C_Dist_500_LN_2_LD_8_RN_21_RD_28_1.png","C_Dist_500_LN_3_LD_10_RN_4_RD_5_1.png","C_Dist_500_LN_3_LD_12_RN_15_RD_20_1.png","C_Dist_500_LN_3_LD_30_RN_6_RD_10_1.png","C_Dist_500_LN_3_LD_8_RN_14_RD_16_1.png","C_Dist_500_LN_4_LD_16_RN_15_RD_20_1.png","C_Dist_500_LN_4_LD_24_RN_12_RD_18_1.png","C_Dist_500_LN_5_LD_14_RN_6_RD_7_1.png","C_Dist_500_LN_7_LD_21_RN_20_RD_24_1.png","C_Dist_500_LN_7_LD_28_RN_12_RD_16_1.png","C_Dist_500_LN_7_LD_28_RN_9_RD_12_1.png","C_Dist_500_LN_9_LD_27_RN_20_RD_24_1.png"]],"dist500_I":[["I_Dist_500_LN_2_LD_3_RN_4_RD_24_0.png","I_Dist_500_LN_5_LD_6_RN_6_RD_18_0.png","I_Dist_500_LN_7_LD_8_RN_9_RD_24_0.png"],["I_Dist_500_LN_7_LD_21_RN_5_RD_6_1.png"]],"dist500_S":[["E_Dist_500_LN_6_LD_8_RN_6_RD_24_0.png"],["E_Dist_500_LN_2_LD_12_RN_2_RD_3_1.png","E_Dist_500_LN_6_LD_24_RN_6_RD_8_1.png"]]}},{"start_time":1552327611683,"click_time":1552327613251,"finger_time":1552327612831,"fix_duration":250,"trial":1,"RT":1148,"MT":420,"sideResp":1,"stimulus":[],"xmouse":[804,804,804,804,804,803,803,803,803,803,803,803,803,803,803,803,803,803,805,808,810,811,813,813,813,813,813,813,813,813,813,813,813,813,813,813,813,813,813,813,813,813,813,813,813,813,813,813,813,813,813,812,808,806,806,806,806,803,796,780,749,697,562,495,411,370,340,340,340,340,340,340,340,340,340,340,340,340,429],"ymouse":[504,504,504,504,504,504,504,504,504,504,504,504,504,504,504,504,504,503,498,493,486,483,480,480,480,480,480,480,480,480,480,480,480,480,480,480,480,480,480,480,480,480,480,480,480,480,480,480,480,480,480,479,479,479,479,479,478,465,447,419,380,323,213,162,90,46,2,2,2,2,2,2,2,2,2,2,2,2,20],"timestamp_mouse":[14,28,48,68,88,109,129,147,167,188,207,229,248,268,288,308,327,349,368,388,408,427,448,468,489,508,527,547,567,588,608,629,648,668,688,708,728,749,768,788,809,829,848,867,887,908,929,948,967,988,1008,1029,1048,1069,1088,1108,1128,1148,1167,1187,1208,1228,1248,1268,1288,1308,1328,1349,1368,1388,1408,1428,1448,1468,1488,1508,1528,1547,1568],"xSR":741.5,"ySR":469.95,"xT1":424.9,"yT1":0,"xT2":1058.1,"yT2":0,"toosoon":0,"cond_shown":"Incongruent","ratio_trial":300,"L_num":13,"L_den":26,"R_num":12,"R_den":15,"correct_side":2,"subjID":"silvanadiaz4","gender":"1","school":"4","age":"9"},{"start_time":1552327616380,"click_time":1552327617350,"finger_time":1552327617031,"fix_duration":1208.076041133581,"trial":2,"RT":651,"MT":319,"sideResp":2,"stimulus":[],"xmouse":[806,806,806,806,806,806,805,798,797,796,796,795,795,795,795,795,795,795,795,795,795,795,795,795,795,795,795,795,797,801,805,813,843,862,887,909,928,960,980,990,1002,1014,1044,1061,1077,1091,1100,1115,1118],"ymouse":[506,504,504,503,503,502,502,502,502,502,502,503,503,503,503,503,503,503,503,503,503,503,503,503,503,503,503,503,503,503,501,498,480,462,436,403,371,315,286,270,254,236,198,176,161,145,132,103,92],"timestamp_mouse":[27,38,51,70,90,110,131,151,171,191,211,231,250,270,291,311,331,350,370,391,411,430,450,470,491,511,531,550,570,591,611,631,651,671,690,711,731,752,770,791,811,831,851,871,891,911,930,952,970],"xSR":741.5,"ySR":469.95,"xT1":424.9,"yT1":0,"xT2":1058.1,"yT2":0,"toosoon":0,"cond_shown":"Incongruent","ratio_trial":200,"L_num":14,"L_den":30,"R_num":6,"R_den":9,"correct_side":2,"subjID":"silvanadiaz4","gender":"1","school":"4","age":"9"},{"start_time":1552327625074,"click_time":1552327626311,"finger_time":1552327625831,"fix_duration":1022.0471485873907,"trial":3,"RT":757,"MT":480,"sideResp":2,"stimulus":[],"xmouse":[816,816,816,816,816,816,816,816,816,816,816,816,816,816,816,816,816,816,816,816,816,816,816,816,816,816,816,816,816,816,816,816,816,816,819,823,834,846,884,925,954,977,999,1014,1025,1027,1027,1027,1029,1037,1048,1056,1065,1069,1069,1070,1070,1070,1073,1074,1075,1076],"ymouse":[499,499,499,499,499,499,499,499,499,499,499,499,499,499,499,499,499,499,499,499,499,499,499,499,499,499,499,499,499,499,499,499,499,499,495,487,472,453,399,347,306,271,236,208,173,166,165,165,165,160,153,148,140,133,131,130,128,127,114,107,101,98],"timestamp_mouse":[18,39,57,77,96,117,137,158,177,196,217,237,256,276,297,317,337,356,376,397,416,436,457,477,497,516,537,557,577,597,616,637,657,677,697,717,737,757,778,797,816,837,857,877,897,918,938,957,978,996,1017,1037,1057,1077,1097,1117,1137,1156,1178,1197,1217,1237],"xSR":741.5,"ySR":469.95,"xT1":424.9,"yT1":0,"xT2":1058.1,"yT2":0,"toosoon":0,"cond_shown":"Incongruent","ratio_trial":300,"L_num":13,"L_den":26,"R_num":12,"R_den":15,"correct_side":2,"subjID":"silvanadiaz4","gender":"1","school":"4","age":"9"},{"start_time":1552327629970,"click_time":1552327630831,"finger_time":1552327630071,"fix_duration":857.8822329455494,"trial":4,"RT":101,"MT":760,"sideResp":2,"stimulus":[],"xmouse":[768,768,768,780,789,818,831,845,856,867,884,889,893,898,900,905,910,917,928,942,977,998,1014,1016,1019,1021,1025,1030,1034,1036,1038,1041,1042,1042,1042,1042,1044,1046,1048,1049,1049,1052,1058,1063],"ymouse":[508,507,507,497,488,465,454,443,436,430,422,419,416,414,414,411,408,403,394,381,339,309,272,263,235,205,188,173,158,143,114,100,89,88,87,87,85,83,81,81,80,79,75,71],"timestamp_mouse":[9,34,41,62,81,101,121,140,160,180,200,220,241,261,281,301,321,342,362,381,401,421,440,461,481,501,521,541,561,581,601,622,640,661,682,702,720,740,760,781,801,821,840,861],"xSR":741.5,"ySR":469.95,"xT1":424.9,"yT1":0,"xT2":1058.1,"yT2":0,"toosoon":0,"cond_shown":"Congruent","ratio_trial":100,"L_num":6,"L_den":20,"R_num":5,"R_den":25,"correct_side":1,"subjID":"silvanadiaz4","gender":"1","school":"4","age":"9"},{"start_time":1552327632657,"click_time":1552327633811,"finger_time":1552327633170,"fix_duration":465.6568415170782,"trial":5,"RT":513,"MT":641,"sideResp":1,"stimulus":[],"xmouse":[789,789,789,789,788,788,788,788,788,788,788,788,788,788,788,788,788,788,788,788,788,788,789,789,785,779,772,767,762,757,751,736,724,711,697,675,668,666,661,655,647,634,629,627,625,625,625,623,616,608,578,561,544,525,510,473,447,439],"ymouse":[477,477,477,477,477,477,477,477,477,478,480,482,483,484,484,484,485,485,485,486,486,486,485,482,474,465,450,441,428,416,403,371,351,332,315,299,297,296,295,291,286,276,271,266,260,248,235,224,210,195,168,153,143,133,126,112,103,99],"timestamp_mouse":[17,43,53,74,93,113,135,153,174,194,213,234,254,274,295,314,335,354,373,394,414,434,454,474,494,513,535,553,573,594,614,633,654,674,694,714,734,753,774,794,814,833,855,874,895,915,933,954,974,994,1015,1033,1054,1073,1093,1114,1133,1153],"xSR":741.5,"ySR":469.95,"xT1":424.9,"yT1":0,"xT2":1058.1,"yT2":0,"toosoon":0,"cond_shown":"Congruent","ratio_trial":100,"L_num":11,"L_den":22,"R_num":4,"R_den":10,"correct_side":1,"subjID":"silvanadiaz4","gender":"1","school":"4","age":"9"},{"start_time":1552327680982,"click_time":1552327682089,"finger_time":1552327681489,"fix_duration":1391.607252094866,"trial":6,"RT":507,"MT":600,"sideResp":1,"stimulus":[],"xmouse":[810,810,810,810,810,810,810,810,810,810,810,810,809,807,806,805,804,804,804,804,804,804,799,789,772,714,676,649,625,615,601,590,582,575,568,555,550,547,547,547,548,553,556,559,561,561,561,561,557,552,541,534,526,513,498,469],"ymouse":[510,510,510,510,510,510,510,510,510,510,510,510,510,511,511,512,512,512,512,512,512,512,510,501,490,441,410,387,365,352,328,309,290,264,238,196,180,173,173,173,171,169,167,163,160,155,154,153,152,151,144,138,129,116,104,82],"timestamp_mouse":[9,40,47,67,87,107,128,148,168,188,207,227,248,267,287,307,327,347,368,387,407,427,448,467,487,507,527,547,567,587,608,628,648,668,687,707,727,747,769,787,807,827,848,868,887,908,928,948,967,987,1008,1027,1048,1068,1087,1107],"xSR":741.5,"ySR":469.95,"xT1":424.9,"yT1":0,"xT2":1058.1,"yT2":0,"toosoon":0,"cond_shown":"Congruent","ratio_trial":300,"L_num":20,"L_den":25,"R_num":9,"R_den":18,"correct_side":1,"subjID":"silvanadiaz4","gender":"1","school":"4","age":"9"},{"start_time":1552327719348,"click_time":1552327720271,"finger_time":1552327719649,"fix_duration":1036.842540688459,"trial":7,"RT":301,"MT":622,"sideResp":2,"stimulus":[],"xmouse":[811,811,811,811,812,812,812,809,806,806,804,801,798,797,795,793,793,793,794,795,795,792,788,782,780,780,785,790,790,803,818,851,873,889,899,915,937,977,991,1001,1008,1019,1025,1033,1042,1055,1079],"ymouse":[543,543,543,543,542,541,533,526,520,518,513,506,495,487,473,459,427,418,399,378,358,327,313,298,292,288,281,277,277,270,264,259,257,256,255,252,239,203,182,161,143,108,95,79,64,47,10],"timestamp_mouse":[9,33,41,62,81,102,121,141,161,182,202,221,241,261,281,301,322,341,362,382,401,422,442,461,482,501,521,542,562,582,602,621,641,661,682,701,722,741,762,781,802,822,841,861,882,901,922],"xSR":741.5,"ySR":469.95,"xT1":424.9,"yT1":0,"xT2":1058.1,"yT2":0,"toosoon":0,"cond_shown":"Incongruent","ratio_trial":300,"L_num":3,"L_den":6,"R_num":4,"R_den":20,"correct_side":1,"subjID":"silvanadiaz4","gender":"1","school":"4","age":"9"},{"start_time":1552327724303,"click_time":1552327724929,"finger_time":1552327724430,"fix_duration":872.0925889028642,"trial":8,"RT":127,"MT":499,"sideResp":1,"stimulus":[],"xmouse":[780,780,780,780,779,773,759,729,681,579,541,527,527,527,527,528,532,532,532,532,532,532,532,530,529,529,529,530,530,530,530,521],"ymouse":[503,503,503,503,493,475,445,402,350,274,247,231,227,225,225,224,209,204,155,134,114,101,101,99,98,98,95,95,92,92,92,88],"timestamp_mouse":[11,33,47,66,86,106,127,147,166,186,206,227,246,266,286,306,326,347,368,387,406,427,447,467,486,506,527,547,568,586,606,626],"xSR":741.5,"ySR":469.95,"xT1":424.9,"yT1":0,"xT2":1058.1,"yT2":0,"toosoon":0,"cond_shown":"Incongruent","ratio_trial":100,"L_num":12,"L_den":24,"R_num":9,"R_den":15,"correct_side":2,"subjID":"silvanadiaz4","gender":"1","school":"4","age":"9"},{"start_time":1552327796220,"click_time":1552327797650,"finger_time":1552327796769,"fix_duration":1408.2610298133445,"trial":9,"RT":549,"MT":881,"sideResp":2,"stimulus":[],"xmouse":[780,780,780,780,780,780,780,780,780,780,780,780,780,780,779,778,776,776,776,776,776,776,776,777,780,786,799,809,813,828,850,872,920,932,944,965,994,1005,1015,1020,1022,1022,1025,1027,1031,1032,1035,1037,1037,1037,1038,1038,1038,1038,1038,1039,1047,1055,1067,1081,1085,1090,1090,1088,1086,1086,1086,1086,1086,1085,1085,1083],"ymouse":[512,512,512,512,512,512,512,512,512,512,512,512,512,512,513,514,517,517,517,517,517,517,517,513,507,498,477,465,461,448,427,405,349,332,316,291,257,247,241,238,236,236,235,231,225,216,203,180,170,163,163,163,163,163,163,161,154,146,135,123,119,115,114,114,114,114,114,114,113,113,110,88],"timestamp_mouse":[12,31,50,71,90,111,129,150,169,189,210,229,250,270,289,310,329,350,370,389,410,431,451,469,489,509,529,549,570,590,609,629,649,669,691,710,730,749,770,790,809,829,850,869,889,909,929,949,970,989,1010,1029,1050,1069,1090,1110,1130,1149,1171,1190,1209,1231,1249,1270,1290,1309,1330,1349,1369,1390,1410,1430],"xSR":741.5,"ySR":469.95,"xT1":424.9,"yT1":0,"xT2":1058.1,"yT2":0,"toosoon":0,"cond_shown":"Incongruent","ratio_trial":100,"L_num":13,"L_den":26,"R_num":6,"R_den":10,"correct_side":2,"subjID":"silvanadiaz4","gender":"1","school":"4","age":"9"},{"start_time":1552327801697,"click_time":1552327851250,"finger_time":1552327802709,"fix_duration":625.0309374372262,"trial":10,"RT":1012,"MT":48541,"sideResp":1,"stimulus":[],"xmouse":[776,776,776,776,776,776,776,775,775,775,775,775,775,775,775,775,775,775,775,773,773,771,771,771,771,771,771,771,771,771,771,771,770,770,770,770,770,770,770,771,773,774,775,775,775,775,775,775,774,751,706,637,585,551,546,546,546,546,546,546,546,546,546,546,546,546,546,546,546,546,546,546,546,546,546,546,546,546,546,546,546,546,546,546,546,546,546,546,546,546,546,546,546,546,546,546,546,546,546,546,546,546,546,546,546,546,546,546,546,546,546,546,546,546,546,546,546,546,546,546,546,546,546,546,546,546,546,546,546,546,546,546,546,546,546,546,546,546,546,546,546,546,546,546,546,546,546,546,546,546,546,546,546,546,546,546,546,546,546,546,546,546,546,546,546,546,546,546,546,546,546,546,546,546,546,546,546,546,546,546,546,546,546,546,546,546,546,546,546,546,546,546,546,546,546,546,546,546,546,546,546,546,546,546,546,546,546,546,546,546,546,546,546,546,546,546,546,546,546,546,546,546,546,546,546,546,546,546,546,546,546,546,546,546,546,546,546,546,546,546,546,546,546,546,546,546,546,546,546,546,546,546,546,546,546,546,546,546,546,546,546,546,546,546,546,546,546,546,546,546,546,546,546,546,546,546,546,546,546,546,546,546,546,546,546,546,546,546,546,546,546,546,546,546,546,546,546,546,546,546,546,546,546,546,546,546,546,546,546,546,546,546,546,546,546,546,546,546,546,546,546,546,546,546,546,546,546,546,546,546,546,546,546,546,546,546,546,546,546,546,546,546,546,546,546,546,546,546,546,546,546,546,546,546,546,546,546,546,546,546,546,546,546,546,546,546,546,546,546,546,546,546,546,546,546,546,546,546,546,546,546,546,546,546,546,546,546,546,546,546,546,546,546,546,546,546,546,546,546,546,546,546,546,546,546,546,546,546,546,546,546,546,546,546,546,546,546,546,546,546,546,546,546,546,546,546,546,546,546,546,546,546,546,546,546,546,546,546,546,546,546,546,546,546,546,546,546,546,546,546,546,546,546,546,546,546,546,546,546,546,546,546,546,546,546,546,546,546,546,546,546,546,546,546,546,546,546,546,546,546,546,546,546,546,546,546,546,546,546,546,546,546,546,546,546,546,546,546,546,546,546,546,546,546,546,546,546,546,546,546,546,546,546,546,546,546,546,546,546,546,546,546,546,546,546,546,546,546,546,546,546,546,546,546,546,546,546,546,546,546,546,546,546,546,546,546,546,546,546,546,546,546,546,546,546,546,546,546,546,546,546,546,546,546,546,546,546,546,546,546,546,546,546,546,546,546,546,546,546,546,546,546,546,546,546,546,546,546,546,546,546,546,546,546,546,546,546,546,546,546,546,546,546,546,546,546,546,546,546,546,546,546,546,546,546,546,546,546,546,546,546,546,546,546,546,546,546,546,546,546,546,546,546,546,546,546,546,546,546,546,546,546,546,546,546,546,546,546,546,546,546,546,546,546,546,546,546,546,546,546,546,546,546,546,546,546,546,546,546,546,546,546,546,546,546,546,546,546,546,546,546,546,546,546,546,546,546,546,546,546,546,546,546,546,546,546,546,546,546,546,546,546,546,546,546,546,546,546,546,546,546,546,546,546,546,546,546,546,546,546,546,546,546,546,546,546,546,546,546,546,546,546,546,546,546,546,546,546,546,546,546,546,546,546,546,546,546,546,546,546,546,546,546,546,546,546,546,546,546,546,546,546,546,546,546,546,546,546,546,546,546,546,546,546,546,546,546,546,546,546,546,546,546,546,546,546,546,546,546,546,546,546,546,546,546,546,546,546,546,546,546,546,546,546,546,546,546,546,546,546,546,546,546,546,546,546,546,546,546,546,546,546,546,546,546,546,546,546,546,546,546,546,546,546,546,546,546,546,546,546,546,546,546,546,546,546,546,546,546,546,546,546,546,546,546,546,546,546,546,546,546,546,546,546,546,546,546,546,546,546,546,546,546,546,546,546,546,546,546,546,546,546,546,546,546,546,546,546,546,546,546,546,546,546,546,546,546,546,546,546,546,546,546,546,546,546,546,546,546,546,546,546,546,546,546,546,546,546,546,546,546,546,546,546,546,546,546,546,546,546,546,546,546,546,546,546,546,546,546,546,546,546,546,546,546,546,546,546,546,546,546,546,546,546,546,546,546,546,546,546,546,546,546,546,546,546,546,546,546,546,546,546,546,546,546,546,546,546,546,546,546,546,546,546,546,546,546,546,546,546,546,546,546,546,546,546,546,546,546,546,546,546,546,546,546,546,546,546,546,546,546,546,546,546,546,546,546,546,546,546,546,546,546,546,546,546,546,546,546,546,546,546,546,546,546,546,546,546,546,546,546,546,546,546,546,546,546,546,546,546,546,546,546,546,546,546,546,546,546,546,546,546,546,546,546,546,546,546,546,546,546,546,546,546,546,546,546,546,546,546,546,546,546,546,546,546,546,546,546,546,546,546,546,546,546,546,546,546,546,546,546,546,546,546,546,546,546,546,546,546,546,546,546,546,546,546,546,546,546,546,546,546,546,546,546,546,546,546,546,546,546,546,546,546,546,546,546,546,546,546,546,546,546,546,546,546,546,546,546,546,546,546,546,546,546,546,546,546,546,546,546,546,546,546,546,546,546,546,546,546,546,546,546,546,546,546,546,546,546,546,546,546,546,546,546,546,546,546,546,546,546,546,546,546,546,546,546,546,546,546,546,546,546,546,546,546,546,546,546,546,546,546,546,546,546,546,546,546,546,546,546,546,546,546,546,546,546,546,546,546,546,546,546,546,546,546,546,546,546,546,546,546,546,546,546,546,546,546,546,546,546,546,546,546,546,546,546,546,546,546,546,546,546,546,546,546,546,546,546,546,546,546,546,546,546,546,546,546,546,546,546,546,546,546,546,546,546,546,546,546,546,546,546,546,546,546,546,546,546,546,546,546,546,546,546,546,546,546,546,546,546,546,546,546,546,546,546,546,546,546,546,546,546,546,546,546,546,546,546,546,546,546,546,546,546,546,546,546,546,546,546,546,546,546,546,546,546,546,546,546,546,546,546,546,546,546,546,546,546,546,546,546,546,546,546,546,546,546,546,546,546,546,546,546,546,546,546,546,546,546,546,546,546,546,546,546,546,546,546,546,546,546,546,546,546,546,546,546,546,546,546,546,546,546,546,546,546,546,546,546,546,546,546,546,546,546,546,546,546,546,546,546,546,546,546,546,546,546,546,546,546,546,546,546,546,546,546,546,546,546,546,546,546,546,546,546,546,546,546,546,546,546,546,546,546,546,546,546,546,546,546,546,546,546,546,546,546,546,546,546,546,546,546,546,546,546,546,546,546,546,546,546,546,546,546,546,546,546,546,546,546,546,546,546,546,546,546,546,546,546,546,546,546,546,546,546,546,546,546,546,546,546,546,546,546,546,546,546,546,546,546,546,546,546,546,546,546,546,546,546,546,546,546,546,546,546,546,546,546,546,546,546,546,546,546,546,546,546,546,546,546,546,546,546,546,546,546,546,546,546,546,546,546,546,546,546,546,546,546,546,546,546,546,546,546,546,546,546,546,546,546,546,546,546,546,546,546,546,546,546,546,546,546,546,546,546,546,546,546,546,546,546,546,546,546,546,546,546,546,546,546,546,546,546,546,546,546,546,546,546,546,546,546,546,546,546,546,546,546,546,546,546,546,546,546,546,546,546,546,546,546,546,546,546,546,546,546,546,546,546,546,546,546,546,546,546,546,546,546,546,546,546,546,546,546,546,546,546,546,546,546,546,546,546,546,546,546,546,546,546,546,546,546,546,546,546,546,546,546,546,546,546,546,546,546,546,546,546,546,546,546,546,546,546,546,546,546,546,546,546,546,546,546,546,546,546,546,546,546,546,546,546,546,546,546,546,546,546,546,546,546,546,546,546,546,546,546,546,546,546,546,546,546,546,546,546,546,546,546,546,546,546,546,546,546,546,546,546,546,546,546,546,546,546,546,546,546,546,546,546,546,546,546,546,546,546,546,546,546,546,546,546,546,546,546,546,546,546,546,546,546,546,546,546,546,546,546,546,546,546,546,546,546,546,546,546,546,546,546,546,546,546,546,546,546,546,546,546,546,546,546,546,546,546,546,546,546,546,546,546,546,546,546,546,546,546,546,546,546,546,546,546,546,546,546,546,546,546,546,546,546,546,546,546,546,546,546,546,546,546,546,546,546,546,546,546,546,546,546,546,546,546,546,546,546,546,546,546,546,546,546,546,546,546,546,546,546,546,546,546,546,546,546,546,546,546,546,546,546,546,546,546,546,546,546,546,546,546,546,546,546,546,546,546,546,546,546,546,546,546,546,546,546,546,546,546,546,546,546,546,546,546,546,546,546,546,546,546,546,546,546,546,546,546,546,546,546,546,546,546,546,546,546,546,546,546,546,546,546,546,546,546,546,546,546,546,546,546,546,546,546,546,546,546,546,546,546,546,546,546,546,546,546,546,546,546,546,546,546,546,546,546,546,546,546,546,546,546,546,546,546,546,546,546,546,546,546,546,546,546,546,546,546,546,546,546,546,546,546,546,546,546,546,546,546,546,546,546,546,546,546,546,546,546,546,546,546,546,546,546,546,546,546,546,546,546,546,546,546,546,546,546,546,546,546,546,546,546,546,546,546,546,546,546,546,546,546,546,546,546,546,546,546,546,546,546,546,546,546,546,546,546,546,546,546,546,546,546,546,546,546,546,546,546,546,546,546,546,546,546,546,546,546,546,546,546,546,546,546,546,546,546,546,546,546,546,546,546,546,546,546,546,546,546,546,546,546,546,546,546,546,546,546,546,546,546,546,546,546,546,546,546,546,546,546,546,546,546,546,546,546,546,546,546,546,546,546,546,546,546,546,546,546,546,546,546,546,546,546,546,546,546,546,546,546,546,546,546,546,546,546,546,546,546,546,546,546,546,546,546,546,546,546,546,546,546,546,546,546,546,546,546,546,546,546,546,546,546,546,546,546,546,546,546,546,545,545,541,518,505,499,499,499,499,499,499,499,499,499,499,499,499,491,462,413,391,391,391,391,391,391,391,391,391,391,391,391,391,391,972,956,944,938,936,937,939,939,938,929,923,917,913,908,905,903,897,893,887,856,821,758,695,643,610,608,609,624,630,664,680,683,683,683,684,686,686,690,696,714,728,744,754,761,765,768,768,768,768,768,767,766,764,761,760,760,760,760,760,760,760,759,758,756,750,746,745,744,743,740,739,737,737,737,737,739,741,743,744,745,745,745,745,745,745,746,748,749,750,754,756,757,758,758,758,759,759,759,759,759,759,758,750,745,740,740,740,738,735,720,710,695,679,664,632,608,594,581,570,557,557,557,557,557,530,521,521,521,521,521,521,521,521,521,521,521,521,521,521,521,521,521,521,521,521,521,521,521,521,521,521,521,521,521,521,521,521,521,521,521,521,521,521,521,521,496,510,518,535,548,578,618,654,681,740,753,766,774,775,775,777,782,783,783,783,783,783,783,783,783,783,783,787,788,792,792,792,792,792,792,792,792,792,792,792,787,773,751,732,700,683,668,655,643,631,628,626,621,617,610,606,597,580,556,499,487,481,478,477],"ymouse":[532,533,534,534,536,537,540,541,543,543,543,543,543,543,543,543,543,543,543,543,543,544,544,544,544,544,544,544,544,544,544,544,544,544,544,544,544,544,544,543,541,540,538,532,529,525,523,523,523,525,530,540,547,553,555,555,555,555,555,555,555,555,555,555,555,555,555,555,555,555,555,555,555,555,555,555,555,555,555,555,555,555,555,555,555,555,555,555,555,555,555,555,555,555,555,555,555,555,555,555,555,555,555,555,555,555,555,555,555,555,555,555,555,555,555,555,555,555,555,555,555,555,555,555,555,555,555,555,555,555,555,555,555,555,555,555,555,555,555,555,555,555,555,555,555,555,555,555,555,555,555,555,555,555,555,555,555,555,555,555,555,555,555,555,555,555,555,555,555,555,555,555,555,555,555,555,555,555,555,555,555,555,555,555,555,555,555,555,555,555,555,555,555,555,555,555,555,555,555,555,555,555,555,555,555,555,555,555,555,555,555,555,555,555,555,555,555,555,555,555,555,555,555,555,555,555,555,555,555,555,555,555,555,555,555,555,555,555,555,555,555,555,555,555,555,555,555,555,555,555,555,555,555,555,555,555,555,555,555,555,555,555,555,555,555,555,555,555,555,555,555,555,555,555,555,555,555,555,555,555,555,555,555,555,555,555,555,555,555,555,555,555,555,555,555,555,555,555,555,555,555,555,555,555,555,555,555,555,555,555,555,555,555,555,555,555,555,555,555,555,555,555,555,555,555,555,555,555,555,555,555,555,555,555,555,555,555,555,555,555,555,555,555,555,555,555,555,555,555,555,555,555,555,555,555,555,555,555,555,555,555,555,555,555,555,555,555,555,555,555,555,555,555,555,555,555,555,555,555,555,555,555,555,555,555,555,555,555,555,555,555,555,555,555,555,555,555,555,555,555,555,555,555,555,555,555,555,555,555,555,555,555,555,555,555,555,555,555,555,555,555,555,555,555,555,555,555,555,555,555,555,555,555,555,555,555,555,555,555,555,555,555,555,555,555,555,555,555,555,555,555,555,555,555,555,555,555,555,555,555,555,555,555,555,555,555,555,555,555,555,555,555,555,555,555,555,555,555,555,555,555,555,555,555,555,555,555,555,555,555,555,555,555,555,555,555,555,555,555,555,555,555,555,555,555,555,555,555,555,555,555,555,555,555,555,555,555,555,555,555,555,555,555,555,555,555,555,555,555,555,555,555,555,555,555,555,555,555,555,555,555,555,555,555,555,555,555,555,555,555,555,555,555,555,555,555,555,555,555,555,555,555,555,555,555,555,555,555,555,555,555,555,555,555,555,555,555,555,555,555,555,555,555,555,555,555,555,555,555,555,555,555,555,555,555,555,555,555,555,555,555,555,555,555,555,555,555,555,555,555,555,555,555,555,555,555,555,555,555,555,555,555,555,555,555,555,555,555,555,555,555,555,555,555,555,555,555,555,555,555,555,555,555,555,555,555,555,555,555,555,555,555,555,555,555,555,555,555,555,555,555,555,555,555,555,555,555,555,555,555,555,555,555,555,555,555,555,555,555,555,555,555,555,555,555,555,555,555,555,555,555,555,555,555,555,555,555,555,555,555,555,555,555,555,555,555,555,555,555,555,555,555,555,555,555,555,555,555,555,555,555,555,555,555,555,555,555,555,555,555,555,555,555,555,555,555,555,555,555,555,555,555,555,555,555,555,555,555,555,555,555,555,555,555,555,555,555,555,555,555,555,555,555,555,555,555,555,555,555,555,555,555,555,555,555,555,555,555,555,555,555,555,555,555,555,555,555,555,555,555,555,555,555,555,555,555,555,555,555,555,555,555,555,555,555,555,555,555,555,555,555,555,555,555,555,555,555,555,555,555,555,555,555,555,555,555,555,555,555,555,555,555,555,555,555,555,555,555,555,555,555,555,555,555,555,555,555,555,555,555,555,555,555,555,555,555,555,555,555,555,555,555,555,555,555,555,555,555,555,555,555,555,555,555,555,555,555,555,555,555,555,555,555,555,555,555,555,555,555,555,555,555,555,555,555,555,555,555,555,555,555,555,555,555,555,555,555,555,555,555,555,555,555,555,555,555,555,555,555,555,555,555,555,555,555,555,555,555,555,555,555,555,555,555,555,555,555,555,555,555,555,555,555,555,555,555,555,555,555,555,555,555,555,555,555,555,555,555,555,555,555,555,555,555,555,555,555,555,555,555,555,555,555,555,555,555,555,555,555,555,555,555,555,555,555,555,555,555,555,555,555,555,555,555,555,555,555,555,555,555,555,555,555,555,555,555,555,555,555,555,555,555,555,555,555,555,555,555,555,555,555,555,555,555,555,555,555,555,555,555,555,555,555,555,555,555,555,555,555,555,555,555,555,555,555,555,555,555,555,555,555,555,555,555,555,555,555,555,555,555,555,555,555,555,555,555,555,555,555,555,555,555,555,555,555,555,555,555,555,555,555,555,555,555,555,555,555,555,555,555,555,555,555,555,555,555,555,555,555,555,555,555,555,555,555,555,555,555,555,555,555,555,555,555,555,555,555,555,555,555,555,555,555,555,555,555,555,555,555,555,555,555,555,555,555,555,555,555,555,555,555,555,555,555,555,555,555,555,555,555,555,555,555,555,555,555,555,555,555,555,555,555,555,555,555,555,555,555,555,555,555,555,555,555,555,555,555,555,555,555,555,555,555,555,555,555,555,555,555,555,555,555,555,555,555,555,555,555,555,555,555,555,555,555,555,555,555,555,555,555,555,555,555,555,555,555,555,555,555,555,555,555,555,555,555,555,555,555,555,555,555,555,555,555,555,555,555,555,555,555,555,555,555,555,555,555,555,555,555,555,555,555,555,555,555,555,555,555,555,555,555,555,555,555,555,555,555,555,555,555,555,555,555,555,555,555,555,555,555,555,555,555,555,555,555,555,555,555,555,555,555,555,555,555,555,555,555,555,555,555,555,555,555,555,555,555,555,555,555,555,555,555,555,555,555,555,555,555,555,555,555,555,555,555,555,555,555,555,555,555,555,555,555,555,555,555,555,555,555,555,555,555,555,555,555,555,555,555,555,555,555,555,555,555,555,555,555,555,555,555,555,555,555,555,555,555,555,555,555,555,555,555,555,555,555,555,555,555,555,555,555,555,555,555,555,555,555,555,555,555,555,555,555,555,555,555,555,555,555,555,555,555,555,555,555,555,555,555,555,555,555,555,555,555,555,555,555,555,555,555,555,555,555,555,555,555,555,555,555,555,555,555,555,555,555,555,555,555,555,555,555,555,555,555,555,555,555,555,555,555,555,555,555,555,555,555,555,555,555,555,555,555,555,555,555,555,555,555,555,555,555,555,555,555,555,555,555,555,555,555,555,555,555,555,555,555,555,555,555,555,555,555,555,555,555,555,555,555,555,555,555,555,555,555,555,555,555,555,555,555,555,555,555,555,555,555,555,555,555,555,555,555,555,555,555,555,555,555,555,555,555,555,555,555,555,555,555,555,555,555,555,555,555,555,555,555,555,555,555,555,555,555,555,555,555,555,555,555,555,555,555,555,555,555,555,555,555,555,555,555,555,555,555,555,555,555,555,555,555,555,555,555,555,555,555,555,555,555,555,555,555,555,555,555,555,555,555,555,555,555,555,555,555,555,555,555,555,555,555,555,555,555,555,555,555,555,555,555,555,555,555,555,555,555,555,555,555,555,555,555,555,555,555,555,555,555,555,555,555,555,555,555,555,555,555,555,555,555,555,555,555,555,555,555,555,555,555,555,555,555,555,555,555,555,555,555,555,555,555,555,555,555,555,555,555,555,555,555,555,555,555,555,555,555,555,555,555,555,555,555,555,555,555,555,555,555,555,555,555,555,555,555,555,555,555,555,555,555,555,555,555,555,555,555,555,555,555,555,555,555,555,555,555,555,555,555,555,555,555,555,555,555,555,555,555,555,555,555,555,555,555,555,555,555,555,555,555,555,555,555,555,555,555,555,555,555,555,555,555,555,555,555,555,555,555,555,555,555,555,555,555,555,555,555,555,555,555,555,555,555,555,555,555,555,555,555,555,555,555,555,555,555,555,555,555,555,555,555,555,555,555,555,555,555,555,555,555,555,555,555,555,555,555,555,555,555,555,555,555,555,555,555,555,555,555,555,555,555,555,555,555,555,555,555,555,555,555,555,555,555,555,555,555,555,555,555,555,555,555,555,555,555,555,555,555,555,555,555,555,555,555,555,555,555,555,555,555,555,555,555,555,555,555,555,555,555,555,555,555,555,555,555,555,555,555,555,555,555,555,555,555,555,555,555,555,555,555,555,555,555,555,555,555,555,555,555,555,555,555,555,555,555,555,555,555,555,555,555,555,555,555,555,555,555,555,555,555,555,555,555,555,555,555,555,555,555,555,555,555,555,555,555,555,555,555,555,555,555,555,555,555,555,555,555,555,555,555,555,555,555,555,555,555,555,555,555,555,555,555,555,555,555,555,555,555,555,555,555,555,555,555,555,555,555,555,555,555,555,555,555,555,555,555,555,555,555,555,555,555,555,555,555,555,555,555,555,555,555,555,555,555,555,555,555,555,555,555,555,555,555,555,555,555,555,555,555,555,555,555,555,555,555,555,555,555,555,555,555,555,555,555,555,555,555,555,555,555,555,555,555,555,555,555,555,555,555,555,555,555,555,555,555,555,555,555,555,555,555,555,555,555,555,555,555,555,555,555,555,555,555,555,555,555,555,555,555,555,555,555,555,555,555,555,555,555,555,555,555,555,555,555,555,555,555,555,555,555,555,555,555,555,555,555,555,555,555,555,555,555,555,555,555,555,555,555,555,555,555,555,555,555,555,555,555,555,555,555,555,555,555,555,555,555,555,555,555,555,555,555,555,555,555,555,555,555,555,555,555,555,555,555,555,555,555,555,555,555,555,555,555,555,555,555,555,555,555,555,555,555,555,555,555,555,555,555,555,555,555,555,555,555,555,555,555,555,555,555,555,555,555,555,555,555,555,555,555,555,555,555,555,555,555,555,555,555,555,555,554,559,562,564,564,564,564,564,564,564,564,564,564,564,564,574,614,685,715,715,715,715,715,715,715,715,715,715,715,715,715,715,717,705,694,680,659,647,636,629,624,622,622,622,622,622,623,623,613,602,583,533,502,473,453,437,434,434,448,467,475,499,506,507,507,507,507,504,503,498,491,482,480,479,479,479,480,481,481,481,481,481,482,482,484,486,486,486,486,486,486,486,486,487,488,491,499,502,502,502,502,484,478,471,467,467,466,468,472,476,478,480,480,480,480,480,480,481,481,481,481,481,481,480,479,479,479,481,486,488,488,488,489,489,488,487,486,486,486,485,483,478,478,479,486,497,526,548,565,580,592,605,605,605,605,606,692,703,703,703,703,703,703,703,703,703,703,703,703,703,703,703,703,703,703,703,703,703,703,703,703,703,703,703,703,703,703,703,703,703,703,703,703,703,703,703,703,710,696,687,670,660,643,619,601,590,567,564,563,560,556,549,549,549,549,549,549,549,549,549,549,549,549,549,543,541,531,531,531,531,531,531,531,531,531,531,530,514,490,457,431,377,350,320,285,252,209,190,181,169,163,156,155,154,151,147,138,132,126,115,96],"timestamp_mouse":[12,35,54,72,92,112,134,153,174,193,212,232,253,273,294,312,332,353,373,392,412,433,453,473,492,513,532,552,572,592,612,633,653,673,692,712,733,752,773,792,813,832,852,872,893,913,932,953,973,992,1012,1032,1053,1072,1093,1114,1132,1154,1173,1193,1212,1232,1254,1273,1293,1312,1333,1354,1373,1393,1412,1432,1453,1472,1493,1513,1533,1552,1572,1593,1613,1633,1653,1673,1693,1713,1733,1752,1773,1792,1812,1832,1853,1873,1893,1913,1933,1952,1973,1992,2013,2032,2053,2073,2093,2113,2133,2153,2172,2193,2213,2232,2252,2272,2292,2312,2332,2353,2373,2393,2412,2432,2453,2473,2493,2513,2534,2553,2573,2592,2612,2632,2652,2672,2692,2713,2733,2753,2773,2793,2813,2833,2852,2873,2892,2912,2932,2953,2973,2993,3012,3032,3053,3072,3092,3112,3132,3153,3173,3193,3212,3232,3252,3273,3292,3312,3332,3352,3373,3392,3412,3432,3452,3473,3492,3512,3533,3553,3572,3592,3612,3632,3652,3673,3692,3712,3733,3753,3773,3792,3812,3833,3852,3873,3893,3912,3932,3952,3973,3993,4013,4033,4053,4074,4092,4112,4132,4152,4173,4192,4213,4233,4253,4272,4292,4313,4333,4353,4372,4392,4413,4433,4453,4473,4493,4512,4532,4552,4572,4592,4612,4632,4652,4674,4693,4713,4733,4752,4772,4792,4812,4833,4853,4872,4892,4912,4932,4952,4973,4992,5012,5032,5053,5074,5093,5113,5132,5152,5173,5193,5214,5233,5252,5273,5293,5313,5334,5352,5373,5392,5412,5432,5452,5472,5492,5512,5532,5552,5573,5592,5613,5633,5653,5672,5692,5712,5732,5752,5772,5794,5813,5833,5853,5872,5893,5913,5933,5953,5973,5992,6012,6033,6053,6072,6092,6112,6133,6153,6173,6192,6212,6232,6252,6273,6292,6313,6332,6354,6377,6393,6413,6433,6453,6474,6493,6513,6533,6552,6572,6592,6612,6632,6652,6673,6692,6713,6732,6753,6773,6793,6813,6833,6853,6874,6892,6912,6934,6952,6973,6993,7012,7032,7053,7073,7093,7113,7133,7152,7173,7193,7213,7233,7252,7274,7293,7313,7333,7352,7373,7394,7412,7432,7452,7472,7492,7512,7532,7552,7574,7594,7613,7633,7654,7673,7693,7713,7733,7752,7774,7794,7813,7833,7853,7873,7893,7913,7933,7952,7974,7994,8013,8033,8052,8072,8092,8112,8132,8153,8174,8194,8213,8233,8252,8274,8293,8314,8333,8353,8374,8392,8412,8432,8453,8473,8493,8513,8533,8553,8574,8593,8613,8632,8652,8674,8692,8713,8733,8753,8772,8792,8813,8832,8852,8873,8892,8912,8932,8952,8974,8993,9013,9032,9053,9073,9093,9113,9132,9152,9173,9193,9213,9233,9252,9272,9292,9313,9333,9353,9372,9392,9413,9432,9452,9474,9492,9512,9532,9552,9574,9593,9613,9632,9653,9674,9692,9712,9733,9753,9772,9792,9813,9832,9852,9872,9893,9913,9933,9953,9973,9992,10013,10033,10053,10072,10092,10112,10132,10152,10173,10193,10214,10233,10253,10272,10292,10312,10333,10352,10372,10392,10412,10433,10453,10474,10492,10513,10533,10553,10573,10593,10613,10633,10653,10674,10692,10712,10732,10752,10772,10792,10813,10832,10852,10872,10892,10912,10933,10953,10974,10992,11014,11033,11053,11073,11093,11112,11132,11153,11172,11192,11212,11232,11252,11273,11292,11312,11332,11352,11372,11393,11412,11432,11452,11472,11493,11512,11532,11552,11573,11593,11612,11632,11652,11673,11693,11713,11733,11752,11772,11793,11813,11833,11853,11872,11892,11912,11932,11952,11973,11993,12012,12032,12052,12072,12093,12112,12132,12153,12173,12194,12212,12232,12252,12272,12294,12313,12333,12353,12372,12392,12412,12433,12453,12472,12492,12512,12532,12552,12572,12593,12613,12633,12653,12673,12693,12712,12732,12752,12772,12793,12813,12834,12853,12873,12892,12912,12933,12953,12972,12993,13012,13033,13052,13072,13093,13113,13133,13152,13172,13193,13213,13233,13253,13273,13293,13312,13332,13353,13372,13393,13412,13432,13452,13472,13492,13512,13532,13552,13572,13593,13613,13632,13653,13673,13693,13713,13733,13753,13774,13794,13813,13833,13853,13873,13894,13913,13933,13953,13973,13993,14013,14033,14053,14073,14092,14112,14133,14153,14174,14193,14212,14232,14252,14272,14293,14312,14333,14353,14373,14393,14412,14432,14452,14472,14493,14514,14533,14553,14573,14592,14612,14632,14652,14673,14693,14713,14733,14753,14773,14792,14812,14832,14852,14874,14893,14913,14933,14953,14972,14993,15013,15034,15053,15073,15093,15113,15133,15153,15172,15193,15212,15232,15253,15273,15293,15312,15333,15353,15373,15394,15412,15432,15452,15472,15493,15513,15533,15553,15573,15593,15612,15632,15652,15673,15693,15712,15732,15752,15773,15793,15813,15833,15853,15872,15893,15914,15934,15952,15972,15993,16012,16032,16053,16072,16093,16114,16133,16152,16172,16193,16212,16233,16253,16273,16293,16312,16332,16353,16373,16393,16412,16432,16452,16473,16492,16513,16533,16552,16572,16594,16613,16633,16653,16673,16694,16714,16733,16753,16772,16793,16813,16833,16852,16872,16894,16914,16933,16953,16973,16993,17012,17032,17052,17072,17093,17113,17134,17152,17172,17192,17212,17233,17253,17272,17294,17312,17334,17353,17374,17393,17413,17433,17452,17472,17494,17512,17532,17552,17572,17594,17612,17633,17653,17673,17694,17712,17732,17753,17773,17792,17812,17832,17852,17872,17893,17913,17933,17953,17973,17994,18013,18032,18053,18073,18092,18112,18132,18153,18172,18192,18212,18232,18252,18273,18293,18312,18332,18352,18372,18392,18413,18433,18452,18472,18492,18512,18532,18553,18573,18594,18613,18633,18652,18672,18692,18712,18733,18753,18773,18792,18812,18832,18853,18873,18894,18912,18932,18953,18972,18992,19012,19033,19053,19073,19092,19112,19133,19153,19173,19192,19212,19233,19253,19273,19292,19312,19333,19353,19373,19393,19413,19433,19453,19473,19493,19513,19532,19552,19572,19593,19613,19632,19652,19672,19692,19713,19732,19752,19773,19792,19812,19833,19853,19872,19892,19912,19933,19953,19973,19993,20012,20032,20052,20072,20092,20113,20134,20153,20173,20192,20213,20232,20252,20272,20292,20314,20333,20353,20374,20393,20413,20432,20453,20473,20493,20513,20533,20553,20573,20593,20613,20632,20652,20672,20693,20712,20732,20752,20772,20793,20813,20833,20853,20872,20892,20912,20932,20952,20972,20992,21012,21032,21052,21072,21092,21113,21133,21153,21173,21193,21213,21233,21253,21273,21293,21313,21333,21353,21373,21392,21413,21433,21452,21472,21493,21512,21532,21552,21572,21593,21613,21632,21652,21672,21692,21712,21733,21753,21773,21792,21814,21833,21853,21873,21892,21913,21932,21952,21973,21992,22013,22033,22053,22073,22093,22113,22133,22152,22172,22193,22214,22232,22252,22272,22293,22313,22332,22352,22372,22392,22412,22432,22452,22472,22492,22513,22533,22553,22573,22593,22613,22633,22652,22673,22692,22713,22733,22753,22774,22792,22814,22833,22853,22873,22893,22913,22933,22952,22972,22992,23014,23033,23053,23073,23092,23113,23132,23152,23172,23193,23213,23232,23252,23272,23293,23312,23332,23353,23373,23393,23413,23432,23453,23473,23493,23513,23533,23553,23573,23593,23613,23632,23652,23673,23693,23713,23732,23752,23773,23793,23813,23832,23852,23872,23892,23913,23934,23953,23973,23993,24013,24033,24053,24072,24092,24113,24133,24152,24172,24192,24213,24232,24253,24273,24293,24313,24332,24352,24372,24392,24413,24433,24453,24473,24493,24513,24533,24554,24573,24593,24612,24632,24652,24672,24692,24714,24734,24754,24772,24792,24813,24832,24853,24873,24893,24914,24933,24953,24972,24992,25013,25032,25052,25073,25093,25113,25132,25152,25172,25193,25214,25233,25253,25273,25292,25312,25332,25352,25372,25392,25414,25433,25453,25473,25492,25513,25532,25552,25573,25593,25614,25633,25653,25672,25692,25713,25732,25752,25772,25792,25813,25833,25853,25873,25893,25914,25932,25952,25972,25993,26014,26033,26053,26072,26092,26112,26132,26152,26173,26193,26214,26232,26254,26273,26293,26314,26332,26353,26373,26394,26413,26433,26452,26473,26492,26514,26534,26552,26572,26592,26612,26632,26652,26673,26693,26713,26732,26753,26773,26793,26813,26833,26853,26873,26893,26914,26932,26952,26972,26992,27014,27033,27054,27073,27093,27112,27132,27152,27172,27192,27212,27232,27252,27272,27293,27313,27332,27353,27373,27392,27412,27432,27452,27472,27492,27512,27533,27553,27573,27593,27612,27633,27652,27672,27692,27713,27733,27753,27773,27793,27812,27833,27853,27873,27893,27913,27933,27953,27972,27992,28012,28032,28052,28072,28092,28112,28132,28153,28173,28193,28214,28233,28253,28273,28293,28313,28333,28353,28373,28392,28412,28432,28452,28472,28492,28512,28533,28554,28573,28593,28613,28633,28652,28672,28692,28714,28733,28754,28773,28792,28812,28833,28852,28872,28892,28913,28934,28953,28973,28993,29013,29033,29052,29072,29092,29112,29132,29152,29172,29193,29213,29232,29252,29272,29293,29313,29333,29352,29372,29392,29412,29432,29452,29473,29493,29513,29533,29553,29573,29593,29612,29633,29653,29673,29692,29712,29733,29753,29773,29792,29812,29832,29852,29872,29892,29912,29933,29953,29973,29992,30012,30032,30053,30073,30093,30113,30133,30153,30172,30192,30212,30233,30252,30272,30292,30312,30333,30353,30373,30392,30413,30432,30452,30473,30493,30513,30532,30552,30572,30592,30612,30633,30653,30672,30692,30712,30733,30753,30773,30793,30813,30832,30852,30872,30893,30913,30934,30953,30972,30992,31012,31032,31052,31073,31094,31113,31132,31152,31172,31192,31213,31232,31252,31273,31292,31313,31333,31353,31373,31394,31413,31432,31452,31472,31492,31512,31533,31552,31573,31593,31613,31633,31653,31673,31692,31712,31733,31753,31773,31793,31812,31832,31852,31872,31892,31913,31933,31953,31973,31992,32012,32033,32053,32072,32092,32112,32133,32153,32172,32192,32212,32232,32252,32272,32292,32312,32333,32352,32372,32392,32412,32433,32452,32473,32493,32512,32533,32553,32573,32593,32613,32632,32652,32672,32692,32713,32733,32752,32772,32792,32813,32833,32853,32872,32892,32912,32933,32952,32973,32992,33013,33033,33053,33073,33093,33113,33133,33152,33172,33192,33212,33233,33254,33273,33293,33313,33333,33352,33372,33392,33412,33434,33454,33474,33493,33513,33533,33553,33573,33592,33612,33633,33652,33673,33693,33713,33734,33753,33773,33793,33813,33834,33852,33872,33892,33913,33934,33952,33972,33992,34013,34034,34052,34072,34092,34113,34134,34154,34173,34193,34213,34233,34252,34272,34292,34312,34332,34352,34372,34393,34412,34434,34452,34472,34492,34513,34534,34553,34574,34593,34613,34634,34653,34673,34693,34713,34734,34753,34772,34792,34812,34834,34854,34873,34892,34912,34933,34952,34972,34993,35013,35033,35053,35074,35093,35113,35133,35153,35173,35193,35213,35233,35253,35273,35293,35313,35334,35354,35373,35393,35414,35433,35453,35473,35493,35513,35534,35553,35573,35593,35613,35633,35653,35673,35693,35712,35732,35752,35772,35792,35812,35832,35852,35872,35892,35913,35934,35952,35973,35992,36013,36033,36053,36072,36092,36113,36132,36153,36174,36194,36214,36234,36253,36272,36293,36312,36334,36352,36372,36393,36413,36434,36453,36472,36492,36513,36533,36552,36572,36593,36613,36634,36652,36673,36692,36712,36733,36753,36772,36792,36812,36833,36853,36873,36893,36913,36933,36953,36973,36992,37012,37033,37053,37073,37093,37112,37132,37152,37173,37193,37213,37232,37253,37273,37293,37313,37332,37353,37372,37392,37413,37433,37453,37473,37493,37512,37532,37552,37572,37592,37613,37633,37653,37673,37692,37713,37733,37754,37773,37792,37812,37832,37853,37872,37893,37913,37932,37953,37972,37992,38012,38033,38053,38073,38092,38112,38132,38153,38173,38193,38213,38232,38253,38273,38293,38313,38332,38353,38372,38392,38412,38433,38454,38472,38492,38512,38533,38554,38573,38593,38612,38632,38652,38672,38692,38713,38733,38752,38772,38793,38813,38833,38852,38872,38892,38912,38932,38952,38972,38993,39013,39033,39053,39073,39093,39113,39133,39154,39172,39192,39212,39233,39254,39273,39293,39313,39333,39353,39373,39393,39413,39432,39452,39472,39492,39513,39532,39552,39572,39592,39613,39632,39654,39673,39693,39713,39732,39753,39773,39793,39813,39832,39854,39873,39892,39912,39933,39954,39973,39992,40012,40032,40052,40074,40093,40114,40133,40153,40173,40192,40212,40233,40253,40273,40293,40313,40333,40352,40372,40393,40413,40433,40452,40472,40492,40512,40533,40554,40574,40594,40614,40633,40652,40673,40693,40713,40732,40752,40772,40792,40813,40832,40853,40872,40893,40913,40933,40953,40972,40992,41012,41033,41052,41072,41092,41112,41132,41152,41173,41193,41213,41233,41253,41273,41292,41314,41333,41352,41372,41392,41412,41432,41453,41473,41493,41514,41532,41553,41572,41592,41613,41633,41653,41673,41693,41712,41732,41753,41772,41793,41813,41833,41853,41872,41892,41912,41932,41953,41974,41993,42012,42034,42054,42073,42093,42113,42133,42152,42172,42192,42213,42233,42253,42273,42292,42313,42333,42353,42373,42392,42412,42432,42453,42472,42492,42512,42533,42553,42573,42593,42613,42632,42653,42672,42692,42712,42733,42754,42773,42793,42813,42834,42854,42873,42892,42913,42934,42954,42973,42993,43014,43032,43053,43072,43092,43112,43132,43152,43172,43193,43212,43233,43254,43273,43293,43313,43333,43354,43373,43393,43412,43432,43453,43472,43492,43512,43533,43552,43573,43593,43613,43632,43653,43672,43693,43713,43733,43754,43772,43792,43812,43833,43852,43872,43893,43912,43932,43952,43972,43992,44012,44032,44053,44072,44092,44112,44133,44154,44172,44193,44213,44233,44253,44272,44292,44312,44332,44353,44372,44392,44413,44433,44452,44473,44492,44512,44532,44554,44573,44593,44613,44633,44655,44672,44693,44712,44732,44754,44772,44794,44813,44833,44854,44873,44892,44912,44933,44954,44973,44993,45012,45033,45052,45072,45092,45112,45132,45152,45173,45192,45213,45233,45255,45272,45294,45313,45333,45352,45372,45392,45412,45432,45452,45473,45492,45512,45534,45552,45572,45592,45613,45633,45652,45672,45693,45713,45733,45753,45772,45792,45812,45833,45853,45872,45892,45912,45933,45953,45972,45993,46012,46033,46053,46072,46094,46113,46132,46152,46173,46192,46212,46233,46253,46272,46294,46313,46332,46352,46373,46393,46413,46432,46452,46472,46494,46513,46533,46553,46572,46592,46613,46632,46652,46672,46692,46712,46733,46753,46773,46793,46813,46832,46852,46874,46893,46913,46932,46953,46974,46993,47014,47032,47052,47073,47094,47113,47133,47152,47173,47193,47213,47233,47252,47273,47292,47312,47332,47352,47372,47394,47412,47432,47452,47473,47494,47512,47532,47553,47574,47593,47612,47632,47652,47672,47692,47712,47733,47753,47773,47793,47813,47832,47852,47873,47893,47912,47932,47952,47973,47992,48014,48033,48052,48073,48092,48112,48133,48153,48173,48193,48212,48232,48253,48274,48293,48312,48333,48353,48373,48393,48413,48433,48452,48473,48492,48513,48532,48552,48572,48593,48612,48632,48652,48673,48693,48713,48733,48752,48772,48793,48814,48832,48853,48872,48893,48912,48932,48954,48973,48992,49013,49033,49053,49073,49092,49113,49134,49152,49173,49192,49213,49233,49254,49273,49292,49312,49333,49352,49373,49393,49413,49432,49452,49473,49492,49512,49533,49553],"xSR":741.5,"ySR":469.95,"xT1":424.9,"yT1":0,"xT2":1058.1,"yT2":0,"toosoon":0,"cond_shown":"Incongruent","ratio_trial":200,"L_num":1,"L_den":2,"R_num":3,"R_den":10,"correct_side":1,"subjID":"silvanadiaz4","gender":"1","school":"4","age":"9"},{"start_time":1552327855041,"click_time":1552327855890,"finger_time":1552327855389,"fix_duration":250,"trial":11,"RT":348,"MT":501,"sideResp":2,"stimulus":[],"xmouse":[780,780,780,780,780,780,780,780,780,780,780,780,780,780,780,780,785,811,832,852,866,877,897,908,923,933,940,949,955,959,961,965,981,992,1000,1000,1003,1015,1020,1024,1031,1056,1072],"ymouse":[498,498,498,498,498,498,498,498,498,498,498,498,498,498,497,489,471,417,375,343,319,300,277,269,256,247,236,216,208,201,197,191,178,169,162,162,158,142,135,131,124,99,80],"timestamp_mouse":[13,32,48,70,89,109,129,149,170,188,208,228,249,268,289,309,328,348,368,388,409,430,449,468,488,509,529,549,568,588,608,628,648,669,688,708,728,749,768,788,809,831,848],"xSR":741.5,"ySR":469.95,"xT1":424.9,"yT1":0,"xT2":1058.1,"yT2":0,"toosoon":0,"cond_shown":"Incongruent","ratio_trial":100,"L_num":4,"L_den":8,"R_num":8,"R_den":20,"correct_side":1,"subjID":"silvanadiaz4","gender":"1","school":"4","age":"9"},{"start_time":1552327858647,"click_time":1552327859529,"finger_time":1552327858809,"fix_duration":976.9981981752472,"trial":12,"RT":162,"MT":720,"sideResp":1,"stimulus":[],"xmouse":[802,801,801,799,798,794,786,755,720,669,632,609,599,598,597,597,598,601,601,601,601,596,596,589,579,569,561,525,505,492,479,474,464,460,460,460,460,459,459,458,458,458,458,458,459],"ymouse":[517,517,517,517,517,515,511,499,484,470,462,459,456,456,455,454,447,410,381,343,311,284,283,256,236,219,208,175,161,148,137,128,116,115,115,115,115,112,110,109,108,107,105,102,99],"timestamp_mouse":[2,24,43,62,82,102,123,142,162,182,203,222,243,264,283,302,322,343,362,382,402,422,443,464,483,503,522,543,563,582,602,622,642,662,682,702,723,743,762,784,802,822,843,862,882],"xSR":741.5,"ySR":469.95,"xT1":424.9,"yT1":0,"xT2":1058.1,"yT2":0,"toosoon":0,"cond_shown":"Incongruent","ratio_trial":200,"L_num":4,"L_den":30,"R_num":1,"R_den":3,"correct_side":2,"subjID":"silvanadiaz4","gender":"1","school":"4","age":"9"},{"start_time":1552327861468,"click_time":1552327862350,"finger_time":1552327862069,"fix_duration":957.4567323660764,"trial":13,"RT":601,"MT":281,"sideResp":2,"stimulus":[],"xmouse":[787,787,787,787,787,787,787,787,787,787,787,787,787,787,787,787,787,787,787,787,787,787,787,787,787,787,787,787,792,802,847,894,974,1035,1058,1058,1058,1058,1058,1058,1058,1058,1058,1058,1101],"ymouse":[528,528,528,528,528,528,528,528,528,528,528,528,528,528,528,528,528,528,528,528,528,528,528,528,528,528,528,528,521,498,392,282,130,48,16,16,16,16,16,16,16,16,16,16,2],"timestamp_mouse":[9,33,43,62,81,102,122,142,161,181,201,222,241,261,281,303,322,341,363,383,402,421,441,463,482,501,521,541,561,581,601,622,643,661,681,701,721,742,762,782,801,821,841,862,882],"xSR":741.5,"ySR":469.95,"xT1":424.9,"yT1":0,"xT2":1058.1,"yT2":0,"toosoon":0,"cond_shown":"Incongruent","ratio_trial":300,"L_num":4,"L_den":20,"R_num":2,"R_den":4,"correct_side":2,"subjID":"silvanadiaz4","gender":"1","school":"4","age":"9"},{"start_time":1552327863961,"click_time":1552327864329,"finger_time":1552327864129,"fix_duration":369.7303944016265,"trial":14,"RT":168,"MT":200,"sideResp":2,"stimulus":[],"xmouse":[772,772,772,772,772,772,773,778,782,785,792,825,853,884,924,981,1014,1051,1063],"ymouse":[492,492,492,492,492,492,490,479,469,464,454,409,373,328,278,203,161,109,93],"timestamp_mouse":[12,35,48,68,89,109,129,148,168,189,209,230,248,269,288,309,329,348,368],"xSR":741.5,"ySR":469.95,"xT1":424.9,"yT1":0,"xT2":1058.1,"yT2":0,"toosoon":0,"cond_shown":"Incongruent","ratio_trial":100,"L_num":12,"L_den":30,"R_num":2,"R_den":4,"correct_side":2,"subjID":"silvanadiaz4","gender":"1","school":"4","age":"9"},{"start_time":1552327866001,"click_time":1552327866489,"finger_time":1552327866310,"fix_duration":250,"trial":15,"RT":309,"MT":179,"sideResp":2,"stimulus":[],"xmouse":[769,769,769,769,769,769,769,769,769,769,769,773,782,785,807,888,935,979,1019,1047,1070,1079,1082,1086,1090],"ymouse":[537,537,537,537,537,537,537,537,537,537,537,531,516,511,487,404,350,301,251,207,150,126,117,108,98],"timestamp_mouse":[15,28,50,69,88,108,129,148,168,188,208,229,249,269,288,309,328,349,368,388,408,430,448,469,488],"xSR":741.5,"ySR":469.95,"xT1":424.9,"yT1":0,"xT2":1058.1,"yT2":0,"toosoon":0,"cond_shown":"Incongruent","ratio_trial":300,"L_num":13,"L_den":26,"R_num":12,"R_den":15,"correct_side":2,"subjID":"silvanadiaz4","gender":"1","school":"4","age":"9"},{"start_time":1552327867741,"click_time":1552327869089,"finger_time":1552327868550,"fix_duration":250,"trial":16,"RT":809,"MT":539,"sideResp":2,"stimulus":[],"xmouse":[780,780,780,780,780,780,780,780,780,780,780,780,780,780,780,780,780,780,780,780,780,780,780,780,780,780,780,780,780,780,780,780,780,780,780,780,780,780,790,836,864,903,938,975,987,1000,1008,1015,1024,1027,1027,1027,1029,1030,1033,1033,1033,1033,1033,1033,1033,1036,1044,1051,1053,1057,1058,1059],"ymouse":[530,530,530,530,530,530,530,530,530,530,530,530,530,530,530,530,530,530,530,530,530,530,530,530,530,530,530,530,530,530,530,530,530,530,530,530,531,530,517,475,455,425,394,344,322,301,280,265,243,234,233,233,225,214,203,200,199,199,199,198,194,180,152,111,92,77,69,61],"timestamp_mouse":[9,34,48,70,89,108,130,149,169,188,208,229,249,268,288,310,329,348,369,389,409,430,449,468,488,509,529,550,568,589,608,629,649,668,689,709,728,748,768,789,809,828,848,869,888,909,929,949,969,988,1008,1028,1049,1068,1088,1108,1128,1149,1168,1188,1209,1228,1248,1269,1288,1308,1329,1348],"xSR":741.5,"ySR":469.95,"xT1":424.9,"yT1":0,"xT2":1058.1,"yT2":0,"toosoon":0,"cond_shown":"Congruent","ratio_trial":200,"L_num":3,"L_den":12,"R_num":9,"R_den":20,"correct_side":2,"subjID":"silvanadiaz4","gender":"1","school":"4","age":"9"},{"start_time":1552327875340,"click_time":1552327876830,"finger_time":1552327876030,"fix_duration":250,"trial":17,"RT":690,"MT":800,"sideResp":2,"stimulus":[],"xmouse":[804,804,804,804,804,804,804,805,805,805,805,805,805,805,805,805,805,805,805,805,804,803,803,803,803,803,803,803,804,804,807,812,814,826,865,887,907,921,938,975,995,1013,1030,1044,1070,1080,1086,1087,1088,1088,1088,1088,1088,1088,1088,1088,1088,1088,1088,1090,1090,1091,1091,1091,1092,1092,1092,1092,1092,1092,1093,1094,1095,1096,1097],"ymouse":[548,548,548,548,548,550,551,554,555,555,555,555,555,555,555,555,555,557,557,558,558,559,559,559,559,559,559,559,558,558,546,529,528,508,450,417,389,371,354,329,317,303,288,269,223,201,184,176,174,174,174,174,174,173,173,164,155,146,133,120,119,118,118,118,118,118,118,118,118,118,114,111,107,103,97],"timestamp_mouse":[13,33,49,71,90,110,129,150,169,190,211,229,249,269,289,310,330,350,369,390,409,429,450,469,489,510,529,550,571,591,609,629,649,670,690,710,729,749,770,790,811,829,850,869,889,909,930,949,969,990,1010,1030,1050,1070,1090,1110,1130,1150,1170,1190,1209,1229,1249,1270,1290,1309,1329,1349,1369,1389,1409,1429,1449,1469,1490],"xSR":741.5,"ySR":469.95,"xT1":424.9,"yT1":0,"xT2":1058.1,"yT2":0,"toosoon":0,"cond_shown":"Congruent","ratio_trial":100,"L_num":15,"L_den":25,"R_num":13,"R_den":26,"correct_side":1,"subjID":"silvanadiaz4","gender":"1","school":"4","age":"9"},{"start_time":1552327888405,"click_time":1552327889351,"finger_time":1552327888729,"fix_duration":354.9650145482616,"trial":18,"RT":324,"MT":622,"sideResp":1,"stimulus":[],"xmouse":[811,809,809,803,801,800,798,798,797,797,797,797,797,797,794,785,770,738,718,685,623,602,571,567,567,567,567,567,567,573,577,582,582,591,600,606,611,614,622,624,623,591,563,551,551,550,541,510],"ymouse":[508,505,505,497,494,492,489,489,488,488,488,488,488,488,487,479,460,418,397,355,265,237,179,172,172,172,172,172,163,145,123,86,70,51,39,31,24,20,21,27,40,59,64,65,65,65,65,78],"timestamp_mouse":[4,35,45,65,86,105,125,145,164,186,204,224,245,264,285,305,324,347,364,385,404,424,445,465,485,506,524,546,565,586,604,624,644,664,684,705,725,744,764,784,804,826,844,864,884,904,924,946],"xSR":741.5,"ySR":469.95,"xT1":424.9,"yT1":0,"xT2":1058.1,"yT2":0,"toosoon":0,"cond_shown":"Congruent","ratio_trial":300,"L_num":5,"L_den":25,"R_num":6,"R_den":12,"correct_side":2,"subjID":"silvanadiaz4","gender":"1","school":"4","age":"9"},{"start_time":1552327935713,"click_time":1552327936769,"finger_time":1552327936069,"fix_duration":383.6797127673639,"trial":19,"RT":356,"MT":700,"sideResp":2,"stimulus":[],"xmouse":[801,801,802,803,804,804,805,805,805,805,805,805,805,805,805,815,835,860,870,871,872,872,872,873,878,884,893,908,908,918,932,941,941,946,951,963,973,1010,1023,1025,1025,1016,993,988,987,987,987,995,1007,1017,1029,1045,1066],"ymouse":[539,539,541,544,547,547,548,548,548,548,548,548,548,548,542,514,484,462,459,458,458,458,458,456,451,443,430,411,411,381,332,300,298,294,291,285,281,265,256,252,251,248,244,226,197,169,168,154,139,123,108,92,75],"timestamp_mouse":[16,36,55,75,95,115,136,156,176,195,215,235,256,275,295,316,336,356,377,396,415,435,456,476,495,515,535,556,576,596,616,635,656,676,696,717,736,756,776,796,816,836,856,876,895,915,935,956,976,995,1015,1035,1055],"xSR":741.5,"ySR":469.95,"xT1":424.9,"yT1":0,"xT2":1058.1,"yT2":0,"toosoon":0,"cond_shown":"Congruent","ratio_trial":100,"L_num":7,"L_den":14,"R_num":9,"R_den":15,"correct_side":2,"subjID":"silvanadiaz4","gender":"1","school":"4","age":"9"},{"start_time":1552327945601,"click_time":1552327948609,"finger_time":1552327946569,"fix_duration":250,"trial":20,"RT":968,"MT":2040,"sideResp":2,"stimulus":[],"xmouse":[813,806,802,796,794,794,794,794,794,794,794,794,794,794,794,794,794,794,794,794,794,794,794,794,794,794,794,794,794,794,794,794,794,794,794,794,794,794,794,794,794,794,794,794,794,794,780,753,701,649,649,649,649,642,518,350,257,219,214,214,213,213,213,213,213,213,213,213,213,213,213,213,213,213,213,213,213,213,213,213,213,213,213,207,200,197,197,197,197,197,197,196,196,196,196,196,195,195,194,194,194,194,194,194,193,193,193,193,193,193,193,193,193,193,193,193,193,193,193,193,193,193,193,193,193,193,193,193,193,193,193,193,193,193,193,193,193,193,193,203,399,588,789,889,940,942,942,948,965,980,1071],"ymouse":[523,523,521,519,518,518,518,518,518,518,517,517,517,517,517,517,517,517,517,517,517,517,517,517,517,517,517,517,517,517,517,517,517,517,517,517,517,517,517,517,517,517,517,517,517,518,533,553,571,574,574,574,574,574,628,658,663,663,663,663,663,663,663,663,663,663,663,663,663,663,663,663,663,663,663,663,663,663,663,663,663,662,652,622,584,568,568,568,568,568,568,567,565,563,562,561,558,557,555,555,555,555,554,554,552,552,552,552,552,552,552,552,552,552,552,552,552,552,552,552,552,552,552,552,552,552,552,552,552,552,552,552,552,552,552,552,552,552,547,517,306,175,62,31,47,49,49,51,52,51,18],"timestamp_mouse":[12,33,48,68,88,108,129,148,167,188,208,227,248,267,287,308,328,348,367,387,408,429,448,468,488,508,528,548,567,587,607,628,648,668,688,708,727,748,769,788,808,827,848,868,889,907,928,948,968,988,1009,1028,1048,1069,1088,1107,1127,1148,1168,1188,1207,1227,1248,1268,1288,1308,1328,1348,1367,1387,1407,1427,1449,1467,1488,1507,1527,1548,1568,1588,1608,1627,1647,1668,1688,1708,1728,1748,1767,1788,1808,1828,1847,1868,1888,1907,1927,1948,1968,1988,2007,2028,2048,2068,2088,2108,2128,2148,2167,2188,2207,2227,2247,2267,2288,2307,2328,2348,2368,2388,2408,2428,2448,2468,2487,2507,2527,2548,2568,2588,2608,2627,2648,2667,2689,2708,2728,2748,2767,2788,2808,2827,2847,2867,2889,2907,2927,2948,2967,2987,3008],"xSR":741.5,"ySR":469.95,"xT1":424.9,"yT1":0,"xT2":1058.1,"yT2":0,"toosoon":0,"cond_shown":"Congruent","ratio_trial":300,"L_num":18,"L_den":20,"R_num":9,"R_den":15,"correct_side":1,"subjID":"silvanadiaz4","gender":"1","school":"4","age":"9"},{"start_time":1552327974417,"click_time":1552327975489,"finger_time":1552327975269,"fix_duration":447.28446363620856,"trial":21,"RT":852,"MT":220,"sideResp":1,"stimulus":[],"xmouse":[778,778,778,778,778,778,778,778,778,778,778,778,778,778,778,778,778,778,778,778,778,778,778,778,778,778,778,778,778,778,778,778,778,778,778,778,778,778,778,777,775,772,722,690,663,646,624,617,611,601,597,576,535,521],"ymouse":[524,524,524,524,524,524,524,524,524,524,524,524,524,524,524,524,524,524,524,524,524,524,524,524,524,524,524,524,524,524,524,524,524,524,524,524,524,524,524,515,507,500,421,374,333,302,255,240,219,183,169,115,53,37],"timestamp_mouse":[11,35,52,72,91,113,132,152,172,191,212,231,252,272,291,312,331,352,372,392,412,432,452,472,492,511,532,551,571,591,611,632,652,672,691,712,733,751,771,792,812,831,852,871,893,912,933,951,972,992,1012,1031,1052,1072],"xSR":741.5,"ySR":469.95,"xT1":424.9,"yT1":0,"xT2":1058.1,"yT2":0,"toosoon":0,"cond_shown":"Incongruent","ratio_trial":200,"L_num":4,"L_den":6,"R_num":14,"R_den":30,"correct_side":1,"subjID":"silvanadiaz4","gender":"1","school":"4","age":"9"},{"start_time":1552328002500,"click_time":1552328003289,"finger_time":1552328002829,"fix_duration":250,"trial":22,"RT":329,"MT":460,"sideResp":2,"stimulus":[],"xmouse":[824,824,824,824,824,824,824,824,824,824,824,824,824,824,825,827,836,842,846,850,851,854,854,854,856,861,880,890,903,914,921,930,939,962,980,1001,1036,1057,1076,1092],"ymouse":[476,476,476,476,476,476,476,476,476,476,476,476,476,476,476,476,450,434,419,406,392,365,340,322,303,283,244,227,213,205,201,197,194,186,179,166,139,122,107,92],"timestamp_mouse":[13,41,49,71,89,110,130,149,170,189,210,229,249,269,289,309,329,349,369,389,409,429,450,469,489,509,529,550,569,589,609,629,650,669,689,709,729,750,769,789],"xSR":741.5,"ySR":469.95,"xT1":424.9,"yT1":0,"xT2":1058.1,"yT2":0,"toosoon":0,"cond_shown":"Congruent","ratio_trial":200,"L_num":4,"L_den":10,"R_num":3,"R_den":15,"correct_side":1,"subjID":"silvanadiaz4","gender":"1","school":"4","age":"9"},{"start_time":1552328011536,"click_time":1552328027250,"finger_time":1552328025229,"fix_duration":1425.170751551484,"trial":23,"RT":13693,"MT":2021,"sideResp":1,"stimulus":[],"xmouse":[795,795,795,795,795,795,795,795,795,795,795,795,795,795,795,795,795,795,795,795,795,795,795,795,795,795,795,795,795,795,795,795,795,795,795,795,795,795,795,795,795,795,795,795,795,795,795,795,795,795,795,795,795,795,795,795,795,795,795,795,795,795,795,795,795,795,795,795,795,795,795,795,795,795,795,795,795,795,795,795,795,795,795,795,795,795,795,795,795,795,795,795,795,795,795,795,795,795,795,795,795,795,795,795,795,795,795,795,795,795,795,795,795,795,795,795,795,795,795,795,795,795,795,795,795,795,795,795,795,795,795,795,795,795,795,795,795,795,795,795,795,795,795,795,795,795,795,795,795,795,795,795,795,795,795,795,795,795,795,795,795,795,795,795,795,795,795,795,795,795,795,795,795,795,795,795,795,795,795,795,795,795,795,795,795,795,795,795,795,795,795,795,795,795,795,795,795,795,795,795,795,795,795,795,795,795,795,795,795,795,795,795,795,795,795,795,795,795,795,795,795,795,795,795,795,795,795,795,795,795,795,795,795,795,795,795,795,795,795,795,795,795,795,795,795,795,795,795,795,795,795,795,795,795,795,795,795,795,795,795,795,795,795,795,795,795,795,795,795,795,795,795,795,795,795,795,795,795,795,795,795,795,795,795,795,795,795,795,795,795,795,795,795,795,795,795,795,795,795,795,795,795,795,795,795,795,795,795,795,795,795,795,795,795,795,795,795,795,795,795,795,795,795,795,795,795,795,795,795,795,795,795,795,795,795,795,795,795,795,795,795,795,795,795,795,795,795,795,795,795,795,795,795,795,795,795,795,795,795,795,795,795,795,795,795,795,795,795,795,795,795,795,795,795,795,795,795,795,795,795,795,795,795,795,795,795,795,795,795,795,795,795,795,795,795,795,795,795,795,795,795,795,795,795,795,795,795,795,795,795,795,795,795,795,795,795,795,795,795,795,795,795,795,795,795,795,795,795,795,795,795,795,795,795,795,795,795,795,795,795,795,795,795,795,795,795,795,795,795,795,795,795,795,795,795,795,795,795,795,795,795,795,795,795,795,795,795,795,795,795,795,795,795,795,795,795,795,795,795,795,795,795,795,795,795,795,795,795,795,795,795,795,795,795,795,795,795,795,795,795,795,795,795,795,795,795,795,795,795,795,795,795,795,795,795,795,795,795,795,795,795,795,795,795,795,795,795,795,795,795,795,795,795,795,795,795,795,795,795,795,795,795,795,795,795,795,795,795,795,795,795,795,795,795,795,795,795,795,795,795,795,795,795,795,795,795,795,795,795,795,795,795,795,795,795,795,795,795,795,795,795,795,795,795,795,795,795,795,795,795,795,795,795,795,795,795,795,795,795,795,795,795,795,795,795,795,795,795,795,795,795,795,795,795,795,795,795,795,795,795,795,795,795,795,795,795,795,795,795,795,795,795,795,795,795,795,795,795,795,795,795,795,795,795,795,795,795,795,795,795,795,795,795,795,795,795,795,795,795,795,795,795,795,795,795,795,795,795,795,795,795,795,795,795,795,795,795,795,795,795,795,795,796,793,783,781,781,781,781,781,781,781,785,791,796,797,798,798,798,798,798,798,800,828,860,877,878,878,878,878,878,878,878,878,878,878,878,878,878,878,878,878,878,878,876,867,854,845,839,834,831,829,829,828,826,825,823,819,814,808,805,801,801,801,801,801,801,801,800,799,799,799,799,799,799,797,795,778,747,694,634,571,542,538,537,536,534,531,526,522,516,516,516,516,516,514,512,507,505,505,505,505,505,505,505,505],"ymouse":[522,522,522,522,522,522,522,522,522,522,522,522,522,522,522,522,522,522,522,522,522,522,522,522,522,522,522,522,522,522,522,522,522,522,522,522,522,522,522,522,522,522,522,522,522,522,522,522,522,522,522,522,522,522,522,522,522,522,522,522,522,522,522,522,522,522,522,522,522,522,522,522,522,522,522,522,522,522,522,522,522,522,522,522,522,522,522,522,522,522,522,522,522,522,522,522,522,522,522,522,522,522,522,522,522,522,522,522,522,522,522,522,522,522,522,522,522,522,522,522,522,522,522,522,522,522,522,522,522,522,522,522,522,522,522,522,522,522,522,522,522,522,522,522,522,522,522,522,522,522,522,522,522,522,522,522,522,522,522,522,522,522,522,522,522,522,522,522,522,522,522,522,522,522,522,522,522,522,522,522,522,522,522,522,522,522,522,522,522,522,522,522,522,522,522,522,522,522,522,522,522,522,522,522,522,522,522,522,522,522,522,522,522,522,522,522,522,522,522,522,522,522,522,522,522,522,522,522,522,522,522,522,522,522,522,522,522,522,522,522,522,522,522,522,522,522,522,522,522,522,522,522,522,522,522,522,522,522,522,522,522,522,522,522,522,522,522,522,522,522,522,522,522,522,522,522,522,522,522,522,522,522,522,522,522,522,522,522,522,522,522,522,522,522,522,522,522,522,522,522,522,522,522,522,522,522,522,522,522,522,522,522,522,522,522,522,522,522,522,522,522,522,522,522,522,522,522,522,522,522,522,522,522,522,522,522,522,522,522,522,522,522,522,522,522,522,522,522,522,522,522,522,522,522,522,522,522,522,522,522,522,522,522,522,522,522,522,522,522,522,522,522,522,522,522,522,522,522,522,522,522,522,522,522,522,522,522,522,522,522,522,522,522,522,522,522,522,522,522,522,522,522,522,522,522,522,522,522,522,522,522,522,522,522,522,522,522,522,522,522,522,522,522,522,522,522,522,522,522,522,522,522,522,522,522,522,522,522,522,522,522,522,522,522,522,522,522,522,522,522,522,522,522,522,522,522,522,522,522,522,522,522,522,522,522,522,522,522,522,522,522,522,522,522,522,522,522,522,522,522,522,522,522,522,522,522,522,522,522,522,522,522,522,522,522,522,522,522,522,522,522,522,522,522,522,522,522,522,522,522,522,522,522,522,522,522,522,522,522,522,522,522,522,522,522,522,522,522,522,522,522,522,522,522,522,522,522,522,522,522,522,522,522,522,522,522,522,522,522,522,522,522,522,522,522,522,522,522,522,522,522,522,522,522,522,522,522,522,522,522,522,522,522,522,522,522,522,522,522,522,522,522,522,522,522,522,522,522,522,522,522,522,522,522,522,522,522,522,522,522,522,522,522,522,522,522,522,522,522,522,522,522,522,522,522,522,522,522,522,522,522,522,522,522,522,522,522,522,522,522,522,522,522,522,522,522,522,522,522,522,522,522,522,522,522,522,522,522,522,522,522,522,522,522,522,522,522,522,522,522,522,522,522,522,522,522,522,522,522,522,522,522,522,522,522,522,522,522,522,522,522,522,519,493,460,457,457,457,457,457,457,457,457,458,459,459,459,459,459,459,459,459,459,466,475,479,479,479,479,479,479,479,479,479,479,479,479,479,479,479,479,480,480,480,480,480,479,485,492,502,507,510,510,510,510,510,510,510,510,510,510,510,510,510,510,510,510,510,510,510,510,510,510,510,510,510,510,504,483,445,402,349,301,280,269,255,224,209,196,188,174,169,160,160,156,143,131,110,106,102,100,100,100,100,100,99],"timestamp_mouse":[14,38,53,74,93,113,133,154,173,193,213,234,254,274,293,314,333,353,373,393,414,433,453,475,493,514,534,553,573,593,614,633,654,673,693,713,733,753,773,794,813,833,853,873,893,915,933,954,973,993,1014,1033,1054,1073,1093,1113,1134,1153,1173,1193,1214,1233,1254,1273,1293,1314,1333,1353,1374,1393,1414,1433,1453,1473,1493,1514,1533,1553,1573,1594,1615,1633,1653,1674,1693,1715,1734,1753,1773,1794,1814,1833,1853,1873,1893,1913,1933,1953,1973,1993,2014,2033,2053,2073,2094,2113,2133,2153,2173,2193,2214,2234,2254,2274,2293,2313,2333,2353,2373,2394,2413,2433,2453,2473,2493,2515,2533,2553,2573,2593,2614,2633,2653,2674,2694,2715,2734,2753,2774,2793,2814,2835,2855,2873,2894,2913,2933,2954,2973,2994,3013,3033,3053,3073,3094,3114,3133,3153,3173,3193,3213,3233,3254,3273,3293,3313,3333,3353,3374,3393,3413,3433,3453,3473,3493,3513,3533,3553,3573,3593,3613,3633,3654,3674,3693,3714,3735,3754,3773,3794,3814,3833,3854,3873,3893,3913,3934,3953,3974,3993,4013,4033,4053,4074,4094,4114,4133,4153,4173,4193,4213,4233,4255,4275,4293,4313,4334,4354,4374,4393,4413,4433,4453,4473,4493,4513,4534,4553,4573,4595,4614,4634,4654,4674,4693,4713,4733,4753,4773,4793,4813,4834,4853,4873,4894,4913,4933,4953,4973,4993,5013,5035,5053,5073,5093,5113,5134,5154,5173,5193,5213,5233,5253,5273,5293,5313,5333,5354,5373,5393,5413,5434,5453,5473,5494,5513,5533,5553,5573,5593,5613,5633,5653,5673,5693,5713,5733,5753,5773,5794,5813,5833,5853,5873,5893,5913,5933,5953,5973,5994,6014,6033,6053,6073,6093,6114,6133,6154,6174,6195,6213,6233,6254,6274,6293,6313,6333,6355,6373,6393,6413,6434,6453,6473,6495,6514,6533,6553,6573,6593,6613,6633,6653,6674,6693,6714,6733,6753,6773,6793,6813,6833,6853,6873,6894,6914,6934,6954,6973,6994,7013,7033,7055,7074,7094,7114,7133,7153,7173,7194,7214,7234,7253,7273,7294,7314,7333,7354,7373,7393,7414,7433,7453,7473,7493,7513,7533,7553,7573,7593,7614,7634,7654,7673,7693,7713,7733,7754,7773,7793,7813,7833,7853,7873,7894,7913,7934,7953,7973,7993,8014,8034,8054,8073,8093,8113,8134,8153,8173,8193,8213,8233,8253,8274,8294,8314,8334,8354,8374,8393,8413,8433,8454,8473,8493,8514,8533,8554,8573,8593,8613,8634,8653,8673,8694,8713,8734,8753,8773,8793,8814,8834,8853,8874,8894,8913,8934,8954,8973,8993,9013,9033,9054,9073,9094,9113,9134,9153,9173,9193,9213,9234,9253,9273,9293,9313,9334,9354,9373,9393,9413,9434,9454,9474,9494,9514,9534,9553,9573,9593,9614,9635,9653,9673,9693,9713,9733,9753,9773,9793,9814,9834,9853,9874,9893,9913,9933,9954,9973,9993,10013,10033,10054,10074,10093,10113,10133,10153,10174,10193,10214,10235,10253,10273,10293,10313,10333,10353,10374,10393,10414,10434,10453,10473,10493,10513,10535,10554,10573,10594,10614,10633,10653,10673,10693,10713,10734,10753,10774,10794,10814,10833,10853,10873,10893,10913,10934,10953,10974,10994,11014,11033,11053,11074,11093,11113,11134,11153,11174,11194,11213,11235,11253,11273,11293,11313,11333,11353,11374,11393,11413,11433,11453,11473,11493,11513,11534,11555,11574,11593,11614,11633,11654,11674,11693,11714,11733,11753,11773,11795,11814,11833,11853,11873,11893,11913,11934,11953,11974,11994,12013,12033,12053,12073,12093,12113,12135,12153,12173,12194,12213,12233,12254,12274,12293,12313,12333,12353,12373,12393,12413,12433,12453,12473,12493,12514,12533,12553,12573,12593,12613,12633,12653,12673,12693,12713,12733,12754,12773,12793,12813,12833,12853,12873,12893,12913,12933,12954,12973,12993,13014,13033,13053,13073,13093,13113,13133,13154,13174,13193,13213,13233,13254,13273,13293,13313,13333,13353,13374,13393,13413,13433,13453,13473,13493,13514,13534,13553,13573,13593,13614,13633,13653,13675,13693,13713,13734,13754,13773,13793,13813,13834,13853,13873,13893,13913,13933,13953,13974,13993,14013,14033,14053,14074,14094,14113,14134,14153,14173,14194,14213,14233,14253,14273,14293,14313,14334,14354,14373,14393,14413,14434,14454,14473,14493,14513,14534,14553,14573,14593,14613,14633,14654,14673,14693,14713,14733,14753,14773,14793,14813,14833,14853,14873,14893,14913,14933,14953,14973,14993,15013,15033,15053,15074,15093,15113,15133,15153,15173,15193,15213,15234,15254,15275,15293,15313,15335,15353,15373,15393,15413,15433,15453,15474,15493,15514,15533,15553,15574,15593,15613,15634,15653,15673,15693,15714],"xSR":741.5,"ySR":469.95,"xT1":424.9,"yT1":0,"xT2":1058.1,"yT2":0,"toosoon":0,"cond_shown":"Congruent","ratio_trial":100,"L_num":7,"L_den":14,"R_num":9,"R_den":15,"correct_side":2,"subjID":"silvanadiaz4","gender":"1","school":"4","age":"9"},{"start_time":1552328049033,"click_time":1552328050670,"finger_time":1552328050229,"fix_duration":363.98457370202084,"trial":24,"RT":1196,"MT":441,"sideResp":1,"stimulus":[],"xmouse":[808,808,808,808,808,808,808,808,808,808,808,808,808,808,808,808,808,808,808,808,808,808,808,808,808,808,808,808,808,808,808,808,808,808,808,808,808,808,808,808,808,808,808,808,808,808,808,808,808,808,808,808,808,808,808,808,807,798,771,743,742,742,740,738,712,689,670,655,644,640,640,640,640,637,604,584,575,571,569,551,536,519],"ymouse":[510,510,510,510,510,510,510,510,510,510,510,510,510,510,510,510,510,510,510,510,510,510,510,510,510,510,510,510,510,510,510,510,510,510,510,510,510,510,510,510,510,510,510,510,510,510,510,510,510,510,510,510,510,510,510,510,510,504,488,468,466,464,460,455,424,396,368,340,313,269,250,237,222,208,149,122,106,98,95,89,85,79],"timestamp_mouse":[16,44,58,76,98,116,136,156,176,196,216,236,258,276,296,316,336,357,376,396,416,436,456,476,496,516,537,556,577,596,616,636,656,676,696,716,737,756,776,796,816,836,856,876,896,916,937,956,976,997,1016,1037,1056,1077,1096,1116,1136,1156,1176,1196,1217,1236,1258,1278,1296,1317,1336,1356,1376,1396,1416,1437,1456,1477,1497,1518,1536,1556,1576,1597,1617,1637],"xSR":741.5,"ySR":469.95,"xT1":424.9,"yT1":0,"xT2":1058.1,"yT2":0,"toosoon":0,"cond_shown":"Incongruent","ratio_trial":300,"L_num":2,"L_den":4,"R_num":6,"R_den":30,"correct_side":1,"subjID":"silvanadiaz4","gender":"1","school":"4","age":"9"},{"start_time":1552328054461,"click_time":1552328063590,"finger_time":1552328056289,"fix_duration":250,"trial":25,"RT":1828,"MT":7301,"sideResp":1,"stimulus":[],"xmouse":[787,787,787,787,787,787,787,787,787,787,787,787,787,787,787,787,787,787,787,787,787,787,787,787,787,787,787,787,787,787,788,788,791,791,791,791,791,791,791,791,791,791,791,791,791,791,791,791,791,791,791,791,791,791,791,791,791,791,791,791,791,791,791,791,791,791,791,791,791,791,791,791,791,791,791,791,791,790,786,781,781,781,781,781,781,780,778,771,763,756,756,756,753,750,750,749,749,749,749,763,773,776,777,779,789,797,797,797,797,801,821,844,866,881,905,920,936,948,955,953,953,953,953,953,953,953,953,952,952,952,952,952,952,952,952,952,952,952,952,956,959,961,966,966,964,960,949,921,840,431,274,183,173,173,173,173,172,166,159,152,155,161,165,165,176,196,231,275,298,304,299,297,297,297,297,297,296,295,295,295,295,295,295,295,295,295,296,299,308,338,345,348,348,348,349,349,349,349,349,349,349,347,342,338,336,333,327,324,321,313,304,296,278,259,226,219,218,218,218,218,218,214,213,212,212,212,212,214,218,218,218,216,214,211,199,189,179,167,157,142,140,140,140,140,140,140,139,139,139,139,139,139,139,139,139,139,139,139,139,139,141,149,154,155,138,130,128,128,128,128,128,128,128,128,128,128,128,128,128,126,124,124,124,124,124,124,124,124,124,124,124,124,124,124,124,124,124,124,124,124,124,122,120,119,119,119,119,119,119,119,119,120,122,123,129,141,147,155,161,167,168,168,168,168,168,168,168,168,168,168,168,184,248,364,506,791,897,962,977,977,977,979,981,985,988,981,966,950,934,924,885,865,847,838,832,832,832,832,831,808,802,802,802,802,805,809,809,809,809,809,809,809,809,809,809,809,809,809,809,809,809,809,809,809,809,809,809,809,809,809,809,809,802,789,760,737,737,737,737,737,737,737,737,737,737,737,737,738,759,773,785,785,785,785,785,785,785,786,786,786,786,786,786,786,786,786,786,786,786,786,786,786,786,786,786,786,786,786,786,786,786,786,786,786,786,786,786,786,785,779,753,733,709,675,639,561,521],"ymouse":[505,505,505,505,505,505,505,505,505,505,505,505,505,505,505,505,505,505,505,505,505,505,505,505,505,505,505,505,505,505,505,505,512,514,514,514,514,514,514,514,514,514,514,514,514,514,514,514,514,514,514,514,514,514,514,514,514,514,514,514,514,514,514,514,514,514,514,514,514,514,514,514,514,514,514,514,515,515,515,515,515,515,515,515,515,515,515,515,514,494,481,427,400,389,389,389,389,389,389,390,391,392,392,392,395,397,397,397,397,397,401,405,408,410,415,421,425,429,433,442,443,443,443,443,443,443,443,443,443,443,446,446,446,446,446,446,446,448,448,450,452,453,458,466,490,499,510,516,516,443,415,396,392,392,392,397,404,417,432,482,500,513,517,517,517,517,524,539,548,553,551,549,549,549,549,549,549,550,550,550,550,550,550,550,550,550,550,550,544,530,527,526,526,526,526,526,526,526,526,526,526,525,524,524,524,526,533,539,543,564,579,599,628,658,695,698,698,698,698,698,698,702,707,708,709,709,708,693,668,643,638,636,635,633,625,621,614,603,588,565,563,563,563,563,563,563,564,568,573,584,584,584,584,584,584,584,584,584,584,584,587,603,623,648,685,691,692,692,692,692,692,692,692,692,692,692,692,692,692,697,711,721,721,721,721,721,721,721,721,721,721,721,721,721,721,721,721,721,721,721,721,716,703,685,680,680,680,680,680,659,647,634,620,608,592,550,528,511,499,491,490,490,490,490,490,490,490,490,490,490,490,492,503,521,547,623,655,672,676,676,676,666,650,632,614,576,561,556,554,553,554,561,563,563,563,563,563,563,563,543,536,536,535,533,532,530,530,530,530,530,530,530,530,530,530,530,530,530,530,530,530,530,530,530,530,530,530,530,530,530,530,530,530,528,520,510,510,510,510,510,510,510,510,510,510,510,510,510,516,519,522,522,522,522,522,522,522,523,523,523,523,523,523,523,523,523,523,523,523,523,523,523,523,523,523,523,523,523,523,523,523,523,523,523,523,523,523,520,513,497,455,422,382,324,257,119,52],"timestamp_mouse":[11,32,48,68,88,109,128,148,168,188,210,228,249,268,288,309,328,348,369,388,408,428,448,470,489,508,528,549,568,589,609,628,648,669,688,708,729,749,768,788,809,828,848,868,888,909,929,949,968,988,1008,1029,1048,1070,1089,1108,1128,1148,1168,1189,1208,1228,1248,1269,1288,1309,1329,1348,1370,1389,1409,1429,1448,1470,1489,1509,1528,1548,1569,1588,1608,1628,1649,1668,1688,1708,1728,1749,1768,1788,1809,1828,1848,1868,1888,1908,1929,1948,1968,1988,2009,2028,2049,2068,2088,2109,2129,2149,2169,2188,2209,2228,2248,2268,2288,2309,2328,2348,2368,2388,2409,2429,2448,2469,2488,2508,2529,2548,2568,2589,2608,2628,2648,2669,2688,2708,2728,2748,2769,2788,2809,2828,2848,2868,2888,2908,2928,2948,2968,2988,3009,3028,3048,3068,3088,3108,3128,3148,3168,3188,3208,3228,3248,3268,3288,3309,3328,3348,3368,3388,3408,3429,3448,3468,3488,3508,3528,3548,3568,3588,3609,3629,3648,3668,3689,3709,3728,3748,3768,3788,3809,3829,3848,3868,3888,3909,3929,3948,3968,3989,4008,4028,4048,4068,4089,4108,4128,4148,4168,4188,4208,4228,4248,4268,4288,4310,4329,4349,4368,4388,4408,4428,4448,4468,4488,4508,4528,4548,4568,4589,4610,4629,4648,4668,4688,4709,4729,4748,4770,4788,4808,4829,4848,4868,4888,4908,4928,4948,4968,4989,5008,5029,5048,5068,5089,5108,5128,5148,5168,5188,5208,5229,5248,5268,5288,5309,5329,5350,5370,5388,5408,5428,5448,5468,5489,5508,5528,5549,5568,5588,5608,5628,5649,5668,5688,5708,5728,5748,5769,5788,5808,5829,5848,5868,5889,5909,5928,5948,5968,5988,6008,6028,6048,6068,6088,6109,6128,6148,6168,6189,6208,6228,6248,6268,6289,6308,6328,6347,6367,6388,6408,6428,6448,6468,6488,6509,6528,6548,6568,6588,6609,6628,6648,6668,6689,6708,6729,6748,6768,6788,6808,6828,6848,6868,6889,6908,6929,6948,6968,6988,7008,7028,7048,7068,7088,7107,7128,7148,7168,7188,7208,7228,7248,7268,7288,7309,7328,7348,7368,7388,7409,7429,7448,7468,7488,7508,7528,7549,7568,7588,7608,7628,7648,7668,7688,7708,7728,7748,7768,7788,7808,7828,7849,7868,7888,7909,7929,7948,7968,7988,8008,8029,8049,8068,8088,8108,8128,8148,8168,8189,8209,8228,8248,8268,8289,8308,8328,8348,8368,8388,8408,8428,8448,8468,8488,8508,8528,8548,8568,8589,8608,8629,8649,8668,8688,8708,8728,8748,8768,8788,8809,8828,8848,8869,8888,8908,8928,8948,8968,8988,9008,9028,9049,9069,9088,9108,9128],"xSR":741.5,"ySR":469.95,"xT1":424.9,"yT1":0,"xT2":1058.1,"yT2":0,"toosoon":0,"cond_shown":"Incongruent","ratio_trial":300,"L_num":4,"L_den":20,"R_num":2,"R_den":4,"correct_side":2,"subjID":"silvanadiaz4","gender":"1","school":"4","age":"9"},{"start_time":1552328070827,"click_time":1552328071669,"finger_time":1552328070829,"fix_duration":397.9834995325857,"trial":26,"RT":2,"MT":840,"sideResp":2,"stimulus":[],"xmouse":[763,762,762,791,816,842,842,842,842,842,842,842,842,842,842,842,842,842,842,842,842,842,842,842,842,842,842,842,842,842,842,842,842,1219,1217,1217,1217,1216,1195,1178,1168,1161,1154],"ymouse":[436,379,267,141,65,3,3,3,3,3,3,3,3,3,3,3,3,3,3,3,3,3,3,3,3,3,3,3,3,3,3,3,3,15,20,20,20,21,13,11,9,9,9],"timestamp_mouse":[2,24,43,62,82,102,122,143,162,182,202,222,243,262,282,302,322,343,363,382,402,422,443,462,482,502,522,543,562,582,602,622,642,663,682,702,722,742,762,783,802,822,842],"xSR":741.5,"ySR":469.95,"xT1":424.9,"yT1":0,"xT2":1058.1,"yT2":0,"toosoon":0,"cond_shown":"Congruent","ratio_trial":300,"L_num":9,"L_den":10,"R_num":3,"R_den":5,"correct_side":1,"subjID":"silvanadiaz4","gender":"1","school":"4","age":"9"},{"start_time":1552328073268,"click_time":1552328074029,"finger_time":1552328073409,"fix_duration":256.95114950602806,"trial":27,"RT":141,"MT":620,"sideResp":1,"stimulus":[],"xmouse":[808,808,808,807,805,799,782,768,752,730,710,666,656,650,645,643,641,638,633,622,602,564,563,563,563,563,553,547,541,537,537,537,537,537,537,537,537,532,519],"ymouse":[548,548,548,549,543,529,