[{"start_time":1552328814206,"click_time":1552328816343,"finger_time":1552328814250,"fix_duration":1179.067435761903,"trial":0,"RT":44,"MT":2093,"sideResp":1,"stimulus":"img/750/equaldotsize/L/13_Ratio_750_L_8_R_6.png","xmouse":[770,770,770,770,770,770,770,770,770,770,770,770,770,770,770,770,770,770,770,770,770,770,770,770,770,770,770,770,770,770,770,770,770,770,770,770,770,770,770,770,770,770,770,770,770,770,770,770,770,770,770,770,770,771,781,786,791,797,801,805,805,805,805,805,805,805,805,805,805,804,804,804,802,801,797,797,797,796,795,793,793,793,793,793,793,793,793,793,793,793,793,793,793,793,793,793,793,793,788,754,714,680,638,529,488,463],"ymouse":[549,549,549,549,549,549,549,549,549,549,549,549,549,549,549,549,549,549,549,549,549,549,549,549,549,549,549,549,549,549,549,549,549,549,549,549,549,549,549,549,549,549,549,549,549,549,549,549,549,549,549,549,549,553,579,598,617,638,653,668,668,668,668,668,668,668,668,668,668,668,668,668,667,662,641,630,618,607,598,589,589,589,589,589,589,589,589,589,589,589,589,589,583,570,451,356,256,156,63,0,0,0,0,0,0,2],"timestamp_mouse":[43,55,75,97,116,135,156,175,196,215,236,256,276,297,316,337,356,376,395,416,436,455,475,496,515,535,555,575,595,616,637,655,675,696,716,736,756,776,797,815,835,855,876,897,916,935,955,975,995,1015,1036,1056,1077,1096,1117,1136,1157,1177,1195,1215,1236,1256,1276,1295,1316,1336,1356,1376,1396,1415,1436,1455,1476,1496,1516,1536,1555,1575,1596,1616,1635,1655,1676,1696,1715,1735,1757,1776,1795,1815,1836,1855,1876,1896,1917,1936,1957,1976,1996,2016,2035,2056,2075,2099,2115,2136],"xSR":741.5,"ySR":501.8,"xT1":424.9,"yT1":0,"xT2":1058.1,"yT2":0,"toosoon":0,"cond_shown":"equaldotsize","ratio_trial":750,"smaller_num":"6","larger_num":"8","correct_side":1,"subjID":"SilvanaDiaz4","gender":"1","age":"9","school":"4","test":{"fix_dur":[250,1500],"timestim":300,"targets_dim":[100,100],"targets_relative_coord":[0.3,0.7],"size_stim":[880,420],"start_dim":[100,100],"size_start":[300,300],"size_fix":60,"samplingrate":20,"img_types":["equaldotsize","equaldotanddens","randomdotsizeEA"],"ratios":[250,500,750,900],"rep_conds":9,"nTrials":120,"trials_to_rest":500,"Trials_order":[30,113,9,54,45,51,17,44,85,69,73,56,114,1,79,7,89,64,53,68,71,63,77,50,39,8,42,100,102,61,94,78,109,108,11,38,80,37,70,58,5,23,118,32,82,19,117,36,57,21,76,83,40,34,15,47,84,99,31,4,112,22,103,72,18,93,110,87,24,66,3,29,59,55,46,107,101,75,90,41,33,35,81,12,116,74,2,86,97,105,92,0,25,91,26,60,14,67,10,49,95,111,13,48,20,65,119,27,6,52,16,28,106,43,115,98,62,96,104,88],"cond_shown":["equaldotsize","randomdotsizeEA","equaldotsize","equaldotsize","equaldotsize","equaldotsize","randomdotsizeEA","randomdotsizeEA","equaldotanddens","equaldotsize","equaldotanddens","randomdotsizeEA","equaldotsize","equaldotanddens","equaldotanddens","equaldotanddens","randomdotsizeEA","equaldotanddens","randomdotsizeEA","randomdotsizeEA","randomdotsizeEA","equaldotsize","randomdotsizeEA","randomdotsizeEA","equaldotsize","randomdotsizeEA","equaldotsize","equaldotanddens","equaldotsize","equaldotanddens","equaldotanddens","equaldotsize","equaldotanddens","equaldotsize","randomdotsizeEA","randomdotsizeEA","randomdotsizeEA","equaldotanddens","equaldotanddens","equaldotanddens","randomdotsizeEA","randomdotsizeEA","equaldotanddens","randomdotsizeEA","equaldotanddens","equaldotanddens","equaldotsize","equaldotsize","equaldotsize","equaldotsize","equaldotanddens","randomdotsizeEA","equaldotanddens","equaldotanddens","equaldotsize","randomdotsizeEA","equaldotsize","equaldotsize","equaldotanddens","equaldotanddens","equaldotanddens","equaldotanddens","equaldotanddens","equaldotsize","equaldotsize","equaldotsize","randomdotsizeEA","equaldotsize","equaldotsize","equaldotsize","equaldotsize","randomdotsizeEA","randomdotsizeEA","equaldotanddens","equaldotanddens","randomdotsizeEA","randomdotsizeEA","equaldotsize","equaldotsize","randomdotsizeEA","equaldotsize","randomdotsizeEA","equaldotsize","equaldotsize","randomdotsizeEA","randomdotsizeEA","randomdotsizeEA","randomdotsizeEA","equaldotanddens","equaldotsize","randomdotsizeEA","equaldotsize","equaldotanddens","equaldotanddens","randomdotsizeEA","equaldotsize","randomdotsizeEA","equaldotanddens","equaldotanddens","equaldotanddens","randomdotsizeEA","equaldotsize","equaldotanddens","equaldotsize","randomdotsizeEA","randomdotsizeEA","randomdotsizeEA","equaldotsize","equaldotsize","equaldotanddens","equaldotanddens","equaldotanddens","equaldotanddens","equaldotanddens","equaldotanddens","randomdotsizeEA","randomdotsizeEA","equaldotsize","randomdotsizeEA","equaldotanddens"],"ratio_trial":[750,500,900,750,900,500,500,750,250,900,250,750,750,250,750,750,500,500,500,750,900,500,500,250,500,750,750,500,750,250,900,750,250,250,900,250,750,250,900,900,500,900,900,750,900,750,900,250,900,900,500,900,500,900,500,900,250,500,750,500,500,900,750,250,750,900,250,500,250,750,500,500,900,750,900,900,500,500,750,500,900,900,900,250,750,250,250,250,250,900,750,250,250,750,250,250,250,750,900,250,900,500,250,250,750,500,900,500,750,500,500,500,900,750,750,250,250,250,750,500],"smaller_num":["6","5","18","15","9","2","5","15","6","18","2","18","3","6","12","6","5","6","9","3","18","2","2","6","2","6","9","5","3","5","18","12","2","6","9","3","6","6","18","9","1","18","9","3","18","15","9","4","18","18","10","18","5","18","6","9","3","9","15","9","9","18","3","2","15","9","1","5","2","9","9","9","18","9","18","18","3","5","15","1","9","9","18","4","3","2","3","2","4","18","3","6","2","6","4","5","3","6","18","6","18","10","5","5","15","2","9","10","18","2","4","9","9","3","3","2","4","5","9","9"],"larger_num":["8","10","20","20","10","4","10","20","24","20","8","24","4","24","16","8","10","12","18","4","20","4","4","24","4","8","12","10","4","20","20","16","8","24","10","12","8","24","20","10","2","20","10","4","20","20","10","16","20","20","20","20","10","20","12","10","12","18","20","18","18","20","4","8","20","10","4","10","8","12","18","18","20","12","20","20","6","10","20","2","10","10","20","16","4","8","12","8","16","20","4","24","8","8","16","20","12","8","20","24","20","20","20","20","20","4","10","20","24","4","8","18","10","4","4","8","16","20","12","18"],"correct_side":[1,2,1,1,2,1,2,2,2,2,1,1,1,2,2,1,2,1,2,2,2,1,2,1,1,1,2,2,2,2,1,2,1,2,2,2,1,1,2,2,2,1,1,1,1,2,2,1,1,1,2,1,2,2,1,2,1,1,1,2,1,1,1,2,1,2,2,1,1,2,2,1,2,2,2,2,2,1,1,2,2,2,2,2,1,1,2,1,1,1,2,1,1,1,2,2,1,2,1,2,2,2,2,2,2,1,2,2,1,1,1,2,1,2,1,1,1,2,2,1],"img_shown":["img/750/equaldotsize/L/13_Ratio_750_L_8_R_6.png","img/500/randomdotsizeEA/R/14_Ratio_500_L_5_R_10.png","img/900/equaldotsize/L/2_Ratio_900_L_20_R_18.png","img/750/equaldotsize/L/1_Ratio_750_L_20_R_15.png","img/900/equaldotsize/R/5_Ratio_900_L_9_R_10.png","img/500/equaldotsize/L/10_Ratio_500_L_4_R_2.png","img/500/randomdotsizeEA/R/14_Ratio_500_L_5_R_10.png","img/750/randomdotsizeEA/R/5_Ratio_750_L_15_R_20.png","img/250/equaldotanddens/R/6_Ratio_250_L_6_R_24.png","img/900/equaldotsize/R/9_Ratio_900_L_18_R_20.png","img/250/equaldotanddens/L/1_Ratio_250_L_8_R_2.png","img/750/randomdotsizeEA/L/6_Ratio_750_L_24_R_18.png","img/750/equaldotsize/L/8_Ratio_750_L_4_R_3.png","img/250/equaldotanddens/R/6_Ratio_250_L_6_R_24.png","img/750/equaldotanddens/R/11_Ratio_750_L_12_R_16.png","img/750/equaldotanddens/L/14_Ratio_750_L_8_R_6.png","img/500/randomdotsizeEA/R/14_Ratio_500_L_5_R_10.png","img/500/equaldotanddens/L/11_Ratio_500_L_12_R_6.png","img/500/randomdotsizeEA/R/6_Ratio_500_L_9_R_18.png","img/750/randomdotsizeEA/R/12_Ratio_750_L_3_R_4.png","img/900/randomdotsizeEA/R/11_Ratio_900_L_18_R_20.png","img/500/equaldotsize/L/5_Ratio_500_L_4_R_2.png","img/500/randomdotsizeEA/R/9_Ratio_500_L_2_R_4.png","img/250/randomdotsizeEA/L/5_Ratio_250_L_24_R_6.png","img/500/equaldotsize/L/5_Ratio_500_L_4_R_2.png","img/750/randomdotsizeEA/L/14_Ratio_750_L_8_R_6.png","img/750/equaldotsize/R/15_Ratio_750_L_9_R_12.png","img/500/equaldotanddens/R/14_Ratio_500_L_5_R_10.png","img/750/equaldotsize/R/12_Ratio_750_L_3_R_4.png","img/250/equaldotanddens/R/12_Ratio_250_L_5_R_20.png","img/900/equaldotanddens/L/8_Ratio_900_L_20_R_18.png","img/750/equaldotsize/R/11_Ratio_750_L_12_R_16.png","img/250/equaldotanddens/L/3_Ratio_250_L_8_R_2.png","img/250/equaldotsize/R/6_Ratio_250_L_6_R_24.png","img/900/randomdotsizeEA/R/6_Ratio_900_L_9_R_10.png","img/250/randomdotsizeEA/R/4_Ratio_250_L_3_R_12.png","img/750/randomdotsizeEA/L/13_Ratio_750_L_8_R_6.png","img/250/equaldotanddens/L/5_Ratio_250_L_24_R_6.png","img/900/equaldotanddens/R/14_Ratio_900_L_18_R_20.png","img/900/equaldotanddens/R/15_Ratio_900_L_9_R_10.png","img/500/randomdotsizeEA/R/15_Ratio_500_L_1_R_2.png","img/900/randomdotsizeEA/L/2_Ratio_900_L_20_R_18.png","img/900/equaldotanddens/L/1_Ratio_900_L_10_R_9.png","img/750/randomdotsizeEA/L/10_Ratio_750_L_4_R_3.png","img/900/equaldotanddens/L/2_Ratio_900_L_20_R_18.png","img/750/equaldotanddens/R/4_Ratio_750_L_15_R_20.png","img/900/equaldotsize/R/3_Ratio_900_L_9_R_10.png","img/250/equaldotsize/L/2_Ratio_250_L_16_R_4.png","img/900/equaldotsize/L/10_Ratio_900_L_20_R_18.png","img/900/equaldotsize/L/10_Ratio_900_L_20_R_18.png","img/500/equaldotanddens/R/3_Ratio_500_L_10_R_20.png","img/900/randomdotsizeEA/L/4_Ratio_900_L_20_R_18.png","img/500/equaldotanddens/R/14_Ratio_500_L_5_R_10.png","img/900/equaldotanddens/R/14_Ratio_900_L_18_R_20.png","img/500/equaldotsize/L/13_Ratio_500_L_12_R_6.png","img/900/randomdotsizeEA/R/15_Ratio_900_L_9_R_10.png","img/250/equaldotsize/L/15_Ratio_250_L_12_R_3.png","img/500/equaldotsize/L/4_Ratio_500_L_18_R_9.png","img/750/equaldotanddens/L/1_Ratio_750_L_20_R_15.png","img/500/equaldotanddens/R/1_Ratio_500_L_9_R_18.png","img/500/equaldotanddens/L/4_Ratio_500_L_18_R_9.png","img/900/equaldotanddens/L/10_Ratio_900_L_20_R_18.png","img/750/equaldotanddens/L/8_Ratio_750_L_4_R_3.png","img/250/equaldotsize/R/13_Ratio_250_L_2_R_8.png","img/750/equaldotsize/L/1_Ratio_750_L_20_R_15.png","img/900/equaldotsize/R/3_Ratio_900_L_9_R_10.png","img/250/randomdotsizeEA/R/8_Ratio_250_L_1_R_4.png","img/500/equaldotsize/L/7_Ratio_500_L_10_R_5.png","img/250/equaldotsize/L/1_Ratio_250_L_8_R_2.png","img/750/equaldotsize/R/15_Ratio_750_L_9_R_12.png","img/500/equaldotsize/R/1_Ratio_500_L_9_R_18.png","img/500/randomdotsizeEA/L/4_Ratio_500_L_18_R_9.png","img/900/randomdotsizeEA/R/14_Ratio_900_L_18_R_20.png","img/750/equaldotanddens/R/15_Ratio_750_L_9_R_12.png","img/900/equaldotanddens/R/11_Ratio_900_L_18_R_20.png","img/900/randomdotsizeEA/R/12_Ratio_900_L_18_R_20.png","img/500/randomdotsizeEA/R/2_Ratio_500_L_3_R_6.png","img/500/equaldotsize/L/7_Ratio_500_L_10_R_5.png","img/750/equaldotsize/L/1_Ratio_750_L_20_R_15.png","img/500/randomdotsizeEA/R/12_Ratio_500_L_1_R_2.png","img/900/equaldotsize/R/5_Ratio_900_L_9_R_10.png","img/900/randomdotsizeEA/R/3_Ratio_900_L_9_R_10.png","img/900/equaldotsize/R/12_Ratio_900_L_18_R_20.png","img/250/equaldotsize/R/10_Ratio_250_L_4_R_16.png","img/750/randomdotsizeEA/L/8_Ratio_750_L_4_R_3.png","img/250/randomdotsizeEA/L/7_Ratio_250_L_8_R_2.png","img/250/randomdotsizeEA/R/4_Ratio_250_L_3_R_12.png","img/250/randomdotsizeEA/L/3_Ratio_250_L_8_R_2.png","img/250/equaldotanddens/L/2_Ratio_250_L_16_R_4.png","img/900/equaldotsize/L/4_Ratio_900_L_20_R_18.png","img/750/randomdotsizeEA/R/7_Ratio_750_L_3_R_4.png","img/250/equaldotsize/L/5_Ratio_250_L_24_R_6.png","img/250/equaldotanddens/L/1_Ratio_250_L_8_R_2.png","img/750/equaldotanddens/L/14_Ratio_750_L_8_R_6.png","img/250/randomdotsizeEA/R/10_Ratio_250_L_4_R_16.png","img/250/equaldotsize/R/12_Ratio_250_L_5_R_20.png","img/250/randomdotsizeEA/L/14_Ratio_250_L_12_R_3.png","img/750/equaldotanddens/R/2_Ratio_750_L_6_R_8.png","img/900/equaldotanddens/L/2_Ratio_900_L_20_R_18.png","img/250/equaldotanddens/R/6_Ratio_250_L_6_R_24.png","img/900/randomdotsizeEA/R/11_Ratio_900_L_18_R_20.png","img/500/equaldotsize/R/3_Ratio_500_L_10_R_20.png","img/250/equaldotanddens/R/12_Ratio_250_L_5_R_20.png","img/250/equaldotsize/R/12_Ratio_250_L_5_R_20.png","img/750/randomdotsizeEA/R/5_Ratio_750_L_15_R_20.png","img/500/randomdotsizeEA/L/10_Ratio_500_L_4_R_2.png","img/900/randomdotsizeEA/R/5_Ratio_900_L_9_R_10.png","img/500/equaldotsize/R/3_Ratio_500_L_10_R_20.png","img/750/equaldotsize/L/6_Ratio_750_L_24_R_18.png","img/500/equaldotanddens/L/10_Ratio_500_L_4_R_2.png","img/500/equaldotanddens/L/8_Ratio_500_L_8_R_4.png","img/500/equaldotanddens/R/1_Ratio_500_L_9_R_18.png","img/900/equaldotanddens/L/1_Ratio_900_L_10_R_9.png","img/750/equaldotanddens/R/7_Ratio_750_L_3_R_4.png","img/750/equaldotanddens/L/8_Ratio_750_L_4_R_3.png","img/250/randomdotsizeEA/L/7_Ratio_250_L_8_R_2.png","img/250/randomdotsizeEA/L/2_Ratio_250_L_16_R_4.png","img/250/equaldotsize/R/12_Ratio_250_L_5_R_20.png","img/750/randomdotsizeEA/R/15_Ratio_750_L_9_R_12.png","img/500/equaldotanddens/L/4_Ratio_500_L_18_R_9.png"],"Rat0":[["12_Ratio_0_L_9_R_0.png","13_Ratio_0_L_6_R_0.png","5_Ratio_0_L_2_R_0.png","6_Ratio_0_L_4_R_0.png","8_Ratio_0_L_6_R_0.png"],["1_Ratio_0_L_0_R_17.png","10_Ratio_0_L_0_R_22.png","11_Ratio_0_L_0_R_1.png","14_Ratio_0_L_0_R_24.png","15_Ratio_0_L_0_R_4.png","2_Ratio_0_L_0_R_5.png","3_Ratio_0_L_0_R_17.png","4_Ratio_0_L_0_R_7.png","7_Ratio_0_L_0_R_19.png","9_Ratio_0_L_0_R_15.png"]],"Rat250":[["1_Ratio_250_L_8_R_2.png","14_Ratio_250_L_12_R_3.png","15_Ratio_250_L_12_R_3.png","2_Ratio_250_L_16_R_4.png","3_Ratio_250_L_8_R_2.png","5_Ratio_250_L_24_R_6.png","7_Ratio_250_L_8_R_2.png"],["10_Ratio_250_L_4_R_16.png","11_Ratio_250_L_3_R_12.png","12_Ratio_250_L_5_R_20.png","13_Ratio_250_L_2_R_8.png","4_Ratio_250_L_3_R_12.png","6_Ratio_250_L_6_R_24.png","8_Ratio_250_L_1_R_4.png","9_Ratio_250_L_3_R_12.png"]],"Rat500":[["10_Ratio_500_L_4_R_2.png","11_Ratio_500_L_12_R_6.png","13_Ratio_500_L_12_R_6.png","4_Ratio_500_L_18_R_9.png","5_Ratio_500_L_4_R_2.png","7_Ratio_500_L_10_R_5.png","8_Ratio_500_L_8_R_4.png"],["1_Ratio_500_L_9_R_18.png","12_Ratio_500_L_1_R_2.png","14_Ratio_500_L_5_R_10.png","15_Ratio_500_L_1_R_2.png","2_Ratio_500_L_3_R_6.png","3_Ratio_500_L_10_R_20.png","6_Ratio_500_L_9_R_18.png","9_Ratio_500_L_2_R_4.png"]],"Rat750":[["1_Ratio_750_L_20_R_15.png","10_Ratio_750_L_4_R_3.png","13_Ratio_750_L_8_R_6.png","14_Ratio_750_L_8_R_6.png","6_Ratio_750_L_24_R_18.png","8_Ratio_750_L_4_R_3.png","9_Ratio_750_L_4_R_3.png"],["11_Ratio_750_L_12_R_16.png","12_Ratio_750_L_3_R_4.png","15_Ratio_750_L_9_R_12.png","2_Ratio_750_L_6_R_8.png","3_Ratio_750_L_15_R_20.png","4_Ratio_750_L_15_R_20.png","5_Ratio_750_L_15_R_20.png","7_Ratio_750_L_3_R_4.png"]],"Rat900":[["1_Ratio_900_L_10_R_9.png","10_Ratio_900_L_20_R_18.png","2_Ratio_900_L_20_R_18.png","4_Ratio_900_L_20_R_18.png","8_Ratio_900_L_20_R_18.png"],["11_Ratio_900_L_18_R_20.png","12_Ratio_900_L_18_R_20.png","13_Ratio_900_L_18_R_20.png","14_Ratio_900_L_18_R_20.png","15_Ratio_900_L_9_R_10.png","3_Ratio_900_L_9_R_10.png","5_Ratio_900_L_9_R_10.png","6_Ratio_900_L_9_R_10.png","7_Ratio_900_L_9_R_10.png","9_Ratio_900_L_18_R_20.png"]],"Rat1000":[["10_Ratio_1000_L_16_R_16.png","11_Ratio_1000_L_6_R_6.png","12_Ratio_1000_L_14_R_14.png","13_Ratio_1000_L_20_R_20.png","15_Ratio_1000_L_15_R_15.png","2_Ratio_1000_L_17_R_17.png","4_Ratio_1000_L_9_R_9.png","5_Ratio_1000_L_6_R_6.png","6_Ratio_1000_L_19_R_19.png","8_Ratio_1000_L_14_R_14.png","9_Ratio_1000_L_25_R_25.png"],["1_Ratio_1000_L_1_R_1.png","14_Ratio_1000_L_17_R_17.png","3_Ratio_1000_L_17_R_17.png","7_Ratio_1000_L_6_R_6.png"]]}},{"start_time":1552328821451,"click_time":1552328822925,"finger_time":1552328822542,"fix_duration":627.3612653810562,"trial":1,"RT":1091,"MT":383,"sideResp":2,"stimulus":"img/500/randomdotsizeEA/R/14_Ratio_500_L_5_R_10.png","xmouse":[787,787,787,787,787,787,787,787,787,787,787,787,787,787,787,787,787,787,787,787,787,787,787,787,787,787,787,787,787,787,787,787,787,787,787,787,787,787,787,787,787,787,787,787,787,787,787,787,787,787,787,787,790,798,822,847,873,900,927,971,983,991,997,1001,1001,1001,1001,1001,1001,1001,1005,1016,1032,1078],"ymouse":[627,627,627,627,627,627,627,627,627,627,627,627,627,627,627,627,627,627,627,627,627,627,627,627,627,627,627,627,627,627,627,627,627,627,627,627,627,627,627,627,627,627,627,627,627,627,627,627,627,627,627,627,625,612,570,511,444,352,263,118,75,45,20,0,0,0,0,0,0,0,4,16,29,53],"timestamp_mouse":[12,33,51,70,91,110,130,150,170,191,211,232,251,271,291,311,331,351,372,392,411,430,450,470,490,511,531,550,572,592,611,630,650,671,691,711,730,751,771,791,811,830,850,871,890,910,931,951,970,990,1012,1032,1051,1071,1091,1111,1130,1151,1170,1190,1211,1231,1251,1272,1290,1312,1331,1351,1371,1390,1410,1432,1451,1472],"xSR":741.5,"ySR":573.95,"xT1":424.9,"yT1":0,"xT2":1058.1,"yT2":0,"toosoon":0,"cond_shown":"randomdotsizeEA","ratio_trial":500,"smaller_num":"5","larger_num":"10","correct_side":2,"subjID":"SilvanaDiaz4","gender":"1","age":"9","school":"4"},{"start_time":1552328824741,"click_time":1552328826062,"finger_time":1552328825761,"fix_duration":698.1505322782758,"trial":2,"RT":1020,"MT":301,"sideResp":1,"stimulus":"img/900/equaldotsize/L/2_Ratio_900_L_20_R_18.png","xmouse":[784,784,784,784,784,784,784,784,784,784,784,784,784,784,784,784,784,784,784,784,784,784,784,784,784,784,784,784,784,784,784,784,784,784,784,784,784,784,784,784,784,784,784,784,784,784,784,784,783,773,749,729,705,674,589,544,495,450,418,394,394,394,396,401,415,424,435],"ymouse":[632,632,632,632,632,632,632,632,632,632,632,632,632,632,632,632,632,632,632,632,632,632,632,632,632,632,632,632,632,632,632,632,632,632,632,632,632,632,632,632,632,632,632,632,632,632,632,632,632,626,612,597,578,547,424,349,276,213,169,130,125,123,121,118,107,100,93],"timestamp_mouse":[9,33,42,61,81,100,121,140,160,182,202,222,241,261,281,301,322,342,361,380,401,421,440,461,480,500,520,542,561,581,601,621,641,661,680,700,720,741,761,781,800,820,842,861,881,902,920,941,962,982,1000,1020,1040,1062,1082,1101,1121,1141,1161,1182,1200,1221,1242,1262,1282,1300,1320],"xSR":741.5,"ySR":573.95,"xT1":424.9,"yT1":0,"xT2":1058.1,"yT2":0,"toosoon":0,"cond_shown":"equaldotsize","ratio_trial":900,"smaller_num":"18","larger_num":"20","correct_side":1,"subjID":"SilvanaDiaz4","gender":"1","age":"9","school":"4"},{"start_time":1552328827293,"click_time":1552328828582,"finger_time":1552328828341,"fix_duration":250,"trial":3,"RT":1048,"MT":241,"sideResp":2,"stimulus":"img/750/equaldotsize/L/1_Ratio_750_L_20_R_15.png","xmouse":[787,787,787,787,787,787,787,787,787,787,787,787,787,787,787,787,787,787,787,787,787,787,787,787,787,787,787,787,787,787,787,787,787,787,787,787,787,787,787,787,787,787,787,787,787,787,787,790,794,797,800,806,844,868,896,917,932,948,956,964,984,994,1057,1075,1086],"ymouse":[636,636,636,636,636,636,636,636,636,636,636,636,636,636,636,636,636,636,636,636,636,636,636,636,636,636,636,636,636,636,636,636,636,636,636,636,636,636,636,636,636,636,636,636,636,636,636,637,638,638,638,634,593,560,510,454,400,308,276,252,212,195,117,100,90],"timestamp_mouse":[19,28,49,69,88,109,128,149,168,188,209,229,248,270,289,308,329,349,368,388,409,429,449,469,488,509,529,548,568,589,609,629,649,668,688,708,728,749,769,790,809,828,848,869,889,908,929,949,969,989,1009,1028,1048,1070,1090,1108,1129,1149,1170,1190,1209,1230,1248,1270,1289],"xSR":741.5,"ySR":573.95,"xT1":424.9,"yT1":0,"xT2":1058.1,"yT2":0,"toosoon":0,"cond_shown":"equaldotsize","ratio_trial":750,"smaller_num":"15","larger_num":"20","correct_side":1,"subjID":"SilvanaDiaz4","gender":"1","age":"9","school":"4"},{"start_time":1552328831857,"click_time":1552328832982,"finger_time":1552328832663,"fix_duration":514.9908727501739,"trial":4,"RT":806,"MT":319,"sideResp":2,"stimulus":"img/900/equaldotsize/R/5_Ratio_900_L_9_R_10.png","xmouse":[788,788,788,788,788,788,788,788,788,788,788,788,788,788,788,788,788,788,788,788,788,788,788,788,788,788,788,788,788,788,788,788,788,788,788,788,789,794,800,808,835,857,877,898,940,961,974,983,988,989,989,989,989,990,1013,1036,1059],"ymouse":[643,643,643,643,643,643,643,643,643,643,643,643,643,643,643,643,643,643,643,643,643,643,643,643,643,643,643,643,643,643,643,643,643,643,643,643,637,623,602,574,481,382,315,241,132,91,67,49,41,39,39,39,39,38,36,36,36],"timestamp_mouse":[12,31,46,66,85,104,125,145,165,185,205,226,245,265,286,305,324,345,366,385,404,424,445,465,485,504,525,545,564,584,605,624,645,665,685,706,725,745,765,784,806,826,845,866,885,904,925,945,965,985,1005,1025,1045,1066,1085,1104,1125],"xSR":741.5,"ySR":573.95,"xT1":424.9,"yT1":0,"xT2":1058.1,"yT2":0,"toosoon":0,"cond_shown":"equaldotsize","ratio_trial":900,"smaller_num":"9","larger_num":"10","correct_side":2,"subjID":"SilvanaDiaz4","gender":"1","age":"9","school":"4"},{"start_time":1552328840068,"click_time":1552328841261,"finger_time":1552328840883,"fix_duration":505.75272020081286,"trial":5,"RT":815,"MT":378,"sideResp":1,"stimulus":"img/500/equaldotsize/L/10_Ratio_500_L_4_R_2.png","xmouse":[815,815,815,815,815,815,815,815,815,815,815,815,815,815,815,815,815,815,815,815,815,815,815,815,815,815,815,815,815,815,815,815,815,815,815,815,815,815,800,770,754,740,722,697,643,621,593,580,566,560,559,559,559,554,549,549,545,537,526,507],"ymouse":[624,624,624,624,624,624,624,624,624,624,624,624,624,624,624,624,624,624,624,624,624,624,624,624,624,624,624,624,624,624,624,624,624,624,624,624,624,622,610,585,570,551,530,500,427,389,353,337,305,276,253,232,206,173,122,102,77,62,48,39],"timestamp_mouse":[19,38,54,74,94,115,134,154,173,194,213,233,254,273,294,313,334,354,374,394,414,434,454,474,493,514,534,554,573,594,615,633,653,673,694,713,733,754,774,794,815,834,853,873,894,914,935,954,974,993,1014,1035,1053,1073,1093,1113,1134,1155,1175,1193],"xSR":741.5,"ySR":573.95,"xT1":424.9,"yT1":0,"xT2":1058.1,"yT2":0,"toosoon":0,"cond_shown":"equaldotsize","ratio_trial":500,"smaller_num":"2","larger_num":"4","correct_side":1,"subjID":"SilvanaDiaz4","gender":"1","age":"9","school":"4"},{"start_time":1552328843038,"click_time":1552328844902,"finger_time":1552328844321,"fix_duration":755.7515769635198,"trial":6,"RT":1283,"MT":581,"sideResp":2,"stimulus":"img/500/randomdotsizeEA/R/14_Ratio_500_L_5_R_10.png","xmouse":[790,790,790,790,790,790,790,790,790,790,790,790,790,790,790,790,790,790,790,790,790,790,790,790,790,790,790,790,790,790,790,790,790,790,790,790,790,790,790,790,790,790,790,790,791,793,794,795,795,795,795,795,795,795,795,795,795,795,795,795,795,795,779,765,757,753,749,745,745,745,745,745,754,758,763,765,769,770,770,772,777,787,809,828,858,861,919,980,1005,1029,1047,1063,1097,1114],"ymouse":[637,637,637,637,637,637,637,637,637,637,637,637,637,637,637,637,637,637,637,637,637,637,637,637,637,637,637,637,637,637,637,637,637,637,637,637,637,637,637,637,637,637,637,636,635,630,629,622,622,622,622,622,622,622,622,622,622,622,622,622,619,616,590,574,560,552,543,534,533,533,533,533,532,530,527,524,519,518,518,518,518,518,512,499,476,472,416,340,300,258,221,191,119,81],"timestamp_mouse":[11,37,45,64,84,104,125,143,163,184,204,223,243,264,283,303,324,344,364,383,403,423,444,464,483,503,525,543,564,585,604,625,643,663,684,704,723,744,764,783,804,824,844,864,884,904,924,944,964,983,1004,1024,1044,1063,1084,1104,1124,1143,1165,1184,1205,1223,1244,1264,1283,1303,1323,1343,1364,1384,1403,1423,1444,1464,1485,1504,1525,1543,1565,1583,1604,1623,1645,1663,1683,1704,1725,1743,1765,1783,1804,1824,1845,1864],"xSR":741.5,"ySR":573.95,"xT1":424.9,"yT1":0,"xT2":1058.1,"yT2":0,"toosoon":0,"cond_shown":"randomdotsizeEA","ratio_trial":500,"smaller_num":"5","larger_num":"10","correct_side":2,"subjID":"SilvanaDiaz4","gender":"1","age":"9","school":"4"},{"start_time":1552328848698,"click_time":1552328856302,"finger_time":1552328855861,"fix_duration":1475.8788256179118,"trial":7,"RT":7163,"MT":441,"sideResp":1,"stimulus":"img/750/randomdotsizeEA/R/5_Ratio_750_L_15_R_20.png","xmouse":[785,785,785,785,785,785,785,785,785,785,785,785,785,785,785,785,785,785,785,785,785,785,785,785,785,785,785,785,785,785,785,785,785,785,785,785,785,785,785,785,785,785,785,785,785,785,787,787,788,790,792,793,793,793,793,793,793,793,793,793,793,793,793,793,793,793,793,793,793,793,793,793,793,793,793,793,793,793,793,793,793,793,793,793,793,793,793,793,793,793,793,793,793,793,793,793,793,793,793,793,793,793,793,793,793,793,793,793,793,793,793,793,793,793,793,793,793,793,793,785,772,770,769,769,769,769,769,769,769,769,769,769,769,769,769,769,769,769,769,769,769,769,769,769,769,769,769,769,769,769,769,769,769,769,769,769,769,769,769,768,768,768,768,768,768,768,768,768,768,768,768,768,768,768,768,768,768,768,768,768,768,768,768,768,768,768,768,768,768,768,769,769,769,769,769,769,769,769,769,769,769,769,769,769,769,769,769,769,769,769,769,769,769,769,769,769,769,769,769,769,769,769,769,769,769,769,769,769,769,769,769,769,769,769,769,769,769,769,769,769,769,769,769,769,769,769,769,769,769,769,769,769,769,769,769,770,770,770,770,770,770,770,770,770,769,769,769,769,769,769,769,769,769,769,769,769,769,769,769,769,769,769,769,769,769,769,769,769,769,769,769,769,769,769,769,769,769,769,769,769,769,769,769,769,769,769,769,769,769,769,769,769,769,769,769,769,769,769,769,769,769,769,769,769,769,769,769,769,769,769,769,769,769,769,769,769,769,769,769,769,769,769,769,769,769,769,769,769,769,769,769,769,769,769,769,769,763,758,741,714,695,687,679,668,653,623,599,569,546,538,538,538,535,535,533,526,526,526,526,526,524],"ymouse":[619,619,619,619,619,619,619,619,619,619,619,619,619,619,619,619,619,619,619,619,619,619,619,619,619,619,619,619,619,619,619,619,619,619,619,619,619,619,619,619,619,619,619,619,619,620,621,623,624,626,628,629,629,629,629,629,629,629,629,629,629,629,629,629,629,629,629,629,629,629,629,629,629,629,629,629,629,629,629,629,629,629,629,629,629,629,629,629,629,629,629,629,629,629,629,629,629,629,629,629,629,629,629,629,629,629,629,629,629,629,629,629,629,629,629,629,629,629,629,630,631,632,632,632,632,632,632,632,632,632,632,632,632,632,632,632,632,632,632,632,632,632,632,632,632,632,632,632,632,632,632,632,632,632,632,632,632,632,632,633,633,634,634,635,635,635,635,635,635,635,635,635,635,635,635,635,635,635,635,635,635,635,635,635,635,635,635,636,638,640,642,643,644,645,645,645,645,645,645,645,645,645,645,645,645,645,645,645,645,645,645,645,645,645,645,645,645,645,645,645,645,645,645,645,645,645,645,645,645,645,645,645,645,645,645,645,645,645,645,645,645,645,645,645,645,645,645,645,645,645,645,645,645,645,646,648,648,649,649,649,650,651,652,652,653,653,653,653,653,653,653,653,653,653,653,653,653,653,653,653,653,653,653,653,653,653,653,653,653,653,653,653,653,653,653,653,653,653,653,653,653,653,653,653,653,653,653,653,653,653,653,653,653,653,653,653,653,653,653,653,653,653,653,653,653,653,653,653,653,653,653,653,653,653,653,653,653,653,653,653,653,653,653,653,653,653,653,653,653,653,653,653,653,653,653,653,630,610,548,453,370,347,325,304,282,224,184,137,102,79,66,62,59,56,52,41,41,41,41,41,40],"timestamp_mouse":[12,31,44,63,83,103,124,144,163,184,205,223,244,264,284,303,324,343,365,385,404,424,444,464,483,504,523,544,563,583,604,623,644,664,684,704,723,744,764,784,803,823,844,864,883,904,924,945,964,983,1004,1023,1043,1064,1083,1104,1124,1143,1164,1183,1203,1224,1244,1264,1284,1303,1323,1345,1364,1384,1403,1424,1444,1463,1483,1503,1525,1543,1563,1583,1604,1625,1643,1664,1683,1704,1724,1744,1763,1784,1803,1823,1844,1863,1884,1904,1923,1943,1964,1984,2003,2023,2043,2064,2084,2104,2124,2144,2164,2184,2203,2223,2244,2264,2284,2303,2323,2343,2363,2384,2403,2425,2443,2464,2483,2504,2523,2543,2564,2584,2603,2623,2643,2664,2684,2704,2724,2744,2763,2783,2804,2824,2844,2864,2884,2904,2923,2943,2964,2984,3005,3023,3043,3064,3083,3104,3123,3143,3163,3184,3204,3224,3243,3263,3285,3304,3324,3343,3364,3385,3404,3424,3444,3464,3484,3504,3524,3543,3564,3585,3604,3624,3644,3663,3684,3704,3723,3743,3764,3785,3804,3824,3843,3863,3883,3904,3924,3944,3964,3983,4003,4023,4044,4064,4083,4103,4123,4144,4164,4183,4204,4223,4243,4263,4283,4304,4324,4343,4365,4383,4404,4424,4443,4463,4484,4504,4524,4544,4564,4584,4603,4623,4644,4664,4683,4704,4724,4744,4764,4785,4804,4824,4843,4863,4883,4905,4924,4943,4963,4984,5004,5024,5043,5063,5083,5104,5124,5144,5164,5184,5203,5225,5244,5264,5283,5304,5324,5344,5364,5384,5404,5423,5444,5464,5485,5504,5523,5543,5564,5584,5604,5623,5644,5664,5683,5703,5724,5744,5763,5784,5804,5824,5844,5863,5884,5905,5924,5943,5963,5984,6004,6024,6043,6063,6084,6104,6124,6143,6163,6184,6204,6224,6243,6264,6284,6305,6324,6343,6364,6383,6404,6423,6444,6464,6485,6504,6523,6544,6564,6585,6604,6623,6644,6664,6684,6704,6723,6743,6764,6784,6804,6823,6843,6864,6884,6904,6923,6944,6965,6983,7003,7024,7044,7065,7084,7103,7124,7145,7163,7184,7203,7225,7244,7264,7284,7304,7324,7343,7363,7384,7404,7425,7444,7465,7484,7504,7525,7544,7563,7583,7603],"xSR":741.5,"ySR":573.95,"xT1":424.9,"yT1":0,"xT2":1058.1,"yT2":0,"toosoon":0,"cond_shown":"randomdotsizeEA","ratio_trial":750,"smaller_num":"15","larger_num":"20","correct_side":2,"subjID":"SilvanaDiaz4","gender":"1","age":"9","school":"4"},{"start_time":1552328861356,"click_time":1552328868002,"finger_time":1552328862581,"fix_duration":1012.8132428133703,"trial":8,"RT":1225,"MT":5421,"sideResp":2,"stimulus":"img/250/equaldotanddens/R/6_Ratio_250_L_6_R_24.png","xmouse":[760,760,760,760,760,760,760,760,760,760,760,760,760,760,760,760,760,760,760,760,760,760,760,760,760,760,760,760,760,760,760,760,760,760,760,760,760,760,760,760,760,760,760,760,760,760,760,760,760,760,760,760,760,760,760,760,760,780,797,812,822,829,834,836,836,836,836,836,836,836,836,835,823,805,795,788,785,785,785,785,785,785,785,785,785,785,785,785,785,785,785,785,785,785,785,785,785,785,785,785,785,785,785,785,785,785,785,785,785,785,785,785,785,785,785,785,785,785,785,785,785,785,785,785,785,789,800,817,824,828,832,833,833,829,824,815,800,770,733,733,746,766,793,810,812,813,814,816,819,819,819,814,809,802,796,787,772,768,768,768,768,768,768,771,774,778,782,785,788,790,791,792,797,802,803,803,804,804,805,805,805,805,805,805,805,805,805,805,805,805,805,805,805,805,805,805,805,805,805,805,805,805,805,801,773,758,750,748,748,748,748,748,748,748,748,748,748,748,748,748,748,748,748,748,748,748,748,748,748,748,748,748,747,773,787,799,806,810,811,810,804,799,789,777,735,702,677,666,665,665,667,688,707,743,760,773,789,805,827,835,838,838,838,838,835,827,819,808,798,796,796,796,796,796,796,796,796,796,796,796,796,796,796,796,796,796,796,796,796,796,796,796,796,796,792,784,779,775,771,773,791,817,852,918,936,948,954,954,915,885,849,840,835,832,817,813,810,802,789,764,760,757,757,759,779,803,830,869,951,1001,1067,1106,1133],"ymouse":[622,622,622,622,622,622,622,622,622,622,622,622,622,622,622,622,622,622,622,622,622,622,622,622,622,622,622,622,622,622,622,622,622,622,622,622,622,622,622,622,622,622,622,622,622,622,622,622,622,622,622,622,622,622,622,622,619,609,599,588,578,570,560,556,555,555,555,555,555,555,555,555,569,591,606,617,622,622,622,622,622,622,622,622,622,622,622,622,622,622,622,622,622,622,622,622,622,622,622,622,622,622,622,622,622,622,622,622,622,622,622,622,622,622,622,622,622,622,622,622,622,622,622,622,622,623,626,629,629,632,635,639,650,658,660,661,660,643,619,618,612,607,598,593,592,592,592,594,608,616,627,640,645,647,647,647,641,640,640,640,640,640,640,638,637,633,631,629,626,624,623,621,619,618,617,617,616,616,616,616,616,616,616,616,616,616,616,616,616,616,616,616,616,616,616,616,616,616,616,616,616,616,616,616,616,616,616,616,616,616,616,616,616,616,616,616,616,616,616,616,616,616,616,616,616,616,616,616,616,616,616,616,617,637,645,652,656,659,660,662,663,663,658,646,623,612,607,606,606,606,606,605,602,597,595,595,595,597,604,605,607,607,607,611,617,626,634,642,650,652,652,652,652,652,652,652,652,652,652,652,652,652,652,652,652,652,652,652,652,652,652,652,652,652,639,611,587,561,537,497,466,439,415,393,393,403,426,466,614,677,729,740,741,741,723,719,716,710,704,687,682,676,666,653,606,564,519,466,351,283,190,137,94],"timestamp_mouse":[14,39,45,65,86,106,126,146,166,185,206,226,246,265,285,306,326,346,365,386,406,425,445,466,486,506,526,546,566,586,606,626,646,666,685,706,725,745,765,786,806,825,847,866,886,905,926,945,966,986,1005,1025,1046,1065,1086,1106,1125,1147,1167,1186,1205,1225,1247,1266,1285,1306,1325,1346,1366,1386,1406,1427,1447,1466,1486,1506,1525,1545,1566,1586,1606,1625,1645,1666,1685,1706,1725,1746,1767,1787,1806,1825,1845,1865,1887,1906,1926,1945,1965,1985,2006,2025,2045,2065,2086,2106,2125,2146,2166,2186,2206,2225,2245,2266,2285,2306,2327,2346,2365,2386,2406,2426,2446,2466,2487,2506,2527,2547,2567,2587,2607,2626,2647,2665,2685,2706,2726,2745,2765,2786,2806,2826,2846,2866,2885,2906,2927,2946,2966,2985,3007,3026,3047,3065,3085,3105,3127,3145,3165,3185,3206,3225,3247,3266,3286,3306,3327,3345,3365,3386,3407,3425,3447,3466,3486,3505,3525,3546,3566,3585,3606,3626,3645,3666,3686,3706,3726,3746,3767,3786,3806,3825,3846,3866,3886,3906,3926,3945,3966,3986,4006,4026,4045,4066,4087,4106,4126,4146,4165,4186,4206,4226,4245,4266,4286,4306,4326,4346,4366,4386,4406,4426,4446,4465,4485,4506,4526,4547,4567,4586,4606,4625,4646,4666,4687,4705,4726,4746,4765,4785,4806,4826,4847,4865,4887,4905,4925,4946,4967,4986,5006,5026,5047,5066,5086,5106,5127,5146,5166,5186,5206,5226,5246,5266,5287,5305,5327,5346,5366,5387,5406,5426,5445,5465,5486,5506,5526,5545,5565,5585,5607,5625,5645,5665,5686,5706,5725,5746,5766,5787,5806,5825,5847,5867,5887,5906,5927,5946,5965,5986,6006,6025,6045,6066,6086,6106,6127,6146,6167,6186,6207,6225,6247,6266,6287,6306,6327,6346,6367,6387,6406,6426,6446,6466,6487,6506,6527,6545,6566,6585,6605,6626,6646],"xSR":741.5,"ySR":573.95,"xT1":424.9,"yT1":0,"xT2":1058.1,"yT2":0,"toosoon":0,"cond_shown":"equaldotanddens","ratio_trial":250,"smaller_num":"6","larger_num":"24","correct_side":2,"subjID":"SilvanaDiaz4","gender":"1","age":"9","school":"4"},{"start_time":1552328874473,"click_time":1552328875822,"finger_time":1552328875341,"fix_duration":250,"trial":9,"RT":868,"MT":481,"sideResp":2,"stimulus":"img/900/equaldotsize/R/9_Ratio_900_L_18_R_20.png","xmouse":[782,782,782,782,782,782,782,782,782,782,782,782,782,783,783,783,783,783,783,783,783,783,783,783,783,783,783,783,783,783,783,783,783,783,783,783,783,784,785,786,789,799,810,825,861,878,893,906,914,930,938,944,944,944,944,948,955,962,976,981,983,990,998,1016,1030,1048,1065,1082],"ymouse":[626,626,626,626,625,625,625,625,625,625,625,625,625,626,626,626,626,626,626,626,626,626,626,626,626,626,626,626,626,626,626,626,626,626,626,626,626,626,626,625,620,608,591,570,525,505,485,469,460,443,432,425,424,424,423,416,401,383,346,318,305,264,238,187,165,131,102,71],"timestamp_mouse":[10,38,48,68,89,109,129,148,170,189,209,228,250,269,289,309,329,349,369,388,410,430,448,468,488,508,530,548,569,589,609,629,649,669,689,709,729,749,770,788,809,829,850,868,889,908,929,949,969,990,1010,1030,1049,1069,1088,1109,1129,1148,1168,1188,1209,1229,1250,1269,1288,1309,1328,1349],"xSR":741.5,"ySR":573.95,"xT1":424.9,"yT1":0,"xT2":1058.1,"yT2":0,"toosoon":0,"cond_shown":"equaldotsize","ratio_trial":900,"smaller_num":"18","larger_num":"20","correct_side":2,"subjID":"SilvanaDiaz4","gender":"1","age":"9","school":"4"},{"start_time":1552328877181,"click_time":1552328878222,"finger_time":1552328877862,"fix_duration":297.56868045756136,"trial":10,"RT":681,"MT":360,"sideResp":1,"stimulus":"img/250/equaldotanddens/L/1_Ratio_250_L_8_R_2.png","xmouse":[811,811,811,811,811,811,811,811,811,811,811,811,811,811,811,811,811,811,811,811,811,811,811,811,811,811,811,811,811,811,811,811,810,803,785,768,739,708,670,613,595,577,566,556,540,536,533,532,532,532,532,527,523],"ymouse":[631,631,630,629,627,627,627,627,627,627,627,627,627,627,627,627,627,627,627,627,627,627,627,627,627,627,627,627,627,627,627,627,623,609,570,543,494,442,376,266,237,208,186,167,128,120,115,114,114,114,111,104,97],"timestamp_mouse":[10,20,42,61,81,101,120,141,160,182,201,221,241,261,281,301,321,341,361,381,400,421,441,460,481,501,521,540,561,581,601,622,641,662,681,701,721,741,761,782,801,822,840,861,880,902,921,942,961,982,1001,1021,1041],"xSR":741.5,"ySR":573.95,"xT1":424.9,"yT1":0,"xT2":1058.1,"yT2":0,"toosoon":0,"cond_shown":"equaldotanddens","ratio_trial":250,"smaller_num":"2","larger_num":"8","correct_side":1,"subjID":"SilvanaDiaz4","gender":"1","age":"9","school":"4"},{"start_time":1552328879595,"click_time":1552328881002,"finger_time":1552328880362,"fix_duration":351.65119643752263,"trial":11,"RT":767,"MT":640,"sideResp":2,"stimulus":"img/750/randomdotsizeEA/L/6_Ratio_750_L_24_R_18.png","xmouse":[804,804,804,804,804,804,804,804,804,804,804,804,804,804,804,804,804,804,804,804,804,804,804,804,804,804,804,804,804,804,804,804,804,804,804,805,807,812,826,836,849,860,885,926,941,949,954,957,959,962,963,966,988,990,1012,1014,1015,1019,1042,1060,1074,1085,1093,1093,1093,1093,1093,1093,1095,1096,1099],"ymouse":[618,618,618,618,618,618,618,618,618,618,618,618,618,618,618,618,618,618,618,618,618,618,618,618,618,618,618,618,618,618,618,618,618,618,618,619,617,601,551,516,474,428,356,260,220,199,182,177,175,174,174,172,159,158,151,151,151,151,148,141,132,120,105,103,103,103,103,103,102,100,96],"timestamp_mouse":[10,38,47,66,86,107,127,147,167,187,206,226,247,266,286,306,326,348,366,386,406,427,447,467,487,506,526,547,566,587,606,627,647,668,686,706,728,747,767,786,807,826,848,867,888,908,928,947,967,988,1007,1028,1046,1066,1087,1107,1128,1147,1167,1187,1208,1228,1247,1268,1288,1307,1326,1346,1367,1386,1407],"xSR":741.5,"ySR":573.95,"xT1":424.9,"yT1":0,"xT2":1058.1,"yT2":0,"toosoon":0,"cond_shown":"randomdotsizeEA","ratio_trial":750,"smaller_num":"18","larger_num":"24","correct_side":1,"subjID":"SilvanaDiaz4","gender":"1","age":"9","school":"4"},{"start_time":1552328883039,"click_time":1552328884221,"finger_time":1552328883882,"fix_duration":1156.6213592626998,"trial":12,"RT":843,"MT":339,"sideResp":1,"stimulus":"img/750/equaldotsize/L/8_Ratio_750_L_4_R_3.png","xmouse":[789,796,807,809,809,809,810,812,812,813,813,813,813,814,814,814,814,814,814,814,814,814,814,814,814,814,814,814,814,814,814,814,814,814,814,814,814,814,814,814,814,813,786,743,703,674,629,605,594,584,576,557,552,545,535,524,517,513,512,511],"ymouse":[607,598,583,581,581,581,580,581,585,588,591,600,603,605,605,605,605,605,605,605,605,605,605,605,605,605,605,605,605,605,605,605,605,605,605,605,605,605,605,605,605,602,564,511,469,432,368,333,313,293,274,231,213,192,172,147,131,114,103,95],"timestamp_mouse":[3,23,53,62,84,103,124,142,163,182,203,223,244,262,282,303,323,342,363,383,403,423,442,463,483,503,523,543,563,582,603,622,644,662,682,703,724,743,762,782,802,822,843,863,884,903,923,942,963,983,1004,1023,1043,1064,1084,1103,1123,1142,1163,1182],"xSR":741.5,"ySR":573.95,"xT1":424.9,"yT1":0,"xT2":1058.1,"yT2":0,"toosoon":0,"cond_shown":"equaldotsize","ratio_trial":750,"smaller_num":"3","larger_num":"4","correct_side":1,"subjID":"SilvanaDiaz4","gender":"1","age":"9","school":"4"},{"start_time":1552328893254,"click_time":1552328894521,"finger_time":1552328894002,"fix_duration":1490.6104379095484,"trial":13,"RT":748,"MT":519,"sideResp":2,"stimulus":"img/250/equaldotanddens/R/6_Ratio_250_L_6_R_24.png","xmouse":[812,808,807,807,807,807,807,807,807,807,806,804,804,804,804,804,804,804,804,804,804,804,804,804,804,804,804,804,804,804,804,804,804,804,811,814,820,843,861,884,902,921,943,951,955,957,958,958,959,961,969,990,1000,1012,1014,1015,1026,1037,1049,1053,1057,1058,1058,1059],"ymouse":[622,622,622,622,622,622,622,622,622,622,622,621,621,621,621,621,621,621,621,621,621,621,621,621,621,621,621,621,621,621,621,621,618,618,602,596,581,528,467,399,341,300,261,248,241,237,235,235,234,230,220,185,162,134,121,113,101,95,88,85,82,81,81,80],"timestamp_mouse":[8,30,47,67,87,108,128,148,167,187,207,228,247,267,287,307,328,349,369,389,408,428,447,468,489,508,528,549,568,588,608,628,648,669,688,709,728,748,769,787,807,827,847,868,888,909,928,948,967,988,1009,1028,1048,1069,1088,1109,1128,1147,1168,1189,1208,1229,1248,1267],"xSR":741.5,"ySR":573.95,"xT1":424.9,"yT1":0,"xT2":1058.1,"yT2":0,"toosoon":0,"cond_shown":"equaldotanddens","ratio_trial":250,"smaller_num":"6","larger_num":"24","correct_side":2,"subjID":"SilvanaDiaz4","gender":"1","age":"9","school":"4"},{"start_time":1552328900387,"click_time":1552328901723,"finger_time":1552328901301,"fix_duration":1182.8952140392503,"trial":14,"RT":914,"MT":422,"sideResp":2,"stimulus":"img/750/equaldotanddens/R/11_Ratio_750_L_12_R_16.png","xmouse":[796,796,796,796,796,796,796,797,799,800,800,800,800,800,800,800,800,800,800,800,800,800,800,800,800,800,800,800,800,800,800,800,800,800,800,800,800,800,800,800,800,800,800,800,802,817,844,877,903,931,962,987,1026,1070,1134,1186,1197,1203,1205,1206,1201,1191,1178,1172,1172,1164,1155],"ymouse":[631,631,631,631,631,631,631,631,631,631,631,631,631,631,631,631,631,631,631,631,631,631,631,631,631,631,631,631,631,631,631,631,631,631,631,631,631,631,631,631,631,631,631,631,629,570,525,480,450,405,346,316,281,249,203,159,148,140,132,123,101,86,72,66,66,66,66],"timestamp_mouse":[16,38,55,75,95,115,134,155,176,195,214,235,254,275,295,315,334,355,375,395,415,435,454,474,495,515,534,555,575,595,615,635,656,675,695,714,736,755,775,795,814,835,854,875,896,914,936,956,976,995,1023,1035,1055,1075,1094,1115,1135,1155,1176,1196,1215,1235,1254,1275,1294,1314,1336],"xSR":741.5,"ySR":573.95,"xT1":424.9,"yT1":0,"xT2":1058.1,"yT2":0,"toosoon":0,"cond_shown":"equaldotanddens","ratio_trial":750,"smaller_num":"12","larger_num":"16","correct_side":2,"subjID":"SilvanaDiaz4","gender":"1","age":"9","school":"4"},{"start_time":1552328903812,"click_time":1552328904882,"finger_time":1552328904701,"fix_duration":1069.487498260756,"trial":15,"RT":889,"MT":181,"sideResp":1,"stimulus":"img/750/equaldotanddens/L/14_Ratio_750_L_8_R_6.png","xmouse":[781,781,781,781,781,781,781,781,781,781,781,781,781,781,780,780,780,780,780,780,780,780,780,780,780,780,780,780,780,777,772,770,767,763,758,757,757,757,757,757,757,757,756,744,719,662,635,608,588,568,535,523,507,496],"ymouse":[636,636,636,636,636,636,636,636,636,636,636,636,636,636,637,637,637,637,637,637,637,637,637,637,637,637,637,637,637,634,628,623,615,608,600,596,595,595,595,595,595,595,594,580,551,474,430,383,334,281,189,150,112,91],"timestamp_mouse":[12,35,49,71,90,110,129,151,170,191,210,229,249,270,291,309,330,349,370,389,409,429,449,470,489,511,531,550,569,589,610,630,649,670,690,709,729,750,770,790,809,830,850,871,889,910,929,950,970,989,1009,1030,1049,1070],"xSR":741.5,"ySR":573.95,"xT1":424.9,"yT1":0,"xT2":1058.1,"yT2":0,"toosoon":0,"cond_shown":"equaldotanddens","ratio_trial":750,"smaller_num":"6","larger_num":"8","correct_side":1,"subjID":"SilvanaDiaz4","gender":"1","age":"9","school":"4"},{"start_time":1552328906294,"click_time":1552328907963,"finger_time":1552328907443,"fix_duration":250,"trial":16,"RT":1149,"MT":520,"sideResp":2,"stimulus":"img/500/randomdotsizeEA/R/14_Ratio_500_L_5_R_10.png","xmouse":[771,771,771,771,771,771,771,771,771,771,771,771,771,771,771,771,771,771,771,771,771,771,771,771,771,771,771,771,771,771,771,771,771,771,771,771,771,771,771,772,772,772,772,772,772,772,772,772,772,772,772,772,772,772,772,772,788,804,823,839,859,894,907,925,942,954,984,997,1012,1017,1024,1046,1052,1066,1073,1078,1081,1081,1081,1081,1081,1085,1089,1093],"ymouse":[596,596,596,596,596,596,596,596,596,596,596,596,596,596,596,596,596,596,596,596,596,596,596,596,596,596,596,596,596,596,596,596,596,596,596,596,596,596,596,597,597,597,597,597,597,597,597,597,597,597,597,597,597,597,597,597,584,570,551,532,508,447,426,397,374,357,329,321,313,310,300,248,215,173,150,131,114,113,113,113,113,106,100,95],"timestamp_mouse":[11,39,48,67,87,108,128,147,167,188,208,227,247,269,288,308,327,347,368,388,408,428,447,467,488,509,528,547,568,588,608,628,648,668,688,708,728,747,767,788,807,828,847,867,888,907,927,947,968,987,1007,1028,1048,1068,1087,1109,1129,1149,1168,1188,1209,1229,1248,1267,1287,1308,1328,1348,1368,1387,1407,1428,1448,1469,1489,1509,1528,1547,1568,1588,1608,1628,1648,1669],"xSR":741.5,"ySR":573.95,"xT1":424.9,"yT1":0,"xT2":1058.1,"yT2":0,"toosoon":0,"cond_shown":"randomdotsizeEA","ratio_trial":500,"smaller_num":"5","larger_num":"10","correct_side":2,"subjID":"SilvanaDiaz4","gender":"1","age":"9","school":"4"},{"start_time":1552328910308,"click_time":1552328911122,"finger_time":1552328910902,"fix_duration":1266.6614809766395,"trial":17,"RT":594,"MT":220,"sideResp":1,"stimulus":"img/500/equaldotanddens/L/11_Ratio_500_L_12_R_6.png","xmouse":[790,790,790,790,790,790,790,790,790,790,790,790,790,790,790,790,790,790,790,790,790,790,790,790,790,786,779,765,742,715,677,655,645,627,602,582,573,565,556,548,522],"ymouse":[643,642,641,641,641,641,641,641,641,641,641,641,641,641,641,641,641,641,641,641,641,641,641,641,641,636,626,610,587,557,499,450,414,354,260,162,129,102,83,68,32],"timestamp_mouse":[18,36,55,74,94,114,134,154,173,195,214,235,255,275,293,314,334,354,373,394,414,435,455,473,495,513,533,553,575,594,614,634,653,673,695,713,734,754,775,795,814],"xSR":741.5,"ySR":573.95,"xT1":424.9,"yT1":0,"xT2":1058.1,"yT2":0,"toosoon":0,"cond_shown":"equaldotanddens","ratio_trial":500,"smaller_num":"6","larger_num":"12","correct_side":1,"subjID":"SilvanaDiaz4","gender":"1","age":"9","school":"4"},{"start_time":1552328912949,"click_time":1552328913983,"finger_time":1552328913722,"fix_duration":705.4879626416821,"trial":18,"RT":773,"MT":261,"sideResp":2,"stimulus":"img/500/randomdotsizeEA/R/6_Ratio_500_L_9_R_18.png","xmouse":[801,801,801,801,801,801,801,801,801,801,801,801,801,801,801,801,801,801,801,801,801,801,801,801,801,801,801,801,801,801,801,801,801,801,801,806,813,824,843,908,943,973,1009,1039,1071,1079,1084,1090,1092,1101,1106,1109],"ymouse":[623,623,623,623,623,623,623,623,623,623,623,623,623,623,623,623,623,623,623,623,623,623,623,623,623,623,623,623,623,623,623,623,623,623,623,620,612,597,570,472,420,370,329,290,238,218,200,176,161,129,112,97],"timestamp_mouse":[13,38,53,73,93,113,133,152,174,193,212,234,253,272,292,312,333,353,372,393,413,433,452,472,493,513,533,553,574,593,613,633,653,673,694,713,732,754,773,792,813,833,854,873,892,912,933,953,974,992,1013,1034],"xSR":741.5,"ySR":573.95,"xT1":424.9,"yT1":0,"xT2":1058.1,"yT2":0,"toosoon":0,"cond_shown":"randomdotsizeEA","ratio_trial":500,"smaller_num":"9","larger_num":"18","correct_side":2,"subjID":"SilvanaDiaz4","gender":"1","age":"9","school":"4"},{"start_time":1552328916520,"click_time":1552328918142,"finger_time":1552328917762,"fix_duration":1477.2204209619463,"trial":19,"RT":1242,"MT":380,"sideResp":2,"stimulus":"img/750/randomdotsizeEA/R/12_Ratio_750_L_3_R_4.png","xmouse":[798,798,798,798,797,795,795,795,795,795,795,795,795,795,795,795,795,795,795,795,795,795,795,795,795,795,795,795,795,795,795,795,795,795,795,795,795,795,795,795,795,795,795,795,795,795,795,795,795,794,794,794,794,794,794,794,794,794,794,794,794,812,834,854,890,923,955,961,968,974,977,979,983,989,999,1008,1014,1016,1024,1033,1044,1063],"ymouse":[607,607,607,607,607,606,606,606,606,606,606,606,606,606,606,606,606,606,606,606,606,606,606,606,606,606,606,606,606,606,606,606,606,606,606,606,606,606,606,606,606,606,606,606,606,606,606,606,606,606,606,606,606,606,606,606,606,606,606,605,604,577,553,531,490,446,386,362,338,302,272,213,181,150,123,104,82,79,78,78,76,73],"timestamp_mouse":[18,34,41,61,82,102,121,141,163,182,201,221,242,262,283,302,322,341,362,381,401,423,441,461,481,502,523,541,562,582,602,621,641,661,682,702,721,742,762,782,801,822,842,862,881,902,921,941,961,981,1002,1021,1042,1063,1082,1101,1122,1142,1163,1181,1202,1222,1242,1262,1283,1302,1322,1341,1361,1383,1403,1422,1443,1462,1482,1502,1522,1541,1561,1582,1602,1622],"xSR":741.5,"ySR":573.95,"xT1":424.9,"yT1":0,"xT2":1058.1,"yT2":0,"toosoon":0,"cond_shown":"randomdotsizeEA","ratio_trial":750,"smaller_num":"3","larger_num":"4","correct_side":2,"subjID":"SilvanaDiaz4","gender":"1","age":"9","school":"4"},{"start_time":1552328920321,"click_time":1552328921782,"finger_time":1552328921163,"fix_duration":1357.827792721727,"trial":20,"RT":842,"MT":619,"sideResp":2,"stimulus":"img/900/randomdotsizeEA/R/11_Ratio_900_L_18_R_20.png","xmouse":[782,783,783,783,783,783,783,783,783,783,783,783,783,783,783,783,783,783,783,783,783,783,783,783,783,783,783,783,783,783,783,783,783,783,783,783,783,783,783,783,790,794,830,848,869,889,912,953,968,971,979,1007,1020,1031,1038,1042,1044,1040,1034,1034,1034,1034,1034,1034,1035,1037,1042,1047,1048,1048,1049,1058,1068,1081],"ymouse":[599,599,599,599,599,600,600,600,600,600,600,600,600,600,600,600,600,600,600,600,600,600,600,600,600,600,600,600,600,600,600,600,600,600,600,600,600,600,600,600,593,590,566,555,539,520,493,441,419,416,399,360,340,323,306,290,275,219,195,188,180,174,163,155,150,146,139,135,135,135,133,123,109,93],"timestamp_mouse":[1,21,40,61,81,101,120,140,161,180,202,221,241,261,281,301,322,340,361,381,400,420,440,461,482,501,520,540,561,581,601,621,640,660,681,701,722,740,760,780,800,821,842,861,881,902,921,941,961,981,1001,1022,1041,1061,1082,1102,1121,1140,1161,1182,1200,1221,1240,1261,1282,1301,1322,1340,1362,1382,1401,1422,1440,1460],"xSR":741.5,"ySR":573.95,"xT1":424.9,"yT1":0,"xT2":1058.1,"yT2":0,"toosoon":0,"cond_shown":"randomdotsizeEA","ratio_trial":900,"smaller_num":"18","larger_num":"20","correct_side":2,"subjID":"SilvanaDiaz4","gender":"1","age":"9","school":"4"},{"start_time":1552328923733,"click_time":1552328924982,"finger_time":1552328924462,"fix_duration":730.7739977936764,"trial":21,"RT":729,"MT":520,"sideResp":1,"stimulus":"img/500/equaldotsize/L/5_Ratio_500_L_4_R_2.png","xmouse":[787,787,787,787,787,787,787,787,787,787,787,787,787,787,787,787,787,787,787,787,787,787,787,787,787,787,787,787,787,787,787,787,787,787,787,782,766,757,743,722,693,670,642,628,616,606,571,554,537,522,510,503,503,503,502,501,492,486,480,475,471,465,462],"ymouse":[620,620,620,620,620,620,620,620,620,620,620,620,620,620,620,620,620,620,620,620,620,620,620,620,620,620,620,620,620,620,620,620,620,620,617,604,567,541,515,474,423,388,347,320,302,287,259,246,232,217,203,193,193,193,191,189,168,156,144,132,122,104,98],"timestamp_mouse":[17,38,48,70,89,109,128,148,168,189,209,229,248,269,288,309,328,349,370,388,409,429,448,469,488,509,529,550,568,588,610,629,648,668,688,709,729,748,769,789,808,828,850,870,889,910,930,950,969,989,1009,1028,1048,1070,1090,1109,1129,1149,1169,1188,1208,1228,1249],"xSR":741.5,"ySR":573.95,"xT1":424.9,"yT1":0,"xT2":1058.1,"yT2":0,"toosoon":0,"cond_shown":"equaldotsize","ratio_trial":500,"smaller_num":"2","larger_num":"4","correct_side":1,"subjID":"SilvanaDiaz4","gender":"1","age":"9","school":"4"},{"start_time":1552328927874,"click_time":1552328929482,"finger_time":1552328928561,"fix_duration":1469.226547795209,"trial":22,"RT":687,"MT":921,"sideResp":2,"stimulus":"img/500/randomdotsizeEA/R/9_Ratio_500_L_2_R_4.png","xmouse":[789,789,789,789,789,789,789,789,789,789,789,789,789,789,789,789,789,789,789,789,789,789,789,789,789,789,789,789,789,789,789,797,805,821,878,901,922,928,931,936,943,958,974,991,1009,1014,1014,1014,1016,1017,1017,1031,1042,1048,1050,1050,1050,1052,1057,1070,1072,1072,1072,1072,1072,1074,1082,1084,1086,1087,1087,1087,1087,1087,1088,1088,1088,1088,1089,1089,1092],"ymouse":[612,612,612,612,612,612,612,612,612,612,612,612,612,612,612,612,612,612,612,612,612,612,612,612,612,612,612,612,612,612,612,604,595,576,517,490,464,451,443,429,416,392,363,327,283,266,265,265,264,262,262,240,215,194,171,167,162,155,148,130,128,128,128,128,128,127,126,122,115,105,105,105,105,105,105,105,105,105,104,102,92],"timestamp_mouse":[11,33,47,67,88,108,128,148,169,188,207,227,247,268,288,308,327,347,367,388,409,428,447,467,487,509,528,547,568,587,608,628,647,667,687,707,728,748,768,788,807,829,847,867,887,907,928,948,969,989,1007,1027,1049,1069,1088,1108,1129,1147,1167,1188,1207,1228,1248,1268,1288,1307,1329,1349,1369,1388,1407,1427,1447,1468,1489,1508,1528,1549,1569,1587,1607],"xSR":741.5,"ySR":573.95,"xT1":424.9,"yT1":0,"xT2":1058.1,"yT2":0,"toosoon":0,"cond_shown":"randomdotsizeEA","ratio_trial":500,"smaller_num":"2","larger_num":"4","correct_side":2,"subjID":"SilvanaDiaz4","gender":"1","age":"9","school":"4"},{"start_time":1552328931690,"click_time":1552328932962,"finger_time":1552328932561,"fix_duration":1285.0655373214458,"trial":23,"RT":871,"MT":401,"sideResp":1,"stimulus":"img/250/randomdotsizeEA/L/5_Ratio_250_L_24_R_6.png","xmouse":[794,794,794,794,794,794,794,794,794,794,794,794,794,794,794,794,794,794,794,794,794,794,794,794,794,794,794,794,794,794,794,794,794,794,794,794,794,794,794,794,788,781,761,740,705,674,645,618,604,589,587,585,585,584,576,565,556,547,539,523,510,497,489,484],"ymouse":[637,637,637,637,637,637,637,637,637,637,637,637,637,637,637,637,637,637,637,637,637,637,637,637,637,637,637,637,637,637,637,637,637,637,637,637,637,637,637,637,629,620,596,575,538,501,469,434,404,362,345,329,317,307,283,265,247,227,208,172,148,124,104,87],"timestamp_mouse":[18,37,52,71,91,112,131,151,171,191,213,231,252,271,292,313,332,352,371,391,412,432,451,471,492,511,531,551,571,592,611,631,652,672,692,711,731,752,773,792,812,831,851,871,891,913,932,952,971,992,1011,1031,1051,1072,1091,1112,1131,1152,1172,1192,1212,1232,1252,1272],"xSR":741.5,"ySR":573.95,"xT1":424.9,"yT1":0,"xT2":1058.1,"yT2":0,"toosoon":0,"cond_shown":"randomdotsizeEA","ratio_trial":250,"smaller_num":"6","larger_num":"24","correct_side":1,"subjID":"SilvanaDiaz4","gender":"1","age":"9","school":"4"},{"start_time":1552328935590,"click_time":1552328937282,"finger_time":1552328936581,"fix_duration":1466.1141977531752,"trial":24,"RT":991,"MT":701,"sideResp":1,"stimulus":"img/500/equaldotsize/L/5_Ratio_500_L_4_R_2.png","xmouse":[793,793,794,794,794,794,794,794,794,794,794,794,794,794,794,794,794,794,794,794,794,794,794,794,794,794,794,794,794,794,794,794,794,794,794,795,795,795,795,795,795,795,795,795,795,795,795,795,794,758,731,705,704,704,688,681,677,670,664,651,642,632,614,601,568,552,533,495,482,466,464,463,463,463,467,468,469,470,471,474,474,475,475,475,473],"ymouse":[633,633,633,633,633,633,633,633,633,633,633,633,633,633,633,633,633,632,632,632,632,632,632,632,632,632,632,632,632,632,632,632,632,632,632,631,631,631,631,631,631,631,631,631,631,631,630,622,615,544,504,466,465,465,443,431,423,412,404,382,365,342,310,292,248,228,204,161,147,124,119,116,116,116,115,115,115,115,115,115,115,115,113,106,92],"timestamp_mouse":[30,31,51,71,91,112,132,152,171,191,212,232,252,271,291,312,333,351,371,392,412,431,452,472,492,512,532,551,572,591,611,631,652,671,691,712,731,752,773,791,812,832,852,872,893,912,931,953,973,991,1012,1031,1053,1072,1092,1112,1132,1151,1171,1191,1211,1231,1251,1271,1291,1312,1331,1351,1371,1391,1412,1431,1452,1472,1492,1512,1532,1552,1572,1592,1613,1631,1652,1671,1692],"xSR":741.5,"ySR":573.95,"xT1":424.9,"yT1":0,"xT2":1058.1,"yT2":0,"toosoon":0,"cond_shown":"equaldotsize","ratio_trial":500,"smaller_num":"2","larger_num":"4","correct_side":1,"subjID":"SilvanaDiaz4","gender":"1","age":"9","school":"4"},{"start_time":1552328943379,"click_time":1552328944602,"finger_time":1552328944122,"fix_duration":1455.7712152148204,"trial":25,"RT":743,"MT":480,"sideResp":2,"stimulus":"img/750/randomdotsizeEA/L/14_Ratio_750_L_8_R_6.png","xmouse":[786,786,786,786,786,786,786,786,786,786,786,786,786,786,786,786,786,786,786,786,786,786,786,786,786,786,786,786,786,786,786,786,786,786,786,785,787,816,844,874,899,930,948,961,977,989,1016,1027,1041,1055,1068,1077,1083,1084,1084,1085,1087,1089,1089,1089,1089,1083],"ymouse":[615,615,615,615,615,615,615,615,615,615,615,615,615,615,615,615,615,615,615,615,615,615,615,615,615,615,615,615,615,615,615,615,615,615,615,615,605,533,468,398,344,289,262,245,228,217,194,182,167,152,139,129,127,127,127,126,124,121,119,115,108,83],"timestamp_mouse":[11,33,43,62,83,103,122,143,163,184,203,222,243,263,283,302,323,343,363,383,403,422,442,462,484,503,523,543,562,582,603,622,642,662,683,702,722,743,762,782,802,823,842,863,884,904,922,943,964,983,1002,1022,1043,1063,1083,1104,1122,1142,1163,1183,1204,1223],"xSR":741.5,"ySR":573.95,"xT1":424.9,"yT1":0,"xT2":1058.1,"yT2":0,"toosoon":0,"cond_shown":"randomdotsizeEA","ratio_trial":750,"smaller_num":"6","larger_num":"8","correct_side":1,"subjID":"SilvanaDiaz4","gender":"1","age":"9","school":"4"},{"start_time":1552328946513,"click_time":1552328947781,"finger_time":1552328947323,"fix_duration":1069.0081082495008,"trial":26,"RT":810,"MT":458,"sideResp":2,"stimulus":"img/750/equaldotsize/R/15_Ratio_750_L_9_R_12.png","xmouse":[786,786,786,786,786,786,786,786,786,786,786,786,786,786,786,786,786,786,786,786,786,786,786,786,786,786,786,786,786,786,786,786,786,786,786,786,786,789,796,813,898,949,993,1016,1038,1045,1048,1050,1051,1053,1054,1055,1058,1059,1060,1061,1061,1056,1053,1053,1055,1057,1057,1059],"ymouse":[623,622,622,622,622,622,622,622,622,622,622,622,622,622,622,622,622,622,622,622,622,622,622,622,622,622,622,622,622,622,622,622,622,622,622,622,622,620,612,593,477,398,321,262,205,187,181,177,175,173,167,161,153,147,141,119,101,82,69,57,50,50,50,50],"timestamp_mouse":[11,38,48,69,89,109,128,149,168,188,209,229,249,269,288,309,330,349,370,390,409,429,448,468,489,509,529,549,568,588,609,629,649,669,688,709,730,748,768,789,810,829,848,868,890,909,929,949,968,988,1009,1028,1049,1068,1088,1108,1128,1148,1169,1188,1209,1229,1249,1268],"xSR":741.5,"ySR":573.95,"xT1":424.9,"yT1":0,"xT2":1058.1,"yT2":0,"toosoon":0,"cond_shown":"equaldotsize","ratio_trial":750,"smaller_num":"9","larger_num":"12","correct_side":2,"subjID":"SilvanaDiaz4","gender":"1","age":"9","school":"4"},{"start_time":1552328951310,"click_time":1552328952402,"finger_time":1552328951942,"fix_duration":1146.1492818683466,"trial":27,"RT":632,"MT":460,"sideResp":2,"stimulus":"img/500/equaldotanddens/R/14_Ratio_500_L_5_R_10.png","xmouse":[783,783,783,783,783,783,783,783,783,783,783,783,783,783,783,783,783,783,783,783,783,783,783,783,783,783,783,783,783,784,788,795,807,836,855,886,902,917,937,952,967,980,983,989,994,999,1013,1023,1032,1043,1063,1070,1073,1074,1078],"ymouse":[609,609,609,609,609,609,609,609,609,609,609,609,609,609,609,609,609,609,609,609,609,609,609,609,609,609,609,609,609,606,591,566,534,470,427,358,331,305,275,255,238,225,221,212,203,190,166,156,149,139,119,110,104,101,96],"timestamp_mouse":[11,39,51,71,91,112,131,151,171,192,212,231,251,273,292,311,332,352,371,391,412,432,452,471,493,511,532,552,572,592,612,632,651,671,692,712,731,752,772,792,812,832,852,871,891,911,931,953,972,991,1012,1033,1052,1072,1092],"xSR":741.5,"ySR":573.95,"xT1":424.9,"yT1":0,"xT2":1058.1,"yT2":0,"toosoon":0,"cond_shown":"equaldotanddens","ratio_trial":500,"smaller_num":"5","larger_num":"10","correct_side":2,"subjID":"SilvanaDiaz4","gender":"1","age":"9","school":"4"},{"start_time":1552328953908,"click_time":1552328954943,"finger_time":1552328954622,"fix_duration":385.49095549211853,"trial":28,"RT":714,"MT":321,"sideResp":2,"stimulus":"img/750/equaldotsize/R/12_Ratio_750_L_3_R_4.png","xmouse":[803,803,803,803,803,803,803,803,803,803,802,802,802,802,802,802,802,802,802,802,802,802,802,802,802,802,802,802,802,802,802,802,802,802,804,823,838,851,865,882,911,921,947,965,980,1006,1020,1032,1043,1050,1055,1065],"ymouse":[614,614,614,614,614,614,614,614,614,614,614,614,614,614,614,614,614,614,614,614,614,614,614,614,614,614,614,614,614,614,614,614,612,608,598,557,520,488,434,377,276,252,194,162,140,104,86,74,63,57,55,54],"timestamp_mouse":[13,44,54,73,93,114,134,154,174,194,215,234,254,274,294,314,333,354,373,393,414,434,454,473,494,514,535,554,573,594,614,635,653,673,694,714,733,753,774,795,814,834,854,875,895,914,933,953,975,995,1014,1035],"xSR":741.5,"ySR":573.95,"xT1":424.9,"yT1":0,"xT2":1058.1,"yT2":0,"toosoon":0,"cond_shown":"equaldotsize","ratio_trial":750,"smaller_num":"3","larger_num":"4","correct_side":2,"subjID":"SilvanaDiaz4","gender":"1","age":"9","school":"4"},{"start_time":1552328956876,"click_time":1552328958062,"finger_time":1552328957462,"fix_duration":1053.7074554100345,"trial":29,"RT":586,"MT":600,"sideResp":2,"stimulus":"img/250/equaldotanddens/R/12_Ratio_250_L_5_R_20.png","xmouse":[786,786,786,786,786,786,786,786,786,786,786,786,786,786,786,786,786,786,786,786,786,786,786,786,786,787,788,792,807,817,825,829,835,850,855,862,868,875,896,909,913,934,975,1003,1021,1035,1047,1055,1063,1064,1064,1064,1064,1064,1064,1064,1064,1064,1064,1067],"ymouse":[624,624,624,624,624,624,624,624,624,624,624,624,624,624,624,624,624,624,624,624,624,624,624,624,624,622,620,614,588,571,556,545,529,493,481,470,458,445,409,386,376,348,290,251,226,202,180,161,134,128,127,127,127,125,121,118,116,114,104,94],"timestamp_mouse":[9,35,47,65,85,106,125,145,165,186,206,226,245,266,287,306,325,345,367,385,405,425,445,467,487,506,526,546,566,586,607,625,645,665,686,706,725,745,767,786,806,825,847,866,886,905,926,945,966,985,1006,1026,1046,1067,1085,1106,1126,1145,1166,1186],"xSR":741.5,"ySR":573.95,"xT1":424.9,"yT1":0,"xT2":1058.1,"yT2":0,"toosoon":0,"cond_shown":"equaldotanddens","ratio_trial":250,"smaller_num":"5","larger_num":"20","correct_side":2,"subjID":"SilvanaDiaz4","gender":"1","age":"9","school":"4"},{"start_time":1552328960276,"click_time":1552328961642,"finger_time":1552328961101,"fix_duration":1032.659815253047,"trial":30,"RT":825,"MT":541,"sideResp":1,"stimulus":"img/900/equaldotanddens/L/8_Ratio_900_L_20_R_18.png","xmouse":[763,763,763,763,763,763,763,763,763,763,763,763,763,763,763,763,763,763,763,763,763,763,763,763,763,763,763,763,763,763,763,763,763,763,763,763,763,763,763,763,763,745,718,664,641,629,621,612,594,585,565,526,510,506,506,506,504,499,497,497,497,497,498,498,498,498,498,498,491],"ymouse":[606,606,606,606,606,606,606,606,606,606,606,606,606,606,606,606,606,606,606,606,606,606,606,606,606,606,606,606,606,606,606,606,606,606,606,606,606,606,606,603,598,559,518,445,414,395,375,353,296,267,231,175,155,149,149,146,140,127,120,120,120,120,120,119,119,118,117,113,96],"timestamp_mouse":[25,41,45,65,86,106,126,146,166,185,205,226,246,266,286,306,326,347,366,385,407,425,445,466,485,505,526,546,565,586,606,627,645,665,686,705,725,746,766,785,805,825,845,865,886,906,926,947,965,985,1005,1025,1047,1066,1086,1106,1126,1146,1166,1187,1205,1225,1246,1266,1286,1306,1325,1346,1366],"xSR":741.5,"ySR":573.95,"xT1":424.9,"yT1":0,"xT2":1058.1,"yT2":0,"toosoon":0,"cond_shown":"equaldotanddens","ratio_trial":900,"smaller_num":"18","larger_num":"20","correct_side":1,"subjID":"SilvanaDiaz4","gender":"1","age":"9","school":"4"},{"start_time":1552328963897,"click_time":1552328964861,"finger_time":1552328964582,"fix_duration":1333.8587658734614,"trial":31,"RT":685,"MT":279,"sideResp":2,"stimulus":"img/750/equaldotsize/R/11_Ratio_750_L_12_R_16.png","xmouse":[796,796,796,796,796,796,795,795,795,795,795,795,795,795,795,795,795,795,795,795,795,795,795,795,795,795,795,795,795,795,795,795,805,820,837,853,866,884,890,898,907,917,947,964,982,997,1011,1042,1062],"ymouse":[621,621,621,621,621,621,621,621,621,621,621,621,621,621,621,621,621,621,621,621,621,621,621,621,621,621,621,621,621,621,621,620,598,574,542,505,458,399,377,347,324,300,249,225,201,177,157,119,96],"timestamp_mouse":[12,25,45,65,84,105,125,145,165,185,205,225,244,264,285,305,325,346,365,386,404,424,444,464,486,505,524,544,565,585,604,625,644,665,685,706,724,744,764,786,804,825,845,864,886,904,924,945,964],"xSR":741.5,"ySR":573.95,"xT1":424.9,"yT1":0,"xT2":1058.1,"yT2":0,"toosoon":0,"cond_shown":"equaldotsize","ratio_trial":750,"smaller_num":"12","larger_num":"16","correct_side":2,"subjID":"SilvanaDiaz4","gender":"1","age":"9","school":"4"},{"start_time":1552328967193,"click_time":1552328968622,"finger_time":1552328967822,"fix_duration":1369.4482553706537,"trial":32,"RT":629,"MT":800,"sideResp":1,"stimulus":"img/250/equaldotanddens/L/3_Ratio_250_L_8_R_2.png","xmouse":[793,793,793,793,793,793,793,793,793,793,793,793,793,793,793,793,793,793,793,793,793,793,793,793,793,793,793,793,793,781,759,733,710,671,658,645,630,605,542,500,471,460,458,458,459,459,461,461,461,461,461,462,462,465,466,466,466,466,470,472,473,473,473,473,473,473,474,476,476,477,478,481],"ymouse":[632,632,632,632,632,632,632,632,632,632,632,632,632,632,632,632,632,632,632,632,632,632,632,632,632,632,632,632,632,618,589,553,513,429,412,396,377,348,274,216,183,165,158,155,154,152,148,146,146,146,146,146,146,146,144,144,144,143,132,126,125,125,125,125,125,124,119,111,111,109,105,98],"timestamp_mouse":[19,30,50,69,88,108,129,148,168,189,209,228,248,268,289,310,328,350,369,389,409,429,448,468,489,509,529,550,569,588,609,629,650,668,688,709,730,750,769,789,808,828,849,868,889,908,929,949,970,988,1009,1030,1050,1069,1089,1109,1128,1149,1168,1189,1209,1229,1249,1269,1288,1308,1328,1350,1368,1389,1410,1429],"xSR":741.5,"ySR":573.95,"xT1":424.9,"yT1":0,"xT2":1058.1,"yT2":0,"toosoon":0,"cond_shown":"equaldotanddens","ratio_trial":250,"smaller_num":"2","larger_num":"8","correct_side":1,"subjID":"SilvanaDiaz4","gender":"1","age":"9","school":"4"},{"start_time":1552328971525,"click_time":1552328972464,"finger_time":1552328972102,"fix_duration":1342.759418684846,"trial":33,"RT":577,"MT":362,"sideResp":2,"stimulus":"img/250/equaldotsize/R/6_Ratio_250_L_6_R_24.png","xmouse":[772,773,774,774,774,774,774,774,774,774,774,774,774,774,774,774,774,774,776,777,777,777,778,778,779,781,791,802,815,841,882,1038,1099,1146,1174,1194,1209,1215,1218,1223,1225,1226,1214,1203,1196,1187,1158],"ymouse":[598,600,602,602,602,602,602,602,602,602,602,602,602,602,602,602,602,602,603,603,603,603,602,602,602,602,592,582,568,545,507,375,324,263,193,102,39,20,10,0,0,0,0,0,0,0,18],"timestamp_mouse":[17,37,56,77,97,118,137,156,176,196,217,237,257,278,298,317,337,356,376,396,416,437,456,476,496,516,536,557,577,597,617,637,657,676,698,718,737,758,777,796,817,837,857,877,897,917,938],"xSR":741.5,"ySR":573.95,"xT1":424.9,"yT1":0,"xT2":1058.1,"yT2":0,"toosoon":0,"cond_shown":"equaldotsize","ratio_trial":250,"smaller_num":"6","larger_num":"24","correct_side":2,"subjID":"SilvanaDiaz4","gender":"1","age":"9","school":"4"},{"start_time":1552328973841,"click_time":1552328975062,"finger_time":1552328974662,"fix_duration":356.24012749296753,"trial":34,"RT":821,"MT":400,"sideResp":1,"stimulus":"img/900/randomdotsizeEA/R/6_Ratio_900_L_9_R_10.png","xmouse":[817,817,817,817,817,817,817,817,816,814,814,814,814,814,814,814,814,814,814,814,814,814,814,814,814,814,814,814,814,814,814,814,814,814,814,814,812,793,782,770,758,741,673,652,625,586,552,504,500,498,497,497,497,497,497,497,497,497,497,497,496,494],"ymouse":[635,635,635,635,635,635,635,634,632,630,630,630,630,630,630,630,630,630,630,630,630,630,630,630,630,630,630,630,630,630,630,630,630,630,630,629,627,620,615,608,599,587,535,514,484,432,385,290,267,246,232,221,208,204,199,190,184,151,136,124,108,95],"timestamp_mouse":[13,20,40,60,80,101,121,140,160,181,201,220,240,260,282,300,321,340,361,381,400,422,440,461,482,502,521,540,560,580,600,621,640,661,681,701,720,740,761,780,801,821,841,861,880,902,922,940,961,980,1001,1021,1041,1061,1081,1101,1122,1141,1161,1181,1201,1221],"xSR":741.5,"ySR":573.95,"xT1":424.9,"yT1":0,"xT2":1058.1,"yT2":0,"toosoon":0,"cond_shown":"randomdotsizeEA","ratio_trial":900,"smaller_num":"9","larger_num":"10","correct_side":2,"subjID":"SilvanaDiaz4","gender":"1","age":"9","school":"4"},{"start_time":1552328976992,"click_time":1552328978061,"finger_time":1552328977622,"fix_duration":1049.2248090215621,"trial":35,"RT":630,"MT":439,"sideResp":2,"stimulus":"img/250/randomdotsizeEA/R/4_Ratio_250_L_3_R_12.png","xmouse":[791,791,791,791,791,791,791,791,791,791,791,791,791,791,791,791,793,793,793,793,793,793,793,793,793,793,793,793,793,800,812,833,871,922,1048,1100,1137,1142,1143,1143,1143,1143,1143,1143,1134,1126,1126,1125,1125,1125,1124,1120,1115,1109],"ymouse":[616,616,616,616,616,616,616,616,616,616,616,616,616,616,615,613,610,606,606,606,606,606,606,606,606,606,606,606,606,598,584,563,530,486,398,359,332,327,326,325,318,299,275,246,174,138,132,125,125,125,122,117,108,98],"timestamp_mouse":[11,34,49,69,89,109,129,150,170,189,210,229,250,269,290,311,330,351,369,389,409,430,450,469,489,510,530,549,570,589,610,630,651,669,690,710,731,750,770,789,809,830,849,869,889,910,930,949,970,991,1010,1029,1050,1069],"xSR":741.5,"ySR":573.95,"xT1":424.9,"yT1":0,"xT2":1058.1,"yT2":0,"toosoon":0,"cond_shown":"randomdotsizeEA","ratio_trial":250,"smaller_num":"3","larger_num":"12","correct_side":2,"subjID":"SilvanaDiaz4","gender":"1","age":"9","school":"4"},{"start_time":1552328979353,"click_time":1552328980421,"finger_time":1552328980002,"fix_duration":250,"trial":36,"RT":649,"MT":419,"sideResp":1,"stimulus":"img/750/randomdotsizeEA/L/13_Ratio_750_L_8_R_6.png","xmouse":[786,786,786,786,786,786,786,786,786,786,786,786,786,786,786,786,786,786,786,786,786,786,786,786,786,786,786,786,786,786,784,781,759,752,744,733,705,678,662,658,650,630,616,605,592,582,580,580,580,577,573,551,529,507],"ymouse":[624,624,624,624,624,624,624,624,624,624,624,624,624,624,624,624,624,624,624,624,624,624,624,624,624,624,624,624,624,624,618,609,526,501,472,435,354,298,273,267,254,217,196,176,152,136,131,131,131,131,130,116,104,90],"timestamp_mouse":[17,39,48,68,88,108,128,150,169,189,208,229,250,269,288,308,329,349,369,389,409,429,448,468,489,509,528,548,568,589,608,628,649,668,689,708,729,748,770,788,810,829,849,868,888,908,930,950,969,989,1010,1029,1048,1068],"xSR":741.5,"ySR":573.95,"xT1":424.9,"yT1":0,"xT2":1058.1,"yT2":0,"toosoon":0,"cond_shown":"randomdotsizeEA","ratio_trial":750,"smaller_num":"6","larger_num":"8","correct_side":1,"subjID":"SilvanaDiaz4","gender":"1","age":"9","school":"4"},{"start_time":1552328982093,"click_time":1552328983043,"finger_time":1552328982701,"fix_duration":710.4311164629613,"trial":37,"RT":608,"MT":342,"sideResp":1,"stimulus":"img/250/equaldotanddens/L/5_Ratio_250_L_24_R_6.png","xmouse":[767,767,767,767,767,767,767,767,767,767,767,767,767,767,767,767,767,767,767,767,767,767,767,767,767,767,767,768,768,752,721,680,626,583,553,470,447,424,407,397,393,395,400,405,409,414,421,431],"ymouse":[605,605,605,605,605,605,605,605,605,605,605,605,605,605,605,605,605,605,605,605,605,605,605,605,605,605,605,605,603,574,537,485,423,369,340,230,188,155,127,109,86,80,77,75,74,74,74,76],"timestamp_mouse":[10,28,49,71,89,110,128,148,170,190,208,228,248,268,288,308,329,349,369,389,409,428,449,468,488,508,529,549,569,590,608,629,648,669,689,708,730,750,770,790,809,829,850,870,890,909,929,950],"xSR":741.5,"ySR":573.95,"xT1":424.9,"yT1":0,"xT2":1058.1,"yT2":0,"toosoon":0,"cond_shown":"equaldotanddens","ratio_trial":250,"smaller_num":"6","larger_num":"24","correct_side":1,"subjID":"SilvanaDiaz4","gender":"1","age":"9","school":"4"},{"start_time":1552328984656,"click_time":1552328985882,"finger_time":1552328985363,"fix_duration":412.45601422153896,"trial":38,"RT":707,"MT":519,"sideResp":2,"stimulus":"img/900/equaldotanddens/R/14_Ratio_900_L_18_R_20.png","xmouse":[765,765,765,765,765,765,765,765,765,765,765,765,765,765,765,765,765,765,765,765,765,765,765,765,765,765,765,765,765,765,765,765,765,766,773,784,798,836,853,865,879,899,925,933,943,954,966,980,985,991,996,1013,1046,1059,1070,1074,1075,1075,1075,1077,1082,1085],"ymouse":[596,596,596,596,596,596,596,596,596,596,596,596,596,596,596,596,596,596,596,596,596,596,596,596,596,596,596,596,596,596,596,596,596,595,583,566,543,482,451,428,405,372,329,303,274,253,237,219,210,201,196,181,157,148,139,135,134,134,132,126,110,99],"timestamp_mouse":[12,26,47,65,85,105,125,147,166,186,205,227,246,265,285,305,326,345,365,385,406,426,445,465,485,505,526,545,566,585,605,626,645,666,685,707,726,746,766,786,806,825,846,865,885,907,925,946,966,987,1006,1025,1046,1066,1086,1107,1126,1145,1166,1186,1206,1226],"xSR":741.5,"ySR":573.95,"xT1":424.9,"yT1":0,"xT2":1058.1,"yT2":0,"toosoon":0,"cond_shown":"equaldotanddens","ratio_trial":900,"smaller_num":"18","larger_num":"20","correct_side":2,"subjID":"SilvanaDiaz4","gender":"1","age":"9","school":"4"},{"start_time":1552328987877,"click_time":1552328988943,"finger_time":1552328988562,"fix_duration":1033.00676803947,"trial":39,"RT":685,"MT":381,"sideResp":2,"stimulus":"img/900/equaldotanddens/R/15_Ratio_900_L_9_R_10.png","xmouse":[792,792,792,792,792,792,792,792,792,792,792,793,793,793,793,793,793,793,793,793,793,793,793,793,793,793,793,793,793,793,794,800,808,819,841,869,936,957,968,970,970,970,974,980,992,1005,1020,1047,1049,1050,1050,1051,1058,1065],"ymouse":[635,635,635,635,635,635,635,635,635,635,635,633,633,633,632,632,632,632,632,632,632,632,632,632,632,632,632,632,632,632,632,620,608,587,551,501,362,292,209,185,173,162,149,137,120,104,88,59,57,55,55,55,55,57],"timestamp_mouse":[11,35,45,65,84,105,124,145,164,184,205,225,244,265,285,305,324,345,364,384,405,425,445,465,485,504,524,544,565,584,605,624,645,664,685,705,724,746,765,785,804,825,845,864,885,904,924,946,966,985,1005,1024,1044,1066],"xSR":741.5,"ySR":573.95,"xT1":424.9,"yT1":0,"xT2":1058.1,"yT2":0,"toosoon":0,"cond_shown":"equaldotanddens","ratio_trial":900,"smaller_num":"9","larger_num":"10","correct_side":2,"subjID":"SilvanaDiaz4","gender":"1","age":"9","school":"4"},{"start_time":1552328990568,"click_time":1552328991763,"finger_time":1552328991402,"fix_duration":426.69756639165814,"trial":40,"RT":834,"MT":361,"sideResp":2,"stimulus":"img/500/randomdotsizeEA/R/15_Ratio_500_L_1_R_2.png","xmouse":[786,786,786,786,784,783,783,783,783,783,783,783,783,783,783,783,783,782,782,782,782,782,782,782,782,782,782,782,782,782,782,782,782,782,782,782,782,782,784,794,812,873,901,931,951,986,999,1012,1020,1030,1041,1074,1085,1090,1093,1095,1098,1101,1105],"ymouse":[624,624,624,623,623,623,623,623,623,623,623,623,623,623,623,623,623,624,624,624,624,624,624,624,624,624,624,624,624,624,624,624,624,624,624,624,624,621,613,594,562,438,383,336,311,277,268,261,253,245,233,179,154,135,120,112,108,103,96],"timestamp_mouse":[34,54,74,93,114,133,154,174,194,213,233,254,274,294,315,333,354,375,394,413,434,454,474,493,514,534,554,574,593,613,633,653,674,694,713,733,754,774,794,813,834,853,874,893,913,934,954,974,994,1013,1034,1054,1074,1094,1114,1133,1154,1174,1194],"xSR":741.5,"ySR":573.95,"xT1":424.9,"yT1":0,"xT2":1058.1,"yT2":0,"toosoon":0,"cond_shown":"randomdotsizeEA","ratio_trial":500,"smaller_num":"1","larger_num":"2","correct_side":2,"subjID":"SilvanaDiaz4","gender":"1","age":"9","school":"4"},{"start_time":1552328995473,"click_time":1552328996522,"finger_time":1552328996181,"fix_duration":250,"trial":41,"RT":708,"MT":341,"sideResp":1,"stimulus":"img/900/randomdotsizeEA/L/2_Ratio_900_L_20_R_18.png","xmouse":[783,783,783,783,783,783,783,783,783,783,783,783,783,783,783,783,783,783,783,783,783,783,783,783,783,783,783,783,783,783,783,783,783,782,773,764,754,720,716,695,656,619,566,547,518,503,489,465,454,446,445,444,448],"ymouse":[603,603,603,603,603,603,603,603,603,603,603,603,603,603,603,603,603,603,603,603,603,603,603,603,603,603,603,603,603,603,603,603,603,602,579,554,522,425,409,369,307,262,215,204,189,181,171,143,126,113,105,102,94],"timestamp_mouse":[12,31,49,69,89,108,128,148,169,190,209,228,249,269,289,310,328,349,369,389,408,429,448,470,489,509,528,548,568,589,608,629,650,668,689,708,730,748,769,788,810,830,849,869,889,909,928,949,968,988,1008,1028,1049],"xSR":741.5,"ySR":573.95,"xT1":424.9,"yT1":0,"xT2":1058.1,"yT2":0,"toosoon":0,"cond_shown":"randomdotsizeEA","ratio_trial":900,"smaller_num":"18","larger_num":"20","correct_side":1,"subjID":"SilvanaDiaz4","gender":"1","age":"9","school":"4"},{"start_time":1552328997963,"click_time":1552328999182,"finger_time":1552328998802,"fix_duration":340.1010773363393,"trial":42,"RT":839,"MT":380,"sideResp":1,"stimulus":"img/900/equaldotanddens/L/1_Ratio_900_L_10_R_9.png","xmouse":[770,770,770,770,770,770,770,771,771,771,772,773,773,773,773,773,773,773,773,773,773,773,773,773,773,773,773,773,773,773,773,773,774,774,774,774,774,774,774,774,774,772,743,728,716,706,696,687,633,613,557,538,530,515,511,510,510,510,510,509,504],"ymouse":[605,605,605,605,605,605,605,605,605,605,605,604,604,604,604,604,604,604,604,604,604,604,604,604,604,604,604,604,604,604,603,599,589,589,589,589,589,589,588,586,579,565,523,508,502,496,491,480,375,323,133,11,0,0,0,0,0,0,0,0,3],"timestamp_mouse":[19,38,59,80,98,119,138,159,178,199,218,239,259,278,299,320,340,359,378,399,419,439,459,478,500,519,538,559,579,599,619,639,658,678,699,719,738,759,780,798,818,839,859,878,899,919,940,958,979,999,1018,1039,1058,1078,1098,1118,1139,1159,1179,1199,1219],"xSR":741.5,"ySR":573.95,"xT1":424.9,"yT1":0,"xT2":1058.1,"yT2":0,"toosoon":0,"cond_shown":"equaldotanddens","ratio_trial":900,"smaller_num":"9","larger_num":"10","correct_side":1,"subjID":"SilvanaDiaz4","gender":"1","age":"9","school":"4"},{"start_time":1552329001695,"click_time":1552329005781,"finger_time":1552329003982,"fix_duration":250,"trial":43,"RT":2287,"MT":1799,"sideResp":1,"stimulus":"img/750/randomdotsizeEA/L/10_Ratio_750_L_4_R_3.png","xmouse":[827,827,827,826,824,823,822,821,821,821,821,819,817,817,817,817,817,817,817,817,817,817,817,817,815,814,814,814,813,813,813,813,813,813,813,813,813,813,813,813,813,813,812,811,811,811,810,810,810,809,809,809,809,809,809,809,809,809,809,809,809,809,809,809,809,809,809,809,809,809,809,809,809,809,808,804,803,800,799,799,799,799,799,799,799,795,793,782,774,764,760,761,772,779,787,793,796,797,797,797,797,797,797,797,798,798,798,797,797,797,797,797,779,751,739,737,737,738,738,742,746,746,747,747,747,747,747,747,747,749,751,751,755,756,756,756,758,758,759,759,759,759,759,759,759,761,763,765,766,767,769,772,786,789,796,800,802,803,803,803,803,803,803,801,792,786,782,781,781,781,780,780,780,780,780,780,780,780,778,777,777,777,761,741,718,685,647,556,486,456,431,416,402,387,380,377,376,376,376,376,381,388,407,419,432],"ymouse":[634,634,634,634,634,635,637,639,640,640,640,642,643,643,643,643,643,643,643,643,643,643,643,643,643,644,644,644,644,644,644,644,644,644,644,644,644,644,644,644,644,644,639,631,626,622,617,616,616,616,616,616,616,616,616,616,616,616,616,616,616,616,616,616,616,616,616,616,616,616,616,616,616,616,616,616,616,617,618,618,618,618,618,618,618,618,618,618,619,619,619,617,609,603,598,593,591,591,591,591,591,591,591,591,596,607,621,634,635,635,635,635,621,602,595,593,593,590,590,590,590,590,590,590,590,590,590,590,590,591,591,593,596,598,601,606,614,622,637,638,640,641,641,641,641,639,635,634,632,631,630,626,619,617,613,610,609,608,608,608,608,608,608,607,605,600,596,582,572,569,567,567,567,567,567,567,567,567,569,570,570,570,538,504,473,431,390,316,259,233,202,168,137,98,75,58,47,41,38,36,35,34,34,34,37],"timestamp_mouse":[18,26,46,67,86,107,126,146,166,186,207,226,246,267,287,308,326,346,367,386,406,426,447,466,486,506,526,547,568,586,607,626,647,668,686,706,726,747,766,786,807,828,847,867,886,907,926,946,967,986,1006,1026,1047,1067,1086,1106,1126,1147,1166,1186,1206,1227,1247,1266,1286,1307,1326,1347,1367,1386,1407,1427,1448,1467,1486,1507,1527,1547,1566,1586,1606,1628,1647,1666,1686,1706,1726,1746,1766,1787,1808,1827,1846,1867,1887,1908,1927,1947,1966,1986,2006,2026,2047,2066,2086,2107,2126,2146,2167,2187,2207,2227,2247,2267,2287,2306,2326,2347,2367,2387,2407,2427,2446,2466,2487,2507,2527,2547,2566,2587,2607,2628,2646,2667,2686,2707,2726,2746,2767,2786,2807,2826,2846,2868,2887,2907,2926,2946,2966,2987,3006,3027,3046,3067,3087,3107,3127,3148,3167,3186,3206,3226,3247,3267,3286,3307,3326,3346,3368,3387,3406,3426,3447,3466,3486,3507,3526,3547,3567,3588,3606,3627,3647,3666,3686,3707,3727,3747,3766,3787,3807,3828,3846,3867,3886,3906,3927,3947,3966,3987,4006,4028,4047,4067,4086],"xSR":741.5,"ySR":573.95,"xT1":424.9,"yT1":0,"xT2":1058.1,"yT2":0,"toosoon":0,"cond_shown":"randomdotsizeEA","ratio_trial":750,"smaller_num":"3","larger_num":"4","correct_side":1,"subjID":"SilvanaDiaz4","gender":"1","age":"9","school":"4"},{"start_time":1552329008150,"click_time":1552329009361,"finger_time":1552329008962,"fix_duration":1346.620156963336,"trial":44,"RT":812,"MT":399,"sideResp":2,"stimulus":"img/900/equaldotanddens/L/2_Ratio_900_L_20_R_18.png","xmouse":[782,782,782,782,782,782,782,782,782,782,782,782,782,782,782,782,782,782,782,782,782,782,782,782,782,782,782,782,782,782,782,782,782,782,782,782,782,784,788,797,839,877,916,951,977,1003,1003,1000,999,1003,1025,1039,1051,1064,1075,1080,1080,1081,1089,1097,1112],"ymouse":[610,610,610,610,610,610,610,610,610,610,610,610,610,610,610,610,610,610,610,610,610,610,610,610,610,610,610,610,610,610,610,610,610,610,610,610,610,606,603,593,555,521,486,452,424,349,324,306,295,283,244,220,200,179,158,152,151,150,142,130,94],"timestamp_mouse":[12,40,52,71,92,111,133,152,172,191,211,232,251,271,291,311,331,352,371,391,411,432,452,471,491,511,532,552,572,592,611,631,652,672,691,711,732,752,773,791,812,831,852,872,893,912,933,953,973,992,1011,1032,1052,1072,1091,1112,1132,1152,1172,1192,1211],"xSR":741.5,"ySR":573.95,"xT1":424.9,"yT1":0,"xT2":1058.1,"yT2":0,"toosoon":0,"cond_shown":"equaldotanddens","ratio_trial":900,"smaller_num":"18","larger_num":"20","correct_side":1,"subjID":"SilvanaDiaz4","gender":"1","age":"9","school":"4"},{"start_time":1552329011579,"click_time":1552329012562,"finger_time":1552329012243,"fix_duration":1215.9556828854898,"trial":45,"RT":664,"MT":319,"sideResp":2,"stimulus":"img/750/equaldotanddens/R/4_Ratio_750_L_15_R_20.png","xmouse":[829,822,822,810,810,810,810,810,810,810,810,810,810,810,810,810,810,809,809,809,809,809,809,809,809,809,809,809,809,809,809,817,823,848,895,911,925,937,951,975,985,993,1000,1000,1007,1015,1016,1022,1029,1063],"ymouse":[615,621,621,629,629,629,629,629,629,629,629,629,629,629,629,629,629,629,627,627,627,627,627,627,627,627,627,627,627,627,619,602,590,532,402,343,279,225,188,140,124,111,100,100,92,82,81,80,80,81],"timestamp_mouse":[3,34,42,64,83,102,122,143,163,183,203,222,242,262,283,302,322,343,362,384,402,424,442,462,482,502,522,542,563,583,603,623,642,664,683,702,722,742,764,783,803,822,842,863,882,902,923,943,962,982],"xSR":741.5,"ySR":573.95,"xT1":424.9,"yT1":0,"xT2":1058.1,"yT2":0,"toosoon":0,"cond_shown":"equaldotanddens","ratio_trial":750,"smaller_num":"15","larger_num":"20","correct_side":2,"subjID":"SilvanaDiaz4","gender":"1","age":"9","school":"4"},{"start_time":1552329016395,"click_time":1552329017642,"finger_time":1552329017262,"fix_duration":1092.5526173456385,"trial":46,"RT":867,"MT":380,"sideResp":1,"stimulus":"img/900/equaldotsize/R/3_Ratio_900_L_9_R_10.png","xmouse":[784,784,784,784,784,784,784,784,784,784,784,784,784,784,784,784,784,784,784,784,784,784,784,784,784,784,784,784,784,784,784,784,784,784,784,784,784,784,784,778,769,758,748,736,715,704,690,680,641,627,624,616,609,606,601,594,586,575,554,542,536,531,524],"ymouse":[624,624,624,624,624,624,624,624,624,624,624,624,624,624,624,624,624,624,624,624,624,624,624,624,624,624,624,624,624,624,624,624,624,624,624,624,624,624,624,616,604,593,578,562,524,500,468,447,369,322,315,289,267,250,223,209,196,181,148,126,114,104,94],"timestamp_mouse":[11,41,46,68,86,106,126,147,166,188,206,227,247,266,286,307,327,346,366,387,407,427,446,466,487,507,527,546,567,587,606,626,646,667,686,706,726,747,767,786,807,827,848,867,887,908,927,946,967,986,1007,1028,1047,1066,1087,1106,1126,1147,1167,1187,1206,1226,1247],"xSR":741.5,"ySR":573.95,"xT1":424.9,"yT1":0,"xT2":1058.1,"yT2":0,"toosoon":0,"cond_shown":"equaldotsize","ratio_trial":900,"smaller_num":"9","larger_num":"10","correct_side":2,"subjID":"SilvanaDiaz4","gender":"1","age":"9","school":"4"},{"start_time":1552329019757,"click_time":1552329020941,"finger_time":1552329020542,"fix_duration":1273.6721658215256,"trial":47,"RT":785,"MT":399,"sideResp":1,"stimulus":"img/250/equaldotsize/L/2_Ratio_250_L_16_R_4.png","xmouse":[822,822,822,822,822,820,816,814,814,814,814,814,813,813,813,813,813,813,813,813,813,813,813,813,813,813,813,813,813,813,813,813,813,810,801,780,769,756,741,707,670,657,643,625,605,562,542,527,513,498,489,486,482,478,476,476,477,481,487],"ymouse":[659,660,660,660,660,658,655,652,652,652,652,652,650,650,650,650,650,650,650,650,650,650,650,650,650,650,650,650,650,650,650,650,645,641,630,606,592,576,554,493,408,379,349,316,283,234,220,212,206,199,192,184,170,157,146,129,118,106,87],"timestamp_mouse":[29,44,64,84,106,125,145,165,184,204,224,245,265,284,305,325,344,364,385,405,424,444,464,485,504,524,544,564,584,604,625,645,665,685,704,724,745,766,785,804,824,845,865,886,904,924,945,965,984,1004,1024,1045,1065,1085,1105,1124,1145,1164,1184],"xSR":741.5,"ySR":573.95,"xT1":424.9,"yT1":0,"xT2":1058.1,"yT2":0,"toosoon":0,"cond_shown":"equaldotsize","ratio_trial":250,"smaller_num":"4","larger_num":"16","correct_side":1,"subjID":"SilvanaDiaz4","gender":"1","age":"9","school":"4"},{"start_time":1552329022066,"click_time":1552329023322,"finger_time":1552329022902,"fix_duration":423.49240237493126,"trial":48,"RT":836,"MT":420,"sideResp":2,"stimulus":"img/900/equaldotsize/L/10_Ratio_900_L_20_R_18.png","xmouse":[768,768,768,768,768,768,768,768,768,768,768,768,768,768,768,768,768,768,768,768,768,768,768,768,768,768,768,768,768,768,768,768,768,768,768,768,768,768,768,775,794,813,834,857,886,936,955,965,968,970,970,972,976,987,998,1024,1034,1044,1053,1061,1072,1078,1083],"ymouse":[622,622,622,622,622,622,622,622,622,622,622,622,622,622,622,622,622,622,622,622,622,622,622,622,622,622,622,622,622,622,622,622,622,622,622,622,622,622,622,618,595,572,541,503,451,359,334,323,319,317,317,313,308,294,282,245,225,205,185,165,128,109,89],"timestamp_mouse":[18,39,56,75,95,116,136,155,175,196,217,236,255,276,296,316,336,355,376,396,415,436,456,476,495,516,537,555,575,595,615,635,656,675,696,717,736,755,776,795,816,836,856,875,896,915,936,956,975,996,1016,1036,1056,1076,1096,1115,1136,1156,1176,1196,1215,1235,1256],"xSR":741.5,"ySR":573.95,"xT1":424.9,"yT1":0,"xT2":1058.1,"yT2":0,"toosoon":0,"cond_shown":"equaldotsize","ratio_trial":900,"smaller_num":"18","larger_num":"20","correct_side":1,"subjID":"SilvanaDiaz4","gender":"1","age":"9","school":"4"},{"start_time":1552329025378,"click_time":1552329026922,"finger_time":1552329026341,"fix_duration":1013.9472904270052,"trial":49,"RT":963,"MT":581,"sideResp":1,"stimulus":"img/900/equaldotsize/L/10_Ratio_900_L_20_R_18.png","xmouse":[787,787,787,787,787,787,787,787,788,788,788,789,789,789,789,789,789,789,789,789,789,789,789,789,789,788,785,784,784,784,784,784,784,784,784,782,778,778,778,778,778,778,778,777,776,769,755,752,739,723,708,699,689,675,656,625,622,616,612,606,605,600,597,595,593,587,577,568,563,559,550,542,536,531,529,525,525,523],"ymouse":[631,630,630,630,630,630,630,630,630,629,627,624,624,624,624,624,624,624,624,624,624,624,624,624,624,625,627,627,627,627,627,627,627,627,628,629,635,635,635,635,635,635,635,634,634,627,618,616,605,593,576,563,545,520,486,421,414,396,375,354,339,301,284,262,245,228,195,174,167,156,140,120,105,97,86,74,71,70],"timestamp_mouse":[13,23,44,64,84,103,123,144,164,184,203,224,243,263,284,305,324,343,364,383,403,424,443,464,484,504,523,544,563,583,604,623,644,665,685,704,723,743,764,785,804,824,844,864,883,904,924,944,963,984,1004,1023,1043,1065,1084,1104,1123,1144,1163,1183,1203,1224,1243,1264,1283,1304,1323,1344,1364,1384,1403,1423,1444,1464,1483,1504,1523,1544],"xSR":741.5,"ySR":573.95,"xT1":424.9,"yT1":0,"xT2":1058.1,"yT2":0,"toosoon":0,"cond_shown":"equaldotsize","ratio_trial":900,"smaller_num":"18","larger_num":"20","correct_side":1,"subjID":"SilvanaDiaz4","gender":"1","age":"9","school":"4"},{"start_time":1552329028834,"click_time":1552329029562,"finger_time":1552329029402,"fix_duration":930.8812885392646,"trial":50,"RT":568,"MT":160,"sideResp":2,"stimulus":"img/500/equaldotanddens/R/3_Ratio_500_L_10_R_20.png","xmouse":[827,826,826,825,825,825,825,825,825,825,825,825,825,825,825,825,825,825,825,825,825,823,823,822,821,821,826,838,869,892,916,942,979,998,1012,1040,1068],"ymouse":[635,635,635,635,635,635,635,635,635,635,635,635,635,635,635,635,635,635,635,635,635,635,635,635,634,628,616,594,489,412,349,306,261,242,216,166,97],"timestamp_mouse":[12,36,48,68,87,107,128,148,167,187,207,228,247,267,288,308,328,348,368,388,408,427,448,467,488,508,528,547,568,588,607,627,648,668,689,709,728],"xSR":741.5,"ySR":573.95,"xT1":424.9,"yT1":0,"xT2":1058.1,"yT2":0,"toosoon":0,"cond_shown":"equaldotanddens","ratio_trial":500,"smaller_num":"10","larger_num":"20","correct_side":2,"subjID":"SilvanaDiaz4","gender":"1","age":"9","school":"4"},{"start_time":1552329032167,"click_time":1552329033883,"finger_time":1552329033502,"fix_duration":1443.3452674596706,"trial":51,"RT":1335,"MT":381,"sideResp":1,"stimulus":"img/900/randomdotsizeEA/L/4_Ratio_900_L_20_R_18.png","xmouse":[809,809,809,809,809,809,809,809,809,809,809,809,809,809,809,809,809,809,809,809,809,809,809,809,809,809,809,809,809,809,809,809,809,809,809,809,809,809,809,809,809,809,809,809,809,809,809,809,809,809,809,809,809,809,809,809,809,809,809,809,809,809,809,806,790,765,735,701,683,660,645,619,577,570,566,564,564,565,565,565,562,555,539,534,528,523],"ymouse":[601,601,601,601,601,601,601,601,601,601,601,601,601,601,601,601,601,601,601,601,601,601,601,601,601,601,601,601,601,601,601,601,601,601,601,601,601,601,601,601,601,601,601,601,601,601,601,601,601,601,601,601,601,599,599,599,599,599,599,599,599,599,599,597,588,578,563,537,513,481,459,414,327,301,282,269,267,255,248,236,219,199,148,127,106,88],"timestamp_mouse":[15,35,55,74,94,115,135,154,174,194,215,235,255,274,296,316,335,354,375,396,414,434,456,475,494,515,535,554,575,595,614,634,654,674,695,715,736,754,774,795,815,835,854,874,894,915,935,954,976,994,1014,1034,1055,1074,1094,1114,1135,1156,1176,1194,1214,1234,1254,1275,1294,1316,1335,1355,1374,1394,1416,1436,1455,1474,1494,1514,1535,1555,1574,1595,1615,1635,1654,1675,1695,1715],"xSR":741.5,"ySR":573.95,"xT1":424.9,"yT1":0,"xT2":1058.1,"yT2":0,"toosoon":0,"cond_shown":"randomdotsizeEA","ratio_trial":900,"smaller_num":"18","larger_num":"20","correct_side":1,"subjID":"SilvanaDiaz4","gender":"1","age":"9","school":"4"},{"start_time":1552329035330,"click_time":1552329036521,"finger_time":1552329036021,"fix_duration":467.5126350001756,"trial":52,"RT":691,"MT":500,"sideResp":2,"stimulus":"img/500/equaldotanddens/R/14_Ratio_500_L_5_R_10.png","xmouse":[795,795,795,795,795,795,795,795,795,795,795,795,795,795,795,795,795,795,795,795,795,795,795,795,795,795,795,795,795,795,799,800,801,815,838,852,872,893,924,1025,1056,1066,1068,1069,1070,1070,1070,1070,1070,1070,1067,1060,1056,1047,1041,1041,1042,1048,1052,1061],"ymouse":[629,629,629,629,629,629,629,629,629,629,629,629,629,629,629,629,629,629,629,629,629,629,629,629,629,629,629,629,629,629,624,620,619,579,526,504,456,400,342,237,210,194,181,174,174,174,173,172,169,160,156,152,150,143,125,115,106,95,90,84],"timestamp_mouse":[20,37,52,71,91,112,131,151,171,192,212,231,252,271,291,312,332,352,371,391,412,431,452,472,491,511,531,552,571,592,612,632,651,672,691,712,732,753,773,792,812,832,851,872,891,912,931,953,972,992,1012,1032,1051,1072,1091,1111,1132,1152,1171,1191],"xSR":741.5,"ySR":573.95,"xT1":424.9,"yT1":0,"xT2":1058.1,"yT2":0,"toosoon":0,"cond_shown":"equaldotanddens","ratio_trial":500,"smaller_num":"5","larger_num":"10","correct_side":2,"subjID":"SilvanaDiaz4","gender":"1","age":"9","school":"4"},{"start_time":1552329038928,"click_time":1552329041041,"finger_time":1552329040321,"fix_duration":1405.6826837900512,"trial":53,"RT":1393,"MT":720,"sideResp":2,"stimulus":"img/900/equaldotanddens/R/14_Ratio_900_L_18_R_20.png","xmouse":[804,804,804,804,804,804,804,804,804,804,804,804,804,804,804,804,804,803,803,803,803,803,803,803,803,803,803,803,803,803,803,803,803,803,803,803,803,803,803,803,803,803,803,803,803,803,803,803,803,803,803,803,803,803,803,803,803,803,803,803,804,804,804,804,804,805,807,810,816,824,846,866,866,868,886,913,924,931,939,959,971,987,995,1004,1018,1024,1026,1029,1031,1034,1045,1053,1055,1056,1058,1060,1062,1064,1065,1066,1067,1067,1067,1067,1069,1070],"ymouse":[611,611,611,611,611,611,611,611,611,611,611,611,611,611,611,611,611,611,611,611,611,611,611,611,611,611,611,611,611,611,611,611,611,611,611,611,611,611,611,611,611,611,611,611,611,611,611,609,607,604,603,602,602,602,602,602,602,602,601,600,600,600,600,599,598,595,591,586,576,567,539,517,517,515,495,450,427,405,380,337,316,285,263,235,183,165,162,159,158,157,148,139,133,131,128,123,120,116,113,112,111,111,111,108,102,98],"timestamp_mouse":[13,40,53,73,94,113,134,154,173,194,213,233,253,275,294,313,333,353,374,393,413,434,453,473,494,513,534,553,574,594,614,633,653,673,694,715,735,754,773,793,814,833,853,874,894,914,934,954,974,993,1013,1034,1053,1073,1093,1114,1135,1153,1173,1194,1215,1234,1254,1274,1294,1314,1333,1354,1373,1393,1413,1433,1454,1475,1493,1514,1534,1554,1575,1594,1613,1634,1653,1674,1694,1713,1733,1754,1774,1794,1814,1834,1853,1874,1893,1914,1933,1954,1973,1993,2013,2034,2054,2073,2094,2113],"xSR":741.5,"ySR":573.95,"xT1":424.9,"yT1":0,"xT2":1058.1,"yT2":0,"toosoon":0,"cond_shown":"equaldotanddens","ratio_trial":900,"smaller_num":"18","larger_num":"20","correct_side":2,"subjID":"SilvanaDiaz4","gender":"1","age":"9","school":"4"},{"start_time":1552329042353,"click_time":1552329043442,"finger_time":1552329043003,"fix_duration":250,"trial":54,"RT":650,"MT":439,"sideResp":1,"stimulus":"img/500/equaldotsize/L/13_Ratio_500_L_12_R_6.png","xmouse":[782,782,782,782,782,782,782,781,781,781,781,781,781,781,781,781,781,782,784,786,786,786,786,786,786,786,786,786,786,786,785,770,742,679,653,646,625,600,552,522,521,525,527,527,524,518,512,509,509,509,508,506,503,501,499],"ymouse":[630,630,630,630,630,631,632,635,636,637,637,637,637,637,637,637,638,638,637,635,635,635,635,635,635,635,635,635,635,633,626,605,560,444,401,388,361,339,310,288,279,265,254,243,210,191,178,172,171,169,162,150,132,116,87],"timestamp_mouse":[12,39,48,68,88,109,129,149,170,189,208,228,248,269,288,308,328,350,369,388,409,428,448,468,489,508,529,548,568,588,609,629,650,670,688,709,728,748,768,789,808,828,849,868,889,908,929,948,969,989,1008,1029,1048,1068,1089],"xSR":741.5,"ySR":573.95,"xT1":424.9,"yT1":0,"xT2":1058.1,"yT2":0,"toosoon":0,"cond_shown":"equaldotsize","ratio_trial":500,"smaller_num":"6","larger_num":"12","correct_side":1,"subjID":"SilvanaDiaz4","gender":"1","age":"9","school":"4"},{"start_time":1552329044565,"click_time":1552329045682,"finger_time":1552329045261,"fix_duration":303.4261175850862,"trial":55,"RT":696,"MT":421,"sideResp":2,"stimulus":"img/900/randomdotsizeEA/R/15_Ratio_900_L_9_R_10.png","xmouse":[808,808,808,808,806,803,801,799,798,798,798,798,798,798,798,798,798,798,798,798,798,798,798,798,798,798,798,798,798,798,798,797,799,810,817,827,847,860,902,935,955,984,1003,1024,1027,1033,1035,1040,1046,1048,1050,1053,1055,1065,1073,1077],"ymouse":[619,619,619,619,621,623,625,627,627,627,627,627,627,627,627,627,627,627,627,627,627,627,627,627,627,627,627,627,627,627,627,624,619,582,553,524,486,466,416,386,369,343,324,290,272,247,243,234,218,206,191,172,152,113,100,90],"timestamp_mouse":[16,39,57,77,98,118,137,157,177,196,217,236,256,276,296,317,337,356,376,396,417,437,457,476,496,516,537,556,576,598,617,637,656,677,696,717,737,756,776,796,817,837,856,877,898,917,937,957,976,997,1016,1037,1056,1077,1097,1117],"xSR":741.5,"ySR":573.95,"xT1":424.9,"yT1":0,"xT2":1058.1,"yT2":0,"toosoon":0,"cond_shown":"randomdotsizeEA","ratio_trial":900,"smaller_num":"9","larger_num":"10","correct_side":2,"subjID":"SilvanaDiaz4","gender":"1","age":"9","school":"4"},{"start_time":1552329046693,"click_time":1552329047722,"finger_time":1552329047242,"fix_duration":250,"trial":56,"RT":549,"MT":480,"sideResp":1,"stimulus":"img/250/equaldotsize/L/15_Ratio_250_L_12_R_3.png","xmouse":[791,791,791,791,791,791,791,791,791,791,791,791,791,791,791,791,791,791,791,791,791,791,791,791,791,791,784,724,702,690,678,669,650,641,637,613,576,488,477,475,476,482,485,485,485,485,485,487,488,488,489,490],"ymouse":[638,638,638,638,638,638,638,638,638,638,638,638,638,638,638,638,637,635,634,634,634,633,633,632,630,625,611,543,511,483,445,414,365,343,331,300,262,187,179,177,175,168,157,151,143,132,130,120,115,110,102,96],"timestamp_mouse":[21,30,48,70,88,109,128,149,168,188,208,229,249,269,289,309,329,349,368,388,409,428,448,469,488,509,528,549,569,588,609,630,648,669,689,709,729,749,769,789,808,829,848,869,889,908,928,948,968,989,1008,1029],"xSR":741.5,"ySR":573.95,"xT1":424.9,"yT1":0,"xT2":1058.1,"yT2":0,"toosoon":0,"cond_shown":"equaldotsize","ratio_trial":250,"smaller_num":"3","larger_num":"12","correct_side":1,"subjID":"SilvanaDiaz4","gender":"1","age":"9","school":"4"},{"start_time":1552329049782,"click_time":1552329050861,"finger_time":1552329050402,"fix_duration":1139.8016703440685,"trial":57,"RT":620,"MT":459,"sideResp":1,"stimulus":"img/500/equaldotsize/L/4_Ratio_500_L_18_R_9.png","xmouse":[765,765,765,765,765,765,765,765,765,765,765,765,765,765,765,765,765,765,765,765,765,764,764,764,764,764,764,764,764,762,755,735,708,654,616,591,573,561,552,543,540,537,535,529,523,516,510,504,499,499,498,497,495,488,480],"ymouse":[623,623,623,623,623,623,623,623,623,623,623,623,623,623,623,623,623,623,623,623,623,624,625,626,628,628,628,628,628,628,625,612,593,546,508,479,455,439,425,401,386,367,348,309,273,252,231,210,183,176,168,160,150,122,92],"timestamp_mouse":[1,30,40,60,81,99,120,139,159,181,199,219,239,260,279,299,319,340,360,380,400,420,440,460,479,501,519,539,559,580,600,620,639,659,679,700,721,740,760,779,800,820,840,859,879,900,919,939,959,979,1001,1020,1039,1059,1079],"xSR":741.5,"ySR":573.95,"xT1":424.9,"yT1":0,"xT2":1058.1,"yT2":0,"toosoon":0,"cond_shown":"equaldotsize","ratio_trial":500,"smaller_num":"9","larger_num":"18","correct_side":1,"subjID":"SilvanaDiaz4","gender":"1","age":"9","school":"4"},{"start_time":1552329051995,"click_time":1552329053283,"finger_time":1552329052842,"fix_duration":332.07249347741777,"trial":58,"RT":847,"MT":441,"sideResp":1,"stimulus":"img/750/equaldotanddens/L/1_Ratio_750_L_20_R_15.png","xmouse":[810,810,810,810,810,810,810,810,810,810,810,810,810,810,810,810,810,810,810,810,810,810,810,810,810,810,810,810,810,810,810,810,810,810,810,810,810,810,810,799,779,763,745,721,708,671,632,573,550,533,523,514,509,498,492,486,481,477,471,468,468,467,467,463,462],"ymouse":[613,613,613,613,613,613,613,613,613,613,613,613,613,613,613,613,613,613,613,613,613,613,613,613,613,613,613,613,613,613,613,613,613,613,613,613,613,613,613,606,592,581,564,540,525,479,429,332,297,266,247,230,221,203,192,183,171,162,144,138,133,128,121,101,90],"timestamp_mouse":[20,33,47,66,86,106,126,146,167,188,206,227,246,266,286,307,326,346,367,387,407,427,446,467,487,506,526,546,567,586,606,627,648,667,686,707,727,746,767,787,806,827,847,866,887,907,927,947,966,987,1007,1026,1046,1066,1086,1106,1126,1147,1167,1186,1206,1227,1248,1267,1287],"xSR":741.5,"ySR":573.95,"xT1":424.9,"yT1":0,"xT2":1058.1,"yT2":0,"toosoon":0,"cond_shown":"equaldotanddens","ratio_trial":750,"smaller_num":"15","larger_num":"20","correct_side":1,"subjID":"SilvanaDiaz4","gender":"1","age":"9","school":"4"},{"start_time":1552329055299,"click_time":1552329056521,"finger_time":1552329055961,"fix_duration":1235.5522799461057,"trial":59,"RT":662,"MT":560,"sideResp":2,"stimulus":"img/500/equaldotanddens/R/1_Ratio_500_L_9_R_18.png","xmouse":[782,782,782,782,782,782,782,782,782,782,782,782,782,782,782,782,782,782,782,782,782,782,782,782,782,782,782,782,782,782,784,786,789,806,812,825,834,839,851,861,873,886,897,917,923,931,936,945,959,967,978,987,992,998,1002,1005,1007,1013,1020,1029,1042,1063],"ymouse":[623,623,623,623,623,623,623,623,623,623,623,623,623,623,623,623,623,623,623,623,623,623,623,623,623,623,623,623,623,622,617,604,580,521,499,456,425,406,383,364,343,318,287,223,199,183,177,177,177,177,171,161,151,135,130,125,122,115,106,104,101,91],"timestamp_mouse":[12,23,43,62,83,102,122,143,162,183,202,222,243,262,282,302,323,344,362,383,403,422,443,462,482,503,523,544,563,583,603,624,643,662,682,703,724,743,763,783,802,823,842,863,883,902,923,943,962,983,1003,1022,1042,1062,1082,1103,1122,1143,1162,1183,1202,1222],"xSR":741.5,"ySR":573.95,"xT1":424.9,"yT1":0,"xT2":1058.1,"yT2":0,"toosoon":0,"cond_shown":"equaldotanddens","ratio_trial":500,"smaller_num":"9","larger_num":"18","correct_side":2,"subjID":"SilvanaDiaz4","gender":"1","age":"9","school":"4"},{"start_time":1552329057808,"click_time":1552329058861,"finger_time":1552329058161,"fix_duration":365.094571541146,"trial":60,"RT":353,"MT":700,"sideResp":1,"stimulus":"img/500/equaldotanddens/L/4_Ratio_500_L_18_R_9.png","xmouse":[807,807,807,808,809,809,809,809,809,809,809,809,809,809,809,812,815,831,836,836,8