[{"start_time":1552327733188,"click_time":1552327735490,"finger_time":1552327734731,"fix_duration":1172.7642557046438,"trial":0,"RT":1543,"MT":759,"sideResp":2,"stimulus":"img/900/equaldotanddens/R/3_Ratio_900_L_9_R_10.png","xmouse":[809,809,809,809,809,809,809,809,809,809,809,809,809,809,809,809,809,809,809,809,809,809,809,809,809,809,809,809,809,809,809,809,809,809,809,809,809,809,809,809,809,809,809,809,809,809,809,809,809,809,809,809,809,809,809,809,809,809,809,809,809,809,809,809,809,809,809,809,809,809,809,809,809,809,809,809,817,853,986,1119,1166,1151,1148,1163,1232,1253,1264,1275,1284,1297,1307,1307,1313,1326,1353,1351,1336,1324,1319,1293,1273,1258,1249,1241,1236,1220,1212,1201,1195,1194,1192,1189,1183,1175,1162,1129],"ymouse":[527,527,527,527,527,527,527,527,527,527,527,527,527,527,527,527,527,527,527,527,527,527,527,527,527,527,527,527,527,527,527,527,527,527,527,527,527,527,527,527,527,527,527,527,527,527,527,527,527,527,527,527,527,527,527,527,527,527,527,527,527,527,527,527,527,527,527,527,527,527,527,527,527,527,527,527,531,550,618,678,699,699,699,694,650,637,631,627,621,606,543,512,476,437,322,263,217,192,179,115,83,67,61,57,55,43,35,26,22,21,21,23,26,29,32,42],"timestamp_mouse":[10,30,42,62,82,103,123,143,161,182,203,221,243,261,281,302,322,342,363,381,402,423,443,462,483,502,523,543,562,583,603,622,643,663,682,702,722,741,761,781,803,823,843,863,882,903,923,942,962,982,1002,1023,1043,1063,1081,1103,1123,1143,1162,1182,1203,1222,1242,1262,1282,1303,1323,1342,1363,1383,1403,1423,1443,1463,1482,1501,1523,1543,1562,1582,1603,1622,1642,1663,1684,1701,1722,1741,1763,1784,1802,1823,1841,1862,1883,1901,1922,1942,1963,1983,2002,2022,2043,2062,2081,2102,2122,2143,2162,2183,2202,2222,2242,2262,2282,2302],"xSR":741.5,"ySR":469.95,"xT1":424.9,"yT1":0,"xT2":1058.1,"yT2":0,"toosoon":0,"cond_shown":"equaldotanddens","ratio_trial":900,"smaller_num":"9","larger_num":"10","correct_side":2,"subjID":"simonelsin7","gender":"0","age":"9","school":"4","test":{"fix_dur":[250,1500],"timestim":300,"targets_dim":[100,100],"targets_relative_coord":[0.3,0.7],"size_stim":[880,420],"start_dim":[100,100],"size_start":[300,300],"size_fix":60,"samplingrate":20,"img_types":["equaldotsize","equaldotanddens","randomdotsizeEA"],"ratios":[250,500,750,900],"rep_conds":9,"nTrials":120,"trials_to_rest":500,"Trials_order":[106,103,35,87,96,119,102,36,26,61,110,56,42,34,62,111,11,12,1,66,38,44,54,18,40,41,89,112,108,98,28,23,63,101,75,93,84,117,9,57,17,49,94,64,95,68,100,58,80,107,90,76,71,73,65,53,92,52,78,37,59,31,97,51,82,69,25,114,79,7,105,86,91,33,72,50,104,13,113,10,116,47,55,48,32,39,99,22,29,118,27,60,70,43,30,16,83,109,77,67,0,4,21,15,5,2,88,8,74,6,14,20,115,19,3,45,46,85,81,24],"cond_shown":["equaldotanddens","equaldotanddens","randomdotsizeEA","equaldotsize","equaldotsize","randomdotsizeEA","equaldotsize","equaldotsize","randomdotsizeEA","equaldotanddens","randomdotsizeEA","randomdotsizeEA","equaldotsize","equaldotanddens","randomdotsizeEA","equaldotsize","randomdotsizeEA","equaldotsize","equaldotanddens","equaldotsize","randomdotsizeEA","randomdotsizeEA","equaldotsize","equaldotsize","equaldotanddens","randomdotsizeEA","randomdotsizeEA","equaldotanddens","equaldotsize","randomdotsizeEA","equaldotanddens","randomdotsizeEA","equaldotsize","randomdotsizeEA","equaldotsize","equaldotsize","equaldotsize","equaldotsize","equaldotsize","equaldotsize","randomdotsizeEA","equaldotanddens","equaldotanddens","equaldotanddens","randomdotsizeEA","randomdotsizeEA","equaldotanddens","equaldotanddens","randomdotsizeEA","randomdotsizeEA","equaldotsize","equaldotanddens","randomdotsizeEA","equaldotanddens","randomdotsizeEA","randomdotsizeEA","randomdotsizeEA","equaldotanddens","equaldotsize","equaldotanddens","randomdotsizeEA","equaldotanddens","equaldotanddens","equaldotsize","equaldotanddens","equaldotsize","equaldotanddens","equaldotsize","equaldotanddens","equaldotanddens","equaldotsize","randomdotsizeEA","equaldotanddens","equaldotsize","equaldotsize","randomdotsizeEA","randomdotsizeEA","equaldotanddens","randomdotsizeEA","equaldotanddens","randomdotsizeEA","randomdotsizeEA","equaldotanddens","equaldotsize","randomdotsizeEA","equaldotsize","equaldotsize","equaldotanddens","randomdotsizeEA","equaldotanddens","equaldotsize","equaldotsize","equaldotanddens","equaldotanddens","equaldotsize","equaldotanddens","randomdotsizeEA","equaldotanddens","randomdotsizeEA","equaldotanddens","equaldotsize","equaldotanddens","equaldotsize","equaldotsize","randomdotsizeEA","randomdotsizeEA","equaldotanddens","randomdotsizeEA","randomdotsizeEA","equaldotsize","randomdotsizeEA","randomdotsizeEA","equaldotanddens","equaldotanddens","equaldotsize","equaldotsize","equaldotanddens","equaldotanddens","equaldotsize","equaldotsize"],"ratio_trial":[900,750,900,500,250,900,750,250,250,250,250,750,750,900,250,500,900,250,250,750,250,750,750,750,500,500,500,500,250,250,500,900,500,500,500,900,250,900,900,900,500,250,900,500,900,750,500,900,750,900,750,500,900,250,500,500,750,500,750,250,900,750,250,500,900,900,250,750,750,750,900,250,750,900,250,250,750,250,500,900,750,900,750,250,750,500,500,900,500,900,500,250,900,750,750,500,900,250,500,750,250,500,900,500,500,250,500,750,250,750,250,750,750,750,500,900,900,250,900,250],"smaller_num":["9","15","9","2","6","18","9","2","3","6","5","18","3","18","2","1","9","2","3","3","3","6","9","6","2","6","2","1","3","3","5","9","6","6","2","9","3","9","18","18","1","5","18","5","18","12","5","18","6","18","6","10","9","2","9","9","3","4","18","3","18","15","3","3","18","18","4","6","3","18","18","6","15","9","2","3","15","6","6","18","18","18","3","3","9","9","4","18","6","9","5","2","18","6","3","10","9","6","1","15","5","3","18","9","1","5","2","6","3","12","3","6","18","6","6","18","9","2","18","2"],"larger_num":["10","20","10","4","24","20","12","8","12","24","20","24","4","20","8","2","10","8","12","4","12","8","12","8","4","12","4","2","12","12","10","10","12","12","4","10","12","10","20","20","2","20","20","10","20","16","10","20","8","20","8","20","10","8","18","18","4","8","24","12","20","20","12","6","20","20","16","8","4","24","20","24","20","10","8","12","20","24","12","20","24","20","4","12","12","18","8","20","12","10","10","8","20","8","4","20","10","24","2","20","20","6","20","18","2","20","4","8","12","16","12","8","24","8","12","20","10","8","20","8"],"correct_side":[2,1,2,2,1,2,2,1,2,1,2,1,1,1,1,2,2,1,1,1,1,1,2,2,2,1,1,2,1,2,2,1,1,1,2,2,2,2,2,2,2,2,1,1,1,2,1,2,1,1,1,2,2,1,1,1,1,1,1,1,1,1,2,2,1,1,2,2,1,1,1,1,2,2,1,1,1,2,1,1,1,1,1,1,2,1,1,2,1,2,1,1,1,1,1,2,2,1,2,2,2,2,1,1,2,2,1,1,1,2,1,1,1,1,1,1,2,1,2,1],"img_shown":["img/900/equaldotanddens/R/3_Ratio_900_L_9_R_10.png","img/750/equaldotanddens/L/1_Ratio_750_L_20_R_15.png","img/900/randomdotsizeEA/R/15_Ratio_900_L_9_R_10.png","img/500/equaldotsize/R/9_Ratio_500_L_2_R_4.png","img/250/equaldotsize/L/5_Ratio_250_L_24_R_6.png","img/900/randomdotsizeEA/R/12_Ratio_900_L_18_R_20.png","img/750/equaldotsize/R/15_Ratio_750_L_9_R_12.png","img/250/equaldotsize/L/1_Ratio_250_L_8_R_2.png","img/250/randomdotsizeEA/R/4_Ratio_250_L_3_R_12.png","img/250/equaldotanddens/L/5_Ratio_250_L_24_R_6.png","img/250/randomdotsizeEA/R/12_Ratio_250_L_5_R_20.png","img/750/randomdotsizeEA/L/6_Ratio_750_L_24_R_18.png","img/750/equaldotsize/L/8_Ratio_750_L_4_R_3.png","img/900/equaldotanddens/L/8_Ratio_900_L_20_R_18.png","img/250/randomdotsizeEA/L/1_Ratio_250_L_8_R_2.png","img/500/equaldotsize/R/15_Ratio_500_L_1_R_2.png","img/900/randomdotsizeEA/R/7_Ratio_900_L_9_R_10.png","img/250/equaldotsize/L/1_Ratio_250_L_8_R_2.png","img/250/equaldotanddens/L/15_Ratio_250_L_12_R_3.png","img/750/equaldotsize/L/8_Ratio_750_L_4_R_3.png","img/250/randomdotsizeEA/L/15_Ratio_250_L_12_R_3.png","img/750/randomdotsizeEA/L/13_Ratio_750_L_8_R_6.png","img/750/equaldotsize/R/15_Ratio_750_L_9_R_12.png","img/750/equaldotsize/R/2_Ratio_750_L_6_R_8.png","img/500/equaldotanddens/R/9_Ratio_500_L_2_R_4.png","img/500/randomdotsizeEA/L/13_Ratio_500_L_12_R_6.png","img/500/randomdotsizeEA/L/5_Ratio_500_L_4_R_2.png","img/500/equaldotanddens/R/15_Ratio_500_L_1_R_2.png","img/250/equaldotsize/L/14_Ratio_250_L_12_R_3.png","img/250/randomdotsizeEA/R/9_Ratio_250_L_3_R_12.png","img/500/equaldotanddens/R/14_Ratio_500_L_5_R_10.png","img/900/randomdotsizeEA/L/1_Ratio_900_L_10_R_9.png","img/500/equaldotsize/L/11_Ratio_500_L_12_R_6.png","img/500/randomdotsizeEA/L/11_Ratio_500_L_12_R_6.png","img/500/equaldotsize/R/9_Ratio_500_L_2_R_4.png","img/900/equaldotsize/R/3_Ratio_900_L_9_R_10.png","img/250/equaldotsize/R/11_Ratio_250_L_3_R_12.png","img/900/equaldotsize/R/15_Ratio_900_L_9_R_10.png","img/900/equaldotsize/R/11_Ratio_900_L_18_R_20.png","img/900/equaldotsize/R/13_Ratio_900_L_18_R_20.png","img/500/randomdotsizeEA/R/12_Ratio_500_L_1_R_2.png","img/250/equaldotanddens/R/12_Ratio_250_L_5_R_20.png","img/900/equaldotanddens/L/10_Ratio_900_L_20_R_18.png","img/500/equaldotanddens/L/7_Ratio_500_L_10_R_5.png","img/900/randomdotsizeEA/L/8_Ratio_900_L_20_R_18.png","img/750/randomdotsizeEA/R/11_Ratio_750_L_12_R_16.png","img/500/equaldotanddens/L/7_Ratio_500_L_10_R_5.png","img/900/equaldotanddens/R/9_Ratio_900_L_18_R_20.png","img/750/randomdotsizeEA/L/14_Ratio_750_L_8_R_6.png","img/900/randomdotsizeEA/L/8_Ratio_900_L_20_R_18.png","img/750/equaldotsize/L/14_Ratio_750_L_8_R_6.png","img/500/equaldotanddens/R/3_Ratio_500_L_10_R_20.png","img/900/randomdotsizeEA/R/5_Ratio_900_L_9_R_10.png","img/250/equaldotanddens/L/7_Ratio_250_L_8_R_2.png","img/500/randomdotsizeEA/L/4_Ratio_500_L_18_R_9.png","img/500/randomdotsizeEA/L/4_Ratio_500_L_18_R_9.png","img/750/randomdotsizeEA/L/9_Ratio_750_L_4_R_3.png","img/500/equaldotanddens/L/8_Ratio_500_L_8_R_4.png","img/750/equaldotsize/L/6_Ratio_750_L_24_R_18.png","img/250/equaldotanddens/L/14_Ratio_250_L_12_R_3.png","img/900/randomdotsizeEA/L/10_Ratio_900_L_20_R_18.png","img/750/equaldotanddens/L/1_Ratio_750_L_20_R_15.png","img/250/equaldotanddens/R/4_Ratio_250_L_3_R_12.png","img/500/equaldotsize/R/2_Ratio_500_L_3_R_6.png","img/900/equaldotanddens/L/10_Ratio_900_L_20_R_18.png","img/900/equaldotsize/L/8_Ratio_900_L_20_R_18.png","img/250/equaldotanddens/R/10_Ratio_250_L_4_R_16.png","img/750/equaldotsize/R/2_Ratio_750_L_6_R_8.png","img/750/equaldotanddens/L/9_Ratio_750_L_4_R_3.png","img/750/equaldotanddens/L/6_Ratio_750_L_24_R_18.png","img/900/equaldotsize/L/2_Ratio_900_L_20_R_18.png","img/250/randomdotsizeEA/L/5_Ratio_250_L_24_R_6.png","img/750/equaldotanddens/R/5_Ratio_750_L_15_R_20.png","img/900/equaldotsize/R/5_Ratio_900_L_9_R_10.png","img/250/equaldotsize/L/3_Ratio_250_L_8_R_2.png","img/250/randomdotsizeEA/L/15_Ratio_250_L_12_R_3.png","img/750/randomdotsizeEA/L/1_Ratio_750_L_20_R_15.png","img/250/equaldotanddens/R/6_Ratio_250_L_6_R_24.png","img/500/randomdotsizeEA/L/13_Ratio_500_L_12_R_6.png","img/900/equaldotanddens/L/8_Ratio_900_L_20_R_18.png","img/750/randomdotsizeEA/L/6_Ratio_750_L_24_R_18.png","img/900/randomdotsizeEA/L/4_Ratio_900_L_20_R_18.png","img/750/equaldotanddens/L/8_Ratio_750_L_4_R_3.png","img/250/equaldotsize/L/14_Ratio_250_L_12_R_3.png","img/750/randomdotsizeEA/R/15_Ratio_750_L_9_R_12.png","img/500/equaldotsize/L/4_Ratio_500_L_18_R_9.png","img/500/equaldotsize/L/8_Ratio_500_L_8_R_4.png","img/900/equaldotanddens/R/9_Ratio_900_L_18_R_20.png","img/500/randomdotsizeEA/L/11_Ratio_500_L_12_R_6.png","img/900/equaldotanddens/R/15_Ratio_900_L_9_R_10.png","img/500/equaldotsize/L/7_Ratio_500_L_10_R_5.png","img/250/equaldotsize/L/7_Ratio_250_L_8_R_2.png","img/900/equaldotanddens/L/8_Ratio_900_L_20_R_18.png","img/750/equaldotanddens/L/14_Ratio_750_L_8_R_6.png","img/750/equaldotsize/L/10_Ratio_750_L_4_R_3.png","img/500/equaldotanddens/R/3_Ratio_500_L_10_R_20.png","img/900/randomdotsizeEA/R/6_Ratio_900_L_9_R_10.png","img/250/equaldotanddens/L/5_Ratio_250_L_24_R_6.png","img/500/randomdotsizeEA/R/12_Ratio_500_L_1_R_2.png","img/750/equaldotanddens/R/5_Ratio_750_L_15_R_20.png","img/250/equaldotsize/R/12_Ratio_250_L_5_R_20.png","img/500/equaldotanddens/R/2_Ratio_500_L_3_R_6.png","img/900/equaldotsize/L/8_Ratio_900_L_20_R_18.png","img/500/equaldotsize/L/4_Ratio_500_L_18_R_9.png","img/500/randomdotsizeEA/R/12_Ratio_500_L_1_R_2.png","img/250/randomdotsizeEA/R/12_Ratio_250_L_5_R_20.png","img/500/equaldotanddens/L/10_Ratio_500_L_4_R_2.png","img/750/randomdotsizeEA/L/13_Ratio_750_L_8_R_6.png","img/250/randomdotsizeEA/L/14_Ratio_250_L_12_R_3.png","img/750/equaldotsize/R/11_Ratio_750_L_12_R_16.png","img/250/randomdotsizeEA/L/14_Ratio_250_L_12_R_3.png","img/750/randomdotsizeEA/L/13_Ratio_750_L_8_R_6.png","img/750/equaldotanddens/L/6_Ratio_750_L_24_R_18.png","img/750/equaldotanddens/L/14_Ratio_750_L_8_R_6.png","img/500/equaldotsize/L/13_Ratio_500_L_12_R_6.png","img/900/equaldotsize/L/8_Ratio_900_L_20_R_18.png","img/900/equaldotanddens/R/3_Ratio_900_L_9_R_10.png","img/250/equaldotanddens/L/7_Ratio_250_L_8_R_2.png","img/900/equaldotsize/R/9_Ratio_900_L_18_R_20.png","img/250/equaldotsize/L/3_Ratio_250_L_8_R_2.png"],"Rat0":[["12_Ratio_0_L_9_R_0.png","13_Ratio_0_L_6_R_0.png","5_Ratio_0_L_2_R_0.png","6_Ratio_0_L_4_R_0.png","8_Ratio_0_L_6_R_0.png"],["1_Ratio_0_L_0_R_17.png","10_Ratio_0_L_0_R_22.png","11_Ratio_0_L_0_R_1.png","14_Ratio_0_L_0_R_24.png","15_Ratio_0_L_0_R_4.png","2_Ratio_0_L_0_R_5.png","3_Ratio_0_L_0_R_17.png","4_Ratio_0_L_0_R_7.png","7_Ratio_0_L_0_R_19.png","9_Ratio_0_L_0_R_15.png"]],"Rat250":[["1_Ratio_250_L_8_R_2.png","14_Ratio_250_L_12_R_3.png","15_Ratio_250_L_12_R_3.png","2_Ratio_250_L_16_R_4.png","3_Ratio_250_L_8_R_2.png","5_Ratio_250_L_24_R_6.png","7_Ratio_250_L_8_R_2.png"],["10_Ratio_250_L_4_R_16.png","11_Ratio_250_L_3_R_12.png","12_Ratio_250_L_5_R_20.png","13_Ratio_250_L_2_R_8.png","4_Ratio_250_L_3_R_12.png","6_Ratio_250_L_6_R_24.png","8_Ratio_250_L_1_R_4.png","9_Ratio_250_L_3_R_12.png"]],"Rat500":[["10_Ratio_500_L_4_R_2.png","11_Ratio_500_L_12_R_6.png","13_Ratio_500_L_12_R_6.png","4_Ratio_500_L_18_R_9.png","5_Ratio_500_L_4_R_2.png","7_Ratio_500_L_10_R_5.png","8_Ratio_500_L_8_R_4.png"],["1_Ratio_500_L_9_R_18.png","12_Ratio_500_L_1_R_2.png","14_Ratio_500_L_5_R_10.png","15_Ratio_500_L_1_R_2.png","2_Ratio_500_L_3_R_6.png","3_Ratio_500_L_10_R_20.png","6_Ratio_500_L_9_R_18.png","9_Ratio_500_L_2_R_4.png"]],"Rat750":[["1_Ratio_750_L_20_R_15.png","10_Ratio_750_L_4_R_3.png","13_Ratio_750_L_8_R_6.png","14_Ratio_750_L_8_R_6.png","6_Ratio_750_L_24_R_18.png","8_Ratio_750_L_4_R_3.png","9_Ratio_750_L_4_R_3.png"],["11_Ratio_750_L_12_R_16.png","12_Ratio_750_L_3_R_4.png","15_Ratio_750_L_9_R_12.png","2_Ratio_750_L_6_R_8.png","3_Ratio_750_L_15_R_20.png","4_Ratio_750_L_15_R_20.png","5_Ratio_750_L_15_R_20.png","7_Ratio_750_L_3_R_4.png"]],"Rat900":[["1_Ratio_900_L_10_R_9.png","10_Ratio_900_L_20_R_18.png","2_Ratio_900_L_20_R_18.png","4_Ratio_900_L_20_R_18.png","8_Ratio_900_L_20_R_18.png"],["11_Ratio_900_L_18_R_20.png","12_Ratio_900_L_18_R_20.png","13_Ratio_900_L_18_R_20.png","14_Ratio_900_L_18_R_20.png","15_Ratio_900_L_9_R_10.png","3_Ratio_900_L_9_R_10.png","5_Ratio_900_L_9_R_10.png","6_Ratio_900_L_9_R_10.png","7_Ratio_900_L_9_R_10.png","9_Ratio_900_L_18_R_20.png"]],"Rat1000":[["10_Ratio_1000_L_16_R_16.png","11_Ratio_1000_L_6_R_6.png","12_Ratio_1000_L_14_R_14.png","13_Ratio_1000_L_20_R_20.png","15_Ratio_1000_L_15_R_15.png","2_Ratio_1000_L_17_R_17.png","4_Ratio_1000_L_9_R_9.png","5_Ratio_1000_L_6_R_6.png","6_Ratio_1000_L_19_R_19.png","8_Ratio_1000_L_14_R_14.png","9_Ratio_1000_L_25_R_25.png"],["1_Ratio_1000_L_1_R_1.png","14_Ratio_1000_L_17_R_17.png","3_Ratio_1000_L_17_R_17.png","7_Ratio_1000_L_6_R_6.png"]]}},{"start_time":1552327736822,"click_time":1552327738731,"finger_time":1552327738169,"fix_duration":250,"trial":1,"RT":1347,"MT":562,"sideResp":1,"stimulus":"img/750/equaldotanddens/L/1_Ratio_750_L_20_R_15.png","xmouse":[778,778,778,778,778,778,778,778,778,778,778,778,778,778,778,778,778,778,778,778,778,778,778,778,778,778,778,778,778,778,778,778,778,778,778,778,778,778,778,778,778,778,778,778,778,778,778,778,778,778,778,778,777,777,777,778,778,780,786,793,800,807,811,817,818,819,820,821,823,823,824,824,824,823,820,817,812,807,805,802,798,790,755,727,703,679,650,623,593,588,583,575,569,552,533,509],"ymouse":[516,516,516,516,516,516,516,516,516,516,516,516,516,516,516,516,516,516,516,516,516,516,516,516,516,516,516,516,516,516,516,516,516,516,516,516,516,516,516,516,516,516,516,516,516,516,516,516,516,516,516,516,516,511,507,506,505,502,496,491,486,480,477,472,472,471,470,469,466,465,464,464,464,463,459,453,448,418,380,358,340,322,271,232,198,167,132,102,76,72,68,64,61,57,57,57],"timestamp_mouse":[10,36,48,69,88,108,129,149,168,188,208,229,248,268,288,308,327,349,369,389,408,429,449,467,489,509,529,548,569,589,609,629,648,667,689,709,729,749,769,788,808,829,849,868,888,909,929,948,968,989,1009,1029,1049,1068,1087,1109,1129,1148,1168,1188,1208,1228,1248,1269,1288,1309,1328,1347,1368,1388,1409,1429,1448,1468,1488,1508,1527,1549,1568,1588,1609,1629,1649,1668,1688,1708,1729,1748,1769,1788,1808,1828,1848,1868,1888,1909],"xSR":741.5,"ySR":469.95,"xT1":424.9,"yT1":0,"xT2":1058.1,"yT2":0,"toosoon":0,"cond_shown":"equaldotanddens","ratio_trial":750,"smaller_num":"15","larger_num":"20","correct_side":1,"subjID":"simonelsin7","gender":"0","age":"9","school":"4"},{"start_time":1552327739768,"click_time":1552327741371,"finger_time":1552327740991,"fix_duration":275.82656066706636,"trial":2,"RT":1223,"MT":380,"sideResp":2,"stimulus":"img/900/randomdotsizeEA/R/15_Ratio_900_L_9_R_10.png","xmouse":[791,791,791,791,791,791,791,791,791,791,791,791,791,791,791,791,791,791,791,791,791,791,791,791,791,791,791,791,791,791,791,791,791,791,791,791,791,791,791,791,791,791,791,791,791,791,791,791,791,791,791,791,791,791,791,791,791,791,790,792,840,866,883,895,904,916,918,920,921,922,933,952,970,994,1021,1055,1063,1073,1081,1089,1093],"ymouse":[518,518,518,518,518,518,518,518,518,518,518,518,518,518,518,518,518,518,518,518,518,518,518,518,518,518,518,518,518,518,518,518,518,518,518,518,518,518,518,518,518,518,518,518,518,518,518,518,518,518,518,518,518,518,518,518,518,518,518,516,470,448,435,425,417,401,394,389,386,382,360,322,290,257,220,180,167,150,128,110,99],"timestamp_mouse":[13,33,42,63,83,101,122,141,163,183,203,221,243,261,282,302,322,343,363,383,403,423,443,463,483,503,521,542,563,583,602,623,643,661,683,703,721,742,763,783,803,823,843,863,883,902,922,943,963,983,1002,1022,1041,1063,1083,1101,1123,1143,1162,1182,1203,1223,1242,1262,1282,1303,1322,1342,1363,1382,1404,1422,1442,1462,1483,1503,1521,1541,1562,1582,1602],"xSR":741.5,"ySR":469.95,"xT1":424.9,"yT1":0,"xT2":1058.1,"yT2":0,"toosoon":0,"cond_shown":"randomdotsizeEA","ratio_trial":900,"smaller_num":"9","larger_num":"10","correct_side":2,"subjID":"simonelsin7","gender":"0","age":"9","school":"4"},{"start_time":1552327742362,"click_time":1552327743790,"finger_time":1552327743250,"fix_duration":250,"trial":3,"RT":888,"MT":540,"sideResp":2,"stimulus":"img/500/equaldotsize/R/9_Ratio_500_L_2_R_4.png","xmouse":[828,828,828,828,828,828,828,828,828,828,828,828,828,828,828,828,828,828,828,828,828,828,828,828,828,828,828,828,828,828,828,828,828,828,828,828,828,828,828,828,828,828,828,835,846,891,912,925,932,941,953,975,978,981,982,983,984,986,992,1002,1023,1044,1055,1063,1072,1086,1087,1088,1088,1088,1089,1103],"ymouse":[500,500,500,500,500,500,500,500,500,500,500,500,500,500,500,500,500,500,500,500,500,500,500,500,500,500,500,500,500,500,500,500,500,500,500,500,500,500,500,500,500,500,494,476,456,388,354,334,323,313,298,262,257,253,250,249,249,245,237,224,195,173,163,151,135,105,102,101,101,101,100,80],"timestamp_mouse":[9,36,49,68,87,109,129,148,168,189,207,228,248,269,289,307,327,349,368,388,407,428,449,468,488,508,529,547,568,588,609,629,648,668,687,709,729,747,769,789,807,828,848,868,888,909,929,948,968,988,1009,1028,1048,1069,1089,1108,1128,1148,1168,1188,1208,1227,1248,1268,1288,1309,1328,1348,1369,1388,1409,1428],"xSR":741.5,"ySR":469.95,"xT1":424.9,"yT1":0,"xT2":1058.1,"yT2":0,"toosoon":0,"cond_shown":"equaldotsize","ratio_trial":500,"smaller_num":"2","larger_num":"4","correct_side":2,"subjID":"simonelsin7","gender":"0","age":"9","school":"4"},{"start_time":1552327745022,"click_time":1552327745951,"finger_time":1552327745770,"fix_duration":570.1320342068277,"trial":4,"RT":748,"MT":181,"sideResp":1,"stimulus":"img/250/equaldotsize/L/5_Ratio_250_L_24_R_6.png","xmouse":[821,821,821,821,821,821,821,821,821,821,821,821,821,821,821,821,821,821,821,821,821,821,821,821,821,821,821,821,821,821,821,821,821,821,821,815,807,753,657,621,597,575,550,540,533,520,511],"ymouse":[507,507,507,507,507,507,507,507,507,507,507,507,507,507,507,507,507,507,507,507,507,507,507,507,507,507,507,507,507,507,507,507,507,507,507,504,495,424,290,243,207,184,142,123,115,100,91],"timestamp_mouse":[9,29,49,69,88,108,129,148,168,188,209,229,249,268,289,309,329,348,368,389,409,429,448,469,488,509,528,549,569,588,607,628,649,669,687,708,729,748,769,788,809,828,849,868,888,909,929],"xSR":741.5,"ySR":469.95,"xT1":424.9,"yT1":0,"xT2":1058.1,"yT2":0,"toosoon":0,"cond_shown":"equaldotsize","ratio_trial":250,"smaller_num":"6","larger_num":"24","correct_side":1,"subjID":"simonelsin7","gender":"0","age":"9","school":"4"},{"start_time":1552327747602,"click_time":1552327748510,"finger_time":1552327748290,"fix_duration":610.882788843454,"trial":5,"RT":688,"MT":220,"sideResp":2,"stimulus":"img/900/randomdotsizeEA/R/12_Ratio_900_L_18_R_20.png","xmouse":[756,756,756,756,756,756,756,756,756,756,756,756,756,756,756,756,756,756,756,756,756,756,756,756,756,756,756,756,756,756,756,756,756,762,828,921,983,1000,1016,1060,1086,1111,1122,1123,1123,1123],"ymouse":[499,499,499,499,499,499,499,499,499,499,499,499,499,499,499,499,499,499,499,499,499,499,499,499,499,499,499,499,499,499,499,499,499,495,460,406,381,372,361,291,224,167,137,127,107,94],"timestamp_mouse":[12,31,48,67,89,110,129,149,168,189,208,228,248,269,289,308,328,347,368,388,409,429,449,468,488,509,528,549,569,587,609,628,648,668,688,707,728,749,769,788,808,829,848,868,888,908],"xSR":741.5,"ySR":469.95,"xT1":424.9,"yT1":0,"xT2":1058.1,"yT2":0,"toosoon":0,"cond_shown":"randomdotsizeEA","ratio_trial":900,"smaller_num":"18","larger_num":"20","correct_side":2,"subjID":"simonelsin7","gender":"0","age":"9","school":"4"},{"start_time":1552327749363,"click_time":1552327750130,"finger_time":1552327749951,"fix_duration":250,"trial":6,"RT":588,"MT":179,"sideResp":2,"stimulus":"img/750/equaldotsize/R/15_Ratio_750_L_9_R_12.png","xmouse":[778,778,778,778,778,778,778,778,778,778,778,778,778,778,778,778,778,778,778,778,778,778,778,778,778,778,778,791,816,847,881,975,1024,1066,1089,1097,1106,1116,1129],"ymouse":[533,533,533,533,533,533,533,533,533,533,533,533,533,533,533,533,533,533,533,533,533,533,533,533,533,533,533,515,485,455,430,344,278,214,174,157,136,116,91],"timestamp_mouse":[7,35,48,68,88,108,128,148,168,188,208,228,248,267,288,308,327,346,368,387,407,428,447,468,487,508,527,548,567,587,607,628,647,668,686,708,727,748,767],"xSR":741.5,"ySR":469.95,"xT1":424.9,"yT1":0,"xT2":1058.1,"yT2":0,"toosoon":0,"cond_shown":"equaldotsize","ratio_trial":750,"smaller_num":"9","larger_num":"12","correct_side":2,"subjID":"simonelsin7","gender":"0","age":"9","school":"4"},{"start_time":1552327752300,"click_time":1552327753050,"finger_time":1552327752870,"fix_duration":1447.141995297028,"trial":7,"RT":570,"MT":180,"sideResp":1,"stimulus":"img/250/equaldotsize/L/1_Ratio_250_L_8_R_2.png","xmouse":[787,787,787,787,787,787,787,787,787,787,787,787,787,787,787,787,787,787,787,787,787,787,787,787,787,785,780,774,766,743,727,700,672,616,589,549,527,516],"ymouse":[534,534,534,534,534,534,534,534,534,534,534,534,534,534,534,534,534,534,534,534,534,534,534,534,534,521,505,483,452,385,352,313,274,192,151,89,56,31],"timestamp_mouse":[20,39,50,70,89,111,131,150,171,190,209,231,250,271,291,310,331,350,370,390,409,430,450,470,491,510,530,551,570,590,611,631,650,672,690,710,731,750],"xSR":741.5,"ySR":469.95,"xT1":424.9,"yT1":0,"xT2":1058.1,"yT2":0,"toosoon":0,"cond_shown":"equaldotsize","ratio_trial":250,"smaller_num":"2","larger_num":"8","correct_side":1,"subjID":"simonelsin7","gender":"0","age":"9","school":"4"},{"start_time":1552327754790,"click_time":1552327755710,"finger_time":1552327755470,"fix_duration":878.456958684292,"trial":8,"RT":680,"MT":240,"sideResp":2,"stimulus":"img/250/randomdotsizeEA/R/4_Ratio_250_L_3_R_12.png","xmouse":[787,787,787,787,787,787,787,787,787,787,787,787,787,787,787,787,787,787,787,787,787,787,787,787,787,787,787,787,787,787,787,787,787,798,854,887,905,919,931,964,1010,1039,1060,1073,1099,1108,1113],"ymouse":[501,501,501,501,501,501,501,501,501,501,501,501,501,501,501,501,501,501,501,501,501,501,501,501,501,501,501,501,501,501,501,501,501,481,433,417,408,400,390,344,264,216,186,168,130,112,96],"timestamp_mouse":[10,32,40,61,80,100,120,141,161,180,200,220,241,260,280,301,321,340,360,380,401,419,439,461,481,500,521,540,561,580,600,620,640,660,680,699,720,740,761,782,800,820,839,861,880,900,920],"xSR":741.5,"ySR":469.95,"xT1":424.9,"yT1":0,"xT2":1058.1,"yT2":0,"toosoon":0,"cond_shown":"randomdotsizeEA","ratio_trial":250,"smaller_num":"3","larger_num":"12","correct_side":2,"subjID":"simonelsin7","gender":"0","age":"9","school":"4"},{"start_time":1552327758563,"click_time":1552327759291,"finger_time":1552327759170,"fix_duration":651.0935535177562,"trial":9,"RT":607,"MT":121,"sideResp":1,"stimulus":"img/250/equaldotanddens/L/5_Ratio_250_L_24_R_6.png","xmouse":[799,799,799,799,799,799,799,799,799,799,799,799,799,799,799,799,799,799,799,799,799,799,799,799,799,799,799,797,791,779,748,633,599,575,547,527,506],"ymouse":[538,538,538,538,538,538,538,538,538,538,538,538,538,538,538,538,538,538,538,538,538,538,538,538,538,538,538,530,512,479,409,225,185,156,124,95,71],"timestamp_mouse":[21,39,47,67,88,106,128,147,168,188,208,228,247,267,288,308,327,348,367,387,407,427,446,468,487,508,527,547,568,587,607,627,647,667,687,708,728],"xSR":741.5,"ySR":469.95,"xT1":424.9,"yT1":0,"xT2":1058.1,"yT2":0,"toosoon":0,"cond_shown":"equaldotanddens","ratio_trial":250,"smaller_num":"6","larger_num":"24","correct_side":1,"subjID":"simonelsin7","gender":"0","age":"9","school":"4"},{"start_time":1552327762053,"click_time":1552327762990,"finger_time":1552327762731,"fix_duration":361.93348242304626,"trial":10,"RT":678,"MT":259,"sideResp":2,"stimulus":"img/250/randomdotsizeEA/R/12_Ratio_250_L_5_R_20.png","xmouse":[793,793,793,793,793,793,793,793,793,793,793,793,793,793,793,793,793,793,793,793,793,793,793,793,793,793,793,793,793,793,797,804,819,840,865,906,930,944,963,987,1008,1021,1022,1027,1034,1051,1060],"ymouse":[531,531,531,531,531,531,531,531,531,531,531,531,531,531,531,531,531,531,531,531,531,531,531,531,531,531,531,531,531,532,523,510,490,461,428,375,336,313,277,218,171,144,143,139,132,105,91],"timestamp_mouse":[17,37,57,76,97,118,138,157,176,198,218,237,258,278,297,318,338,356,377,398,417,438,458,476,498,517,536,558,578,597,617,637,657,678,696,719,737,757,777,797,818,837,857,877,898,918,936],"xSR":741.5,"ySR":469.95,"xT1":424.9,"yT1":0,"xT2":1058.1,"yT2":0,"toosoon":0,"cond_shown":"randomdotsizeEA","ratio_trial":250,"smaller_num":"5","larger_num":"20","correct_side":2,"subjID":"simonelsin7","gender":"0","age":"9","school":"4"},{"start_time":1552327764372,"click_time":1552327765631,"finger_time":1552327765131,"fix_duration":780.5981646855732,"trial":11,"RT":759,"MT":500,"sideResp":1,"stimulus":"img/750/randomdotsizeEA/L/6_Ratio_750_L_24_R_18.png","xmouse":[791,791,791,791,791,791,791,791,791,791,791,791,791,791,791,791,791,791,791,791,791,791,791,791,791,791,791,791,791,791,791,791,791,791,792,803,812,821,833,855,868,873,875,875,875,875,875,875,875,875,875,871,862,851,806,766,713,663,608,508,470,446,428],"ymouse":[499,499,499,499,499,499,499,499,499,499,499,499,499,499,499,499,499,499,499,499,499,499,499,499,499,499,499,499,499,499,499,499,499,499,497,484,476,465,451,424,407,399,396,396,396,396,396,396,396,396,396,394,386,376,346,322,292,263,223,164,131,108,92],"timestamp_mouse":[19,37,59,79,98,118,138,158,179,198,219,239,258,278,298,318,339,358,379,399,419,439,459,478,498,519,537,559,578,597,619,638,657,679,698,718,738,759,779,800,818,838,858,878,899,918,937,958,978,998,1018,1038,1057,1078,1099,1117,1138,1159,1177,1199,1218,1238,1259],"xSR":741.5,"ySR":469.95,"xT1":424.9,"yT1":0,"xT2":1058.1,"yT2":0,"toosoon":0,"cond_shown":"randomdotsizeEA","ratio_trial":750,"smaller_num":"18","larger_num":"24","correct_side":1,"subjID":"simonelsin7","gender":"0","age":"9","school":"4"},{"start_time":1552327767071,"click_time":1552327768430,"finger_time":1552327768311,"fix_duration":538.9172828406175,"trial":12,"RT":1240,"MT":119,"sideResp":1,"stimulus":"img/750/equaldotsize/L/8_Ratio_750_L_4_R_3.png","xmouse":[765,765,765,765,765,765,765,765,765,765,765,765,765,765,765,765,765,765,765,765,765,765,765,765,765,765,765,765,765,765,765,765,765,765,765,765,765,765,765,765,765,765,765,765,765,765,765,765,765,765,765,765,765,765,765,765,765,765,765,765,764,755,745,733,716,682,575,539,517],"ymouse":[510,510,510,510,510,510,510,510,510,510,510,510,510,510,510,510,510,510,510,510,510,510,510,510,510,510,510,510,510,510,510,510,510,510,510,510,510,510,510,510,510,510,510,510,510,510,510,510,510,510,510,510,510,510,510,510,510,510,510,508,502,485,469,450,421,356,159,112,87],"timestamp_mouse":[1,28,39,60,80,98,120,139,159,180,199,220,239,260,278,300,319,339,360,380,399,420,439,458,480,499,520,538,559,580,600,619,640,660,680,699,720,740,760,780,798,820,840,860,880,899,920,939,959,980,999,1020,1040,1060,1080,1098,1120,1140,1160,1178,1200,1219,1240,1259,1279,1299,1319,1339,1359],"xSR":741.5,"ySR":469.95,"xT1":424.9,"yT1":0,"xT2":1058.1,"yT2":0,"toosoon":0,"cond_shown":"equaldotsize","ratio_trial":750,"smaller_num":"3","larger_num":"4","correct_side":1,"subjID":"simonelsin7","gender":"0","age":"9","school":"4"},{"start_time":1552327769754,"click_time":1552327770591,"finger_time":1552327770470,"fix_duration":483.71700311592394,"trial":13,"RT":716,"MT":121,"sideResp":2,"stimulus":"img/900/equaldotanddens/L/8_Ratio_900_L_20_R_18.png","xmouse":[762,762,762,762,762,762,762,762,762,762,762,762,762,762,762,762,762,762,762,762,762,762,762,762,762,762,762,762,762,762,765,781,790,797,805,813,850,889,935,988,1033,1079],"ymouse":[495,495,495,495,495,495,495,495,495,495,495,495,495,495,495,495,495,495,495,495,495,495,495,495,495,495,495,495,495,495,495,488,482,477,471,464,409,349,288,227,171,82],"timestamp_mouse":[16,35,56,76,96,116,137,156,177,196,216,237,255,275,296,317,336,356,376,397,415,436,456,477,496,515,537,556,575,597,616,636,656,677,696,716,736,756,776,796,816,837],"xSR":741.5,"ySR":469.95,"xT1":424.9,"yT1":0,"xT2":1058.1,"yT2":0,"toosoon":0,"cond_shown":"equaldotanddens","ratio_trial":900,"smaller_num":"18","larger_num":"20","correct_side":1,"subjID":"simonelsin7","gender":"0","age":"9","school":"4"},{"start_time":1552327773492,"click_time":1552327774649,"finger_time":1552327774310,"fix_duration":581.9989606972737,"trial":14,"RT":818,"MT":339,"sideResp":1,"stimulus":"img/250/randomdotsizeEA/L/1_Ratio_250_L_8_R_2.png","xmouse":[788,788,788,788,788,788,788,788,788,788,788,788,788,788,788,788,788,788,788,788,788,788,788,788,788,788,788,788,788,788,788,788,788,788,788,788,785,783,779,767,752,728,709,691,661,650,641,631,618,583,567,555,548,546,543,537,530,522],"ymouse":[526,526,526,526,526,526,526,526,526,526,526,526,526,526,526,526,526,526,526,526,526,526,526,526,526,526,526,526,526,526,526,526,526,526,525,523,518,515,511,491,461,412,359,313,238,213,193,173,151,104,84,68,60,58,58,58,58,58],"timestamp_mouse":[18,39,59,79,99,117,138,159,178,199,217,239,259,278,299,318,337,359,379,399,418,439,459,478,498,519,538,559,578,598,617,639,659,679,699,718,738,758,778,798,818,839,858,878,898,918,938,958,978,998,1018,1039,1059,1078,1099,1118,1139,1157],"xSR":741.5,"ySR":469.95,"xT1":424.9,"yT1":0,"xT2":1058.1,"yT2":0,"toosoon":0,"cond_shown":"randomdotsizeEA","ratio_trial":250,"smaller_num":"2","larger_num":"8","correct_side":1,"subjID":"simonelsin7","gender":"0","age":"9","school":"4"},{"start_time":1552327776201,"click_time":1552327777130,"finger_time":1552327776911,"fix_duration":829.7096699883269,"trial":15,"RT":710,"MT":219,"sideResp":2,"stimulus":"img/500/equaldotsize/R/15_Ratio_500_L_1_R_2.png","xmouse":[782,782,782,782,782,782,782,782,782,782,782,782,782,782,782,782,782,782,782,782,782,782,782,782,782,782,782,782,782,782,782,782,782,790,816,853,884,921,936,952,968,991,1008,1018,1028,1042,1059],"ymouse":[507,507,507,507,507,507,507,507,507,507,507,507,507,507,507,507,507,507,507,507,507,507,507,507,507,507,507,507,507,507,507,507,507,500,478,441,387,319,288,258,224,179,155,141,131,117,98],"timestamp_mouse":[9,34,49,69,90,108,129,150,170,189,208,229,249,270,289,310,329,349,370,390,410,430,450,469,490,510,530,548,570,590,608,628,650,670,689,710,730,749,770,789,809,829,849,870,889,909,929],"xSR":741.5,"ySR":469.95,"xT1":424.9,"yT1":0,"xT2":1058.1,"yT2":0,"toosoon":0,"cond_shown":"equaldotsize","ratio_trial":500,"smaller_num":"1","larger_num":"2","correct_side":2,"subjID":"simonelsin7","gender":"0","age":"9","school":"4"},{"start_time":1552327779936,"click_time":1552327780871,"finger_time":1552327780610,"fix_duration":663.1174314542027,"trial":16,"RT":674,"MT":261,"sideResp":2,"stimulus":"img/900/randomdotsizeEA/R/7_Ratio_900_L_9_R_10.png","xmouse":[774,774,774,774,774,774,774,774,775,776,778,780,783,785,785,785,785,785,785,785,785,785,785,785,785,785,785,785,785,785,786,800,833,865,896,935,986,1051,1059,1064,1068,1088,1091,1092,1093,1096,1101],"ymouse":[546,546,546,546,546,546,546,546,545,545,545,545,546,547,547,547,547,547,547,547,547,547,547,547,547,547,547,547,547,547,547,541,519,494,470,430,378,296,281,268,250,196,184,160,143,120,84],"timestamp_mouse":[15,34,54,75,96,115,134,154,175,194,215,234,255,275,294,314,335,355,375,395,414,434,455,474,495,514,534,555,574,595,616,635,655,674,694,714,734,754,775,794,814,836,854,874,895,914,934],"xSR":741.5,"ySR":469.95,"xT1":424.9,"yT1":0,"xT2":1058.1,"yT2":0,"toosoon":0,"cond_shown":"randomdotsizeEA","ratio_trial":900,"smaller_num":"9","larger_num":"10","correct_side":2,"subjID":"simonelsin7","gender":"0","age":"9","school":"4"},{"start_time":1552327783319,"click_time":1552327784271,"finger_time":1552327783951,"fix_duration":307.16515948299906,"trial":17,"RT":632,"MT":320,"sideResp":1,"stimulus":"img/250/equaldotsize/L/1_Ratio_250_L_8_R_2.png","xmouse":[778,778,778,778,778,778,778,778,778,778,778,778,778,778,778,778,778,778,778,778,778,778,778,778,778,778,776,775,771,766,761,752,711,678,658,640,622,607,584,576,569,563,548,540,536,533,526,514],"ymouse":[524,524,524,524,524,524,524,524,524,524,524,524,524,524,524,524,524,524,524,524,524,524,524,524,524,524,522,521,511,502,485,459,371,299,253,208,170,143,108,96,83,73,56,50,48,47,47,47],"timestamp_mouse":[19,38,51,71,92,111,131,152,172,192,212,231,252,271,292,311,333,352,372,391,412,431,451,473,492,512,531,551,571,593,612,632,652,671,691,711,732,751,771,792,811,831,852,871,891,911,931,952],"xSR":741.5,"ySR":469.95,"xT1":424.9,"yT1":0,"xT2":1058.1,"yT2":0,"toosoon":0,"cond_shown":"equaldotsize","ratio_trial":250,"smaller_num":"2","larger_num":"8","correct_side":1,"subjID":"simonelsin7","gender":"0","age":"9","school":"4"},{"start_time":1552327785844,"click_time":1552327786592,"finger_time":1552327786470,"fix_duration":1051.5201887883968,"trial":18,"RT":626,"MT":122,"sideResp":1,"stimulus":"img/250/equaldotanddens/L/15_Ratio_250_L_12_R_3.png","xmouse":[796,796,796,796,796,796,796,796,796,796,796,796,796,796,796,796,796,796,796,796,796,796,796,796,796,796,794,790,783,775,762,682,636,593,567,546,536,523],"ymouse":[528,528,528,528,528,528,528,528,528,528,528,528,528,528,528,528,528,528,528,528,528,528,528,528,528,528,528,526,515,499,476,337,267,207,162,130,106,68],"timestamp_mouse":[10,35,47,66,87,107,127,147,166,186,207,226,247,267,286,306,327,346,367,387,407,426,447,466,487,506,526,547,566,587,606,626,646,666,687,708,727,748],"xSR":741.5,"ySR":469.95,"xT1":424.9,"yT1":0,"xT2":1058.1,"yT2":0,"toosoon":0,"cond_shown":"equaldotanddens","ratio_trial":250,"smaller_num":"3","larger_num":"12","correct_side":1,"subjID":"simonelsin7","gender":"0","age":"9","school":"4"},{"start_time":1552327788823,"click_time":1552327790131,"finger_time":1552327789970,"fix_duration":1309.4408401873875,"trial":19,"RT":1147,"MT":161,"sideResp":1,"stimulus":"img/750/equaldotsize/L/8_Ratio_750_L_4_R_3.png","xmouse":[785,785,785,785,785,785,785,785,785,785,785,785,785,785,785,785,785,785,785,785,785,785,785,785,785,785,785,785,785,785,785,785,785,785,785,785,785,785,785,785,785,785,785,785,785,785,785,785,785,785,785,785,785,784,779,772,764,742,705,675,639,603,543,519,502,488],"ymouse":[520,520,520,520,520,520,520,520,520,520,520,520,520,520,520,520,520,520,520,520,520,520,520,520,520,520,520,520,520,520,520,520,520,520,520,520,520,520,520,520,520,520,520,520,520,520,520,520,520,520,520,520,521,520,511,496,473,426,355,309,264,221,162,132,109,89],"timestamp_mouse":[11,29,48,67,87,108,127,149,168,188,208,228,248,269,287,307,327,347,367,387,408,427,448,468,487,508,527,548,567,588,608,628,648,667,688,707,727,748,767,787,808,827,848,868,889,908,927,948,968,988,1007,1028,1048,1067,1088,1107,1127,1147,1167,1188,1208,1227,1249,1268,1287,1308],"xSR":741.5,"ySR":469.95,"xT1":424.9,"yT1":0,"xT2":1058.1,"yT2":0,"toosoon":0,"cond_shown":"equaldotsize","ratio_trial":750,"smaller_num":"3","larger_num":"4","correct_side":1,"subjID":"simonelsin7","gender":"0","age":"9","school":"4"},{"start_time":1552327791242,"click_time":1552327792390,"finger_time":1552327792090,"fix_duration":250,"trial":20,"RT":848,"MT":300,"sideResp":1,"stimulus":"img/250/randomdotsizeEA/L/15_Ratio_250_L_12_R_3.png","xmouse":[766,766,766,766,766,766,766,766,766,766,766,766,766,766,766,766,766,766,766,766,766,766,766,766,766,766,766,766,766,766,766,766,766,766,766,766,766,766,766,766,763,756,748,731,715,699,659,639,623,610,599,585,578,570,563,559,553,524],"ymouse":[491,491,491,491,491,491,491,491,491,491,491,491,491,491,491,491,491,491,491,491,491,491,491,491,491,491,491,491,491,491,491,491,491,491,491,491,491,491,491,490,487,470,448,407,362,333,258,221,196,177,162,134,120,109,101,96,92,73],"timestamp_mouse":[9,32,49,69,88,109,128,148,168,189,208,228,249,270,289,308,328,349,368,388,410,429,448,468,489,510,528,549,568,589,608,629,648,668,689,708,729,750,768,789,808,829,848,868,888,909,930,949,968,990,1008,1029,1048,1068,1088,1110,1128,1148],"xSR":741.5,"ySR":469.95,"xT1":424.9,"yT1":0,"xT2":1058.1,"yT2":0,"toosoon":0,"cond_shown":"randomdotsizeEA","ratio_trial":250,"smaller_num":"3","larger_num":"12","correct_side":1,"subjID":"simonelsin7","gender":"0","age":"9","school":"4"},{"start_time":1552327793766,"click_time":1552327794911,"finger_time":1552327794431,"fix_duration":673.4117659239893,"trial":21,"RT":665,"MT":480,"sideResp":2,"stimulus":"img/750/randomdotsizeEA/L/13_Ratio_750_L_8_R_6.png","xmouse":[778,778,778,778,778,778,778,778,778,778,778,778,778,778,778,778,778,778,778,778,778,778,778,778,778,778,778,778,779,781,794,806,809,811,811,811,811,811,811,811,811,811,827,843,862,907,921,933,953,975,1002,1012,1019,1025,1038,1059,1066,1074],"ymouse":[492,492,492,492,492,492,492,492,492,492,492,492,492,492,492,492,492,492,492,492,492,492,492,492,492,492,492,492,492,491,481,473,470,469,469,469,469,469,469,469,469,469,451,427,402,334,299,274,241,213,181,164,155,145,132,112,106,99],"timestamp_mouse":[11,32,45,65,84,104,126,145,164,184,204,224,244,265,286,304,325,345,366,384,405,425,446,465,484,505,525,545,564,585,605,625,644,665,684,705,725,744,764,785,805,826,844,865,885,905,924,944,964,985,1005,1024,1044,1064,1084,1105,1124,1144],"xSR":741.5,"ySR":469.95,"xT1":424.9,"yT1":0,"xT2":1058.1,"yT2":0,"toosoon":0,"cond_shown":"randomdotsizeEA","ratio_trial":750,"smaller_num":"6","larger_num":"8","correct_side":1,"subjID":"simonelsin7","gender":"0","age":"9","school":"4"},{"start_time":1552327796903,"click_time":1552327797670,"finger_time":1552327797490,"fix_duration":1270.9709182617278,"trial":22,"RT":587,"MT":180,"sideResp":2,"stimulus":"img/750/equaldotsize/R/15_Ratio_750_L_9_R_12.png","xmouse":[764,764,764,766,766,766,766,767,768,770,771,772,772,772,772,772,772,772,772,772,772,772,772,772,772,772,772,775,779,834,871,909,945,974,1018,1063,1084,1093,1095],"ymouse":[527,527,527,527,527,527,527,525,525,524,524,522,522,522,522,522,522,522,522,522,522,522,522,522,522,522,522,522,518,445,390,342,302,271,227,162,124,101,85],"timestamp_mouse":[20,49,49,68,88,108,127,147,167,188,207,227,248,267,288,307,328,349,368,387,408,428,447,467,488,508,529,547,568,587,609,628,648,668,687,707,727,747,767],"xSR":741.5,"ySR":469.95,"xT1":424.9,"yT1":0,"xT2":1058.1,"yT2":0,"toosoon":0,"cond_shown":"equaldotsize","ratio_trial":750,"smaller_num":"9","larger_num":"12","correct_side":2,"subjID":"simonelsin7","gender":"0","age":"9","school":"4"},{"start_time":1552327798848,"click_time":1552327799550,"finger_time":1552327799391,"fix_duration":474.4527304933624,"trial":23,"RT":543,"MT":159,"sideResp":2,"stimulus":"img/750/equaldotsize/R/2_Ratio_750_L_6_R_8.png","xmouse":[779,779,779,779,779,779,779,779,779,779,779,779,779,779,779,779,779,779,779,779,779,779,779,779,785,790,820,861,896,936,980,1026,1079,1089,1094,1098],"ymouse":[520,520,520,520,520,520,520,520,520,520,520,520,520,520,520,520,520,520,520,520,520,520,520,520,515,510,479,424,376,335,284,235,147,123,107,93],"timestamp_mouse":[8,33,42,62,82,102,123,142,162,184,202,223,242,262,282,302,323,343,363,383,402,423,444,463,482,503,523,543,562,582,602,622,642,662,683,702],"xSR":741.5,"ySR":469.95,"xT1":424.9,"yT1":0,"xT2":1058.1,"yT2":0,"toosoon":0,"cond_shown":"equaldotsize","ratio_trial":750,"smaller_num":"6","larger_num":"8","correct_side":2,"subjID":"simonelsin7","gender":"0","age":"9","school":"4"},{"start_time":1552327801270,"click_time":1552327803151,"finger_time":1552327801730,"fix_duration":978.0700534951729,"trial":24,"RT":460,"MT":1421,"sideResp":2,"stimulus":"img/500/equaldotanddens/R/9_Ratio_500_L_2_R_4.png","xmouse":[801,801,801,801,801,801,801,801,801,801,801,801,801,801,801,801,801,801,801,801,801,813,834,873,928,972,980,982,986,991,998,998,998,998,998,998,992,989,988,986,985,984,984,983,981,974,967,956,936,916,868,836,803,772,741,691,652,627,602,587,568,565,565,565,565,565,565,565,565,565,564,564,565,567,570,586,603,616,631,647,668,711,731,753,773,797,887,921,949,972,1012,1027,1040,1055,1073],"ymouse":[504,504,504,504,504,504,504,504,504,504,504,504,504,504,504,504,504,504,504,504,504,497,486,450,394,346,335,329,316,297,263,256,254,253,253,253,253,253,253,253,253,253,253,253,253,253,253,253,249,242,222,208,193,176,165,136,114,104,92,86,80,79,79,79,79,79,79,79,79,79,79,80,81,84,87,101,114,123,132,143,153,167,168,169,168,158,127,123,120,114,103,98,96,94,88],"timestamp_mouse":[9,20,40,62,80,101,120,142,160,181,200,222,240,261,280,300,321,340,360,381,400,420,441,460,480,501,522,541,560,580,601,620,641,661,682,701,720,740,761,780,801,820,841,860,881,901,920,941,961,980,1000,1020,1040,1060,1081,1102,1120,1140,1161,1180,1202,1220,1240,1260,1282,1300,1320,1341,1361,1382,1401,1420,1440,1460,1481,1501,1521,1541,1560,1580,1601,1620,1640,1661,1681,1701,1721,1740,1761,1780,1801,1820,1841,1861,1881],"xSR":741.5,"ySR":469.95,"xT1":424.9,"yT1":0,"xT2":1058.1,"yT2":0,"toosoon":0,"cond_shown":"equaldotanddens","ratio_trial":500,"smaller_num":"2","larger_num":"4","correct_side":2,"subjID":"simonelsin7","gender":"0","age":"9","school":"4"},{"start_time":1552327804486,"click_time":1552327805391,"finger_time":1552327805171,"fix_duration":632.6795727506502,"trial":25,"RT":685,"MT":220,"sideResp":1,"stimulus":"img/500/randomdotsizeEA/L/13_Ratio_500_L_12_R_6.png","xmouse":[776,776,776,776,776,776,776,776,776,776,776,776,776,776,776,776,776,776,776,776,776,776,776,776,776,776,776,776,776,776,776,776,775,770,745,725,714,700,685,629,591,556,521,499,483,461],"ymouse":[518,518,518,518,518,518,518,518,518,518,518,518,518,518,518,518,518,518,518,518,518,518,518,518,518,518,518,518,518,518,518,513,505,488,436,407,394,378,360,279,234,195,165,143,122,76],"timestamp_mouse":[12,30,45,64,84,106,125,145,164,184,204,225,246,265,284,305,324,345,365,384,405,424,445,466,486,505,525,545,564,584,605,624,644,665,685,704,724,744,765,786,804,824,845,864,884,904],"xSR":741.5,"ySR":469.95,"xT1":424.9,"yT1":0,"xT2":1058.1,"yT2":0,"toosoon":0,"cond_shown":"randomdotsizeEA","ratio_trial":500,"smaller_num":"6","larger_num":"12","correct_side":1,"subjID":"simonelsin7","gender":"0","age":"9","school":"4"},{"start_time":1552327806527,"click_time":1552327807932,"finger_time":1552327806971,"fix_duration":535.7375599934874,"trial":26,"RT":444,"MT":961,"sideResp":1,"stimulus":"img/500/randomdotsizeEA/L/5_Ratio_500_L_4_R_2.png","xmouse":[768,768,769,769,769,769,769,769,769,769,769,769,769,769,769,769,769,769,777,790,809,829,858,874,890,911,928,947,952,961,969,979,987,1001,1004,1006,1008,1008,1008,1008,1008,1008,1008,1008,1008,1007,1006,1004,1002,999,994,978,972,916,883,836,785,744,700,691,686,682,665,659,648,634,616,597,566,547,524],"ymouse":[508,508,509,509,509,509,509,509,509,509,509,509,509,509,509,509,509,509,508,506,500,494,471,452,440,424,412,394,387,374,362,345,330,303,291,283,277,277,277,277,277,277,277,276,276,276,276,276,276,276,277,280,280,281,281,273,261,248,221,209,195,177,140,133,124,113,102,93,77,71,64],"timestamp_mouse":[10,23,44,63,83,104,124,143,163,183,204,224,243,265,284,304,324,343,363,383,403,424,444,464,484,504,523,544,564,583,604,623,643,663,684,703,724,744,763,784,803,823,844,864,883,904,923,943,963,984,1004,1025,1044,1064,1083,1103,1123,1143,1163,1183,1203,1224,1245,1263,1283,1303,1324,1344,1363,1384,1404],"xSR":741.5,"ySR":469.95,"xT1":424.9,"yT1":0,"xT2":1058.1,"yT2":0,"toosoon":0,"cond_shown":"randomdotsizeEA","ratio_trial":500,"smaller_num":"2","larger_num":"4","correct_side":1,"subjID":"simonelsin7","gender":"0","age":"9","school":"4"},{"start_time":1552327809109,"click_time":1552327810171,"finger_time":1552327809810,"fix_duration":596.5825318858671,"trial":27,"RT":701,"MT":361,"sideResp":2,"stimulus":"img/500/equaldotanddens/R/15_Ratio_500_L_1_R_2.png","xmouse":[813,813,813,813,813,813,813,813,813,813,813,813,813,813,813,813,813,813,813,813,813,813,813,813,813,813,813,813,813,813,813,813,813,813,819,857,887,934,983,1031,1035,1036,1036,1032,1029,1029,1029,1029,1029,1029,1029,1034,1046,1077],"ymouse":[522,522,522,522,522,522,522,522,522,522,522,522,522,522,522,522,522,522,522,522,522,522,522,522,522,522,522,522,522,522,522,522,522,522,521,500,467,406,331,248,229,211,187,122,93,86,83,82,82,80,79,77,74,70],"timestamp_mouse":[16,39,41,62,82,101,121,141,162,181,201,221,242,261,281,302,321,341,361,382,402,421,442,462,482,502,522,542,561,582,603,622,641,662,681,701,721,741,761,781,801,822,841,862,881,901,922,942,961,981,1001,1021,1042,1062],"xSR":741.5,"ySR":469.95,"xT1":424.9,"yT1":0,"xT2":1058.1,"yT2":0,"toosoon":0,"cond_shown":"equaldotanddens","ratio_trial":500,"smaller_num":"1","larger_num":"2","correct_side":2,"subjID":"simonelsin7","gender":"0","age":"9","school":"4"},{"start_time":1552327813696,"click_time":1552327814571,"finger_time":1552327814391,"fix_duration":302.3243042319753,"trial":28,"RT":695,"MT":180,"sideResp":1,"stimulus":"img/250/equaldotsize/L/14_Ratio_250_L_12_R_3.png","xmouse":[759,759,759,759,759,759,759,759,759,759,759,759,757,757,757,757,757,757,757,757,757,757,757,757,757,757,757,757,757,757,757,757,757,756,745,734,714,692,666,598,558,538,525,512],"ymouse":[525,525,525,525,525,525,525,525,525,525,525,525,525,525,525,525,525,525,525,525,525,525,525,525,525,525,525,525,525,525,525,525,518,513,467,434,388,339,289,189,145,121,105,86],"timestamp_mouse":[16,36,56,76,94,115,134,154,174,195,215,234,255,275,296,314,334,356,374,394,414,435,454,474,495,515,535,555,575,595,616,634,654,674,695,714,735,754,774,794,814,834,855,875],"xSR":741.5,"ySR":469.95,"xT1":424.9,"yT1":0,"xT2":1058.1,"yT2":0,"toosoon":0,"cond_shown":"equaldotsize","ratio_trial":250,"smaller_num":"3","larger_num":"12","correct_side":1,"subjID":"simonelsin7","gender":"0","age":"9","school":"4"},{"start_time":1552327817402,"click_time":1552327818351,"finger_time":1552327818050,"fix_duration":730.8398765722247,"trial":29,"RT":648,"MT":301,"sideResp":2,"stimulus":"img/250/randomdotsizeEA/R/9_Ratio_250_L_3_R_12.png","xmouse":[785,785,785,785,783,782,782,781,781,781,781,781,781,781,781,781,781,781,781,781,781,781,781,781,781,781,781,781,781,783,793,807,831,924,947,958,964,970,986,993,995,997,1008,1039,1048,1054,1063,1075],"ymouse":[522,522,522,522,522,524,524,519,519,519,519,527,527,527,527,527,527,527,527,527,527,527,527,527,527,527,527,527,527,526,515,493,451,320,273,252,237,223,194,185,182,178,166,132,119,110,101,92],"timestamp_mouse":[11,31,48,68,88,108,129,148,169,189,208,228,248,268,288,308,329,349,368,389,409,429,448,468,490,508,530,549,568,589,608,628,648,669,688,708,728,748,769,788,809,828,848,870,888,908,928,949],"xSR":741.5,"ySR":469.95,"xT1":424.9,"yT1":0,"xT2":1058.1,"yT2":0,"toosoon":0,"cond_shown":"randomdotsizeEA","ratio_trial":250,"smaller_num":"3","larger_num":"12","correct_side":2,"subjID":"simonelsin7","gender":"0","age":"9","school":"4"},{"start_time":1552327819812,"click_time":1552327820490,"finger_time":1552327820270,"fix_duration":540.2828586335382,"trial":30,"RT":458,"MT":220,"sideResp":2,"stimulus":"img/500/equaldotanddens/R/14_Ratio_500_L_5_R_10.png","xmouse":[766,766,766,765,765,765,765,765,765,765,765,766,767,767,767,767,767,768,783,790,800,806,819,825,837,851,863,878,939,975,999,1013,1048,1072],"ymouse":[542,542,542,542,542,542,542,542,542,542,540,539,535,535,535,535,535,534,514,499,482,472,454,447,437,423,409,392,306,239,199,179,116,67],"timestamp_mouse":[19,38,59,79,98,120,138,159,178,198,219,238,258,278,299,319,339,358,378,398,418,439,458,478,498,518,539,559,578,598,619,638,659,678],"xSR":741.5,"ySR":469.95,"xT1":424.9,"yT1":0,"xT2":1058.1,"yT2":0,"toosoon":0,"cond_shown":"equaldotanddens","ratio_trial":500,"smaller_num":"5","larger_num":"10","correct_side":2,"subjID":"simonelsin7","gender":"0","age":"9","school":"4"},{"start_time":1552327822773,"click_time":1552327824190,"finger_time":1552327823352,"fix_duration":1340.9299433708277,"trial":31,"RT":579,"MT":838,"sideResp":2,"stimulus":"img/900/randomdotsizeEA/L/1_Ratio_900_L_10_R_9.png","xmouse":[788,788,788,788,788,788,788,788,788,788,788,788,788,788,788,789,795,802,807,809,810,810,811,811,811,811,811,810,804,797,759,744,732,725,722,722,722,722,722,721,719,718,715,710,696,688,686,686,686,686,686,686,686,689,729,759,788,814,842,919,935,971,993,1010,1026,1049,1054,1056,1058,1066,1073],"ymouse":[504,504,504,504,504,504,504,504,504,504,504,504,504,504,504,503,500,495,491,489,488,486,484,482,480,478,475,472,462,448,392,372,358,350,346,346,346,346,346,344,340,335,324,314,291,282,280,280,280,280,280,280,280,279,273,269,263,256,247,211,204,187,178,170,162,141,133,128,124,107,97],"timestamp_mouse":[17,38,59,77,98,118,138,157,178,197,217,237,257,279,298,317,337,358,378,397,418,437,458,478,498,517,538,558,579,598,617,637,657,677,698,718,737,758,777,798,817,838,857,878,898,917,937,958,977,998,1018,1038,1058,1078,1099,1117,1137,1158,1177,1199,1217,1238,1257,1277,1297,1317,1337,1358,1379,1398,1417],"xSR":741.5,"ySR":469.95,"xT1":424.9,"yT1":0,"xT2":1058.1,"yT2":0,"toosoon":0,"cond_shown":"randomdotsizeEA","ratio_trial":900,"smaller_num":"9","larger_num":"10","correct_side":1,"subjID":"simonelsin7","gender":"0","age":"9","school":"4"},{"start_time":1552327826375,"click_time":1552327827230,"finger_time":1552327826970,"fix_duration":1463.4980418472405,"trial":32,"RT":595,"MT":260,"sideResp":1,"stimulus":"img/500/equaldotsize/L/11_Ratio_500_L_12_R_6.png","xmouse":[796,796,796,796,796,796,796,796,796,796,796,796,796,796,796,796,796,796,796,796,796,796,796,796,796,796,790,785,771,724,665,627,590,557,511,493,480,473,472,475,480,484,490],"ymouse":[530,530,530,530,530,530,530,530,530,530,530,530,530,530,530,530,530,530,530,530,530,530,530,530,530,530,515,506,482,417,340,292,259,230,195,184,175,164,151,125,111,104,96],"timestamp_mouse":[15,40,55,75,97,116,135,156,175,195,215,236,255,277,296,315,335,355,377,396,415,436,457,476,496,516,536,556,575,595,615,636,655,675,696,715,736,755,776,797,815,835,855],"xSR":741.5,"ySR":469.95,"xT1":424.9,"yT1":0,"xT2":1058.1,"yT2":0,"toosoon":0,"cond_shown":"equaldotsize","ratio_trial":500,"smaller_num":"6","larger_num":"12","correct_side":1,"subjID":"simonelsin7","gender":"0","age":"9","school":"4"},{"start_time":1552327828494,"click_time":1552327830331,"finger_time":1552327828850,"fix_duration":702.7520688295263,"trial":33,"RT":356,"MT":1481,"sideResp":1,"stimulus":"img/500/randomdotsizeEA/L/11_Ratio_500_L_12_R_6.png","xmouse":[825,825,825,825,825,825,825,825,825,825,825,825,825,826,829,832,840,850,855,857,854,846,835,808,743,678,598,532,474,424,421,421,421,421,421,421,421,421,421,421,421,421,421,421,421,421,421,421,421,421,421,421,421,424,425,426,426,426,426,426,426,426,426,426,429,440,459,484,531,548,558,561,561,561,561,561,561,561,561,561,561,561,561,561,562,562,562,562,556,549,538,524],"ymouse":[500,500,500,500,500,500,500,500,500,500,500,500,500,501,495,487,475,452,424,380,361,349,341,328,284,242,199,176,154,141,139,139,139,138,138,138,138,138,138,138,138,138,138,138,138,138,138,138,138,138,138,139,142,153,154,155,155,155,155,155,155,155,155,155,158,162,167,174,188,194,196,197,197,197,197,197,197,197,197,197,197,197,197,197,193,187,177,169,149,134,116,97],"timestamp_mouse":[16,37,56,76,96,116,136,157,176,197,217,237,256,277,297,316,337,356,376,396,416,437,456,476,497,516,537,557,576,596,616,636,658,677,697,716,737,757,777,796,817,838,856,877,897,916,936,957,976,996,1017,1036,1056,1077,1096,1117,1136,1156,1176,1196,1217,1238,1257,1276,1297,1316,1337,1357,1377,1396,1416,1437,1456,1476,1496,1517,1537,1557,1577,1597,1617,1637,1656,1676,1698,1716,1737,1756,1777,1796,1816,1836],"xSR":741.5,"ySR":469.95,"xT1":424.9,"yT1":0,"xT2":1058.1,"yT2":0,"toosoon":0,"cond_shown":"randomdotsizeEA","ratio_trial":500,"smaller_num":"6","larger_num":"12","correct_side":1,"subjID":"simonelsin7","gender":"0","age":"9","school":"4"},{"start_time":1552327831342,"click_time":1552327832451,"finger_time":1552327831951,"fix_duration":250,"trial":34,"RT":609,"MT":500,"sideResp":2,"stimulus":"img/500/equaldotsize/R/9_Ratio_500_L_2_R_4.png","xmouse":[759,759,759,759,759,759,759,759,759,759,759,759,759,759,759,759,759,759,759,759,759,759,759,759,759,759,760,765,776,791,813,882,930,950,968,983,1015,1032,1050,1066,1081,1120,1128,1129,1129,1129,1129,1129,1129,1129,1128,1127,1120,1117,1114,1111],"ymouse":[518,518,518,518,518,518,518,518,518,518,518,518,518,518,518,517,517,517,517,517,517,517,517,517,517,517,516,512,502,488,467,386,308,276,255,238,205,190,177,165,156,135,130,130,130,130,130,130,129,129,127,126,119,114,103,93],"timestamp_mouse":[16,39,48,68,89,108,128,148,168,189,208,228,248,269,289,308,329,349,368,389,409,429,449,468,489,510,529,548,569,588,609,629,648,668,688,708,729,748,768,788,808,829,848,868,888,908,929,948,969,988,1008,1029,1048,1068,1088,1109],"xSR":741.5,"ySR":469.95,"xT1":424.9,"yT1":0,"xT2":1058.1,"yT2":0,"toosoon":0,"cond_shown":"equaldotsize","ratio_trial":500,"smaller_num":"2","larger_num":"4","correct_side":2,"subjID":"simonelsin7","gender":"0","age":"9","school":"4"},{"start_time":1552327833422,"click_time":1552327834350,"finger_time":1552327834171,"fix_duration":250,"trial":35,"RT":749,"MT":179,"sideResp":2,"stimulus":"img/900/equaldotsize/R/3_Ratio_900_L_9_R_10.png","xmouse":[770,770,770,770,770,770,770,770,770,770,770,770,770,770,770,770,770,770,771,771,771,771,771,771,771,771,771,771,771,771,771,771,772,773,778,785,798,858,920,980,1033,1064,1100,1114,1125,1133,1141],"ymouse":[533,533,533,533,533,533,533,533,533,533,533,533,533,533,533,533,533,533,532,526,523,523,523,523,523,523,523,522,522,522,522,522,522,521,518,512,502,445,370,288,226,191,149,130,115,104,96],"timestamp_mouse":[9,29,48,68,89,108,129,148,170,190,209,229,250,269,289,308,329,348,369,388,408,428,449,469,488,509,530,548,569,589,610,629,650,668,688,708,729,749,768,788,808,829,849,868,889,908,928],"xSR":741.5,"ySR":469.95,"xT1":424.9,"yT1":0,"xT2":1058.1,"yT2":0,"toosoon":0,"cond_shown":"equaldotsize","ratio_trial":900,"smaller_num":"9","larger_num":"10","correct_side":2,"subjID":"simonelsin7","gender":"0","age":"9","school":"4"},{"start_time":1552327835624,"click_time":1552327836432,"finger_time":1552327836031,"fix_duration":691.2215990124014,"trial":36,"RT":407,"MT":401,"sideResp":2,"stimulus":"img/250/equaldotsize/R/11_Ratio_250_L_3_R_12.png","xmouse":[785,785,785,785,785,785,785,785,785,785,785,785,785,785,787,788,790,798,808,824,847,894,1032,1092,1129,1149,1158,1174,1185,1195,1201,1203,1203,1203,1201,1198,1192,1174,1166,1160,1154],"ymouse":[497,497,497,497,497,497,497,497,497,497,497,497,497,497,497,497,496,494,491,481,467,444,335,275,232,204,192,168,146,125,110,102,97,95,93,89,85,76,75,75,75],"timestamp_mouse":[12,28,46,66,87,106,126,147,167,188,207,227,247,266,287,307,326,347,367,386,407,426,447,466,486,507,526,548,566,586,607,626,647,666,687,706,726,748,766,786,807],"xSR":741.5,"ySR":469.95,"xT1":424.9,"yT1":0,"xT2":1058.1,"yT2":0,"toosoon":0,"cond_shown":"equaldotsize","ratio_trial":250,"smaller_num":"3","larger_num":"12","correct_side":2,"subjID":"simonelsin7","gender":"0","age":"9","school":"4"},{"start_time":1552327838120,"click_time":1552327839871,"finger_time":1552327838490,"fix_duration":868.1255453753371,"trial":37,"RT":370,"MT":1381,"sideResp":1,"stimulus":"img/900/equaldotsize/R/15_Ratio_900_L_9_R_10.png","xmouse":[824,824,824,824,824,824,824,824,824,823,820,818,816,816,816,816,816,816,818,820,820,820,820,820,820,820,820,820,820,821,823,827,856,874,890,900,903,905,905,905,906,908,919,930,938,944,947,954,965,984,1006,1025,1059,1081,1089,1092,1095,1097,1101,1101,1101,1101,1101,1101,1096,1088,1077,1035,1009,975,940,902,873,798,763,733,705,655,629,605,586,572,562,547,543,537,527,505],"ymouse":[483,483,483,483,483,483,483,483,483,484,487,489,490,490,490,490,490,482,463,448,439,432,428,427,427,427,427,427,427,427,426,423,402,390,380,373,370,368,368,368,367,362,342,324,310,298,293,280,264,239,215,199,174,155,147,144,140,137,130,129,129,129,129,129,134,142,152,180,191,206,213,219,219,198,177,159,143,122,112,103,96,91,89,89,89,89,89,88],"timestamp_mouse":[10,38,50,71,92,111,131,151,170,190,210,231,251,270,290,311,330,351,370,390,410,431,451,471,490,510,531,551,572,591,611,630,652,671,690,711,731,751,770,790,810,831,851,870,891,911,931,950,970,990,1011,1030,1052,1070,1091,1110,1131,1151,1170,1191,1211,1230,1251,1271,1290,1311,1331,1351,1370,1391,1411,1430,1450,1471,1490,1510,1530,1551,1570,1590,1610,1630,1650,1671,1690,1711,1730,1751],"xSR":741.5,"ySR":469.95,"xT1":424.9,"yT1":0,"xT2":1058.1,"yT2":0,"toosoon":0,"cond_shown":"equaldotsize","ratio_trial":900,"smaller_num":"9","larger_num":"10","correct_side":2,"subjID":"simonelsin7","gender":"0","age":"9","school":"4"},{"start_time":1552327842001,"click_time":1552327842790,"finger_time":1552327842590,"fix_duration":1328.9181611532074,"trial":38,"RT":589,"MT":200,"sideResp":2,"stimulus":"img/900/equaldotsize/R/11_Ratio_900_L_18_R_20.png","xmouse":[790,790,790,790,790,790,790,790,790,790,790,790,790,790,790,790,790,790,790,790,790,790,790,790,793,795,799,806,822,848,871,902,933,975,992,1008,1035,1062,1088,1090],"ymouse":[511,511,511,511,511,511,511,511,511,511,511,511,511,511,511,511,511,511,511,511,511,511,511,510,508,507,505,501,488,465,441,399,358,305,285,262,221,171,108,95],"timestamp_mouse":[13,38,48,69,90,110,129,150,170,189,208,230,250,269,290,310,329,348,370,390,409,429,449,470,489,510,529,549,569,589,609,629,650,670,689,709,730,750,770,789],"xSR":741.5,"ySR":469.95,"xT1":424.9,"yT1":0,"xT2":1058.1,"yT2":0,"toosoon":0,"cond_shown":"equaldotsize","ratio_trial":900,"smaller_num":"18","larger_num":"20","correct_side":2,"subjID":"simonelsin7","gender":"0","age":"9","school":"4"},{"start_time":1552327845300,"click_time":1552327846390,"finger_time":1552327845690,"fix_duration":327.7236492300315,"trial":39,"RT":390,"MT":700,"sideResp":2,"stimulus":"img/900/equaldotsize/R/13_Ratio_900_L_18_R_20.png","xmouse":[794,794,794,794,794,794,794,794,794,794,794,794,794,793,793,793,793,793,803,809,815,818,820,821,824,824,825,826,837,852,871,887,900,922,934,942,949,958,986,998,1006,1014,1024,1050,1074,1088,1096,1098,1098,1098,1098,1100,1103,1110,1113],"ymouse":[539,539,539,539,539,539,539,539,539,539,539,539,539,539,539,539,537,533,487,467,454,448,445,444,443,442,442,442,431,414,391,369,345,305,284,270,257,240,200,183,172,164,153,136,125,119,116,115,115,115,115,113,112,102,97],"timestamp_mouse":[13,31,51,71,90,110,130,151,170,190,211,230,249,271,291,311,329,350,370,390,410,430,451,470,490,509,529,550,570,590,611,630,650,671,690,710,729,750,770,790,810,830,850,871,890,910,930,951,970,990,1010,1029,1051,1071,1090],"xSR":741.5,"ySR":469.95,"xT1":424.9,"yT1":0,"xT2":1058.1,"yT2":0,"toosoon":0,"cond_shown":"equaldotsize","ratio_trial":900,"smaller_num":"18","larger_num":"20","correct_side":2,"subjID":"simonelsin7","gender":"0","age":"9","school":"4"},{"start_time":1552327847241,"click_time":1552327848371,"finger_time":1552327848050,"fix_duration":250,"trial":40,"RT":809,"MT":321,"sideResp":2,"stimulus":"img/500/randomdotsizeEA/R/12_Ratio_500_L_1_R_2.png","xmouse":[831,831,831,831,831,831,831,831,831,831,831,831,828,825,822,820,819,819,819,819,819,819,819,819,819,819,818,817,817,817,817,817,817,817,817,817,817,817,820,833,858,931,965,989,1002,1005,1002,1000,1000,1000,1000,1018,1029,1043,1051,1055,1063],"ymouse":[531,531,531,531,531,531,531,531,531,531,531,532,532,532,532,532,532,532,532,532,532,532,532,532,532,532,532,533,533,533,533,533,533,533,533,533,533,533,529,517,493,407,358,311,267,235,183,145,123,105,92,52,37,26,21,21,27],"timestamp_mouse":[9,29,49,69,88,110,129,150,169,190,210,230,249,269,289,309,330,349,369,389,410,430,450,470,489,509,529,549,570,588,610,630,649,669,689,710,730,750,769,789,809,829,849,870,889,909,930,949,969,990,1009,1030,1049,1068,1088,1109,1130],"xSR":741.5,"ySR":469.95,"xT1":424.9,"yT1":0,"xT2":1058.1,"yT2":0,"toosoon":0,"cond_shown":"randomdotsizeEA","ratio_trial":500,"smaller_num":"1","larger_num":"2","correct_side":2,"subjID":"simonelsin7","gender":"0","age":"9","school":"4"},{"start_time":1552327850761,"click_time":1552327851650,"finger_time":1552327851391,"fix_duration":250,"trial":41,"RT":630,"MT":259,"sideResp":2,"stimulus":"img/250/equaldotanddens/R/12_Ratio_250_L_5_R_20.png","xmouse":[784,784,784,784,784,784,784,784,784,784,784,784,784,784,784,784,784,784,784,784,784,784,784,784,784,785,788,790,793,807,838,961,995,1020,1034,1047,1050,1054,1057,1060,1072,1078,1083,1087,1089],"ymouse":[525,525,525,525,525,525,525,525,525,525,525,525,525,525,525,525,525,525,525,525,525,525,525,525,527,528,531,532,533,532,514,382,338,300,273,239,220,197,178,167,146,128,112,102,93],"timestamp_mouse":[10,36,49,70,89,109,129,149,168,190,210,228,249,270,288,310,330,349,370,390,409,430,450,470,489,510,529,549,569,589,609,630,649,670,689,710,729,750,769,790,810,829,848,869,888],"xSR":741.5,"ySR":469.95,"xT1":424.9,"yT1":0,"xT2":1058.1,"yT2":0,"toosoon":0,"cond_shown":"equaldotanddens","ratio_trial":250,"smaller_num":"5","larger_num":"20","correct_side":2,"subjID":"simonelsin7","gender":"0","age":"9","school":"4"},{"start_time":1552327854327,"click_time":1552327855450,"finger_time":1552327855090,"fix_duration":436.7195266797903,"trial":42,"RT":763,"MT":360,"sideResp":2,"stimulus":"img/900/equaldotanddens/L/10_Ratio_900_L_20_R_18.png","xmouse":[788,788,788,789,790,790,791,791,791,791,791,791,791,791,791,791,791,792,793,793,793,793,793,793,793,794,794,794,794,794,794,794,797,808,815,816,817,834,859,907,945,979,1012,1056,1075,1083,1087,1099,1113,1138,1156,1170,1174,1174,1174,1167,1147],"ymouse":[512,512,512,512,512,512,512,512,512,512,512,512,512,513,513,513,514,519,520,520,520,520,521,523,523,524,524,524,524,524,524,524,522,511,505,503,503,494,480,451,418,384,349,288,256,241,235,222,205,172,145,124,115,113,112,104,75],"timestamp_mouse":[9,23,43,64,82,104,124,144,164,183,204,223,243,264,282,303,322,343,364,383,404,424,443,464,484,503,524,543,564,584,604,623,643,663,683,703,724,743,763,782,803,823,844,864,883,904,923,944,963,983,1003,1023,1042,1063,1083,1103,1123],"xSR":741.5,"ySR":469.95,"xT1":424.9,"yT1":0,"xT2":1058.1,"yT2":0,"toosoon":0,"cond_shown":"equaldotanddens","ratio_trial":900,"smaller_num":"18","larger_num":"20","correct_side":1,"subjID":"simonelsin7","gender":"0","age":"9","school":"4"},{"start_time":1552327857849,"click_time":1552327858890,"finger_time":1552327858610,"fix_duration":1176.2399301326095,"trial":43,"RT":761,"MT":280,"sideResp":1,"stimulus":"img/500/equaldotanddens/L/7_Ratio_500_L_10_R_5.png","xmouse":[785,785,785,785,785,785,785,785,785,785,785,785,785,785,785,785,785,785,785,785,785,785,785,785,785,785,785,785,785,785,785,785,785,785,785,785,785,785,779,762,743,727,701,691,683,670,633,617,603,589,576,559,518],"ymouse":[527,527,527,527,527,527,527,527,527,527,527,527,527,527,527,527,527,527,527,527,527,527,527,527,527,527,527,527,527,527,527,527,527,527,527,527,521,476,440,400,368,343,301,279,258,237,192,176,162,145,129,110,78],"timestamp_mouse":[9,33,41,61,82,102,122,141,162,180,202,221,242,262,281,301,321,341,362,381,400,421,442,462,481,501,522,541,562,581,601,621,642,662,682,701,721,742,761,781,801,820,841,862,881,901,922,942,961,982,1001,1020,1040],"xSR":741.5,"ySR":469.95,"xT1":424.9,"yT1":0,"xT2":1058.1,"yT2":0,"toosoon":0,"cond_shown":"equaldotanddens","ratio_trial":500,"smaller_num":"5","larger_num":"10","correct_side":1,"subjID":"simonelsin7","gender":"0","age":"9","school":"4"},{"start_time":1552327860097,"click_time":1552327860990,"finger_time":1552327860690,"fix_duration":546.8181739981608,"trial":44,"RT":593,"MT":300,"sideResp":2,"stimulus":"img/900/randomdotsizeEA/L/8_Ratio_900_L_20_R_18.png","xmouse":[811,811,811,811,811,811,811,811,811,811,811,811,811,811,811,811,811,811,811,811,811,811,811,811,811,811,817,822,838,892,926,973,1020,1064,1119,1147,1155,1155,1155,1155,1155,1156,1155,1152,1140],"ymouse":[521,521,521,521,521,521,521,521,521,521,521,521,521,521,521,521,521,521,521,521,521,521,521,521,521,521,515,511,489,403,361,309,262,217,167,140,133,133,133,133,133,133,131,126,99],"timestamp_mouse":[15,33,54,73,94,113,134,154,173,193,213,234,253,273,293,313,333,354,373,393,414,434,453,473,493,513,534,553,573,593,613,633,654,673,693,713,733,753,773,793,813,832,853,873,892],"xSR":741.5,"ySR":469.95,"xT1":424.9,"yT1":0,"xT2":1058.1,"yT2":0,"toosoon":0,"cond_shown":"randomdotsizeEA","ratio_trial":900,"smaller_num":"18","larger_num":"20","correct_side":1,"subjID":"simonelsin7","gender":"0","age":"9","school":"4"},{"start_time":1552327862549,"click_time":1552327863371,"finger_time":1552327863191,"fix_duration":838.4644577450917,"trial":45,"RT":642,"MT":180,"sideResp":2,"stimulus":"img/750/randomdotsizeEA/R/11_Ratio_750_L_12_R_16.png","xmouse":[770,770,770,770,770,770,770,770,770,770,770,770,770,770,770,770,770,770,770,770,770,770,770,770,770,770,770,775,787,801,821,918,958,992,1023,1060,1068,1073,1079,1084,1091],"ymouse":[540,540,540,540,540,540,540,540,540,540,540,540,540,540,540,540,540,540,540,540,540,540,540,540,540,540,540,538,523,505,482,385,341,301,260,185,159,140,124,110,89],"timestamp_mouse":[20,40,61,82,101,120,142,161,182,201,222,242,261,281,300,321,340,361,382,401,421,442,461,481,502,520,541,562,581,601,621,642,661,681,702,721,741,761,780,802,821],"xSR":741.5,"ySR":469.95,"xT1":424.9,"yT1":0,"xT2":1058.1,"yT2":0,"toosoon":0,"cond_shown":"randomdotsizeEA","ratio_trial":750,"smaller_num":"12","larger_num":"16","correct_side":2,"subjID":"simonelsin7","gender":"0","age":"9","school":"4"},{"start_time":1552327864730,"click_time":1552327865671,"finger_time":1552327865370,"fix_duration":678.9875563703068,"trial":46,"RT":640,"MT":301,"sideResp":1,"stimulus":"img/500/equaldotanddens/L/7_Ratio_500_L_10_R_5.png","xmouse":[803,803,803,803,803,803,803,803,803,803,803,803,803,803,803,803,803,803,803,803,803,803,803,803,803,803,803,803,803,803,797,791,743,711,671,635,607,565,555,548,546,546,546,545,543,539,533,523],"ymouse":[540,540,540,540,540,540,540,540,540,540,540,540,540,540,540,540,540,540,540,540,540,540,540,540,540,540,540,540,540,540,529,519,408,340,273,214,177,125,101,79,67,62,62,61,59,56,52,47],"timestamp_mouse":[10,21,40,60,81,101,121,140,161,181,200,220,240,261,281,300,320,340,361,380,399,421,441,461,480,501,521,541,561,580,600,620,640,659,680,700,720,740,760,780,801,820,841,861,880,901,920,940],"xSR":741.5,"ySR":469.95,"xT1":424.9,"yT1":0,"xT2":1058.1,"yT2":0,"toosoon":0,"cond_shown":"equaldotanddens","ratio_trial":500,"smaller_num":"5","larger_num":"10","correct_side":1,"subjID":"simonelsin7","gender":"0","age":"9","school":"4"},{"start_time":1552327866649,"click_time":1552327867451,"finger_time":1552327867210,"fix_duration":258.06602529450396,"trial":47,"RT":561,"MT":241,"sideResp":2,"stimulus":"img/900/equaldotanddens/R/9_Ratio_900_L_18_R_20.png","xmouse":[795,795,795,795,795,795,795,795,795,795,795,795,795,795,795,795,795,795,795,795,795,795,795,795,795,797,816,832,851,879,910,968,986,1002,1014,1024,1046,1055,1057,1058,1059],"ymouse":[528,528,528,528,528,528,528,528,528,528,528,528,528,528,528,528,528,528,528,528,528,528,528,528,528,528,503,479,450,400,339,228,199,176,155,135,103,94,90,87,86],"timestamp_mouse":[7,32,41,62,81,102,121,140,161,181,200,222,240,262,281,301,322,341,362,382,400,422,442,461,481,502,521,542,561,582,601,622,641,661,681,701,722,742,761,782,802],"xSR":741.5,"ySR":469.95,"xT1":424.9,"yT1":0,"xT2":1058.1,"yT2":0,"toosoon":0,"cond_shown":"equaldotanddens","ratio_trial":900,"smaller_num":"18","larger_num":"20","correct_side":2,"subjID":"simonelsin7","gender":"0","age":"9","school":"4"},{"start_time":1552327869519,"click_time":1552327870670,"finger_time":1552327870270,"fix_duration":1148.5904948266652,"trial":48,"RT":751,"MT":400,"sideResp":1,"stimulus":"img/750/randomdotsizeEA/L/14_Ratio_750_L_8_R_6.png","xmouse":[766,766,766,766,766,766,766,766,766,766,766,766,766,766,766,766,766,766,767,767,767,768,768,770,771,771,771,771,771,771,771,771,771,771,769,765,763,754,736,715,687,659,616,598,593,591,591,584,581,579,579,579,571,564,556,547,537,521],"ymouse":[524,524,524,524,524,524,524,524,524,524,524,524,524,524,524,524,524,524,522,522,522,522,520,519,518,517,517,517,517,517,517,517,513,509,500,491,484,459,415,349,285,232,166,138,119,93,61,17,8,5,4,4,4,4,4,6,12,27],"timestamp_mouse":[12,31,52,72,91,112,131,151,172,192,212,232,252,271,292,312,331,351,370,392,411,431,451,471,491,511,532,550,571,592,612,631,652,671,691,710,731,751,771,790,811,832,852,870,891,912,931,952,972,991,1011,1031,1051,1071,1091,1110,1131,1151],"xSR":741.5,"ySR":469.95,"xT1":424.9,"yT1":0,"xT2":1058.1,"yT2":0,"toosoon":0,"cond_shown":"randomdotsizeEA","ratio_trial":750,"smaller_num":"6","larger_num":"8","correct_side":1,"subjID":"simonelsin7","gender":"0","age":"9","school":"4"},{"start_time":1552327871638,"click_time":1552327872471,"finger_time":1552327872171,"fix_duration":367.1630928119608,"trial":49,"RT":533,"MT":300,"sideResp":2,"stimulus":"img/900/randomdotsizeEA/L/8_Ratio_900_L_20_R_18.png","xmouse":[812,812,812,812,812,812,812,812,812,812,812,812,812,812,812,812,812,812,812,812,812,812,812,812,819,827,876,899,917,934,959,1009,1024,1034,1043,1049,1055,1061,1063,1064,1065,1076],"ymouse":[537,537,537,537,537,537,537,537,537,537,537,537,537,537,537,537,537,537,537,537,537,537,537,537,533,524,470,443,421,401,373,306,277,254,233,210,170,147,136,125,113,82],"timestamp_mouse":[11,32,53,73,93,112,132,152,173,192,213,231,253,272,292,312,333,352,372,393,411,432,452,473,492,512,533,552,572,592,611,633,651,672,691,713,733,751,772,791,813,833],"xSR":741.5,"ySR":469.95,"xT1":424.9,"yT1":0,"xT2":1058.1,"yT2":0,"toosoon":0,"cond_shown":"randomdotsizeEA","ratio_trial":900,"smaller_num":"18","larger_num":"20","correct_side":1,"subjID":"simonelsin7","gender":"0","age":"9","school":"4"},{"start_time":1552327873654,"click_time":1552327875171,"finger_time":1552327874289,"fix_duration":381.01686234313115,"trial":50,"RT":635,"MT":882,"sideResp":1,"stimulus":"img/750/equaldotsize/L/14_Ratio_750_L_8_R_6.png","xmouse":[775,775,775,775,775,775,775,775,775,775,775,775,775,775,775,775,775,775,775,775,775,775,775,775,777,778,780,783,787,799,818,887,932,968,999,1029,1029,1029,1029,1029,1029,1027,1022,1019,1016,1015,1015,1015,1015,1015,1015,1013,1010,1005,997,988,946,926,904,881,829,800,773,749,725,672,640,623,609,598,578,566,553,538,529,521],"ymouse":[514,514,514,514,514,514,514,514,514,514,514,514,514,514,514,514,514,514,514,514,514,514,514,514,514,514,513,512,510,503,491,445,410,375,340,300,296,296,295,295,294,293,291,288,286,286,286,286,286,286,286,285,285,283,279,274,247,235,223,210,187,176,164,154,144,123,114,110,108,107,104,102,100,97,96,93],"timestamp_mouse":[16,36,56,77,96,116,135,157,176,197,217,236,256,276,295,317,336,357,376,397,417,437,456,476,496,517,536,556,576,595,615,635,656,676,696,717,735,756,777,796,817,836,856,876,895,917,937,955,976,996,1016,1035,1057,1077,1097,1116,1136,1156,1176,1196,1216,1235,1255,1277,1297,1316,1336,1356,1376,1396,1417,1436,1456,1475,1496,1516],"xSR":741.5,"ySR":469.95,"xT1":424.9,"yT1":0,"xT2":1058.1,"yT2":0,"toosoon":0,"cond_shown":"equaldotsize","ratio_trial":750,"smaller_num":"6","larger_num":"8","correct_side":1,"subjID":"simonelsin7","gender":"0","age":"9","school":"4"},{"start_time":1552327876715,"click_time":1552327877570,"finger_time":1552327877311,"fix_duration":783.351655666716,"trial":51,"RT":596,"MT":259,"sideResp":2,"stimulus":"img/500/equaldotanddens/R/3_Ratio_500_L_10_R_20.png","xmouse":[799,799,799,799,799,799,799,799,799,799,799,799,799,799,799,799,799,799,799,799,799,799,799,799,799,799,799,801,833,871,914,951,1022,1064,1080,1090,1093,1097,1098,1099,1101,1102,1105],"ymouse":[551,551,551,551,551,551,551,551,551,551,551,551,551,551,551,551,551,551,551,551,551,551,551,551,551,551,550,548,520,487,446,409,324,261,233,209,194,173,166,158,148,136,99],"timestamp_mouse":[14,34,55,75,95,114,136,155,176,196,215,235,255,274,296,315,335,355,375,396,415,436,455,475,496,516,535,555,574,596,615,634,655,674,695,716,735,755,775,795,815,835,855],"xSR":741.5,"ySR":469.95,"xT1":424.9,"yT1":0,"xT2":1058.1,"yT2":0,"toosoon":0,"cond_shown":"equaldotanddens","ratio_trial":500,"smaller_num":"10","larger_num":"20","correct_side":2,"subjID":"simonelsin7","gender":"0","age":"9","school":"4"},{"start_time":1552327879508,"click_time":1552327880450,"finger_time":1552327880270,"fix_duration":1237.3570368672035,"trial":52,"RT":762,"MT":180,"sideResp":1,"stimulus":"img/900/randomdotsizeEA/R/5_Ratio_900_L_9_R_10.png","xmouse":[818,818,818,818,818,818,818,818,818,818,818,818,818,818,818,818,818,818,818,818,818,818,818,818,818,818,818,818,818,818,818,818,817,814,799,788,770,750,691,662,642,624,610,572,536,518,504,494],"ymouse":[554,554,554,554,554,554,554,554,554,554,554,554,554,554,554,554,554,554,554,554,554,554,554,554,554,554,554,554,554,554,554,554,552,549,531,517,500,476,402,370,342,316,293,225,164,134,112,91],"timestamp_mouse":[10,22,41,63,83,103,122,141,161,182,203,223,241,263,283,302,321,343,362,383,403,422,442,462,483,502,523,542,563,581,603,623,643,662,682,702,722,742,762,782,802,821,843,863,882,902,922,941],"xSR":741.5,"ySR":469.95,"xT1":424.9,"yT1":0,"xT2":1058.1,"yT2":0,"toosoon":0,"cond_shown":"randomdotsizeEA","ratio_trial":900,"smaller_num":"9","larger_num":"10","correct_side":2,"subjID":"simonelsin7","gender":"0","age":"9","school":"4"},{"start_time":1552327881902,"click_time":1552327882670,"finger_time":1552327882510,"fix_duration":730.9740481649271,"trial":53,"RT":608,"MT":160,"sideResp":1,"stimulus":"img/250/equaldotanddens/L/7_Ratio_250_L_8_R_2.png","xmouse":[752,752,752,752,752,752,752,752,752,752,752,752,752,752,752,752,752,752,752,752,752,752,752,752,752,752,752,752,752,746,734,712,684,631,597,571,552,536,503],"ymouse":[507,507,507,507,507,507,507,507,507,507,507,507,507,507,507,507,507,507,507,507,507,507,507,507,507,507,507,507,502,484,455,406,346,253,193,157,135,116,78],"timestamp_mouse":[12,30,48,68,88,109,129,149,168,189,208,229,248,269,289,308,327,349,368,388,407,427,448,468,489,509,528,547,568,588,608,627,648,668,688,708,728,748,768],"xSR":741.5,"ySR":469.95,"xT1":424.9,"yT1":0,"xT2":1058.1,"yT2":0,"toosoon":0,"cond_shown":"equaldotanddens","ratio_trial":250,"smaller_num":"2","larger_num":"8","correct_side":1,"subjID":"simonelsin7","gender":"0","age":"9","school":"4"},{"start_time":1552327884620,"click_time":1552327885571,"finger_time":1552327885370,"fix_duration":1148.9861765764422,"trial":54,"RT":750,"MT":201,"sideResp":2,"stimulus":"img/500/randomdotsizeEA/L/4_Ratio_500_L_18_R_9.png","xmouse":[810,810,810,810,810,810,810,810,810,810,810,810,810,810,810,810,810,810,810,810,810,808,807,807,807,807,807,807,806,807,810,815,824,827,829,831,833,847,884,918,954,986,1027,1036,1042,1050,1055,1066],"ymouse":[533,533,533,533,533,533,533,533,533,533,533,533,533,533,533,533,533,533,533,533,533,532,530,529,528,527,526,525,525,522,518,511,497,491,486,482,478,459,415,373,319,263,176,147,121,95,78,49],"timestamp_mouse":[9,32,50,71,90,110,131,150,170,190,210,231,250,271,291,310,330,350,371,391,411,430,450,470,490,510,531,549,570,590,610,629,650,670,691,710,729,750,769,790,811,830,850,870,890,910,930,951],"xSR":741.5,"ySR":469.95,"xT1":424.9,"yT1":0,"xT2":1058.1,"yT2":0,"toosoon":0,"cond_shown":"randomdotsizeEA","ratio_trial":500,"smaller_num":"9","larger_num":"18","correct_side":1,"subjID":"simonelsin7","gender":"0","age":"9","school":"4"},{"start_time":1552327887380,"click_time":1552327888390,"finger_time":1552327888010,"fix_duration":1087.3131760920405,"trial":55,"RT":630,"MT":380,"sideResp":1,"stimulus":"img/500/randomdotsizeEA/L/4_Ratio_500_L_18_R_9.png","xmouse":[768,768,768,768,768,768,768,768,768,768,768,768,768,768,768,768,768,768,768,767,767,766,765,763,761,761,761,761,761,758,755,749,738,720,681,665,652,638,624,610,576,568,561,554,539,531,523,519,517,509,504],"ymouse":[542,542,542,542,542,542,542,542,542,542,542,542,542,542,542,542,542,542,542,542,541,540,538,536,534,533,532,531,528,511,487,464,433,394,335,313,290,264,241,218,176,169,162,153,132,124,119,116,114,108,95],"timestamp_mouse":[11,30,51,69,90,111,131,149,171,190,211,230,251,270,291,311,329,351,370,391,410,430,450,469,490,510,530,550,570,590,611,630,650,669,691,710,729,750,770,790,811,830,851,869,891,910,930,949,970,991,1010],"xSR":741.5,"ySR":469.95,"xT1":424.9,"yT1":0,"xT2":1058.1,"yT2":0,"toosoon":0,"cond_shown":"randomdotsizeEA","ratio_trial":500,"smaller_num":"9","larger_num":"18","correct_side":1,"subjID":"simonelsin7","gender":"0","age":"9","school":"4"},{"start_time":1552327891285,"click_time":1552327892531,"finger_time":1552327892150,"fix_duration":813.7554974129358,"trial":56,"RT":865,"MT":381,"sideResp":2,"stimulus":"img/750/randomdotsizeEA/L/9_Ratio_750_L_4_R_3.png","xmouse":[807,807,807,807,807,807,807,807,807,807,807,807,807,807,807,807,807,807,807,807,807,807,807,807,807,807,807,807,807,807,807,807,807,807,807,808,813,817,819,821,823,826,835,850,880,1020,1065,1098,1132,1174,1187,1196,1199,1200,1200,1200,1200,1200,1200,1200,1200,1200,1145],"ymouse":[519,519,519,519,519,519,519,519,519,519,519,519,519,519,519,519,519,519,519,519,519,519,519,519,519,519,519,519,519,519,519,519,519,519,519,518,515,513,511,511,510,509,504,494,471,348,294,240,196,124,96,70,52,39,28,1,1,1,1,1,1,1,6],"timestamp_mouse":[10,34,45,66,86,105,126,145,166,185,205,224,245,266,286,305,326,345,366,386,406,426,445,466,486,506,525,546,566,584,604,626,645,666,686,705,725,745,766,785,804,824,845,865,885,906,925,945,965,986,1005,1026,1045,1065,1085,1106,1125,1146,1165,1186,1206,1225,1245],"xSR":741.5,"ySR":469.95,"xT1":424.9,"yT1":0,"xT2":1058.1,"yT2":0,"toosoon":0,"cond_shown":"randomdotsizeEA","ratio_trial":750,"smaller_num":"3","larger_num":"4","correct_side":1,"subjID":"simonelsin7","gender":"0","age":"9","school":"4"},{"start_time":1552327894086,"click_time":1552327894930,"finger_time":1552327894690,"fix_duration":815.7696704262722,"trial":57,"RT":604,"MT":240,"sideResp":1,"stimulus":"img/500/equaldotanddens/L/8_Ratio_500_L_8_R_4.png","xmouse":[789,789,789,789,789,789,789,789,789,789,789,789,789,789,789,789,789,789,789,789,789,789,789,789,789,789,789,787,785,780,763,746,723,698,669,612,596,583,571,541,522,506,490],"ymouse":[509,509,509,509,509,509,509,509,509,509,509,509,509,509,509,509,509,509,509,509,509,509,509,509,509,509,509,508,504,493,459,432,392,358,312,236,207,187,173,145,127,109,91],"timestamp_mouse":[21,31,44,63,85,104,124,143,165,184,204,224,244,264,283,303,324,344,365,385,405,424,445,464,485,504,525,545,564,584,604,624,644,664,684,704,723,744,764,785,803,824,844],"xSR":741.5,"ySR":469.95,"xT1":424.9,"yT1":0,"xT2":1058.1,"yT2":0,"toosoon":0,"cond_shown":"equaldotanddens","ratio_trial":500,"smaller_num":"4","larger_num":"8","correct_side":1,"subjID":"simonelsin7","gender":"0","age":"9","school":"4"},{"start_time":1552327895922,"click_time":1552327896750,"finger_time":1552327896570,"fix_duration":250,"trial":58,"RT":648,"MT":180,"sideResp":1,"stimulus":"img/750/equaldotsize/L/6_Ratio_750_L_24_R_18.png","xmouse":[811,811,811,811,811,811,811,811,811,811,811,811,811,811,811,811,811,811,811,811,811,811,811,811,811,811,811,811,810,808,804,797,772,738,714,687,649,587,568,547,530,516],"ymouse":[512,512,512,512,512,512,512,512,512,512,512,512,512,512,512,512,512,512,512,512,512,512,512,512,512,512,512,512,510,509,505,490,441,392,363,333,292,209,168,131,93,71],"timestamp_mouse":[7,28,48,68,88,108,129,148,169,188,209,228,249,269,289,309,329,348,368,389,408,428,448,468,489,508,529,548,567,588,607,629,648,668,688,709,728,748,768,788,808,828],"xSR":741.5,"ySR":469.95,"xT1":424.9,"yT1":0,"xT2":1058.1,"yT2":0,"toosoon":0,"cond_shown":"equaldotsize","ratio_trial":750,"smaller_num":"18","larger_num":"24","correct_side":1,"subjID":"simonelsin7","gender":"0","age":"9","school":"4"},{"start_time":1552327899116,"click_time":1552327899890,"finger_time":1552327899730,"fix_duration":1483.115043064261,"trial":59,"RT":614,"MT":160,"sideResp":1,"stimulus":"img/250/equaldotanddens/L/14_Ratio_250_L_12_R_3.png","xmouse":[776,776,776,776,776,776,776,776,776,776,776,776,776,776,776,776,776,776,776,776,776,776,776,776,776,777,778,779,779,779,779,772,731,665,617,580,552,535,502],"ymouse":[498,498,498,498,498,498,498,498,498,498,498,498,498,498,498,498,498,498,498,498,498,498,498,498,498,498,497,490,486,478,466,444,364,259,194,148,120,101,66],"timestamp_mouse":[15,34,55,74,93,114,134,153,175,194,215,235,254,275,295,315,335,354,374,395,415,433,454,475,494,513,534,555,574,595,614,635,655,674,693,715,734,754,774],"xSR":741.5,"ySR":469.95,"xT1":424.9,"yT1":0,"xT2":1058.1,"yT2":0,"toosoon":0,"cond_shown":"equaldotanddens","ratio_trial":250,"smaller_num":"3","larger_num":"12","correct_side":1,"subjID":"simonelsin7","gender":"0","age":"9","school":"4"},{"start_time":1552327902985,"click_time":1552327904071,"finger_time":1552327903649,"fix_duration":993.2724556269401,"trial":60,"RT":664,"MT":422,"sideResp":2,"stimulus":"img/900/randomdotsizeEA/L/10_Ratio_900_L_20_R_18.png","xmouse":[800,801,801,803,804,809,815,821,821,826,835,838,838,839,840,840,840,840,840,840,840,840,840,840,840,840,840,840,840,840,840,840,841,842,849,861,884,918,968,1051,1089,1118,1146,1175,1220,1229,1235,1239,1240,1240,1239,1233,1220,1200,1141],"ymouse":[521,523,523,524,525,532,539,543,544,548,557,559,560,560,561,561,561,561,561,561,561,561,561,561,561,561,561,561,561,561,561,561,563,560,535,507,456,400,338,230,177,145,112,82,39,33,29,25,21,19,17,17,20,29,53],"timestamp_mouse":[9,37,45,65,86,104,124,144,166,185,206,226,244,264,284,305,325,346,366,385,406,425,444,465,485,506,526,545,565,584,605,625,646,664,686,704,724,744,764,786,805,825,844,864,885,904,925,944,965,985,1005,1025,1045,1065,1086],"xSR":741.5,"ySR":469.95,"xT1":424.9,"yT1":0,"xT2":1058.1,"yT2":0,"toosoon":0,"cond_shown":"randomdotsizeEA","ratio_trial":900,"smaller_num":"18","larger_num":"20","correct_side":1,"subjID":"simonelsin7","gender":"0","age":"9","school":"4"},{"start_time":1552327907433,"click_time":1552327908351,"finger_time":1552327908269,"fix_duration":1080.1676787606827,"trial":61,"RT":836,"MT":82,"sideResp":1,"stimulus":"img/750/equaldotanddens/L/1_Ratio_750_L_20_R_15.png","xmouse":[772,772,772,772,772,772,772,772,772,772,772,772,772,772,772,772,772,772,772,772,772,772,772,772,772,772,772,772,772,772,772,772,772,772,772,772,772,772,772,769,762,715,673,618,563,511],"ymouse":[533,533,533,533,533,533,533,533,533,533,533,533,533,533,533,533,533,533,533,533,533,533,533,533,533,533,533,533,533,533,533,533,533,533,533,533,533,533,533,524,511,403,319,232,158,90],"timestamp_mouse":[20,37,57,77,97,117,136,157,178,198,216,236,257,276,298,318,337,357,377,397,418,437,457,477,498,516,536,556,577,597,617,637,657,677,697,716,737,757,778,797,817,836,856,877,897,918],"xSR":741.5,"ySR":469.95,"xT1":424.9,"yT1":0,"xT2":1058.1,"yT2":0,"toosoon":0,"cond_shown":"equaldotanddens","ratio_trial":750,"smaller_num":"15","larger_num":"20","correct_side":1,"subjID":"simonelsin7","gender":"0","age":"9","school":"4"},{"start_time":1552327910280,"click_time":1552327911171,"finger_time":1552327910889,"fix_duration":1087.125317800675,"trial":62,"RT":609,"MT":282,"sideResp":2,"stimulus":"img/250/equaldotanddens/R/4_Ratio_250_L_3_R_12.png","xmouse":[826,826,826,826,826,826,826,826,826,826,826,826,826,826,826,826,826,826,826,826,826,826,826,826,826,826,826,826,829,835,864,882,893,905,949,991,1008,1018,1024,1035,1043,1051,1064,1079,1095],"ymouse":[493,493,493,493,493,493,493,493,493,493,493,493,493,493,493,493,493,493,493,493,493,493,493,493,493,493,493,493,490,484,452,423,399,378,290,213,192,181,174,160,151,141,127,111,89],"timestamp_mouse":[10,34,50,70,89,111,130,150,169,191,209,230,251,271,289,309,331,349,370,390,411,429,450,469,489,510,530,550,569,590,609,629,649,670,691,709,730,750,770,790,809,831,850,870,891],"xSR":741.5,"ySR":469.95,"xT1":424.9,"yT1":0,"xT2":1058.1,"yT2":0,"toosoon":0,"cond_shown":"equaldotanddens","ratio_trial":250,"smaller_num":"3","larger_num":"12","correct_side":2,"subjID":"simonelsin7","gender":"0","age":"9","school":"4"},{"start_time":1552327912187,"click_time":1552327913290,"finger_time":1552327912910,"fix_duration":355.26077270760146,"trial":63,"RT":723,"MT":380,"sideResp":2,"stimulus":"img/500/equaldotsize/R/2_Ratio_500_L_3_R_6.png","xmouse":[763,763,763,763,764,766,767,767,767,767,767,767,767,767,767,767,767,767,767,767,767,767,767,767,767,767,767,767,767,767,767,767,767,771,785,799,819,840,863,907,966,983,996,1006,1015,1021,1031,1042,1060,1077,1110,1116,1120,1121,1124,1126],"ymouse":[506,506,506,506,506,506,506,506,506,506,506,506,506,506,506,506,506,506,506,506,506,506,506,506,506,506,506,506,506,506,506,506,506,503,494,481,468,453,436,396,297,274,252,232,202,189,175,166,154,143,118,112,108,106,102,97],"timestamp_mouse":[5,32,43,63,82,102,122,144,164,183,202,223,243,263,283,302,324,343,362,382,403,423,444,464,483,503,522,543,564,584,603,624,643,662,683,702,723,743,762,782,803,822,843,862,883,902,922,943,963,982,1003,1022,1043,1062,1082,1103],"xSR":741.5,"ySR":469.95,"xT1":424.9,"yT1":0,"xT2":1058.1,"yT2":0,"toosoon":0,"cond_shown":"equaldotsize","ratio_trial":500,"smaller_num":"3","larger_num":"6","correct_side":2,"subjID":"simonelsin7","gender":"0","age":"9","school":"4"},{"start_time":1552327914939,"click_time":1552327916130,"finger_time":1552327915689,"fix_duration":747.7170788024855,"trial":64,"RT":750,"MT":441,"sideResp":2,"stimulus":"img/900/equaldotanddens/L/10_Ratio_900_L_20_R_18.png","xmouse":[798,798,798,798,798,798,798,798,798,798,798,798,798,798,798,798,798,798,798,798,798,798,798,798,798,798,798,798,798,798,798,798,798,798,800,802,816,834,856,877,911,987,998,1005,1008,1009,1011,1012,1017,1023,1031,1034,1047,1054,1062,1067,1074,1076,1080,1082],"ymouse":[505,505,505,505,505,505,505,505,505,505,506,506,507,507,507,507,507,507,507,507,507,507,507,507,507,507,507,507,507,507,507,505,499,496,493,488,470,451,430,408,368,277,261,248,237,227,212,203,191,179,159,152,130,121,111,105,102,102,100,99],"timestamp_mouse":[12,31,52,72,90,112,130,150,172,190,211,232,250,270,291,311,330,351,370,391,412,430,452,472,492,511,532,551,570,592,610,631,651,670,690,711,731,750,770,791,811,832,850,870,891,910,931,950,971,991,1011,1031,1051,1072,1092,1111,1131,1150,1171,1191],"xSR":741.5,"ySR":469.95,"xT1":424.9,"yT1":0,"xT2":1058.1,"yT2":0,"toosoon":0,"cond_shown":"equaldotanddens","ratio_trial":900,"smaller_num":"18","larger_num":"20","correct_side":1,"subjID":"simonelsin7","gender":"0","age":"9","school":"4"},{"start_time":1552327917221,"click_time":1552327918731,"finger_time":1552327918070,"fix_duration":250,"trial":65,"RT":849,"MT":661,"sideResp":2,"stimulus":"img/900/equaldotsize/L/8_Ratio_900_L_20_R_18.png","xmouse":[774,774,774,774,774,774,774,774,774,774,774,774,774,774,774,774,774,774,774,774,774,774,774,774,774,774,774,774,774,774,774,775,780,784,787,790,791,793,794,794,794,794,789,783,776,771,769,767,767,767,767,767,767,767,767,767,771,785,805,823,843,870,923,951,977,1001,1022,1061,1071,1077,1084,1089,1098,1104,1108,1112],"ymouse":[538,538,538,538,538,538,538,538,538,538,538,538,538,538,538,538,538,538,538,538,538,538,538,538,538,538,538,538,538,538,538,538,533,530,526,523,522,517,512,505,492,478,452,439,426,417,409,400,398,398,398,397,397,397,397,396,394,391,385,379,372,362,340,326,311,298,286,248,234,220,201,180,142,125,110,95],"timestamp_mouse":[12,28,49,70,89,109,128,150,168,189,208,230,249,268,289,309,329,350,369,388,409,429,449,470,489,510,530,549,569,588,609,628,648,668,688,708,729,749,769,788,810,829,849,868,889,909,928,950,969,989,1009,1030,1050,1069,1089,1108,1129,1149,1168,1188,1209,1229,1249,1268,1288,1308,1329,1350,1370,1389,1410,1430,1448,1468,1488,1509],"xSR":741.5,"ySR":469.95,"xT1":424.9,"yT1":0,"xT2":1058.1,"yT2":0,"toosoon":0,"cond_shown":"equaldotsize","ratio_trial":900,"smaller_num":"18","larger_num":"20","correct_side":1,"subjID":"simonelsin7","gender":"0","age":"9","school":"4"},{"start_time":1552327920176,"click_time":1552327920970,"finger_time":1552327920770,"fix_duration":724.3784924754962,"trial":66,"RT":594,"MT":200,"sideResp":2,"stimulus":"img/250/equaldotanddens/R/10_Ratio_250_L_4_R_16.png","xmouse":[775,775,775,775,775,775,775,775,775,775,775,775,775,775,775,775,775,775,775,775,775,775,775,775,775,775,779,784,797,845,922,967,1008,1052,1104,1115,1121,1124,1125,1136],"ymouse":[536,536,536,536,536,536,536,536,536,536,536,536,536,536,536,536,536,536,536,536,536,536,536,536,536,536,536,536,529,480,385,336,298,258,182,159,141,127,116,76],"timestamp_mouse":[16,40,55,74,94,114,134,153,175,194,214,235,254,273,294,313,334,354,374,395,414,434,455,473,493,514,534,554,574,594,614,633,654,673,694,714,733,753,773,794],"xSR":741.5,"ySR":469.95,"xT1":424.9,"yT1":0,"xT2":1058.1,"yT2":0,"toosoon":0,"cond_shown":"equaldotanddens","ratio_trial":250,"smaller_num":"4","larger_num":"16","correct_side":2,"subjID":"simonelsin7","gender":"0","age":"9","school":"4"},{"start_time":1552327922968,"click_time":1552327926289,"finger_time":1552327923990,"fix_duration":1215.055093492768,"trial":67,"RT":1022,"MT":2299,"sideResp":2,"stimulus":"img/750/equaldotsize/R/2_Ratio_750_L_6_R_8.png","xmouse":[793,793,793,793,793,793,793,793,793,793,793,793,793,793,793,793,793,793,793,793,793,793,793,793,793,793,793,793,793,793,793,793,793,793,794,811,820,831,838,840,841,841,841,841,841,841,840,839,839,839,839,838,837,835,832,818,811,801,795,789,784,765,753,742,729,704,693,680,668,652,628,612,603,594,589,579,576,568,566,564,557,552,548,545,543,541,539,539,539,539,539,539,539,539,539,539,539,539,539,539,539,539,539,539,539,539,539,539,539,539,539,539,539,539,539,539,539,539,539,539,539,539,539,539,539,539,539,539,539,539,539,539,539,539,539,539,539,539,539,539,539,539,539,539,539,539,539,539,539,539,539,539,539,539,539,539,539,539,538,546,645,694,748,822,912,1044,1062],"ymouse":[513,513,513,513,513,513,513,513,513,513,513,513,513,513,513,513,513,513,513,513,513,513,513,513,513,513,513,513,513,513,513,513,513,514,513,501,494,486,481,480,479,479,479,479,479,477,476,474,474,474,472,469,464,450,431,382,337,279,236,213,200,176,162,152,143,132,129,125,119,113,100,92,85,76,68,59,56,53,52,52,52,53,54,55,56,57,57,57,57,57,57,58,58,58,58,58,58,58,58,58,58,58,58,58,58,58,58,58,58,58,58,58,58,58,58,58,58,58,58,58,58,58,58,58,58,58,58,58,58,58,58,58,58,58,58,58,58,58,58,58,58,58,58,58,58,58,58,58,58,58,58,58,58,58,58,58,58,59,66,75,85,85,85,85,69,35,32],"timestamp_mouse":[9,29,42,62,81,103,121,141,163,183,203,222,242,262,282,302,323,342,363,382,402,422,443,463,483,502,521,543,562,582,602,623,643,661,681,702,721,742,761,782,803,821,842,863,881,903,923,943,962,981,1002,1022,1041,1063,1082,1103,1121,1142,1162,1181,1202,1222,1242,1262,1282,1303,1322,1342,1362,1382,1402,1421,1441,1461,1481,1502,1521,1543,1562,1581,1602,1622,1641,1661,1682,1702,1723,1742,1763,1782,1802,1822,1841,1862,1882,1903,1922,1942,1962,1982,2003,2023,2042,2063,2082,2101,2122,2142,2161,2183,2202,2222,2243,2261,2281,2302,2322,2343,2362,2383,2402,2421,2442,2462,2482,2502,2523,2542,2562,2582,2602,2622,2642,2662,2683,2702,2723,2741,2761,2782,2803,2821,2841,2861,2883,2902,2922,2943,2962,2983,3002,3022,3043,3062,3081,3101,3121,3143,3163,3182,3203,3223,3241,3263,3282,3301,3321],"xSR":741.5,"ySR":469.95,"xT1":424.9,"yT1":0,"xT2":1058.1,"yT2":0,"toosoon":0,"cond_shown":"equaldotsize","ratio_trial":750,"smaller_num":"6","larger_num":"8","correct_side":2,"subjID":"simonelsin7","gender":"0","age":"9","school":"4"},{"start_time":1552327928462,"click_time":1552327929889,"finger_time":1552327929370,"fix_duration":1431.589052553942,"trial":68,"RT":908,"MT":519,"sideResp":1,"stimulus":"img/750/equaldotanddens/L/9_Ratio_750_L_4_R_3.png","xmouse":[812,812,812,812,812,812,812,812,812,812,812,813,814,814,814,814,814,814,810,807,804,803,803,803,803,803,803,803,803,803,803,803,803,803,803,803,798,792,789,788,786,785,781,773,762,685,611,538,454,366,275,164,144,135,132,132,132,132,132,132,132,132,132,132,132,132,132,132,132,391,398,431],"ymouse":[551,551,551,551,551,551,551,551,551,551,551,551,549,549,549,549,549,549,549,547,545,540,539,539,539,539,539,539,539,539,539,539,539,539,539,539,526,515,510,508,507,505,500,492,478,399,337,276,218,165,115,44,26,10,3,3,3,3,3,3,3,3,3,3,3,3,3,3,3,2,7,28],"timestamp_mouse":[9,35,47,68,87,109,127,147,168,189,208,227,248,267,289,309,328,347,368,388,408,427,448,467,489,508,528,548,569,588,608,629,648,668,687,707,728,747,768,787,808,827,848,868,888,908,928,948,968,988,1008,1027,1048,1067,1087,1109,1127,1149,1168,1187,1208,1227,1248,1269,1288,1309,1328,1349,1368,1388,1408,1427],"xSR":741.5,"ySR":469.95,"xT1":424.9,"yT1":0,"xT2":1058.1,"yT2":0,"toosoon":0,"cond_shown":"equaldotanddens","ratio_trial":750,"smaller_num":"3","larger_num":"4","correct_side":1,"subjID":"simonelsin7","gender":"0","age":"9","school":"4"},{"start_time":1552327932044,"click_time":1552327933210,"finger_time":1552327932770,"fix_duration":1452.040636583741,"trial":69,"RT":726,"MT":440,"sideResp":1,"stimulus":"img/750/equaldotanddens/L/6_Ratio_750_L_24_R_18.png","xmouse":[787,787,787,787,787,787,787,787,787,787,787,787,787,787,787,787,787,787,787,787,786,785,785,785,785,783,781,781,781,781,781,781,781,781,781,780,745,726,711,700,692,663,641,625,614,603,590,577,572,567,564,563,563,563,563,561,552,529,510],"ymouse":[493,493,493,493,493,493,493,493,493,493,493,493,493,493,493,493,493,493,493,493,493,487,486,486,486,487,487,487,487,487,487,487,487,487,487,487,455,440,424,409,390,327,278,235,197,164,116,79,68,61,57,56,56,56,56,56,55,50,48],"timestamp_mouse":[13,36,45,66,87,106,125,145,167,187,207,227,246,267,286,306,326,346,365,385,405,426,447,467,485,506,526,545,567,585,606,627,646,666,685,705,726,745,766,787,806,826,845,866,886,906,926,945,965,986,1005,1027,1045,1066,1085,1105,1126,1146,1166],"xSR":741.5,"ySR":469.95,"xT1":424.9,"yT1":0,"xT2":1058.1,"yT2":0,"toosoon":0,"cond_shown":"equaldotanddens","ratio_trial":750,"smaller_num":"18","larger_num":"24","correct_side":1,"subjID":"simonelsin7","gender":"0","age":"9","school":"4"},{"start_time":1552327936276,"click_time":1552327937371,"finger_time":1552327937030,"fix_duration":1044.3320762597455,"trial":70,"RT":754,"MT":341,"sideResp":2,"stimulus":"img/900/equaldotsize/L/2_Ratio_900_L_20_R_18.png","xmouse":[781,781,781,781,781,781,781,781,781,781,781,781,781,781,781,781,781,781,781,781,781,781,781,781,781,781,781,781,781,781,781,781,781,781,781,779,776,770,767,759,757,757,759,765,793,816,851,893,940,988,1005,1025,1040,1052,1076],"ymouse":[523,523,523,523,523,523,523,523,523,523,523,523,523,523,523,523,523,523,523,523,523,523,523,523,523,523,523,523,523,523,523,523,523,523,522,497,480,463,441,388,358,334,315,301,267,249,227,203,181,154,139,124,114,104,90],"timestamp_mouse":[15,41,53,75,94,114,134,155,174,195,214,233,255,275,294,314,335,354,375,393,414,435,454,473,494,514,534,554,573,595,613,633,655,674,694,713,733,754,773,794,813,834,854,874,895,915,933,954,974,994,1014,1035,1054,1074,1094],"xSR":741.5,"ySR":469.95,"xT1":424.9,"yT1":0,"xT2":1058.1,"yT2":0,"toosoon":0,"cond_shown":"equaldotsize","ratio_trial":900,"smaller_num":"18","larger_num":"20","correct_side":1,"subjID":"simonelsin7","gender":"0","age":"9","school":"4"},{"start_time":1552327939881,"click_time":1552327940949,"finger_time":1552327940530,"fix_duration":250,"trial":71,"RT":649,"MT":419,"sideResp":1,"stimulus":"img/250/randomdotsizeEA/L/5_Ratio_250_L_24_R_6.png","xmouse":[785,785,785,785,785,785,785,785,785,785,785,785,785,785,785,785,785,785,785,786,790,791,791,791,791,791,791,791,791,791,791,790,779,745,651,599,576,558,551,540,536,534,533,533,533,536,539,540,540,540,537,534,530,523],"ymouse":[510,510,510,510,510,510,510,510,510,510,511,511,511,511,511,511,511,511,511,509,505,502,501,501,501,501,501,501,501,501,497,485,460,398,290,252,234,222,216,188,169,155,149,146,141,128,115,107,101,97,89,86,82,80],"timestamp_mouse":[12,34,48,68,88,110,129,150,170,189,209,229,250,270,289,309,330,349,368,389,409,430,448,469,490,510,529,550,569,590,608,629,649,669,690,709,729,749,768,789,808,829,849,868,889,909,929,949,969,989,1009,1029,1049,1068],"xSR":741.5,"ySR":469.95,"xT1":424.9,"yT1":0,"xT2":1058.1,"yT2":0,"toosoon":0,"cond_shown":"randomdotsizeEA","ratio_trial":250,"smaller_num":"6","larger_num":"24","correct_side":1,"subjID":"simonelsin7","gender":"0","age":"9","school":"4"},{"start_time":1552327943023,"click_time":1552327943911,"finger_time":1552327943591,"fix_duration":1272.4815124495738,"trial":72,"RT":568,"MT":320,"sideResp":2,"stimulus":"img/750/equaldotanddens/R/5_Ratio_750_L_15_R_20.png","xmouse":[805,805,805,805,805,805,805,805,805,805,805,805,805,805,805,805,805,805,805,805,805,805,805,805,805,805,811,834,867,881,907,935,946,946,946,946,946,947,954,961,969,976,1010,1053,1115],"ymouse":[533,533,533,533,533,533,533,533,533,533,533,533,533,533,533,533,533,533,533,533,533,533,533,533,533,533,533,532,520,493,429,367,318,317,317,317,317,317,312,293,256,215,135,96,59],"timestamp_mouse":[13,28,47,68,88,108,128,147,166,188,208,226,246,267,286,306,327,347,367,388,407,427,446,467,488,506,527,546,568,586,607,627,647,667,686,707,727,747,768,787,808,827,847,866,888],"xSR":741.5,"ySR":469.95,"xT1":424.9,"yT1":0,"xT2":1058.1,"yT2":0,"toosoon":0,"cond_shown":"equaldotanddens","ratio_trial":750,"smaller_num":"15","larger_num":"20","correct_side":2,"subjID":"simonelsin7","gender":"0","age":"9","school":"4"},{"start_time":1552327947342,"click_time":1552327948289,"finger_time":1552327947989,"fix_duration":731.2443829433289,"trial":73,"RT":647,"MT":300,"sideResp":2,"stimulus":"img/900/equaldotsize/R/5_Ratio_900_L_9_R_10.png","xmouse":[785,785,785,785,785,785,785,785,785,785,785,785,785,785,785,785,785,785,785,785,785,785,785,785,785,785,785,785,787,792,807,830,866,882,900,917,944,948,951,954,960,979,1001,1018,1031,1043,1053,1068],"ymouse":[530,530,530,530,530,530,530,530,530,530,530,530,530,530,530,530,530,530,530,530,530,530,530,530,530,530,530,530,530,528,510,483,428,394,352,311,249,231,221,212,203,172,144,126,112,103,99,91],"timestamp_mouse":[9,38,48,68,89,108,128,147,169,187,208,227,249,268,287,307,328,347,369,387,408,428,447,467,488,509,528,548,568,58