[{"start_time":1552327148863,"click_time":1552327158678,"finger_time":1552327150337,"fix_duration":1038.372001902807,"trial":0,"RT":1474,"MT":8341,"sideResp":2,"stimulus":[],"xmouse":[794,794,794,794,794,794,794,794,794,794,794,794,794,794,794,794,794,794,794,794,794,794,794,794,794,794,794,794,794,794,794,794,794,794,794,794,794,794,794,794,794,794,794,794,794,794,794,794,794,794,794,794,794,794,794,794,794,794,794,794,794,794,794,794,794,794,794,794,794,794,793,789,784,778,775,770,730,686,619,583,563,538,527,515,507,503,500,500,500,500,500,500,500,500,500,500,500,500,500,500,500,500,500,500,500,500,501,501,502,502,502,502,502,502,503,503,509,515,520,522,525,547,567,584,590,596,606,609,613,616,617,617,617,617,617,617,617,617,617,617,617,617,617,617,617,617,617,617,617,617,617,617,617,617,617,617,617,617,617,617,617,617,617,617,617,617,617,617,617,617,617,617,617,617,617,617,617,617,617,617,617,617,617,617,617,617,617,617,617,617,617,617,617,617,617,617,617,617,617,617,617,617,617,617,617,617,617,617,617,617,617,617,617,617,617,617,617,617,617,617,617,617,617,617,617,617,617,617,617,617,617,617,617,617,617,617,617,617,617,617,617,617,617,617,617,617,617,617,617,617,617,617,617,617,617,617,617,617,617,617,617,617,617,617,617,617,617,617,617,617,617,617,617,617,617,617,617,617,617,617,617,617,617,617,617,617,617,617,617,617,617,617,617,617,617,617,617,617,617,617,617,617,617,617,617,617,617,617,617,617,617,617,617,617,617,617,617,617,617,617,617,617,617,617,617,617,617,617,617,617,617,617,617,617,617,617,617,617,617,617,617,617,617,617,617,617,617,617,617,617,617,617,617,617,617,617,617,617,617,617,617,617,617,617,617,617,617,617,617,617,617,617,617,617,617,617,617,617,617,617,617,617,617,617,617,617,617,617,617,617,617,617,617,617,617,617,617,617,617,617,617,617,617,617,617,617,617,617,617,617,617,617,617,617,617,617,617,617,617,617,617,617,617,617,617,617,617,617,617,617,617,617,617,617,617,617,617,617,617,617,617,617,617,617,617,617,617,617,617,617,617,617,617,617,617,617,617,617,617,617,617,617,617,617,617,617,617,617,617,617,617,617,617,617,617,617,617,617,619,621,624,677,737,789,830,867,953,1028,1057,1075,1086,1094],"ymouse":[509,509,509,509,509,509,509,509,509,509,509,509,509,509,509,509,509,509,509,509,509,509,509,509,509,509,509,509,509,509,509,509,509,509,509,509,509,509,509,509,509,509,509,509,509,509,509,509,509,509,509,509,509,509,509,509,509,509,509,509,509,509,509,509,509,509,509,509,509,509,508,491,483,473,464,448,362,304,231,205,191,168,153,137,127,123,118,118,118,118,118,118,118,118,118,118,118,118,118,118,118,118,118,118,118,118,121,123,124,124,124,124,124,124,127,127,143,161,170,175,179,192,203,212,215,217,233,244,256,260,261,261,261,261,261,261,261,261,261,261,261,261,261,261,261,261,261,261,261,261,261,261,261,261,261,261,261,261,261,261,261,261,261,261,261,261,261,261,261,261,261,261,261,261,261,261,261,261,261,261,261,261,261,261,261,261,261,261,261,261,261,261,261,261,261,261,261,261,261,261,261,261,261,261,261,261,261,261,261,261,261,261,261,261,261,261,261,261,261,261,261,261,261,261,261,261,261,261,261,261,261,261,261,261,261,261,261,261,261,261,261,261,261,261,261,261,261,261,261,261,261,261,261,261,261,261,261,261,261,261,261,261,261,261,261,261,261,261,261,261,261,261,261,261,261,261,261,261,261,261,261,261,261,261,261,261,261,261,261,261,261,261,261,261,261,261,261,261,261,261,261,261,261,261,261,261,261,261,261,261,261,261,261,261,261,261,261,261,261,261,261,261,261,261,261,261,261,261,261,261,261,261,261,261,261,261,261,261,261,261,261,261,261,261,261,261,261,261,261,261,261,261,261,261,261,261,261,261,261,261,261,261,261,261,261,261,261,261,261,261,261,261,261,261,261,261,261,261,261,261,261,261,261,261,261,261,261,261,261,261,261,261,261,261,261,261,261,261,261,261,261,261,261,261,261,261,261,261,261,261,261,261,261,261,261,261,261,261,261,261,261,261,261,261,261,261,261,261,261,261,261,261,261,261,261,261,261,261,261,261,261,261,261,261,261,261,261,261,261,261,261,261,261,261,261,261,261,261,261,261,261,261,261,261,261,261,261,261,261,261,261,261,261,261,261,261,261,261,260,258,256,255,255,255,249,240,196,159,139,120,102,62],"timestamp_mouse":[1,15,34,55,76,94,115,135,155,176,195,214,235,254,275,294,314,334,354,375,396,414,436,456,475,495,515,535,555,576,594,616,636,655,676,694,716,736,755,776,795,814,835,855,875,894,915,935,954,975,996,1015,1035,1056,1075,1094,1115,1136,1155,1176,1196,1214,1236,1256,1276,1295,1315,1335,1355,1376,1395,1415,1435,1456,1474,1494,1514,1535,1554,1575,1594,1614,1636,1655,1675,1695,1714,1735,1755,1774,1795,1815,1836,1856,1875,1896,1916,1935,1956,1974,1995,2014,2035,2056,2075,2095,2115,2135,2155,2175,2195,2215,2236,2254,2275,2295,2315,2335,2355,2375,2395,2415,2434,2454,2474,2495,2515,2535,2555,2576,2596,2615,2634,2655,2674,2696,2714,2736,2755,2775,2794,2814,2834,2854,2874,2895,2916,2936,2955,2975,2996,3016,3036,3054,3075,3096,3114,3134,3155,3176,3196,3216,3235,3256,3274,3294,3314,3335,3356,3375,3397,3414,3434,3454,3476,3496,3516,3536,3554,3575,3596,3614,3635,3655,3676,3695,3715,3735,3755,3775,3795,3815,3836,3856,3875,3895,3914,3935,3954,3974,3995,4016,4036,4055,4075,4096,4116,4136,4155,4175,4194,4216,4236,4256,4275,4295,4315,4335,4356,4375,4396,4415,4436,4456,4476,4494,4514,4534,4555,4575,4596,4614,4635,4656,4675,4695,4714,4735,4756,4776,4795,4815,4836,4856,4874,4895,4915,4935,4956,4975,4995,5015,5035,5055,5074,5096,5114,5135,5154,5175,5194,5215,5236,5255,5275,5295,5315,5335,5355,5375,5396,5414,5435,5455,5474,5496,5515,5536,5555,5575,5596,5616,5634,5655,5674,5695,5715,5735,5756,5775,5795,5815,5835,5856,5876,5895,5914,5935,5954,5976,5995,6015,6036,6055,6075,6095,6114,6134,6156,6176,6195,6216,6236,6256,6276,6295,6315,6335,6355,6375,6396,6415,6435,6455,6475,6496,6514,6535,6556,6575,6595,6615,6635,6655,6675,6695,6714,6735,6756,6775,6796,6815,6836,6856,6876,6896,6916,6934,6954,6975,6994,7015,7034,7056,7075,7095,7115,7135,7155,7175,7195,7214,7234,7256,7276,7294,7314,7334,7355,7375,7395,7415,7436,7456,7475,7495,7516,7534,7555,7575,7594,7615,7635,7655,7676,7696,7715,7735,7756,7775,7795,7816,7835,7855,7874,7895,7914,7935,7955,7975,7996,8015,8036,8055,8076,8095,8114,8136,8154,8175,8195,8215,8235,8256,8275,8296,8315,8335,8356,8374,8395,8414,8435,8455,8475,8496,8515,8536,8556,8574,8595,8615,8636,8656,8675,8695,8714,8735,8754,8775,8796,8816,8835,8854,8875,8895,8915,8936,8956,8975,8996,9015,9035,9055,9075,9095,9116,9135,9155,9175,9196,9214,9234,9255,9274,9296,9315,9335,9356,9375,9397,9415,9436,9456,9475,9496,9516,9536,9554,9575,9595,9614,9635,9655,9675,9695,9714,9736,9756,9775,9796,9814],"xSR":741.5,"ySR":469.95,"xT1":424.9,"yT1":0,"xT2":1058.1,"yT2":0,"toosoon":0,"cond_shown":"Incongruent","ratio_trial":300,"L_num":4,"L_den":20,"R_num":2,"R_den":4,"correct_side":2,"subjID":"simonelsin7","gender":"0","age":"9","school":"4","test":{"fix_dur":[250,1500],"timestim":1000,"targets_dim":[100,100],"targets_relative_coord":[0.3,0.7],"size_stim":[880,420],"start_dim":[100,100],"size_start":[300,300],"size_fix":60,"samplingrate":20,"img_types":["Congruent","Incongruent"],"ratios":[100,200,300],"rep_conds":19,"nTrials":120,"trials_to_rest":500,"Trials_order":[95,81,97,54,69,71,0,6,26,76,94,100,58,21,105,40,80,87,17,25,118,109,73,104,89,101,77,107,4,48,23,28,38,8,24,85,47,29,39,49,61,7,83,114,55,52,34,117,44,111,116,18,3,46,91,11,96,41,56,51,35,20,86,78,5,10,37,79,60,115,98,119,1,102,75,57,14,50,15,72,22,13,62,59,30,88,113,108,90,82,66,110,64,106,70,2,31,33,84,36,43,32,103,65,19,16,63,12,68,67,99,53,27,74,42,45,93,112,92,9],"cond_shown":["Incongruent","Incongruent","Incongruent","Congruent","Incongruent","Incongruent","Congruent","Congruent","Congruent","Congruent","Congruent","Congruent","Congruent","Incongruent","Incongruent","Congruent","Congruent","Incongruent","Incongruent","Incongruent","Congruent","Incongruent","Incongruent","Congruent","Incongruent","Incongruent","Incongruent","Incongruent","Congruent","Congruent","Incongruent","Congruent","Congruent","Congruent","Congruent","Incongruent","Incongruent","Incongruent","Incongruent","Incongruent","Incongruent","Incongruent","Incongruent","Congruent","Incongruent","Congruent","Congruent","Incongruent","Congruent","Incongruent","Congruent","Congruent","Incongruent","Congruent","Incongruent","Incongruent","Congruent","Incongruent","Congruent","Incongruent","Incongruent","Congruent","Congruent","Congruent","Incongruent","Congruent","Incongruent","Incongruent","Congruent","Incongruent","Congruent","Incongruent","Incongruent","Congruent","Incongruent","Incongruent","Congruent","Congruent","Incongruent","Congruent","Congruent","Incongruent","Congruent","Incongruent","Congruent","Congruent","Incongruent","Congruent","Congruent","Congruent","Congruent","Congruent","Congruent","Congruent","Congruent","Congruent","Incongruent","Incongruent","Congruent","Congruent","Incongruent","Congruent","Incongruent","Incongruent","Incongruent","Congruent","Incongruent","Congruent","Congruent","Incongruent","Incongruent","Incongruent","Incongruent","Congruent","Congruent","Incongruent","Incongruent","Congruent","Congruent","Incongruent"],"ratio_trial":[300,200,100,100,200,300,100,100,200,300,300,300,300,200,200,300,200,200,300,100,300,100,100,200,300,300,300,300,300,100,300,300,200,200,100,100,300,300,200,100,100,100,300,100,100,300,300,200,200,200,200,100,200,300,100,300,100,300,200,200,300,200,200,100,300,300,100,100,100,100,200,300,100,100,200,200,200,200,200,100,300,100,200,300,100,300,300,100,100,300,100,200,300,300,300,200,100,200,100,100,100,200,100,300,100,300,200,100,200,100,200,300,200,200,100,200,200,300,200,200],"left_num":[4,9,13,12,1,7,7,1,7,5,5,3,1,14,6,1,8,6,13,13,20,10,8,13,3,13,4,3,1,2,4,20,16,9,10,3,8,1,7,8,10,2,4,15,11,20,5,3,3,14,6,4,4,2,13,4,10,1,5,4,13,11,6,2,3,1,3,3,12,6,8,13,8,9,3,1,3,6,3,6,1,3,12,1,15,11,4,9,9,12,15,3,4,5,24,16,2,3,11,8,2,5,9,7,17,20,4,10,7,8,14,4,1,13,2,3,7,8,20,3],"right_num":[2,8,12,13,2,8,15,3,18,7,7,4,3,6,3,8,3,3,12,12,9,8,1,14,4,12,2,4,11,11,6,9,12,13,3,7,9,3,4,1,8,8,6,13,9,13,7,1,14,12,3,15,6,10,12,2,3,3,14,14,12,3,11,11,4,3,4,11,13,3,2,12,1,8,11,3,7,11,11,5,19,11,6,2,13,1,2,8,8,2,13,7,2,7,8,9,6,1,4,2,8,14,13,8,10,13,1,3,18,1,6,2,3,14,6,1,4,10,9,1],"left_den":[20,15,26,30,3,10,14,2,15,25,25,6,5,30,20,30,15,20,26,26,25,25,20,26,6,26,20,6,5,5,5,25,20,30,25,9,10,2,15,20,25,4,5,25,22,25,25,10,6,30,15,10,5,20,26,20,25,2,10,6,26,22,20,5,6,5,6,5,30,12,15,26,20,15,4,2,10,20,4,20,3,5,15,2,25,22,20,15,15,24,25,10,5,25,30,30,4,10,22,16,4,10,15,10,30,25,30,25,15,20,30,20,2,26,5,10,15,15,25,10],"right_den":[4,10,20,26,15,20,25,5,27,14,14,5,6,9,6,24,9,6,15,20,18,16,2,20,20,15,4,20,22,22,12,18,20,26,10,30,18,15,6,2,16,20,12,26,15,26,14,2,20,18,15,30,10,25,20,4,10,15,20,30,15,10,22,22,20,6,10,22,26,5,6,15,2,16,20,10,14,22,20,25,30,22,10,10,26,5,4,16,16,10,26,14,4,14,16,27,15,2,10,5,20,20,26,20,15,26,3,10,27,2,9,4,10,20,12,2,6,12,15,2],"correct_side":[2,2,2,2,1,1,2,2,2,2,2,2,2,2,2,2,1,2,2,2,1,2,2,2,1,2,2,1,2,2,1,1,1,2,1,1,1,1,2,2,2,1,1,1,2,1,2,2,2,2,1,2,1,2,2,2,1,1,2,1,2,1,2,2,1,2,1,1,2,2,1,2,2,1,1,1,2,2,1,1,2,1,1,1,1,1,2,1,1,1,1,2,1,2,1,1,1,2,1,1,1,2,1,1,2,1,2,1,2,2,2,2,1,2,2,2,2,2,1,2],"img_shown":["img2/300/Incongruent/R/I_Dist_300_LN_4_LD_20_RN_2_RD_4_1.png","img2/200/Incongruent/R/I_Dist_200_LN_9_LD_15_RN_8_RD_10_1.png","img2/100/Incongruent/R/I_Dist_100_LN_13_LD_26_RN_12_RD_20_1.png","img2/100/Congruent/R/C_Dist_100_LN_12_LD_30_RN_13_RD_26_1.png","img2/200/Incongruent/L/I_Dist_200_LN_1_LD_3_RN_2_RD_15_0.png","img2/300/Incongruent/L/I_Dist_300_LN_7_LD_10_RN_8_RD_20_0.png","img2/100/Congruent/R/C_Dist_100_LN_7_LD_14_RN_15_RD_25_1.png","img2/100/Congruent/R/C_Dist_100_LN_1_LD_2_RN_3_RD_5_1.png","img2/200/Congruent/R/C_Dist_200_LN_7_LD_15_RN_18_RD_27_1.png","img2/300/Congruent/R/C_Dist_300_LN_5_LD_25_RN_7_RD_14_1.png","img2/300/Congruent/R/C_Dist_300_LN_5_LD_25_RN_7_RD_14_1.png","img2/300/Congruent/R/C_Dist_300_LN_3_LD_6_RN_4_RD_5_1.png","img2/300/Congruent/R/C_Dist_300_LN_1_LD_5_RN_3_RD_6_1.png","img2/200/Incongruent/R/I_Dist_200_LN_14_LD_30_RN_6_RD_9_1.png","img2/200/Incongruent/R/I_Dist_200_LN_6_LD_20_RN_3_RD_6_1.png","img2/300/Congruent/R/C_Dist_300_LN_1_LD_30_RN_8_RD_24_1.png","img2/200/Congruent/L/C_Dist_200_LN_8_LD_15_RN_3_RD_9_0.png","img2/200/Incongruent/R/I_Dist_200_LN_6_LD_20_RN_3_RD_6_1.png","img2/300/Incongruent/R/I_Dist_300_LN_13_LD_26_RN_12_RD_15_1.png","img2/100/Incongruent/R/I_Dist_100_LN_13_LD_26_RN_12_RD_20_1.png","img2/300/Congruent/L/C_Dist_300_LN_20_LD_25_RN_9_RD_18_0.png","img2/100/Incongruent/R/I_Dist_100_LN_10_LD_25_RN_8_RD_16_1.png","img2/100/Incongruent/R/I_Dist_100_LN_8_LD_20_RN_1_RD_2_1.png","img2/200/Congruent/R/C_Dist_200_LN_13_LD_26_RN_14_RD_20_1.png","img2/300/Incongruent/L/I_Dist_300_LN_3_LD_6_RN_4_RD_20_0.png","img2/300/Incongruent/R/I_Dist_300_LN_13_LD_26_RN_12_RD_15_1.png","img2/300/Incongruent/R/I_Dist_300_LN_4_LD_20_RN_2_RD_4_1.png","img2/300/Incongruent/L/I_Dist_300_LN_3_LD_6_RN_4_RD_20_0.png","img2/300/Congruent/R/C_Dist_300_LN_1_LD_5_RN_11_RD_22_1.png","img2/100/Congruent/R/C_Dist_100_LN_2_LD_5_RN_11_RD_22_1.png","img2/300/Incongruent/L/I_Dist_300_LN_4_LD_5_RN_6_RD_12_0.png","img2/300/Congruent/L/C_Dist_300_LN_20_LD_25_RN_9_RD_18_0.png","img2/200/Congruent/L/C_Dist_200_LN_16_LD_20_RN_12_RD_20_0.png","img2/200/Congruent/R/C_Dist_200_LN_9_LD_30_RN_13_RD_26_1.png","img2/100/Congruent/L/C_Dist_100_LN_10_LD_25_RN_3_RD_10_0.png","img2/100/Incongruent/L/I_Dist_100_LN_3_LD_9_RN_7_RD_30_0.png","img2/300/Incongruent/L/I_Dist_300_LN_8_LD_10_RN_9_RD_18_0.png","img2/300/Incongruent/L/I_Dist_300_LN_1_LD_2_RN_3_RD_15_0.png","img2/200/Incongruent/R/I_Dist_200_LN_7_LD_15_RN_4_RD_6_1.png","img2/100/Incongruent/R/I_Dist_100_LN_8_LD_20_RN_1_RD_2_1.png","img2/100/Incongruent/R/I_Dist_100_LN_10_LD_25_RN_8_RD_16_1.png","img2/100/Incongruent/L/I_Dist_100_LN_2_LD_4_RN_8_RD_20_0.png","img2/300/Incongruent/L/I_Dist_300_LN_4_LD_5_RN_6_RD_12_0.png","img2/100/Congruent/L/C_Dist_100_LN_15_LD_25_RN_13_RD_26_0.png","img2/100/Incongruent/R/I_Dist_100_LN_11_LD_22_RN_9_RD_15_1.png","img2/300/Congruent/L/C_Dist_300_LN_20_LD_25_RN_13_RD_26_0.png","img2/300/Congruent/R/C_Dist_300_LN_5_LD_25_RN_7_RD_14_1.png","img2/200/Incongruent/R/I_Dist_200_LN_3_LD_10_RN_1_RD_2_1.png","img2/200/Congruent/R/C_Dist_200_LN_3_LD_6_RN_14_RD_20_1.png","img2/200/Incongruent/R/I_Dist_200_LN_14_LD_30_RN_12_RD_18_1.png","img2/200/Congruent/L/C_Dist_200_LN_6_LD_15_RN_3_RD_15_0.png","img2/100/Congruent/R/C_Dist_100_LN_4_LD_10_RN_15_RD_30_1.png","img2/200/Incongruent/L/I_Dist_200_LN_4_LD_5_RN_6_RD_10_0.png","img2/300/Congruent/R/C_Dist_300_LN_2_LD_20_RN_10_RD_25_1.png","img2/100/Incongruent/R/I_Dist_100_LN_13_LD_26_RN_12_RD_20_1.png","img2/300/Incongruent/R/I_Dist_300_LN_4_LD_20_RN_2_RD_4_1.png","img2/100/Congruent/L/C_Dist_100_LN_10_LD_25_RN_3_RD_10_0.png","img2/300/Incongruent/L/I_Dist_300_LN_1_LD_2_RN_3_RD_15_0.png","img2/200/Congruent/R/C_Dist_200_LN_5_LD_10_RN_14_RD_20_1.png","img2/200/Incongruent/L/I_Dist_200_LN_4_LD_6_RN_14_RD_30_0.png","img2/300/Incongruent/R/I_Dist_300_LN_13_LD_26_RN_12_RD_15_1.png","img2/200/Congruent/L/C_Dist_200_LN_11_LD_22_RN_3_RD_10_0.png","img2/200/Congruent/R/C_Dist_200_LN_6_LD_20_RN_11_RD_22_1.png","img2/100/Congruent/R/C_Dist_100_LN_2_LD_5_RN_11_RD_22_1.png","img2/300/Incongruent/L/I_Dist_300_LN_3_LD_6_RN_4_RD_20_0.png","img2/300/Congruent/R/C_Dist_300_LN_1_LD_5_RN_3_RD_6_1.png","img2/100/Incongruent/L/I_Dist_100_LN_3_LD_6_RN_4_RD_10_0.png","img2/100/Incongruent/L/I_Dist_100_LN_3_LD_5_RN_11_RD_22_0.png","img2/100/Congruent/R/C_Dist_100_LN_12_LD_30_RN_13_RD_26_1.png","img2/100/Incongruent/R/I_Dist_100_LN_6_LD_12_RN_3_RD_5_1.png","img2/200/Congruent/L/C_Dist_200_LN_8_LD_15_RN_2_RD_6_0.png","img2/300/Incongruent/R/I_Dist_300_LN_13_LD_26_RN_12_RD_15_1.png","img2/100/Incongruent/R/I_Dist_100_LN_8_LD_20_RN_1_RD_2_1.png","img2/100/Congruent/L/C_Dist_100_LN_9_LD_15_RN_8_RD_16_0.png","img2/200/Incongruent/L/I_Dist_200_LN_3_LD_4_RN_11_RD_20_0.png","img2/200/Incongruent/L/I_Dist_200_LN_1_LD_2_RN_3_RD_10_0.png","img2/200/Congruent/R/C_Dist_200_LN_3_LD_10_RN_7_RD_14_1.png","img2/200/Congruent/R/C_Dist_200_LN_6_LD_20_RN_11_RD_22_1.png","img2/200/Incongruent/L/I_Dist_200_LN_3_LD_4_RN_11_RD_20_0.png","img2/100/Congruent/L/C_Dist_100_LN_6_LD_20_RN_5_RD_25_0.png","img2/300/Congruent/R/C_Dist_300_LN_1_LD_3_RN_19_RD_30_1.png","img2/100/Incongruent/L/I_Dist_100_LN_3_LD_5_RN_11_RD_22_0.png","img2/200/Congruent/L/C_Dist_200_LN_12_LD_15_RN_6_RD_10_0.png","img2/300/Incongruent/L/I_Dist_300_LN_1_LD_2_RN_2_RD_10_0.png","img2/100/Congruent/L/C_Dist_100_LN_15_LD_25_RN_13_RD_26_0.png","img2/300/Congruent/L/C_Dist_300_LN_11_LD_22_RN_1_RD_5_0.png","img2/300/Incongruent/R/I_Dist_300_LN_4_LD_20_RN_2_RD_4_1.png","img2/100/Congruent/L/C_Dist_100_LN_9_LD_15_RN_8_RD_16_0.png","img2/100/Congruent/L/C_Dist_100_LN_9_LD_15_RN_8_RD_16_0.png","img2/300/Congruent/L/C_Dist_300_LN_12_LD_24_RN_2_RD_10_0.png","img2/100/Congruent/L/C_Dist_100_LN_15_LD_25_RN_13_RD_26_0.png","img2/200/Congruent/R/C_Dist_200_LN_3_LD_10_RN_7_RD_14_1.png","img2/300/Congruent/L/C_Dist_300_LN_4_LD_5_RN_2_RD_4_0.png","img2/300/Congruent/R/C_Dist_300_LN_5_LD_25_RN_7_RD_14_1.png","img2/300/Congruent/L/C_Dist_300_LN_24_LD_30_RN_8_RD_16_0.png","img2/200/Congruent/L/C_Dist_200_LN_16_LD_30_RN_9_RD_27_0.png","img2/100/Incongruent/L/I_Dist_100_LN_2_LD_4_RN_6_RD_15_0.png","img2/200/Incongruent/R/I_Dist_200_LN_3_LD_10_RN_1_RD_2_1.png","img2/100/Congruent/L/C_Dist_100_LN_11_LD_22_RN_4_RD_10_0.png","img2/100/Congruent/L/C_Dist_100_LN_8_LD_16_RN_2_RD_5_0.png","img2/100/Incongruent/L/I_Dist_100_LN_2_LD_4_RN_8_RD_20_0.png","img2/200/Congruent/R/C_Dist_200_LN_5_LD_10_RN_14_RD_20_1.png","img2/100/Incongruent/L/I_Dist_100_LN_9_LD_15_RN_13_RD_26_0.png","img2/300/Incongruent/L/I_Dist_300_LN_7_LD_10_RN_8_RD_20_0.png","img2/100/Incongruent/R/I_Dist_100_LN_17_LD_30_RN_10_RD_15_1.png","img2/300/Congruent/L/C_Dist_300_LN_20_LD_25_RN_13_RD_26_0.png","img2/200/Incongruent/R/I_Dist_200_LN_4_LD_30_RN_1_RD_3_1.png","img2/100/Congruent/L/C_Dist_100_LN_10_LD_25_RN_3_RD_10_0.png","img2/200/Congruent/R/C_Dist_200_LN_7_LD_15_RN_18_RD_27_1.png","img2/100/Incongruent/R/I_Dist_100_LN_8_LD_20_RN_1_RD_2_1.png","img2/200/Incongruent/R/I_Dist_200_LN_14_LD_30_RN_6_RD_9_1.png","img2/300/Incongruent/R/I_Dist_300_LN_4_LD_20_RN_2_RD_4_1.png","img2/200/Incongruent/L/I_Dist_200_LN_1_LD_2_RN_3_RD_10_0.png","img2/200/Congruent/R/C_Dist_200_LN_13_LD_26_RN_14_RD_20_1.png","img2/100/Congruent/R/C_Dist_100_LN_2_LD_5_RN_6_RD_12_1.png","img2/200/Incongruent/R/I_Dist_200_LN_3_LD_10_RN_1_RD_2_1.png","img2/200/Incongruent/R/I_Dist_200_LN_7_LD_15_RN_4_RD_6_1.png","img2/300/Congruent/R/C_Dist_300_LN_8_LD_15_RN_10_RD_12_1.png","img2/200/Congruent/L/C_Dist_200_LN_20_LD_25_RN_9_RD_15_0.png","img2/200/Incongruent/R/I_Dist_200_LN_3_LD_10_RN_1_RD_2_1.png"],"dist100_C":[["C_Dist_100_LN_10_LD_25_RN_3_RD_10_0.png","C_Dist_100_LN_11_LD_22_RN_4_RD_10_0.png","C_Dist_100_LN_11_LD_22_RN_6_RD_15_0.png","C_Dist_100_LN_15_LD_25_RN_13_RD_26_0.png","C_Dist_100_LN_3_LD_6_RN_2_RD_5_0.png","C_Dist_100_LN_6_LD_20_RN_5_RD_25_0.png","C_Dist_100_LN_8_LD_16_RN_2_RD_5_0.png","C_Dist_100_LN_9_LD_15_RN_8_RD_16_0.png"],["C_Dist_100_LN_1_LD_2_RN_18_RD_30_1.png","C_Dist_100_LN_1_LD_2_RN_3_RD_5_1.png","C_Dist_100_LN_12_LD_30_RN_13_RD_26_1.png","C_Dist_100_LN_2_LD_5_RN_11_RD_22_1.png","C_Dist_100_LN_2_LD_5_RN_6_RD_12_1.png","C_Dist_100_LN_3_LD_20_RN_4_RD_16_1.png","C_Dist_100_LN_4_LD_10_RN_15_RD_30_1.png","C_Dist_100_LN_4_LD_8_RN_6_RD_10_1.png","C_Dist_100_LN_6_LD_12_RN_15_RD_25_1.png","C_Dist_100_LN_7_LD_14_RN_15_RD_25_1.png","C_Dist_100_LN_7_LD_14_RN_9_RD_15_1.png"]],"dist100_I":[["I_Dist_100_LN_1_LD_2_RN_8_RD_20_0.png","I_Dist_100_LN_2_LD_4_RN_6_RD_15_0.png","I_Dist_100_LN_2_LD_4_RN_8_RD_20_0.png","I_Dist_100_LN_3_LD_5_RN_11_RD_22_0.png","I_Dist_100_LN_3_LD_5_RN_8_RD_16_0.png","I_Dist_100_LN_3_LD_6_RN_4_RD_10_0.png","I_Dist_100_LN_3_LD_9_RN_7_RD_30_0.png","I_Dist_100_LN_4_LD_8_RN_8_RD_20_0.png","I_Dist_100_LN_6_LD_10_RN_11_RD_22_0.png","I_Dist_100_LN_6_LD_10_RN_13_RD_26_0.png","I_Dist_100_LN_6_LD_10_RN_7_RD_14_0.png","I_Dist_100_LN_9_LD_10_RN_20_RD_25_0.png","I_Dist_100_LN_9_LD_15_RN_13_RD_26_0.png","I_Dist_100_LN_9_LD_15_RN_14_RD_28_0.png"],["I_Dist_100_LN_10_LD_25_RN_8_RD_16_1.png","I_Dist_100_LN_10_LD_25_RN_9_RD_18_1.png","I_Dist_100_LN_11_LD_22_RN_9_RD_15_1.png","I_Dist_100_LN_12_LD_24_RN_9_RD_15_1.png","I_Dist_100_LN_12_LD_30_RN_2_RD_4_1.png","I_Dist_100_LN_13_LD_26_RN_12_RD_20_1.png","I_Dist_100_LN_13_LD_26_RN_6_RD_10_1.png","I_Dist_100_LN_17_LD_30_RN_10_RD_15_1.png","I_Dist_100_LN_6_LD_12_RN_3_RD_5_1.png","I_Dist_100_LN_8_LD_16_RN_6_RD_10_1.png","I_Dist_100_LN_8_LD_20_RN_1_RD_2_1.png","I_Dist_100_LN_9_LD_18_RN_6_RD_10_1.png"]],"dist100_S":[["E_Dist_100_LN_2_LD_12_RN_2_RD_30_0.png","E_Dist_100_LN_6_LD_10_RN_6_RD_12_0.png"],["E_Dist_100_LN_6_LD_12_RN_6_RD_10_1.png"]],"dist200_C":[["C_Dist_200_LN_11_LD_22_RN_3_RD_10_0.png","C_Dist_200_LN_12_LD_15_RN_6_RD_10_0.png","C_Dist_200_LN_12_LD_20_RN_6_RD_15_0.png","C_Dist_200_LN_14_LD_28_RN_6_RD_20_0.png","C_Dist_200_LN_15_LD_25_RN_4_RD_10_0.png","C_Dist_200_LN_16_LD_20_RN_12_RD_20_0.png","C_Dist_200_LN_16_LD_30_RN_9_RD_27_0.png","C_Dist_200_LN_20_LD_25_RN_9_RD_15_0.png","C_Dist_200_LN_21_LD_30_RN_2_RD_4_0.png","C_Dist_200_LN_4_LD_10_RN_3_RD_15_0.png","C_Dist_200_LN_4_LD_8_RN_3_RD_10_0.png","C_Dist_200_LN_6_LD_15_RN_3_RD_15_0.png","C_Dist_200_LN_7_LD_21_RN_2_RD_15_0.png","C_Dist_200_LN_8_LD_15_RN_2_RD_6_0.png","C_Dist_200_LN_8_LD_15_RN_3_RD_9_0.png","C_Dist_200_LN_8_LD_15_RN_7_RD_21_0.png","C_Dist_200_LN_9_LD_20_RN_4_RD_16_0.png"],["C_Dist_200_LN_1_LD_2_RN_21_RD_30_1.png","C_Dist_200_LN_13_LD_26_RN_14_RD_20_1.png","C_Dist_200_LN_3_LD_10_RN_11_RD_22_1.png","C_Dist_200_LN_3_LD_10_RN_14_RD_28_1.png","C_Dist_200_LN_3_LD_10_RN_7_RD_14_1.png","C_Dist_200_LN_3_LD_12_RN_9_RD_20_1.png","C_Dist_200_LN_3_LD_6_RN_14_RD_20_1.png","C_Dist_200_LN_5_LD_10_RN_14_RD_20_1.png","C_Dist_200_LN_6_LD_12_RN_7_RD_10_1.png","C_Dist_200_LN_6_LD_20_RN_11_RD_22_1.png","C_Dist_200_LN_7_LD_15_RN_18_RD_27_1.png","C_Dist_200_LN_9_LD_30_RN_13_RD_26_1.png"]],"dist200_I":[["I_Dist_200_LN_1_LD_2_RN_3_RD_10_0.png","I_Dist_200_LN_1_LD_3_RN_2_RD_15_0.png","I_Dist_200_LN_3_LD_4_RN_11_RD_20_0.png","I_Dist_200_LN_4_LD_5_RN_6_RD_10_0.png","I_Dist_200_LN_4_LD_6_RN_14_RD_30_0.png","I_Dist_200_LN_7_LD_10_RN_12_RD_24_0.png","I_Dist_200_LN_7_LD_10_RN_14_RD_28_0.png","I_Dist_200_LN_7_LD_10_RN_8_RD_16_0.png"],["I_Dist_200_LN_11_LD_20_RN_3_RD_4_1.png","I_Dist_200_LN_14_LD_30_RN_12_RD_18_1.png","I_Dist_200_LN_14_LD_30_RN_6_RD_9_1.png","I_Dist_200_LN_3_LD_10_RN_1_RD_2_1.png","I_Dist_200_LN_4_LD_30_RN_1_RD_3_1.png","I_Dist_200_LN_6_LD_20_RN_3_RD_6_1.png","I_Dist_200_LN_7_LD_15_RN_4_RD_6_1.png","I_Dist_200_LN_7_LD_15_RN_6_RD_9_1.png","I_Dist_200_LN_9_LD_15_RN_8_RD_10_1.png"]],"dist200_S":[["E_Dist_200_LN_3_LD_6_RN_3_RD_10_0.png"],["E_Dist_200_LN_3_LD_10_RN_3_RD_6_1.png"]],"dist300_C":[["C_Dist_300_LN_11_LD_22_RN_1_RD_5_0.png","C_Dist_300_LN_11_LD_22_RN_2_RD_10_0.png","C_Dist_300_LN_11_LD_22_RN_4_RD_20_0.png","C_Dist_300_LN_12_LD_24_RN_2_RD_10_0.png","C_Dist_300_LN_18_LD_20_RN_9_RD_15_0.png","C_Dist_300_LN_20_LD_25_RN_13_RD_26_0.png","C_Dist_300_LN_20_LD_25_RN_14_RD_28_0.png","C_Dist_300_LN_20_LD_25_RN_5_RD_10_0.png","C_Dist_300_LN_20_LD_25_RN_8_RD_16_0.png","C_Dist_300_LN_20_LD_25_RN_9_RD_18_0.png","C_Dist_300_LN_24_LD_30_RN_2_RD_4_0.png","C_Dist_300_LN_24_LD_30_RN_8_RD_16_0.png","C_Dist_300_LN_3_LD_6_RN_2_RD_10_0.png","C_Dist_300_LN_4_LD_10_RN_1_RD_10_0.png","C_Dist_300_LN_4_LD_5_RN_2_RD_4_0.png","C_Dist_300_LN_8_LD_16_RN_1_RD_5_0.png","C_Dist_300_LN_9_LD_10_RN_3_RD_5_0.png"],["C_Dist_300_LN_1_LD_20_RN_7_RD_20_1.png","C_Dist_300_LN_1_LD_3_RN_19_RD_30_1.png","C_Dist_300_LN_1_LD_30_RN_8_RD_24_1.png","C_Dist_300_LN_1_LD_5_RN_11_RD_22_1.png","C_Dist_300_LN_1_LD_5_RN_3_RD_6_1.png","C_Dist_300_LN_1_LD_5_RN_6_RD_12_1.png","C_Dist_300_LN_2_LD_10_RN_12_RD_24_1.png","C_Dist_300_LN_2_LD_20_RN_10_RD_25_1.png","C_Dist_300_LN_3_LD_12_RN_11_RD_20_1.png","C_Dist_300_LN_3_LD_6_RN_4_RD_5_1.png","C_Dist_300_LN_4_LD_20_RN_13_RD_26_1.png","C_Dist_300_LN_5_LD_25_RN_6_RD_12_1.png","C_Dist_300_LN_5_LD_25_RN_7_RD_14_1.png","C_Dist_300_LN_7_LD_14_RN_20_RD_25_1.png","C_Dist_300_LN_8_LD_15_RN_10_RD_12_1.png"]],"dist300_I":[["I_Dist_300_LN_1_LD_2_RN_2_RD_10_0.png","I_Dist_300_LN_1_LD_2_RN_3_RD_15_0.png","I_Dist_300_LN_2_LD_4_RN_6_RD_30_0.png","I_Dist_300_LN_3_LD_6_RN_4_RD_20_0.png","I_Dist_300_LN_4_LD_5_RN_6_RD_12_0.png","I_Dist_300_LN_4_LD_5_RN_8_RD_16_0.png","I_Dist_300_LN_7_LD_10_RN_8_RD_20_0.png","I_Dist_300_LN_8_LD_10_RN_14_RD_28_0.png","I_Dist_300_LN_8_LD_10_RN_9_RD_18_0.png"],["I_Dist_300_LN_13_LD_26_RN_12_RD_15_1.png","I_Dist_300_LN_4_LD_20_RN_2_RD_4_1.png"]],"dist300_S":[["E_Dist_300_LN_9_LD_12_RN_9_RD_20_0.png"],["E_Dist_300_LN_18_LD_30_RN_18_RD_20_1.png","E_Dist_300_LN_3_LD_10_RN_3_RD_5_1.png","E_Dist_300_LN_9_LD_20_RN_9_RD_12_1.png"]],"dist500_C":[["C_Dist_500_LN_10_LD_13_RN_7_RD_26_0.png","C_Dist_500_LN_10_LD_15_RN_4_RD_24_0.png","C_Dist_500_LN_12_LD_16_RN_3_RD_12_0.png","C_Dist_500_LN_12_LD_18_RN_4_RD_24_0.png","C_Dist_500_LN_15_LD_18_RN_5_RD_15_0.png","C_Dist_500_LN_15_LD_20_RN_1_RD_4_0.png","C_Dist_500_LN_18_LD_27_RN_1_RD_6_0.png","C_Dist_500_LN_20_LD_24_RN_1_RD_3_0.png","C_Dist_500_LN_20_LD_24_RN_3_RD_9_0.png","C_Dist_500_LN_20_LD_24_RN_7_RD_21_0.png","C_Dist_500_LN_20_LD_28_RN_3_RD_14_0.png","C_Dist_500_LN_21_LD_28_RN_6_RD_24_0.png","C_Dist_500_LN_22_LD_28_RN_2_RD_7_0.png","C_Dist_500_LN_25_LD_30_RN_9_RD_27_0.png","C_Dist_500_LN_4_LD_6_RN_1_RD_6_0.png","C_Dist_500_LN_5_LD_6_RN_2_RD_6_0.png","C_Dist_500_LN_6_LD_9_RN_1_RD_6_0.png","C_Dist_500_LN_7_LD_10_RN_1_RD_5_0.png","C_Dist_500_LN_8_LD_12_RN_1_RD_6_0.png","C_Dist_500_LN_8_LD_12_RN_4_RD_24_0.png"],["C_Dist_500_LN_1_LD_4_RN_12_RD_16_1.png","C_Dist_500_LN_1_LD_4_RN_9_RD_12_1.png","C_Dist_500_LN_1_LD_9_RN_11_RD_18_1.png","C_Dist_500_LN_10_LD_24_RN_22_RD_24_1.png","C_Dist_500_LN_2_LD_12_RN_10_RD_15_1.png","C_Dist_500_LN_2_LD_12_RN_12_RD_18_1.png","C_Dist_500_LN_2_LD_12_RN_4_RD_6_1.png","C_Dist_500_LN_2_LD_24_RN_7_RD_12_1.png","C_Dist_500_LN_2_LD_5_RN_18_RD_20_1.png","C_Dist_500_LN_2_LD_5_RN_9_RD_10_1.png","C_Dist_500_LN_2_LD_8_RN_12_RD_16_1.png","C_Dist_500_LN_2_LD_8_RN_21_RD_28_1.png","C_Dist_500_LN_3_LD_10_RN_4_RD_5_1.png","C_Dist_500_LN_3_LD_12_RN_15_RD_20_1.png","C_Dist_500_LN_3_LD_30_RN_6_RD_10_1.png","C_Dist_500_LN_3_LD_8_RN_14_RD_16_1.png","C_Dist_500_LN_4_LD_16_RN_15_RD_20_1.png","C_Dist_500_LN_4_LD_24_RN_12_RD_18_1.png","C_Dist_500_LN_5_LD_14_RN_6_RD_7_1.png","C_Dist_500_LN_7_LD_21_RN_20_RD_24_1.png","C_Dist_500_LN_7_LD_28_RN_12_RD_16_1.png","C_Dist_500_LN_7_LD_28_RN_9_RD_12_1.png","C_Dist_500_LN_9_LD_27_RN_20_RD_24_1.png"]],"dist500_I":[["I_Dist_500_LN_2_LD_3_RN_4_RD_24_0.png","I_Dist_500_LN_5_LD_6_RN_6_RD_18_0.png","I_Dist_500_LN_7_LD_8_RN_9_RD_24_0.png"],["I_Dist_500_LN_7_LD_21_RN_5_RD_6_1.png"]],"dist500_S":[["E_Dist_500_LN_6_LD_8_RN_6_RD_24_0.png"],["E_Dist_500_LN_2_LD_12_RN_2_RD_3_1.png","E_Dist_500_LN_6_LD_24_RN_6_RD_8_1.png"]]}},{"start_time":1552327160138,"click_time":1552327162299,"finger_time":1552327161537,"fix_duration":277.00057623471844,"trial":1,"RT":1399,"MT":762,"sideResp":1,"stimulus":[],"xmouse":[805,805,805,805,813,824,825,826,826,826,826,826,826,826,826,826,826,826,826,826,826,826,826,826,826,826,826,826,826,826,826,826,826,826,826,826,826,826,826,826,826,826,826,826,826,826,826,826,826,826,826,826,826,826,826,826,826,826,826,826,826,826,826,826,826,826,826,826,822,813,803,793,771,758,732,716,700,667,650,632,621,619,619,619,620,625,637,655,659,660,660,660,642,625,610,596,581,545,530,522,518,517,517,517,515,510,507,500,498],"ymouse":[506,506,506,506,505,505,505,505,505,505,505,505,505,505,505,505,505,505,505,505,505,505,505,505,505,505,505,505,505,505,505,505,505,505,505,505,505,505,505,505,505,505,505,505,505,505,505,505,505,505,505,505,505,505,505,505,505,505,505,505,505,505,505,505,505,505,505,505,495,480,466,454,430,419,399,386,374,352,337,323,313,311,311,311,312,315,320,322,322,322,322,318,289,261,239,221,201,164,154,147,144,143,143,142,138,130,123,105,95],"timestamp_mouse":[10,20,41,61,81,100,120,140,159,180,200,220,240,260,281,301,319,339,360,379,399,420,440,460,480,501,520,540,560,580,601,619,640,660,679,700,719,740,760,779,801,819,841,860,879,899,920,940,960,979,1001,1020,1040,1060,1081,1099,1120,1140,1160,1180,1201,1220,1240,1259,1280,1300,1321,1340,1360,1381,1399,1419,1439,1461,1479,1500,1519,1540,1560,1580,1601,1620,1639,1660,1679,1700,1720,1740,1759,1779,1801,1821,1839,1860,1879,1899,1920,1940,1960,1981,2000,2020,2040,2061,2080,2099,2119,2139,2159],"xSR":741.5,"ySR":469.95,"xT1":424.9,"yT1":0,"xT2":1058.1,"yT2":0,"toosoon":0,"cond_shown":"Incongruent","ratio_trial":200,"L_num":9,"L_den":15,"R_num":8,"R_den":10,"correct_side":2,"subjID":"simonelsin7","gender":"0","school":"4","age":"9"},{"start_time":1552327163709,"click_time":1552327165298,"finger_time":1552327165097,"fix_duration":367.4053480638906,"trial":2,"RT":1388,"MT":201,"sideResp":2,"stimulus":[],"xmouse":[798,798,798,798,798,798,798,798,798,798,798,798,798,798,798,798,798,798,798,798,798,798,798,798,798,798,798,798,798,798,798,798,798,798,798,798,798,798,798,798,798,798,798,798,798,798,798,798,798,798,798,798,798,798,798,798,798,798,798,798,798,798,798,798,798,798,798,798,816,840,880,920,966,1054,1091,1105,1112,1115,1118,1120],"ymouse":[521,521,521,521,521,521,521,521,521,521,521,521,521,521,521,521,521,521,521,521,521,521,521,521,521,521,521,521,521,521,521,521,521,521,521,521,521,521,521,521,521,521,521,521,521,521,521,521,521,521,521,521,521,521,521,521,521,521,521,521,521,521,521,521,521,521,521,514,480,438,373,323,274,189,151,136,123,117,106,99],"timestamp_mouse":[21,39,49,69,89,109,128,149,169,189,209,228,248,269,289,309,330,348,369,389,410,428,449,470,490,510,528,548,570,588,608,629,649,669,689,710,728,748,768,789,809,828,848,870,888,910,930,948,968,990,1009,1029,1049,1069,1088,1109,1129,1149,1168,1189,1210,1228,1248,1269,1289,1309,1329,1349,1368,1388,1409,1429,1450,1469,1489,1508,1529,1548,1568,1588],"xSR":741.5,"ySR":469.95,"xT1":424.9,"yT1":0,"xT2":1058.1,"yT2":0,"toosoon":0,"cond_shown":"Incongruent","ratio_trial":100,"L_num":13,"L_den":26,"R_num":12,"R_den":20,"correct_side":2,"subjID":"simonelsin7","gender":"0","school":"4","age":"9"},{"start_time":1552327167185,"click_time":1552327168638,"finger_time":1552327168097,"fix_duration":905.940868497087,"trial":3,"RT":912,"MT":541,"sideResp":2,"stimulus":[],"xmouse":[776,776,776,776,776,776,776,776,776,776,776,776,776,776,776,776,776,776,776,776,776,776,776,776,776,776,776,776,776,776,776,776,776,776,772,769,769,769,769,769,769,769,769,768,780,798,824,844,857,871,873,875,881,889,909,922,933,948,966,998,1009,1021,1027,1031,1033,1033,1033,1033,1033,1038,1046,1053,1063],"ymouse":[519,519,519,519,519,519,519,519,519,519,519,519,519,519,519,519,519,519,519,519,519,519,519,519,519,519,519,519,519,519,519,519,519,519,519,519,519,519,519,519,519,519,519,516,485,450,407,370,351,333,330,327,317,304,272,255,239,218,201,172,160,143,126,109,92,90,89,88,88,83,77,73,67],"timestamp_mouse":[14,34,52,73,93,113,132,154,173,192,213,232,252,273,294,313,333,353,372,393,413,432,454,474,492,514,533,553,572,594,612,633,653,674,692,713,733,754,774,793,814,833,854,874,892,912,933,953,973,993,1012,1032,1053,1073,1092,1112,1134,1153,1174,1192,1213,1232,1252,1274,1292,1313,1333,1353,1373,1392,1412,1433,1452],"xSR":741.5,"ySR":469.95,"xT1":424.9,"yT1":0,"xT2":1058.1,"yT2":0,"toosoon":0,"cond_shown":"Congruent","ratio_trial":100,"L_num":12,"L_den":30,"R_num":13,"R_den":26,"correct_side":2,"subjID":"simonelsin7","gender":"0","school":"4","age":"9"},{"start_time":1552327170658,"click_time":1552327171899,"finger_time":1552327171817,"fix_duration":1278.8641143721754,"trial":4,"RT":1159,"MT":82,"sideResp":2,"stimulus":[],"xmouse":[786,786,786,786,786,786,786,786,786,786,786,786,786,786,786,786,786,786,786,786,786,786,786,786,786,786,786,786,786,786,786,786,786,786,786,786,786,786,786,786,786,786,786,786,786,786,786,786,786,786,786,786,786,786,786,787,796,823,917,1005,1071,1138,1143],"ymouse":[545,545,545,545,545,545,545,545,545,545,545,545,545,545,545,545,545,545,545,545,545,545,545,545,545,545,545,545,545,545,545,545,545,545,545,545,545,545,545,545,545,545,545,545,545,545,545,545,545,545,545,545,545,545,545,543,533,510,406,301,211,115,98],"timestamp_mouse":[9,20,40,68,81,99,119,141,161,180,200,221,240,261,281,300,320,339,360,379,400,421,439,459,481,499,519,539,561,580,600,620,641,660,680,700,720,740,761,781,800,819,840,859,881,901,920,940,961,980,1000,1021,1040,1059,1079,1100,1119,1140,1159,1179,1203,1219,1240],"xSR":741.5,"ySR":469.95,"xT1":424.9,"yT1":0,"xT2":1058.1,"yT2":0,"toosoon":0,"cond_shown":"Incongruent","ratio_trial":200,"L_num":1,"L_den":3,"R_num":2,"R_den":15,"correct_side":1,"subjID":"simonelsin7","gender":"0","school":"4","age":"9"},{"start_time":1552327173547,"click_time":1552327175760,"finger_time":1552327173937,"fix_duration":468.9306138402738,"trial":5,"RT":390,"MT":1823,"sideResp":1,"stimulus":[],"xmouse":[808,808,808,808,808,808,808,808,808,808,808,808,808,808,808,808,808,803,799,789,782,768,762,751,742,734,723,720,715,711,706,705,705,705,705,705,705,707,710,714,719,735,743,754,761,766,772,773,773,773,773,773,773,773,773,773,773,773,773,773,773,779,785,788,789,789,789,789,789,789,789,789,789,789,789,789,789,789,789,789,789,789,789,789,789,789,789,789,789,787,784,749,730,696,669,636,592,583,579,577,576,574,572,571,566,560,545,540,534,526,520],"ymouse":[514,514,514,514,514,514,514,514,514,514,514,514,514,514,514,514,514,499,487,466,453,427,416,393,378,367,354,350,342,333,325,321,321,321,321,321,322,328,336,345,355,382,396,417,429,437,453,459,461,461,461,461,461,461,461,461,461,461,461,460,460,462,466,470,475,481,501,511,518,523,529,546,553,558,558,558,558,558,558,558,558,558,558,558,558,558,558,558,558,547,536,456,419,376,342,302,247,238,234,229,223,205,201,197,187,174,149,142,130,112,85],"timestamp_mouse":[13,35,50,70,90,112,131,151,171,190,210,231,250,270,291,312,332,350,370,390,412,430,451,470,490,511,531,551,570,590,610,630,651,671,691,712,730,750,770,790,810,830,851,871,890,910,931,950,970,990,1011,1031,1051,1070,1090,1111,1130,1150,1171,1190,1211,1230,1250,1270,1290,1312,1331,1350,1370,1390,1410,1430,1450,1472,1491,1510,1531,1551,1570,1592,1610,1630,1652,1671,1691,1710,1731,1751,1771,1790,1810,1830,1850,1870,1892,1912,1931,1950,1971,1991,2012,2030,2051,2070,2090,2110,2130,2151,2171,2190,2213],"xSR":741.5,"ySR":469.95,"xT1":424.9,"yT1":0,"xT2":1058.1,"yT2":0,"toosoon":0,"cond_shown":"Incongruent","ratio_trial":300,"L_num":7,"L_den":10,"R_num":8,"R_den":20,"correct_side":1,"subjID":"simonelsin7","gender":"0","school":"4","age":"9"},{"start_time":1552327177713,"click_time":1552327179257,"finger_time":1552327178618,"fix_duration":1172.4974976650565,"trial":6,"RT":905,"MT":639,"sideResp":2,"stimulus":[],"xmouse":[808,808,808,808,808,808,808,808,808,808,808,808,808,808,808,808,808,808,808,808,808,808,808,808,808,808,808,808,808,808,808,808,808,808,808,808,808,808,808,808,808,808,809,815,818,848,871,886,907,930,955,969,973,975,975,978,981,984,985,987,990,992,995,1005,1023,1038,1050,1056,1063,1063,1063,1063,1063,1063,1063,1063,1063,1064],"ymouse":[497,497,497,497,497,497,497,497,497,497,497,497,497,497,497,497,497,497,497,497,497,497,497,497,497,497,497,497,497,497,497,497,497,497,497,497,497,497,497,497,497,497,497,493,489,464,443,422,379,335,278,239,214,180,170,149,138,130,123,120,117,115,111,108,107,105,103,102,100,100,100,100,100,100,100,100,100,99],"timestamp_mouse":[10,25,44,65,84,104,124,146,165,186,204,224,245,265,285,304,325,345,365,386,405,426,446,465,485,506,525,545,564,585,606,624,644,664,685,706,725,744,765,785,805,825,845,864,886,905,926,944,964,984,1004,1024,1045,1065,1085,1105,1125,1146,1165,1185,1206,1225,1245,1264,1284,1304,1325,1346,1366,1384,1405,1424,1445,1464,1485,1505,1525,1544],"xSR":741.5,"ySR":469.95,"xT1":424.9,"yT1":0,"xT2":1058.1,"yT2":0,"toosoon":0,"cond_shown":"Congruent","ratio_trial":100,"L_num":7,"L_den":14,"R_num":15,"R_den":25,"correct_side":2,"subjID":"simonelsin7","gender":"0","school":"4","age":"9"},{"start_time":1552327181040,"click_time":1552327182517,"finger_time":1552327181998,"fix_duration":1000.680362921219,"trial":7,"RT":958,"MT":519,"sideResp":2,"stimulus":[],"xmouse":[774,774,774,774,774,774,774,774,774,774,774,774,774,774,774,774,774,774,774,774,774,774,774,774,774,774,774,774,774,774,774,774,774,774,774,774,774,774,774,774,774,774,774,774,774,775,794,818,873,920,961,1017,1031,1035,1035,1035,1035,1035,1035,1035,1035,1035,1035,1035,1035,1035,1035,1035,1035,1035,1035,1035,1035,1072],"ymouse":[528,528,528,528,528,528,528,528,528,528,528,528,528,528,528,528,528,528,528,528,528,528,528,528,528,528,528,528,528,528,528,528,528,528,528,528,528,528,528,528,528,528,528,528,527,525,503,463,353,245,145,38,12,0,0,0,0,0,0,0,0,0,0,0,0,0,0,0,0,0,0,0,0,2],"timestamp_mouse":[30,43,58,77,98,117,138,158,179,198,219,237,258,278,299,319,338,358,378,397,417,439,458,478,498,517,537,557,577,597,618,638,658,679,698,718,739,758,778,799,819,837,857,879,897,917,939,958,978,997,1017,1038,1058,1077,1097,1119,1137,1158,1177,1197,1217,1237,1258,1277,1298,1318,1338,1357,1378,1398,1419,1439,1458,1477],"xSR":741.5,"ySR":469.95,"xT1":424.9,"yT1":0,"xT2":1058.1,"yT2":0,"toosoon":0,"cond_shown":"Congruent","ratio_trial":100,"L_num":1,"L_den":2,"R_num":3,"R_den":5,"correct_side":2,"subjID":"simonelsin7","gender":"0","school":"4","age":"9"},{"start_time":1552327184123,"click_time":1552327185137,"finger_time":1552327185017,"fix_duration":743.1280212494498,"trial":8,"RT":894,"MT":120,"sideResp":2,"stimulus":[],"xmouse":[795,794,794,794,794,794,794,794,794,794,794,794,794,794,794,794,794,794,794,794,794,794,794,794,794,794,794,794,794,794,794,794,794,794,794,794,794,794,794,794,794,795,811,823,862,899,934,993,1020,1056,1096],"ymouse":[551,550,550,550,550,550,550,550,550,550,550,550,550,550,550,550,550,550,550,550,550,550,550,550,550,550,550,550,550,550,550,550,550,550,550,550,550,550,550,550,550,546,525,504,449,399,347,253,205,137,70],"timestamp_mouse":[14,34,54,74,95,114,134,154,175,196,214,235,255,274,294,316,335,356,374,395,416,434,455,474,494,514,534,556,575,594,615,636,654,676,694,715,736,755,775,794,816,835,854,875,894,914,934,955,974,994,1014],"xSR":741.5,"ySR":469.95,"xT1":424.9,"yT1":0,"xT2":1058.1,"yT2":0,"toosoon":0,"cond_shown":"Congruent","ratio_trial":200,"L_num":7,"L_den":15,"R_num":18,"R_den":27,"correct_side":2,"subjID":"simonelsin7","gender":"0","school":"4","age":"9"},{"start_time":1552327187116,"click_time":1552327188137,"finger_time":1552327187998,"fix_duration":916.0763530276857,"trial":9,"RT":882,"MT":139,"sideResp":2,"stimulus":[],"xmouse":[784,784,784,784,784,784,784,784,784,784,784,784,784,784,784,784,784,784,784,784,784,784,784,784,784,784,784,784,784,784,784,784,784,784,784,784,784,784,784,784,784,785,789,817,848,881,935,1005,1110,1131,1144,1154],"ymouse":[526,526,526,526,526,526,526,526,526,526,526,526,526,526,526,526,526,526,526,526,526,526,526,526,526,526,526,526,526,526,526,526,526,526,526,526,526,526,526,526,526,526,524,498,470,440,378,292,150,119,103,87],"timestamp_mouse":[10,22,42,62,81,103,123,141,161,181,202,222,241,261,282,303,322,341,361,381,403,422,441,462,483,502,523,541,562,582,602,621,641,663,681,702,722,741,762,783,801,821,842,861,882,901,921,941,961,981,1001,1021],"xSR":741.5,"ySR":469.95,"xT1":424.9,"yT1":0,"xT2":1058.1,"yT2":0,"toosoon":0,"cond_shown":"Congruent","ratio_trial":300,"L_num":5,"L_den":25,"R_num":7,"R_den":14,"correct_side":2,"subjID":"simonelsin7","gender":"0","school":"4","age":"9"},{"start_time":1552327190520,"click_time":1552327191859,"finger_time":1552327191519,"fix_duration":1280.3956065356956,"trial":10,"RT":999,"MT":340,"sideResp":1,"stimulus":[],"xmouse":[800,800,800,800,800,800,800,800,800,800,800,800,800,800,800,800,800,800,800,800,800,800,800,800,800,800,800,800,800,800,800,800,800,800,800,800,800,800,800,800,800,800,800,800,800,800,799,793,784,766,739,676,651,616,591,571,557,545,541,536,528,522,510,504,500,495,490],"ymouse":[525,525,525,525,525,525,525,525,525,525,525,525,525,525,525,525,525,525,525,525,525,525,525,525,525,525,525,525,525,525,525,525,525,525,525,525,525,525,525,525,525,525,525,525,525,525,522,495,470,427,368,277,250,224,210,199,192,186,183,180,177,175,169,165,157,131,95],"timestamp_mouse":[17,37,58,78,98,117,137,157,177,197,217,238,258,278,298,318,338,358,379,398,418,438,458,478,499,518,537,558,577,599,618,639,657,679,697,717,738,758,779,799,817,837,857,878,899,918,937,957,978,999,1019,1040,1057,1077,1097,1118,1137,1157,1177,1198,1217,1238,1257,1277,1298,1317,1338],"xSR":741.5,"ySR":469.95,"xT1":424.9,"yT1":0,"xT2":1058.1,"yT2":0,"toosoon":0,"cond_shown":"Congruent","ratio_trial":300,"L_num":5,"L_den":25,"R_num":7,"R_den":14,"correct_side":2,"subjID":"simonelsin7","gender":"0","school":"4","age":"9"},{"start_time":1552327195362,"click_time":1552327196697,"finger_time":1552327196497,"fix_duration":662.4223074044556,"trial":11,"RT":1135,"MT":200,"sideResp":2,"stimulus":[],"xmouse":[791,791,791,791,791,791,791,791,791,791,791,791,791,791,791,791,791,791,791,791,791,791,791,791,791,791,791,791,791,791,791,791,791,791,791,791,791,791,791,791,791,791,793,793,793,793,793,793,793,793,793,793,793,793,796,816,834,861,890,920,974,998,1013,1023,1037,1093,1118],"ymouse":[520,520,520,520,520,520,520,520,520,520,520,520,520,520,520,520,520,520,520,520,520,520,520,520,520,520,520,520,520,520,520,520,520,520,520,520,520,520,520,520,520,520,520,520,520,520,520,520,520,520,520,520,520,520,516,485,453,415,376,334,250,213,196,185,169,100,66],"timestamp_mouse":[16,35,55,75,96,115,135,156,177,196,216,236,257,275,296,316,336,357,376,396,417,435,456,477,497,515,536,556,577,595,615,635,657,676,697,715,736,755,776,795,816,836,856,877,895,916,936,957,975,995,1015,1036,1055,1076,1096,1115,1135,1155,1175,1195,1215,1235,1256,1275,1295,1315,1335],"xSR":741.5,"ySR":469.95,"xT1":424.9,"yT1":0,"xT2":1058.1,"yT2":0,"toosoon":0,"cond_shown":"Congruent","ratio_trial":300,"L_num":3,"L_den":6,"R_num":4,"R_den":5,"correct_side":2,"subjID":"simonelsin7","gender":"0","school":"4","age":"9"},{"start_time":1552327198732,"click_time":1552327201560,"finger_time":1552327200077,"fix_duration":1253.7134913992516,"trial":12,"RT":1345,"MT":1483,"sideResp":2,"stimulus":[],"xmouse":[765,765,765,765,765,765,765,765,765,765,765,765,765,765,765,765,765,765,765,765,765,765,765,765,765,765,765,765,765,765,765,765,765,765,765,765,765,768,770,771,771,771,771,771,771,771,771,771,771,771,771,771,771,771,771,771,771,771,771,771,771,771,771,773,777,786,794,818,839,860,877,886,890,890,890,890,890,890,890,890,890,890,889,888,887,886,886,883,880,874,866,860,849,839,831,824,815,798,791,789,788,788,787,787,787,787,787,787,786,786,786,786,785,784,783,781,780,780,779,778,776,776,776,777,779,783,789,818,839,856,874,893,932,972,999,1033,1058,1095,1105,1110,1114,1116],"ymouse":[529,529,529,529,529,529,529,529,529,529,529,529,529,529,529,529,529,529,529,529,529,529,529,529,529,529,529,529,529,529,529,529,529,529,529,529,529,526,521,518,517,517,517,517,517,517,517,517,517,517,517,517,517,517,517,517,517,517,517,517,517,517,517,510,502,492,482,453,427,397,373,360,354,354,354,354,354,354,354,354,354,350,341,338,337,336,336,335,335,335,335,333,331,326,322,321,317,310,307,306,306,305,304,304,304,304,304,304,303,301,300,298,295,292,288,284,282,281,280,278,276,276,274,271,269,265,262,245,234,223,210,197,180,167,159,149,138,123,115,109,102,95],"timestamp_mouse":[10,26,52,66,86,105,126,146,165,186,205,226,247,266,286,305,326,346,366,386,406,427,446,465,485,505,526,547,567,586,606,627,646,665,686,706,727,747,765,785,805,825,847,865,885,907,926,946,965,985,1005,1025,1046,1066,1086,1107,1125,1146,1166,1187,1206,1226,1246,1266,1285,1306,1326,1345,1365,1385,1405,1427,1446,1465,1486,1506,1526,1545,1566,1585,1605,1626,1645,1665,1686,1706,1726,1746,1765,1785,1805,1826,1845,1866,1886,1906,1926,1945,1965,1985,2005,2025,2046,2066,2086,2106,2125,2145,2165,2185,2206,2226,2246,2265,2285,2305,2325,2345,2367,2387,2407,2426,2445,2466,2486,2505,2525,2546,2566,2586,2606,2625,2645,2665,2686,2706,2725,2746,2766,2785,2806,2827],"xSR":741.5,"ySR":469.95,"xT1":424.9,"yT1":0,"xT2":1058.1,"yT2":0,"toosoon":0,"cond_shown":"Congruent","ratio_trial":300,"L_num":1,"L_den":5,"R_num":3,"R_den":6,"correct_side":2,"subjID":"simonelsin7","gender":"0","school":"4","age":"9"},{"start_time":1552327203782,"click_time":1552327205618,"finger_time":1552327205178,"fix_duration":1304.0108940097705,"trial":13,"RT":1396,"MT":440,"sideResp":2,"stimulus":[],"xmouse":[820,820,820,820,820,820,820,820,820,820,820,820,820,820,820,820,820,820,820,820,820,820,820,820,820,820,820,820,820,820,820,820,820,820,820,820,820,820,820,820,820,820,820,820,820,820,820,820,820,820,820,820,820,820,820,820,820,820,820,820,820,820,820,820,820,820,820,820,824,847,873,884,894,906,925,935,946,956,965,989,996,1006,1014,1022,1039,1045,1047,1049,1050,1055,1056,1061],"ymouse":[529,529,529,529,529,529,529,529,529,529,529,529,529,529,529,529,529,529,529,529,529,529,529,529,529,529,529,529,529,529,529,529,529,529,529,529,529,529,529,529,529,530,530,530,530,530,530,530,530,530,530,530,530,530,530,530,530,530,530,530,530,530,530,530,530,530,529,524,506,452,398,372,349,325,280,261,243,225,201,164,155,142,130,115,85,75,70,67,62,53,51,47],"timestamp_mouse":[15,42,55,77,95,116,135,155,175,197,216,236,256,275,296,315,336,355,377,395,416,437,456,475,496,516,536,557,576,595,615,637,655,675,695,715,737,756,775,795,817,836,855,875,895,916,936,957,976,995,1015,1036,1055,1075,1096,1116,1136,1156,1175,1195,1217,1237,1256,1275,1295,1316,1336,1355,1376,1396,1415,1435,1455,1475,1496,1516,1535,1555,1576,1595,1616,1635,1655,1676,1697,1716,1737,1755,1776,1795,1815,1835],"xSR":741.5,"ySR":469.95,"xT1":424.9,"yT1":0,"xT2":1058.1,"yT2":0,"toosoon":0,"cond_shown":"Incongruent","ratio_trial":200,"L_num":14,"L_den":30,"R_num":6,"R_den":9,"correct_side":2,"subjID":"simonelsin7","gender":"0","school":"4","age":"9"},{"start_time":1552327206749,"click_time":1552327208137,"finger_time":1552327207838,"fix_duration":250,"trial":14,"RT":1089,"MT":299,"sideResp":2,"stimulus":[],"xmouse":[781,781,781,781,781,781,781,781,781,781,781,781,781,781,781,781,781,781,781,781,781,781,781,781,781,781,781,781,781,781,781,781,781,781,781,781,781,781,781,781,781,781,781,781,781,781,781,781,781,781,781,785,789,811,832,858,900,911,921,928,934,945,953,961,973,1006,1019,1033,1045,1062],"ymouse":[549,549,549,549,549,549,549,549,549,546,545,542,539,538,535,535,535,535,535,535,535,535,535,535,535,535,535,535,535,535,535,535,535,535,535,535,535,535,535,535,535,535,535,535,535,535,535,535,535,535,535,528,520,487,450,390,293,266,244,227,213,192,160,134,109,50,29,14,7,2],"timestamp_mouse":[20,42,48,68,89,109,129,149,168,188,208,228,249,268,288,310,329,348,368,388,409,430,448,470,490,509,529,550,569,589,608,628,649,670,689,708,729,748,769,789,808,828,849,870,889,908,928,949,969,988,1008,1028,1050,1070,1089,1109,1129,1149,1170,1188,1208,1229,1248,1268,1289,1310,1328,1348,1368,1388],"xSR":741.5,"ySR":469.95,"xT1":424.9,"yT1":0,"xT2":1058.1,"yT2":0,"toosoon":0,"cond_shown":"Incongruent","ratio_trial":200,"L_num":6,"L_den":20,"R_num":3,"R_den":6,"correct_side":2,"subjID":"simonelsin7","gender":"0","school":"4","age":"9"},{"start_time":1552327209349,"click_time":1552327210477,"finger_time":1552327210177,"fix_duration":250,"trial":15,"RT":828,"MT":300,"sideResp":2,"stimulus":[],"xmouse":[756,756,756,756,756,756,756,756,756,758,758,759,759,759,759,759,759,759,759,759,759,759,759,759,759,759,759,760,760,760,760,760,760,760,760,760,762,765,772,782,796,866,913,958,974,982,995,999,1002,1005,1009,1023,1030,1036,1044,1051,1062],"ymouse":[513,513,513,513,513,513,513,513,514,515,515,515,515,515,515,515,515,515,515,515,515,515,515,515,515,515,515,515,515,515,515,515,515,515,515,515,515,515,509,500,486,400,346,302,293,287,267,253,236,218,199,157,141,132,119,104,82],"timestamp_mouse":[11,45,48,69,90,110,128,148,169,189,208,228,249,270,289,308,329,349,369,389,410,428,448,468,489,508,529,548,569,588,610,629,649,669,688,710,730,749,769,789,808,828,849,869,890,908,929,949,969,988,1008,1028,1048,1069,1088,1109,1128],"xSR":741.5,"ySR":469.95,"xT1":424.9,"yT1":0,"xT2":1058.1,"yT2":0,"toosoon":0,"cond_shown":"Congruent","ratio_trial":300,"L_num":1,"L_den":30,"R_num":8,"R_den":24,"correct_side":2,"subjID":"simonelsin7","gender":"0","school":"4","age":"9"},{"start_time":1552327212417,"click_time":1552327213778,"finger_time":1552327213357,"fix_duration":1138.0682344564636,"trial":16,"RT":940,"MT":421,"sideResp":1,"stimulus":[],"xmouse":[762,762,762,762,762,762,762,762,762,762,762,762,762,762,762,762,762,762,762,762,762,762,762,762,762,762,762,762,762,762,762,762,762,762,762,762,762,762,762,762,762,762,762,762,762,761,753,743,711,684,668,621,601,583,579,571,563,555,551,549,548,545,542,535,532,530,530,528,518],"ymouse":[534,534,534,534,534,534,534,534,534,534,534,534,534,534,534,534,534,534,534,534,534,534,534,534,534,534,534,534,534,534,534,534,534,534,534,534,534,534,534,534,534,534,534,534,516,502,475,445,389,361,343,284,260,231,215,201,185,176,169,165,160,155,151,137,125,116,109,99,67],"timestamp_mouse":[10,21,41,60,81,101,120,141,161,181,202,222,241,261,281,301,320,341,361,382,401,422,440,461,480,501,522,541,561,581,600,621,640,660,682,701,721,741,762,781,800,822,840,860,881,901,920,940,961,980,1000,1021,1040,1060,1080,1101,1121,1140,1161,1180,1202,1222,1240,1260,1281,1300,1321,1340,1360],"xSR":741.5,"ySR":469.95,"xT1":424.9,"yT1":0,"xT2":1058.1,"yT2":0,"toosoon":0,"cond_shown":"Congruent","ratio_trial":200,"L_num":8,"L_den":15,"R_num":3,"R_den":9,"correct_side":1,"subjID":"simonelsin7","gender":"0","school":"4","age":"9"},{"start_time":1552327216098,"click_time":1552327217758,"finger_time":1552327217437,"fix_duration":1239.4378971461433,"trial":17,"RT":1339,"MT":321,"sideResp":1,"stimulus":[],"xmouse":[790,790,790,790,790,790,790,790,790,790,790,790,790,790,790,790,790,790,790,790,790,790,790,790,790,790,790,790,790,790,790,790,790,790,790,790,790,790,790,790,790,790,790,790,790,790,790,790,790,790,790,790,790,790,790,790,790,790,790,790,790,790,790,790,790,790,788,781,765,712,686,663,636,600,546,525,521,516,507,496,492,491,489,487],"ymouse":[517,517,517,517,517,517,517,517,517,517,517,517,517,517,517,517,517,517,517,517,517,517,517,517,517,517,517,517,517,517,517,517,517,517,517,517,517,517,517,517,517,516,515,513,510,507,504,502,500,499,499,499,499,499,499,499,499,499,499,499,499,499,499,499,499,499,491,468,431,315,270,239,216,193,164,155,152,149,142,133,130,126,116,98],"timestamp_mouse":[1,19,39,59,79,101,120,141,159,179,201,220,241,261,279,299,321,341,361,381,401,420,440,460,480,500,520,541,560,580,599,620,639,660,679,700,719,740,759,781,800,820,839,860,879,900,920,939,960,981,1000,1019,1040,1059,1081,1099,1120,1140,1160,1179,1201,1220,1240,1259,1279,1299,1319,1339,1359,1380,1399,1420,1439,1459,1480,1500,1520,1539,1559,1580,1600,1619,1639,1660],"xSR":741.5,"ySR":469.95,"xT1":424.9,"yT1":0,"xT2":1058.1,"yT2":0,"toosoon":0,"cond_shown":"Incongruent","ratio_trial":200,"L_num":6,"L_den":20,"R_num":3,"R_den":6,"correct_side":2,"subjID":"simonelsin7","gender":"0","school":"4","age":"9"},{"start_time":1552327219608,"click_time":1552327221238,"finger_time":1552327219857,"fix_duration":729.1779093049768,"trial":18,"RT":249,"MT":1381,"sideResp":2,"stimulus":[],"xmouse":[794,794,794,794,794,794,794,794,794,794,794,794,794,789,789,789,789,789,789,789,789,789,789,789,789,789,789,786,784,784,783,783,783,785,785,785,785,785,788,788,788,788,789,798,800,800,800,800,800,800,800,799,798,797,796,796,796,796,795,793,791,791,791,791,791,796,799,807,809,817,839,881,929,961,962,964,969,972,980,992,1017,1075],"ymouse":[515,515,515,515,515,515,515,515,515,515,516,554,601,619,619,619,619,619,619,619,619,619,619,619,619,617,611,601,592,592,591,591,589,571,569,569,569,569,566,565,565,565,563,553,548,546,546,546,546,546,545,545,545,545,545,545,545,545,545,545,544,544,544,544,544,545,545,550,550,541,466,338,218,117,101,94,90,89,89,89,89,83],"timestamp_mouse":[12,35,51,70,91,109,129,149,170,189,209,231,249,270,290,310,331,350,369,389,409,430,451,470,490,510,529,549,570,590,610,629,649,669,689,710,730,750,769,790,811,831,863,869,889,911,929,950,970,991,1010,1029,1050,1070,1090,1111,1130,1150,1169,1189,1210,1229,1249,1270,1290,1310,1331,1351,1369,1389,1410,1429,1449,1470,1489,1509,1531,1549,1569,1589,1609,1629],"xSR":741.5,"ySR":469.95,"xT1":424.9,"yT1":0,"xT2":1058.1,"yT2":0,"toosoon":0,"cond_shown":"Incongruent","ratio_trial":300,"L_num":13,"L_den":26,"R_num":12,"R_den":15,"correct_side":2,"subjID":"simonelsin7","gender":"0","school":"4","age":"9"},{"start_time":1552327222948,"click_time":1552327224539,"finger_time":1552327224337,"fix_duration":809.2845347161193,"trial":19,"RT":1389,"MT":202,"sideResp":2,"stimulus":[],"xmouse":[763,763,763,763,763,763,763,763,763,763,763,763,763,763,763,763,763,763,763,763,763,763,763,763,763,763,763,763,763,763,763,763,763,763,763,763,763,763,763,763,763,763,763,763,763,763,763,763,763,763,763,763,763,763,763,763,763,763,763,763,763,763,763,763,763,763,767,774,785,802,823,858,902,948,1003,1048,1051,1054,1055,1060],"ymouse":[518,518,518,518,518,518,518,518,518,518,518,518,518,518,518,518,518,518,518,518,518,518,518,518,518,518,518,518,518,518,518,518,518,518,518,518,518,518,518,518,518,518,518,518,518,518,518,518,518,518,518,518,518,518,518,518,518,518,518,518,518,518,518,518,518,518,509,497,479,448,407,346,292,227,135,72,68,64,63,57],"timestamp_mouse":[13,46,50,71,91,109,131,150,169,191,211,229,250,271,289,310,330,349,370,391,409,429,450,469,489,511,529,550,569,589,609,629,650,671,690,709,729,749,771,789,809,829,851,871,889,910,929,950,970,990,1009,1030,1050,1070,1090,1109,1130,1150,1170,1190,1210,1229,1251,1270,1290,1309,1329,1349,1370,1389,1409,1429,1451,1470,1490,1511,1529,1551,1570,1591],"xSR":741.5,"ySR":469.95,"xT1":424.9,"yT1":0,"xT2":1058.1,"yT2":0,"toosoon":0,"cond_shown":"Incongruent","ratio_trial":100,"L_num":13,"L_den":26,"R_num":12,"R_den":20,"correct_side":2,"subjID":"simonelsin7","gender":"0","school":"4","age":"9"},{"start_time":1552327225985,"click_time":1552327226897,"finger_time":1552327226677,"fix_duration":685.1191367356926,"trial":20,"RT":692,"MT":220,"sideResp":1,"stimulus":[],"xmouse":[750,750,750,750,750,750,750,750,750,750,750,750,750,750,750,750,750,750,750,750,750,750,750,750,750,750,750,750,750,750,750,750,749,744,731,699,660,617,580,514,491,474,472,472,472,472],"ymouse":[526,526,526,526,526,526,526,526,526,526,526,526,526,526,526,526,526,526,526,526,526,526,526,526,526,526,526,526,526,526,526,526,526,525,511,483,437,391,338,214,161,128,121,118,102,92],"timestamp_mouse":[14,39,54,73,92,112,132,153,172,194,213,233,252,272,292,312,332,353,374,392,414,434,453,474,493,513,534,552,573,593,613,632,653,674,692,713,732,752,773,792,812,832,852,872,893,912],"xSR":741.5,"ySR":469.95,"xT1":424.9,"yT1":0,"xT2":1058.1,"yT2":0,"toosoon":0,"cond_shown":"Congruent","ratio_trial":300,"L_num":20,"L_den":25,"R_num":9,"R_den":18,"correct_side":1,"subjID":"simonelsin7","gender":"0","school":"4","age":"9"},{"start_time":1552327228685,"click_time":1552327229778,"finger_time":1552327229459,"fix_duration":966.7469656429098,"trial":21,"RT":774,"MT":319,"sideResp":2,"stimulus":[],"xmouse":[777,777,777,777,777,777,777,777,777,777,777,777,777,777,777,777,777,777,777,777,777,777,777,777,777,777,777,777,777,777,777,777,777,777,781,785,788,790,811,838,870,887,900,908,942,957,969,984,1001,1031,1039,1043,1045,1048,1064],"ymouse":[531,531,531,531,531,531,531,531,531,531,531,531,531,531,531,531,531,531,531,531,531,531,531,531,531,531,531,531,531,531,531,531,531,531,531,528,520,506,461,420,371,344,326,314,264,240,219,198,177,134,112,90,75,66,47],"timestamp_mouse":[19,41,52,74,93,114,134,154,174,194,213,232,254,274,293,313,333,352,373,393,413,432,453,472,492,512,533,552,572,592,612,634,652,673,692,712,734,753,774,792,812,832,853,872,892,912,932,952,972,992,1012,1032,1053,1072,1093],"xSR":741.5,"ySR":469.95,"xT1":424.9,"yT1":0,"xT2":1058.1,"yT2":0,"toosoon":0,"cond_shown":"Incongruent","ratio_trial":100,"L_num":10,"L_den":25,"R_num":8,"R_den":16,"correct_side":2,"subjID":"simonelsin7","gender":"0","school":"4","age":"9"},{"start_time":1552327244428,"click_time":1552327248277,"finger_time":1552327245797,"fix_duration":250,"trial":22,"RT":1369,"MT":2480,"sideResp":2,"stimulus":[],"xmouse":[794,794,794,794,794,794,794,794,794,794,794,794,794,794,794,794,794,794,794,794,794,794,794,794,794,794,794,794,794,794,794,794,794,794,794,794,794,794,794,794,794,794,794,794,794,794,794,794,794,794,794,794,794,794,794,794,794,794,794,794,794,794,794,794,794,794,795,813,838,916,989,1066,1183,1205,1211,1211,1213,1214,1214,1214,1214,1214,1214,1214,1214,1214,1214,1214,1214,1214,1214,1214,1214,1214,1214,1214,1214,1214,1214,1214,1214,1214,1214,1214,1214,1212,1211,1211,1211,1211,1211,1211,1211,1211,1211,1211,1211,1211,1211,1211,1211,1210,1210,1211,1214,1217,1219,1220,1214,1191,1155,1037,948,841,737,606,479,220,93,50,30,22,23,29,36,44,54,69,75,90,99,106,113,116,117,117,117,117,120,133,150,169,222,268,312,341,397,428,458,509,548,653,702,745,789,840,907,983,983,983,983,983,983,983,983,983,983,983,983,1235,1214,1190,1141],"ymouse":[504,504,504,504,504,504,504,504,504,504,504,504,504,504,504,504,504,504,504,504,504,504,504,504,504,504,504,504,504,504,504,504,504,504,504,504,504,504,504,504,504,504,504,504,504,504,504,504,504,504,504,504,504,504,504,504,504,504,504,504,504,504,504,504,504,503,500,479,455,382,321,257,123,64,37,21,14,12,12,12,12,12,12,12,12,12,12,12,12,12,12,12,12,12,12,12,12,12,12,12,12,12,12,12,12,13,14,14,14,14,14,14,14,14,14,14,14,14,14,14,14,15,21,27,39,58,86,169,250,324,387,483,518,544,552,544,511,392,308,272,244,227,210,197,185,173,162,154,152,149,148,148,148,148,148,148,148,148,149,154,158,162,177,190,211,233,268,276,278,278,277,242,210,171,127,82,42,3,3,3,3,3,3,3,3,3,3,3,3,6,15,25,41],"timestamp_mouse":[12,35,49,69,88,109,130,149,169,190,209,230,249,270,290,308,329,350,368,390,410,430,450,470,489,510,529,549,569,589,610,628,650,670,689,709,729,749,770,790,810,830,849,868,890,909,930,949,969,989,1010,1029,1050,1070,1090,1110,1130,1149,1168,1190,1210,1230,1250,1269,1290,1309,1328,1349,1369,1389,1409,1430,1449,1469,1489,1509,1529,1549,1569,1589,1609,1629,1649,1669,1689,1709,1728,1749,1770,1789,1810,1829,1849,1869,1889,1909,1929,1949,1969,1989,2009,2030,2049,2070,2089,2109,2131,2148,2170,2189,2209,2229,2249,2270,2289,2309,2330,2349,2370,2390,2409,2429,2449,2468,2488,2510,2529,2549,2570,2589,2610,2630,2649,2668,2690,2709,2729,2748,2769,2789,2810,2829,2849,2869,2889,2910,2929,2949,2969,2989,3010,3030,3049,3069,3089,3109,3129,3150,3169,3190,3209,3230,3249,3269,3289,3310,3331,3349,3370,3389,3409,3431,3449,3469,3489,3509,3531,3548,3569,3589,3609,3629,3650,3668,3689,3710,3729,3749,3769,3789,3809,3831,3849],"xSR":741.5,"ySR":469.95,"xT1":424.9,"yT1":0,"xT2":1058.1,"yT2":0,"toosoon":0,"cond_shown":"Incongruent","ratio_trial":100,"L_num":8,"L_den":20,"R_num":1,"R_den":2,"correct_side":2,"subjID":"simonelsin7","gender":"0","school":"4","age":"9"},{"start_time":1552327249989,"click_time":1552327251097,"finger_time":1552327250817,"fix_duration":250,"trial":23,"RT":828,"MT":280,"sideResp":2,"stimulus":[],"xmouse":[791,791,791,790,790,790,790,790,790,790,790,790,790,790,790,790,790,790,790,790,790,790,790,790,790,790,790,790,790,790,790,790,790,790,790,790,790,790,790,799,818,851,899,939,989,1005,1016,1018,1018,1024,1032,1034,1035,1044,1056,1072],"ymouse":[503,503,505,507,510,510,510,510,510,511,511,511,511,511,511,511,511,511,511,511,511,511,511,511,511,511,511,511,511,511,511,511,511,511,511,511,511,511,512,506,492,460,410,360,286,250,217,192,172,140,123,121,120,112,100,87],"timestamp_mouse":[12,34,48,69,88,108,129,148,168,188,208,229,249,267,289,309,327,349,369,388,408,428,449,467,489,508,527,549,568,589,608,629,649,667,688,707,727,748,769,789,808,828,849,870,888,908,929,948,968,988,1008,1028,1049,1069,1089,1108],"xSR":741.5,"ySR":469.95,"xT1":424.9,"yT1":0,"xT2":1058.1,"yT2":0,"toosoon":0,"cond_shown":"Congruent","ratio_trial":200,"L_num":13,"L_den":26,"R_num":14,"R_den":20,"correct_side":2,"subjID":"simonelsin7","gender":"0","school":"4","age":"9"},{"start_time":1552327253123,"click_time":1552327254838,"finger_time":1552327254437,"fix_duration":1163.2271578095504,"trial":24,"RT":1314,"MT":401,"sideResp":1,"stimulus":[],"xmouse":[782,782,782,782,782,782,782,782,782,782,782,782,782,782,782,782,782,782,782,782,782,782,782,782,782,782,782,782,782,782,782,782,782,782,782,782,782,782,782,782,782,782,782,782,782,782,782,782,782,782,782,782,782,782,782,782,782,782,782,782,782,782,781,779,779,778,773,751,723,691,659,628,580,560,539,519,495,464,462,462,462,462,460,460,460,460],"ymouse":[527,527,527,527,527,527,527,527,527,527,527,527,527,527,527,527,527,527,527,527,527,527,527,527,527,527,527,527,527,527,527,527,527,527,527,527,527,527,527,527,527,527,527,527,527,527,527,527,527,527,527,527,527,527,527,527,527,527,527,527,527,527,527,514,493,469,441,346,299,256,223,200,170,163,154,148,140,127,127,127,127,126,115,106,102,99],"timestamp_mouse":[21,47,54,74,95,113,133,154,175,193,215,234,254,275,295,314,335,354,375,395,414,435,454,474,495,513,533,554,574,595,613,635,654,674,694,715,733,755,775,795,813,834,854,875,894,913,933,954,975,994,1015,1034,1054,1074,1094,1115,1134,1154,1174,1194,1215,1233,1254,1275,1294,1314,1333,1354,1374,1393,1413,1433,1454,1473,1495,1513,1535,1554,1573,1594,1614,1634,1654,1675,1694,1715],"xSR":741.5,"ySR":469.95,"xT1":424.9,"yT1":0,"xT2":1058.1,"yT2":0,"toosoon":0,"cond_shown":"Incongruent","ratio_trial":300,"L_num":3,"L_den":6,"R_num":4,"R_den":20,"correct_side":1,"subjID":"simonelsin7","gender":"0","school":"4","age":"9"},{"start_time":1552327259796,"click_time":1552327260677,"finger_time":1552327260477,"fix_duration":1377.3411097357487,"trial":25,"RT":681,"MT":200,"sideResp":2,"stimulus":[],"xmouse":[787,787,787,787,787,787,787,787,787,787,787,787,787,787,787,787,787,787,787,787,787,787,787,787,787,787,787,787,787,787,788,795,804,814,835,844,852,859,867,909,940,990,1024,1076,1085],"ymouse":[517,517,517,517,517,517,517,517,517,517,517,517,517,517,517,517,517,517,517,517,517,517,517,517,517,517,517,517,517,517,512,500,489,477,454,444,435,424,415,371,336,267,209,119,98],"timestamp_mouse":[9,35,41,60,81,102,122,142,161,181,201,221,242,261,281,301,321,342,361,382,402,421,442,461,481,500,521,542,562,581,601,622,642,661,681,701,721,741,762,780,801,821,841,863,881],"xSR":741.5,"ySR":469.95,"xT1":424.9,"yT1":0,"xT2":1058.1,"yT2":0,"toosoon":0,"cond_shown":"Incongruent","ratio_trial":300,"L_num":13,"L_den":26,"R_num":12,"R_den":15,"correct_side":2,"subjID":"simonelsin7","gender":"0","school":"4","age":"9"},{"start_time":1552327262762,"click_time":1552327264677,"finger_time":1552327264298,"fix_duration":1144.1310802345233,"trial":26,"RT":1536,"MT":379,"sideResp":2,"stimulus":[],"xmouse":[822,822,822,822,822,822,822,822,822,822,822,822,822,822,822,822,822,822,822,822,822,822,822,822,822,822,822,822,822,822,822,822,822,822,822,822,822,822,822,822,822,822,822,822,822,822,822,822,822,822,822,822,822,822,822,822,822,822,822,822,822,822,822,822,820,820,819,819,819,819,819,819,819,819,819,827,847,879,914,979,999,1014,1029,1034,1048,1064,1092,1118,1130,1131,1132,1132,1132,1132,1133,1138],"ymouse":[512,512,512,512,512,512,512,512,512,512,512,512,512,512,512,512,512,512,512,512,512,512,512,512,512,512,512,512,512,512,512,512,510,509,508,508,508,508,508,508,508,508,508,508,508,508,508,508,508,508,508,508,508,508,508,508,508,508,508,508,508,508,507,505,500,500,499,499,499,499,499,499,499,499,499,484,448,392,336,249,231,219,206,199,180,164,142,128,123,122,122,119,119,117,111,83],"timestamp_mouse":[15,35,55,75,95,115,136,156,175,196,215,235,256,274,295,316,335,354,375,396,414,436,454,476,495,515,534,555,575,595,615,635,655,675,695,715,736,755,775,795,815,836,855,875,896,915,934,955,975,994,1015,1034,1054,1074,1094,1115,1136,1155,1176,1195,1215,1235,1255,1275,1296,1316,1336,1356,1376,1396,1415,1436,1455,1474,1496,1516,1536,1555,1576,1597,1615,1635,1655,1676,1697,1714,1736,1756,1776,1794,1815,1835,1856,1875,1896,1915],"xSR":741.5,"ySR":469.95,"xT1":424.9,"yT1":0,"xT2":1058.1,"yT2":0,"toosoon":0,"cond_shown":"Incongruent","ratio_trial":300,"L_num":4,"L_den":20,"R_num":2,"R_den":4,"correct_side":2,"subjID":"simonelsin7","gender":"0","school":"4","age":"9"},{"start_time":1552327268009,"click_time":1552327269357,"finger_time":1552327268996,"fix_duration":1210.6122744096522,"trial":27,"RT":987,"MT":361,"sideResp":1,"stimulus":[],"xmouse":[804,804,804,804,804,804,804,804,804,804,804,804,804,804,804,804,804,804,804,804,804,804,804,804,804,804,804,804,804,804,804,804,804,804,804,804,804,804,804,804,804,804,804,804,804,804,804,803,793,773,745,708,626,590,562,548,536,529,517,517,517,517,517,509,498,487,478,474],"ymouse":[543,543,543,543,543,543,543,543,543,543,543,543,543,543,543,543,543,543,543,543,543,543,543,543,543,543,543,543,543,543,543,543,543,543,543,543,543,543,543,543,543,543,543,543,543,543,543,543,513,462,387,321,240,216,196,185,180,180,180,180,180,180,180,168,150,129,108,89],"timestamp_mouse":[12,38,48,68,88,109,127,149,169,188,209,229,248,268,288,309,329,347,368,389,409,429,449,468,487,509,529,548,568,589,609,629,649,667,688,708,728,747,768,789,809,828,849,868,889,908,928,949,968,987,1009,1028,1050,1068,1087,1108,1127,1149,1168,1188,1209,1228,1248,1269,1289,1309,1329,1348],"xSR":741.5,"ySR":469.95,"xT1":424.9,"yT1":0,"xT2":1058.1,"yT2":0,"toosoon":0,"cond_shown":"Incongruent","ratio_trial":300,"L_num":3,"L_den":6,"R_num":4,"R_den":20,"correct_side":1,"subjID":"simonelsin7","gender":"0","school":"4","age":"9"},{"start_time":1552327271540,"click_time":1552327272637,"finger_time":1552327272117,"fix_duration":1441.3371806808157,"trial":28,"RT":577,"MT":520,"sideResp":2,"stimulus":[],"xmouse":[805,805,805,805,805,805,805,805,805,805,805,805,805,805,805,805,805,805,805,805,805,805,805,805,805,805,809,821,843,864,886,936,972,988,998,1004,1008,1014,1025,1032,1033,1033,1033,1033,1034,1035,1038,1042,1045,1047,1048,1050,1054,1058,1059],"ymouse":[546,546,546,546,546,546,546,546,546,546,546,546,546,546,546,546,546,546,546,546,546,546,546,546,546,546,529,484,425,374,323,231,191,177,168,161,156,149,138,133,132,132,132,131,130,125,114,107,100,94,90,84,81,81,80],"timestamp_mouse":[17,37,58,78,97,118,136,157,176,198,218,236,258,278,298,318,338,358,378,398,418,437,457,477,498,518,537,557,577,596,617,637,658,678,697,719,736,756,776,797,818,837,857,878,898,918,937,957,976,998,1018,1037,1057,1078,1097],"xSR":741.5,"ySR":469.95,"xT1":424.9,"yT1":0,"xT2":1058.1,"yT2":0,"toosoon":0,"cond_shown":"Congruent","ratio_trial":300,"L_num":1,"L_den":5,"R_num":11,"R_den":22,"correct_side":2,"subjID":"simonelsin7","gender":"0","school":"4","age":"9"},{"start_time":1552327278065,"click_time":1552327279118,"finger_time":1552327278777,"fix_duration":1266.7256634158211,"trial":29,"RT":712,"MT":341,"sideResp":2,"stimulus":[],"xmouse":[803,803,803,803,803,803,803,803,803,803,803,803,803,803,803,803,803,803,803,803,803,803,803,803,803,803,803,803,803,802,809,815,821,826,830,847,874,891,908,927,963,978,987,993,996,1008,1017,1036,1048,1065,1070,1074,1076],"ymouse":[536,536,536,536,536,536,536,536,536,536,536,536,536,536,536,536,536,536,536,536,536,536,536,536,536,536,536,536,536,529,515,506,494,483,474,453,418,388,357,319,253,225,201,183,172,152,140,127,120,110,105,102,99],"timestamp_mouse":[14,44,52,72,91,112,132,153,172,193,212,232,251,272,292,313,333,352,373,393,413,433,453,472,492,513,531,552,572,592,612,633,652,672,693,712,732,752,772,791,811,833,852,872,892,912,932,952,972,994,1013,1032,1052],"xSR":741.5,"ySR":469.95,"xT1":424.9,"yT1":0,"xT2":1058.1,"yT2":0,"toosoon":0,"cond_shown":"Congruent","ratio_trial":100,"L_num":2,"L_den":5,"R_num":11,"R_den":22,"correct_side":2,"subjID":"simonelsin7","gender":"0","school":"4","age":"9"},{"start_time":1552327281463,"click_time":1552327282557,"finger_time":1552327281878,"fix_duration":1464.4538176159729,"trial":30,"RT":415,"MT":679,"sideResp":2,"stimulus":[],"xmouse":[786,786,786,786,786,786,786,786,786,786,786,786,786,786,786,786,786,788,800,819,832,842,850,856,859,859,859,859,859,859,859,859,859,859,859,859,859,859,859,860,883,905,936,963,980,1012,1017,1025,1029,1035,1039,1044,1051,1058,1062],"ymouse":[512,512,512,512,512,512,512,512,512,512,512,512,512,512,512,512,512,509,493,472,464,456,451,447,447,447,447,447,447,447,447,447,447,447,447,447,447,445,440,430,377,331,280,232,207,168,162,150,146,138,131,120,109,101,95],"timestamp_mouse":[13,42,55,74,94,114,135,155,175,194,214,235,254,274,295,313,335,354,374,395,415,435,453,474,494,514,535,555,574,595,614,634,654,674,694,714,734,753,774,795,815,834,854,875,894,914,934,953,974,995,1013,1035,1054,1074,1094],"xSR":741.5,"ySR":469.95,"xT1":424.9,"yT1":0,"xT2":1058.1,"yT2":0,"toosoon":0,"cond_shown":"Incongruent","ratio_trial":300,"L_num":4,"L_den":5,"R_num":6,"R_den":12,"correct_side":1,"subjID":"simonelsin7","gender":"0","school":"4","age":"9"},{"start_time":1552327284066,"click_time":1552327285217,"finger_time":1552327284837,"fix_duration":786.5473608605047,"trial":31,"RT":771,"MT":380,"sideResp":1,"stimulus":[],"xmouse":[795,795,795,795,795,795,795,795,795,795,795,795,795,795,795,795,795,795,795,795,795,795,795,795,795,795,795,795,795,795,795,795,795,795,795,795,793,781,762,734,673,654,644,632,616,590,582,576,570,565,565,565,564,561,553,534,527,523],"ymouse":[509,509,509,509,509,509,509,509,509,509,509,509,509,509,509,509,509,509,509,509,509,509,509,509,509,509,509,509,509,509,509,509,509,509,509,508,505,478,442,392,286,251,229,207,182,149,139,132,125,119,118,118,118,116,109,84,75,69],"timestamp_mouse":[12,33,51,70,91,112,132,152,172,192,211,232,252,271,291,311,332,352,371,391,411,431,452,472,491,511,532,551,571,592,611,630,652,672,691,711,732,751,771,790,811,832,852,871,891,911,931,951,972,990,1011,1032,1051,1072,1091,1111,1130,1150],"xSR":741.5,"ySR":469.95,"xT1":424.9,"yT1":0,"xT2":1058.1,"yT2":0,"toosoon":0,"cond_shown":"Congruent","ratio_trial":300,"L_num":20,"L_den":25,"R_num":9,"R_den":18,"correct_side":1,"subjID":"simonelsin7","gender":"0","school":"4","age":"9"},{"start_time":1552327290389,"click_time":1552327299517,"finger_time":1552327297858,"fix_duration":250,"trial":32,"RT":7469,"MT":1659,"sideResp":2,"stimulus":[],"xmouse":[801,801,801,801,801,801,801,801,801,801,801,801,801,801,801,801,801,801,801,801,801,801,801,801,801,801,801,801,801,801,801,801,801,801,801,801,801,801,801,801,801,801,801,801,801,801,801,801,801,801,801,801,801,801,801,801,801,801,801,801,801,801,801,801,801,801,801,801,801,801,801,801,801,801,801,801,801,801,801,801,801,801,801,801,801,801,801,801,801,801,801,801,801,801,801,801,801,801,801,801,801,801,801,801,801,801,801,801,801,801,801,801,801,801,801,801,801,801,801,801,801,801,801,801,801,801,801,801,801,801,801,801,801,801,801,801,801,801,801,801,801,801,801,801,801,801,801,801,801,801,801,801,801,801,801,801,801,801,801,801,801,801,801,801,801,801,801,801,801,801,801,801,801,801,801,801,801,801,801,801,801,801,801,801,801,801,801,801,801,801,801,801,801,801,801,801,801,801,801,801,801,801,801,801,801,801,801,801,801,801,801,801,801,801,801,801,801,801,801,801,801,801,801,801,801,801,801,801,801,801,801,801,801,801,801,801,801,801,801,801,801,801,801,801,801,801,801,801,801,801,801,801,801,801,801,801,801,801,801,801,801,801,801,801,801,801,801,801,801,801,801,801,801,801,801,801,801,801,801,801,801,801,801,801,801,801,801,801,801,801,801,801,801,801,801,801,801,801,801,801,801,801,801,801,801,801,801,801,801,801,801,801,801,801,801,801,801,801,801,801,801,801,801,801,801,801,801,801,801,801,801,801,801,801,801,801,801,801,801,801,801,801,801,801,801,801,801,801,801,801,801,801,801,801,801,801,801,801,801,801,801,801,801,801,801,801,801,801,801,801,801,801,801,859,932,932,932,932,932,932,932,932,932,932,932,932,932,932,932,932,932,932,932,932,932,932,932,932,932,932,932,932,932,932,932,932,932,932,932,932,932,932,932,932,932,932,932,932,932,932,932,932,932,1580,1459,1350,1289,1289,1289,1289,1289,1289,1289,1289,1003,1066,1098,1134,1222,1504,1504,1504,1504,1504,1504,1504,1504,1504,1504,1504,1504,1178,1175,1170,1164,1162,1158],"ymouse":[511,511,511,511,511,511,511,511,511,511,511,511,511,511,511,511,511,511,511,511,511,511,511,511,511,511,511,511,511,511,511,511,511,511,511,511,511,511,511,511,511,511,511,511,511,511,511,511,511,511,511,511,511,511,511,511,511,511,511,511,511,511,511,511,511,511,511,511,511,511,511,511,511,511,511,511,511,511,511,511,511,511,511,511,511,511,511,511,511,511,511,511,511,511,511,511,511,511,511,511,511,511,511,511,511,511,511,511,511,511,511,511,511,511,511,511,511,511,511,511,511,511,511,511,511,511,511,511,511,511,511,511,511,511,511,511,511,511,511,511,511,511,511,511,511,511,511,511,511,511,511,511,511,511,511,511,511,511,511,511,511,511,511,511,511,511,511,511,511,511,511,511,511,511,511,511,511,511,511,511,511,511,511,511,511,511,511,511,511,511,511,511,511,511,511,511,511,511,511,511,511,511,511,511,511,511,511,511,511,511,511,511,511,511,511,511,511,511,511,511,511,511,511,511,511,511,511,511,511,511,511,511,511,511,511,511,511,511,511,511,511,511,511,511,511,511,511,511,511,511,511,511,511,511,511,511,511,511,511,511,511,511,511,511,511,511,511,511,511,511,511,511,511,511,511,511,511,511,511,511,511,511,511,511,511,511,511,511,511,511,511,511,511,511,511,511,511,511,511,511,511,511,511,511,511,511,511,511,511,511,511,511,511,511,511,511,511,511,511,511,511,511,511,511,511,511,511,511,511,511,511,511,511,511,511,511,511,511,511,511,511,511,511,511,511,511,511,511,511,511,511,511,511,511,511,511,511,511,511,511,511,511,511,511,511,511,511,511,511,511,511,511,511,357,78,78,78,78,78,78,78,78,78,78,78,78,78,78,78,78,78,78,78,78,78,78,78,78,78,78,78,78,78,78,78,78,78,78,78,78,78,78,78,78,78,78,78,78,78,78,78,78,78,22,340,590,718,718,718,718,718,718,718,718,690,620,578,521,402,23,23,23,23,23,23,23,23,23,23,23,23,19,31,47,63,64,64],"timestamp_mouse":[13,36,48,69,89,108,129,147,167,188,208,229,249,267,288,309,328,347,369,389,408,428,448,467,488,508,527,548,568,588,607,628,649,667,688,708,728,749,768,788,808,828,848,869,889,908,928,947,968,988,1009,1028,1048,1068,1089,1107,1128,1149,1168,1189,1209,1229,1249,1269,1288,1309,1329,1349,1369,1388,1409,1428,1449,1469,1488,1509,1529,1548,1569,1588,1608,1629,1649,1667,1688,1709,1728,1749,1769,1789,1809,1829,1848,1869,1888,1909,1928,1948,1968,1988,2008,2028,2049,2068,2088,2109,2128,2149,2169,2188,2209,2229,2248,2268,2288,2309,2328,2348,2368,2389,2408,2428,2447,2467,2488,2509,2528,2549,2569,2588,2608,2627,2649,2669,2688,2709,2729,2749,2769,2788,2809,2829,2849,2868,2888,2909,2928,2956,2969,2988,3008,3028,3048,3068,3088,3108,3129,3148,3168,3188,3209,3228,3248,3268,3288,3309,3329,3348,3368,3388,3408,3429,3448,3468,3489,3508,3529,3549,3571,3588,3609,3628,3649,3668,3689,3708,3729,3749,3767,3787,3809,3829,3848,3869,3889,3909,3928,3948,3969,3989,4008,4029,4048,4068,4088,4108,4128,4148,4169,4188,4209,4228,4249,4267,4287,4309,4328,4349,4368,4389,4408,4427,4447,4468,4488,4508,4528,4549,4569,4587,4607,4627,4649,4668,4688,4708,4729,4748,4767,4787,4809,4829,4848,4869,4889,4909,4929,4948,4969,4989,5009,5028,5049,5067,5088,5108,5129,5147,5168,5188,5209,5228,5249,5268,5289,5309,5329,5349,5369,5387,5409,5429,5448,5468,5489,5508,5528,5548,5569,5588,5609,5628,5649,5667,5689,5709,5729,5749,5768,5788,5809,5828,5848,5869,5888,5908,5929,5948,5969,5988,6008,6029,6049,6068,6089,6109,6128,6149,6167,6188,6209,6228,6249,6268,6287,6308,6329,6348,6369,6388,6407,6429,6448,6468,6488,6508,6529,6549,6569,6588,6609,6629,6648,6667,6688,6709,6728,6749,6769,6789,6809,6828,6849,6867,6888,6909,6929,6949,6968,6988,7009,7029,7048,7069,7089,7109,7128,7147,7168,7188,7209,7228,7249,7268,7289,7309,7328,7348,7369,7388,7409,7429,7449,7469,7488,7508,7528,7548,7568,7589,7608,7627,7647,7669,7688,7708,7729,7749,7769,7788,7808,7828,7848,7868,7887,7909,7929,7949,7969,7987,8008,8029,8048,8067,8088,8109,8129,8149,8169,8187,8208,8229,8249,8268,8287,8307,8329,8348,8369,8387,8407,8429,8448,8469,8488,8508,8528,8548,8570,8588,8608,8629,8649,8668,8688,8708,8729,8749,8768,8788,8808,8828,8848,8868,8889,8908,8928,8948,8968,8989,9008,9028,9049,9068,9088,9108,9128],"xSR":741.5,"ySR":469.95,"xT1":424.9,"yT1":0,"xT2":1058.1,"yT2":0,"toosoon":0,"cond_shown":"Congruent","ratio_trial":200,"L_num":16,"L_den":20,"R_num":12,"R_den":20,"correct_side":1,"subjID":"simonelsin7","gender":"0","school":"4","age":"9"},{"start_time":1552327300609,"click_time":1552327302178,"finger_time":1552327301418,"fix_duration":250,"trial":33,"RT":809,"MT":760,"sideResp":1,"stimulus":[],"xmouse":[792,792,792,792,792,792,792,792,792,792,792,792,792,792,792,792,792,792,792,792,792,792,792,792,792,792,792,792,792,792,792,792,792,792,792,792,794,795,823,841,861,870,873,873,873,873,873,873,873,873,873,873,873,872,871,870,869,865,863,853,842,833,802,780,741,689,631,587,547,547,547,547,547,547,547,547,547,547,509],"ymouse":[521,521,521,521,521,521,521,521,521,521,521,521,521,521,521,521,521,521,521,521,521,521,521,521,521,521,521,521,521,521,521,521,521,521,521,521,521,521,496,477,455,446,443,443,443,443,443,443,443,443,443,443,443,445,447,448,449,453,456,462,465,469,475,475,473,449,379,256,43,43,43,43,43,43,43,43,43,43,5],"timestamp_mouse":[12,41,50,68,89,109,129,149,168,188,208,229,248,268,288,309,329,349,368,387,408,428,447,469,488,509,529,549,568,587,609,629,649,668,688,709,729,748,768,788,809,828,850,868,889,909,928,949,968,988,1008,1028,1048,1068,1088,1108,1128,1150,1167,1189,1209,1227,1250,1267,1289,1309,1329,1348,1368,1389,1409,1428,1449,1468,1489,1509,1529,1549,1568],"xSR":741.5,"ySR":469.95,"xT1":424.9,"yT1":0,"xT2":1058.1,"yT2":0,"toosoon":0,"cond_shown":"Congruent","ratio_trial":200,"L_num":9,"L_den":30,"R_num":13,"R_den":26,"correct_side":2,"subjID":"simonelsin7","gender":"0","school":"4","age":"9"},{"start_time":1552327303644,"click_time":1552327304476,"finger_time":1552327304397,"fix_duration":566.5836533782497,"trial":34,"RT":753,"MT":79,"sideResp":1,"stimulus":[],"xmouse":[831,831,831,831,831,831,831,831,831,830,830,830,830,830,830,830,830,830,830,830,830,830,830,830,830,830,830,830,830,830,830,830,830,830,830,817,771,750,661,601,541,464],"ymouse":[541,541,541,541,541,541,541,541,541,541,540,540,540,540,540,540,540,540,540,540,540,540,540,540,540,540,540,540,540,540,540,540,540,540,540,528,484,463,364,294,205,65],"timestamp_mouse":[13,35,54,74,93,113,133,153,173,193,213,234,252,273,293,313,332,354,373,394,414,433,453,473,493,514,533,553,574,594,613,644,653,673,693,714,733,753,773,792,813,832],"xSR":741.5,"ySR":469.95,"xT1":424.9,"yT1":0,"xT2":1058.1,"yT2":0,"toosoon":0,"cond_shown":"Congruent","ratio_trial":100,"L_num":10,"L_den":25,"R_num":3,"R_den":10,"correct_side":1,"subjID":"simonelsin7","gender":"0","school":"4","age":"9"},{"start_time":1552327308549,"click_time":1552327310016,"finger_time":1552327309718,"fix_duration":1450.2744394276608,"trial":35,"RT":1169,"MT":298,"sideResp":1,"stimulus":[],"xmouse":[744,744,744,744,744,744,744,744,744,744,744,744,744,744,744,744,744,744,744,744,744,744,744,744,744,744,744,744,744,744,744,744,744,744,744,744,744,744,744,744,744,744,744,744,744,744,744,744,744,744,744,744,744,744,744,744,744,744,741,734,720,701,685,668,633,600,571,565,562,559,551,536,531,509],"ymouse":[497,497,497,497,497,497,497,497,497,497,497,497,497,497,497,497,497,497,497,497,497,497,497,497,497,497,497,497,497,497,497,497,497,497,497,497,497,497,497,497,497,497,497,497,497,497,497,497,497,497,497,497,497,497,497,497,497,497,492,479,455,412,383,356,304,255,214,207,202,196,175,143,133,98],"timestamp_mouse":[13,42,47,67,87,108,127,149,168,189,207,227,249,268,288,308,329,348,368,389,407,427,448,468,488,507,529,547,567,588,609,628,648,667,688,709,727,747,769,789,809,827,847,869,888,907,929,948,968,989,1009,1029,1047,1067,1088,1107,1127,1149,1169,1188,1208,1227,1248,1268,1287,1307,1328,1347,1367,1389,1410,1428,1447,1467],"xSR":741.5,"ySR":469.95,"xT1":424.9,"yT1":0,"xT2":1058.1,"yT2":0,"toosoon":0,"cond_shown":"Incongruent","ratio_trial":100,"L_num":3,"L_den":9,"R_num":7,"R_den":30,"correct_side":1,"subjID":"simonelsin7","gender":"0","school":"4","age":"9"},{"start_time":1552327311658,"click_time":1552327312797,"finger_time":1552327312518,"fix_duration":1059.7674857703907,"trial":36,"RT":860,"MT":279,"sideResp":2,"stimulus":[],"xmouse":[765,765,765,765,765,765,765,765,765,765,765,765,765,765,765,765,765,765,765,765,765,765,765,765,765,765,765,765,765,765,765,765,765,765,765,765,765,765,765,768,780,794,839,937,1159,1203,1221,1223,1223,1223,1223,1223,1219,1209,1191,1152,1124],"ymouse":[547,547,547,547,547,547,547,547,547,547,547,547,547,547,547,547,547,547,547,547,547,547,547,547,547,547,547,547,547,547,547,547,547,547,547,547,547,547,547,545,529,509,466,395,241,221,207,205,205,205,205,204,198,184,162,122,93],"timestamp_mouse":[18,38,58,80,99,119,138,159,180,199,220,238,258,278,300,318,339,358,380,400,419,438,459,478,498,520,539,558,579,599,620,639,659,680,699,719,739,759,779,800,819,839,860,879,900,920,938,960,979,999,1020,1038,1059,1078,1098,1118,1138],"xSR":741.5,"ySR":469.95,"xT1":424.9,"yT1":0,"xT2":1058.1,"yT2":0,"toosoon":0,"cond_shown":"Incongruent","ratio_trial":300,"L_num":8,"L_den":10,"R_num":9,"R_den":18,"correct_side":1,"subjID":"simonelsin7","gender":"0","school":"4","age":"9"},{"start_time":1552327316902,"click_time":1552327318496,"finger_time":1552327318296,"fix_duration":1323.516643738449,"trial":37,"RT":1394,"MT":200,"sideResp":1,"stimulus":[],"xmouse":[769,769,769,769,769,769,769,769,769,769,769,769,769,769,769,769,769,769,769,769,769,769,769,769,769,769,769,769,769,769,769,769,769,769,769,769,769,769,769,769,769,769,769,769,769,769,769,769,769,769,769,769,769,769,769,769,770,770,770,771,771,771,771,771,771,771,771,762,748,714,680,646,610,528,482,468,462,457,456,454],"ymouse":[529,529,529,529,529,529,529,529,529,529,529,529,529,529,529,529,529,529,529,529,529,529,529,529,529,529,529,529,529,529,529,529,529,529,529,529,529,529,529,529,529,529,529,529,529,529,529,529,529,529,529,529,529,529,529,529,527,524,522,520,520,520,520,520,520,518,515,494,470,419,362,304,249,165,127,115,109,104,102,99],"timestamp_mouse":[14,40,54,75,96,115,134,154,176,196,215,235,254,276,296,315,334,355,375,395,415,436,455,474,494,515,535,554,574,595,614,634,656,674,694,715,735,754,775,796,816,835,854,874,895,916,936,955,975,995,1016,1035,1055,1074,1095,1115,1135,1156,1175,1196,1216,1235,1256,1274,1295,1315,1335,1356,1374,1394,1414,1435,1454,1474,1495,1515,1535,1557,1574,1594],"xSR":741.5,"ySR":469.95,"xT1":424.9,"yT1":0,"xT2":1058.1,"yT2":0,"toosoon":0,"cond_shown":"Incongruent","ratio_trial":300,"L_num":1,"L_den":2,"R_num":3,"R_den":15,"correct_side":1,"subjID":"simonelsin7","gender":"0","school":"4","age":"9"},{"start_time":1552327320181,"click_time":1552327321776,"finger_time":1552327321378,"fix_duration":843.6809237890924,"trial":38,"RT":1197,"MT":398,"sideResp":2,"stimulus":[],"xmouse":[806,806,806,806,806,806,806,806,806,806,806,806,806,806,806,806,806,806,806,806,806,806,806,806,806,806,806,806,806,806,806,806,806,806,806,806,806,806,806,807,808,809,809,809,809,809,809,809,809,809,809,809,809,809,809,809,809,813,817,845,867,891,930,997,1016,1030,1046,1059,1081,1087,1091,1093,1096,1098,1109,1116,1122,1127,1130,1131],"ymouse":[496,496,496,496,496,496,496,496,496,496,496,496,496,496,496,496,496,496,496,496,496,496,496,496,496,496,496,496,496,496,496,496,496,496,496,496,496,496,496,496,496,496,496,496,496,496,496,496,496,496,496,496,496,496,496,496,496,495,492,469,452,432,386,299,280,262,240,219,185,177,172,168,164,159,144,132,122,109,102,93],"timestamp_mouse":[16,41,55,76,96,116,135,156,176,197,215,236,256,275,296,316,336,356,377,395,415,436,456,475,496,517,535,555,575,595,616,635,656,676,696,716,736,756,775,795,817,836,855,875,896,916,935,957,976,996,1016,1035,1057,1075,1097,1115,1136,1155,1176,1197,1215,1235,1256,1277,1295,1315,1335,1356,1377,1395,1415,1435,1456,1476,1495,1516,1535,1556,1575,1595],"xSR":741.5,"ySR":469.95,"xT1":424.9,"yT1":0,"xT2":1058.1,"yT2":0,"toosoon":0,"cond_shown":"Incongruent","ratio_trial":200,"L_num":7,"L_den":15,"R_num":4,"R_den":6,"correct_side":2,"subjID":"simonelsin7","gender":"0","school":"4","age":"9"},{"start_time":1552327323733,"click_time":1552327325276,"finger_time":1552327324858,"fix_duration":1074.7766821446046,"trial":39,"RT":1125,"MT":418,"sideResp":2,"stimulus":[],"xmouse":[780,780,780,780,780,780,780,780,780,780,780,780,780,780,780,780,780,780,780,780,780,780,780,780,780,780,780,780,780,780,780,780,780,780,780,780,780,780,780,780,780,780,780,780,780,780,780,780,780,780,781,782,786,786,786,786,845,916,992,1060,1112,1159,1222,1228,1228,1229,1229,1229,1229,1229,1229,1229,1229,1229,1229,1229,1229,1084],"ymouse":[512,512,512,512,512,512,512,512,512,512,512,512,512,512,512,512,512,512,512,512,512,512,512,512,512,512,512,512,512,512,512,512,512,512,512,512,512,512,512,512,512,512,512,512,512,512,512,512,512,512,511,509,499,498,498,496,434,365,293,231,192,160,80,44,33,23,2,2,2,2,2,2,2,2,2,2,2,31],"timestamp_mouse":[14,24,45,65,83,105,124,143,164,183,203,223,243,264,284,304,324,343,364,384,405,423,444,465,484,505,523,543,565,584,604,623,643,665,685,703,724,745,763,783,804,825,843,863,885,904,924,945,964,983,1005,1024,1043,1064,1083,1105,1125,1143,1164,1184,1205,1223,1243,1265,1283,1305,1323,1344,1363,1384,1405,1424,1445,1464,1485,1505,1523,1543],"xSR":741.5,"ySR":469.95,"xT1":424.9,"yT1":0,"xT2":1058.1,"yT2":0,"toosoon":0,"cond_shown":"Incongruent","ratio_trial":100,"L_num":8,"L_den":20,"R_num":1,"R_den":2,"correct_side":2,"subjID":"simonelsin7","gender":"0","school":"4","age":"9"},{"start_time":1552327331600,"click_time":1552327333676,"finger_time":1552327333397,"fix_duration":822.6066960826267,"trial":40,"RT":1797,"MT":279,"sideResp":2,"stimulus":[],"xmouse":[824,824,824,824,824,824,824,824,824,824,824,824,824,824,824,824,824,824,824,824,824,824,824,824,824,824,824,824,824,824,824,824,824,824,824,824,824,824,824,824,824,824,824,824,824,824,824,824,824,824,824,824,824,824,824,824,824,824,824,824,824,824,824,824,824,824,824,824,824,824,824,824,822,821,820,818,818,818,818,818,818,818,818,818,818,818,818,822,830,861,896,933,974,986,999,1016,1035,1052,1057,1059,1062,1068,1076,1077],"ymouse":[550,550,550,550,550,550,550,550,550,550,550,550,550,550,550,550,550,550,550,550,550,550,550,550,550,550,550,550,550,550,550,550,550,550,550,550,550,550,550,550,550,550,550,550,550,550,550,550,550,550,550,550,550,550,550,550,550,550,550,550,550,550,550,550,550,550,550,550,550,550,550,550,549,547,546,545,545,545,545,545,545,545,545,545,545,542,539,515,499,444,383,319,261,245,228,203,178,154,148,145,141,130,103,95],"timestamp_mouse":[16,40,56,76,97,118,138,156,177,198,218,236,257,278,297,317,336,357,376,398,417,436,458,478,498,517,537,557,576,597,618,637,656,676,696,717,738,758,778,797,817,837,857,878,898,917,937,958,977,997,1017,1036,1057,1077,1098,1117,1136,1157,1177,1196,1217,1236,1258,1278,1297,1317,1337,1357,1377,1396,1417,1436,1457,1476,1498,1516,1537,1558,1576,1597,1617,1637,1656,1676,1697,1717,1738,1758,1776,1797,1817,1837,1858,1876,1897,1916,1938,1958,1977,1997,2016,2037,2058,2076],"xSR":741.5,"ySR":469.95,"xT1":424.9,"yT1":0,"xT2":1058.1,"yT2":0,"toosoon":0,"cond_shown":"Incongruent","ratio_trial":100,"L_num":10,"L_den":25,"R_num":8,"R_den":16,"correct_side":2,"subjID":"simonelsin7","gender":"0","school":"4","age":"9"},{"start_time":1552327334908,"click_time":1552327336559,"finger_time":1552327336377,"fix_duration":390.18392518722976,"trial":41,"RT":1469,"MT":182,"sideResp":1,"stimulus":[],"xmouse":[770,770,770,770,770,770,770,770,770,770,770,770,770,770,770,770,770,770,770,770,770,770,770,771,772,774,774,775,776,776,778,778,779,779,779,779,780,780,780,780,780,780,780,780,780,780,780,780,780,780,780,780,780,780,780,780,780,780,780,780,780,780,780,781,782,782,784,785,790,793,795,797,799,798,792,787,779,760,665,607,563,533,515],"ymouse":[537,537,537,537,537,537,537,537,537,537,537,537,537,537,537,537,537,537,537,537,537,537,537,536,535,534,534,533,532,531,531,530,530,530,530,529,529,529,529,529,529,529,529,529,529,529,529,529,529,529,529,529,529,529,529,529,529,529,529,529,529,529,529,528,527,527,526,526,518,511,506,497,487,460,448,435,416,382,260,193,142,100,63],"timestamp_mouse":[13,37,48,68,88,108,129,150,170,189,209,229,248,269,289,309,329,348,369,390,408,429,449,469,489,508,529,550,568,589,610,630,648,669,690,709,728,749,770,789,808,830,850,868,889,908,929,950,970,988,1009,1029,1049,1070,1089,1109,1129,1150,1169,1188,1209,1230,1250,1268,1289,1308,1329,1348,1369,1389,1408,1428,1448,1469,1490,1510,1530,1549,1568,1589,1610,1629,1651],"xSR":741.5,"ySR":469.95,"xT1":424.9,"yT1":0,"xT2":1058.1,"yT2":0,"toosoon":0,"cond_shown":"Incongruent","ratio_trial":100,"L_num":2,"L_den":4,"R_num":8,"R_den":20,"correct_side":1,"subjID":"simonelsin7","gender":"0","school":"4","age":"9"},{"start_time":1552327338292,"click_time":1552327339577,"finger_time":1552327339097,"fix_duration":713.3473842194616,"trial":42,"RT":805,"MT":480,"sideResp":1,"stimulus":[],"xmouse":[751,751,752,752,752,752,752,752,752,752,752,752,752,752,752,752,752,752,752,752,752,752,752,752,752,752,752,752,752,753,753,753,753,753,753,753,753,753,753,753,753,753,744,712,683,664,646,625,586,573,566,561,561,560,560,559,556,553,550,548,545,542,536,531,523],"ymouse":[507,507,507,507,507,507,507,507,507,507,507,507,507,507,507,507,507,507,507,507,507,507,507,507,507,507,507,507,507,507,507,507,507,507,507,506,506,503,498,474,446,403,352,260,194,151,110,73,23,11,5,2,2,2,2,3,7,10,15,18,21,24,26,30,34],"timestamp_mouse":[19,27,47,64,85,104,124,146,164,184,204,225,245,266,285,304,325,344,366,385,405,425,445,465,484,504,524,545,564,585,605,625,645,666,684,705,726,746,764,784,805,824,845,867,885,904,925,945,966,985,1004,1024,1045,1065,1086,1105,1124,1144,1166,1184,1206,1224,1245,1265,1285],"xSR":741.5,"ySR":469.95,"xT1":424.9,"yT1":0,"xT2":1058.1,"yT2":0,"toosoon":0,"cond_shown":"Incongruent","ratio_trial":300,"L_num":4,"L_den":5,"R_num":6,"R_den":12,"correct_side":1,"subjID":"simonelsin7","gender":"0","school":"4","age":"9"},{"start_time":1552327340587,"click_time":1552327342258,"finger_time":1552327341977,"fix_duration":250,"trial":43,"RT":1390,"MT":281,"sideResp":1,"stimulus":[],"xmouse":[769,769,769,769,769,769,769,769,769,769,769,769,769,769,769,769,769,769,769,769,769,769,769,769,769,769,769,769,769,769,769,769,769,769,769,769,769,769,769,769,769,769,769,769,769,769,769,769,769,769,769,769,769,769,769,769,769,769,769,769,769,769,769,769,769,769,769,769,769,765,761,747,733,698,659,615,573,544,519,517,517,517,517,512],"ymouse":[495,495,495,495,495,495,495,495,495,495,495,495,495,495,495,495,495,495,495,495,495,495,495,495,495,495,495,495,495,495,495,495,495,495,495,495,495,495,495,495,495,495,494,491,490,489,488,487,487,487,487,487,487,487,487,487,487,487,487,487,487,487,487,487,487,487,487,485,472,435,414,357,326,282,254,225,192,168,142,132,126,120,117,99],"timestamp_mouse":[10,36,50,71,90,111,131,151,170,190,211,230,250,270,291,311,329,350,370,389,409,430,450,470,490,510,530,551,571,590,610,630,649,669,690,711,730,750,770,789,809,831,850,871,891,910,930,951,969,989,1009,1031,1050,1069,1090,1109,1129,1150,1170,1189,1211,1229,1249,1271,1289,1309,1331,1350,1370,1390,1410,1429,1451,1471,1489,1509,1529,1550,1570,1589,1609,1630,1649,1671],"xSR":741.5,"ySR":469.95,"xT1":424.9,"yT1":0,"xT2":1058.1,"yT2":0,"toosoon":0,"cond_shown":"Congruent","ratio_trial":100,"L_num":15,"L_den":25,"R_num":13,"R_den":26,"correct_side":1,"subjID":"simonelsin7","gender":"0","school":"4","age":"9"},{"start_time":1552327343230,"click_time":1552327345057,"finger_time":1552327344096,"fix_duration":250,"trial":44,"RT":866,"MT":961,"sideResp":2,"stimulus":[],"xmouse":[793,793,793,793,793,793,793,793,793,793,793,793,793,793,793,793,793,793,793,793,793,793,793,793,793,793,793,793,793,793,793,793,793,793,793,793,793,793,793,793,794,800,829,853,872,890,902,910,911,911,911,911,911,911,911,911,911,911,911,911,911,911,911,911,913,917,924,938,940,940,940,940,940,940,940,939,934,932,932,932,932,932,932,932,932,932,940,986,1069,1120,1142,1150],"ymouse":[536,536,536,536,536,536,536,536,536,536,536,536,536,536,536,536,536,536,536,536,536,536,536,536,536,536,536,536,536,536,536,536,536,536,536,536,536,536,536,535,530,521,471,428,394,367,347,334,333,333,333,333,333,333,333,333,333,333,333,333,333,333,333,333,330,324,316,297,294,293,293,293,293,293,293,293,296,296,296,296,296,296,296,296,296,296,293,251,178,134,112,96],"timestamp_mouse":[7,39,46,67,87,107,128,148,166,187,208,227,246,267,288,306,326,346,368,387,406,426,446,466,487,507,527,546,566,587,608,627,646,667,686,706,728,746,767,787,808,826,847,866,888,907,927,946,966,987,1008,1028,1046,1067,1087,1107,1128,1146,1167,1187,1206,1227,1246,1267,1287,1307,1327,1346,1366,1387,1407,1428,1446,1466,1487,1506,1528,1546,1567,1587,1606,1627,1646,1667,1687,1707,1727,1746,1766,1787,1806,1826],"xSR":741.5,"ySR":469.95,"xT1":424.9,"yT1":0,"xT2":1058.1,"yT2":0,"toosoon":0,"cond_shown":"Incongruent","ratio_trial":100,"L_num":11,"L_den":22,"R_num":9,"R_den":15,"correct_side":2,"subjID":"simonelsin7","gender":"0","school":"4","age":"9"},{"start_time":1552327346261,"click_time":1552327347338,"finger_time":1552327346958,"fix_duration":462.40718865943774,"trial":45,"RT":697,"MT":380,"sideResp":1,"stimulus":[],"xmouse":[816,816,816,816,816,816,816,816,816,816,816,816,816,816,816,816,816,816,816,816,816,816,816,816,816,814,814,814,813,812,796,791,788,782,763,753,737,728,715,693,686,675,662,645,626,596,573,560,551,542,535,533,529,521],"ymouse":[504,504,504,504,504,504,504,504,504,504,504,504,504,504,504,504,504,504,504,504,504,504,504,504,504,504,504,504,504,504,492,487,483,472,435,413,378,349,318,268,249,232,214,193,170,136,119,108,96,83,76,75,71,65],"timestamp_mouse":[16,36,55,75,97,116,135,156,176,197,217,236,256,275,296,317,336,356,376,395,416,435,456,476,497,516,535,556,575,595,615,635,656,677,697,715,736,755,777,798,815,836,855,876,896,915,936,957,976,995,1016,1035,1056,1077],"xSR":741.5,"ySR":469.95,"xT1":424.9,"yT1":0,"xT2":1058.1,"yT2":0,"toosoon":0,"cond_shown":"Congruent","ratio_trial":300,"L_num":20,"L_den":25,"R_num":13,"R_den":26,"correct_side":1,"subjID":"simonelsin7","gender":"0","school":"4","age":"9"},{"start_time":1552327348248,"click_time":1552327349397,"finger_time":1552327349036,"fix_duration":250,"trial":46,"RT":788,"MT":361,"sideResp":2,"stimulus":[],"xmouse":[803,803,803,803,803,803,803,803,803,803,803,803,803,803,803,803,803,803,803,803,803,803,803,803,803,803,803,803,803,803,803,803,803,803,803,803,805,807,825,842,862,917,962,1018,1055,1072,1080,1081,1081,1081,1081,1082,1082,1087,1091,1096,1099,1100],"ymouse":[543,543,543,543,543,543,543,543,543,543,543,543,543,543,543,543,543,543,543,543,543,543,543,543,543,543,543,543,543,543,543,543,543,543,543,543,542,540,521,503,483,414,349,273,218,193,166,156,144,136,133,130,130,124,117,111,102,99],"timestamp_mouse":[9,30,49,68,88,110,130,148,169,190,208,228,249,269,289,310,329,349,369,388,409,429,448,470,490,509,528,548,569,590,609,628,649,668,689,710,728,749,770,788,808,828,848,870,889,908,928,949,969,989,1009,1029,1049,1068,1088,1110,1128,1148],"xSR":741.5,"ySR":469.95,"xT1":424.9,"yT1":0,"xT2":1058.1,"yT2":0,"toosoon":0,"cond_shown":"Congruent","ratio_trial":300,"L_num":5,"L_den":25,"R_num":7,"R_den":14,"correct_side":2,"subjID":"simonelsin7","gender":"0","school":"4","age":"9"},{"start_time":1552327351977,"click_time":1552327353136,"finger_time":1552327352597,"fix_duration":1239.7441120552712,"trial":47,"RT":620,"MT":539,"sideResp":2,"stimulus":[],"xmouse":[801,801,801,801,801,801,801,801,801,801,801,801,801,801,801,801,801,801,801,801,801,801,801,801,801,801,801,800,799,792,782,776,770,762,747,744,744,744,744,744,744,744,746,754,790,820,851,873,890,923,967,984,992,1010,1018,1026,1042,1068],"ymouse":[516,516,516,516,516,516,516,516,516,516,516,516,516,516,516,516,516,516,516,516,516,516,516,516,516,516,516,513,508,484,462,445,420,392,335,328,328,328,328,328,328,327,327,329,333,333,331,320,306,240,141,101,86,64,56,47,38,30],"timestamp_mouse":[19,45,60,80,99,120,141,160,179,199,220,241,259,279,300,319,340,361,379,399,420,441,459,480,499,521,540,560,580,599,620,641,660,680,699,721,740,761,779,799,819,840,861,880,900,919,939,959,979,999,1021,1039,1059,1081,1099,1119,1139,1159],"xSR":741.5,"ySR":469.95,"xT1":424.9,"yT1":0,"xT2":1058.1,"yT2":0,"toosoon":0,"cond_shown":"Incongruent","ratio_trial":200,"L_num":3,"L_den":10,"R_num":1,"R_den":2,"correct_side":2,"subjID":"simonelsin7","gender":"0","school":"4","age":"9"},{"start_time":1552327355099,"click_time":1552327355977,"finger_time":1552327355676,"fix_duration":1159.2555856855242,"trial":48,"RT":577,"MT":301,"sideResp":2,"stimulus":[],"xmouse":[814,814,814,814,814,814,814,814,814,814,814,814,814,814,814,814,814,814,814,814,814,814,814,816,816,820,823,828,848,866,887,917,966,996,1004,1023,1025,1030,1043,1053,1063,1076,1094,1124],"ymouse":[546,546,546,546,546,546,546,546,546,546,546,546,546,546,546,546,546,546,546,546,546,546,546,541,540,534,530,523,501,484,462,437,383,339,324,269,249,231,196,175,157,138,119,80],"timestamp_mouse":[18,46,59,77,98,117,137,157,177,197,218,237,257,279,299,318,337,357,378,399,417,437,458,477,498,518,539,558,577,597,617,638,659,678,697,718,737,758,778,798,817,838,858,877],"xSR":741.5,"ySR":469.95,"xT1":424.9,"yT1":0,"xT2":1058.1,"yT2":0,"toosoon":0,"cond_shown":"Congruent","ratio_trial":200,"L_num":3,"L_den":6,"R_num":14,"R_den":20,"correct_side":2,"subjID":"simonelsin7","gender":"0","school":"4","age":"9"},{"start_time":1552327357353,"click_time":1552327358837,"finger_time":1552327358537,"fix_duration":713.1685204677415,"trial":49,"RT":1184,"MT":300,"sideResp":2,"stimulus":[],"xmouse":[801,801,801,801,801,801,801,801,801,801,801,801,801,801,801,801,801,801,801,801,801,801,801,801,801,801,801,801,801,801,801,801,801,801,801,801,801,801,801,801,801,801,801,801,801,801,801,801,801,801,801,801,801,801,801,801,803,814,833,874,926,1032,1077,1140,1181,1225,1233,1237,1238,1237,1229,1221,1205,1185,1158],"ymouse":[506,506,506,506,506,506,506,506,506,506,506,506,506,506,506,506,506,506,506,506,506,506,506,506,506,506,506,506,506,506,506,506,506,506,506,506,506,506,506,506,506,506,506,506,506,506,506,506,506,506,506,506,506,506,506,506,504,492,471,431,383,297,264,210,179,135,118,102,88,79,67,59,44,35,26],"timestamp_mouse":[13,38,43,64,85,103,123,143,165,184,203,223,243,264,284,304,323,344,363,384,403,424,443,463,483,504,524,544,565,583,603,624,644,663,683,705,724,744,763,785,804,825,843,863,884,903,924,943,963,985,1004,1024,1044,1063,1084,1105,1125,1143,1165,1184,1204,1223,1243,1263,1284,1305,1323,1344,1363,1383,1405,1423,1443,1463,1483],"xSR":741.5,"ySR":469.95,"xT1":424.9,"yT1":0,"xT2":1058.1,"yT2":0,"toosoon":0,"cond_shown":"Incongruent","ratio_trial":200,"L_num":14,"L_den":30,"R_num":12,"R_den":18,"correct_side":2,"subjID":"simonelsin7","gender":"0","school":"4","age":"9"},{"start_time":1552327359829,"click_time":1552327361076,"finger_time":1552327360716,"fix_duration":250,"trial":50,"RT":887,"MT":360,"sideResp":1,"stimulus":[],"xmouse":[818,818,818,818,818,818,818,818,818,818,818,818,818,818,818,818,818,818,818,818,818,818,818,818,818,818,818,818,818,818,818,818,818,818,818,818,818,818,818,817,815,807,796,782,768,746,723,667,645,630,614,594,539,517,503,496,488,488,488,488,487,483,469],"ymouse":[551,551,551,551,551,551,551,551,551,551,551,551,551,551,551,551,551,551,551,551,551,551,551,551,551,551,551,551,551,551,551,551,551,551,551,551,551,551,551,551,550,534,516,492,458,412,372,300,276,254,233,213,161,140,127,120,110,109,109,109,109,106,90],"timestamp_mouse":[7,35,49,68,87,108,127,148,169,189,208,228,247,268,288,309,328,348,368,389,408,429,448,467,489,508,528,547,567,588,607,627,648,669,689,708,728,747,769,787,808,828,849,867,887,907,927,947,969,988,1007,1028,1047,1067,1088,1108,1130,1148,1167,1189,1209,1228,1247],"xSR":741.5,"ySR":469.95,"xT1":424.9,"yT1":0,"xT2":1058.1,"yT2":0,"toosoon":0,"cond_shown":"Congruent","ratio_trial":200,"L_num":6,"L_den":15,"R_num":3,"R_den":15,"correct_side":1,"subjID":"simonelsin7","gender":"0","school":"4","age":"9"},