[{"start_time":1552054736922,"click_time":1552054738007,"finger_time":1552054737705,"fix_duration":250,"trial":0,"RT":783,"MT":302,"sideResp":2,"stimulus":"img/500/randomdotsizeEA/L/11_Ratio_500_L_12_R_6.png","xmouse":[812,812,812,812,812,812,812,812,812,812,812,812,812,812,812,812,812,812,812,812,812,812,812,812,812,812,812,812,812,812,812,812,812,812,809,806,806,806,820,932,1012,1081,1125,1140,1148,1155,1165,1179,1192,1200,1199,1195,1189,1180,1147],"ymouse":[527,527,527,527,527,527,527,527,527,527,527,527,527,527,527,527,527,527,527,527,527,527,527,527,527,527,527,527,527,527,527,527,527,527,527,527,527,527,514,398,327,277,244,230,209,198,185,168,151,120,109,98,81,63,14],"timestamp_mouse":[13,23,43,63,83,102,124,142,162,183,204,223,243,264,282,302,322,343,364,382,403,422,442,463,482,504,522,542,562,584,602,622,642,663,683,703,724,742,762,783,802,823,843,864,884,902,923,942,963,983,1002,1023,1043,1062,1084],"xSR":741.5,"ySR":501.8,"xT1":424.9,"yT1":0,"xT2":1058.1,"yT2":0,"toosoon":0,"cond_shown":"randomdotsizeEA","ratio_trial":500,"smaller_num":"6","larger_num":"12","correct_side":1,"subjID":"Sofiacorrea26","gender":"1","age":"9","school":"4","test":{"fix_dur":[250,1500],"timestim":300,"targets_dim":[100,100],"targets_relative_coord":[0.3,0.7],"size_stim":[880,420],"start_dim":[100,100],"size_start":[300,300],"size_fix":60,"samplingrate":20,"img_types":["equaldotsize","equaldotanddens","randomdotsizeEA"],"ratios":[250,500,750,900],"rep_conds":9,"nTrials":120,"trials_to_rest":500,"Trials_order":[89,67,57,85,2,62,73,75,24,16,105,63,49,41,9,23,82,31,91,108,33,34,69,46,93,12,18,6,118,50,94,107,84,51,79,0,72,83,43,95,116,117,27,4,112,115,78,36,19,11,55,76,113,104,48,119,8,44,21,28,99,39,100,22,40,3,13,81,15,87,86,90,114,45,54,71,80,30,38,96,59,68,56,101,74,66,111,52,37,88,25,60,77,64,14,92,20,53,98,10,70,106,65,7,1,97,32,5,47,61,17,35,42,102,109,29,26,103,110,58],"cond_shown":["randomdotsizeEA","equaldotanddens","equaldotsize","equaldotanddens","randomdotsizeEA","randomdotsizeEA","equaldotanddens","equaldotsize","equaldotsize","equaldotanddens","equaldotsize","equaldotsize","equaldotanddens","randomdotsizeEA","equaldotsize","randomdotsizeEA","equaldotanddens","equaldotanddens","equaldotanddens","equaldotsize","equaldotsize","equaldotanddens","equaldotsize","equaldotanddens","equaldotsize","equaldotsize","equaldotsize","equaldotsize","equaldotanddens","randomdotsizeEA","equaldotanddens","randomdotsizeEA","equaldotsize","equaldotsize","equaldotanddens","equaldotsize","equaldotsize","randomdotsizeEA","equaldotanddens","randomdotsizeEA","randomdotsizeEA","equaldotsize","equaldotsize","equaldotanddens","equaldotanddens","equaldotanddens","equaldotsize","equaldotsize","equaldotanddens","randomdotsizeEA","equaldotanddens","equaldotanddens","randomdotsizeEA","randomdotsizeEA","equaldotsize","randomdotsizeEA","randomdotsizeEA","randomdotsizeEA","equaldotsize","equaldotanddens","equaldotsize","equaldotsize","equaldotanddens","equaldotanddens","equaldotanddens","equaldotsize","equaldotanddens","equaldotsize","equaldotsize","equaldotsize","randomdotsizeEA","equaldotsize","equaldotsize","equaldotsize","equaldotsize","randomdotsizeEA","randomdotsizeEA","equaldotsize","randomdotsizeEA","equaldotsize","randomdotsizeEA","randomdotsizeEA","randomdotsizeEA","randomdotsizeEA","randomdotsizeEA","equaldotsize","equaldotsize","equaldotanddens","equaldotanddens","equaldotanddens","equaldotanddens","equaldotsize","randomdotsizeEA","equaldotanddens","randomdotsizeEA","randomdotsizeEA","randomdotsizeEA","randomdotsizeEA","randomdotsizeEA","equaldotanddens","equaldotanddens","equaldotanddens","randomdotsizeEA","equaldotanddens","equaldotanddens","equaldotanddens","randomdotsizeEA","randomdotsizeEA","randomdotsizeEA","equaldotanddens","randomdotsizeEA","randomdotsizeEA","equaldotsize","equaldotsize","equaldotanddens","randomdotsizeEA","randomdotsizeEA","equaldotanddens","randomdotsizeEA","equaldotanddens"],"ratio_trial":[500,750,900,250,250,250,250,500,250,500,900,500,250,500,900,900,900,750,750,250,900,900,900,900,900,250,750,750,900,250,900,900,250,500,750,250,250,900,750,900,750,900,500,500,500,750,750,250,750,900,750,500,500,750,250,900,750,750,900,500,500,500,500,900,500,500,250,900,500,500,250,750,750,900,750,900,750,750,250,250,900,750,750,500,250,750,500,500,250,500,250,250,500,500,250,750,750,500,250,900,900,900,500,750,250,250,750,500,900,250,500,900,750,750,250,500,250,750,250,900],"smaller_num":["6","3","18","2","3","4","3","1","4","2","18","2","6","6","9","9","18","3","18","2","18","9","9","9","18","2","6","18","18","5","9","9","5","2","3","3","6","9","3","18","6","18","6","10","4","18","15","6","3","18","15","2","1","15","3","18","15","12","18","1","1","2","5","18","6","2","1","9","9","2","5","3","15","9","3","9","6","15","6","3","9","9","3","1","2","12","1","6","3","9","3","3","1","1","5","3","18","5","3","18","18","9","2","15","6","3","12","5","9","3","2","18","6","3","5","2","3","15","1","18"],"larger_num":["12","4","20","8","12","16","12","2","16","4","20","4","24","12","10","10","20","4","24","8","20","10","10","10","20","8","8","24","20","20","10","10","20","4","4","12","24","10","4","20","8","20","12","20","8","24","20","24","4","20","20","4","2","20","12","20","20","16","20","2","2","4","10","20","12","4","4","10","18","4","20","4","20","10","4","10","8","20","24","12","10","12","4","2","8","16","2","12","12","18","12","12","2","2","20","4","24","10","12","20","20","10","4","20","24","12","16","10","10","12","4","20","8","4","20","4","12","20","4","20"],"correct_side":[1,1,1,1,1,1,2,2,1,1,1,2,2,1,2,1,1,2,1,2,2,1,2,1,1,1,2,1,2,2,1,2,2,1,2,1,2,2,1,1,1,1,1,2,1,1,2,1,1,1,2,1,2,2,2,1,1,2,1,2,2,2,2,1,1,2,2,2,2,1,2,2,2,2,2,2,1,1,2,1,2,2,2,2,2,2,2,1,1,2,2,2,2,2,2,2,1,1,2,2,1,1,1,2,1,2,2,1,2,2,2,2,1,1,2,2,2,2,2,1],"img_shown":["img/500/randomdotsizeEA/L/11_Ratio_500_L_12_R_6.png","img/750/equaldotanddens/L/8_Ratio_750_L_4_R_3.png","img/900/equaldotsize/L/10_Ratio_900_L_20_R_18.png","img/250/equaldotanddens/L/1_Ratio_250_L_8_R_2.png","img/250/randomdotsizeEA/L/14_Ratio_250_L_12_R_3.png","img/250/randomdotsizeEA/L/2_Ratio_250_L_16_R_4.png","img/250/equaldotanddens/R/9_Ratio_250_L_3_R_12.png","img/500/equaldotsize/R/12_Ratio_500_L_1_R_2.png","img/250/equaldotsize/L/2_Ratio_250_L_16_R_4.png","img/500/equaldotanddens/L/5_Ratio_500_L_4_R_2.png","img/900/equaldotsize/L/2_Ratio_900_L_20_R_18.png","img/500/equaldotsize/R/9_Ratio_500_L_2_R_4.png","img/250/equaldotanddens/R/6_Ratio_250_L_6_R_24.png","img/500/randomdotsizeEA/L/11_Ratio_500_L_12_R_6.png","img/900/equaldotsize/R/5_Ratio_900_L_9_R_10.png","img/900/randomdotsizeEA/L/1_Ratio_900_L_10_R_9.png","img/900/equaldotanddens/L/10_Ratio_900_L_20_R_18.png","img/750/equaldotanddens/R/7_Ratio_750_L_3_R_4.png","img/750/equaldotanddens/L/6_Ratio_750_L_24_R_18.png","img/250/equaldotsize/R/13_Ratio_250_L_2_R_8.png","img/900/equaldotsize/R/13_Ratio_900_L_18_R_20.png","img/900/equaldotanddens/L/1_Ratio_900_L_10_R_9.png","img/900/equaldotsize/R/6_Ratio_900_L_9_R_10.png","img/900/equaldotanddens/L/1_Ratio_900_L_10_R_9.png","img/900/equaldotsize/L/10_Ratio_900_L_20_R_18.png","img/250/equaldotsize/L/1_Ratio_250_L_8_R_2.png","img/750/equaldotsize/R/2_Ratio_750_L_6_R_8.png","img/750/equaldotsize/L/6_Ratio_750_L_24_R_18.png","img/900/equaldotanddens/R/9_Ratio_900_L_18_R_20.png","img/250/randomdotsizeEA/R/12_Ratio_250_L_5_R_20.png","img/900/equaldotanddens/L/1_Ratio_900_L_10_R_9.png","img/900/randomdotsizeEA/R/5_Ratio_900_L_9_R_10.png","img/250/equaldotsize/R/12_Ratio_250_L_5_R_20.png","img/500/equaldotsize/L/10_Ratio_500_L_4_R_2.png","img/750/equaldotanddens/R/7_Ratio_750_L_3_R_4.png","img/250/equaldotsize/L/14_Ratio_250_L_12_R_3.png","img/250/equaldotsize/R/6_Ratio_250_L_6_R_24.png","img/900/randomdotsizeEA/R/3_Ratio_900_L_9_R_10.png","img/750/equaldotanddens/L/10_Ratio_750_L_4_R_3.png","img/900/randomdotsizeEA/L/2_Ratio_900_L_20_R_18.png","img/750/randomdotsizeEA/L/13_Ratio_750_L_8_R_6.png","img/900/equaldotsize/L/8_Ratio_900_L_20_R_18.png","img/500/equaldotsize/L/11_Ratio_500_L_12_R_6.png","img/500/equaldotanddens/R/3_Ratio_500_L_10_R_20.png","img/500/equaldotanddens/L/8_Ratio_500_L_8_R_4.png","img/750/equaldotanddens/L/6_Ratio_750_L_24_R_18.png","img/750/equaldotsize/R/5_Ratio_750_L_15_R_20.png","img/250/equaldotsize/L/5_Ratio_250_L_24_R_6.png","img/750/equaldotanddens/L/9_Ratio_750_L_4_R_3.png","img/900/randomdotsizeEA/L/8_Ratio_900_L_20_R_18.png","img/750/equaldotanddens/R/3_Ratio_750_L_15_R_20.png","img/500/equaldotanddens/L/5_Ratio_500_L_4_R_2.png","img/500/randomdotsizeEA/R/12_Ratio_500_L_1_R_2.png","img/750/randomdotsizeEA/R/4_Ratio_750_L_15_R_20.png","img/250/equaldotsize/R/11_Ratio_250_L_3_R_12.png","img/900/randomdotsizeEA/L/2_Ratio_900_L_20_R_18.png","img/750/randomdotsizeEA/L/1_Ratio_750_L_20_R_15.png","img/750/randomdotsizeEA/R/11_Ratio_750_L_12_R_16.png","img/900/equaldotsize/L/8_Ratio_900_L_20_R_18.png","img/500/equaldotanddens/R/15_Ratio_500_L_1_R_2.png","img/500/equaldotsize/R/12_Ratio_500_L_1_R_2.png","img/500/equaldotsize/R/9_Ratio_500_L_2_R_4.png","img/500/equaldotanddens/R/14_Ratio_500_L_5_R_10.png","img/900/equaldotanddens/L/4_Ratio_900_L_20_R_18.png","img/500/equaldotanddens/L/11_Ratio_500_L_12_R_6.png","img/500/equaldotsize/R/9_Ratio_500_L_2_R_4.png","img/250/equaldotanddens/R/8_Ratio_250_L_1_R_4.png","img/900/equaldotsize/R/5_Ratio_900_L_9_R_10.png","img/500/equaldotsize/R/1_Ratio_500_L_9_R_18.png","img/500/equaldotsize/L/10_Ratio_500_L_4_R_2.png","img/250/randomdotsizeEA/R/12_Ratio_250_L_5_R_20.png","img/750/equaldotsize/R/12_Ratio_750_L_3_R_4.png","img/750/equaldotsize/R/5_Ratio_750_L_15_R_20.png","img/900/equaldotsize/R/5_Ratio_900_L_9_R_10.png","img/750/equaldotsize/R/7_Ratio_750_L_3_R_4.png","img/900/randomdotsizeEA/R/3_Ratio_900_L_9_R_10.png","img/750/randomdotsizeEA/L/14_Ratio_750_L_8_R_6.png","img/750/equaldotsize/L/1_Ratio_750_L_20_R_15.png","img/250/randomdotsizeEA/R/6_Ratio_250_L_6_R_24.png","img/250/equaldotsize/L/14_Ratio_250_L_12_R_3.png","img/900/randomdotsizeEA/R/5_Ratio_900_L_9_R_10.png","img/750/randomdotsizeEA/R/15_Ratio_750_L_9_R_12.png","img/750/randomdotsizeEA/R/7_Ratio_750_L_3_R_4.png","img/500/randomdotsizeEA/R/12_Ratio_500_L_1_R_2.png","img/250/randomdotsizeEA/R/13_Ratio_250_L_2_R_8.png","img/750/equaldotsize/R/11_Ratio_750_L_12_R_16.png","img/500/equaldotsize/R/15_Ratio_500_L_1_R_2.png","img/500/equaldotanddens/L/13_Ratio_500_L_12_R_6.png","img/250/equaldotanddens/L/15_Ratio_250_L_12_R_3.png","img/500/equaldotanddens/R/1_Ratio_500_L_9_R_18.png","img/250/equaldotanddens/R/11_Ratio_250_L_3_R_12.png","img/250/equaldotsize/R/11_Ratio_250_L_3_R_12.png","img/500/randomdotsizeEA/R/15_Ratio_500_L_1_R_2.png","img/500/equaldotanddens/R/12_Ratio_500_L_1_R_2.png","img/250/randomdotsizeEA/R/12_Ratio_250_L_5_R_20.png","img/750/randomdotsizeEA/R/12_Ratio_750_L_3_R_4.png","img/750/randomdotsizeEA/L/6_Ratio_750_L_24_R_18.png","img/500/randomdotsizeEA/L/7_Ratio_500_L_10_R_5.png","img/250/randomdotsizeEA/R/9_Ratio_250_L_3_R_12.png","img/900/equaldotanddens/R/13_Ratio_900_L_18_R_20.png","img/900/equaldotanddens/L/4_Ratio_900_L_20_R_18.png","img/900/equaldotanddens/L/1_Ratio_900_L_10_R_9.png","img/500/randomdotsizeEA/L/5_Ratio_500_L_4_R_2.png","img/750/equaldotanddens/R/5_Ratio_750_L_15_R_20.png","img/250/equaldotanddens/L/5_Ratio_250_L_24_R_6.png","img/250/equaldotanddens/R/11_Ratio_250_L_3_R_12.png","img/750/randomdotsizeEA/R/11_Ratio_750_L_12_R_16.png","img/500/randomdotsizeEA/L/7_Ratio_500_L_10_R_5.png","img/900/randomdotsizeEA/R/5_Ratio_900_L_9_R_10.png","img/250/equaldotanddens/R/11_Ratio_250_L_3_R_12.png","img/500/randomdotsizeEA/R/9_Ratio_500_L_2_R_4.png","img/900/randomdotsizeEA/R/14_Ratio_900_L_18_R_20.png","img/750/equaldotsize/L/14_Ratio_750_L_8_R_6.png","img/750/equaldotsize/L/9_Ratio_750_L_4_R_3.png","img/250/equaldotanddens/R/12_Ratio_250_L_5_R_20.png","img/500/randomdotsizeEA/R/9_Ratio_500_L_2_R_4.png","img/250/randomdotsizeEA/R/11_Ratio_250_L_3_R_12.png","img/750/equaldotanddens/R/5_Ratio_750_L_15_R_20.png","img/250/randomdotsizeEA/R/8_Ratio_250_L_1_R_4.png","img/900/equaldotanddens/L/10_Ratio_900_L_20_R_18.png"],"Rat0":[["12_Ratio_0_L_9_R_0.png","13_Ratio_0_L_6_R_0.png","5_Ratio_0_L_2_R_0.png","6_Ratio_0_L_4_R_0.png","8_Ratio_0_L_6_R_0.png"],["1_Ratio_0_L_0_R_17.png","10_Ratio_0_L_0_R_22.png","11_Ratio_0_L_0_R_1.png","14_Ratio_0_L_0_R_24.png","15_Ratio_0_L_0_R_4.png","2_Ratio_0_L_0_R_5.png","3_Ratio_0_L_0_R_17.png","4_Ratio_0_L_0_R_7.png","7_Ratio_0_L_0_R_19.png","9_Ratio_0_L_0_R_15.png"]],"Rat250":[["1_Ratio_250_L_8_R_2.png","14_Ratio_250_L_12_R_3.png","15_Ratio_250_L_12_R_3.png","2_Ratio_250_L_16_R_4.png","3_Ratio_250_L_8_R_2.png","5_Ratio_250_L_24_R_6.png","7_Ratio_250_L_8_R_2.png"],["10_Ratio_250_L_4_R_16.png","11_Ratio_250_L_3_R_12.png","12_Ratio_250_L_5_R_20.png","13_Ratio_250_L_2_R_8.png","4_Ratio_250_L_3_R_12.png","6_Ratio_250_L_6_R_24.png","8_Ratio_250_L_1_R_4.png","9_Ratio_250_L_3_R_12.png"]],"Rat500":[["10_Ratio_500_L_4_R_2.png","11_Ratio_500_L_12_R_6.png","13_Ratio_500_L_12_R_6.png","4_Ratio_500_L_18_R_9.png","5_Ratio_500_L_4_R_2.png","7_Ratio_500_L_10_R_5.png","8_Ratio_500_L_8_R_4.png"],["1_Ratio_500_L_9_R_18.png","12_Ratio_500_L_1_R_2.png","14_Ratio_500_L_5_R_10.png","15_Ratio_500_L_1_R_2.png","2_Ratio_500_L_3_R_6.png","3_Ratio_500_L_10_R_20.png","6_Ratio_500_L_9_R_18.png","9_Ratio_500_L_2_R_4.png"]],"Rat750":[["1_Ratio_750_L_20_R_15.png","10_Ratio_750_L_4_R_3.png","13_Ratio_750_L_8_R_6.png","14_Ratio_750_L_8_R_6.png","6_Ratio_750_L_24_R_18.png","8_Ratio_750_L_4_R_3.png","9_Ratio_750_L_4_R_3.png"],["11_Ratio_750_L_12_R_16.png","12_Ratio_750_L_3_R_4.png","15_Ratio_750_L_9_R_12.png","2_Ratio_750_L_6_R_8.png","3_Ratio_750_L_15_R_20.png","4_Ratio_750_L_15_R_20.png","5_Ratio_750_L_15_R_20.png","7_Ratio_750_L_3_R_4.png"]],"Rat900":[["1_Ratio_900_L_10_R_9.png","10_Ratio_900_L_20_R_18.png","2_Ratio_900_L_20_R_18.png","4_Ratio_900_L_20_R_18.png","8_Ratio_900_L_20_R_18.png"],["11_Ratio_900_L_18_R_20.png","12_Ratio_900_L_18_R_20.png","13_Ratio_900_L_18_R_20.png","14_Ratio_900_L_18_R_20.png","15_Ratio_900_L_9_R_10.png","3_Ratio_900_L_9_R_10.png","5_Ratio_900_L_9_R_10.png","6_Ratio_900_L_9_R_10.png","7_Ratio_900_L_9_R_10.png","9_Ratio_900_L_18_R_20.png"]],"Rat1000":[["10_Ratio_1000_L_16_R_16.png","11_Ratio_1000_L_6_R_6.png","12_Ratio_1000_L_14_R_14.png","13_Ratio_1000_L_20_R_20.png","15_Ratio_1000_L_15_R_15.png","2_Ratio_1000_L_17_R_17.png","4_Ratio_1000_L_9_R_9.png","5_Ratio_1000_L_6_R_6.png","6_Ratio_1000_L_19_R_19.png","8_Ratio_1000_L_14_R_14.png","9_Ratio_1000_L_25_R_25.png"],["1_Ratio_1000_L_1_R_1.png","14_Ratio_1000_L_17_R_17.png","3_Ratio_1000_L_17_R_17.png","7_Ratio_1000_L_6_R_6.png"]]}},{"start_time":1552054739237,"click_time":1552054740365,"finger_time":1552054740184,"fix_duration":250,"trial":1,"RT":947,"MT":181,"sideResp":1,"stimulus":"img/750/equaldotanddens/L/8_Ratio_750_L_4_R_3.png","xmouse":[777,774,771,770,770,770,770,770,770,770,770,770,770,770,770,770,770,770,770,770,770,770,770,770,770,770,770,770,770,770,770,770,770,770,770,770,770,770,770,770,770,769,768,768,766,760,750,735,713,649,608,575,545,522,461,441,429],"ymouse":[531,531,531,531,531,531,531,531,531,531,531,531,531,531,531,531,531,531,531,531,531,531,531,531,531,531,531,531,531,531,531,531,531,531,531,531,531,531,531,531,531,531,531,531,531,531,530,525,515,462,407,346,291,237,135,107,90],"timestamp_mouse":[17,32,47,67,87,109,127,148,169,188,209,228,249,267,288,309,327,348,367,388,409,428,448,467,487,509,527,549,567,587,608,627,648,668,689,708,728,748,768,789,807,827,849,868,887,908,928,947,968,988,1007,1028,1047,1067,1087,1108,1128],"xSR":741.5,"ySR":469.95,"xT1":424.9,"yT1":0,"xT2":1058.1,"yT2":0,"toosoon":0,"cond_shown":"equaldotanddens","ratio_trial":750,"smaller_num":"3","larger_num":"4","correct_side":1,"subjID":"Sofiacorrea26","gender":"1","age":"9","school":"4"},{"start_time":1552054741616,"click_time":1552054742506,"finger_time":1552054742405,"fix_duration":349.52261520561,"trial":2,"RT":789,"MT":101,"sideResp":2,"stimulus":"img/900/equaldotsize/L/10_Ratio_900_L_20_R_18.png","xmouse":[799,799,799,799,799,799,799,799,799,799,799,799,799,799,799,799,799,799,799,799,799,799,799,799,799,799,799,799,799,799,799,799,799,799,799,799,799,802,815,931,991,1051,1099,1124,1137],"ymouse":[549,548,548,548,548,548,548,548,548,548,548,548,548,548,548,548,548,548,548,548,548,548,548,548,548,548,548,548,548,548,548,548,548,548,548,548,547,544,532,416,349,272,192,120,21],"timestamp_mouse":[20,44,49,68,88,108,130,148,168,189,208,228,248,269,290,309,329,348,370,388,409,429,449,469,490,508,529,550,569,588,608,629,648,669,690,708,729,749,770,789,808,829,849,869,890],"xSR":741.5,"ySR":469.95,"xT1":424.9,"yT1":0,"xT2":1058.1,"yT2":0,"toosoon":0,"cond_shown":"equaldotsize","ratio_trial":900,"smaller_num":"18","larger_num":"20","correct_side":1,"subjID":"Sofiacorrea26","gender":"1","age":"9","school":"4"},{"start_time":1552054744262,"click_time":1552054745484,"finger_time":1552054745185,"fix_duration":856.2991014011519,"trial":3,"RT":923,"MT":299,"sideResp":1,"stimulus":"img/250/equaldotanddens/L/1_Ratio_250_L_8_R_2.png","xmouse":[768,768,768,768,768,768,768,768,768,768,768,768,768,768,768,768,768,768,768,768,768,768,768,768,768,768,768,768,768,768,768,768,768,768,768,768,768,768,768,768,768,768,768,768,764,759,748,733,674,653,639,629,617,614,605,594,578,558,544,536,527,515],"ymouse":[507,507,507,507,507,507,507,507,507,507,507,507,507,507,507,507,507,507,507,507,507,507,507,507,507,507,507,507,507,507,507,507,507,507,507,507,507,507,507,507,507,507,507,507,491,475,451,423,350,325,310,301,286,276,260,240,210,161,112,90,73,60],"timestamp_mouse":[13,22,43,62,82,102,124,142,162,184,204,223,243,263,282,302,323,344,363,383,404,422,443,462,484,503,523,543,563,584,603,622,642,663,683,703,723,743,762,782,803,823,844,864,884,903,923,943,963,983,1003,1022,1043,1062,1082,1102,1123,1143,1164,1183,1203,1222],"xSR":741.5,"ySR":469.95,"xT1":424.9,"yT1":0,"xT2":1058.1,"yT2":0,"toosoon":0,"cond_shown":"equaldotanddens","ratio_trial":250,"smaller_num":"2","larger_num":"8","correct_side":1,"subjID":"Sofiacorrea26","gender":"1","age":"9","school":"4"},{"start_time":1552054746645,"click_time":1552054747764,"finger_time":1552054747644,"fix_duration":599.3052384300527,"trial":4,"RT":999,"MT":120,"sideResp":2,"stimulus":"img/250/randomdotsizeEA/L/14_Ratio_250_L_12_R_3.png","xmouse":[805,805,805,805,805,805,805,805,805,805,805,805,805,805,805,805,805,805,805,805,805,805,805,805,805,805,805,805,805,805,804,804,804,804,804,804,804,804,804,804,804,804,804,804,804,804,804,804,804,831,879,952,1034,1137,1152,1157,1158],"ymouse":[548,548,548,548,548,548,548,548,548,548,548,548,548,548,548,548,548,548,548,548,548,548,548,548,548,548,548,548,548,548,548,548,548,548,548,548,548,548,548,548,548,548,548,548,548,548,548,548,548,522,468,384,288,141,115,101,96],"timestamp_mouse":[1,19,44,60,81,100,119,139,160,181,199,220,241,261,280,301,320,341,359,381,399,419,441,460,479,500,521,540,559,579,600,620,640,659,680,701,720,739,759,780,800,819,839,861,879,899,919,941,959,980,999,1021,1039,1061,1079,1099,1119],"xSR":741.5,"ySR":469.95,"xT1":424.9,"yT1":0,"xT2":1058.1,"yT2":0,"toosoon":0,"cond_shown":"randomdotsizeEA","ratio_trial":250,"smaller_num":"3","larger_num":"12","correct_side":1,"subjID":"Sofiacorrea26","gender":"1","age":"9","school":"4"},{"start_time":1552054748737,"click_time":1552054749865,"finger_time":1552054749524,"fix_duration":250,"trial":5,"RT":787,"MT":341,"sideResp":1,"stimulus":"img/250/randomdotsizeEA/L/2_Ratio_250_L_16_R_4.png","xmouse":[798,798,798,798,798,798,798,798,798,798,798,798,798,798,798,798,798,798,798,798,798,798,798,798,798,798,798,798,798,798,798,798,798,798,798,798,798,794,765,740,697,664,633,593,588,586,584,582,573,567,558,549,541,524,511,506,502],"ymouse":[496,496,496,496,496,496,496,496,496,496,496,496,496,496,496,496,496,496,496,496,496,496,496,496,496,496,496,496,496,496,496,496,496,496,496,496,496,497,485,467,427,391,354,292,280,275,272,265,242,227,207,186,167,130,111,103,97],"timestamp_mouse":[10,31,47,68,87,108,128,147,167,188,207,227,248,269,288,308,328,347,368,388,409,428,447,468,489,508,529,548,567,588,608,628,649,668,688,707,727,747,768,787,809,828,847,869,887,908,927,948,969,987,1008,1028,1048,1069,1087,1107,1127],"xSR":741.5,"ySR":469.95,"xT1":424.9,"yT1":0,"xT2":1058.1,"yT2":0,"toosoon":0,"cond_shown":"randomdotsizeEA","ratio_trial":250,"smaller_num":"4","larger_num":"16","correct_side":1,"subjID":"Sofiacorrea26","gender":"1","age":"9","school":"4"},{"start_time":1552054751870,"click_time":1552054753006,"finger_time":1552054752705,"fix_duration":1202.5901433791516,"trial":6,"RT":835,"MT":301,"sideResp":2,"stimulus":"img/250/equaldotanddens/R/9_Ratio_250_L_3_R_12.png","xmouse":[758,758,758,758,758,758,758,758,758,758,758,758,758,758,758,758,758,758,758,758,758,758,758,758,758,758,758,758,758,758,758,758,758,758,758,758,758,758,758,764,790,876,921,965,1007,1042,1075,1075,1071,1066,1060,1057,1056,1056,1057,1057,1060],"ymouse":[488,488,488,488,488,488,488,488,488,488,488,488,488,488,488,488,488,488,488,488,488,488,488,488,488,488,488,488,488,488,488,488,488,488,488,488,488,488,488,488,477,433,396,355,311,267,182,148,131,115,102,92,86,84,82,81,79],"timestamp_mouse":[14,38,54,76,94,116,134,155,176,196,215,234,255,275,294,314,335,354,375,396,416,435,454,474,495,514,536,555,576,594,615,636,656,675,694,715,736,756,775,795,814,835,854,875,895,914,936,955,975,994,1015,1035,1054,1074,1094,1114,1136],"xSR":741.5,"ySR":469.95,"xT1":424.9,"yT1":0,"xT2":1058.1,"yT2":0,"toosoon":0,"cond_shown":"equaldotanddens","ratio_trial":250,"smaller_num":"3","larger_num":"12","correct_side":2,"subjID":"Sofiacorrea26","gender":"1","age":"9","school":"4"},{"start_time":1552054754853,"click_time":1552054756024,"finger_time":1552054755705,"fix_duration":1106.8595629474096,"trial":7,"RT":852,"MT":319,"sideResp":2,"stimulus":"img/500/equaldotsize/R/12_Ratio_500_L_1_R_2.png","xmouse":[776,776,776,776,776,776,776,776,776,776,776,776,776,776,776,776,776,776,776,776,776,776,776,776,776,776,776,776,776,776,776,776,776,776,776,776,776,776,776,776,794,808,899,949,992,1014,1021,1024,1024,1025,1028,1035,1048,1053,1054,1056,1057,1058,1059],"ymouse":[531,531,531,531,531,531,531,531,531,531,531,531,531,531,531,531,531,531,531,531,531,531,531,531,531,531,531,531,531,531,531,531,531,531,531,531,531,531,531,531,508,489,358,287,234,206,192,186,180,177,165,147,116,104,101,98,96,95,95],"timestamp_mouse":[20,41,51,73,92,111,132,151,172,191,212,233,253,272,291,312,333,352,372,392,412,433,452,471,493,513,532,551,572,593,612,632,651,672,693,713,731,752,771,791,812,832,852,871,891,911,932,953,972,991,1013,1031,1052,1071,1091,1111,1132,1153,1171],"xSR":741.5,"ySR":469.95,"xT1":424.9,"yT1":0,"xT2":1058.1,"yT2":0,"toosoon":0,"cond_shown":"equaldotsize","ratio_trial":500,"smaller_num":"1","larger_num":"2","correct_side":2,"subjID":"Sofiacorrea26","gender":"1","age":"9","school":"4"},{"start_time":1552054757955,"click_time":1552054758925,"finger_time":1552054758584,"fix_duration":909.1273995220557,"trial":8,"RT":629,"MT":341,"sideResp":1,"stimulus":"img/250/equaldotsize/L/2_Ratio_250_L_16_R_4.png","xmouse":[808,808,808,808,808,808,808,808,808,808,808,808,808,808,808,808,808,808,808,808,808,808,808,808,808,808,808,808,803,789,765,723,582,477,424,383,361,352,350,350,350,350,355,359,366,374,386,416,425],"ymouse":[510,510,510,510,510,510,510,510,510,510,510,510,510,510,510,510,510,510,510,510,510,510,510,510,510,510,510,510,510,510,506,484,368,234,158,93,60,44,42,40,40,36,28,24,21,21,21,32,35],"timestamp_mouse":[12,37,49,70,90,111,129,150,170,190,210,230,249,270,289,309,331,350,371,390,411,431,450,471,490,509,530,550,569,589,610,629,651,669,689,709,730,750,769,789,809,829,851,869,890,911,931,950,969],"xSR":741.5,"ySR":469.95,"xT1":424.9,"yT1":0,"xT2":1058.1,"yT2":0,"toosoon":0,"cond_shown":"equaldotsize","ratio_trial":250,"smaller_num":"4","larger_num":"16","correct_side":1,"subjID":"Sofiacorrea26","gender":"1","age":"9","school":"4"},{"start_time":1552054760600,"click_time":1552054762006,"finger_time":1552054761324,"fix_duration":814.2016547920992,"trial":9,"RT":724,"MT":682,"sideResp":1,"stimulus":"img/500/equaldotanddens/L/5_Ratio_500_L_4_R_2.png","xmouse":[788,788,788,788,788,788,788,788,788,788,788,788,788,788,788,788,788,788,788,788,788,788,788,788,788,788,788,788,788,788,788,788,788,788,788,792,816,849,881,901,906,900,895,890,886,868,853,837,823,812,800,755,729,699,665,624,614,605,599,593,582,576,568,556,542,534,530,528,527,526,524],"ymouse":[519,519,519,519,519,519,519,519,519,519,519,519,519,519,519,519,519,519,519,519,519,519,519,519,519,519,519,519,519,519,519,519,519,519,519,510,466,408,352,306,278,255,253,252,252,255,258,261,263,264,266,261,247,221,179,110,92,77,70,67,63,63,63,63,63,62,61,61,60,59,59],"timestamp_mouse":[13,36,46,64,84,105,124,145,165,185,205,225,245,266,286,305,324,344,365,385,405,425,444,465,486,504,526,546,564,585,606,626,645,665,685,705,724,745,765,784,805,824,845,864,884,906,925,945,965,986,1005,1026,1044,1064,1085,1106,1125,1145,1165,1184,1206,1224,1244,1265,1284,1304,1324,1344,1365,1385,1405],"xSR":741.5,"ySR":469.95,"xT1":424.9,"yT1":0,"xT2":1058.1,"yT2":0,"toosoon":0,"cond_shown":"equaldotanddens","ratio_trial":500,"smaller_num":"2","larger_num":"4","correct_side":1,"subjID":"Sofiacorrea26","gender":"1","age":"9","school":"4"},{"start_time":1552054765162,"click_time":1552054765945,"finger_time":1552054765865,"fix_duration":915.4881422461223,"trial":10,"RT":703,"MT":80,"sideResp":2,"stimulus":"img/900/equaldotsize/L/2_Ratio_900_L_20_R_18.png","xmouse":[796,796,796,796,796,796,796,796,796,796,796,796,796,796,796,796,796,796,796,796,796,796,796,796,796,796,796,796,796,796,796,796,796,805,837,886,942,997,1068,1080],"ymouse":[537,537,537,537,537,537,537,537,537,537,537,537,537,537,537,537,537,537,537,537,537,537,537,537,537,537,537,537,537,537,537,537,537,529,498,452,392,316,147,98],"timestamp_mouse":[13,22,44,63,83,102,123,143,164,182,203,224,242,263,284,302,324,342,362,382,404,422,442,464,484,502,523,544,563,584,604,623,644,663,682,703,722,743,762,783],"xSR":741.5,"ySR":469.95,"xT1":424.9,"yT1":0,"xT2":1058.1,"yT2":0,"toosoon":0,"cond_shown":"equaldotsize","ratio_trial":900,"smaller_num":"18","larger_num":"20","correct_side":1,"subjID":"Sofiacorrea26","gender":"1","age":"9","school":"4"},{"start_time":1552054767343,"click_time":1552054768905,"finger_time":1552054768545,"fix_duration":517.6595605654945,"trial":11,"RT":1202,"MT":360,"sideResp":2,"stimulus":"img/500/equaldotsize/R/9_Ratio_500_L_2_R_4.png","xmouse":[773,773,773,773,773,773,773,773,773,773,773,773,773,773,773,773,773,773,773,773,773,773,773,773,773,773,773,773,773,773,773,773,773,773,773,773,773,773,773,773,773,773,773,773,773,773,773,773,773,773,773,773,773,773,773,773,773,773,778,823,892,985,1092,1256,1291,1294,1294,1294,1294,1296,1297,1297,1293,1283,1226,1200,1180,1162,1149],"ymouse":[499,499,499,499,499,499,499,499,499,499,499,499,499,499,499,499,499,499,499,499,499,499,499,499,499,499,499,499,499,499,499,499,499,499,499,499,499,499,499,499,499,499,499,499,499,499,499,499,499,499,499,499,499,499,499,499,499,500,500,483,444,380,312,191,154,143,137,133,129,122,117,113,108,104,96,90,82,74,66],"timestamp_mouse":[9,33,43,62,81,103,123,143,162,182,201,221,242,262,282,302,321,343,361,382,403,422,442,461,481,502,522,542,561,581,603,621,642,661,683,702,722,742,761,781,803,823,841,862,881,902,922,942,961,981,1001,1021,1041,1062,1082,1101,1122,1141,1162,1181,1202,1222,1242,1262,1281,1301,1322,1342,1362,1381,1402,1422,1441,1462,1481,1501,1521,1541,1562],"xSR":741.5,"ySR":469.95,"xT1":424.9,"yT1":0,"xT2":1058.1,"yT2":0,"toosoon":0,"cond_shown":"equaldotsize","ratio_trial":500,"smaller_num":"2","larger_num":"4","correct_side":2,"subjID":"Sofiacorrea26","gender":"1","age":"9","school":"4"},{"start_time":1552054770362,"click_time":1552054771245,"finger_time":1552054771165,"fix_duration":395.77380376426277,"trial":12,"RT":803,"MT":80,"sideResp":2,"stimulus":"img/250/equaldotanddens/R/6_Ratio_250_L_6_R_24.png","xmouse":[815,815,815,815,815,815,815,815,813,811,807,800,784,780,777,769,762,756,754,754,754,754,754,754,754,754,754,754,754,754,754,754,755,761,764,764,764,770,783,805,839,889,993,1078,1082],"ymouse":[523,523,523,523,523,523,523,523,523,523,523,522,521,521,521,522,526,527,528,528,528,528,528,528,528,528,528,528,528,528,528,528,528,529,530,530,530,530,522,502,464,403,273,114,78],"timestamp_mouse":[12,23,44,63,83,103,124,143,162,183,203,222,243,263,282,302,322,343,363,383,403,424,443,463,484,502,522,543,562,582,602,623,642,663,682,703,722,743,762,783,802,824,843,864,882],"xSR":741.5,"ySR":469.95,"xT1":424.9,"yT1":0,"xT2":1058.1,"yT2":0,"toosoon":0,"cond_shown":"equaldotanddens","ratio_trial":250,"smaller_num":"6","larger_num":"24","correct_side":2,"subjID":"Sofiacorrea26","gender":"1","age":"9","school":"4"},{"start_time":1552054772296,"click_time":1552054773786,"finger_time":1552054773244,"fix_duration":250,"trial":13,"RT":948,"MT":542,"sideResp":1,"stimulus":"img/500/randomdotsizeEA/L/11_Ratio_500_L_12_R_6.png","xmouse":[798,798,798,798,798,798,798,798,798,798,798,798,798,798,798,798,798,798,798,798,798,798,798,798,798,798,798,798,798,798,798,798,798,798,798,798,798,798,798,798,798,798,798,798,796,791,771,747,708,661,620,579,574,570,566,562,549,544,541,541,541,539,538,537,536,536,536,536,536,536,536,533,530,526,520],"ymouse":[498,498,498,498,498,498,498,498,498,498,498,498,498,498,498,498,498,498,498,498,498,498,498,498,498,498,498,498,498,498,498,498,498,498,498,498,498,498,498,498,498,498,498,498,498,498,484,464,416,356,303,224,209,197,189,182,151,134,119,108,92,85,80,79,78,78,77,77,77,77,77,75,74,74,74],"timestamp_mouse":[9,30,48,69,88,108,130,149,169,189,210,229,248,268,290,309,329,349,369,390,408,429,450,469,488,509,530,549,568,588,609,630,650,668,689,710,729,749,768,789,810,829,848,868,890,909,929,948,969,989,1008,1028,1048,1069,1089,1109,1129,1149,1168,1188,1209,1228,1248,1268,1289,1309,1329,1348,1369,1389,1409,1428,1448,1469,1490],"xSR":741.5,"ySR":469.95,"xT1":424.9,"yT1":0,"xT2":1058.1,"yT2":0,"toosoon":0,"cond_shown":"randomdotsizeEA","ratio_trial":500,"smaller_num":"6","larger_num":"12","correct_side":1,"subjID":"Sofiacorrea26","gender":"1","age":"9","school":"4"},{"start_time":1552054776155,"click_time":1552054777105,"finger_time":1552054776904,"fix_duration":1488.7527325923722,"trial":14,"RT":749,"MT":201,"sideResp":2,"stimulus":"img/900/equaldotsize/R/5_Ratio_900_L_9_R_10.png","xmouse":[813,813,813,813,813,813,813,813,813,813,813,813,813,813,813,813,813,813,813,813,813,813,813,813,813,813,813,813,813,813,813,813,813,813,813,814,817,881,930,966,1004,1035,1080,1085,1087,1089,1091,1101],"ymouse":[516,516,516,516,516,516,516,516,516,516,516,516,516,516,516,516,516,516,516,516,516,516,516,516,516,516,516,516,516,516,516,516,516,516,516,517,516,467,423,376,326,280,194,174,156,141,125,85],"timestamp_mouse":[19,40,50,70,89,110,129,151,170,189,210,230,250,271,289,309,329,350,370,390,411,429,450,471,490,509,529,551,569,589,610,629,649,670,689,709,730,749,769,790,810,831,850,869,889,909,929,950],"xSR":741.5,"ySR":469.95,"xT1":424.9,"yT1":0,"xT2":1058.1,"yT2":0,"toosoon":0,"cond_shown":"equaldotsize","ratio_trial":900,"smaller_num":"9","larger_num":"10","correct_side":2,"subjID":"Sofiacorrea26","gender":"1","age":"9","school":"4"},{"start_time":1552054780434,"click_time":1552054781825,"finger_time":1552054781305,"fix_duration":1227.000525790971,"trial":15,"RT":871,"MT":520,"sideResp":2,"stimulus":"img/900/randomdotsizeEA/L/1_Ratio_900_L_10_R_9.png","xmouse":[810,810,810,810,810,810,810,810,810,810,810,810,810,810,810,810,810,810,810,810,810,810,810,810,810,810,810,810,810,810,810,810,810,810,810,810,810,810,810,810,810,813,819,895,961,1026,1074,1125,1194,1303,1329,1340,1340,1340,1340,1340,1340,1340,1340,1340,1340,1340,1340,1340,1213,1207,1200,1191,1182,1157],"ymouse":[554,554,554,554,554,554,554,554,554,554,554,554,554,554,554,554,554,554,554,554,554,554,554,554,554,554,554,554,554,554,554,554,554,554,554,554,554,554,554,554,554,554,554,533,503,469,433,385,318,124,37,2,2,2,2,2,2,2,2,2,2,2,2,2,2,8,14,20,24,31],"timestamp_mouse":[13,36,50,70,90,111,131,150,170,191,211,230,250,270,292,311,330,350,370,390,411,430,450,470,492,510,530,551,570,592,610,630,652,671,690,710,730,750,772,791,810,831,850,871,890,911,931,950,970,990,1011,1031,1051,1071,1090,1111,1130,1151,1170,1191,1211,1231,1251,1271,1290,1311,1331,1351,1370,1391],"xSR":741.5,"ySR":469.95,"xT1":424.9,"yT1":0,"xT2":1058.1,"yT2":0,"toosoon":0,"cond_shown":"randomdotsizeEA","ratio_trial":900,"smaller_num":"9","larger_num":"10","correct_side":1,"subjID":"Sofiacorrea26","gender":"1","age":"9","school":"4"},{"start_time":1552054783421,"click_time":1552054784645,"finger_time":1552054784224,"fix_duration":715.3311610338737,"trial":16,"RT":803,"MT":421,"sideResp":1,"stimulus":"img/900/equaldotanddens/L/10_Ratio_900_L_20_R_18.png","xmouse":[800,802,802,804,805,805,805,805,804,804,803,803,803,803,803,803,803,803,803,803,803,803,803,803,803,803,803,803,803,803,803,803,803,803,803,803,803,802,801,768,717,670,620,595,567,562,561,560,558,547,540,536,535,533,527,525,524,523,522,517,505,496],"ymouse":[485,487,487,493,498,499,500,501,502,503,503,504,504,504,504,504,504,504,504,504,504,504,504,504,504,504,504,504,504,504,504,504,504,504,504,504,504,504,504,477,428,381,331,304,283,280,280,279,275,247,220,203,183,159,128,117,113,113,112,108,101,96],"timestamp_mouse":[20,36,43,63,83,104,123,143,165,183,203,224,245,265,283,303,323,343,363,383,403,423,444,464,485,504,523,544,564,583,603,623,644,664,684,704,723,743,764,784,803,823,844,864,884,903,924,944,963,984,1004,1024,1044,1064,1085,1103,1124,1143,1164,1184,1203,1224],"xSR":741.5,"ySR":469.95,"xT1":424.9,"yT1":0,"xT2":1058.1,"yT2":0,"toosoon":0,"cond_shown":"equaldotanddens","ratio_trial":900,"smaller_num":"18","larger_num":"20","correct_side":1,"subjID":"Sofiacorrea26","gender":"1","age":"9","school":"4"},{"start_time":1552054786973,"click_time":1552054788184,"finger_time":1552054787664,"fix_duration":1486.76210741025,"trial":17,"RT":691,"MT":520,"sideResp":2,"stimulus":"img/750/equaldotanddens/R/7_Ratio_750_L_3_R_4.png","xmouse":[772,772,772,772,772,772,772,772,772,772,772,772,772,772,772,772,772,772,772,772,772,772,772,772,772,773,773,773,773,773,773,773,787,808,849,896,944,1029,1062,1083,1098,1108,1111,1113,1115,1120,1124,1130,1131,1133,1133,1133,1133,1133,1133,1133,1133,1133,1132,1131,1131],"ymouse":[513,513,513,513,513,513,513,513,513,513,513,513,513,513,513,513,513,513,513,513,513,513,513,513,513,513,513,513,513,513,513,513,507,490,458,420,384,313,283,260,247,229,226,221,215,205,194,171,160,149,137,121,120,120,120,120,113,109,104,101,99],"timestamp_mouse":[13,35,51,72,91,113,131,152,171,191,211,231,252,273,292,311,332,352,371,391,412,431,452,473,492,512,533,551,572,592,611,631,652,671,691,711,731,751,772,792,811,833,851,871,891,911,931,951,972,992,1012,1033,1051,1071,1092,1111,1132,1151,1172,1191,1211],"xSR":741.5,"ySR":469.95,"xT1":424.9,"yT1":0,"xT2":1058.1,"yT2":0,"toosoon":0,"cond_shown":"equaldotanddens","ratio_trial":750,"smaller_num":"3","larger_num":"4","correct_side":2,"subjID":"Sofiacorrea26","gender":"1","age":"9","school":"4"},{"start_time":1552054792153,"click_time":1552054793345,"finger_time":1552054793005,"fix_duration":327.89745551469474,"trial":18,"RT":852,"MT":340,"sideResp":1,"stimulus":"img/750/equaldotanddens/L/6_Ratio_750_L_24_R_18.png","xmouse":[784,784,784,784,784,784,784,784,784,784,784,784,784,784,784,784,784,784,784,784,784,784,784,784,784,784,784,784,784,784,784,784,784,784,784,784,784,784,786,789,791,792,782,753,726,696,669,638,628,614,598,583,568,536,527,517,510,491,480,465],"ymouse":[518,518,518,518,518,518,518,518,518,518,518,518,518,518,518,518,518,518,518,518,518,518,518,518,518,518,518,518,518,518,518,518,518,518,518,518,518,518,518,517,512,496,418,335,280,234,200,180,179,179,179,178,174,155,148,138,129,114,105,93],"timestamp_mouse":[14,37,51,72,92,111,131,151,171,193,211,231,253,272,291,311,331,351,372,391,411,432,452,472,493,511,531,551,573,593,611,631,652,672,691,711,731,752,771,792,811,833,852,872,891,911,932,953,971,992,1012,1031,1051,1072,1091,1111,1132,1153,1171,1192],"xSR":741.5,"ySR":469.95,"xT1":424.9,"yT1":0,"xT2":1058.1,"yT2":0,"toosoon":0,"cond_shown":"equaldotanddens","ratio_trial":750,"smaller_num":"18","larger_num":"24","correct_side":1,"subjID":"Sofiacorrea26","gender":"1","age":"9","school":"4"},{"start_time":1552054795687,"click_time":1552054797006,"finger_time":1552054796605,"fix_duration":1479.4652727809696,"trial":19,"RT":918,"MT":401,"sideResp":2,"stimulus":"img/250/equaldotsize/R/13_Ratio_250_L_2_R_8.png","xmouse":[765,765,765,765,765,765,765,765,765,765,765,765,765,765,765,765,765,765,765,765,765,765,765,765,765,765,765,765,765,765,765,765,765,765,765,765,765,765,765,765,765,765,765,765,765,818,866,927,990,1042,1083,1119,1121,1121,1114,1090,1078,1067,1061,1059,1059,1059,1061,1065,1072,1089],"ymouse":[493,493,493,493,493,493,493,493,493,493,493,493,493,493,493,493,493,493,493,493,493,493,493,493,493,493,493,493,493,493,493,493,493,493,493,493,493,493,493,493,493,493,493,493,494,461,425,389,346,311,281,251,243,237,228,197,181,164,151,144,136,129,122,116,107,89],"timestamp_mouse":[18,38,58,77,97,117,138,158,177,197,218,238,257,278,298,319,338,357,378,398,417,438,457,477,498,518,538,559,577,598,617,639,659,678,697,718,738,758,777,798,818,838,857,878,897,918,937,958,977,998,1018,1037,1058,1078,1097,1119,1137,1157,1177,1198,1219,1237,1257,1278,1298,1318],"xSR":741.5,"ySR":469.95,"xT1":424.9,"yT1":0,"xT2":1058.1,"yT2":0,"toosoon":0,"cond_shown":"equaldotsize","ratio_trial":250,"smaller_num":"2","larger_num":"8","correct_side":2,"subjID":"Sofiacorrea26","gender":"1","age":"9","school":"4"},{"start_time":1552054799374,"click_time":1552054800465,"finger_time":1552054800104,"fix_duration":1408.9926275703153,"trial":20,"RT":730,"MT":361,"sideResp":2,"stimulus":"img/900/equaldotsize/R/13_Ratio_900_L_18_R_20.png","xmouse":[810,810,810,810,810,810,810,810,810,810,810,810,810,810,810,810,810,810,810,810,810,810,810,810,810,810,810,810,810,810,810,810,810,814,821,841,880,954,974,994,1013,1039,1045,1047,1048,1047,1035,1030,1028,1028,1028,1028,1041,1055,1068],"ymouse":[540,540,540,540,540,540,540,540,540,540,540,540,540,540,540,540,540,540,540,540,540,540,540,540,540,540,540,540,540,540,540,540,540,532,524,498,455,381,357,329,303,253,219,200,183,170,148,136,132,132,129,127,116,105,93],"timestamp_mouse":[13,37,50,71,90,111,131,151,171,192,212,231,252,270,291,310,330,350,370,392,411,431,450,470,492,510,530,551,570,590,611,639,652,671,691,711,730,750,770,791,811,831,850,870,890,910,931,950,971,990,1011,1030,1051,1071,1091],"xSR":741.5,"ySR":469.95,"xT1":424.9,"yT1":0,"xT2":1058.1,"yT2":0,"toosoon":0,"cond_shown":"equaldotsize","ratio_trial":900,"smaller_num":"18","larger_num":"20","correct_side":2,"subjID":"Sofiacorrea26","gender":"1","age":"9","school":"4"},{"start_time":1552054801854,"click_time":1552054803324,"finger_time":1552054802625,"fix_duration":628.3913351715863,"trial":21,"RT":771,"MT":699,"sideResp":2,"stimulus":"img/900/equaldotanddens/L/1_Ratio_900_L_10_R_9.png","xmouse":[829,829,829,829,829,829,829,829,829,829,829,829,829,828,827,826,826,821,817,813,810,808,806,804,801,794,787,785,785,785,785,784,784,784,784,784,783,781,727,677,637,608,577,558,534,509,494,494,494,494,494,494,494,494,494,494,494,494,494,494,494,494,494,510,561,637,724,899,1009,1056,1086,1107,1127,1134],"ymouse":[495,495,495,495,495,495,495,495,495,495,495,495,495,498,498,499,500,503,506,508,509,510,512,512,514,515,518,518,518,518,518,518,518,518,518,518,518,518,491,461,439,416,338,280,221,167,145,145,145,145,145,145,145,145,145,145,145,145,145,145,145,145,145,155,179,201,214,217,209,194,177,156,117,98],"timestamp_mouse":[13,36,50,70,91,112,131,151,170,190,212,232,251,270,290,311,331,351,370,390,411,430,451,470,492,511,530,551,570,591,610,631,651,670,690,711,732,750,771,790,810,831,852,870,890,911,931,951,971,991,1011,1030,1050,1070,1090,1111,1131,1152,1172,1191,1212,1232,1251,1270,1290,1310,1330,1351,1370,1391,1410,1431,1452,1470],"xSR":741.5,"ySR":469.95,"xT1":424.9,"yT1":0,"xT2":1058.1,"yT2":0,"toosoon":0,"cond_shown":"equaldotanddens","ratio_trial":900,"smaller_num":"9","larger_num":"10","correct_side":1,"subjID":"Sofiacorrea26","gender":"1","age":"9","school":"4"},{"start_time":1552054804596,"click_time":1552054807864,"finger_time":1552054805844,"fix_duration":250,"trial":22,"RT":1248,"MT":2020,"sideResp":2,"stimulus":"img/900/equaldotsize/R/6_Ratio_900_L_9_R_10.png","xmouse":[779,779,779,779,779,779,779,779,779,779,779,779,779,779,779,779,779,779,779,779,779,779,779,779,779,779,779,779,779,779,779,779,779,779,779,779,779,779,779,779,779,779,779,779,779,779,779,779,779,779,779,779,779,779,778,775,770,766,761,755,752,751,748,739,725,700,651,643,643,643,643,643,643,643,643,643,643,643,643,643,643,643,643,643,643,643,643,643,643,643,643,643,643,643,643,643,643,643,643,643,643,643,643,643,643,643,643,643,643,643,643,829,852,861,865,866,856,838,808,771,724,668,639,617,604,601,610,628,649,673,720,734,747,751,751,751,742,742,742,742,742,742,742,742,742,742,742,853,909,969,969,977,978,982,990,999,1023,1034,1044,1050,1052,1054,1056,1061],"ymouse":[495,495,495,495,495,495,495,495,495,495,495,495,495,495,495,495,495,495,495,495,495,495,495,495,495,495,495,495,495,495,495,495,495,495,495,495,495,495,495,495,495,495,495,495,495,495,495,495,495,495,495,495,495,495,495,494,488,478,475,473,471,470,468,457,437,398,237,213,213,213,213,213,213,213,213,213,213,213,213,213,213,213,213,213,213,213,213,213,213,213,213,213,213,213,213,213,213,213,213,213,213,213,213,213,213,213,213,213,213,213,213,352,373,381,390,408,425,444,462,478,491,507,516,517,517,509,484,445,397,352,240,186,133,87,53,30,2,2,2,2,2,2,2,2,2,2,2,12,34,60,60,63,63,63,61,59,58,58,61,63,64,64,64,64],"timestamp_mouse":[13,43,50,69,89,108,129,148,168,190,209,228,249,268,290,309,328,349,369,388,409,430,448,468,490,508,529,549,569,590,609,628,648,669,689,708,728,750,769,789,808,828,849,870,888,910,928,949,969,990,1009,1029,1049,1070,1088,1109,1128,1148,1169,1189,1209,1229,1248,1269,1288,1309,1328,1348,1368,1389,1409,1429,1448,1469,1489,1509,1529,1549,1569,1588,1609,1628,1649,1670,1689,1709,1728,1748,1769,1788,1808,1828,1848,1868,1888,1909,1928,1949,1968,1988,2008,2029,2048,2070,2089,2109,2128,2148,2169,2188,2208,2229,2248,2268,2289,2310,2328,2348,2368,2388,2408,2429,2449,2470,2489,2510,2528,2548,2569,2588,2610,2628,2648,2669,2688,2709,2729,2749,2770,2789,2809,2828,2848,2868,2888,2908,2928,2949,2989,2993,3009,3030,3049,3070,3088,3109,3128,3149,3168,3188,3209,3228,3248,3268],"xSR":741.5,"ySR":469.95,"xT1":424.9,"yT1":0,"xT2":1058.1,"yT2":0,"toosoon":0,"cond_shown":"equaldotsize","ratio_trial":900,"smaller_num":"9","larger_num":"10","correct_side":2,"subjID":"Sofiacorrea26","gender":"1","age":"9","school":"4"},{"start_time":1552054809965,"click_time":1552054811985,"finger_time":1552054810944,"fix_duration":1198.6759343791837,"trial":23,"RT":979,"MT":1041,"sideResp":2,"stimulus":"img/900/equaldotanddens/L/1_Ratio_900_L_10_R_9.png","xmouse":[796,796,796,796,796,796,796,796,796,796,796,796,796,796,796,796,796,796,796,796,796,796,796,796,796,796,796,796,796,796,796,796,796,796,796,796,796,796,796,796,796,796,796,796,796,796,795,778,755,722,690,657,592,572,567,565,562,555,550,541,532,531,531,531,531,531,531,531,531,531,531,531,531,531,531,531,531,531,531,531,531,531,531,531,531,531,531,531,562,618,691,772,932,959,976,988,1004,1021,1058,1069,1083,1098],"ymouse":[527,527,527,527,527,527,527,527,527,527,527,527,527,527,527,527,527,527,527,527,527,527,527,527,527,527,527,527,527,527,527,527,527,527,527,527,527,527,527,527,527,527,527,527,527,527,525,508,489,456,416,374,283,253,243,236,231,216,209,198,187,187,187,187,187,187,187,187,187,187,187,187,187,187,187,187,187,187,187,187,187,187,187,187,187,187,187,187,200,210,210,210,208,202,196,189,176,164,137,122,109,99],"timestamp_mouse":[1,20,39,59,80,101,120,140,160,180,200,220,241,260,279,300,320,340,359,380,400,421,439,460,479,500,520,541,560,580,601,620,640,661,679,700,720,741,760,779,799,821,840,860,881,900,919,940,959,979,999,1019,1040,1059,1079,1100,1120,1140,1159,1180,1200,1220,1241,1259,1279,1300,1320,1340,1360,1379,1400,1420,1440,1460,1480,1501,1520,1539,1560,1580,1600,1619,1641,1659,1679,1701,1720,1739,1759,1779,1800,1820,1841,1859,1879,1900,1919,1939,1959,1979,1999,2020],"xSR":741.5,"ySR":469.95,"xT1":424.9,"yT1":0,"xT2":1058.1,"yT2":0,"toosoon":0,"cond_shown":"equaldotanddens","ratio_trial":900,"smaller_num":"9","larger_num":"10","correct_side":1,"subjID":"Sofiacorrea26","gender":"1","age":"9","school":"4"},{"start_time":1552054815031,"click_time":1552054817684,"finger_time":1552054815764,"fix_duration":445.81373736800936,"trial":24,"RT":733,"MT":1920,"sideResp":1,"stimulus":"img/900/equaldotsize/L/10_Ratio_900_L_20_R_18.png","xmouse":[815,815,815,815,815,815,815,815,815,815,815,815,815,815,815,815,815,815,815,815,815,815,815,815,815,815,815,815,815,815,815,815,817,818,826,834,843,857,883,894,895,894,886,849,816,791,762,730,661,642,623,613,613,613,613,613,613,613,613,613,613,613,613,613,613,613,613,613,613,613,613,613,613,613,613,613,613,613,613,613,638,687,733,802,819,826,828,829,829,829,825,821,815,811,804,802,802,802,802,802,796,782,762,702,650,588,529,476,428,373,369,367,364,363,363,363,363,363,368,383,390,396,397,399,399,399,401,403,407,410,415,421,429],"ymouse":[555,555,555,555,555,555,555,555,555,555,555,555,555,555,555,555,555,555,555,555,555,555,555,555,555,555,555,555,555,555,555,555,553,552,537,522,505,483,436,402,379,361,341,308,291,282,275,266,240,227,209,198,198,198,198,198,198,198,198,198,198,198,198,198,198,198,198,198,198,198,198,198,198,198,198,198,198,198,198,198,219,266,316,398,424,438,446,450,451,452,454,455,456,458,460,461,461,461,461,461,457,442,425,388,351,310,266,223,182,120,107,97,91,77,70,62,54,51,49,48,48,51,51,53,54,55,58,60,63,64,66,67,70],"timestamp_mouse":[14,39,53,74,93,113,134,155,175,193,214,235,255,274,293,314,334,355,374,394,413,434,453,473,493,513,534,554,573,593,614,634,653,673,693,713,733,754,774,793,813,833,853,875,893,913,934,955,974,993,1013,1033,1054,1073,1094,1113,1134,1154,1174,1194,1214,1235,1253,1274,1293,1314,1334,1353,1374,1393,1413,1434,1454,1474,1494,1514,1534,1554,1574,1594,1614,1634,1653,1675,1693,1714,1733,1753,1775,1793,1814,1835,1853,1873,1893,1914,1934,1953,1973,1994,2013,2034,2054,2075,2093,2114,2133,2153,2173,2194,2213,2233,2254,2274,2293,2313,2333,2353,2374,2393,2414,2434,2453,2474,2493,2513,2533,2554,2574,2593,2614,2633,2653],"xSR":741.5,"ySR":469.95,"xT1":424.9,"yT1":0,"xT2":1058.1,"yT2":0,"toosoon":0,"cond_shown":"equaldotsize","ratio_trial":900,"smaller_num":"18","larger_num":"20","correct_side":1,"subjID":"Sofiacorrea26","gender":"1","age":"9","school":"4"},{"start_time":1552054820478,"click_time":1552054821485,"finger_time":1552054821305,"fix_duration":1233.0122005469796,"trial":25,"RT":827,"MT":180,"sideResp":1,"stimulus":"img/250/equaldotsize/L/1_Ratio_250_L_8_R_2.png","xmouse":[836,836,836,836,836,836,836,836,836,834,833,833,832,832,832,832,831,831,830,830,830,830,830,830,830,830,830,830,830,830,830,830,830,830,829,828,826,818,815,811,803,776,752,715,671,624,571,547,534,523,517],"ymouse":[518,518,518,518,518,518,518,518,518,518,517,517,516,516,516,516,516,516,515,515,515,515,515,515,515,515,515,515,515,515,515,515,515,515,514,514,513,509,506,504,498,456,414,354,294,243,166,130,116,104,96],"timestamp_mouse":[9,31,46,68,87,108,127,146,166,186,207,226,247,266,286,307,328,348,366,387,407,427,446,466,486,506,526,546,567,587,607,627,647,667,686,706,726,747,766,787,807,827,846,867,886,907,927,946,966,988,1007],"xSR":741.5,"ySR":469.95,"xT1":424.9,"yT1":0,"xT2":1058.1,"yT2":0,"toosoon":0,"cond_shown":"equaldotsize","ratio_trial":250,"smaller_num":"2","larger_num":"8","correct_side":1,"subjID":"Sofiacorrea26","gender":"1","age":"9","school":"4"},{"start_time":1552054824534,"click_time":1552054827345,"finger_time":1552054826804,"fix_duration":428.83310960199185,"trial":26,"RT":2270,"MT":541,"sideResp":2,"stimulus":"img/750/equaldotsize/R/2_Ratio_750_L_6_R_8.png","xmouse":[807,807,807,807,807,807,807,807,807,807,807,807,807,807,807,807,807,807,807,807,807,807,807,807,807,807,807,807,807,807,807,807,807,807,807,807,807,807,807,807,807,807,807,807,807,807,807,807,807,807,807,807,807,807,807,807,807,807,807,807,807,807,807,807,807,807,807,807,807,807,807,807,807,807,807,807,807,807,807,807,807,807,807,807,807,807,807,807,807,807,807,807,807,807,807,807,807,807,807,807,807,807,807,807,807,807,807,807,807,807,807,812,820,853,919,931,938,943,953,963,978,995,1020,1029,1075,1091,1105,1117,1126,1128,1129,1129,1129,1120,1108,1098,1088,1082,1081,1081,1087],"ymouse":[527,527,527,527,527,527,527,527,527,527,527,527,527,527,527,527,527,527,527,527,527,527,527,527,527,527,527,527,527,527,527,527,527,527,527,527,527,527,527,527,527,527,527,527,527,527,527,527,527,527,527,527,527,527,527,527,527,527,527,527,527,527,527,527,527,527,527,527,527,527,527,527,527,527,527,527,527,527,527,527,527,527,527,527,527,527,527,527,527,527,527,527,527,527,527,527,527,527,527,527,527,527,527,527,527,527,527,527,527,527,527,522,516,493,462,455,447,437,413,396,376,352,313,298,228,206,187,172,162,159,156,155,154,147,143,137,130,124,109,100,82],"timestamp_mouse":[12,40,50,70,91,112,131,151,171,191,211,231,250,270,290,310,331,351,370,392,410,430,450,470,491,512,530,551,572,591,610,631,652,670,691,711,731,750,771,790,811,831,850,870,890,910,930,950,970,990,1010,1030,1050,1070,1090,1110,1130,1150,1170,1190,1210,1230,1250,1270,1290,1310,1330,1350,1371,1391,1410,1430,1450,1471,1491,1510,1531,1552,1570,1591,1612,1632,1651,1671,1692,1711,1730,1752,1771,1790,1811,1831,1850,1871,1891,1910,1930,1950,1970,1990,2010,2030,2051,2071,2091,2111,2130,2150,2171,2192,2210,2230,2250,2270,2290,2311,2332,2351,2371,2390,2411,2431,2451,2471,2491,2510,2531,2551,2572,2590,2610,2631,2650,2672,2690,2711,2730,2750,2772,2790,2811],"xSR":741.5,"ySR":469.95,"xT1":424.9,"yT1":0,"xT2":1058.1,"yT2":0,"toosoon":0,"cond_shown":"equaldotsize","ratio_trial":750,"smaller_num":"6","larger_num":"8","correct_side":2,"subjID":"Sofiacorrea26","gender":"1","age":"9","school":"4"},{"start_time":1552054829753,"click_time":1552054832424,"finger_time":1552054830504,"fix_duration":1245.9393009523103,"trial":27,"RT":751,"MT":1920,"sideResp":1,"stimulus":"img/750/equaldotsize/L/6_Ratio_750_L_24_R_18.png","xmouse":[800,800,800,800,800,800,800,800,800,800,800,800,800,800,800,800,800,800,800,800,800,800,800,800,800,800,800,800,800,800,800,800,800,800,800,805,835,870,925,937,938,928,896,868,853,846,840,831,828,826,823,815,765,739,715,688,664,596,563,532,507,489,479,477,477,477,477,477,477,477,477,477,477,477,477,477,477,477,477,477,477,477,477,477,477,477,477,477,477,477,477,485,509,514,516,517,518,518,520,521,522,522,522,523,525,526,527,529,530,530,528,523,514,492,479,472,467,464,463,463,463,463,463,464,464,464,464,464,464,465,465,465,466,469],"ymouse":[517,517,517,517,517,517,517,517,517,517,517,517,517,517,517,517,517,517,517,517,517,517,517,517,517,517,517,517,517,517,517,517,517,517,517,518,498,469,384,336,306,282,239,211,195,174,155,142,141,141,141,143,166,181,194,208,217,234,239,239,239,233,225,203,203,203,203,203,203,203,203,203,203,203,203,203,203,203,203,203,203,203,203,203,203,203,203,203,203,203,203,191,176,175,175,175,175,176,178,179,181,181,181,181,181,181,180,178,173,171,167,164,158,145,137,131,128,123,120,118,117,115,113,111,111,111,111,109,108,106,105,104,102,98],"timestamp_mouse":[13,34,52,71,91,111,131,153,172,192,213,232,251,271,292,312,332,351,372,391,413,432,452,472,492,513,532,553,572,591,612,632,652,672,691,712,732,751,771,791,811,832,853,872,892,911,931,952,971,991,1012,1033,1052,1071,1091,1112,1131,1152,1171,1191,1211,1231,1251,1272,1291,1312,1332,1352,1372,1391,1412,1431,1452,1471,1493,1512,1531,1552,1572,1592,1612,1633,1653,1673,1693,1712,1732,1752,1772,1791,1811,1832,1852,1871,1891,1912,1932,1951,1972,1992,2011,2032,2052,2073,2092,2111,2131,2151,2171,2192,2213,2232,2251,2272,2291,2311,2333,2353,2371,2391,2411,2431,2453,2471,2492,2511,2531,2552,2571,2591,2611,2631,2651,2671],"xSR":741.5,"ySR":469.95,"xT1":424.9,"yT1":0,"xT2":1058.1,"yT2":0,"toosoon":0,"cond_shown":"equaldotsize","ratio_trial":750,"smaller_num":"18","larger_num":"24","correct_side":1,"subjID":"Sofiacorrea26","gender":"1","age":"9","school":"4"},{"start_time":1552054838805,"click_time":1552054840006,"finger_time":1552054839586,"fix_duration":297.58960335933784,"trial":28,"RT":781,"MT":420,"sideResp":2,"stimulus":"img/900/equaldotanddens/R/9_Ratio_900_L_18_R_20.png","xmouse":[762,762,762,762,762,762,762,762,762,762,762,762,762,762,762,762,762,762,762,762,762,762,762,762,762,762,762,762,762,762,762,762,762,762,762,762,766,779,800,834,942,1017,1041,1057,1058,1057,1057,1057,1057,1057,1057,1057,1057,1057,1057,1057,1057,1057,1057,1057,1061],"ymouse":[520,520,520,520,520,520,520,520,520,520,520,520,520,520,520,520,520,520,520,520,520,520,520,520,520,520,520,520,520,520,520,520,520,520,520,520,520,513,495,453,295,187,144,107,89,82,82,82,82,82,82,82,82,82,82,82,82,82,82,82,82],"timestamp_mouse":[1,19,39,59,80,100,120,139,160,181,200,221,239,259,281,300,319,339,360,381,400,420,441,460,479,500,520,539,559,581,599,620,640,659,679,699,719,740,759,781,801,820,839,860,880,900,919,939,959,979,1000,1020,1041,1061,1081,1100,1120,1139,1160,1181,1201],"xSR":741.5,"ySR":469.95,"xT1":424.9,"yT1":0,"xT2":1058.1,"yT2":0,"toosoon":0,"cond_shown":"equaldotanddens","ratio_trial":900,"smaller_num":"18","larger_num":"20","correct_side":2,"subjID":"Sofiacorrea26","gender":"1","age":"9","school":"4"},{"start_time":1552054842096,"click_time":1552054843485,"finger_time":1552054842924,"fix_duration":1431.9858081091334,"trial":29,"RT":828,"MT":561,"sideResp":2,"stimulus":"img/250/randomdotsizeEA/R/12_Ratio_250_L_5_R_20.png","xmouse":[774,774,774,774,774,773,773,773,773,773,773,773,773,773,773,773,773,773,773,773,773,773,773,773,773,772,770,770,769,769,769,770,771,772,774,779,782,786,790,798,847,877,901,921,956,969,972,974,976,978,985,989,992,994,996,1002,1013,1029,1048,1063,1064,1065,1068,1070,1074,1075,1076,1078,1080],"ymouse":[507,504,503,502,502,501,500,500,500,500,500,500,500,500,500,500,500,500,500,500,500,500,500,500,500,500,501,504,508,511,513,514,515,516,517,521,524,526,528,528,502,475,439,391,276,210,185,170,162,156,148,145,142,140,138,136,133,130,127,123,122,119,113,110,106,105,103,101,98],"timestamp_mouse":[32,48,70,90,108,129,149,169,188,208,229,249,268,289,309,328,349,368,390,409,429,449,469,490,510,529,548,568,589,609,628,649,668,689,709,728,748,769,789,808,828,849,868,889,909,928,949,969,988,1008,1028,1048,1069,1088,1109,1128,1148,1169,1189,1210,1228,1250,1269,1288,1309,1328,1349,1370,1389],"xSR":741.5,"ySR":469.95,"xT1":424.9,"yT1":0,"xT2":1058.1,"yT2":0,"toosoon":0,"cond_shown":"randomdotsizeEA","ratio_trial":250,"smaller_num":"5","larger_num":"20","correct_side":2,"subjID":"Sofiacorrea26","gender":"1","age":"9","school":"4"},{"start_time":1552054844857,"click_time":1552054846705,"finger_time":1552054845824,"fix_duration":250,"trial":30,"RT":967,"MT":881,"sideResp":2,"stimulus":"img/900/equaldotanddens/L/1_Ratio_900_L_10_R_9.png","xmouse":[811,811,810,808,805,802,801,800,800,800,800,800,800,800,800,800,799,798,795,793,792,792,792,792,792,792,792,792,792,792,792,792,792,792,792,792,792,792,792,792,792,792,792,792,792,792,792,777,760,736,711,685,668,656,656,656,656,656,656,656,657,662,727,797,900,1019,1122,1392,1477,1518,1521,1520,1497,1475,1451,1425,1403,1357,1338,1315,1290,1263,1217,1202,1198,1196,1196,1193,1187,1180,1173,1163,1151],"ymouse":[526,526,526,525,525,525,524,524,524,524,524,524,524,524,524,524,524,524,524,523,522,522,521,521,521,521,521,521,521,521,521,521,521,521,521,521,521,521,521,521,521,521,521,521,521,521,518,488,468,444,424,405,392,381,381,381,381,381,381,381,381,381,381,373,359,345,329,218,148,98,84,80,70,63,60,56,52,41,39,36,33,30,25,25,25,25,25,24,23,23,23,23,25],"timestamp_mouse":[12,34,48,67,88,108,127,148,168,187,208,228,247,268,288,307,328,347,367,388,407,428,448,468,489,509,528,547,567,588,608,627,648,668,687,707,728,747,768,789,807,828,848,868,889,909,928,948,967,988,1007,1028,1048,1067,1088,1109,1128,1148,1167,1187,1207,1227,1249,1267,1287,1307,1328,1348,1367,1387,1408,1428,1448,1467,1488,1508,1527,1549,1567,1587,1609,1628,1649,1667,1687,1707,1727,1749,1767,1788,1808,1828,1848],"xSR":741.5,"ySR":469.95,"xT1":424.9,"yT1":0,"xT2":1058.1,"yT2":0,"toosoon":0,"cond_shown":"equaldotanddens","ratio_trial":900,"smaller_num":"9","larger_num":"10","correct_side":1,"subjID":"Sofiacorrea26","gender":"1","age":"9","school":"4"},{"start_time":1552054847777,"click_time":1552054851945,"finger_time":1552054849284,"fix_duration":250,"trial":31,"RT":1507,"MT":2661,"sideResp":1,"stimulus":"img/900/randomdotsizeEA/R/5_Ratio_900_L_9_R_10.png","xmouse":[770,770,770,770,770,770,770,770,770,770,770,770,770,770,770,770,770,770,770,770,770,770,770,770,770,770,770,770,770,770,770,770,770,770,770,770,770,770,770,771,774,785,786,786,783,771,763,763,763,763,763,763,763,763,763,763,763,763,763,763,763,763,763,763,763,763,763,763,763,763,763,763,763,763,822,859,933,1038,1061,1077,1086,1101,1116,1124,1131,1133,1138,1138,1127,1063,971,800,778,715,714,714,714,714,714,714,714,714,714,714,714,714,714,714,714,714,714,714,714,717,734,779,888,1252,1252,1252,1252,1252,1252,1252,1252,1252,1252,1252,1557,1557,1557,1557,1557,1557,1557,1557,1557,1557,1557,1557,1557,1557,1557,1557,1557,1557,1557,1557,1557,1557,1557,1557,1557,1557,1557,1557,1557,1557,1557,1557,1557,1557,1557,1557,1557,1557,1557,1557,1557,1557,1179,962,812,757,720,699,684,679,674,665,649,565,509,439,366,324,324,324,324,324,324,324,324,324,324,324,324,236,251,266,285,291,313,326,334,338,369,406,450],"ymouse":[532,532,532,532,532,532,532,532,532,532,532,532,532,532,532,532,532,532,532,532,532,532,532,532,532,532,532,532,532,532,532,532,532,532,532,532,532,532,532,533,533,530,527,519,508,491,481,481,481,481,481,481,481,481,481,481,481,481,481,481,481,481,481,481,481,481,481,481,481,481,481,481,481,481,516,534,575,631,641,646,648,662,683,694,698,699,700,700,686,647,587,448,433,388,388,388,388,388,388,388,388,388,388,388,388,388,388,388,388,388,388,388,388,388,391,410,467,675,675,675,675,675,675,675,675,675,675,675,708,708,708,708,708,708,708,708,708,708,708,708,708,708,708,708,708,708,708,708,708,708,708,708,708,708,708,708,708,708,708,708,708,708,708,708,708,708,708,708,708,708,712,560,471,444,429,420,409,405,400,389,371,258,191,130,61,23,23,23,23,23,23,23,23,23,23,23,23,13,27,42,66,72,94,101,105,105,93,71,48],"timestamp_mouse":[18,28,48,67,87,107,127,148,167,188,208,228,247,268,289,308,328,348,368,388,409,428,448,467,488,509,529,548,568,588,608,629,648,668,688,709,729,748,767,787,808,828,849,867,887,907,929,948,968,987,1009,1029,1048,1067,1088,1107,1129,1149,1169,1187,1208,1228,1247,1267,1288,1308,1328,1348,1367,1387,1408,1428,1449,1467,1488,1507,1527,1547,1567,1588,1608,1628,1647,1667,1687,1708,1728,1747,1768,1788,1807,1829,1847,1868,1888,1908,1927,1947,1968,1987,2008,2028,2047,2067,2088,2109,2128,2148,2169,2188,2207,2229,2247,2268,2288,2307,2328,2348,2367,2387,2407,2428,2448,2469,2488,2508,2528,2547,2568,2587,2607,2628,2648,2668,2688,2707,2729,2747,2767,2787,2807,2828,2847,2867,2887,2908,2928,2948,2967,2989,3008,3029,3047,3068,3088,3108,3128,3147,3168,3189,3208,3229,3248,3268,3288,3307,3327,3347,3367,3387,3407,3429,3447,3467,3489,3508,3528,3547,3567,3588,3607,3628,3647,3667,3689,3707,3729,3749,3768,3789,3808,3828,3848,3867,3888,3908,3928,3948,3967,3987,4008,4027,4048,4067,4087,4107,4128,4147,4168],"xSR":741.5,"ySR":469.95,"xT1":424.9,"yT1":0,"xT2":1058.1,"yT2":0,"toosoon":0,"cond_shown":"randomdotsizeEA","ratio_trial":900,"smaller_num":"9","larger_num":"10","correct_side":2,"subjID":"Sofiacorrea26","gender":"1","age":"9","school":"4"},{"start_time":1552054854717,"click_time":1552054855964,"finger_time":1552054855546,"fix_duration":1190.5672978517484,"trial":32,"RT":829,"MT":418,"sideResp":2,"stimulus":"img/250/equaldotsize/R/12_Ratio_250_L_5_R_20.png","xmouse":[809,809,809,809,809,809,809,807,807,806,805,804,804,804,803,802,801,799,798,793,793,793,793,793,793,793,793,790,788,780,775,770,765,760,758,758,758,762,772,806,827,850,876,909,953,1080,1126,1160,1186,1222,1227,1227,1227,1224,1221,1201,1194,1184,1175,1153,1144,1137,1132],"ymouse":[513,513,513,513,513,513,513,512,512,511,510,510,510,509,509,508,507,506,505,502,501,501,501,501,501,501,501,501,501,506,509,512,513,514,516,516,517,519,522,528,528,528,527,520,507,445,417,391,370,326,309,299,294,290,288,275,266,247,224,152,126,103,85],"timestamp_mouse":[14,40,47,68,88,107,128,147,167,189,209,228,248,268,287,307,327,348,368,388,407,428,448,468,487,509,527,548,567,587,607,627,647,668,687,708,727,747,767,787,807,829,848,867,887,908,928,947,967,988,1008,1028,1048,1068,1087,1108,1127,1147,1168,1191,1207,1229,1247],"xSR":741.5,"ySR":469.95,"xT1":424.9,"yT1":0,"xT2":1058.1,"yT2":0,"toosoon":0,"cond_shown":"equaldotsize","ratio_trial":250,"smaller_num":"5","larger_num":"20","correct_side":2,"subjID":"Sofiacorrea26","gender":"1","age":"9","school":"4"},{"start_time":1552054859263,"click_time":1552054860305,"finger_time":1552054860044,"fix_duration":936.6542939498181,"trial":33,"RT":781,"MT":261,"sideResp":1,"stimulus":"img/500/equaldotsize/L/10_Ratio_500_L_4_R_2.png","xmouse":[814,814,814,814,814,814,814,814,814,814,814,814,814,814,814,814,814,814,814,814,814,814,814,814,814,814,814,814,814,814,814,814,814,814,814,814,814,798,770,716,645,562,437,406,396,393,393,399,406,414,423,431,446],"ymouse":[532,532,532,532,532,532,532,532,532,532,532,532,532,532,532,532,532,532,532,532,532,532,532,532,532,532,532,532,532,532,532,532,532,532,532,532,532,521,506,483,445,397,300,258,233,217,206,186,174,157,138,120,98],"timestamp_mouse":[10,21,42,62,82,101,123,142,163,181,202,221,241,262,281,301,322,343,362,382,402,421,441,462,483,502,522,543,562,582,601,622,642,662,682,701,723,742,763,781,801,821,843,861,882,902,921,943,962,981,1003,1022,1042],"xSR":741.5,"ySR":469.95,"xT1":424.9,"yT1":0,"xT2":1058.1,"yT2":0,"toosoon":0,"cond_shown":"equaldotsize","ratio_trial":500,"smaller_num":"2","larger_num":"4","correct_side":1,"subjID":"Sofiacorrea26","gender":"1","age":"9","school":"4"},{"start_time":1552054861765,"click_time":1552054863025,"finger_time":1552054862384,"fix_duration":519.2865587062973,"trial":34,"RT":619,"MT":641,"sideResp":2,"stimulus":"img/750/equaldotanddens/R/7_Ratio_750_L_3_R_4.png","xmouse":[771,771,771,771,772,773,774,776,776,776,776,776,776,776,776,776,776,776,776,776,776,776,776,776,776,776,776,777,785,799,827,880,941,1068,1085,1097,1103,1104,1105,1105,1105,1105,1104,1083,1073,1066,1057,1046,1044,1042,1042,1042,1042,1042,1042,1042,1043,1046,1048,1050,1052,1053,1054,1060],"ymouse":[486,486,487,489,490,492,494,497,497,497,497,497,497,498,498,498,498,498,498,498,498,498,498,498,498,498,498,498,494,485,472,452,430,350,326,301,280,256,249,244,237,232,224,176,150,129,106,77,65,56,47,41,36,33,33,33,34,39,42,46,48,50,51,56],"timestamp_mouse":[1,20,45,60,79,100,120,139,161,181,200,219,239,260,279,300,319,340,359,380,401,420,440,460,479,501,521,540,559,580,600,619,639,659,680,699,719,741,759,780,800,820,840,859,879,899,919,940,959,980,1000,1019,1039,1060,1079,1100,1119,1140,1159,1180,1201,1219,1239,1260],"xSR":741.5,"ySR":469.95,"xT1":424.9,"yT1":0,"xT2":1058.1,"yT2":0,"toosoon":0,"cond_shown":"equaldotanddens","ratio_trial":750,"smaller_num":"3","larger_num":"4","correct_side":2,"subjID":"Sofiacorrea26","gender":"1","age":"9","school":"4"},{"start_time":1552054864506,"click_time":1552054865865,"finger_time":1552054865104,"fix_duration":499.34463003996063,"trial":35,"RT":598,"MT":761,"sideResp":1,"stimulus":"img/250/equaldotsize/L/14_Ratio_250_L_12_R_3.png","xmouse":[764,764,764,764,764,764,764,764,764,764,764,764,764,764,764,764,764,764,764,764,764,764,764,764,764,760,757,752,742,727,688,665,640,623,617,583,553,516,479,410,410,410,410,410,410,410,410,410,410,410,410,410,410,410,410,410,410,410,410,410,410,410,392,397,402,415,420,425],"ymouse":[507,507,507,507,507,507,507,507,507,507,507,507,507,507,507,507,507,507,507,507,507,507,507,507,507,506,506,506,504,504,500,496,491,478,461,351,284,208,134,17,17,17,17,17,17,17,17,17,17,17,17,17,17,17,17,17,17,17,17,17,17,17,8,14,20,34,40,45],"timestamp_mouse":[33,39,60,78,99,119,140,158,179,199,218,239,260,278,298,318,339,360,379,398,419,440,458,479,498,518,538,559,579,598,618,639,658,678,698,720,738,758,778,800,818,838,858,878,899,918,939,959,978,999,1018,1038,1058,1079,1099,1119,1139,1160,1180,1200,1219,1240,1258,1280,1298,1318,1338,1359],"xSR":741.5,"ySR":469.95,"xT1":424.9,"yT1":0,"xT2":1058.1,"yT2":0,"toosoon":0,"cond_shown":"equaldotsize","ratio_trial":250,"smaller_num":"3","larger_num":"12","correct_side":1,"subjID":"Sofiacorrea26","gender":"1","age":"9","school":"4"},{"start_time":1552054868207,"click_time":1552054869206,"finger_time":1552054868785,"fix_duration":1440.2958101642555,"trial":36,"RT":578,"MT":421,"sideResp":2,"stimulus":"img/250/equaldotsize/R/6_Ratio_250_L_6_R_24.png","xmouse":[798,798,798,798,798,798,798,798,798,798,798,798,798,798,798,798,798,798,798,798,798,798,798,798,798,798,800,823,859,907,1011,1035,1050,1061,1076,1088,1096,1104,1108,1111,1111,1111,1111,1112,1114,1114,1114,1115,1117,1117],"ymouse":[511,511,511,511,511,511,511,511,511,511,511,511,511,511,511,511,511,511,511,511,511,511,511,511,511,511,508,498,480,453,391,376,366,356,326,301,278,254,234,207,206,205,205,201,188,176,161,143,118,64],"timestamp_mouse":[18,38,57,77,98,117,137,159,178,198,219,239,258,277,299,317,337,358,377,397,417,439,457,478,499,517,537,558,578,597,618,638,659,678,698,717,737,758,777,798,818,838,859,878,899,917,938,958,978,999],"xSR":741.5,"ySR":469.95,"xT1":424.9,"yT1":0,"xT2":1058.1,"yT2":0,"toosoon":0,"cond_shown":"equaldotsize","ratio_trial":250,"smaller_num":"6","larger_num":"24","correct_side":2,"subjID":"Sofiacorrea26","gender":"1","age":"9","school":"4"},{"start_time":1552054870705,"click_time":1552054871864,"finger_time":1552054871564,"fix_duration":359.70508138148097,"trial":37,"RT":859,"MT":300,"sideResp":1,"stimulus":"img/900/randomdotsizeEA/R/3_Ratio_900_L_9_R_10.png","xmouse":[801,801,801,801,801,795,789,785,783,780,779,779,779,781,789,789,789,787,783,774,774,774,774,774,774,775,775,775,775,775,775,775,775,775,775,775,775,775,775,774,768,751,730,710,660,650,636,625,617,611,606,605,603,598,578,562,543,522],"ymouse":[486,486,486,486,486,493,508,517,520,521,523,524,526,528,529,529,529,529,529,529,529,529,529,529,529,529,530,530,530,530,530,530,530,530,530,530,530,530,530,530,529,522,505,482,364,303,240,199,174,156,134,127,121,110,84,72,63,55],"timestamp_mouse":[2,41,59,79,99,120,139,160,179,199,219,240,259,280,301,320,340,360,380,400,419,439,460,480,499,520,541,559,580,601,621,640,660,679,700,720,741,761,780,800,819,839,859,881,901,919,939,959,980,1000,1019,1039,1060,1080,1099,1121,1140,1159],"xSR":741.5,"ySR":469.95,"xT1":424.9,"yT1":0,"xT2":1058.1,"yT2":0,"toosoon":0,"cond_shown":"randomdotsizeEA","ratio_trial":900,"smaller_num":"9","larger_num":"10","correct_side":2,"subjID":"Sofiacorrea26","gender":"1","age":"9","school":"4"},{"start_time":1552054874252,"click_time":1552054875865,"finger_time":1552054875165,"fix_duration":1485.6073035551592,"trial":38,"RT":913,"MT":700,"sideResp":1,"stimulus":"img/750/equaldotanddens/L/10_Ratio_750_L_4_R_3.png","xmouse":[754,754,754,754,754,754,754,754,754,754,754,754,754,754,754,754,754,754,754,754,754,754,754,754,754,754,754,754,754,754,754,754,754,754,757,759,760,761,761,761,761,761,770,792,835,900,973,1038,1093,1097,1096,1092,1077,1067,1056,1047,1042,1037,1030,1017,993,948,826,763,707,669,647,606,574,559,545,539,537,537,538,540,540,540,537,526,512],"ymouse":[550,550,550,550,550,550,550,550,550,550,550,550,550,550,550,550,550,550,550,550,550,550,550,550,550,550,550,550,550,550,550,550,550,550,550,550,550,549,549,549,549,549,547,540,525,497,461,419,361,342,329,324,322,322,322,322,322,322,322,322,322,315,290,270,249,232,219,193,168,153,139,130,123,119,114,109,106,104,98,93,87],"timestamp_mouse":[13,39,53,72,94,112,132,153,172,192,212,233,253,272,292,312,334,353,373,393,412,433,452,473,493,512,533,553,572,594,613,633,652,672,692,712,733,753,774,792,813,833,853,872,892,913,933,952,973,992,1012,1032,1053,1072,1093,1112,1132,1153,1173,1192,1212,1233,1253,1272,1292,1312,1332,1353,1372,1392,1413,1432,1454,1472,1493,1513,1533,1552,1573,1592,1613],"xSR":741.5,"ySR":469.95,"xT1":424.9,"yT1":0,"xT2":1058.1,"yT2":0,"toosoon":0,"cond_shown":"equaldotanddens","ratio_trial":750,"smaller_num":"3","larger_num":"4","correct_side":1,"subjID":"Sofiacorrea26","gender":"1","age":"9","school":"4"},{"start_time":1552054877236,"click_time":1552054879166,"finger_time":1552054877984,"fix_duration":630.2495008363594,"trial":39,"RT":748,"MT":1182,"sideResp":1,"stimulus":"img/900/randomdotsizeEA/L/2_Ratio_900_L_20_R_18.png","xmouse":[775,775,775,775,775,775,775,775,775,775,775,775,775,775,775,775,775,775,775,775,775,775,775,775,775,775,775,775,775,775,775,775,775,775,775,798,822,874,912,950,959,967,976,982,993,1001,1011,1022,1068,1102,1106,1106,1104,1088,1082,1079,1078,1078,1078,1078,1077,1073,1070,1067,1065,1062,1056,1045,1014,1003,996,986,970,923,885,849,814,775,738,728,718,709,703,688,678,666,657,646,620,610,603,596,588,575,548,534,523],"ymouse":[555,555,555,555,555,555,555,555,555,555,555,555,555,555,555,555,555,555,555,555,555,555,555,555,555,555,555,555,555,555,555,555,555,555,555,555,555,555,555,555,550,537,513,487,443,426,414,403,343,273,244,219,192,146,131,127,126,126,126,126,126,132,138,144,147,153,162,176,212,224,233,242,252,264,268,268,268,259,244,235,222,200,178,135,114,97,88,84,77,75,75,74,74,74,73,70,68],"timestamp_mouse":[13,35,50,69,89,110,129,149,170,188,208,229,250,269,289,308,329,348,368,388,409,429,448,468,490,508,528,549,568,589,610,629,650,669,689,709,729,748,768,789,809,829,848,868,888,908,929,948,970,988,1009,1029,1049,1069,1088,1108,1128,1148,1168,1188,1208,1228,1249,1269,1288,1308,1328,1349,1369,1388,1409,1429,1448,1469,1488,1509,1529,1548,1569,1600,1608,1629,1648,1669,1688,1708,1728,1748,1769,1788,1808,1829,1849,1868,1888,1909,1929],"xSR":741.5,"ySR":469.95,"xT1":424.9,"yT1":0,"xT2":1058.1,"yT2":0,"toosoon":0,"cond_shown":"randomdotsizeEA","ratio_trial":900,"smaller_num":"18","larger_num":"20","correct_side":1,"subjID":"Sofiacorrea26","gender":"1","age":"9","school":"4"},{"start_time":1552054882060,"click_time":1552054883505,"finger_time":1552054883244,"fix_duration":433.6938525833022,"trial":40,"RT":1184,"MT":261,"sideResp":1,"stimulus":"img/750/randomdotsizeEA/L/13_Ratio_750_L_8_R_6.png","xmouse":[807,807,807,807,807,807,807,807,807,807,807,807,807,807,807,807,807,807,807,807,807,807,807,807,807,807,807,807,807,807,807,807,807,807,807,807,807,807,807,807,807,807,807,807,807,807,807,807,807,807,807,807,807,807,807,807,807,807,797,772,735,698,604,566,532,507,487,481,478,478,478,479,479],"ymouse":[511,511,511,511,511,511,511,511,511,511,511,511,511,511,511,511,511,511,511,511,511,511,511,511,511,511,511,511,511,511,511,511,511,511,511,511,511,511,511,511,511,511,511,511,511,511,511,511,511,511,511,511,511,511,511,511,511,511,496,460,418,379,298,255,210,176,140,123,113,111,108,104,88],"timestamp_mouse":[13,25,45,65,85,104,124,145,166,185,205,224,245,264,284,304,326,345,364,385,404,424,445,464,485,504,524,545,565,585,606,625,645,665,686,706,724,745,764,785,805,825,844,865,885,905,926,946,965,984,1004,1025,1044,1065,1086,1105,1126,1144,1165,1184,1205,1224,1245,1264,1284,1305,1326,1344,1365,1384,1405,1424,1445],"xSR":741.5,"ySR":469.95,"xT1":424.9,"yT1":0,"xT2":1058.1,"yT2":0,"toosoon":0,"cond_shown":"randomdotsizeEA","ratio_trial":750,"smaller_num":"6","larger_num":"8","correct_side":1,"subjID":"Sofiacorrea26","gender":"1","age":"9","school":"4"},{"start_time":1552054885958,"click_time":1552054886865,"finger_time":1552054886785,"fix_duration":250,"trial":41,"RT":827,"MT":80,"sideResp":2,"stimulus":"img/900/equaldotsize/L/8_Ratio_900_L_20_R_18.png","xmouse":[770,770,770,770,770,770,770,769,769,769,769,769,769,769,769,769,769,769,769,769,769,769,769,769,769,769,769,769,769,769,769,769,769,769,769,769,769,769,777,789,808,843,958,1106,1142,1155],"ymouse":[561,561,561,561,561,561,561,561,561,561,561,561,561,561,561,561,561,561,561,561,561,561,561,561,561,561,561,561,561,561,561,561,561,561,561,561,561,558,546,532,518,492,387,188,110,64],"timestamp_mouse":[18,26,46,66,86,107,126,148,167,186,207,226,248,266,287,307,326,346,366,387,408,427,446,466,487,507,528,548,567,587,607,626,646,667,686,707,726,746,766,786,806,827,846,866,886,907],"xSR":741.5,"ySR":469.95,"xT1":424.9,"yT1":0,"xT2":1058.1,"yT2":0,"toosoon":0,"cond_shown":"equaldotsize","ratio_trial":900,"smaller_num":"18","larger_num":"20","correct_side":1,"subjID":"Sofiacorrea26","gender":"1","age":"9","school":"4"},{"start_time":1552054889609,"click_time":1552054890744,"finger_time":1552054890424,"fix_duration":323.90626257030533,"trial":42,"RT":815,"MT":320,"sideResp":1,"stimulus":"img/500/equaldotsize/L/11_Ratio_500_L_12_R_6.png","xmouse":[777,777,777,777,777,777,777,777,777,777,777,777,777,777,777,777,777,777,777,777,777,777,777,777,777,777,777,777,777,777,777,777,777,777,777,777,777,777,776,768,748,724,686,656,619,573,564,560,559,559,558,556,553,550,536,528,522],"ymouse":[516,516,516,516,516,516,516,516,516,516,516,516,516,516,516,516,516,516,516,516,516,516,516,516,516,516,516,516,516,516,516,516,516,516,516,516,516,516,516,492,452,398,334,285,233,167,155,149,147,146,144,141,134,127,102,88,79],"timestamp_mouse":[15,45,55,75,95,117,136,155,175,195,216,235,256,276,295,315,335,356,376,396,416,435,455,476,496,515,536,556,576,596,615,636,656,676,695,715,737,756,776,796,815,835,855,875,896,915,935,957,976,996,1015,1035,1055,1075,1095,1115,1135],"xSR":741.5,"ySR":469.95,"xT1":424.9,"yT1":0,"xT2":1058.1,"yT2":0,"toosoon":0,"cond_shown":"equaldotsize","ratio_trial":500,"smaller_num":"6","larger_num":"12","correct_side":1,"subjID":"Sofiacorrea26","gender":"1","age":"9","school":"4"},{"start_time":1552054892151,"click_time":1552054893344,"finger_time":1552054892884,"fix_duration":265.1880701640963,"trial":43,"RT":733,"MT":460,"sideResp":2,"stimulus":"img/500/equaldotanddens/R/3_Ratio_500_L_10_R_20.png","xmouse":[789,789,789,789,789,789,789,789,789,789,789,789,789,789,789,789,789,789,789,789,789,789,789,789,789,789,789,789,789,789,789,789,789,789,789,804,847,1008,1094,1180,1231,1253,1274,1276,1276,1276,1276,1274,1264,1257,1247,1236,1226,1204,1195,1191,1187,1175,1163,1149],"ymouse":[520,520,520,520,520,520,520,520,520,520,520,520,520,520,520,520,520,520,520,520,520,520,520,520,520,520,520,520,520,520,520,520,520,520,520,514,491,377,296,206,135,94,37,25,23,23,23,23,21,19,18,17,16,16,16,18,19,23,26,30],"timestamp_mouse":[21,45,53,74,93,113,133,153,173,193,213,234,254,273,295,313,333,353,374,395,413,433,454,473,493,514,533,554,575,594,614,634,654,674,693,714,733,754,773,794,814,834,854,873,894,914,933,954,973,994,1013,1034,1054,1074,1093,1113,1133,1155,1173,1193],"xSR":741.5,"ySR":469.95,"xT1":424.9,"yT1":0,"xT2":1058.1,"yT2":0,"toosoon":0,"cond_shown":"equaldotanddens","ratio_trial":500,"smaller_num":"10","larger_num":"20","correct_side":2,"subjID":"Sofiacorrea26","gender":"1","age":"9","school":"4"},{"start_time":1552054895567,"click_time":1552054896565,"finger_time":1552054896164,"fix_duration":1260.092997722903,"trial":44,"RT":597,"MT":401,"sideResp":1,"stimulus":"img/500/equaldotanddens/L/8_Ratio_500_L_8_R_4.png","xmouse":[764,764,764,764,764,764,764,764,764,764,764,764,764,764,764,764,764,764,764,764,764,764,764,764,764,764,764,762,756,745,719,685,587,562,550,547,547,547,547,547,547,547,547,547,547,547,542,534,527,520],"ymouse":[509,509,509,509,509,509,509,509,509,509,509,509,509,509,509,509,509,509,509,509,509,509,509,509,509,509,509,503,486,459,416,351,165,111,82,71,69,69,69,69,69,69,69,69,69,69,69,70,72,72],"timestamp_mouse":[18,39,57,77,98,118,137,157,179,198,218,237,259,277,297,317,337,357,378,398,418,437,458,478,498,518,537,557,578,597,619,637,657,677,697,718,738,758,778,798,817,838,858,877,897,917,938,957,979,997],"xSR":741.5,"ySR":469.95,"xT1":424.9,"yT1":0,"xT2":1058.1,"yT2":0,"toosoon":0,"cond_shown":"equaldotanddens","ratio_trial":500,"smaller_num":"4","larger_num":"8","correct_side":1,"subjID":"Sofiacorrea26","gender":"1","age":"9","school":"4"},{"start_time":1552054899415,"click_time":1552054900564,"finger_time":1552054900244,"fix_duration":749.8012879727365,"trial":45,"RT":829,"MT":320,"sideResp":1,"stimulus":"img/750/equaldotanddens/L/6_Ratio_750_L_24_R_18.png","xmouse":[801,801,801,801,801,801,801,801,801,801,801,801,801,801,801,801,801,801,801,801,801,801,801,801,801,801,801,801,801,801,801,801,801,801,801,801,801,801,802,801,760,733,701,669,603,584,569,566,566,573,577,579,579,579,565,547,529,516],"ymouse":[541,541,541,541,541,541,541,541,541,541,541,541,541,541,541,541,541,541,541,541,541,541,541,541,541,541,541,541,541,541,541,541,541,541,541,541,541,541,541,540,512,488,455,406,285,244,209,190,174,153,141,132,120,108,85,78,71,64],"timestamp_mouse":[18,32,49,69,89,109,130,150,170,189,209,230,249,270,289,311,329,350,370,389,409,430,449,470,489,510,530,550,569,590,609,630,649,669,690,710,729,750,770,790,809,829,849,869,889,909,929,949,969,991,1009,1029,1050,1069,1090,1109,1129,1149],"xSR":741.5,"ySR":469.95,"xT1":424.9,"yT1":0,"xT2":1058.1,"yT2":0,"toosoon":0,"cond_shown":"equaldotanddens","ratio_trial":750,"smaller_num":"18","larger_num":"24","correct_side":1,"subjID":"Sofiacorrea26","gender":"1","age":"9","school":"4"},{"start_time":1552054902596,"click_time":1552054903364,"finger_time":1552054903204,"fix_duration":1189.945693728888,"trial":46,"RT":608,"MT":160,"sideResp":2,"stimulus":"img/750/equaldotsize/R/5_Ratio_750_L_15_R_20.png","xmouse":[773,773,773,773,773,773,773,773,773,773,773,773,773,773,773,773,773,773,773,773,773,773,773,773,773,773,773,773,773,794,909,1035,1104,1146,1161,1162,1160,1159,1156],"ymouse":[507,507,507,507,507,507,507,507,507,507,507,507,507,507,507,507,507,507,507,507,507,507,507,507,507,507,507,507,507,484,386,254,171,104,60,26,22,21,20],"timestamp_mouse":[12,43,49,68,88,109,128,149,169,189,210,229,248,268,288,309,328,348,369,388,408,428,448,468,488,509,528,548,568,589,608,628,648,669,688,709,728,748,768],"xSR":741.5,"ySR":469.95,"xT1":424.9,"yT1":0,"xT2":1058.1,"yT2":0,"toosoon":0,"cond_shown":"equaldotsize","ratio_trial":750,"smaller_num":"15","larger_num":"20","correct_side":2,"subjID":"Sofiacorrea26","gender":"1","age":"9","school":"4"},{"start_time":1552054905722,"click_time":1552054906964,"finger_time":1552054906624,"fix_duration":1414.7583732152243,"trial":47,"RT":902,"MT":340,"sideResp":1,"stimulus":"img/250/equaldotsize/L/5_Ratio_250_L_24_R_6.png","xmouse":[765,765,765,765,765,765,765,765,765,765,765,765,765,765,765,765,765,765,765,765,765,765,765,765,765,765,765,765,765,765,765,765,765,765,765,765,765,765,765,765,765,765,765,764,745,717,677,639,607,582,575,570,566,563,560,543,538,534,527,514,510,506,503],"ymouse":[542,542,542,542,542,542,542,542,542,542,542,542,542,542,542,542,542,542,542,542,542,542,542,542,542,542,542,542,542,542,542,542,542,542,542,542,542,542,542,542,542,542,542,541,521,493,457,422,391,357,344,336,328,323,316,278,261,238,212,163,135,105,75],"timestamp_mouse":[12,34,42,63,83,103,122,143,163,183,202,222,243,262,282,302,323,343,363,382,402,423,442,462,482,503,522,543,562,582,602,623,643,662,682,702,724,742,763,782,802,823,842,862,883,902,922,943,962,982,1002,1022,1043,1062,1082,1103,1122,1142,1162,1183,1202,1222,1242],"xSR":741.5,"ySR":469.95,"xT1":424.9,"yT1":0,"xT2":1058.1,"yT2":0,"toosoon":0,"cond_shown":"equaldotsize","ratio_trial":250,"smaller_num":"6","larger_num":"24","correct_side":1,"subjID":"Sofiacorrea26","gender":"1","age":"9","school":"4"},{"start_time":1552054908371,"click_time":1552054909584,"finger_time":1552054909204,"fix_duration":545.6227190826937,"trial":48,"RT":833,"MT":380,"sideResp":2,"stimulus":"img/750/equaldotanddens/L/9_Ratio_750_L_4_R_3.png","xmouse":[785,785,785,785,785,785,785,785,785,785,785,785,785,785,785,785,785,785,785,785,785,785,785,785,785,785,785,785,785,785,785,785,785,785,785,785,785,785,785,785,790,843,887,942,992,1028,1057,1062,1065,1067,1068,1069,1069,1069,1069,1069,1074,1081,1090,1101,1110],"ymouse":[533,533,533,533,533,533,533,533,533,533,533,533,533,533,533,533,533,533,533,533,533,533,533,533,533,533,533,533,533,533,533,533,533,533,533,533,533,533,533,533,533,509,478,434,389,346,289,266,243,227,219,206,201,194,188,183,159,142,125,108,96],"timestamp_mouse":[16,38,53,73,94,114,133,153,173,193,214,233,253,273,293,314,333,354,373,393,414,434,453,474,494,514,533,554,574,594,613,634,653,673,694,714,733,754,773,793,813,833,853,873,893,913,934,954,974,993,1013,1034,1053,1073,1094,1114,1133,1153,1173,1193,1213],"xSR":741.5,"ySR":469.95,"xT1":424.9,"yT1":0,"xT2":1058.1,"yT2":0,"toosoon":0,"cond_shown":"equaldotanddens","ratio_trial":750,"smaller_num":"3","larger_num":"4","correct_side":1,"subjID":"Sofiacorrea26","gender":"1","age":"9","school":"4"},{"start_time":1552054911421,"click_time":1552054912944,"finger_time":1552054912324,"fix_duration":835.618103117008,"trial":49,"RT":903,"MT":620,"sideResp":2,"stimulus":"img/900/randomdotsizeEA/L/8_Ratio_900_L_20_R_18.png","xmouse":[744,744,744,744,744,744,744,744,744,744,744,744,744,744,744,744,744,745,747,750,751,751,751,751,751,751,751,751,751,751,751,751,751,751,751,751,751,751,751,751,751,751,755,761,816,846,868,887,902,944,981,1022,1057,1086,1113,1145,1155,1162,1168,1173,1196,1202,1205,1205,1205,1205,1205,1205,1205,1192,1184,1178,1172,1166,1164,1159,1152],"ymouse":[526,526,526,526,526,526,526,526,526,526,526,526,526,526,526,526,526,527,528,530,530,530,530,530,530,530,530,530,530,530,530,530,530,530,530,530,530,530,530,530,530,530,530,530,516,512,507,501,493,451,417,381,339,295,257,210,192,175,161,149,117,107,102,99,99,99,99,99,98,98,98,98,98,98,97,96,92],"timestamp_mouse":[11,35,44,63,83,103,123,143,163,183,203,224,243,263,283,303,325,343,363,384,403,423,443,464,483,503,524,543,564,584,604,625,643,663,684,704,723,744,764,783,804,824,844,864,884,903,924,943,963,985,1003,1023,1043,1064,1083,1103,1123,1143,1164,1183,1204,1223,1244,1263,1283,1303,1324,1343,1363,1384,1404,1423,1444,1463,1484,1503,1523],"xSR":741.5,"ySR":469.95,"xT1":424.9,"yT1":0,"xT2":1058.1,"yT2":0,"toosoon":0,"cond_shown":"randomdotsizeEA","ratio_trial":900,"smaller_num":"18","larger_num":"20","correct_side":1,"subjID":"Sofiacorrea26","gender":"1","age":"9","school":"4"},{"start_time":1552054914257,"click_time":1552054915684,"finger_time":1552054915224,"fix_duration":250,"trial":50,"RT":967,"MT":460,"sideResp":1,"stimulus":"img/750/equaldotanddens/R/3_Ratio_750_L_15_R_20.png","xmouse":[790,790,790,790,790,790,790,790,790,790,790,790,790,790,790,790,790,790,790,790,790,790,790,790,790,790,790,790,790,790,790,790,790,790,790,790,791,793,793,793,793,795,797,817,828,836,837,837,802,771,738,705,685,657,643,626,611,600,600,600,600,600,597,589,578,564,553,524,516,513,512,510],"ymouse":[541,541,541,541,541,541,541,541,541,541,541,541,541,541,541,541,541,541,541,541,541,541,541,541,541,541,541,541,541,541,541,541,541,541,541,541,541,539,539,539,539,538,536,519,510,501,495,489,453,427,399,378,369,361,350,334,313,295,295,295,295,290,256,233,206,182,160,119,109,104,100,98],"timestamp_mouse":[19,28,47,67,87,107,127,148,167,187,208,227,247,267,287,308,327,348,368,389,408,428,448,467,487,508,528,547,567,588,607,628,648,668,687,707,727,748,768,787,808,827,848,867,887,907,928,947,967,987,1008,1027,1048,1067,1087,1107,1127,1148,1168,1187,1207,1227,1248,1267,1287,1308,1328,1348,1367,1387,1407,1427],"xSR":741.5,"ySR":469.95,"xT1":424.9,"yT1":0,"xT2":1058.1,"yT2":0,"toosoon":0,"cond_shown":"equaldotanddens","ratio_trial":750,"smaller_num":"15","larger_num":"20","correct_side":2,"subjID":"Sofiacorrea26","gender":"1","age":"9","school":"4"},{"start_time":1552054919546,"click_time":1552054920685,"finger_time":1552054920424,"fix_duration":1278.0143502840178,"trial":51,"RT":878,"MT":261,"sideResp":1,"stimulus":"img/500/equaldotanddens/L/5_Ratio_500_L_4_R_2.png","xmouse":[786,786,786,786,786,786,786,786,786,786,786,786,786,786,786,786,786,786,786,786,786,786,786,786,786,786,786,786,786,786,786,786,786,786,786,786,786,786,786,785,780,770,759,743,699,673,640,603,563,554,546,537,528,521,519,519,519,519],"ymouse":[518,518,518,518,518,518,518,518,518,518,518,518,518,518,518,518,518,518,518,518,518,518,518,518,518,518,518,518,518,518,518,518,518,518,518,518,518,518,518,516,511,501,490,476,426,387,336,286,220,198,176,155,136,113,109,106,103,99],"timestamp_mouse":[1,19,38,59,78,99,119,139,158,178,198,218,239,259,279,299,318,338,358,379,398,418,439,458,480,499,518,539,559,578,599,618,639,659,678,699,719,738,758,778,799,818,838,859,878,898,918,938,958,978,999,1019,1039,1058,1078,1098,1118,1138],"xSR":741.5,"ySR":469.95,"xT1":424.9,"yT1":0,"xT2":1058.1,"yT2":0,"toosoon":0,"cond_shown":"equaldotanddens","ratio_trial":500,"smaller_num":"2","larger_num":"4","correct_side":1,"subjID":"Sofiacorrea26","gender":"1","age":"9","school":"4"},{"start_time":1552054922417,"click_time":1552054924125,"finger_time":1552054923485,"fix_duration":811.1786720005787,"trial":52,"RT":1068,"MT":640,"sideResp":2,"stimulus":"img/500/randomdotsizeEA/R/12_Ratio_500_L_1_R_2.png","xmouse":[767,767,767,767,767,767,767,767,767,767,767,767,767,767,767,767,767,767,767,767,767,767,767,767,767,767,767,767,767,767,767,767,767,767,767,767,767,767,767,767,767,767,767,767,767,767,767,767,767,767,777,790,813,855,983,1059,1125,1183,1226,1259,1302,1314,1320,1327,1337,1342,1345,1345,1344,1330,1324,1315,1303,1287,1269,1234,1228,1225,1222,1216,1186,1179,1175,1170,1166,1136],"ymouse":[515,515,515,515,515,515,515,515,515,515,515,515,515,515,515,515,515,515,515,515,515,515,515,515,515,515,515,515,515,515,515,515,515,515,515,515,515,515,515,515,515,515,515,515,515,515,515,515,515,515,515,514,509,497,435,400,366,335,308,284,242,227,215,204,180,167,156,144,133,108,102,99,98,92,87,72,69,68,68,68,68,68,67,67,66,66],"timestamp_mouse":[12,37,49,68,88,109,127,147,167,187,208,228,248,268,287,308,327,348,367,387,408,428,447,468,488,507,528,547,567,594,607,627,647,668,687,708,729,747,767,787,807,827,848,868,887,908,928,948,969,987,1007,1027,1047,1068,1088,1107,1128,1147,1168,1187,1208,1227,1248,1267,1288,1307,1328,1347,1367,1389,1407,1427,1447,1467,1487,1508,1527,1548,1569,1587,1607,1627,1648,1667,1688,1708],"xSR":741.5,"ySR":469.95,"xT1":424.9,"yT1":0,"xT2":1058.1,"yT2":0,"toosoon":0,"cond_shown":"randomdotsizeEA","ratio_trial":500,"smaller_num":"1","larger_num":"2","correct_side":2,"subjID":"Sofiacorrea26","gender":"1","age":"9","school":"4"},{"start_time":1552054925992,"click_time":1552054927204,"finger_time":1552054926804,"fix_duration":825.3051392157463,"trial":53,"RT":812,"MT":400,"sideResp":1,"stimulus":"img/750/randomdotsizeEA/R/4_Ratio_750_L_15_R_20.png","xmouse":[772,772,772,772,772,772,772,772,772,772,772,772,772,772,772,772,772,772,772,772,772,772,772,772,772,772,772,772,772,772,772,772,772,772,772,772,772,772,765,757,726,694,668,648,632,613,606,600,594,589,581,581,581,577,572,567,554,544,534,526,518],"ymouse":[534,534,534,534,534,534,534,534,534,534,534,534,534,534,534,534,534,534,534,534,534,534,534,534,534,534,534,534,534,534,534,534,534,534,534,534,534,534,527,515,479,451,428,408,391,364,353,342,333,324,298,264,239,208,175,145,100,84,73,65,61],"timestamp_mouse":[12,35,53,72,92,112,133,152,172,193,214,233,253,272,293,313,333,353,372,393,412,433,452,473,493,513,533,552,573,593,612,632,652,673,693,712,733,752,772,792,812,832,852,874,893,914,932,952,972,992,1013,1032,1052,1073,1092,1113,1132,1152,1172,1193,1212],"xSR":741.5,"ySR":469.95,"xT1":424.9,"yT1":0,"xT2":1058.1,"yT2":0,"toosoon":0,"cond_shown":"randomdotsizeEA","ratio_trial":750,"smaller_num":"15","larger_num":"20","correct_side":2,"subjID":"Sofiacorrea26","gender":"1","age":"9","school":"4"},{"start_time":1552054928442,"click_time":1552054929425,"finger_time":1552054929124,"fix_duration":296.36857582485163,"trial":54,"RT":682,"MT":301,"sideResp":2,"stimulus":"img/250/equaldotsize/R/11_Ratio_250_L_3_R_12.png","xmouse":[813,813,813,813,813,813,813,813,813,813,813,813,813,813,813,813,813,813,813,813,813,813,813,813,813,813,813,813,813,813,813,813,813,835,856,883,910,938,957,996,1001,1004,1004,1004,1004,1005,1012,1027,1055,1133],"ymouse":[499,499,499,499,499,499,499,499,499,499,499,499,499,499,499,499,499,499,499,499,499,499,499,499,499,499,499,499,499,499,499,499,499,488,475,458,439,421,409,375,364,354,348,338,332,323,307,281,231,79],"timestamp_mouse":[12,32,42,62,83,102,122,144,162,183,203,222,242,263,282,302,323,342,363,383,403,422,443,463,483,502,523,542,562,583,602,622,642,663,682,702,722,743,763,782,802,823,843,863,882,902,923,943,962,983],"xSR":741.5,"ySR":469.95,"xT1":424.9,"yT1":0,"xT2":1058.1,"yT2":0,"toosoon":0,"cond_shown":"equaldotsize","ratio_trial":250,"smaller_num":"3","larger_num":"12","correct_side":2,"subjID":"Sofiacorrea26","gender":"1","age":"9","school":"4"},{"start_time":1552054932493,"click_time":1552054933665,"finger_time":1552054933264,"fix_duration":1486.9586104998953,"trial":55,"RT":771,"MT":401,"sideResp":1,"stimulus":"img/900/randomdotsizeEA/L/2_Ratio_900_L_20_R_18.png","xmouse":[787,787,787,787,787,787,787,787,787,787,787,787,787,787,787,787,787,787,787,787,787,787,787,787,787,787,787,787,787,787,787,787,787,787,787,787,768,749,726,704,651,632,618,602,587,570,554,551,546,541,537,528,525,522,513,509,493,484,473],"ymouse":[539,539,539,539,539,539,539,539,539,539,539,539,539,539,539,539,539,539,539,539,539,539,539,539,539,539,539,539,539,539,539,539,539,539,539,539,532,521,505,484,422,395,372,352,334,310,281,270,254,239,224,194,185,174,156,149,122,101,78],"timestamp_mouse":[13,43,51,71,91,113,132,151,172,192,212,231,251,271,291,311,331,351,371,392,411,432,451,471,491,511,531,551,571,591,611,631,651,672,691,711,731,751,771,791,812,831,852,871,892,911,932,951,971,992,1012,1031,1051,1071,1091,1111,1131,1151,1172],"xSR":741.5,"ySR":469.95,"xT1":424.9,"yT1":0,"xT2":1058.1,"yT2":0,"toosoon":0,"cond_shown":"randomdotsizeEA","ratio_trial":900,"smaller_num":"18","larger_num":"20","correct_side":1,"subjID":"Sofiacorrea26","gender":"1","age":"9","school":"4"},{"start_time":1552054936843,"click_time":1552054937984,"finger_time":1552054937504,"fix_duration":875.120914129499,"trial":56,"RT":661,"MT":480,"sideResp":2,"stimulus":"img/750/randomdotsizeEA/L/1_Ratio_750_L_20_R_15.png","xmouse":[766,766,766,766,766,766,766,766,766,766,766,766,766,766,766,766,766,766,766,766,766,766,766,766,766,766,766,766,766,766,766,766,768,822,845,881,903,908,917,917,915,915,915,926,931,942,951,958,977,983,991,999,1004,1015,1028,1041,1055,1064],"ymouse":[510,510,510,510,510,510,510,510,510,510,510,510,510,510,510,510,510,510,510,510,510,510,510,510,510,510,510,510,510,510,510,509,504,450,421,367,323,304,232,216,203,197,194,181,175,168,162,159,150,147,143,136,132,123,111,97,85,78],"timestamp_mouse":[10,21,45,62,81,101,121,142,161,183,202,222,242,261,282,301,322,341,361,382,402,422,442,462,482,502,522,541,562,581,602,622,641,661,681,713,721,741,762,781,801,821,841,861,881,902,922,941,963,981,1002,1021,1041,1061,1081,1102,1122,1141],"xSR":741.5,"ySR":469.95,"xT1":424.9,"yT1":0,"xT2":1058.1,"yT2":0,"toosoon":0,"cond_shown":"randomdotsizeEA","ratio_trial":750,"smaller_num":"15","larger_num":"20","correct_side":1,"subjID":"Sofiacorrea26","gender":"1","age":"9","school":"4"},{"start_time":1552054939323,"click_time":1552054941985,"finger_time":1552054940184,"fix_duration":517.425742657179,"trial":57,"RT":861,"MT":1801,"sideResp":1,"stimulus":"img/750/randomdotsizeEA/R/11_Ratio_750_L_12_R_16.png","xmouse":[768,768,768,768,768,768,768,768,768,768,768,768,768,768,768,768,768,768,768,768,768,768,768,768,768,768,768,768,768,768,768,768,768,768,768,768,768,768,768,768,768,768,755,739,729,726,725,725,725,725,725,725,725,725,725,725,725,725,725,717,701,683,664,647,619,617,617,615,611,598,591,583,571,555,541,541,541,541,541,541,541,541,541,541,541,541,541,541,541,541,541,541,541,541,541,541,541,541,541,541,541,541,541,541,541,541,541,541,541,541,541,541,541,541,541,541,541,541,541,541,541,541,541,541,511,511,511,511,511,511,511,511,511,511],"ymouse":[531,531,531,531,531,531,531,531,531,531,531,531,531,531,531,531,531,531,531,531,531,531,531,531,531,531,531,531,531,531,531,531,531,531,531,531,531,531,531,531,531,531,531,531,530,529,528,528,528,528,528,528,528,528,528,528,528,528,526,478,452,430,410,394,372,370,369,366,359,320,276,211,139,65,13,13,13,13,13,13,13,13,13,13,13,13,13,13,13,13,13,13,13,13,13,13,13,13,13,13,13,13,13,13,13,13,13,13,13,13,13,13,13,13,13,13,13,13,13,13,13,13,13,13,0,0,0,0,0,0,0,0,0,1],"timestamp_mouse":[11,36,42,63,81,102,121,141,161,181,202,222,241,261,282,301,321,342,361,381,403,422,441,462,481,503,522,541,562,581,602,622,642,662,681,701,722,742,761,781,802,822,841,861,882,901,921,941,961,982,1001,1021,1041,1063,1082,1101,1122,1142,1161,1181,1201,1222,1242,1261,1283,1301,1322,1341,1361,1382,1401,1421,1441,1461,1482,1501,1521,1542,1562,1582,1602,1621,1641,1662,1681,1702,1722,1741,1761,1781,1802,1821,1841,1862,1881,1902,1921,1941,1961,1982,2001,2021,2042,2061,2081,2101,2122,2141,2161,2182,2201,2222,2242,2262,2281,2301,2322,2342,2362,2383,2401,2422,2441,2461,2482,2502,2521,2542,2562,2582,2602,2622,2642,2662],"xSR":741.5,"ySR":469.95,"xT1":424.9,"yT1":0,"xT2":1058.1,"yT2":0,"toosoon":0,"cond_shown":"randomdotsizeEA","ratio_trial":750,"smaller_num":"12","larger_num":"16","correct_side":2,"subjID":"Sofiacorrea26","gender":"1","age":"9","school":"4"},{"start_time":1552054946007,"click_time":1552054947324,"finger_time":1552054946983,"fix_duration":681.2276660287272,"trial":58,"RT":976,"MT":341,"sideResp":2,"stimulus":"img/900/equaldotsize/L/8_Ratio_900_L_20_R_18.png","xmouse":[799,799,799,799,799,799,799,799,799,799,799,799,799,799,799,799,799,799,799,799,799,799,799,799,799,799,799,799,799,799,799,799,799,799,799,799,799,799,799,799,799,799,799,799,799,799,799,820,863,940,974,999,1010,1016,1017,1016,1014,1013,1013,1027,1039,1045,1048,1051,1058,1063],"ymouse":[518,518,518,518,518,518,518,518,518,518,518,518,518,518,518,518,518,518,518,518,518,518,518,518,518,518,518,518,518,518,518,518,518,518,518,518,518,518,518,518,518,518,518,518,518,518,518,503,466,392,352,314,288,267,241,235,229,218,203,165,144,131,122,114,102,98],"timestamp_mouse":[18,37,58,77,98,117,138,158,178,196,218,237,257,278,297,317,337,358,377,397,418,438,458,477,498,517,538,558,578,598,618,637,658,676,697,717,739,757,777,798,817,838,858,878,897,918,937,957,976,998,1016,1037,1057,1077,1098,1117,1138,1157,1178,1198,1217,1237,1257,1277,1297,1316],"xSR":741.5,"ySR":469.95,"xT1":424.9,"yT1":0,"xT2":1058.1,"yT2":0,"toosoon":0,"cond_shown":"equaldotsize","ratio_trial":900,"smaller_num":"18","larger_num":"20","correct_side":1,"subjID":"Sofiacorrea26","gender":"1","age":"9","school":"4"},{"start_time":1552054949346,"click_time":1552054950984,"finger_time":1552054950505,"fix_duration":1121.7457405340192,"trial":59,"RT":1159,"MT":479,"sideResp":2,"stimulus":"img/500/equaldotanddens/R/15_Ratio_500_L_1_R_2.png","xmouse":[804,804,804,804,804,804,804,804,804,804,804,804,804,804,804,804,804,804,804,804,804,804,804,804,804,804,804,804,804,804,804,804,804,804,804,804,804,804,804,804,804,804,804,804,804,804,804,804,804,804,804,804,804,804,804,809,822,950,1033,1095,1126,1141,1172,1183,1191,1196,1200,1204,1205,1205,1205,1205,1205,1205,1201,1190,1176,1148,1133,1123,1111,1086],"ymouse":[555,555,555,555,555,555,555,555,555,555,555,555,555,555,555,555,555,555,555,555,555,555,555,555,555,555,555,555,555,555,555,555,555,555,555,555,555,555,555,555,555,555,555,555,555,555,555,555,555,555,555,555,555,555,555,552,543,470,424,383,352,332,289,275,263,256,250,244,244,244,244,244,244,244,240,233,220,177,149,126,102,70],"timestamp_mouse":[18,38,59,77,98,118,138,158,178,198,219,238,258,278,299,318,339,358,379,398,418,439,459,478,499,519,539,557,579,599,619,639,658,679,698,718,738,758,778,799,818,839,858,879,898,919,938,958,977,998,1019,1039,1058,1079,1098,1118,1138,1159,1178,1198,1218,1237,1259,1278,1298,1318,1338,1359,1378,1399,1418,1438,1459,1479,1498,1519,1538,1558,1577,1598,1619,1638],"xSR":741.5,"ySR":469.95,"xT1":424.9,"yT1":0,"xT2":1058.1,"yT2":0,"toosoon":0,"cond_shown":"equaldotanddens","ratio_trial":500,"smaller_num":"1","larger_num":"2","correct_side":2,"subjID":"Sofiacorrea26","gender":"1","age":"9","school":"4"},{"start_time":1552054953364,"click_time":1552054954465,"finger_time":1552054954104,"fix_duration":558.3559119624438,"trial":60,"RT":740,"MT":361,"sideResp":2,"stimulus":"img/500/equaldotsize/R/12_Ratio_500_L_1_R_2.png","xmouse":[757,757,757,757,757,757,757,757,757,757,757,757,757,757,757,757,757,757,757,757,757,757,757,757,757,757,757,757,757,757,757,757,757,757,757,757,757,789,806,825,846,866,910,936,947,953,957,966,973,982,991,998,1003,1039,1064,1084],"ymouse":[522,522,522,522,522,522,522,522,522,522,522,522,522,522,522,522,522,522,522,522,522,522,522,522,522,522,522,522,522,522,522,522,522,522,522,522,522,463,432,404,374,345,286,246,228,219,211,204,201,198,193,191,188,154,120,94],"timestamp_mouse":[10,20,40,60,81,99,120,140,161,181,200,219,241,260,280,300,321,340,360,380,401,421,440,461,481,500,521,541,561,581,600,621,641,661,681,700,720,740,760,780,800,820,841,860,880,900,920,941,960,980,1000,1020,1040,1061,1080,1100],"xSR":741.5,"ySR":469.95,"xT1":424.9,"yT1":0,"xT2":1058.1,"yT2":0,"toosoon":0,"cond_shown":"equaldotsize","ratio_trial":500,"smaller_num":"1","larger_num":"2","correct_side":2,"subjID":"Sofiacorrea26","gender":"1","age":"9","school":"4"},{"start_time":1552054961055,"click_time":1552054962485,"finger_time":1552054962024,"fix_duration":250,"trial":61,"RT":969,"MT":461,"sideResp":2,"stimulus":"img/500/equaldotsize/R/9_Ratio_500_L_2_R_4.png","xmouse":[764,764,764,764,764,764,764,764,764,764,764,764,764,764,764,764,764,764,764,764,764,764,764,764,764,764,764,764,764,764,764,764,764,764,764,764,764,764,764,764,764,764,764,764,764,764,767,812,889,941,1010,1093,1176,1311,1339,1352,1352,1352,1352,1352,1352,1352,1352,1352,1352,1255,1237,1195,1182,1173,1164,1155],"ymouse":[521,521,521,521,521,521,521,521,521,521,521,521,521,521,521,521,521,521,521,521,521,521,521,521,521,521,521,521,521,521,521,521,521,521,521,521,521,521,521,521,521,521,521,521,521,521,517,489,437,386,334,267,196,68,31,0,0,0,0,0,0,0,0,0,0,3,10,33,38,43,49,52],"timestamp_mouse":[15,29,49,70,90,109,129,149,169,189,209,230,250,270,289,309,329,349,370,388,409,429,450,470,490,509,530,549,570,590,609,629,650,670,690,709,729,750,769,790,810,829,850,870,890,910,929,949,969,989,1009,1029,1050,1069,1089,1109,1130,1150,1170,1190,1209,1229,1250,1269,1290,1310,1329,1350,1369,1389,1410,1430],"xSR":741.5,"ySR":469.95,"xT1":424.9,"yT1":0,"xT2":1058.1,"yT2":0,"toosoon":0,"cond_shown":"equaldotsize","ratio_trial":500,"smaller_num":"2","larger_num":"4","correct_side":2,"subjID":"Sofiacorrea26","gender":"1","age":"9","school":"4"},{"start_time":1552054965443,"click_time":1552054966545,"finger_time":1552054966243,"fix_duration":456.81931554334443,"trial":62,"RT":800,"MT":302,"sideResp":2,"stimulus":"img/500/equaldotanddens/R/14_Ratio_500_L_5_R_10.png","xmouse":[798,798,798,798,798,798,798,798,798,798,798,798,798,798,798,798,798,798,798,798,798,798,798,798,798,798,798,798,798,798,798,798,798,798,798,798,798,798,798,818,854,894,953,1056,1084,1093,1094,1093,1091,1086,1086,1086,1094,1117,1124,1126],"ymouse":[539,539,539,539,539,539,539,539,539,539,539,539,539,539,539,539,539,539,539,539,539,539,539,539,539,539,539,539,539,539,539,539,539,539,539,539,539,539,539,530,508,482,448,365,331,311,297,286,279,257,247,233,207,143,106,81],"timestamp_mouse":[10,21,45,61,81,102,122,140,161,182,201,221,242,261,282,301,322,342,361,381,402,422,441,461,482,500,521,541,562,581,601,622,642,661,682,702,721,741,761,782,800,820,841,862,881,902,921,941,961,981,1001,1022,1041,1062,1081,1101],"xSR":741.5,"ySR":469.95,"xT1":424.9,"yT1":0,"xT2":1058.1,"yT2":0,"toosoon":0,"cond_shown":"eq