[{"start_time":1552054117594,"click_time":1552054133518,"finger_time":1552054117605,"fix_duration":250,"trial":0,"RT":11,"MT":15913,"sideResp":2,"stimulus":[],"xmouse":[792,792,792,792,792,792,792,792,788,781,756,734,716,699,699,703,710,713,719,720,720,714,707,692,684,673,662,649,639,623,614,613,611,605,603,602,602,602,602,602,608,619,631,667,696,736,782,818,849,864,873,877,880,880,886,889,890,890,890,890,890,890,890,890,890,890,890,890,890,890,890,890,890,890,887,882,872,858,832,833,829,827,827,827,826,824,824,824,824,823,821,820,816,810,806,802,801,800,799,799,799,798,796,791,790,789,788,788,788,788,788,788,788,788,788,788,788,788,788,788,788,788,788,788,788,788,788,788,788,788,788,788,788,788,788,788,788,788,788,788,788,788,788,788,788,788,788,788,788,788,788,788,788,788,788,788,788,788,788,788,788,788,788,788,788,788,788,788,788,788,788,788,788,788,788,788,788,788,788,788,788,788,788,788,788,788,788,788,788,788,788,788,788,788,788,788,788,788,788,788,788,788,788,788,788,788,788,788,788,788,788,788,788,788,788,788,788,788,788,788,788,788,788,788,788,788,788,788,788,788,788,788,788,788,788,788,788,788,788,788,788,788,788,788,788,788,788,788,788,788,788,788,788,788,788,788,788,788,788,788,788,788,788,788,788,788,788,788,788,788,788,788,788,788,788,788,788,788,788,788,788,788,788,788,788,788,788,788,788,788,788,788,788,788,788,788,788,788,788,788,788,788,788,788,788,788,788,788,788,788,788,788,788,788,788,788,788,788,788,788,788,788,788,788,788,788,788,788,788,788,788,788,788,788,788,788,788,788,788,788,788,788,788,788,788,788,788,788,788,788,788,788,788,788,788,788,788,788,788,788,788,788,788,788,788,788,788,788,788,788,789,791,804,808,808,808,808,808,808,808,808,808,808,808,808,808,808,808,808,808,808,808,808,808,808,808,808,808,808,808,808,808,808,808,808,808,808,808,808,808,808,808,808,808,808,808,808,808,808,808,808,808,808,808,808,808,808,808,808,808,808,808,808,808,808,808,808,808,808,808,808,808,808,808,808,808,808,808,808,808,808,808,808,808,808,808,808,808,808,808,808,808,808,808,808,808,808,808,808,808,808,808,808,808,808,808,808,808,808,808,808,808,808,808,808,808,808,808,808,808,808,808,808,808,808,808,808,808,808,808,808,808,808,808,808,808,808,808,808,808,808,808,808,808,808,808,808,808,808,808,808,808,808,808,808,808,808,808,808,808,808,808,808,808,808,808,808,808,808,808,808,808,808,808,808,808,808,808,808,808,808,808,808,808,808,808,808,808,808,808,808,808,808,808,808,808,808,808,808,808,808,808,808,808,808,808,808,808,808,808,808,808,808,808,808,808,808,808,808,808,808,808,808,808,808,808,797,767,729,729,732,733,733,722,718,714,712,708,706,703,703,703,703,703,703,703,703,706,711,728,739,740,743,743,743,745,747,749,751,751,751,753,755,756,756,757,757,757,758,758,758,758,758,758,758,758,758,758,758,758,758,759,761,767,782,783,783,783,783,783,783,783,783,783,783,783,783,783,783,783,783,783,783,783,783,783,782,782,782,782,782,782,782,782,782,782,782,782,782,782,782,782,782,782,782,782,782,782,782,782,782,782,782,782,782,782,782,782,782,782,782,782,782,782,782,782,782,782,782,782,782,782,782,782,782,782,782,782,782,782,782,782,782,782,779,773,772,772,772,772,772,772,772,772,772,772,772,772,772,772,772,772,772,772,772,772,772,772,772,772,772,772,772,772,772,772,772,772,772,775,780,808,846,941,955,964,970,979,992,1013,1030,1041,1057,1071,1098,1103,1103,1103,1103,1102,1100,1100,1099,1098,1098,1098,1098],"ymouse":[364,364,364,364,364,363,363,363,363,363,363,366,377,401,411,423,431,433,432,423,411,400,387,344,317,279,238,194,161,124,114,112,112,116,121,126,128,132,147,156,179,197,214,244,260,278,298,316,339,367,393,405,434,450,478,483,486,486,486,486,486,486,487,487,487,488,488,489,489,489,489,489,489,489,489,489,491,499,514,517,519,520,520,520,520,520,520,520,520,520,520,520,520,520,520,520,520,521,521,521,521,521,521,521,522,522,522,522,522,522,522,522,522,522,522,522,522,522,522,522,522,522,522,522,522,522,522,522,522,522,522,522,522,522,522,522,522,522,522,522,522,522,522,522,522,522,522,522,522,522,522,522,522,522,522,522,522,522,522,522,522,522,522,522,522,522,522,522,522,522,522,522,522,522,522,522,522,522,522,522,522,522,522,522,522,522,522,522,522,522,522,522,522,522,522,522,522,522,522,522,522,522,522,522,522,522,522,522,522,522,522,522,522,522,522,522,522,522,522,522,522,522,522,522,522,522,522,522,522,522,522,522,522,522,522,522,522,522,522,522,522,522,522,522,522,522,522,522,522,522,522,522,522,522,522,522,522,522,522,522,522,522,522,522,522,522,522,522,522,522,522,522,522,522,522,522,522,522,522,522,522,522,522,522,522,522,522,522,522,522,522,522,522,522,522,522,522,522,522,522,522,522,522,522,522,522,522,522,522,522,522,522,522,522,522,522,522,522,522,522,522,522,522,522,522,522,522,522,522,522,522,522,522,522,522,522,522,522,522,522,522,522,522,522,522,522,522,522,522,522,522,522,522,522,522,522,522,522,522,522,522,522,522,522,522,522,522,522,522,522,522,522,522,522,522,522,522,522,522,522,522,522,522,522,522,522,522,522,522,522,522,522,522,522,522,522,522,522,522,522,522,522,522,522,522,522,522,522,522,522,522,522,522,522,522,522,522,522,522,522,522,522,522,522,522,522,522,522,522,522,522,522,522,522,522,522,522,522,522,522,522,522,522,522,522,522,522,522,522,522,522,522,522,522,522,522,522,522,522,522,522,522,522,522,522,522,522,522,522,522,522,522,522,522,522,522,522,522,522,522,522,522,522,522,522,522,522,522,522,522,522,522,522,522,522,522,522,522,522,522,522,522,522,522,522,522,522,522,522,522,522,522,522,522,522,522,522,522,522,522,522,522,522,522,522,522,522,522,522,522,522,522,522,522,522,522,522,522,522,522,522,522,522,522,522,522,522,522,522,522,522,522,522,522,522,522,522,522,522,522,522,522,522,522,522,522,522,522,522,522,522,522,522,522,522,522,522,522,522,522,522,522,522,522,522,522,522,522,522,522,522,522,522,522,522,515,501,472,448,448,449,451,453,457,460,463,468,473,479,487,489,492,492,492,492,492,493,495,496,507,514,516,518,520,521,525,529,533,535,535,535,537,537,537,537,537,537,537,537,537,537,537,537,537,537,537,537,537,537,537,537,537,537,537,536,536,536,536,536,536,536,536,536,536,536,536,536,536,536,536,536,536,536,536,536,536,535,534,534,534,534,534,534,534,534,534,534,534,534,534,534,534,534,534,534,534,534,534,534,534,534,534,534,534,534,534,534,534,534,534,534,534,534,534,534,534,534,534,534,534,534,534,534,534,534,537,540,541,542,542,542,542,542,542,543,543,543,543,543,543,543,543,543,543,543,543,543,543,543,543,543,543,543,543,543,543,543,543,543,543,543,543,543,543,543,543,543,543,543,543,543,511,461,339,310,290,276,262,249,227,208,195,181,169,147,144,144,144,144,144,144,144,144,139,133,118,99],"timestamp_mouse":[11,23,43,65,84,104,123,143,165,183,204,224,243,264,283,303,323,343,365,383,403,423,443,465,483,503,523,543,563,584,604,624,644,664,683,703,724,744,765,783,804,824,843,864,883,903,923,943,964,983,1003,1024,1044,1063,1083,1103,1124,1144,1164,1184,1204,1224,1243,1263,1283,1304,1323,1344,1364,1384,1403,1423,1443,1464,1483,1503,1523,1544,1565,1583,1603,1623,1644,1664,1684,1703,1723,1743,1764,1783,1804,1823,1843,1864,1884,1904,1924,1944,1965,1984,2004,2024,2043,2064,2084,2104,2123,2143,2164,2184,2203,2224,2243,2264,2283,2303,2323,2343,2364,2383,2404,2423,2444,2465,2484,2504,2523,2544,2564,2584,2604,2624,2644,2664,2684,2703,2724,2743,2763,2783,2803,2823,2844,2864,2884,2903,2924,2944,2963,2984,3003,3024,3043,3064,3084,3104,3123,3144,3164,3183,3203,3224,3243,3263,3283,3304,3324,3344,3365,3384,3404,3424,3444,3464,3484,3504,3524,3543,3564,3584,3604,3624,3644,3664,3683,3704,3723,3743,3764,3784,3804,3823,3843,3863,3884,3903,3924,3944,3963,3983,4004,4024,4044,4064,4083,4103,4124,4143,4164,4184,4203,4223,4244,4263,4284,4304,4324,4344,4363,4384,4403,4424,4444,4463,4484,4504,4524,4543,4564,4583,4604,4624,4643,4664,4684,4703,4724,4744,4764,4784,4805,4824,4844,4864,4883,4903,4924,4944,4964,4983,5004,5024,5044,5063,5084,5104,5123,5143,5164,5184,5203,5223,5244,5264,5283,5303,5324,5344,5363,5384,5404,5424,5444,5464,5483,5503,5523,5544,5563,5583,5604,5623,5643,5663,5684,5703,5723,5744,5763,5784,5804,5824,5844,5863,5884,5903,5923,5944,5964,5983,6004,6023,6043,6063,6083,6103,6123,6144,6163,6183,6203,6224,6244,6263,6284,6304,6323,6343,6364,6384,6404,6424,6444,6464,6483,6504,6524,6543,6563,6584,6604,6624,6643,6663,6683,6703,6724,6744,6763,6783,6803,6823,6844,6864,6884,6903,6924,6944,6964,6983,7004,7024,7043,7063,7084,7103,7124,7144,7163,7183,7204,7224,7243,7263,7283,7303,7324,7344,7363,7384,7403,7424,7443,7464,7484,7503,7523,7543,7564,7584,7604,7624,7644,7663,7684,7704,7723,7744,7763,7784,7803,7823,7843,7864,7884,7903,7924,7944,7964,7983,8004,8023,8043,8064,8084,8104,8124,8143,8164,8185,8204,8224,8244,8264,8285,8303,8324,8343,8363,8384,8404,8423,8443,8463,8484,8504,8523,8543,8563,8584,8604,8624,8644,8664,8684,8704,8724,8744,8763,8784,8803,8823,8843,8864,8883,8904,8924,8944,8963,8984,9003,9024,9044,9064,9084,9104,9123,9143,9164,9184,9204,9224,9244,9264,9284,9304,9324,9344,9364,9384,9404,9423,9443,9464,9484,9503,9524,9543,9564,9584,9604,9624,9643,9663,9684,9704,9723,9744,9763,9783,9804,9823,9843,9864,9883,9904,9923,9944,9964,9984,10004,10024,10043,10063,10084,10104,10124,10144,10164,10184,10204,10224,10244,10263,10283,10304,10324,10344,10363,10384,10404,10424,10443,10464,10483,10505,10524,10543,10563,10584,10604,10624,10644,10663,10684,10704,10723,10744,10763,10784,10803,10825,10844,10864,10883,10903,10924,10944,10963,10983,11004,11024,11043,11063,11083,11104,11124,11144,11163,11184,11204,11223,11244,11263,11283,11304,11323,11344,11363,11384,11403,11423,11443,11464,11484,11503,11523,11544,11564,11584,11603,11624,11644,11663,11683,11704,11724,11744,11763,11784,11804,11823,11843,11864,11883,11903,11924,11943,11963,11984,12004,12023,12043,12065,12083,12104,12123,12143,12163,12183,12204,12223,12244,12264,12283,12303,12324,12344,12363,12383,12403,12424,12444,12464,12483,12503,12523,12544,12564,12584,12603,12623,12644,12664,12684,12703,12724,12743,12764,12784,12804,12823,12844,12865,12884,12903,12924,12943,12964,12984,13004,13024,13043,13063,13083,13103,13123,13143,13163,13184,13203,13224,13244,13264,13284,13303,13324,13344,13364,13384,13404,13424,13443,13463,13484,13504,13523,13544,13564,13583,13604,13624,13643,13664,13684,13705,13724,13743,13763,13784,13804,13824,13843,13864,13884,13903,13923,13943,13964,13984,14004,14023,14043,14064,14083,14104,14123,14144,14163,14184,14203,14223,14244,14263,14284,14304,14324,14344,14364,14384,14404,14423,14444,14463,14484,14504,14524,14544,14564,14584,14604,14624,14644,14664,14683,14703,14723,14744,14763,14784,14804,14824,14843,14863,14884,14904,14924,14943,14964,14984,15003,15024,15044,15064,15083,15104,15124,15144,15164,15184,15204,15223,15244,15264,15284,15304,15323,15343,15364,15383,15404,15424,15444,15464,15483,15503,15523,15544,15563,15583,15603,15623,15643,15663,15683,15703,15724,15744,15764,15783,15803,15824,15844,15864,15883,15903,15923],"xSR":741.5,"ySR":501.8,"xT1":424.9,"yT1":0,"xT2":1058.1,"yT2":0,"toosoon":0,"cond_shown":"Congruent","ratio_trial":300,"L_num":5,"L_den":25,"R_num":6,"R_den":12,"correct_side":2,"subjID":"sofiacorrea26","gender":"1","age":"9","school":"4","test":{"fix_dur":[250,1500],"timestim":1000,"targets_dim":[100,100],"targets_relative_coord":[0.3,0.7],"size_stim":[880,420],"start_dim":[100,100],"size_start":[300,300],"size_fix":60,"samplingrate":20,"img_types":["Congruent","Incongruent"],"ratios":[100,200,300],"rep_conds":19,"nTrials":120,"trials_to_rest":500,"Trials_order":[22,93,54,109,106,31,101,81,70,114,94,59,11,78,34,64,18,7,84,15,61,117,6,12,14,51,52,74,44,5,58,113,82,104,76,29,91,0,50,8,112,4,118,65,83,100,33,35,40,3,43,60,16,46,90,21,30,69,10,42,63,88,92,67,77,79,26,27,45,17,103,2,86,38,39,62,75,20,96,98,99,95,115,72,19,53,87,66,108,102,73,116,32,47,48,9,105,110,36,55,28,97,23,119,68,25,13,37,80,56,24,111,1,107,85,41,89,57,71,49],"cond_shown":["Congruent","Incongruent","Congruent","Incongruent","Congruent","Incongruent","Incongruent","Incongruent","Congruent","Congruent","Congruent","Incongruent","Incongruent","Congruent","Congruent","Congruent","Congruent","Incongruent","Congruent","Incongruent","Incongruent","Incongruent","Congruent","Congruent","Congruent","Incongruent","Congruent","Congruent","Congruent","Incongruent","Congruent","Incongruent","Congruent","Congruent","Congruent","Incongruent","Incongruent","Congruent","Congruent","Congruent","Congruent","Congruent","Congruent","Incongruent","Incongruent","Congruent","Incongruent","Incongruent","Congruent","Incongruent","Incongruent","Congruent","Congruent","Congruent","Congruent","Incongruent","Congruent","Incongruent","Congruent","Congruent","Incongruent","Congruent","Congruent","Incongruent","Incongruent","Incongruent","Congruent","Incongruent","Incongruent","Incongruent","Incongruent","Congruent","Congruent","Congruent","Incongruent","Congruent","Incongruent","Congruent","Congruent","Congruent","Incongruent","Incongruent","Incongruent","Congruent","Incongruent","Incongruent","Incongruent","Congruent","Congruent","Congruent","Incongruent","Congruent","Congruent","Incongruent","Congruent","Incongruent","Incongruent","Congruent","Congruent","Incongruent","Congruent","Incongruent","Incongruent","Incongruent","Congruent","Incongruent","Incongruent","Incongruent","Congruent","Congruent","Congruent","Incongruent","Incongruent","Incongruent","Incongruent","Incongruent","Incongruent","Incongruent","Incongruent","Incongruent"],"ratio_trial":[300,200,100,100,300,100,300,200,300,100,300,300,300,100,300,300,100,100,100,200,100,200,100,100,200,200,300,200,200,300,300,300,300,200,300,300,100,100,200,200,300,300,300,300,300,300,200,300,300,200,100,100,300,300,100,200,100,200,300,100,200,300,200,100,300,100,200,200,200,300,100,200,200,200,200,200,200,200,100,200,200,300,100,100,100,300,200,100,100,100,100,200,200,300,100,200,200,200,100,100,300,100,300,300,200,100,100,100,200,200,100,200,100,300,100,300,300,200,300,100],"left_num":[5,14,7,2,12,3,8,6,20,4,8,13,4,3,8,2,11,11,2,11,3,14,1,11,1,3,3,6,12,4,7,4,3,7,1,4,3,7,20,6,5,4,3,4,4,1,3,1,7,1,17,11,3,3,4,1,3,6,4,1,7,7,7,1,13,8,7,7,7,8,6,4,4,16,7,7,7,4,7,13,7,4,12,2,11,7,9,15,2,4,9,3,7,7,6,1,4,7,10,9,12,8,4,1,3,9,12,10,7,6,8,4,8,4,13,13,4,3,13,6],"right_num":[6,12,15,6,2,8,9,3,9,6,10,12,2,2,1,10,4,9,6,3,11,12,18,4,21,1,2,7,6,8,20,6,4,2,7,2,11,9,9,7,6,2,4,6,2,19,1,2,20,2,10,4,2,11,6,2,2,3,2,18,12,20,18,8,12,6,2,6,14,14,3,3,3,9,6,18,6,3,15,14,8,2,9,11,9,8,8,13,11,6,20,9,18,8,15,3,14,18,3,6,2,1,6,3,7,13,9,9,2,7,2,1,6,2,6,12,2,1,12,3],"left_den":[25,30,14,4,24,5,10,20,25,8,15,26,20,6,16,20,22,22,5,20,5,30,2,22,2,10,6,12,20,5,14,5,6,21,20,20,5,14,25,12,25,5,6,5,20,3,10,2,14,3,30,22,6,12,8,3,6,20,5,2,10,14,15,2,26,16,21,15,10,10,12,8,8,30,15,15,15,8,14,26,10,20,24,5,22,10,15,25,5,8,10,12,15,10,12,2,6,15,25,18,24,20,5,2,10,15,24,25,21,12,16,30,16,20,26,26,20,10,26,12],"right_den":[12,18,25,15,10,16,18,6,18,10,12,15,4,5,5,25,10,15,12,4,22,18,30,10,30,2,10,10,15,16,25,12,5,15,20,4,22,15,15,10,12,4,5,12,4,30,2,10,25,15,15,10,10,20,10,15,5,6,4,30,24,25,27,20,15,10,15,9,28,28,5,10,10,27,9,27,9,10,25,20,16,4,15,22,15,20,10,26,22,10,25,20,27,20,25,10,30,27,10,10,10,2,12,15,14,26,15,18,15,10,5,3,10,4,10,15,4,2,15,5],"correct_side":[2,2,2,1,1,1,1,2,1,2,2,2,2,1,1,2,1,2,2,2,1,2,2,1,2,2,1,2,1,1,2,1,2,1,2,2,1,2,1,2,2,1,2,1,2,2,2,1,2,1,2,1,1,2,2,1,1,2,1,2,1,2,2,1,2,2,1,2,1,1,2,1,1,1,2,2,2,1,2,2,1,2,2,2,2,1,2,1,2,2,1,2,2,1,2,1,1,2,1,2,1,2,1,1,2,1,2,2,1,2,1,2,2,2,2,2,2,2,2,2],"img_shown":["img2/300/Congruent/R/C_Dist_300_LN_5_LD_25_RN_6_RD_12_1.png","img2/200/Incongruent/R/I_Dist_200_LN_14_LD_30_RN_12_RD_18_1.png","img2/100/Congruent/R/C_Dist_100_LN_7_LD_14_RN_15_RD_25_1.png","img2/100/Incongruent/L/I_Dist_100_LN_2_LD_4_RN_6_RD_15_0.png","img2/300/Congruent/L/C_Dist_300_LN_12_LD_24_RN_2_RD_10_0.png","img2/100/Incongruent/L/I_Dist_100_LN_3_LD_5_RN_8_RD_16_0.png","img2/300/Incongruent/L/I_Dist_300_LN_8_LD_10_RN_9_RD_18_0.png","img2/200/Incongruent/R/I_Dist_200_LN_6_LD_20_RN_3_RD_6_1.png","img2/300/Congruent/L/C_Dist_300_LN_20_LD_25_RN_9_RD_18_0.png","img2/100/Congruent/R/C_Dist_100_LN_4_LD_8_RN_6_RD_10_1.png","img2/300/Congruent/R/C_Dist_300_LN_8_LD_15_RN_10_RD_12_1.png","img2/300/Incongruent/R/I_Dist_300_LN_13_LD_26_RN_12_RD_15_1.png","img2/300/Incongruent/R/I_Dist_300_LN_4_LD_20_RN_2_RD_4_1.png","img2/100/Congruent/L/C_Dist_100_LN_3_LD_6_RN_2_RD_5_0.png","img2/300/Congruent/L/C_Dist_300_LN_8_LD_16_RN_1_RD_5_0.png","img2/300/Congruent/R/C_Dist_300_LN_2_LD_20_RN_10_RD_25_1.png","img2/100/Congruent/L/C_Dist_100_LN_11_LD_22_RN_4_RD_10_0.png","img2/100/Incongruent/R/I_Dist_100_LN_11_LD_22_RN_9_RD_15_1.png","img2/100/Congruent/R/C_Dist_100_LN_2_LD_5_RN_6_RD_12_1.png","img2/200/Incongruent/R/I_Dist_200_LN_11_LD_20_RN_3_RD_4_1.png","img2/100/Incongruent/L/I_Dist_100_LN_3_LD_5_RN_11_RD_22_0.png","img2/200/Incongruent/R/I_Dist_200_LN_14_LD_30_RN_12_RD_18_1.png","img2/100/Congruent/R/C_Dist_100_LN_1_LD_2_RN_18_RD_30_1.png","img2/100/Congruent/L/C_Dist_100_LN_11_LD_22_RN_4_RD_10_0.png","img2/200/Congruent/R/C_Dist_200_LN_1_LD_2_RN_21_RD_30_1.png","img2/200/Incongruent/R/I_Dist_200_LN_3_LD_10_RN_1_RD_2_1.png","img2/300/Congruent/L/C_Dist_300_LN_3_LD_6_RN_2_RD_10_0.png","img2/200/Congruent/R/C_Dist_200_LN_6_LD_12_RN_7_RD_10_1.png","img2/200/Congruent/L/C_Dist_200_LN_12_LD_20_RN_6_RD_15_0.png","img2/300/Incongruent/L/I_Dist_300_LN_4_LD_5_RN_8_RD_16_0.png","img2/300/Congruent/R/C_Dist_300_LN_7_LD_14_RN_20_RD_25_1.png","img2/300/Incongruent/L/I_Dist_300_LN_4_LD_5_RN_6_RD_12_0.png","img2/300/Congruent/R/C_Dist_300_LN_3_LD_6_RN_4_RD_5_1.png","img2/200/Congruent/L/C_Dist_200_LN_7_LD_21_RN_2_RD_15_0.png","img2/300/Congruent/R/C_Dist_300_LN_1_LD_20_RN_7_RD_20_1.png","img2/300/Incongruent/R/I_Dist_300_LN_4_LD_20_RN_2_RD_4_1.png","img2/100/Incongruent/L/I_Dist_100_LN_3_LD_5_RN_11_RD_22_0.png","img2/100/Congruent/R/C_Dist_100_LN_7_LD_14_RN_9_RD_15_1.png","img2/200/Congruent/L/C_Dist_200_LN_20_LD_25_RN_9_RD_15_0.png","img2/200/Congruent/R/C_Dist_200_LN_6_LD_12_RN_7_RD_10_1.png","img2/300/Congruent/R/C_Dist_300_LN_5_LD_25_RN_6_RD_12_1.png","img2/300/Congruent/L/C_Dist_300_LN_4_LD_5_RN_2_RD_4_0.png","img2/300/Congruent/R/C_Dist_300_LN_3_LD_6_RN_4_RD_5_1.png","img2/300/Incongruent/L/I_Dist_300_LN_4_LD_5_RN_6_RD_12_0.png","img2/300/Incongruent/R/I_Dist_300_LN_4_LD_20_RN_2_RD_4_1.png","img2/300/Congruent/R/C_Dist_300_LN_1_LD_3_RN_19_RD_30_1.png","img2/200/Incongruent/R/I_Dist_200_LN_3_LD_10_RN_1_RD_2_1.png","img2/300/Incongruent/L/I_Dist_300_LN_1_LD_2_RN_2_RD_10_0.png","img2/300/Congruent/R/C_Dist_300_LN_7_LD_14_RN_20_RD_25_1.png","img2/200/Incongruent/L/I_Dist_200_LN_1_LD_3_RN_2_RD_15_0.png","img2/100/Incongruent/R/I_Dist_100_LN_17_LD_30_RN_10_RD_15_1.png","img2/100/Congruent/L/C_Dist_100_LN_11_LD_22_RN_4_RD_10_0.png","img2/300/Congruent/L/C_Dist_300_LN_3_LD_6_RN_2_RD_10_0.png","img2/300/Congruent/R/C_Dist_300_LN_3_LD_12_RN_11_RD_20_1.png","img2/100/Congruent/R/C_Dist_100_LN_4_LD_8_RN_6_RD_10_1.png","img2/200/Incongruent/L/I_Dist_200_LN_1_LD_3_RN_2_RD_15_0.png","img2/100/Congruent/L/C_Dist_100_LN_3_LD_6_RN_2_RD_5_0.png","img2/200/Incongruent/R/I_Dist_200_LN_6_LD_20_RN_3_RD_6_1.png","img2/300/Congruent/L/C_Dist_300_LN_4_LD_5_RN_2_RD_4_0.png","img2/100/Congruent/R/C_Dist_100_LN_1_LD_2_RN_18_RD_30_1.png","img2/200/Incongruent/L/I_Dist_200_LN_7_LD_10_RN_12_RD_24_0.png","img2/300/Congruent/R/C_Dist_300_LN_7_LD_14_RN_20_RD_25_1.png","img2/200/Congruent/R/C_Dist_200_LN_7_LD_15_RN_18_RD_27_1.png","img2/100/Incongruent/L/I_Dist_100_LN_1_LD_2_RN_8_RD_20_0.png","img2/300/Incongruent/R/I_Dist_300_LN_13_LD_26_RN_12_RD_15_1.png","img2/100/Incongruent/R/I_Dist_100_LN_8_LD_16_RN_6_RD_10_1.png","img2/200/Congruent/L/C_Dist_200_LN_7_LD_21_RN_2_RD_15_0.png","img2/200/Incongruent/R/I_Dist_200_LN_7_LD_15_RN_6_RD_9_1.png","img2/200/Incongruent/L/I_Dist_200_LN_7_LD_10_RN_14_RD_28_0.png","img2/300/Incongruent/L/I_Dist_300_LN_8_LD_10_RN_14_RD_28_0.png","img2/100/Incongruent/R/I_Dist_100_LN_6_LD_12_RN_3_RD_5_1.png","img2/200/Congruent/L/C_Dist_200_LN_4_LD_8_RN_3_RD_10_0.png","img2/200/Congruent/L/C_Dist_200_LN_4_LD_8_RN_3_RD_10_0.png","img2/200/Congruent/L/C_Dist_200_LN_16_LD_30_RN_9_RD_27_0.png","img2/200/Incongruent/R/I_Dist_200_LN_7_LD_15_RN_6_RD_9_1.png","img2/200/Congruent/R/C_Dist_200_LN_7_LD_15_RN_18_RD_27_1.png","img2/200/Incongruent/R/I_Dist_200_LN_7_LD_15_RN_6_RD_9_1.png","img2/200/Congruent/L/C_Dist_200_LN_4_LD_8_RN_3_RD_10_0.png","img2/100/Congruent/R/C_Dist_100_LN_7_LD_14_RN_15_RD_25_1.png","img2/200/Congruent/R/C_Dist_200_LN_13_LD_26_RN_14_RD_20_1.png","img2/200/Incongruent/L/I_Dist_200_LN_7_LD_10_RN_8_RD_16_0.png","img2/300/Incongruent/R/I_Dist_300_LN_4_LD_20_RN_2_RD_4_1.png","img2/100/Incongruent/R/I_Dist_100_LN_12_LD_24_RN_9_RD_15_1.png","img2/100/Congruent/R/C_Dist_100_LN_2_LD_5_RN_11_RD_22_1.png","img2/100/Incongruent/R/I_Dist_100_LN_11_LD_22_RN_9_RD_15_1.png","img2/300/Incongruent/L/I_Dist_300_LN_7_LD_10_RN_8_RD_20_0.png","img2/200/Incongruent/R/I_Dist_200_LN_9_LD_15_RN_8_RD_10_1.png","img2/100/Congruent/L/C_Dist_100_LN_15_LD_25_RN_13_RD_26_0.png","img2/100/Congruent/R/C_Dist_100_LN_2_LD_5_RN_11_RD_22_1.png","img2/100/Congruent/R/C_Dist_100_LN_4_LD_8_RN_6_RD_10_1.png","img2/100/Incongruent/L/I_Dist_100_LN_9_LD_10_RN_20_RD_25_0.png","img2/200/Congruent/R/C_Dist_200_LN_3_LD_12_RN_9_RD_20_1.png","img2/200/Congruent/R/C_Dist_200_LN_7_LD_15_RN_18_RD_27_1.png","img2/300/Incongruent/L/I_Dist_300_LN_7_LD_10_RN_8_RD_20_0.png","img2/100/Congruent/R/C_Dist_100_LN_6_LD_12_RN_15_RD_25_1.png","img2/200/Incongruent/L/I_Dist_200_LN_1_LD_2_RN_3_RD_10_0.png","img2/200/Incongruent/L/I_Dist_200_LN_4_LD_6_RN_14_RD_30_0.png","img2/200/Congruent/R/C_Dist_200_LN_7_LD_15_RN_18_RD_27_1.png","img2/100/Congruent/L/C_Dist_100_LN_10_LD_25_RN_3_RD_10_0.png","img2/100/Incongruent/R/I_Dist_100_LN_9_LD_18_RN_6_RD_10_1.png","img2/300/Congruent/L/C_Dist_300_LN_12_LD_24_RN_2_RD_10_0.png","img2/100/Incongruent/R/I_Dist_100_LN_8_LD_20_RN_1_RD_2_1.png","img2/300/Incongruent/L/I_Dist_300_LN_4_LD_5_RN_6_RD_12_0.png","img2/300/Incongruent/L/I_Dist_300_LN_1_LD_2_RN_3_RD_15_0.png","img2/200/Congruent/R/C_Dist_200_LN_3_LD_10_RN_7_RD_14_1.png","img2/100/Incongruent/L/I_Dist_100_LN_9_LD_15_RN_13_RD_26_0.png","img2/100/Incongruent/R/I_Dist_100_LN_12_LD_24_RN_9_RD_15_1.png","img2/100/Incongruent/R/I_Dist_100_LN_10_LD_25_RN_9_RD_18_1.png","img2/200/Congruent/L/C_Dist_200_LN_7_LD_21_RN_2_RD_15_0.png","img2/200/Congruent/R/C_Dist_200_LN_6_LD_12_RN_7_RD_10_1.png","img2/100/Congruent/L/C_Dist_100_LN_8_LD_16_RN_2_RD_5_0.png","img2/200/Incongruent/R/I_Dist_200_LN_4_LD_30_RN_1_RD_3_1.png","img2/100/Incongruent/R/I_Dist_100_LN_8_LD_16_RN_6_RD_10_1.png","img2/300/Incongruent/R/I_Dist_300_LN_4_LD_20_RN_2_RD_4_1.png","img2/100/Incongruent/R/I_Dist_100_LN_13_LD_26_RN_6_RD_10_1.png","img2/300/Incongruent/R/I_Dist_300_LN_13_LD_26_RN_12_RD_15_1.png","img2/300/Incongruent/R/I_Dist_300_LN_4_LD_20_RN_2_RD_4_1.png","img2/200/Incongruent/R/I_Dist_200_LN_3_LD_10_RN_1_RD_2_1.png","img2/300/Incongruent/R/I_Dist_300_LN_13_LD_26_RN_12_RD_15_1.png","img2/100/Incongruent/R/I_Dist_100_LN_6_LD_12_RN_3_RD_5_1.png"],"dist100_C":[["C_Dist_100_LN_10_LD_25_RN_3_RD_10_0.png","C_Dist_100_LN_11_LD_22_RN_4_RD_10_0.png","C_Dist_100_LN_11_LD_22_RN_6_RD_15_0.png","C_Dist_100_LN_15_LD_25_RN_13_RD_26_0.png","C_Dist_100_LN_3_LD_6_RN_2_RD_5_0.png","C_Dist_100_LN_6_LD_20_RN_5_RD_25_0.png","C_Dist_100_LN_8_LD_16_RN_2_RD_5_0.png","C_Dist_100_LN_9_LD_15_RN_8_RD_16_0.png"],["C_Dist_100_LN_1_LD_2_RN_18_RD_30_1.png","C_Dist_100_LN_1_LD_2_RN_3_RD_5_1.png","C_Dist_100_LN_12_LD_30_RN_13_RD_26_1.png","C_Dist_100_LN_2_LD_5_RN_11_RD_22_1.png","C_Dist_100_LN_2_LD_5_RN_6_RD_12_1.png","C_Dist_100_LN_3_LD_20_RN_4_RD_16_1.png","C_Dist_100_LN_4_LD_10_RN_15_RD_30_1.png","C_Dist_100_LN_4_LD_8_RN_6_RD_10_1.png","C_Dist_100_LN_6_LD_12_RN_15_RD_25_1.png","C_Dist_100_LN_7_LD_14_RN_15_RD_25_1.png","C_Dist_100_LN_7_LD_14_RN_9_RD_15_1.png"]],"dist100_I":[["I_Dist_100_LN_1_LD_2_RN_8_RD_20_0.png","I_Dist_100_LN_2_LD_4_RN_6_RD_15_0.png","I_Dist_100_LN_2_LD_4_RN_8_RD_20_0.png","I_Dist_100_LN_3_LD_5_RN_11_RD_22_0.png","I_Dist_100_LN_3_LD_5_RN_8_RD_16_0.png","I_Dist_100_LN_3_LD_6_RN_4_RD_10_0.png","I_Dist_100_LN_3_LD_9_RN_7_RD_30_0.png","I_Dist_100_LN_4_LD_8_RN_8_RD_20_0.png","I_Dist_100_LN_6_LD_10_RN_11_RD_22_0.png","I_Dist_100_LN_6_LD_10_RN_13_RD_26_0.png","I_Dist_100_LN_6_LD_10_RN_7_RD_14_0.png","I_Dist_100_LN_9_LD_10_RN_20_RD_25_0.png","I_Dist_100_LN_9_LD_15_RN_13_RD_26_0.png","I_Dist_100_LN_9_LD_15_RN_14_RD_28_0.png"],["I_Dist_100_LN_10_LD_25_RN_8_RD_16_1.png","I_Dist_100_LN_10_LD_25_RN_9_RD_18_1.png","I_Dist_100_LN_11_LD_22_RN_9_RD_15_1.png","I_Dist_100_LN_12_LD_24_RN_9_RD_15_1.png","I_Dist_100_LN_12_LD_30_RN_2_RD_4_1.png","I_Dist_100_LN_13_LD_26_RN_12_RD_20_1.png","I_Dist_100_LN_13_LD_26_RN_6_RD_10_1.png","I_Dist_100_LN_17_LD_30_RN_10_RD_15_1.png","I_Dist_100_LN_6_LD_12_RN_3_RD_5_1.png","I_Dist_100_LN_8_LD_16_RN_6_RD_10_1.png","I_Dist_100_LN_8_LD_20_RN_1_RD_2_1.png","I_Dist_100_LN_9_LD_18_RN_6_RD_10_1.png"]],"dist100_S":[["E_Dist_100_LN_2_LD_12_RN_2_RD_30_0.png","E_Dist_100_LN_6_LD_10_RN_6_RD_12_0.png"],["E_Dist_100_LN_6_LD_12_RN_6_RD_10_1.png"]],"dist200_C":[["C_Dist_200_LN_11_LD_22_RN_3_RD_10_0.png","C_Dist_200_LN_12_LD_15_RN_6_RD_10_0.png","C_Dist_200_LN_12_LD_20_RN_6_RD_15_0.png","C_Dist_200_LN_14_LD_28_RN_6_RD_20_0.png","C_Dist_200_LN_15_LD_25_RN_4_RD_10_0.png","C_Dist_200_LN_16_LD_20_RN_12_RD_20_0.png","C_Dist_200_LN_16_LD_30_RN_9_RD_27_0.png","C_Dist_200_LN_20_LD_25_RN_9_RD_15_0.png","C_Dist_200_LN_21_LD_30_RN_2_RD_4_0.png","C_Dist_200_LN_4_LD_10_RN_3_RD_15_0.png","C_Dist_200_LN_4_LD_8_RN_3_RD_10_0.png","C_Dist_200_LN_6_LD_15_RN_3_RD_15_0.png","C_Dist_200_LN_7_LD_21_RN_2_RD_15_0.png","C_Dist_200_LN_8_LD_15_RN_2_RD_6_0.png","C_Dist_200_LN_8_LD_15_RN_3_RD_9_0.png","C_Dist_200_LN_8_LD_15_RN_7_RD_21_0.png","C_Dist_200_LN_9_LD_20_RN_4_RD_16_0.png"],["C_Dist_200_LN_1_LD_2_RN_21_RD_30_1.png","C_Dist_200_LN_13_LD_26_RN_14_RD_20_1.png","C_Dist_200_LN_3_LD_10_RN_11_RD_22_1.png","C_Dist_200_LN_3_LD_10_RN_14_RD_28_1.png","C_Dist_200_LN_3_LD_10_RN_7_RD_14_1.png","C_Dist_200_LN_3_LD_12_RN_9_RD_20_1.png","C_Dist_200_LN_3_LD_6_RN_14_RD_20_1.png","C_Dist_200_LN_5_LD_10_RN_14_RD_20_1.png","C_Dist_200_LN_6_LD_12_RN_7_RD_10_1.png","C_Dist_200_LN_6_LD_20_RN_11_RD_22_1.png","C_Dist_200_LN_7_LD_15_RN_18_RD_27_1.png","C_Dist_200_LN_9_LD_30_RN_13_RD_26_1.png"]],"dist200_I":[["I_Dist_200_LN_1_LD_2_RN_3_RD_10_0.png","I_Dist_200_LN_1_LD_3_RN_2_RD_15_0.png","I_Dist_200_LN_3_LD_4_RN_11_RD_20_0.png","I_Dist_200_LN_4_LD_5_RN_6_RD_10_0.png","I_Dist_200_LN_4_LD_6_RN_14_RD_30_0.png","I_Dist_200_LN_7_LD_10_RN_12_RD_24_0.png","I_Dist_200_LN_7_LD_10_RN_14_RD_28_0.png","I_Dist_200_LN_7_LD_10_RN_8_RD_16_0.png"],["I_Dist_200_LN_11_LD_20_RN_3_RD_4_1.png","I_Dist_200_LN_14_LD_30_RN_12_RD_18_1.png","I_Dist_200_LN_14_LD_30_RN_6_RD_9_1.png","I_Dist_200_LN_3_LD_10_RN_1_RD_2_1.png","I_Dist_200_LN_4_LD_30_RN_1_RD_3_1.png","I_Dist_200_LN_6_LD_20_RN_3_RD_6_1.png","I_Dist_200_LN_7_LD_15_RN_4_RD_6_1.png","I_Dist_200_LN_7_LD_15_RN_6_RD_9_1.png","I_Dist_200_LN_9_LD_15_RN_8_RD_10_1.png"]],"dist200_S":[["E_Dist_200_LN_3_LD_6_RN_3_RD_10_0.png"],["E_Dist_200_LN_3_LD_10_RN_3_RD_6_1.png"]],"dist300_C":[["C_Dist_300_LN_11_LD_22_RN_1_RD_5_0.png","C_Dist_300_LN_11_LD_22_RN_2_RD_10_0.png","C_Dist_300_LN_11_LD_22_RN_4_RD_20_0.png","C_Dist_300_LN_12_LD_24_RN_2_RD_10_0.png","C_Dist_300_LN_18_LD_20_RN_9_RD_15_0.png","C_Dist_300_LN_20_LD_25_RN_13_RD_26_0.png","C_Dist_300_LN_20_LD_25_RN_14_RD_28_0.png","C_Dist_300_LN_20_LD_25_RN_5_RD_10_0.png","C_Dist_300_LN_20_LD_25_RN_8_RD_16_0.png","C_Dist_300_LN_20_LD_25_RN_9_RD_18_0.png","C_Dist_300_LN_24_LD_30_RN_2_RD_4_0.png","C_Dist_300_LN_24_LD_30_RN_8_RD_16_0.png","C_Dist_300_LN_3_LD_6_RN_2_RD_10_0.png","C_Dist_300_LN_4_LD_10_RN_1_RD_10_0.png","C_Dist_300_LN_4_LD_5_RN_2_RD_4_0.png","C_Dist_300_LN_8_LD_16_RN_1_RD_5_0.png","C_Dist_300_LN_9_LD_10_RN_3_RD_5_0.png"],["C_Dist_300_LN_1_LD_20_RN_7_RD_20_1.png","C_Dist_300_LN_1_LD_3_RN_19_RD_30_1.png","C_Dist_300_LN_1_LD_30_RN_8_RD_24_1.png","C_Dist_300_LN_1_LD_5_RN_11_RD_22_1.png","C_Dist_300_LN_1_LD_5_RN_3_RD_6_1.png","C_Dist_300_LN_1_LD_5_RN_6_RD_12_1.png","C_Dist_300_LN_2_LD_10_RN_12_RD_24_1.png","C_Dist_300_LN_2_LD_20_RN_10_RD_25_1.png","C_Dist_300_LN_3_LD_12_RN_11_RD_20_1.png","C_Dist_300_LN_3_LD_6_RN_4_RD_5_1.png","C_Dist_300_LN_4_LD_20_RN_13_RD_26_1.png","C_Dist_300_LN_5_LD_25_RN_6_RD_12_1.png","C_Dist_300_LN_5_LD_25_RN_7_RD_14_1.png","C_Dist_300_LN_7_LD_14_RN_20_RD_25_1.png","C_Dist_300_LN_8_LD_15_RN_10_RD_12_1.png"]],"dist300_I":[["I_Dist_300_LN_1_LD_2_RN_2_RD_10_0.png","I_Dist_300_LN_1_LD_2_RN_3_RD_15_0.png","I_Dist_300_LN_2_LD_4_RN_6_RD_30_0.png","I_Dist_300_LN_3_LD_6_RN_4_RD_20_0.png","I_Dist_300_LN_4_LD_5_RN_6_RD_12_0.png","I_Dist_300_LN_4_LD_5_RN_8_RD_16_0.png","I_Dist_300_LN_7_LD_10_RN_8_RD_20_0.png","I_Dist_300_LN_8_LD_10_RN_14_RD_28_0.png","I_Dist_300_LN_8_LD_10_RN_9_RD_18_0.png"],["I_Dist_300_LN_13_LD_26_RN_12_RD_15_1.png","I_Dist_300_LN_4_LD_20_RN_2_RD_4_1.png"]],"dist300_S":[["E_Dist_300_LN_9_LD_12_RN_9_RD_20_0.png"],["E_Dist_300_LN_18_LD_30_RN_18_RD_20_1.png","E_Dist_300_LN_3_LD_10_RN_3_RD_5_1.png","E_Dist_300_LN_9_LD_20_RN_9_RD_12_1.png"]],"dist500_C":[["C_Dist_500_LN_10_LD_13_RN_7_RD_26_0.png","C_Dist_500_LN_10_LD_15_RN_4_RD_24_0.png","C_Dist_500_LN_12_LD_16_RN_3_RD_12_0.png","C_Dist_500_LN_12_LD_18_RN_4_RD_24_0.png","C_Dist_500_LN_15_LD_18_RN_5_RD_15_0.png","C_Dist_500_LN_15_LD_20_RN_1_RD_4_0.png","C_Dist_500_LN_18_LD_27_RN_1_RD_6_0.png","C_Dist_500_LN_20_LD_24_RN_1_RD_3_0.png","C_Dist_500_LN_20_LD_24_RN_3_RD_9_0.png","C_Dist_500_LN_20_LD_24_RN_7_RD_21_0.png","C_Dist_500_LN_20_LD_28_RN_3_RD_14_0.png","C_Dist_500_LN_21_LD_28_RN_6_RD_24_0.png","C_Dist_500_LN_22_LD_28_RN_2_RD_7_0.png","C_Dist_500_LN_25_LD_30_RN_9_RD_27_0.png","C_Dist_500_LN_4_LD_6_RN_1_RD_6_0.png","C_Dist_500_LN_5_LD_6_RN_2_RD_6_0.png","C_Dist_500_LN_6_LD_9_RN_1_RD_6_0.png","C_Dist_500_LN_7_LD_10_RN_1_RD_5_0.png","C_Dist_500_LN_8_LD_12_RN_1_RD_6_0.png","C_Dist_500_LN_8_LD_12_RN_4_RD_24_0.png"],["C_Dist_500_LN_1_LD_4_RN_12_RD_16_1.png","C_Dist_500_LN_1_LD_4_RN_9_RD_12_1.png","C_Dist_500_LN_1_LD_9_RN_11_RD_18_1.png","C_Dist_500_LN_10_LD_24_RN_22_RD_24_1.png","C_Dist_500_LN_2_LD_12_RN_10_RD_15_1.png","C_Dist_500_LN_2_LD_12_RN_12_RD_18_1.png","C_Dist_500_LN_2_LD_12_RN_4_RD_6_1.png","C_Dist_500_LN_2_LD_24_RN_7_RD_12_1.png","C_Dist_500_LN_2_LD_5_RN_18_RD_20_1.png","C_Dist_500_LN_2_LD_5_RN_9_RD_10_1.png","C_Dist_500_LN_2_LD_8_RN_12_RD_16_1.png","C_Dist_500_LN_2_LD_8_RN_21_RD_28_1.png","C_Dist_500_LN_3_LD_10_RN_4_RD_5_1.png","C_Dist_500_LN_3_LD_12_RN_15_RD_20_1.png","C_Dist_500_LN_3_LD_30_RN_6_RD_10_1.png","C_Dist_500_LN_3_LD_8_RN_14_RD_16_1.png","C_Dist_500_LN_4_LD_16_RN_15_RD_20_1.png","C_Dist_500_LN_4_LD_24_RN_12_RD_18_1.png","C_Dist_500_LN_5_LD_14_RN_6_RD_7_1.png","C_Dist_500_LN_7_LD_21_RN_20_RD_24_1.png","C_Dist_500_LN_7_LD_28_RN_12_RD_16_1.png","C_Dist_500_LN_7_LD_28_RN_9_RD_12_1.png","C_Dist_500_LN_9_LD_27_RN_20_RD_24_1.png"]],"dist500_I":[["I_Dist_500_LN_2_LD_3_RN_4_RD_24_0.png","I_Dist_500_LN_5_LD_6_RN_6_RD_18_0.png","I_Dist_500_LN_7_LD_8_RN_9_RD_24_0.png"],["I_Dist_500_LN_7_LD_21_RN_5_RD_6_1.png"]],"dist500_S":[["E_Dist_500_LN_6_LD_8_RN_6_RD_24_0.png"],["E_Dist_500_LN_2_LD_12_RN_2_RD_3_1.png","E_Dist_500_LN_6_LD_24_RN_6_RD_8_1.png"]]}},{"start_time":1552054134510,"click_time":1552054137839,"finger_time":1552054136078,"fix_duration":250,"trial":1,"RT":1568,"MT":1761,"sideResp":2,"stimulus":[],"xmouse":[745,745,745,745,745,745,745,745,745,745,745,745,745,745,745,745,745,745,745,746,747,747,748,748,749,749,749,749,749,749,750,750,750,750,750,750,750,750,750,750,750,750,750,750,750,750,750,750,750,750,750,750,750,750,750,750,750,750,750,750,750,750,750,750,750,750,750,750,750,750,750,750,750,750,750,750,750,751,735,712,681,651,621,619,619,619,619,619,619,619,616,607,590,575,559,547,544,543,542,542,542,541,541,541,540,536,533,528,527,527,527,527,527,527,527,527,527,527,527,527,527,527,527,529,533,533,534,534,534,534,534,534,534,539,544,557,572,611,632,651,668,688,741,816,843,909,958,1041,1074,1101,1118,1122,1122,1122,1122,1121,1118,1115,1104,1094,1084,1076,1070,1067,1067,1067,1071],"ymouse":[536,536,536,536,536,536,536,536,536,536,536,536,536,536,536,536,537,538,539,539,540,540,540,540,540,540,540,540,540,540,541,541,541,541,541,541,541,541,541,541,541,541,541,541,541,541,541,541,541,541,541,541,541,541,541,541,541,541,541,541,541,541,541,541,541,541,541,541,541,541,541,541,541,541,541,541,541,541,500,443,373,303,225,211,205,205,205,205,205,202,190,176,152,137,123,110,106,103,99,97,95,93,89,87,86,79,75,68,68,68,68,68,68,68,68,68,68,68,68,68,68,68,68,68,69,69,69,69,69,69,69,70,70,73,76,78,80,80,81,81,81,81,81,77,77,89,110,153,176,198,214,221,221,221,221,221,216,212,198,186,171,159,147,133,121,117,97],"timestamp_mouse":[10,37,47,68,87,107,127,147,167,188,208,228,248,267,288,309,328,348,368,388,407,428,447,467,488,508,528,548,568,587,608,628,647,668,687,707,728,747,767,787,807,827,848,868,887,908,927,947,968,987,1007,1028,1047,1067,1087,1108,1127,1147,1167,1187,1207,1228,1247,1268,1288,1308,1327,1347,1368,1387,1407,1428,1447,1467,1488,1507,1528,1547,1568,1587,1608,1627,1648,1667,1688,1707,1727,1748,1768,1787,1808,1828,1849,1867,1887,1907,1927,1948,1967,1987,2007,2027,2048,2067,2088,2107,2127,2148,2167,2187,2207,2228,2248,2268,2287,2308,2327,2347,2367,2387,2408,2427,2447,2468,2488,2508,2527,2548,2568,2587,2607,2627,2648,2668,2687,2707,2727,2749,2767,2787,2808,2827,2849,2867,2887,2908,2928,2949,2967,2987,3007,3028,3048,3068,3087,3108,3127,3147,3167,3187,3207,3227,3247,3268,3287,3308,3328],"xSR":741.5,"ySR":469.95,"xT1":424.9,"yT1":0,"xT2":1058.1,"yT2":0,"toosoon":0,"cond_shown":"Incongruent","ratio_trial":200,"L_num":14,"L_den":30,"R_num":12,"R_den":18,"correct_side":2,"subjID":"sofiacorrea26","gender":"1","school":"4","age":"9"},{"start_time":1552054139210,"click_time":1552054141357,"finger_time":1552054140638,"fix_duration":250,"trial":2,"RT":1428,"MT":719,"sideResp":2,"stimulus":[],"xmouse":[766,766,766,766,766,766,766,766,766,765,765,764,764,764,764,764,764,764,764,764,764,764,764,764,764,764,764,764,764,764,764,764,764,764,764,764,764,764,764,764,764,764,764,764,764,764,764,764,764,764,764,764,764,764,764,764,764,764,764,764,764,764,764,764,764,764,764,764,766,771,776,777,774,767,760,757,757,756,756,756,756,755,753,753,754,754,755,755,757,761,773,781,798,810,826,845,865,882,911,918,931,941,989,1020,1057,1077,1088,1090],"ymouse":[527,527,527,527,527,527,527,527,527,528,529,529,529,529,529,529,529,529,529,529,529,529,529,529,529,529,529,529,529,529,529,529,529,529,529,529,529,529,529,529,529,529,529,529,529,529,529,529,529,529,529,529,529,529,529,529,529,529,529,529,529,529,529,529,529,529,529,529,522,512,477,444,366,334,314,307,307,306,306,306,306,306,325,334,341,345,346,347,347,347,334,321,284,268,246,221,198,180,156,151,143,138,126,121,113,108,102,98],"timestamp_mouse":[10,37,47,68,87,107,127,147,167,187,207,227,248,268,288,307,328,347,368,387,407,428,447,467,488,508,527,547,568,587,608,628,647,668,687,707,727,748,767,788,808,827,848,867,887,908,928,948,967,987,1007,1028,1047,1067,1087,1107,1128,1147,1167,1189,1208,1228,1248,1268,1288,1308,1327,1347,1367,1387,1408,1428,1449,1466,1488,1508,1528,1548,1567,1588,1607,1627,1648,1668,1688,1708,1728,1747,1767,1787,1807,1827,1848,1867,1888,1907,1928,1947,1967,1987,2008,2027,2049,2067,2087,2107,2127,2147],"xSR":741.5,"ySR":469.95,"xT1":424.9,"yT1":0,"xT2":1058.1,"yT2":0,"toosoon":0,"cond_shown":"Congruent","ratio_trial":100,"L_num":7,"L_den":14,"R_num":15,"R_den":25,"correct_side":2,"subjID":"sofiacorrea26","gender":"1","school":"4","age":"9"},{"start_time":1552054143210,"click_time":1552054145577,"finger_time":1552054145238,"fix_duration":790.7652076309337,"trial":3,"RT":2028,"MT":339,"sideResp":2,"stimulus":[],"xmouse":[805,805,805,805,805,805,805,805,805,805,805,805,805,805,805,805,805,805,805,805,805,805,805,805,805,805,805,805,805,805,805,805,805,805,805,805,805,805,805,805,805,805,805,805,805,805,806,806,806,806,806,806,806,806,806,806,806,806,806,806,806,806,806,806,806,806,806,806,806,806,806,806,806,806,806,806,806,806,806,806,806,806,806,806,806,806,806,806,806,806,806,806,806,806,806,806,806,806,809,811,828,848,876,931,956,976,993,1008,1033,1045,1048,1051,1052,1053,1053,1054,1056,1061,1072],"ymouse":[517,517,517,517,517,517,517,517,517,517,517,517,517,517,517,517,517,517,517,517,517,517,517,517,517,517,517,517,517,517,517,517,517,517,517,517,517,517,517,517,517,517,517,517,517,517,517,517,517,517,517,517,517,517,517,517,517,517,517,517,517,517,517,517,517,517,517,517,517,517,517,517,517,517,517,517,517,517,517,517,517,517,517,517,517,517,517,517,517,517,517,517,517,517,517,517,517,517,517,514,496,467,428,355,324,298,273,250,209,185,178,160,146,141,136,132,123,113,88],"timestamp_mouse":[12,36,47,67,88,108,127,148,167,188,207,227,247,268,288,307,328,348,368,387,407,427,447,468,487,507,527,548,567,587,608,628,647,668,688,708,727,748,768,788,808,827,847,868,887,908,927,947,968,987,1007,1027,1047,1067,1088,1107,1128,1147,1168,1187,1207,1227,1248,1268,1287,1307,1328,1347,1367,1387,1408,1428,1447,1468,1488,1507,1527,1548,1567,1588,1607,1627,1647,1668,1687,1708,1728,1748,1767,1788,1807,1828,1847,1867,1888,1908,1928,1947,1967,1987,2008,2028,2048,2067,2087,2108,2127,2148,2168,2187,2207,2227,2249,2267,2287,2307,2328,2348,2367],"xSR":741.5,"ySR":469.95,"xT1":424.9,"yT1":0,"xT2":1058.1,"yT2":0,"toosoon":0,"cond_shown":"Incongruent","ratio_trial":100,"L_num":2,"L_den":4,"R_num":6,"R_den":15,"correct_side":1,"subjID":"sofiacorrea26","gender":"1","school":"4","age":"9"},{"start_time":1552054148079,"click_time":1552054151318,"finger_time":1552054149718,"fix_duration":800.0584382181734,"trial":4,"RT":1639,"MT":1600,"sideResp":1,"stimulus":[],"xmouse":[824,824,824,824,824,824,824,824,824,824,824,824,824,824,824,824,824,824,823,823,823,823,823,823,823,823,824,824,824,824,824,824,825,826,827,827,827,827,827,827,827,827,827,827,827,827,827,827,827,827,827,827,827,827,827,827,827,827,827,827,827,827,827,827,827,827,827,827,827,827,827,828,829,833,833,833,833,833,833,833,836,844,869,902,965,1017,1044,1059,1070,1071,1071,1071,1071,1070,1070,1070,1068,1065,1058,1054,1049,1044,1038,1027,1025,1024,1024,1022,1015,1006,999,994,991,976,965,957,938,925,915,905,901,898,893,884,824,805,760,706,691,681,679,675,670,663,639,624,617,611,608,608,608,606,604,601,593,583,573,566,558,554,548,542,536,532,531,531,531,531,530,527,525,523],"ymouse":[548,548,548,548,548,548,548,548,548,548,548,548,548,548,548,548,548,549,557,561,563,564,564,564,565,565,565,565,565,565,565,565,565,565,565,565,565,565,565,565,565,565,565,565,565,565,565,565,565,565,565,565,565,565,565,565,565,565,565,565,565,565,565,565,565,565,565,565,565,565,565,565,565,565,565,565,565,565,565,565,565,563,548,524,473,423,393,371,339,332,329,328,328,327,327,327,327,327,329,332,335,339,342,349,350,351,351,353,364,373,380,384,388,402,411,416,426,432,436,440,441,442,444,447,467,472,479,482,482,466,455,431,395,351,278,246,233,222,218,218,218,216,213,211,201,184,169,157,141,135,126,119,112,107,104,104,104,103,103,100,98,96],"timestamp_mouse":[18,43,59,79,98,119,138,158,179,199,218,238,259,280,299,319,339,359,379,399,418,439,459,479,499,519,538,559,579,599,619,639,658,679,698,718,739,758,779,798,818,839,859,878,899,919,939,958,978,998,1018,1039,1058,1079,1099,1119,1139,1159,1178,1199,1218,1239,1258,1278,1298,1319,1338,1359,1379,1399,1419,1439,1459,1479,1499,1518,1539,1558,1578,1599,1619,1639,1659,1679,1698,1718,1738,1759,1779,1798,1819,1838,1858,1879,1899,1919,1938,1959,1980,1998,2018,2038,2058,2080,2098,2119,2138,2158,2179,2197,2218,2238,2259,2280,2298,2318,2338,2359,2379,2398,2419,2438,2458,2478,2498,2518,2539,2559,2579,2598,2618,2638,2659,2678,2698,2718,2738,2759,2779,2798,2818,2838,2858,2880,2899,2919,2938,2958,2979,2998,3019,3039,3058,3080,3098,3118,3138,3159,3179,3198,3218,3239],"xSR":741.5,"ySR":469.95,"xT1":424.9,"yT1":0,"xT2":1058.1,"yT2":0,"toosoon":0,"cond_shown":"Congruent","ratio_trial":300,"L_num":12,"L_den":24,"R_num":2,"R_den":10,"correct_side":1,"subjID":"sofiacorrea26","gender":"1","school":"4","age":"9"},{"start_time":1552054153961,"click_time":1552054156499,"finger_time":1552054156078,"fix_duration":1322.8944426307169,"trial":5,"RT":2117,"MT":421,"sideResp":1,"stimulus":[],"xmouse":[758,758,758,758,758,758,758,758,758,758,758,758,760,761,761,762,762,763,763,763,763,763,763,764,764,764,764,764,764,764,764,764,764,764,764,764,764,764,764,764,764,764,764,764,764,764,764,764,764,765,765,765,765,765,765,765,765,765,765,765,765,765,765,765,765,765,765,765,765,765,765,765,765,765,765,765,765,765,765,765,765,765,765,765,765,765,765,765,765,765,765,765,765,765,765,765,765,765,765,765,765,765,765,765,761,755,744,729,711,694,660,648,638,630,617,612,609,604,598,592,581,573,568,561,552,526,507],"ymouse":[488,488,488,488,488,488,488,488,488,488,488,488,489,491,492,494,494,494,494,494,495,495,495,495,495,495,495,495,495,495,495,495,495,495,495,495,495,495,495,495,495,495,495,495,495,495,495,495,495,495,495,495,495,495,495,495,495,495,495,495,495,495,495,495,495,495,495,495,495,495,495,495,495,495,495,495,495,495,495,495,495,495,495,495,495,495,495,495,495,495,495,495,495,495,495,495,495,495,495,495,495,495,495,495,483,469,447,422,402,379,327,306,290,269,240,230,222,212,200,188,167,151,140,129,117,91,74],"timestamp_mouse":[16,38,56,76,96,117,136,157,177,196,217,236,257,276,296,316,337,357,377,397,416,437,456,477,496,516,537,556,576,597,617,637,657,676,697,716,736,756,777,797,816,836,857,877,896,916,936,957,977,997,1017,1037,1057,1076,1096,1117,1136,1157,1178,1197,1216,1236,1256,1276,1296,1316,1337,1357,1376,1397,1416,1437,1456,1476,1496,1516,1536,1556,1577,1596,1617,1636,1656,1676,1696,1716,1736,1757,1777,1796,1817,1837,1856,1877,1897,1916,1936,1956,1977,1996,2017,2036,2057,2076,2097,2117,2136,2156,2176,2196,2216,2236,2256,2276,2297,2316,2337,2357,2376,2396,2417,2437,2457,2476,2497,2516,2537],"xSR":741.5,"ySR":469.95,"xT1":424.9,"yT1":0,"xT2":1058.1,"yT2":0,"toosoon":0,"cond_shown":"Incongruent","ratio_trial":100,"L_num":3,"L_den":5,"R_num":8,"R_den":16,"correct_side":1,"subjID":"sofiacorrea26","gender":"1","school":"4","age":"9"},{"start_time":1552054158252,"click_time":1552054160159,"finger_time":1552054159858,"fix_duration":752.4572451248448,"trial":6,"RT":1606,"MT":301,"sideResp":1,"stimulus":[],"xmouse":[822,822,822,822,822,822,822,822,822,822,822,822,822,822,822,822,822,822,822,822,822,822,822,822,822,822,822,822,822,822,822,822,822,822,822,822,822,822,822,822,822,822,822,822,822,822,822,822,822,822,822,822,822,822,822,822,822,822,822,822,822,822,822,822,822,822,822,822,822,822,822,822,822,822,822,822,822,822,818,807,754,703,653,622,598,578,575,573,573,573,573,571,565,556,545,523],"ymouse":[541,541,541,541,541,541,541,541,541,541,541,541,541,541,541,541,541,541,541,541,541,541,541,541,541,541,541,541,541,541,540,537,537,537,537,537,537,537,537,537,537,537,537,537,537,537,537,537,537,537,537,537,537,537,537,537,537,537,537,537,537,537,537,537,537,537,537,537,537,537,537,537,537,537,537,537,536,534,520,508,441,379,327,278,234,185,177,174,173,172,164,153,137,120,102,67],"timestamp_mouse":[19,42,45,66,85,107,125,145,165,185,205,225,246,265,286,305,325,345,366,385,406,425,446,466,486,506,526,546,565,586,606,626,645,666,685,705,725,746,765,786,805,825,846,865,885,905,926,945,965,985,1005,1025,1046,1066,1086,1106,1126,1146,1166,1185,1206,1226,1246,1265,1285,1306,1325,1346,1366,1386,1406,1425,1446,1466,1486,1505,1525,1546,1566,1585,1606,1625,1646,1665,1686,1707,1725,1746,1765,1785,1805,1825,1846,1866,1886,1907],"xSR":741.5,"ySR":469.95,"xT1":424.9,"yT1":0,"xT2":1058.1,"yT2":0,"toosoon":0,"cond_shown":"Incongruent","ratio_trial":300,"L_num":8,"L_den":10,"R_num":9,"R_den":18,"correct_side":1,"subjID":"sofiacorrea26","gender":"1","school":"4","age":"9"},{"start_time":1552054162336,"click_time":1552054165959,"finger_time":1552054164518,"fix_duration":616.9676246834993,"trial":7,"RT":2182,"MT":1441,"sideResp":1,"stimulus":[],"xmouse":[812,812,812,812,812,812,812,812,812,812,812,812,812,812,812,812,812,812,812,812,812,812,812,812,810,809,806,805,805,805,805,805,805,805,805,805,805,805,805,805,805,805,805,805,805,805,805,805,804,802,802,802,802,802,802,802,802,802,802,802,802,802,802,802,802,802,802,802,802,802,802,802,802,802,802,802,802,802,802,802,802,802,802,802,802,802,802,802,802,802,802,802,802,802,802,802,802,802,802,802,802,802,802,802,811,823,833,840,841,842,842,846,859,864,867,868,871,875,880,883,887,889,893,894,895,895,895,895,895,895,895,895,895,895,895,895,895,895,895,895,895,898,908,915,920,922,922,922,922,919,909,882,872,858,853,850,830,811,785,751,705,669,607,596,582,565,548,534,528,523,521,516,512,505,497,493,481,475,469,465,459,446],"ymouse":[536,536,536,536,536,536,536,536,536,536,536,536,536,536,536,536,536,536,536,536,536,536,536,536,536,536,536,536,536,536,536,536,536,536,536,536,536,536,536,536,536,536,536,536,536,536,536,536,538,549,555,557,557,557,557,557,557,557,557,557,557,557,557,557,557,557,557,557,557,557,557,557,557,557,557,558,558,558,558,558,558,558,558,558,558,558,558,558,558,558,558,558,558,558,558,558,558,558,558,558,558,558,558,558,550,540,532,525,522,520,516,509,487,477,469,463,452,442,432,423,416,408,395,391,388,387,387,387,387,387,387,387,387,387,387,387,387,387,387,387,387,383,373,368,365,365,365,365,365,365,368,374,379,382,384,384,387,389,394,398,403,408,411,411,404,390,373,342,324,306,293,262,246,228,201,187,160,142,128,119,107,85],"timestamp_mouse":[1,21,41,61,82,101,122,142,161,181,201,222,241,261,282,301,322,342,361,381,402,421,442,461,481,501,522,542,561,582,602,621,642,661,681,701,721,742,761,782,801,821,842,861,882,902,922,941,961,982,1001,1022,1042,1061,1081,1102,1121,1141,1161,1182,1201,1221,1242,1262,1281,1302,1321,1341,1362,1382,1401,1421,1442,1462,1482,1502,1522,1542,1561,1582,1601,1623,1642,1662,1682,1701,1722,1741,1761,1781,1801,1822,1841,1861,1881,1902,1922,1941,1961,1981,2002,2021,2042,2062,2082,2101,2121,2141,2162,2182,2201,2222,2241,2261,2281,2302,2322,2341,2362,2381,2401,2422,2441,2461,2481,2502,2521,2542,2562,2581,2602,2622,2642,2662,2681,2702,2722,2742,2762,2782,2801,2822,2841,2862,2881,2902,2922,2942,2962,2982,3002,3023,3041,3062,3081,3101,3122,3141,3162,3181,3202,3222,3242,3261,3281,3302,3321,3342,3361,3381,3401,3423,3441,3461,3482,3501,3523,3541,3562,3581,3601,3623],"xSR":741.5,"ySR":469.95,"xT1":424.9,"yT1":0,"xT2":1058.1,"yT2":0,"toosoon":0,"cond_shown":"Incongruent","ratio_trial":200,"L_num":6,"L_den":20,"R_num":3,"R_den":6,"correct_side":2,"subjID":"sofiacorrea26","gender":"1","school":"4","age":"9"},{"start_time":1552054171034,"click_time":1552054174777,"finger_time":1552054173697,"fix_duration":314.56476568036305,"trial":8,"RT":2663,"MT":1080,"sideResp":1,"stimulus":[],"xmouse":[791,791,792,802,803,804,804,804,804,804,804,804,804,804,804,804,804,805,806,807,808,808,809,809,809,809,809,809,809,809,809,809,809,809,809,809,809,809,809,809,809,809,809,809,809,809,809,809,809,809,809,809,809,809,809,809,809,809,809,809,809,809,809,809,809,809,809,809,809,809,809,809,809,809,809,809,809,809,809,809,809,809,809,809,809,809,809,809,809,809,809,809,809,809,809,809,809,809,809,809,809,809,809,809,809,809,809,809,809,809,809,809,809,809,809,809,802,798,795,794,794,794,794,794,794,794,794,794,794,794,794,795,805,817,835,856,879,917,929,938,939,939,939,939,939,939,939,938,938,936,934,924,915,900,882,858,805,781,768,741,729,711,707,705,699,688,677,650,639,636,625,611,576,560,544,537,532,531,531,530,529,529,529,529,529,527,527,524],"ymouse":[555,555,555,556,556,557,558,558,558,558,558,558,558,558,558,558,558,558,558,554,552,551,549,549,549,549,549,549,549,549,549,549,549,549,549,549,549,549,549,549,549,549,549,549,549,549,549,549,549,549,549,549,549,549,549,549,549,549,549,549,549,549,549,549,549,549,549,549,549,549,549,549,549,549,549,549,549,549,549,549,549,549,549,549,549,549,549,549,549,549,549,549,549,549,549,549,549,549,549,549,549,549,549,549,549,549,549,549,549,549,549,549,549,548,544,534,512,502,495,492,491,491,491,491,491,491,491,491,491,491,491,490,479,464,442,422,405,377,370,366,365,365,365,365,365,365,365,365,365,366,366,368,369,366,357,341,294,264,245,208,191,169,165,162,155,146,138,120,115,114,110,106,97,91,82,77,72,70,70,69,68,68,67,67,67,66,66,66],"timestamp_mouse":[12,24,43,64,83,103,123,143,164,184,204,224,244,263,283,303,324,343,363,383,404,423,444,463,484,503,524,544,563,583,604,624,643,664,683,703,723,743,763,783,803,824,843,863,884,904,923,944,964,983,1003,1024,1044,1064,1084,1103,1123,1144,1163,1184,1203,1224,1243,1264,1284,1303,1324,1343,1364,1384,1404,1423,1444,1464,1483,1503,1524,1544,1564,1584,1604,1624,1644,1663,1684,1703,1724,1744,1764,1784,1803,1824,1845,1864,1884,1904,1925,1944,1964,1984,2003,2023,2044,2064,2084,2104,2123,2143,2164,2183,2203,2223,2243,2265,2283,2304,2324,2343,2363,2383,2403,2424,2443,2464,2484,2504,2524,2543,2564,2584,2604,2623,2643,2663,2684,2703,2724,2743,2763,2784,2803,2823,2843,2864,2884,2904,2924,2943,2963,2983,3004,3025,3043,3063,3084,3104,3125,3143,3163,3183,3204,3225,3243,3263,3283,3304,3323,3343,3364,3384,3404,3424,3443,3463,3484,3504,3524,3543,3563,3583,3603,3624,3643,3664,3683,3704,3723,3743],"xSR":741.5,"ySR":469.95,"xT1":424.9,"yT1":0,"xT2":1058.1,"yT2":0,"toosoon":0,"cond_shown":"Congruent","ratio_trial":300,"L_num":20,"L_den":25,"R_num":9,"R_den":18,"correct_side":1,"subjID":"sofiacorrea26","gender":"1","school":"4","age":"9"},{"start_time":1552054176067,"click_time":1552054178437,"finger_time":1552054177818,"fix_duration":327.09681063320096,"trial":9,"RT":1751,"MT":619,"sideResp":2,"stimulus":[],"xmouse":[812,812,812,814,817,818,819,819,819,819,819,819,819,819,819,819,819,819,819,819,819,819,819,819,819,819,819,819,819,819,819,819,819,819,819,819,819,819,819,819,819,819,819,819,819,819,819,819,819,819,819,819,819,819,819,819,819,819,819,819,819,819,819,819,819,819,819,819,819,819,819,819,819,819,819,819,819,819,819,819,819,819,819,819,820,831,839,863,874,889,894,900,906,913,925,933,934,941,947,962,970,980,993,1003,1013,1043,1066,1077,1086,1096,1104,1106,1108,1108,1110,1111,1112,1113,1118],"ymouse":[520,520,520,520,521,521,521,521,521,521,521,521,521,521,521,521,521,521,521,521,521,521,521,521,521,521,521,521,521,521,521,521,521,521,521,521,521,521,521,521,521,521,521,521,521,521,521,521,521,521,521,521,521,521,521,521,521,521,521,521,521,521,521,521,521,521,521,521,521,521,521,521,521,521,521,521,521,521,521,521,521,521,521,521,521,505,494,449,429,404,391,378,367,358,336,315,309,282,263,231,219,206,191,179,170,151,142,137,133,130,126,124,123,121,118,116,113,107,97],"timestamp_mouse":[12,41,50,70,90,110,130,150,171,190,210,231,251,270,290,310,330,350,370,390,411,431,450,470,492,510,530,550,570,591,611,632,651,671,691,711,731,751,771,790,811,831,851,870,892,911,931,950,971,990,1010,1031,1050,1070,1091,1112,1131,1151,1171,1190,1210,1230,1250,1270,1290,1311,1332,1351,1370,1390,1410,1431,1450,1472,1491,1511,1530,1551,1570,1592,1611,1630,1650,1671,1690,1710,1730,1751,1770,1791,1810,1830,1850,1870,1891,1910,1931,1950,1970,1992,2010,2031,2050,2070,2090,2110,2130,2151,2171,2191,2210,2230,2250,2270,2291,2310,2330,2351,2370],"xSR":741.5,"ySR":469.95,"xT1":424.9,"yT1":0,"xT2":1058.1,"yT2":0,"toosoon":0,"cond_shown":"Congruent","ratio_trial":100,"L_num":4,"L_den":8,"R_num":6,"R_den":10,"correct_side":2,"subjID":"sofiacorrea26","gender":"1","school":"4","age":"9"},{"start_time":1552054181035,"click_time":1552054183177,"finger_time":1552054182618,"fix_duration":1416.5296468932638,"trial":10,"RT":1583,"MT":559,"sideResp":2,"stimulus":[],"xmouse":[806,806,806,806,806,806,806,805,804,804,803,803,802,802,802,802,802,802,802,802,802,802,802,802,802,802,802,802,802,802,802,802,802,802,802,802,802,802,802,802,802,802,802,802,802,802,802,802,802,802,802,802,802,802,802,802,802,802,802,802,802,802,802,802,802,802,802,802,802,802,802,802,802,803,804,809,813,819,820,817,806,791,782,782,788,793,798,798,798,807,814,823,848,868,904,942,994,1003,1004,1004,1004,1007,1026,1038,1047,1052,1056,1063],"ymouse":[547,547,547,547,547,547,547,547,547,547,548,548,548,548,548,548,548,548,548,548,548,548,548,548,548,548,548,548,548,548,548,548,548,548,548,548,548,548,548,548,548,548,548,548,548,548,548,548,548,548,548,548,548,548,548,548,548,548,548,548,548,548,548,548,548,548,548,548,548,548,548,548,548,548,548,545,538,507,487,453,435,413,373,353,326,300,262,250,241,219,201,184,159,156,153,153,153,152,150,147,140,135,122,114,104,97,92,83],"timestamp_mouse":[13,23,43,62,83,103,123,142,162,182,202,222,243,263,284,302,323,343,363,383,402,423,442,462,483,504,523,543,563,583,602,623,643,662,682,702,722,742,762,782,803,823,843,862,883,902,923,942,963,983,1002,1023,1043,1062,1083,1103,1122,1143,1162,1183,1203,1223,1242,1262,1282,1302,1322,1343,1362,1382,1402,1422,1443,1462,1483,1502,1523,1542,1563,1583,1603,1623,1642,1662,1682,1703,1724,1743,1762,1782,1802,1822,1842,1863,1882,1902,1924,1942,1962,1984,2002,2023,2042,2063,2082,2103,2122,2142],"xSR":741.5,"ySR":469.95,"xT1":424.9,"yT1":0,"xT2":1058.1,"yT2":0,"toosoon":0,"cond_shown":"Congruent","ratio_trial":300,"L_num":8,"L_den":15,"R_num":10,"R_den":12,"correct_side":2,"subjID":"sofiacorrea26","gender":"1","school":"4","age":"9"},{"start_time":1552054184796,"click_time":1552054187298,"finger_time":1552054186178,"fix_duration":595.7655858338716,"trial":11,"RT":1382,"MT":1120,"sideResp":2,"stimulus":[],"xmouse":[786,786,786,786,786,786,786,786,786,786,786,786,786,786,786,786,786,786,786,786,786,786,786,786,786,786,786,786,786,786,786,786,786,786,786,786,786,786,786,786,786,786,786,786,787,787,787,787,787,787,787,787,787,787,787,788,789,789,789,789,789,789,789,790,793,800,809,817,827,839,841,841,845,853,890,909,926,933,935,934,933,934,934,936,936,936,936,936,936,944,956,972,992,1043,1066,1078,1085,1095,1118,1185,1199,1199,1199,1200,1200,1200,1200,1200,1200,1200,1200,1200,1200,1200,1199,1196,1191,1185,1180,1170,1167,1166,1166,1163,1160,1157],"ymouse":[516,516,516,516,516,516,516,516,516,516,516,516,516,516,516,516,516,516,516,516,516,516,516,516,516,516,516,516,516,516,516,516,516,516,516,516,516,516,515,515,515,515,515,515,515,515,515,515,515,515,515,515,515,515,515,515,515,515,515,515,515,515,515,515,514,509,502,491,478,454,441,436,412,386,312,273,235,206,163,151,140,135,133,130,129,128,128,128,128,124,124,124,124,129,132,133,133,131,126,117,115,115,115,114,113,112,111,111,108,107,105,104,103,101,95,90,79,68,57,42,38,37,36,36,35,34],"timestamp_mouse":[10,21,45,61,82,101,122,141,161,181,201,221,242,261,281,302,323,342,362,381,401,423,442,462,481,501,522,541,561,583,602,621,641,661,682,701,721,742,762,781,801,821,842,861,882,902,922,941,961,981,1001,1021,1041,1062,1082,1101,1121,1141,1162,1182,1202,1221,1241,1261,1281,1302,1322,1342,1361,1382,1402,1422,1442,1462,1481,1501,1522,1542,1563,1581,1602,1622,1641,1662,1681,1701,1721,1742,1761,1783,1802,1822,1842,1862,1881,1901,1922,1941,1961,1982,2002,2022,2042,2062,2081,2101,2122,2141,2162,2181,2202,2222,2242,2261,2281,2301,2321,2341,2362,2382,2401,2422,2441,2463,2481,2502],"xSR":741.5,"ySR":469.95,"xT1":424.9,"yT1":0,"xT2":1058.1,"yT2":0,"toosoon":0,"cond_shown":"Incongruent","ratio_trial":300,"L_num":13,"L_den":26,"R_num":12,"R_den":15,"correct_side":2,"subjID":"sofiacorrea26","gender":"1","school":"4","age":"9"},{"start_time":1552054189037,"click_time":1552054191459,"finger_time":1552054190818,"fix_duration":597.5578922721432,"trial":12,"RT":1781,"MT":641,"sideResp":2,"stimulus":[],"xmouse":[767,767,767,767,767,767,767,767,767,767,767,767,767,767,767,767,767,767,767,767,767,767,767,767,767,768,769,770,770,770,770,770,770,770,772,772,772,772,772,772,772,772,772,772,772,772,772,772,772,772,772,772,772,772,772,772,772,772,772,772,772,772,772,772,772,772,772,772,772,772,772,772,772,772,772,772,772,772,772,773,773,774,775,776,779,781,784,802,816,837,852,871,875,878,885,894,905,934,951,971,983,994,1021,1037,1052,1069,1099,1117,1122,1133,1135,1139,1140,1141,1142,1142,1143,1143,1143,1144,1145,1152],"ymouse":[523,523,523,523,523,523,523,523,523,523,524,524,524,524,524,524,524,524,524,524,524,524,524,524,524,524,525,525,526,526,526,526,526,526,526,526,526,526,526,526,526,526,526,526,526,526,526,526,526,526,526,526,526,526,526,526,526,526,526,526,526,526,526,526,526,526,526,526,526,526,526,526,526,526,526,526,526,527,527,528,528,529,529,530,530,530,530,516,494,447,419,371,350,326,303,281,260,218,198,169,156,148,146,146,145,144,134,133,133,133,132,130,129,128,127,126,122,119,117,112,107,97],"timestamp_mouse":[9,34,40,60,81,101,121,141,160,181,201,221,241,262,281,300,320,341,361,380,400,420,441,460,481,500,520,541,561,580,602,621,641,660,681,701,720,740,760,782,801,820,841,860,880,901,920,940,960,981,1000,1021,1041,1061,1080,1101,1120,1141,1161,1181,1200,1221,1241,1260,1281,1301,1320,1341,1361,1380,1401,1421,1441,1460,1480,1501,1520,1540,1561,1581,1601,1620,1641,1661,1680,1701,1721,1742,1760,1781,1801,1821,1840,1861,1881,1901,1921,1940,1960,1981,2000,2020,2041,2060,2081,2101,2122,2140,2160,2180,2201,2221,2240,2260,2281,2300,2322,2340,2360,2380,2401,2422],"xSR":741.5,"ySR":469.95,"xT1":424.9,"yT1":0,"xT2":1058.1,"yT2":0,"toosoon":0,"cond_shown":"Incongruent","ratio_trial":300,"L_num":4,"L_den":20,"R_num":2,"R_den":4,"correct_side":2,"subjID":"sofiacorrea26","gender":"1","school":"4","age":"9"},{"start_time":1552054193121,"click_time":1552054197477,"finger_time":1552054194717,"fix_duration":302.4627331981862,"trial":13,"RT":1596,"MT":2760,"sideResp":1,"stimulus":[],"xmouse":[799,799,799,799,799,799,799,799,799,799,799,799,799,799,799,799,799,799,799,799,799,799,799,799,799,799,799,799,799,799,799,799,799,799,799,799,799,799,799,799,799,799,799,799,799,799,799,799,799,799,799,799,799,799,799,799,799,799,799,799,799,799,799,799,799,799,799,799,799,799,799,799,797,794,790,783,777,761,750,733,713,688,680,670,652,638,628,613,609,606,604,600,596,594,593,592,591,591,589,585,583,577,575,573,570,568,566,565,564,563,563,562,562,562,562,562,562,562,562,562,562,562,562,562,562,562,564,566,572,584,600,643,676,684,714,723,726,726,722,717,714,719,726,732,734,735,739,743,745,748,749,750,750,754,757,761,770,777,780,786,789,790,790,791,793,795,797,799,801,801,802,803,803,803,806,809,810,811,811,806,799,792,781,780,778,777,775,774,772,769,764,756,739,727,716,706,687,680,673,666,660,650,615,591,584,581,577,575,572,568,563,559,556,554,552,550,525,513],"ymouse":[534,534,534,534,534,534,534,534,534,534,534,534,534,534,534,534,534,534,534,534,534,534,534,534,534,534,534,534,534,534,534,534,534,534,534,534,534,534,534,534,534,534,534,534,534,534,534,534,534,534,534,534,534,534,534,534,534,534,534,534,534,534,533,533,533,533,533,533,533,533,533,533,532,531,530,528,524,511,501,486,470,431,413,391,352,324,301,261,244,230,218,204,185,177,172,169,168,165,158,146,137,123,119,117,114,112,110,110,109,109,109,108,108,108,108,108,108,108,108,108,108,108,108,108,108,108,109,109,111,114,119,131,140,142,147,147,147,145,141,137,134,129,129,128,127,127,127,127,127,127,128,128,128,128,129,130,134,137,138,141,142,143,143,143,143,143,144,144,144,144,144,144,144,145,147,149,151,151,151,152,152,152,152,152,152,152,152,152,152,152,152,152,150,149,147,147,147,147,146,145,144,142,132,122,119,117,115,114,113,112,111,109,109,107,107,105,99,95],"timestamp_mouse":[17,37,57,77,97,117,137,156,177,196,218,236,257,276,297,316,337,356,377,396,416,437,457,476,496,516,536,557,577,597,617,637,656,676,696,717,736,756,777,796,817,837,858,876,897,916,937,958,977,996,1017,1037,1056,1076,1096,1117,1137,1157,1176,1196,1217,1236,1256,1276,1296,1317,1336,1356,1377,1396,1416,1437,1457,1476,1497,1516,1536,1557,1577,1596,1616,1638,1656,1677,1696,1717,1737,1756,1776,1797,1816,1836,1856,1876,1896,1916,1936,1956,1976,1997,2018,2038,2056,2076,2097,2117,2137,2156,2176,2196,2216,2237,2257,2277,2296,2317,2337,2357,2377,2396,2417,2436,2457,2476,2497,2516,2537,2556,2577,2597,2616,2638,2656,2677,2697,2716,2736,2756,2776,2797,2816,2838,2856,2876,2896,2917,2938,2956,2977,2997,3016,3037,3057,3076,3097,3116,3137,3156,3176,3197,3216,3237,3257,3276,3297,3316,3337,3356,3376,3396,3416,3437,3457,3477,3498,3516,3538,3556,3577,3596,3617,3636,3657,3676,3697,3717,3737,3756,3776,3797,3817,3838,3857,3876,3896,3917,3937,3956,3976,3996,4016,4037,4057,4076,4097,4116,4137,4156,4176,4197,4216,4236,4256,4277,4297,4318,4338,4356],"xSR":741.5,"ySR":469.95,"xT1":424.9,"yT1":0,"xT2":1058.1,"yT2":0,"toosoon":0,"cond_shown":"Congruent","ratio_trial":100,"L_num":3,"L_den":6,"R_num":2,"R_den":5,"correct_side":1,"subjID":"sofiacorrea26","gender":"1","school":"4","age":"9"},{"start_time":1552054198889,"click_time":1552054200938,"finger_time":1552054200538,"fix_duration":550.6090602935244,"trial":14,"RT":1649,"MT":400,"sideResp":1,"stimulus":[],"xmouse":[769,769,769,769,769,769,769,769,770,771,772,772,772,772,772,772,772,772,772,772,774,774,774,774,774,774,774,774,774,774,774,774,774,774,774,774,774,774,774,774,774,774,774,774,774,774,774,774,774,774,774,774,774,774,774,774,774,774,774,774,774,774,774,774,774,774,774,774,774,774,774,774,774,774,774,774,774,774,774,774,767,751,709,655,563,532,528,522,521,521,521,521,521,526,528,528,528,528,524,522,520,517,512],"ymouse":[532,532,532,532,532,532,532,532,531,531,531,531,531,531,531,531,531,531,531,531,532,532,532,532,532,532,532,532,532,532,532,532,532,532,532,532,532,532,532,532,532,532,532,532,532,532,532,532,532,532,533,533,533,533,533,533,533,533,533,533,533,533,533,533,533,533,533,533,533,533,533,533,533,533,533,533,533,533,533,533,532,517,482,437,337,287,279,266,254,249,244,237,229,207,196,179,165,154,137,127,117,107,97],"timestamp_mouse":[13,34,49,69,90,108,129,148,169,188,208,229,248,269,289,309,330,349,369,388,409,428,448,469,489,508,529,549,569,589,608,629,649,668,688,709,729,749,769,789,809,828,848,869,888,908,929,949,968,989,1009,1029,1048,1068,1089,1108,1129,1148,1168,1189,1209,1228,1248,1269,1289,1308,1328,1349,1370,1388,1409,1429,1449,1468,1489,1508,1529,1549,1569,1589,1609,1628,1649,1670,1688,1708,1728,1749,1770,1788,1808,1828,1848,1870,1888,1909,1929,1948,1969,1988,2009,2028,2049],"xSR":741.5,"ySR":469.95,"xT1":424.9,"yT1":0,"xT2":1058.1,"yT2":0,"toosoon":0,"cond_shown":"Congruent","ratio_trial":300,"L_num":8,"L_den":16,"R_num":1,"R_den":5,"correct_side":1,"subjID":"sofiacorrea26","gender":"1","school":"4","age":"9"},{"start_time":1552054203517,"click_time":1552054206237,"finger_time":1552054205058,"fix_duration":1276.1291952386198,"trial":15,"RT":1541,"MT":1179,"sideResp":2,"stimulus":[],"xmouse":[804,804,804,804,804,804,804,804,804,804,804,804,804,804,804,804,804,804,804,804,804,804,804,804,804,804,804,804,804,804,804,805,805,805,805,805,805,805,805,805,805,805,805,805,805,805,805,805,805,805,805,805,805,805,805,805,805,805,805,805,805,805,805,805,805,805,805,805,805,805,805,805,805,805,805,806,810,820,825,833,844,860,900,928,936,952,960,972,981,985,989,994,1000,1002,1004,1008,1011,1014,1014,1014,1015,1016,1018,1018,1016,1016,1016,1013,1009,1008,1008,1009,1011,1021,1024,1024,1024,1024,1024,1026,1031,1035,1039,1039,1039,1039,1039,1042,1045,1047,1048,1048,1048,1049,1051,1053,1059],"ymouse":[532,532,532,532,532,532,532,532,532,532,532,532,532,532,532,532,532,532,532,532,532,532,532,532,532,532,532,532,532,532,532,532,532,532,532,532,532,532,532,532,532,532,532,532,532,532,532,532,532,532,532,532,532,532,532,532,532,532,532,532,532,532,532,532,532,532,532,532,532,532,532,532,532,532,532,531,509,447,429,412,395,378,351,336,331,326,322,314,307,302,294,283,267,260,255,249,246,240,239,238,235,233,229,227,225,220,207,161,141,132,129,126,126,139,146,146,146,146,146,146,146,146,146,145,145,143,139,131,127,124,123,120,115,110,105,102,88],"timestamp_mouse":[9,21,41,61,81,100,120,140,160,181,200,221,242,260,281,300,321,341,361,381,401,421,442,461,480,501,521,540,560,580,601,621,640,660,681,701,721,740,760,781,801,821,841,861,880,902,921,940,961,980,1000,1021,1040,1061,1081,1100,1121,1141,1161,1181,1201,1220,1241,1261,1281,1302,1321,1340,1361,1381,1401,1420,1441,1460,1480,1500,1520,1541,1560,1580,1600,1621,1641,1660,1680,1700,1720,1741,1760,1780,1801,1820,1842,1860,1880,1901,1921,1941,1960,1980,2000,2020,2041,2061,2080,2101,2121,2141,2160,2180,2200,2221,2240,2260,2282,2300,2320,2341,2361,2380,2401,2421,2442,2460,2480,2501,2520,2541,2560,2580,2601,2621,2640,2661,2680,2712,2720],"xSR":741.5,"ySR":469.95,"xT1":424.9,"yT1":0,"xT2":1058.1,"yT2":0,"toosoon":0,"cond_shown":"Congruent","ratio_trial":300,"L_num":2,"L_den":20,"R_num":10,"R_den":25,"correct_side":2,"subjID":"sofiacorrea26","gender":"1","school":"4","age":"9"},{"start_time":1552054208292,"click_time":1552054210178,"finger_time":1552054209818,"fix_duration":732.6707792600256,"trial":16,"RT":1526,"MT":360,"sideResp":1,"stimulus":[],"xmouse":[799,799,799,799,799,799,799,799,799,799,799,799,799,799,799,799,799,799,799,799,799,799,799,799,799,799,799,799,799,799,799,799,799,799,799,799,799,799,799,799,799,799,799,799,799,799,799,799,799,799,799,799,799,799,799,799,799,799,799,799,799,799,799,799,799,799,799,799,799,799,799,799,799,799,800,800,800,790,768,757,748,742,735,723,719,714,704,699,688,681,674,657,622,578,508],"ymouse":[494,494,494,494,494,494,494,494,494,494,494,494,494,494,494,494,494,494,494,494,494,494,494,494,494,494,494,494,494,494,494,494,494,494,494,494,494,494,494,494,494,494,494,494,494,494,494,494,494,494,494,494,494,494,494,494,494,494,494,494,494,494,494,494,494,494,494,494,494,494,494,494,494,494,491,483,451,421,379,358,336,312,289,260,255,246,231,224,210,203,197,183,158,127,76],"timestamp_mouse":[12,35,45,65,87,105,125,145,165,185,206,225,245,265,286,306,326,345,365,386,406,426,446,465,486,505,526,545,565,586,606,625,645,666,686,706,725,745,766,786,805,825,846,866,886,905,925,946,966,985,1005,1025,1047,1066,1085,1105,1125,1145,1166,1187,1205,1226,1245,1266,1285,1305,1326,1345,1366,1385,1406,1426,1445,1465,1485,1506,1526,1545,1567,1585,1606,1625,1645,1666,1685,1705,1725,1745,1766,1786,1806,1825,1846,1865,1886],"xSR":741.5,"ySR":469.95,"xT1":424.9,"yT1":0,"xT2":1058.1,"yT2":0,"toosoon":0,"cond_shown":"Congruent","ratio_trial":100,"L_num":11,"L_den":22,"R_num":4,"R_den":10,"correct_side":1,"subjID":"sofiacorrea26","gender":"1","school":"4","age":"9"},{"start_time":1552054211754,"click_time":1552054218977,"finger_time":1552054211857,"fix_duration":274.11810264317825,"trial":17,"RT":103,"MT":7120,"sideResp":2,"stimulus":[],"xmouse":[798,798,798,813,819,824,820,816,816,816,816,816,816,816,816,816,816,816,816,815,815,810,808,804,803,801,801,801,800,799,798,798,798,798,798,798,798,798,798,798,798,797,797,797,797,797,797,797,797,797,797,797,797,797,797,797,797,797,797,797,797,797,797,797,797,797,797,797,797,797,797,797,797,797,797,797,797,797,797,797,797,797,797,797,797,797,797,797,797,797,797,797,797,797,797,797,797,797,797,797,797,797,797,797,797,797,797,797,797,797,797,797,797,797,797,797,797,797,797,797,797,797,797,797,797,797,797,797,797,797,799,808,823,851,866,887,895,898,900,901,901,901,901,901,901,900,900,899,899,899,899,899,899,899,899,899,898,898,896,894,890,879,873,873,872,872,871,869,867,864,858,858,858,858,858,857,857,856,856,856,854,852,852,851,849,843,835,828,818,808,776,749,729,699,669,594,545,542,542,542,542,542,542,542,542,542,542,542,542,542,542,542,542,542,542,542,542,542,542,542,542,542,542,542,542,542,542,542,542,542,542,542,542,542,542,542,542,542,542,542,570,624,675,750,797,845,845,845,845,845,845,845,845,845,845,845,845,845,845,845,845,845,845,762,752,747,733,718,695,677,658,650,642,641,641,641,641,641,641,641,641,641,641,641,641,641,641,641,641,641,641,641,641,641,641,641,641,641,641,641,641,641,641,664,674,675,677,680,687,695,739,793,806,824,825,825,825,824,824,823,825,834,868,913,957,975,987,987,987,987,991,1013,1022,1026,1026,1026,1026,1026,1026,1027,1029,1030,1031,1034,1034,1036,1036,1038,1039,1043,1046,1047,1048,1049,1050,1052,1053,1053,1054,1054,1057,1059],"ymouse":[507,507,507,543,562,580,605,609,609,609,609,609,609,610,610,610,610,610,610,608,596,572,569,559,552,546,544,541,534,529,525,524,524,524,524,524,524,524,524,524,524,524,524,524,524,524,524,524,524,524,524,524,524,524,524,524,524,524,524,524,524,524,524,524,524,524,524,524,524,524,524,524,524,524,524,524,524,524,524,524,524,524,524,524,524,524,524,524,524,524,524,524,524,524,524,524,524,524,524,524,524,524,524,524,524,524,524,524,524,524,524,524,524,524,524,524,524,524,524,524,524,524,524,524,524,524,524,524,524,524,524,527,527,527,527,528,528,528,528,527,526,526,526,525,523,519,517,515,514,514,514,514,514,514,514,514,513,513,513,513,513,513,513,513,513,513,513,513,513,512,510,510,510,510,510,510,510,510,510,510,510,510,510,510,510,509,507,502,497,490,464,441,422,384,347,223,133,126,126,126,126,126,126,126,126,126,126,126,126,126,126,126,126,126,126,126,126,126,126,126,126,126,126,126,126,126,126,126,126,126,126,126,126,126,126,126,126,126,126,126,157,240,331,484,600,715,715,715,715,715,715,715,715,715,715,715,715,715,715,715,715,715,715,721,710,702,674,626,555,474,330,273,221,216,216,216,216,216,216,216,216,216,216,216,216,216,216,216,216,216,216,216,216,216,216,216,216,216,216,216,216,216,216,219,219,217,206,198,188,182,174,174,177,186,186,188,188,190,194,199,213,219,221,221,221,219,195,179,165,158,154,156,156,156,155,155,153,151,148,142,130,126,119,113,108,102,100,95,91,84,79,77,75,71,69,67,66,65,65,65,63,63],"timestamp_mouse":[13,40,43,64,84,103,125,143,163,183,204,224,243,264,283,304,324,344,363,383,405,423,444,463,483,504,524,544,563,584,604,623,644,663,683,704,724,744,764,784,803,824,843,863,884,904,923,944,964,984,1003,1023,1044,1063,1084,1103,1124,1144,1164,1183,1203,1224,1244,1263,1285,1305,1324,1344,1364,1383,1405,1424,1443,1464,1484,1504,1523,1544,1563,1584,1604,1624,1643,1664,1684,1705,1724,1744,1764,1783,1803,1824,1844,1864,1884,1904,1924,1943,1964,1983,2004,2023,2043,2064,2084,2103,2124,2143,2164,2184,2205,2224,2243,2264,2283,2304,2324,2343,2363,2384,2403,2424,2444,2463,2483,2504,2524,2543,2563,2583,2604,2624,2643,2663,2683,2704,2723,2744,2763,2783,2805,2823,2843,2863,2883,2905,2923,2944,2963,2984,3004,3024,3043,3064,3083,3103,3123,3145,3163,3183,3203,3223,3243,3264,3283,3304,3324,3344,3364,3384,3405,3423,3444,3463,3484,3504,3524,3543,3563,3584,3604,3623,3643,3663,3684,3704,3723,3743,3764,3784,3804,3823,3844,3863,3883,3904,3923,3944,3963,3983,4004,4023,4043,4063,4083,4104,4123,4143,4164,4183,4204,4223,4244,4264,4284,4303,4325,4344,4363,4383,4404,4423,4443,4464,4484,4504,4524,4543,4564,4584,4604,4623,4644,4663,4684,4704,4724,4744,4763,4784,4805,4823,4843,4863,4884,4903,4924,4943,4964,4984,5004,5023,5043,5063,5084,5103,5123,5143,5163,5184,5203,5223,5244,5263,5283,5303,5323,5343,5364,5383,5404,5423,5443,5463,5484,5504,5524,5543,5564,5583,5604,5623,5644,5664,5684,5704,5723,5743,5764,5784,5804,5823,5843,5863,5883,5904,5923,5943,5963,5983,6004,6024,6044,6064,6083,6104,6123,6144,6164,6183,6204,6223,6243,6264,6284,6304,6323,6343,6364,6383,6404,6423,6444,6464,6484,6504,6523,6543,6564,6583,6603,6623,6643,6663,6684,6704,6723,6743,6763,6783,6803,6823,6843,6863,6885,6904,6923,6943,6963,6983,7005,7023,7043,7064,7083,7103,7123,7143,7163,7184,7204,7223],"xSR":741.5,"ySR":469.95,"xT1":424.9,"yT1":0,"xT2":1058.1,"yT2":0,"toosoon":0,"cond_shown":"Incongruent","ratio_trial":100,"L_num":11,"L_den":22,"R_num":9,"R_den":15,"correct_side":2,"subjID":"sofiacorrea26","gender":"1","school":"4","age":"9"},{"start_time":1552054221326,"click_time":1552054226198,"finger_time":1552054222938,"fix_duration":927.2020705880368,"trial":18,"RT":1612,"MT":3260,"sideResp":2,"stimulus":[],"xmouse":[794,794,794,794,794,794,794,794,795,795,795,795,795,795,795,795,795,795,795,795,795,795,797,797,797,797,797,797,797,797,797,797,797,797,797,797,797,797,797,797,797,797,797,797,797,797,797,797,797,797,797,797,797,797,797,797,797,797,797,797,797,797,797,797,797,797,797,797,797,798,798,799,799,801,801,801,799,796,792,791,795,834,915,921,921,921,920,927,941,965,1007,1073,1226,1341,1415,1475,1475,1475,1475,1475,1475,1475,1475,1475,1475,1475,1475,1475,1475,1475,1475,1475,1475,1475,1475,1475,1475,1475,1475,1475,1475,1475,1475,1475,1475,1475,1475,1475,1475,1475,1301,1288,1263,1248,1231,1226,1223,1219,1215,1214,1213,1213,1212,1212,1211,1210,1209,1209,1209,1208,1208,1204,1202,1201,1201,1201,1201,1201,1199,1199,1196,1193,1185,1185,1185,1185,1185,1185,1185,1186,1191,1197,1200,1200,1200,1200,1200,1200,1200,1200,1200,1201,1201,1200,1200,1200,1200,1200,1200,1200,1200,1200,1200,1200,1200,1200,1200,1200,1200,1200,1200,1200,1200,1200,1200,1200,1200,1200,1200,1200,1200,1200,1200,1200,1200,1200,1200,1197,1194,1190,1186,1184,1184,1184,1184,1184,1184,1184,1184,1184,1184,1184,1184,1184,1184,1184,1184,1178,1175,1172,1171,1166,1160,1154],"ymouse":[522,522,522,522,522,522,522,522,522,522,522,522,522,522,522,522,522,522,522,522,522,522,523,523,523,523,523,523,523,523,523,523,523,523,523,523,523,523,523,523,523,523,523,523,523,523,523,523,523,523,523,523,523,523,523,523,523,523,523,523,523,523,523,523,523,523,523,523,523,521,519,513,504,500,498,495,488,484,479,475,457,435,420,414,407,401,391,387,380,371,358,331,254,168,96,26,26,26,26,26,26,26,26,26,26,26,26,26,26,26,26,26,26,26,26,26,26,26,26,26,26,26,26,26,26,26,26,26,26,26,0,18,52,65,77,81,83,87,89,90,90,90,90,90,90,90,89,89,89,89,89,89,89,89,89,89,89,89,89,89,87,85,81,80,80,80,80,80,80,80,79,78,78,78,78,78,78,78,78,78,78,78,77,77,77,77,77,77,77,77,77,77,77,77,77,77,77,77,77,77,77,77,77,77,77,77,77,77,77,77,77,77,77,77,77,77,77,77,79,81,84,87,89,91,92,92,93,94,94,94,94,94,94,94,94,94,94,92,91,89,89,86,84,83],"timestamp_mouse":[12,32,52,71,91,111,131,151,172,192,212,231,251,272,292,311,331,352,372,392,412,431,451,471,492,512,532,552,572,592,612,632,652,671,691,711,731,752,771,792,811,831,852,872,891,912,932,952,972,991,1011,1032,1052,1071,1092,1112,1132,1151,1172,1192,1211,1231,1252,1272,1292,1312,1332,1351,1371,1392,1411,1431,1452,1472,1492,1511,1532,1552,1572,1591,1612,1633,1651,1671,1693,1711,1732,1751,1772,1791,1812,1833,1851,1871,1892,1911,1932,1951,1971,1992,2011,2032,2051,2071,2092,2112,2132,2151,2171,2191,2211,2232,2252,2272,2291,2311,2332,2351,2372,2392,2411,2432,2451,2471,2492,2511,2531,2552,2572,2592,2611,2633,2651,2671,2691,2711,2731,2751,2772,2791,2811,2832,2851,2871,2891,2912,2932,2951,2971,2991,3011,3033,3051,3072,3091,3111,3131,3151,3171,3191,3211,3232,3251,3272,3292,3311,3331,3351,3372,3391,3411,3431,3452,3471,3492,3511,3532,3551,3572,3592,3612,3632,3652,3672,3692,3712,3732,3752,3771,3792,3811,3832,3852,3871,3892,3912,3932,3952,3972,3991,4012,4032,4052,4071,4091,4111,4132,4152,4171,4191,4212,4232,4251,4272,4291,4312,4332,4352,4371,4391,4412,4432,4451,4471,4491,4512,4532,4552,4572,4592,4612,4631,4652,4672,4692,4712,4731,4752,4771,4792,4811,4832,4851,4871],"xSR":741.5,"ySR":469.95,"xT1":424.9,"yT1":0,"xT2":1058.1,"yT2":0,"toosoon":0,"cond_shown":"Congruent","ratio_trial":100,"L_num":2,"L_den":5,"R_num":6,"R_den":12,"correct_side":2,"subjID":"sofiacorrea26","gender":"1","school":"4","age":"9"},{"start_time":1552054228945,"click_time":1552054233918,"finger_time":1552054231258,"fix_duration":366.070489326224,"trial":19,"RT":2313,"MT":2660,"sideResp":1,"stimulus":[],"xmouse":[831,831,831,831,829,829,826,825,823,821,820,807,800,774,764,761,761,761,761,761,761,761,761,761,761,761,761,761,761,761,761,761,761,761,761,761,761,761,761,761,761,761,761,761,761,761,761,761,761,761,761,761,761,761,761,761,761,761,761,761,761,761,761,761,761,761,761,761,761,761,761,761,761,761,761,761,761,761,761,761,761,761,761,761,761,761,761,761,761,761,761,761,761,761,761,761,761,761,761,761,761,761,761,761,761,761,761,761,761,761,761,784,811,824,838,870,887,912,973,1073,1274,1311,1311,1311,1311,1311,1311,1311,1311,1311,1311,1311,1311,1311,1201,1114,1050,976,911,849,762,725,702,701,695,695,695,695,695,695,695,695,695,695,695,695,695,695,695,695,695,695,695,695,695,695,695,695,695,695,695,695,695,696,717,718,682,682,682,682,682,682,682,682,682,682,682,682,682,682,682,682,682,682,682,682,682,682,682,682,682,682,682,682,682,682,682,682,682,1552,1474,1297,1239,1190,1173,1168,1166,1155,1134,1096,1044,916,855,820,820,820,820,820,820,820,820,820,820,820,820,820,820,820,820,820,820,820,820,820,405,415,423,424,427],"ymouse":[513,513,512,512,512,513,515,516,518,520,522,527,529,541,544,544,544,544,544,544,544,544,544,544,544,544,544,544,544,544,544,544,544,544,544,544,544,544,544,544,544,544,544,544,544,544,544,544,544,544,544,544,544,544,544,544,544,544,544,544,544,544,544,544,544,544,544,544,544,544,544,544,544,544,544,544,544,544,544,544,544,544,544,544,544,544,544,544,544,544,544,544,544,544,544,544,544,544,544,544,544,544,544,544,544,544,544,544,544,544,544,544,544,544,541,533,530,529,528,540,658,695,695,695,695,695,695,695,695,695,695,695,695,695,706,618,550,476,403,328,208,160,133,132,120,118,118,118,118,118,118,118,118,118,118,118,118,118,118,118,118,118,118,118,118,118,118,118,118,118,118,118,118,122,237,506,659,659,659,659,659,659,659,659,659,659,659,659,659,659,659,659,659,659,659,659,659,659,659,659,659,659,659,659,659,659,659,659,659,274,322,432,474,494,494,486,463,426,375,306,220,76,28,10,10,10,10,10,10,10,10,10,10,10,10,10,10,10,10,10,10,10,10,10,1,3,6,7,9],"timestamp_mouse":[13,37,53,73,92,112,133,152,173,192,212,233,253,272,292,312,333,352,372,392,413,433,452,472,492,512,533,552,572,592,612,633,653,672,692,712,732,753,773,793,813,832,852,872,892,913,933,952,972,993,1012,1034,1052,1073,1092,1112,1133,1153,1172,1193,1213,1233,1253,1272,1292,1312,1332,1353,1373,1393,1413,1432,1453,1472,1492,1513,1533,1552,1573,1593,1612,1633,1653,1673,1692,1713,1732,1753,1773,1793,1813,1833,1852,1872,1893,1912,1933,1953,1973,1992,2013,2033,2053,2073,2092,2113,2133,2152,2172,2193,2212,2232,2253,2273,2293,2313,2332,2352,2373,2392,2414,2433,2452,2473,2492,2512,2532,2552,2573,2593,2613,2632,2652,2672,2692,2714,2732,2753,2773,2792,2812,2832,2852,2873,2892,2913,2933,2952,2973,2993,3013,3033,3053,3073,3093,3113,3133,3152,3173,3194,3213,3233,3252,3273,3293,3313,3332,3353,3372,3392,3413,3433,3452,3473,3492,3514,3532,3552,3572,3593,3613,3633,3653,3673,3692,3712,3732,3753,3772,3792,3813,3832,3853,3873,3893,3913,3932,3953,3972,3992,4013,4032,4053,4072,4092,4113,4133,4152,4173,4193,4212,4232,4252,4273,4293,4314,4332,4353,4372,4392,4414,4433,4454,4472,4493,4513,4533,4552,4572,4592,4613,4633,4653,4672,4693,4713,4732,4752,4772,4793,4813,4833,4853,4872,4892,4912,4933,4952,4973],"xSR":741.5,"ySR":469.95,"xT1":424.9,"yT1":0,"xT2":1058.1,"yT2":0,"toosoon":0,"cond_shown":"Incongruent","ratio_trial":200,"L_num":11,"L_den":20,"R_num":3,"R_den":4,"correct_side":2,"subjID":"sofiacorrea26","gender":"1","school":"4","age":"9"},{"start_time":1552054235835,"click_time":1552054238418,"finger_time":1552054237937,"fix_duration":736.6359754809084,"trial":20,"RT":2102,"MT":481,"sideResp":1,"stimulus":[],"xmouse":[792,792,792,792,792,792,792,792,792,792,792,792,792,792,792,792,792,792,792,792,792,792,792,792,792,792,792,792,792,792,792,792,792,792,792,792,792,792,792,792,792,792,792,792,792,792,792,792,792,792,791,791,791,790,790,789,789,788,787,786,786,786,786,786,786,786,786,786,786,786,786,786,786,786,786,786,786,785,785,784,784,784,783,781,780,779,779,779,779,779,779,779,779,779,779,779,779,779,779,779,779,779,778,776,774,768,758,707,677,629,608,584,570,555,550,544,535,534,533,532,532,531,531,531,531,530,527,525,525,522],"ymouse":[480,480,480,480,480,480,480,480,480,480,480,480,480,481,481,481,481,481,481,481,481,481,481,481,481,481,481,481,481,481,481,481,481,481,481,481,481,481,481,481,481,481,481,481,481,481,481,481,481,481,481,481,481,481,481,481,481,482,482,483,483,483,483,483,483,483,483,483,483,483,483,483,483,483,483,483,483,483,483,483,483,483,483,483,483,483,483,483,483,483,483,483,482,479,479,479,479,479,479,479,479,476,475,473,471,463,445,369,314,214,177,144,129,116,113,113,112,112,111,107,103,100,100,100,100,99,98,98,98,96],"timestamp_mouse":[12,23,42,62,83,103,123,142,162,182,203,224,242,262,282,302,323,343,363,382,403,423,442,463,483,503,522,543,561,583,602,623,642,662,683,703,722,742,762,783,803,823,842,863,882,902,922,941,961,983,1002,1022,1043,1062,1083,1102,1123,1143,1163,1182,1202,1222,1243,1263,1283,1302,1322,1343,1362,1383,1403,1423,1441,1463,1483,1503,1523,1541,1563,1582,1603,1623,1642,1662,1683,1702,1722,1743,1763,1783,1802,1822,1842,1862,1883,1902,1922,1943,1963,1983,2003,2021,2042,2062,2082,2102,2124,2142,2162,2182,2203,2223,2242,2262,2281,2302,2323,2342,2362,2383,2402,2423,2442,2462,2483,2503,2523,2541,2562,2583],"xSR":741.5,"ySR":469.95,"xT1":424.9,"yT1":0,"xT2":1058.1,"yT2":0,"toosoon":0,"cond_shown":"Incongruent","ratio_trial":100,"L_num":3,"L_den":5,"R_num":11,"R_den":22,"correct_side":1,"subjID":"sofiacorrea26","gender":"1","school":"4","age":"9"},{"start_time":1552054240570,"click_time":1552054242159,"finger_time":1552054241978,"fix_duration":991.0167537250597,"trial":21,"RT":1408,"MT":181,"sideResp":2,"stimulus":[],"xmouse":[763,763,763,763,763,763,763,763,763,763,763,763,763,763,763,763,763,763,763,763,763,763,763,763,763,763,763,763,763,763,763,763,763,763,763,763,763,763,763,763,763,763,763,763,763,763,764,764,764,764,764,764,764,764,764,764,764,764,763,763,763,763,763,763,763,763,763,766,776,794,854,913,989,1041,1041,1077,1091,1105,1112,1117],"ymouse":[528,528,528,528,528,528,528,528,528,528,528,528,528,528,528,528,528,528,528,528,528,528,528,528,528,528,528,528,528,528,528,528,528,528,528,528,528,528,528,528,528,528,528,528,528,528,529,529,534,535,537,539,539,539,540,540,541,541,541,541,542,542,542,542,542,542,542,542,534,517,445,395,335,288,288,230,198,161,131,87],"timestamp_mouse":[12,40,47,67,88,107,127,148,167,187,206,228,248,267,288,307,328,348,368,388,407,427,448,467,488,508,528,548,568,587,608,628,647,668,687,707,726,748,768,788,806,828,847,867,888,908,927,947,968,987,1007,1027,1046,1068,1088,1108,1127,1148,1167,1187,1207,1228,1247,1268,1287,1307,1328,1348,1368,1388,1408,1427,1448,1477,1488,1508,1527,1547,1566,1589],"xSR":741.5,"ySR":469.95,"xT1":424.9,"yT1":0,"xT2":1058.1,"yT2":0,"toosoon":0,"cond_shown":"Incongruent","ratio_trial":200,"L_num":14,"L_den":30,"R_num":12,"R_den":18,"correct_side":2,"subjID":"sofiacorrea26","gender":"1","school":"4","age":"9"},{"start_time":1552054244208,"click_time":1552054246537,"finger_time":1552054245817,"fix_duration":948.7017021397892,"trial":22,"RT":1609,"MT":720,"sideResp":2,"stimulus":[],"xmouse":[779,779,779,779,779,779,779,779,779,779,779,779,779,779,779,779,779,779,779,779,779,779,779,779,779,779,779,779,779,779,779,779,779,779,779,779,779,779,779,779,779,779,779,779,779,779,779,779,779,779,779,779,779,779,779,779,779,779,779,779,779,779,779,779,779,779,779,779,779,779,779,779,779,779,779,779,779,779,768,756,699,641,567,556,555,553,553,553,553,553,553,553,553,553,555,555,555,555,555,556,560,568,595,613,630,640,645,656,712,758,825,870,932,1044,1074,1087,1101],"ymouse":[506,506,506,507,507,508,509,509,509,509,509,509,509,509,509,509,509,509,509,509,509,509,509,509,509,509,509,509,509,509,509,509,509,509,509,509,509,509,509,509,509,509,509,509,509,509,509,509,509,509,509,509,509,509,509,509,509,509,509,509,509,509,509,509,509,509,509,509,509,509,509,509,509,509,509,509,509,509,499,486,433,385,310,293,288,286,284,284,284,284,284,284,284,284,284,284,284,284,284,284,284,284,287,292,297,300,301,301,291,279,263,247,219,164,139,116,92],"timestamp_mouse":[12,35,50,69,89,110,129,149,170,189,209,228,250,270,289,310,330,349,370,390,409,430,448,469,490,510,529,549,569,590,610,629,650,670,689,710,729,749,769,789,810,830,850,870,890,910,929,949,970,989,1009,1030,1049,1069,1088,1109,1129,1148,1169,1190,1210,1230,1250,1270,1289,1310,1329,1349,1370,1390,1409,1428,1449,1470,1489,1508,1529,1549,1568,1589,1609,1630,1650,1669,1689,1709,1729,1750,1769,1790,1810,1829,1850,1868,1889,1909,1928,1949,1969,1989,2009,2029,2050,2070,2089,2110,2129,2150,2170,2189,2210,2230,2250,2270,2289,2309,2329],"xSR":741.5,"ySR":469.95,"xT1":424.9,"yT1":0,"xT2":1058.1,"yT2":0,"toosoon":0,"cond_shown":"Congruent","ratio_trial":100,"L_num":1,"L_den":2,"R_num":18,"R_den":30,"correct_side":2,"subjID":"sofiacorrea26","gender":"1","school":"4","age":"9"},{"start_time":1552054248062,"click_time":1552054251718,"finger_time":1552054250037,"fix_duration":403.1276637897282,"trial":23,"RT":1975,"MT":1681,"sideResp":1,"stimulus":[],"xmouse":[824,824,824,824,824,824,824,824,824,824,824,824,824,824,824,824,824,824,824,824,824,824,824,824,824,824,824,824,824,824,824,824,824,824,824,824,824,824,824,824,824,824,824,824,824,824,824,824,824,824,824,824,824,824,824,824,824,824,824,824,824,824,824,824,824,824,824,824,824,824,824,824,824,824,824,824,824,824,824,824,824,824,824,824,824,824,824,824,824,824,824,824,824,824,824,824,824,832,843,884,908,926,939,945,946,946,946,946,946,946,946,944,940,930,910,901,893,884,880,874,873,871,871,871,870,870,870,869,868,860,858,856,854,852,851,847,847,846,843,838,837,837,837,836,836,836,836,833,823,790,764,708,637,573,458,418,393,380,370,363,356,349,347,345,345,345,345,345,345,353,360,368,375,381,385,396,398,405,408,417,421,423,425],"ymouse":[529,529,529,529,529,529,529,529,529,529,529,529,529,529,529,529,529,529,529,529,529,529,529,529,529,529,529,529,529,529,529,529,529,529,529,529,529,529,529,529,529,529,529,529,529,529,529,529,529,529,529,529,529,529,529,529,529,529,529,529,529,529,529,529,529,529,529,529,529,529,529,529,529,529,529,529,529,529,529,529,529,529,529,529,529,529,529,529,529,529,529,529,529,529,529,529,529,526,520,495,482,473,469,468,468,468,468,468,468,468,468,469,472,476,486,492,495,501,504,507,508,508,509,509,509,509,509,511,511,515,516,517,517,518,520,521,522,523,525,528,529,529,529,529,529,529,529,529,529,519,504,468,420,366,248,198,160,133,111,83,67,53,44,41,40,40,40,39,39,39,39,41,42,43,44,47,48,49,50,53,54,56,57],"timestamp_mouse":[16,36,56,76,95,115,136,156,176,195,215,235,256,275,295,316,335,355,376,396,415,435,456,476,495,516,536,555,576,595,616,635,656,676,696,714,735,756,775,795,816,835,855,875,895,914,936,955,975,995,1014,1035,1056,1076,1095,1115,1135,1155,1175,1196,1215,1234,1256,1275,1296,1315,1336,1356,1375,1396,1416,1435,1456,1475,1496,1516,1536,1555,1575,1595,1616,1635,1654,1676,1696,1715,1736,1756,1775,1796,1816,1835,1856,1876,1896,1916,1935,1956,1975,1996,2014,2035,2055,2076,2095,2116,2135,2155,2175,2195,2215,2236,2255,2275,2297,2315,2335,2355,2375,2396,2415,2435,2455,2475,2494,2515,2536,2555,2575,2596,2615,2635,2655,2676,2695,2716,2735,2755,2776,2796,2814,2834,2855,2874,2896,2916,2936,2954,2975,2995,3015,3035,3055,3075,3097,3115,3135,3155,3175,3196,3215,3235,3255,3276,3296,3314,3335,3355,3375,3396,3415,3435,3455,3476,3496,3515,3535,3555,3575,3596,3615,3635,3656],"xSR":741.5,"ySR":469.95,"xT1":424.9,"yT1":0,"xT2":1058.1,"yT2":0,"toosoon":0,"cond_shown":"Congruent","ratio_trial":100,"L_num":11,"L_den":22,"R_num":4,"R_den":10,"correct_side":1,"subjID":"sofiacorrea26","gender":"1","school":"4","age":"9"},{"start_time":1552054253921,"click_time":1552054256077,"finger_time":1552054255597,"fix_duration":1102.244201036828,"trial":24,"RT":1676,"MT":480,"sideResp":2,"stimulus":[],"xmouse":[790,790,790,790,790,790,790,790,790,790,790,790,790,790,790,790,790,790,790,790,790,790,790,790,790,790,790,790,790,790,790,790,790,790,790,790,790,790,790,790,790,790,790,790,790,790,790,790,790,790,790,790,790,790,790,790,790,790,790,790,790,790,790,790,790,790,790,790,790,790,790,790,790,790,790,790,790,790,790,790,792,811,834,860,896,917,935,963,974,992,1008,1037,1049,1057,1066,1070,1071,1072,1073,1074,1074,1075,1075,1076,1083,1087,1096,1100],"ymouse":[534,534,534,534,534,534,534,534,534,534,534,534,534,534,534,534,534,534,534,534,534,534,534,534,534,534,534,534,534,534,534,534,534,534,534,534,534,534,534,534,534,534,534,534,534,534,534,534,534,534,534,534,534,534,534,534,534,534,534,535,535,535,535,535,535,535,535,535,535,535,535,535,535,535,535,535,535,535,535,535,530,510,483,451,401,371,344,295,274,252,227,185,165,151,137,133,132,132,133,134,134,135,135,135,126,120,107,99],"timestamp_mouse":[20,44,56,77,95,117,137,156,175,197,217,236,256,277,297,317,337,357,377,397,417,436,456,477,496,517,537,556,577,596,616,637,657,677,697,716,736,757,776,797,815,835,857,876,897,917,936,956,977,996,1016,1037,1056,1077,1097,1117,1136,1157,1176,1195,1217,1237,1257,1275,1297,1317,1336,1356,1376,1396,1415,1437,1457,1477,1496,1517,1536,1556,1577,1597,1616,1637,1657,1676,1697,1716,1736,1757,1776,1796,1816,1838,1856,1877,1897,1916,1937,1956,1976,1997,2016,2036,2056,2076,2095,2117,2138,2155],"xSR":741.5,"ySR":469.95,"xT1":424.9,"yT1":0,"xT2":1058.1,"yT2":0,"toosoon":0,"cond_shown":"Congruent","ratio_trial":200,"L_num":1,"L_den":2,"R_num":21,"R_den":30,"correct_side":2,"subjID":"sofiacorrea26","gender":"1","school":"4","age":"9"},{"start_time":1552054257721,"click_time":1552054261817,"finger_time":1552054259258,"fix_duration":941.9500250893142,"trial":25,"RT":1537,"MT":2559,"sideResp":2,"stimulus":[],"xmouse":[806,806,806,806,806,806,806,806,806,806,806,806,806,806,806,806,806,806,806,806,806,806,806,806,806,806,806,806,806,806,806,806,806,806,806,806,806,806,806,806,806,806,806,806,806,806,806,806,806,806,806,806,806,806,806,806,806,806,806,806,806,806,806,806,806,806,806,806,806,806,806,806,804,802,799,798,746,656,556,445,341,301,295,295,295,295,295,295,295,295,295,295,295,295,296,298,299,300,300,300,300,300,300,300,302,302,303,303,303,303,303,303,303,303,303,303,303,303,303,303,304,309,314,323,330,339,349,370,379,387,393,404,409,409,410,410,414,419,426,435,442,447,465,475,487,494,502,521,530,540,549,555,570,581,585,589,603,608,615,623,631,642,678,692,704,712,718,719,720,722,725,728,731,732,746,757,766,788,799,814,830,851,922,981,1026,1041,1062,1077,1099,1129,1148,1164,1166,1165,1158,1151,1145,1132,1127,1120,1109,1098,1092,1096,1104],"ymouse":[500,500,500,500,500,500,500,500,500,500,500,500,500,500,500,500,500,500,500,500,500,500,500,500,500,500,500,500,500,500,500,500,500,500,500,500,500,500,500,500,500,500,500,500,500,500,500,500,500,500,500,500,500,500,500,500,500,500,500,500,500,500,500,500,500,500,500,500,500,500,500,500,497,495,493,493,462,411,365,311,256,231,224,224,223,223,223,222,222,222,222,222,222,222,221,221,221,222,222,222,223,223,225,227,229,230,230,230,230,230,230,230,230,230,230,230,230,230,230,230,230,232,235,240,246,253,261,280,290,297,304,313,317,317,318,319,327,335,347,359,371,379,404,416,431,442,453,477,492,504,515,521,532,538,541,542,546,548,549,552,553,557,573,579,584,587,591,591,591,591,591,591,588,587,577,569,562,546,537,526,515,503,473,451,421,399,353,337,327,319,312,297,285,262,246,229,217,197,187,176,160,142,110,102,94],"timestamp_mouse":[16,37,56,77,97,115,136,157,176,195,216,236,255,276,297,317,336,357,376,396,416,437,455,477,497,517,537,557,576,595,616,636,655,677,696,716,736,757,777,796,816,836,857,875,897,915,937,957,976,996,1016,1036,1056,1077,1097,1117,1136,1157,1177,1197,1217,1237,1257,1276,1297,1315,1335,1357,1377,1396,1417,1437,1457,1477,1496,1516,1537,1556,1576,1595,1615,1636,1656,1676,1697,1717,1736,1757,1777,1797,1817,1837,1856,1877,1897,1916,1935,1956,1976,1997,2016,2037,2057,2076,2096,2116,2137,2156,2176,2197,2217,2237,2256,2276,2296,2315,2337,2357,2376,2397,2416,2437,2456,2477,2496,2517,2536,2557,2576,2597,2617,2638,2655,2676,2697,2717,2737,2756,2776,2796,2817,2836,2857,2875,2896,2916,2936,2956,2976,2997,3017,3037,3057,3076,3097,3117,3137,3156,3176,3195,3216,3236,3256,3275,3296,3317,3337,3356,3376,3396,3416,3437,3455,3476,3496,3517,3536,3557,3577,3597,3616,3636,3656,3677,3696,3716,3738,3756,3776,3797,3816,3837,3856,3877,3897,3915,3935,3957,3976,3997,4016,4037,4056,4075,4095],"xSR":741.5,"ySR":469.95,"xT1":424.9,"yT1":0,"xT2":1058.1,"yT2":0,"toosoon":0,"cond_shown":"Incongruent","ratio_trial":200,"L_num":3,"L_den":10,"R_num":1,"R_den":2,"correct_side":2,"subjID":"sofiacorrea26","gender":"1","school":"4","age":"9"},{"start_time":1552054263030,"click_time":1552054265177,"finger_time":1552054264678,"fix_duration":250,"trial":26,"RT":1648,"MT":499,"sideResp":1,"stimulus":[],"xmouse":[789,789,789,789,789,789,789,789,789,789,789,789,789,789,789,789,789,789,789,789,789,789,789,789,789,789,789,789,789,789,789,789,789,789,789,789,789,789,789,789,789,789,789,789,789,789,789,789,789,789,789,789,789,789,789,789,789,789,789,789,789,789,789,789,789,789,789,789,789,789,789,789,789,789,789,789,789,787,784,777,763,753,735,727,721,720,717,707,683,670,618,578,526,524,525,531,537,538,538,538,538,538,537,535,532,528,517,510],"ymouse":[507,507,507,507,507,507,507,507,507,507,507,507,507,507,507,507,507,507,507,507,507,507,507,507,507,507,507,507,507,507,507,507,507,507,507,507,507,507,507,507,507,507,507,507,507,507,507,507,507,507,507,507,507,507,507,507,507,507,507,507,507,507,507,507,507,507,507,507,507,507,507,507,507,507,507,508,508,510,510,509,502,499,489,485,482,480,477,467,444,430,372,321,241,224,209,196,175,164,154,146,142,137,135,130,125,117,105,99],"timestamp_mouse":[12,41,48,68,87,108,127,148,167,187,207,226,248,268,287,308,328,348,368,388,408,428,448,468,487,508,528,547,567,588,607,628,648,667,687,707,728,748,768,787,808,826,848,868,887,908,928,946,967,988,1007,1028,1048,1067,1088,1108,1127,1147,1168,1187,1208,1228,1248,1266,1288,1307,1327,1348,1368,1387,1408,1427,1448,1467,1488,1507,1528,1548,1567,1588,1607,1627,1648,1667,1687,1707,1726,1747,1767,1788,1808,1826,1846,1867,1887,1908,1928,1946,1968,1987,2007,2028,2046,2067,2087,2107,2129,2147],"xSR":741.5,"ySR":469.95,"xT1":424.9,"yT1":0,"xT2":1058.1,"yT2":0,"toosoon":0,"cond_shown":"Congruent","ratio_trial":300,"L_num":3,"L_den":6,"R_num":2,"R_den":10,"correct_side":1,"subjID":"sofiacorrea26","gender":"1","school":"4","age":"9"},{"start_time":1552054268644,"click_time":1552054270817,"finger_time":1552054269858,"fix_duration":1123.3085166465182,"trial":27,"RT":1214,"MT":959,"sideResp":2,"stimulus":[],"xmouse":[774,774,774,774,774,774,774,774,774,774,774,774,774,774,774,774,774,774,774,774,774,774,774,774,774,774,774,774,774,774,774,774,774,774,774,774,774,774,774,774,774,774,774,774,774,774,774,774,774,774,774,774,775,776,780,784,787,793,798,802,810,815,821,827,833,851,869,875,892,904,928,940,962,987,1009,1042,1051,1057,1062,1067,1075,1078,1083,1087,1087,1089,1089,1090,1093,1095,1095,1095,1095,1095,1096,1097,1100,1100,1101,1101,1101,1101,1101,1100,1099,1099,1099,1099,1099],"ymouse":[521,521,521,521,521,521,521,521,521,521,521,521,521,521,521,521,521,521,521,521,521,521,521,521,521,521,521,521,521,521,521,521,521,521,521,521,521,521,521,521,521,521,521,521,521,521,521,521,521,521,521,521,521,521,521,515,509,495,486,479,469,462,456,450,444,420,394,385,360,345,323,315,300,282,262,228,215,209,204,199,186,177,165,158,153,149,149,146,138,134,128,128,128,128,127,127,128,128,127,125,122,119,114,109,104,101,101,101,98],"timestamp_mouse":[20,39,53,74,93,113,133,153,173,193,214,234,253,273,293,314,334,354,374,393,414,434,453,474,494,513,533,553,573,593,614,634,652,674,694,713,733,752,774,794,814,834,854,874,892,913,934,953,974,993,1013,1034,1053,1073,1093,1114,1133,1153,1173,1192,1214,1233,1254,1274,1293,1315,1333,1353,1372,1394,1413,1433,1453,1473,1493,1515,1533,1553,1574,1594,1614,1632,1653,1673,1694,1714,1733,1753,1772,1793,1814,1833,1853,1873,1893,1913,1934,1953,1973,1993,2014,2034,2053,2074,2094,2114,2133,2153,2173],"xSR":741.5,"ySR":469.95,"xT1":424.9,"yT1":0,"xT2":1058.1,"yT2":0,"toosoon":0,"cond_shown":"Congruent","ratio_trial":200,"L_num":6,"L_den":12,"R_num":7,"R_den":10,"correct_side":2,"subjID":"sofiacorrea26","gender":"1","school":"4","age":"9"},{"start_time":1552054276999,"click_time":1552054278817,"finger_time":1552054278678,"fix_duration":1301.9540826517068,"trial":28,"RT":1679,"MT":139,"sideResp":1,"stimulus":[],"xmouse":[807,807,807,807,807,807,807,807,807,807,807,807,807,807,807,807,807,807,807,807,807,807,807,807,807,807,807,807,807,807,807,807,807,807,807,807,807,807,807,807,807,807,807,807,807,807,807,807,807,807,807,807,807,807,807,807,807,807,807,807,807,807,807,807,807,807,807,807,807,807,807,807,807,807,807,807,807,807,807,807,807,807,805,779,744,701,651,551,528,521,519],"ymouse":[506,506,506,506,506,506,506,506,506,506,506,506,506,506,506,506,506,506,506,506,506,506,506,506,506,506,506,506,506,506,506,506,506,506,506,506,506,506,506,506,506,506,506,506,506,506,506,506,506,506,506,506,506,506,506,506,506,506,506,506,506,506,506,506,506,506,506,506,506,506,506,506,506,506,506,506,506,506,506,506,506,506,504,466,417,352,283,165,128,111,99],"timestamp_mouse":[19,37,59,79,98,119,137,159,179,198,219,239,258,278,299,318,339,359,378,398,419,439,459,478,498,519,538,558,579,597,619,638,658,677,699,719,738,758,779,799,818,839,859,879,897,919,939,958,979,998,1019,1038,1058,1078,1098,1119,1138,1159,1179,1197,1219,1238,1258,1277,1299,1319,1338,1358,1378,1399,1417,1439,1459,1478,1499,1518,1538,1557,1579,1599,1619,1637,1659,1679,1698,1718,1738,1760,1778,1798,1818],"xSR":741.5,"ySR":469.95,"xT1":424.9,"yT1":0,"xT2":1058.1,"yT2":0,"toosoon":0,"cond_shown":"Congruent","ratio_trial":200,"L_num":12,"L_den":20,"R_num":6,"R_den":15,"correct_side":1,"subjID":"sofiacorrea26","gender":"1","school":"4","age":"9"},{"start_time":1552054281869,"click_time":1552054283678,"finger_time":1552054283398,"fix_duration":250,"trial":29,"RT":1529,"MT":280,"sideResp":1,"stimulus":[],"xmouse":[778,778,778,778,778,778,778,778,778,778,778,778,778,778,778,778,778,778,778,778,778,777,777,777,777,777,777,777,777,777,777,777,777,777,777,776,776,776,776,776,776,776,776,776,776,776,776,776,776,776,776,776,776,776,776,776,776,776,776,776,776,776,776,776,776,776,776,776,776,776,776,776,776,775,768,754,731,670,637,600,595,590,589,586,585,572,566,552,537,524,497],"ymouse":[531,531,531,531,531,531,531,531,531,531,531,531,531,531,531,531,531,531,531,531,531,531,531,531,531,531,531,531,531,531,531,531,531,531,531,531,531,531,531,531,531,531,531,531,531,531,531,531,531,531,531,531,531,531,531,531,531,531,531,531,531,531,531,531,531,531,531,531,531,531,531,531,531,531,528,517,493,412,370,306,288,272,259,250,239,200,189,155,130,108,67],"timestamp_mouse":[13,40,49,68,88,108,128,148,168,189,209,229,248,267,288,309,329,347,369,388,407,428,449,469,488,508,529,548,568,588,609,628,648,669,689,708,729,749,768,787,809,828,848,869,889,909,927,949,968,989,1008,1029,1047,1068,1088,1109,1128,1148,1169,1188,1208,1229,1249,1269,1288,1307,1329,1348,1369,1389,1408,1429,1449,1468,1488,1509,1529,1547,1568,1590,1608,1628,1649,1669,1689,1708,1728,1749,1768,1788,1809],"xSR":741.5,"ySR":469.95,"xT1":424.9,"yT1":0,"xT2":1058.1,"yT2":0,"toosoon":0,"cond_shown":"Incongruent","ratio_trial":300,"L_num":4,"L_den":5,"R_num":8,"R_den":16,"correct_side":1,"subjID":"sofiacorrea26","gender":"1","school":"4","age":"9"},{"start_time":1552054285607,"click_time":1552054286737,"finger_time":1552054286457,"fix_duration":987.111133638068,"trial":30,"RT":850,"MT":280,"sideResp":2,"stimulus":[],"xmouse":[782,782,782,782,782,782,782,782,782,782,782,782,782,782,782,782,782,782,782,782,782,782,782,782,782,782,782,782,782,782,782,782,782,782,782,782,782,782,782,782,783,790,840,874,906,938,958,975,1013,1030,1038,1043,1050,1054,1055,1058,1060],"ymouse":[489,489,489,489,489,489,489,489,489,490,492,492,492,492,492,492,492,492,492,492,492,492,492,492,492,492,492,492,492,492,492,492,492,492,492,492,492,492,492,492,493,490,448,413,367,327,301,273,193,128,104,85,58,48,41,36,31],"timestamp_mouse":[12,36,51,70,90,111,131,151,170,190,210,231,251,269,291,311,330,351,369,389,411,431,450,471,490,511,529,550,571,591,610,631,651,669,690,711,731,751,771,791,810,830,850,870,890,909,930,950,970,990,1011,1031,1051,1070,1091,1109,1130],"xSR":741.5,"ySR":469.95,"xT1":424.9,"yT1":0,"xT2":1058.1,"yT2":0,"toosoon":0,"cond_shown":"Congruent","ratio_trial":300,"L_num":7,"L_den":14,"R_num":20,"R_den":25,"correct_side":2,"subjID":"sofiacorrea26","gender":"1","school":"4","age":"9"},{"start_time":1552054288757,"click_time":1552054290858,"finger_time":1552054290177,"fix_duration":776.8748640384379,"trial":31,"RT":1420,"MT":681,"sideResp":1,"stimulus":[],"xmouse":[795,795,795,795,795,795,794,793,793,793,793,793,793,793,793,793,793,793,793,793,793,793,792,792,792,792,792,792,792,791,791,791,791,791,791,791,790,790,790,790,790,790,790,790,790,790,790,790,790,790,790,790,790,790,790,789,789,789,789,789,789,789,789,789,789,789,788,786,783,776,763,720,692,647,629,601,595,591,587,584,575,570,570,570,570,569,571,572,572,572,570,569,567,567,566,566,565,565,562,558,552,544,543,542,540,523],"ymouse":[496,496,496,496,496,496,496,496,496,496,496,496,496,496,496,496,496,496,4