[{"start_time":1552309142133,"click_time":1552309143598,"finger_time":1552309142998,"fix_duration":731.2854148503596,"trial":0,"RT":865,"MT":600,"sideResp":2,"stimulus":"img/250/equaldotanddens/R/10_Ratio_250_L_4_R_16.png","xmouse":[788,788,788,788,788,788,788,788,788,788,788,788,788,788,788,788,788,788,788,788,788,788,788,788,788,788,788,788,788,788,788,788,788,789,790,791,792,794,794,795,796,797,802,844,880,916,940,958,988,1007,1038,1066,1091,1127,1134,1135,1135,1135,1133,1132,1130,1124,1112,1079,1060,1053,1050,1050,1050,1050,1050,1051,1058,1077],"ymouse":[528,528,528,528,527,527,527,527,527,527,527,527,527,527,527,527,527,527,527,527,527,527,527,527,527,527,526,524,522,521,520,518,516,507,502,499,495,492,489,488,487,483,475,435,409,381,363,346,313,293,266,237,215,168,154,143,135,132,129,128,126,123,118,111,108,108,108,108,108,108,108,106,100,87],"timestamp_mouse":[5,32,45,65,85,104,124,146,165,186,204,226,246,264,286,304,325,346,366,386,405,425,445,466,485,506,525,546,564,585,605,626,644,665,685,705,725,745,765,786,805,824,846,865,884,906,926,945,965,986,1005,1025,1045,1065,1084,1104,1125,1145,1165,1186,1206,1225,1246,1265,1285,1305,1325,1345,1366,1386,1406,1425,1444,1464],"xSR":741.5,"ySR":501.8,"xT1":424.9,"yT1":0,"xT2":1058.1,"yT2":0,"toosoon":0,"cond_shown":"equaldotanddens","ratio_trial":250,"smaller_num":"4","larger_num":"16","correct_side":2,"subjID":"sofia penagos","gender":"1","age":"9","school":"4","test":{"fix_dur":[250,1500],"timestim":300,"targets_dim":[100,100],"targets_relative_coord":[0.3,0.7],"size_stim":[880,420],"start_dim":[100,100],"size_start":[300,300],"size_fix":60,"samplingrate":20,"img_types":["equaldotsize","equaldotanddens","randomdotsizeEA"],"ratios":[250,500,750,900],"rep_conds":9,"nTrials":120,"trials_to_rest":500,"Trials_order":[13,96,84,50,62,27,67,117,90,77,79,69,112,32,81,91,107,72,28,11,75,71,34,16,86,2,100,98,45,58,64,9,108,38,99,61,15,70,56,43,39,40,33,104,85,52,114,53,111,74,21,0,22,82,63,6,73,42,25,10,3,94,29,24,31,59,66,57,101,48,83,110,116,26,18,46,68,118,12,49,17,106,97,95,30,41,113,23,4,47,55,93,89,7,19,105,109,87,8,5,103,60,51,54,14,115,76,102,35,1,65,88,80,78,119,92,37,20,36,44],"cond_shown":["equaldotanddens","equaldotsize","equaldotsize","randomdotsizeEA","randomdotsizeEA","equaldotsize","equaldotanddens","equaldotsize","equaldotsize","randomdotsizeEA","equaldotanddens","equaldotsize","equaldotanddens","randomdotsizeEA","equaldotsize","equaldotanddens","randomdotsizeEA","equaldotsize","equaldotanddens","randomdotsizeEA","equaldotsize","randomdotsizeEA","equaldotanddens","equaldotanddens","randomdotsizeEA","randomdotsizeEA","equaldotanddens","randomdotsizeEA","equaldotsize","equaldotanddens","equaldotanddens","equaldotsize","equaldotsize","randomdotsizeEA","equaldotsize","equaldotanddens","equaldotsize","equaldotanddens","randomdotsizeEA","equaldotanddens","equaldotsize","equaldotanddens","equaldotsize","randomdotsizeEA","equaldotanddens","equaldotanddens","equaldotsize","randomdotsizeEA","equaldotsize","randomdotsizeEA","equaldotsize","equaldotsize","equaldotanddens","equaldotanddens","equaldotsize","equaldotsize","equaldotanddens","equaldotsize","equaldotanddens","equaldotanddens","equaldotsize","equaldotanddens","randomdotsizeEA","equaldotsize","equaldotanddens","randomdotsizeEA","equaldotsize","equaldotsize","randomdotsizeEA","equaldotsize","randomdotsizeEA","randomdotsizeEA","randomdotsizeEA","randomdotsizeEA","equaldotsize","equaldotanddens","randomdotsizeEA","equaldotanddens","equaldotsize","equaldotanddens","randomdotsizeEA","equaldotanddens","equaldotanddens","randomdotsizeEA","equaldotsize","randomdotsizeEA","randomdotsizeEA","randomdotsizeEA","equaldotanddens","randomdotsizeEA","equaldotanddens","equaldotsize","randomdotsizeEA","equaldotanddens","equaldotanddens","equaldotsize","equaldotanddens","equaldotsize","randomdotsizeEA","randomdotsizeEA","equaldotanddens","equaldotsize","equaldotsize","equaldotsize","randomdotsizeEA","equaldotanddens","equaldotanddens","equaldotsize","randomdotsizeEA","equaldotanddens","randomdotsizeEA","equaldotanddens","randomdotsizeEA","equaldotsize","randomdotsizeEA","randomdotsizeEA","equaldotanddens","randomdotsizeEA","equaldotsize","randomdotsizeEA"],"ratio_trial":[250,250,250,250,250,500,750,900,750,500,750,900,500,750,900,750,900,250,500,900,500,900,900,500,250,250,500,250,900,900,500,900,250,250,500,250,500,900,750,750,500,500,900,750,250,500,750,500,500,250,900,250,900,900,500,750,250,750,250,900,500,900,500,250,750,900,750,900,500,250,900,250,750,250,750,900,750,900,250,250,500,900,250,900,750,500,500,900,500,900,750,900,500,750,750,900,250,500,750,500,750,250,500,750,250,750,500,750,900,250,500,500,750,750,900,750,250,750,250,750],"smaller_num":["4","4","1","2","3","1","9","18","15","1","6","18","5","12","18","3","18","3","2","18","10","18","18","6","6","2","6","6","18","18","6","18","3","2","2","2","9","9","15","18","2","5","9","3","6","3","9","2","1","3","9","6","18","9","3","9","4","18","5","9","4","18","5","3","15","9","6","9","9","3","9","1","6","3","18","18","12","18","3","2","9","9","4","18","6","5","9","18","6","18","15","18","1","12","3","9","6","5","9","2","3","3","2","15","2","6","4","15","9","2","9","1","9","15","18","18","2","6","1","3"],"larger_num":["16","16","4","8","12","2","12","20","20","2","8","20","10","16","20","4","20","12","4","20","20","20","20","12","24","8","12","24","20","20","12","20","12","8","4","8","18","10","20","24","4","10","10","4","24","6","12","4","2","12","10","24","20","10","6","12","16","24","20","10","8","20","10","12","20","10","8","10","18","12","10","4","8","12","24","20","16","20","12","8","18","10","16","20","8","10","18","20","12","20","20","20","2","16","4","10","24","10","12","4","4","12","4","20","8","8","8","20","10","8","18","2","12","20","20","24","8","8","4","4"],"correct_side":[2,1,2,1,1,2,2,1,1,2,1,2,1,2,1,1,1,1,1,1,2,2,1,1,1,1,1,1,1,1,1,2,2,2,1,1,2,2,1,1,1,1,1,2,1,2,2,2,2,1,1,2,1,2,2,2,2,1,2,2,1,1,2,2,2,2,1,2,1,2,2,2,1,1,1,2,2,2,1,1,2,2,1,2,2,2,2,1,1,1,1,2,2,2,2,2,1,2,2,2,1,2,2,1,1,1,1,1,2,2,2,2,2,2,1,1,2,2,2,2],"img_shown":["img/250/equaldotanddens/R/10_Ratio_250_L_4_R_16.png","img/250/equaldotsize/L/2_Ratio_250_L_16_R_4.png","img/250/equaldotsize/R/8_Ratio_250_L_1_R_4.png","img/250/randomdotsizeEA/L/1_Ratio_250_L_8_R_2.png","img/250/randomdotsizeEA/L/15_Ratio_250_L_12_R_3.png","img/500/equaldotsize/R/12_Ratio_500_L_1_R_2.png","img/750/equaldotanddens/R/15_Ratio_750_L_9_R_12.png","img/900/equaldotsize/L/8_Ratio_900_L_20_R_18.png","img/750/equaldotsize/L/1_Ratio_750_L_20_R_15.png","img/500/randomdotsizeEA/R/15_Ratio_500_L_1_R_2.png","img/750/equaldotanddens/L/13_Ratio_750_L_8_R_6.png","img/900/equaldotsize/R/9_Ratio_900_L_18_R_20.png","img/500/equaldotanddens/L/7_Ratio_500_L_10_R_5.png","img/750/randomdotsizeEA/R/11_Ratio_750_L_12_R_16.png","img/900/equaldotsize/L/10_Ratio_900_L_20_R_18.png","img/750/equaldotanddens/L/10_Ratio_750_L_4_R_3.png","img/900/randomdotsizeEA/L/10_Ratio_900_L_20_R_18.png","img/250/equaldotsize/L/14_Ratio_250_L_12_R_3.png","img/500/equaldotanddens/L/5_Ratio_500_L_4_R_2.png","img/900/randomdotsizeEA/L/4_Ratio_900_L_20_R_18.png","img/500/equaldotsize/R/3_Ratio_500_L_10_R_20.png","img/900/randomdotsizeEA/R/13_Ratio_900_L_18_R_20.png","img/900/equaldotanddens/L/2_Ratio_900_L_20_R_18.png","img/500/equaldotanddens/L/13_Ratio_500_L_12_R_6.png","img/250/randomdotsizeEA/L/5_Ratio_250_L_24_R_6.png","img/250/randomdotsizeEA/L/7_Ratio_250_L_8_R_2.png","img/500/equaldotanddens/L/11_Ratio_500_L_12_R_6.png","img/250/randomdotsizeEA/L/5_Ratio_250_L_24_R_6.png","img/900/equaldotsize/L/4_Ratio_900_L_20_R_18.png","img/900/equaldotanddens/L/2_Ratio_900_L_20_R_18.png","img/500/equaldotanddens/L/11_Ratio_500_L_12_R_6.png","img/900/equaldotsize/R/12_Ratio_900_L_18_R_20.png","img/250/equaldotsize/R/9_Ratio_250_L_3_R_12.png","img/250/randomdotsizeEA/R/13_Ratio_250_L_2_R_8.png","img/500/equaldotsize/L/5_Ratio_500_L_4_R_2.png","img/250/equaldotanddens/L/1_Ratio_250_L_8_R_2.png","img/500/equaldotsize/R/1_Ratio_500_L_9_R_18.png","img/900/equaldotanddens/R/15_Ratio_900_L_9_R_10.png","img/750/randomdotsizeEA/L/1_Ratio_750_L_20_R_15.png","img/750/equaldotanddens/L/6_Ratio_750_L_24_R_18.png","img/500/equaldotsize/L/10_Ratio_500_L_4_R_2.png","img/500/equaldotanddens/L/7_Ratio_500_L_10_R_5.png","img/900/equaldotsize/L/1_Ratio_900_L_10_R_9.png","img/750/randomdotsizeEA/R/7_Ratio_750_L_3_R_4.png","img/250/equaldotanddens/L/5_Ratio_250_L_24_R_6.png","img/500/equaldotanddens/R/2_Ratio_500_L_3_R_6.png","img/750/equaldotsize/R/15_Ratio_750_L_9_R_12.png","img/500/randomdotsizeEA/R/9_Ratio_500_L_2_R_4.png","img/500/equaldotsize/R/12_Ratio_500_L_1_R_2.png","img/250/randomdotsizeEA/L/15_Ratio_250_L_12_R_3.png","img/900/equaldotsize/L/1_Ratio_900_L_10_R_9.png","img/250/equaldotsize/R/6_Ratio_250_L_6_R_24.png","img/900/equaldotanddens/L/8_Ratio_900_L_20_R_18.png","img/900/equaldotanddens/R/7_Ratio_900_L_9_R_10.png","img/500/equaldotsize/R/2_Ratio_500_L_3_R_6.png","img/750/equaldotsize/R/15_Ratio_750_L_9_R_12.png","img/250/equaldotanddens/R/10_Ratio_250_L_4_R_16.png","img/750/equaldotsize/L/6_Ratio_750_L_24_R_18.png","img/250/equaldotanddens/R/12_Ratio_250_L_5_R_20.png","img/900/equaldotanddens/R/6_Ratio_900_L_9_R_10.png","img/500/equaldotsize/L/8_Ratio_500_L_8_R_4.png","img/900/equaldotanddens/L/10_Ratio_900_L_20_R_18.png","img/500/randomdotsizeEA/R/14_Ratio_500_L_5_R_10.png","img/250/equaldotsize/R/4_Ratio_250_L_3_R_12.png","img/750/equaldotanddens/R/3_Ratio_750_L_15_R_20.png","img/900/randomdotsizeEA/R/7_Ratio_900_L_9_R_10.png","img/750/equaldotsize/L/13_Ratio_750_L_8_R_6.png","img/900/equaldotsize/R/15_Ratio_900_L_9_R_10.png","img/500/randomdotsizeEA/L/4_Ratio_500_L_18_R_9.png","img/250/equaldotsize/R/9_Ratio_250_L_3_R_12.png","img/900/randomdotsizeEA/R/3_Ratio_900_L_9_R_10.png","img/250/randomdotsizeEA/R/8_Ratio_250_L_1_R_4.png","img/750/randomdotsizeEA/L/14_Ratio_750_L_8_R_6.png","img/250/randomdotsizeEA/L/15_Ratio_250_L_12_R_3.png","img/750/equaldotsize/L/6_Ratio_750_L_24_R_18.png","img/900/equaldotanddens/R/9_Ratio_900_L_18_R_20.png","img/750/randomdotsizeEA/R/11_Ratio_750_L_12_R_16.png","img/900/equaldotanddens/R/14_Ratio_900_L_18_R_20.png","img/250/equaldotsize/L/14_Ratio_250_L_12_R_3.png","img/250/equaldotanddens/L/7_Ratio_250_L_8_R_2.png","img/500/randomdotsizeEA/R/1_Ratio_500_L_9_R_18.png","img/900/equaldotanddens/R/7_Ratio_900_L_9_R_10.png","img/250/equaldotanddens/L/2_Ratio_250_L_16_R_4.png","img/900/randomdotsizeEA/R/9_Ratio_900_L_18_R_20.png","img/750/equaldotsize/R/2_Ratio_750_L_6_R_8.png","img/500/randomdotsizeEA/R/14_Ratio_500_L_5_R_10.png","img/500/randomdotsizeEA/R/1_Ratio_500_L_9_R_18.png","img/900/randomdotsizeEA/L/4_Ratio_900_L_20_R_18.png","img/500/equaldotanddens/L/13_Ratio_500_L_12_R_6.png","img/900/randomdotsizeEA/L/8_Ratio_900_L_20_R_18.png","img/750/equaldotanddens/L/1_Ratio_750_L_20_R_15.png","img/900/equaldotsize/R/14_Ratio_900_L_18_R_20.png","img/500/randomdotsizeEA/R/15_Ratio_500_L_1_R_2.png","img/750/equaldotanddens/R/11_Ratio_750_L_12_R_16.png","img/750/equaldotanddens/R/7_Ratio_750_L_3_R_4.png","img/900/equaldotsize/R/15_Ratio_900_L_9_R_10.png","img/250/equaldotanddens/L/5_Ratio_250_L_24_R_6.png","img/500/equaldotsize/R/14_Ratio_500_L_5_R_10.png","img/750/randomdotsizeEA/R/15_Ratio_750_L_9_R_12.png","img/500/randomdotsizeEA/R/9_Ratio_500_L_2_R_4.png","img/750/equaldotanddens/L/10_Ratio_750_L_4_R_3.png","img/250/equaldotsize/R/11_Ratio_250_L_3_R_12.png","img/500/equaldotsize/R/9_Ratio_500_L_2_R_4.png","img/750/equaldotsize/L/1_Ratio_750_L_20_R_15.png","img/250/randomdotsizeEA/L/1_Ratio_250_L_8_R_2.png","img/750/equaldotanddens/L/14_Ratio_750_L_8_R_6.png","img/500/equaldotanddens/L/8_Ratio_500_L_8_R_4.png","img/750/equaldotsize/L/1_Ratio_750_L_20_R_15.png","img/900/randomdotsizeEA/R/5_Ratio_900_L_9_R_10.png","img/250/equaldotanddens/R/13_Ratio_250_L_2_R_8.png","img/500/randomdotsizeEA/R/6_Ratio_500_L_9_R_18.png","img/500/equaldotanddens/R/15_Ratio_500_L_1_R_2.png","img/750/randomdotsizeEA/R/15_Ratio_750_L_9_R_12.png","img/750/equaldotsize/R/4_Ratio_750_L_15_R_20.png","img/900/randomdotsizeEA/L/4_Ratio_900_L_20_R_18.png","img/750/randomdotsizeEA/L/6_Ratio_750_L_24_R_18.png","img/250/equaldotanddens/R/13_Ratio_250_L_2_R_8.png","img/750/randomdotsizeEA/R/2_Ratio_750_L_6_R_8.png","img/250/equaldotsize/R/8_Ratio_250_L_1_R_4.png","img/750/randomdotsizeEA/R/7_Ratio_750_L_3_R_4.png"],"Rat0":[["12_Ratio_0_L_9_R_0.png","13_Ratio_0_L_6_R_0.png","5_Ratio_0_L_2_R_0.png","6_Ratio_0_L_4_R_0.png","8_Ratio_0_L_6_R_0.png"],["1_Ratio_0_L_0_R_17.png","10_Ratio_0_L_0_R_22.png","11_Ratio_0_L_0_R_1.png","14_Ratio_0_L_0_R_24.png","15_Ratio_0_L_0_R_4.png","2_Ratio_0_L_0_R_5.png","3_Ratio_0_L_0_R_17.png","4_Ratio_0_L_0_R_7.png","7_Ratio_0_L_0_R_19.png","9_Ratio_0_L_0_R_15.png"]],"Rat250":[["1_Ratio_250_L_8_R_2.png","14_Ratio_250_L_12_R_3.png","15_Ratio_250_L_12_R_3.png","2_Ratio_250_L_16_R_4.png","3_Ratio_250_L_8_R_2.png","5_Ratio_250_L_24_R_6.png","7_Ratio_250_L_8_R_2.png"],["10_Ratio_250_L_4_R_16.png","11_Ratio_250_L_3_R_12.png","12_Ratio_250_L_5_R_20.png","13_Ratio_250_L_2_R_8.png","4_Ratio_250_L_3_R_12.png","6_Ratio_250_L_6_R_24.png","8_Ratio_250_L_1_R_4.png","9_Ratio_250_L_3_R_12.png"]],"Rat500":[["10_Ratio_500_L_4_R_2.png","11_Ratio_500_L_12_R_6.png","13_Ratio_500_L_12_R_6.png","4_Ratio_500_L_18_R_9.png","5_Ratio_500_L_4_R_2.png","7_Ratio_500_L_10_R_5.png","8_Ratio_500_L_8_R_4.png"],["1_Ratio_500_L_9_R_18.png","12_Ratio_500_L_1_R_2.png","14_Ratio_500_L_5_R_10.png","15_Ratio_500_L_1_R_2.png","2_Ratio_500_L_3_R_6.png","3_Ratio_500_L_10_R_20.png","6_Ratio_500_L_9_R_18.png","9_Ratio_500_L_2_R_4.png"]],"Rat750":[["1_Ratio_750_L_20_R_15.png","10_Ratio_750_L_4_R_3.png","13_Ratio_750_L_8_R_6.png","14_Ratio_750_L_8_R_6.png","6_Ratio_750_L_24_R_18.png","8_Ratio_750_L_4_R_3.png","9_Ratio_750_L_4_R_3.png"],["11_Ratio_750_L_12_R_16.png","12_Ratio_750_L_3_R_4.png","15_Ratio_750_L_9_R_12.png","2_Ratio_750_L_6_R_8.png","3_Ratio_750_L_15_R_20.png","4_Ratio_750_L_15_R_20.png","5_Ratio_750_L_15_R_20.png","7_Ratio_750_L_3_R_4.png"]],"Rat900":[["1_Ratio_900_L_10_R_9.png","10_Ratio_900_L_20_R_18.png","2_Ratio_900_L_20_R_18.png","4_Ratio_900_L_20_R_18.png","8_Ratio_900_L_20_R_18.png"],["11_Ratio_900_L_18_R_20.png","12_Ratio_900_L_18_R_20.png","13_Ratio_900_L_18_R_20.png","14_Ratio_900_L_18_R_20.png","15_Ratio_900_L_9_R_10.png","3_Ratio_900_L_9_R_10.png","5_Ratio_900_L_9_R_10.png","6_Ratio_900_L_9_R_10.png","7_Ratio_900_L_9_R_10.png","9_Ratio_900_L_18_R_20.png"]],"Rat1000":[["10_Ratio_1000_L_16_R_16.png","11_Ratio_1000_L_6_R_6.png","12_Ratio_1000_L_14_R_14.png","13_Ratio_1000_L_20_R_20.png","15_Ratio_1000_L_15_R_15.png","2_Ratio_1000_L_17_R_17.png","4_Ratio_1000_L_9_R_9.png","5_Ratio_1000_L_6_R_6.png","6_Ratio_1000_L_19_R_19.png","8_Ratio_1000_L_14_R_14.png","9_Ratio_1000_L_25_R_25.png"],["1_Ratio_1000_L_1_R_1.png","14_Ratio_1000_L_17_R_17.png","3_Ratio_1000_L_17_R_17.png","7_Ratio_1000_L_6_R_6.png"]]}},{"start_time":1552309144952,"click_time":1552309145939,"finger_time":1552309145579,"fix_duration":771.1213295804266,"trial":1,"RT":627,"MT":360,"sideResp":1,"stimulus":"img/250/equaldotsize/L/2_Ratio_250_L_16_R_4.png","xmouse":[779,779,779,779,779,779,779,779,779,779,779,779,779,779,779,779,779,779,779,779,779,779,779,779,779,779,776,773,768,763,756,745,719,710,700,690,682,667,658,647,635,621,574,563,555,546,542,532,529,523],"ymouse":[512,512,512,512,512,512,512,512,512,512,512,512,512,512,512,512,512,512,512,512,512,512,512,512,512,512,511,508,503,494,483,466,419,403,389,375,363,343,329,311,290,264,187,162,141,123,111,99,99,99],"timestamp_mouse":[10,27,46,67,86,107,126,147,167,186,205,227,247,266,287,306,327,347,367,387,407,426,447,467,485,506,526,546,566,587,607,627,647,665,686,707,727,746,767,786,806,825,846,865,885,907,926,947,966,986],"xSR":741.5,"ySR":469.95,"xT1":424.9,"yT1":0,"xT2":1058.1,"yT2":0,"toosoon":0,"cond_shown":"equaldotsize","ratio_trial":250,"smaller_num":"4","larger_num":"16","correct_side":1,"subjID":"sofia penagos","gender":"1","age":"9","school":"4"},{"start_time":1552309149134,"click_time":1552309153078,"finger_time":1552309150798,"fix_duration":1034.210737602877,"trial":2,"RT":1664,"MT":2280,"sideResp":2,"stimulus":"img/250/equaldotsize/R/8_Ratio_250_L_1_R_4.png","xmouse":[791,791,791,791,791,791,791,791,791,791,791,791,791,791,791,791,791,791,791,791,791,791,791,791,791,791,791,791,791,791,791,791,791,791,791,791,791,791,791,791,791,791,791,791,791,791,791,791,791,791,791,791,791,791,791,791,791,791,791,791,791,790,787,784,782,782,782,782,782,782,782,782,782,782,782,782,781,781,780,780,781,782,782,781,780,779,779,779,779,778,777,777,777,777,777,777,777,777,777,776,776,776,776,776,776,776,776,776,776,776,776,776,775,773,760,751,747,746,746,746,746,744,744,739,714,691,672,654,645,644,644,644,644,647,674,736,805,861,889,900,900,901,905,905,870,864,869,878,881,882,882,879,874,872,872,876,889,910,932,964,968,971,972,974,975,975,975,975,975,977,978,979,979,980,983,983,984,990,1005,1048,1055,1057,1057,1057,1047,1038,1028,1020,1018,1018,1019,1023,1029,1036,1047,1052,1057,1062],"ymouse":[531,531,531,531,531,531,531,531,531,531,531,531,531,531,531,531,531,531,531,531,531,531,531,531,531,531,531,531,531,531,531,531,531,531,531,531,531,531,531,531,531,531,531,531,531,531,531,531,531,531,531,531,531,531,531,531,531,531,531,531,531,529,526,523,519,519,519,519,519,519,519,519,519,519,519,519,519,518,515,497,490,484,477,469,463,460,458,456,454,453,451,450,450,450,450,450,450,449,449,448,446,446,446,446,446,446,446,446,446,446,446,446,445,445,443,442,441,441,441,441,441,441,441,440,421,408,400,397,397,397,397,397,397,397,389,372,358,347,337,327,320,306,278,243,129,105,89,78,73,71,72,78,89,96,106,109,112,119,128,150,158,166,171,177,191,199,207,214,221,237,240,241,243,245,248,248,248,245,236,195,182,172,164,156,146,141,139,136,135,132,129,124,117,112,103,97,93,89],"timestamp_mouse":[10,23,44,65,84,104,125,144,165,185,204,225,245,265,285,304,324,344,363,385,404,425,444,465,483,505,523,545,565,584,603,624,644,665,685,704,725,745,765,784,804,825,844,865,885,903,925,944,965,984,1005,1025,1044,1064,1085,1103,1125,1145,1164,1185,1203,1225,1245,1265,1285,1304,1324,1345,1365,1385,1404,1425,1445,1464,1485,1504,1525,1545,1564,1584,1604,1624,1645,1664,1684,1704,1724,1744,1766,1784,1805,1825,1844,1865,1884,1904,1924,1943,1963,1984,2004,2025,2045,2065,2084,2103,2123,2145,2164,2185,2204,2224,2244,2266,2284,2304,2324,2344,2364,2384,2405,2424,2444,2465,2484,2504,2524,2544,2563,2584,2605,2625,2644,2663,2684,2704,2725,2745,2765,2784,2805,2825,2844,2864,2883,2904,2925,2944,2964,2983,3004,3024,3045,3065,3084,3105,3125,3144,3165,3184,3203,3225,3244,3265,3283,3304,3325,3344,3364,3384,3404,3424,3445,3464,3483,3504,3525,3544,3564,3584,3603,3624,3645,3664,3684,3704,3725,3744,3765,3784,3803,3825,3844,3865,3885,3905,3924,3944],"xSR":741.5,"ySR":469.95,"xT1":424.9,"yT1":0,"xT2":1058.1,"yT2":0,"toosoon":0,"cond_shown":"equaldotsize","ratio_trial":250,"smaller_num":"1","larger_num":"4","correct_side":2,"subjID":"sofia penagos","gender":"1","age":"9","school":"4"},{"start_time":1552309154888,"click_time":1552309157399,"finger_time":1552309156618,"fix_duration":387.8682362771093,"trial":3,"RT":1730,"MT":781,"sideResp":1,"stimulus":"img/250/randomdotsizeEA/L/1_Ratio_250_L_8_R_2.png","xmouse":[796,796,796,796,796,796,796,796,796,796,796,796,796,796,796,796,796,796,796,796,796,796,796,796,796,796,796,796,796,796,796,796,796,796,796,795,795,795,795,795,795,794,794,794,794,793,791,790,790,789,789,789,789,788,788,788,788,787,787,787,787,787,787,787,787,787,787,787,787,787,787,787,787,787,787,787,787,787,787,786,786,785,784,783,782,778,760,740,732,714,708,697,689,680,671,663,648,644,643,642,640,639,639,637,633,629,624,620,619,619,617,615,607,597,588,580,575,568,566,564,564,559,553,543,529,512],"ymouse":[510,510,510,510,510,510,510,510,510,510,510,510,510,510,510,510,510,510,510,510,510,510,510,510,510,510,510,510,510,510,510,510,510,510,509,507,507,506,506,506,506,504,504,503,501,500,496,494,492,490,489,488,488,486,486,486,486,485,485,485,485,485,485,485,485,484,484,484,484,484,484,484,484,484,484,484,484,484,484,484,483,482,481,480,478,473,452,431,424,404,393,367,349,327,306,289,268,263,261,256,252,239,228,213,197,187,179,176,176,176,175,174,166,156,145,135,123,105,101,98,97,95,92,89,85,81],"timestamp_mouse":[10,31,59,70,90,110,131,150,170,191,211,230,250,269,290,310,330,350,371,391,410,430,449,471,490,510,531,549,571,590,610,631,649,670,690,710,730,751,771,791,809,830,851,870,890,909,930,951,970,991,1010,1031,1051,1070,1091,1111,1130,1150,1170,1191,1210,1231,1250,1271,1290,1311,1330,1350,1371,1389,1410,1430,1451,1469,1491,1509,1530,1549,1571,1589,1610,1631,1651,1671,1691,1711,1730,1749,1770,1790,1810,1832,1850,1870,1890,1910,1932,1950,1970,1989,2010,2031,2050,2071,2090,2109,2130,2150,2170,2190,2210,2229,2250,2271,2290,2310,2330,2350,2370,2390,2411,2431,2449,2470,2490,2511],"xSR":741.5,"ySR":469.95,"xT1":424.9,"yT1":0,"xT2":1058.1,"yT2":0,"toosoon":0,"cond_shown":"randomdotsizeEA","ratio_trial":250,"smaller_num":"2","larger_num":"8","correct_side":1,"subjID":"sofia penagos","gender":"1","age":"9","school":"4"},{"start_time":1552309160976,"click_time":1552309162538,"finger_time":1552309161798,"fix_duration":1016.9935348663591,"trial":4,"RT":822,"MT":740,"sideResp":1,"stimulus":"img/250/randomdotsizeEA/L/15_Ratio_250_L_12_R_3.png","xmouse":[801,801,801,801,801,801,801,801,801,801,801,801,801,801,801,801,801,801,801,802,803,803,803,803,803,803,803,804,804,805,805,806,806,807,807,807,806,803,799,790,781,777,751,675,652,631,618,606,587,578,570,560,552,535,532,529,526,525,523,522,520,518,518,514,513,512,511,511,511,511,511,511,511,512,514,514,515,517,518],"ymouse":[523,523,523,523,523,523,523,523,523,523,523,523,523,523,523,523,523,523,523,523,523,523,523,523,523,523,523,523,523,523,521,519,516,510,506,502,499,496,490,480,470,461,436,372,353,338,328,319,294,283,276,268,261,242,236,230,224,218,210,207,202,194,185,172,170,168,167,165,158,152,148,143,140,133,131,127,121,106,76],"timestamp_mouse":[9,22,42,62,83,102,123,143,163,181,201,223,242,263,282,301,322,342,362,382,402,421,443,463,483,502,522,541,562,583,603,622,643,662,682,703,722,743,761,783,802,822,843,862,882,902,923,942,962,982,1002,1022,1042,1062,1083,1103,1121,1143,1161,1181,1202,1222,1242,1262,1282,1301,1322,1343,1362,1383,1402,1423,1443,1463,1481,1502,1522,1543,1562],"xSR":741.5,"ySR":469.95,"xT1":424.9,"yT1":0,"xT2":1058.1,"yT2":0,"toosoon":0,"cond_shown":"randomdotsizeEA","ratio_trial":250,"smaller_num":"3","larger_num":"12","correct_side":1,"subjID":"sofia penagos","gender":"1","age":"9","school":"4"},{"start_time":1552309164254,"click_time":1552309165857,"finger_time":1552309165219,"fix_duration":434.8093449175412,"trial":5,"RT":965,"MT":638,"sideResp":2,"stimulus":"img/500/equaldotsize/R/12_Ratio_500_L_1_R_2.png","xmouse":[785,785,785,785,785,785,785,785,785,785,785,785,785,785,785,785,785,785,785,785,785,785,785,785,785,785,785,785,785,785,785,785,785,785,785,785,785,785,785,785,785,785,785,785,785,787,789,803,815,835,869,890,919,953,984,1013,1018,1018,1019,1020,1020,1022,1025,1029,1035,1043,1046,1049,1049,1049,1049,1049,1049,1049,1050,1050,1050,1050,1050,1053,1064],"ymouse":[526,526,526,526,526,526,526,526,526,526,526,526,526,526,526,526,526,526,526,526,526,526,526,526,526,526,526,527,528,528,528,528,528,528,528,528,528,528,528,528,528,528,528,528,528,515,508,476,447,410,348,315,276,236,201,171,164,163,162,161,160,156,152,145,134,114,107,102,102,101,101,101,101,101,101,101,101,101,101,98,92],"timestamp_mouse":[12,23,44,64,84,104,125,143,165,185,205,223,244,265,285,305,324,345,365,383,404,424,445,463,485,504,524,544,563,585,605,624,644,665,684,705,724,745,765,783,804,825,845,865,884,904,924,943,965,985,1003,1024,1044,1064,1084,1104,1125,1144,1164,1184,1203,1224,1243,1264,1285,1305,1323,1343,1364,1384,1405,1424,1445,1465,1485,1503,1523,1545,1565,1584,1603],"xSR":741.5,"ySR":469.95,"xT1":424.9,"yT1":0,"xT2":1058.1,"yT2":0,"toosoon":0,"cond_shown":"equaldotsize","ratio_trial":500,"smaller_num":"1","larger_num":"2","correct_side":2,"subjID":"sofia penagos","gender":"1","age":"9","school":"4"},{"start_time":1552309167378,"click_time":1552309168778,"finger_time":1552309168019,"fix_duration":417.22970495521025,"trial":6,"RT":641,"MT":759,"sideResp":2,"stimulus":"img/750/equaldotanddens/R/15_Ratio_750_L_9_R_12.png","xmouse":[764,764,764,764,764,764,764,764,764,764,764,764,764,764,764,764,764,764,764,764,764,764,764,764,764,764,764,764,763,763,763,761,759,754,739,730,724,724,724,729,738,757,785,805,829,839,848,857,865,889,903,914,921,924,928,930,934,940,946,958,962,967,975,986,1021,1035,1042,1046,1050,1055,1063],"ymouse":[484,484,484,484,484,484,484,484,484,484,484,484,484,484,484,484,484,484,484,484,484,484,484,483,479,477,475,474,474,474,474,470,468,461,440,426,415,408,401,366,346,311,267,231,189,172,156,140,125,88,75,67,63,60,58,57,57,55,55,55,55,57,58,60,65,67,67,67,67,67,67],"timestamp_mouse":[2,20,41,60,85,101,120,140,161,181,200,221,241,260,279,301,320,341,361,380,400,419,439,461,481,500,520,540,561,581,599,620,641,660,680,700,721,739,760,779,801,820,839,861,879,901,920,941,960,979,1000,1021,1040,1061,1081,1101,1120,1140,1160,1180,1200,1221,1240,1260,1280,1300,1321,1339,1360,1379,1399],"xSR":741.5,"ySR":469.95,"xT1":424.9,"yT1":0,"xT2":1058.1,"yT2":0,"toosoon":0,"cond_shown":"equaldotanddens","ratio_trial":750,"smaller_num":"9","larger_num":"12","correct_side":2,"subjID":"sofia penagos","gender":"1","age":"9","school":"4"},{"start_time":1552309170354,"click_time":1552309171898,"finger_time":1552309171019,"fix_duration":753.6815202059689,"trial":7,"RT":665,"MT":879,"sideResp":2,"stimulus":"img/900/equaldotsize/L/8_Ratio_900_L_20_R_18.png","xmouse":[770,770,770,770,770,770,770,770,770,770,770,770,770,770,770,770,770,770,770,770,770,770,770,770,770,770,770,770,771,774,781,784,787,790,793,798,800,802,803,804,809,812,814,818,821,832,838,842,848,859,876,882,887,891,896,910,915,919,926,928,940,946,956,969,985,999,1010,1011,1012,1015,1018,1019,1020,1021,1024,1042,1054,1069],"ymouse":[528,528,528,528,528,528,528,528,528,528,528,528,528,528,528,528,528,528,528,528,528,528,528,528,528,528,528,528,528,524,497,485,472,462,449,413,401,397,393,391,380,374,369,361,353,336,326,318,309,290,252,236,222,211,198,168,155,143,128,124,103,95,84,72,60,51,47,46,46,45,44,44,44,43,43,43,43,43],"timestamp_mouse":[10,25,45,67,84,104,124,145,165,183,205,225,245,265,285,305,325,344,364,383,405,424,445,464,484,504,524,545,565,584,604,624,645,665,683,704,724,745,765,785,805,824,845,865,885,904,924,945,965,984,1004,1024,1045,1064,1084,1104,1124,1145,1164,1185,1204,1225,1244,1264,1283,1304,1324,1345,1364,1383,1404,1425,1444,1464,1484,1504,1525,1544],"xSR":741.5,"ySR":469.95,"xT1":424.9,"yT1":0,"xT2":1058.1,"yT2":0,"toosoon":0,"cond_shown":"equaldotsize","ratio_trial":900,"smaller_num":"18","larger_num":"20","correct_side":1,"subjID":"sofia penagos","gender":"1","age":"9","school":"4"},{"start_time":1552309176437,"click_time":1552309177498,"finger_time":1552309177158,"fix_duration":1075.4210869836816,"trial":8,"RT":721,"MT":340,"sideResp":1,"stimulus":"img/750/equaldotsize/L/1_Ratio_750_L_20_R_15.png","xmouse":[783,783,783,783,783,783,783,783,783,783,783,783,783,783,783,783,783,783,783,783,783,783,783,783,783,783,783,783,782,782,782,782,782,782,782,782,784,786,786,782,774,760,700,673,650,632,607,600,594,586,576,562,525,512],"ymouse":[495,495,496,496,496,496,496,496,498,499,499,499,499,499,499,499,499,499,499,499,499,499,499,499,499,499,499,498,495,493,493,493,492,488,481,470,455,424,412,400,387,371,318,291,264,239,202,185,168,149,131,113,71,54],"timestamp_mouse":[9,21,42,62,81,101,121,141,161,181,201,221,241,261,281,302,321,341,361,381,401,421,441,461,481,501,521,541,562,581,601,621,641,661,682,700,721,741,761,780,800,821,840,861,881,901,922,941,962,982,1002,1022,1041,1061],"xSR":741.5,"ySR":469.95,"xT1":424.9,"yT1":0,"xT2":1058.1,"yT2":0,"toosoon":0,"cond_shown":"equaldotsize","ratio_trial":750,"smaller_num":"15","larger_num":"20","correct_side":1,"subjID":"sofia penagos","gender":"1","age":"9","school":"4"},{"start_time":1552309179470,"click_time":1552309180598,"finger_time":1552309180278,"fix_duration":1249.5874986330152,"trial":9,"RT":808,"MT":320,"sideResp":2,"stimulus":"img/500/randomdotsizeEA/R/15_Ratio_500_L_1_R_2.png","xmouse":[797,797,797,797,797,797,797,797,797,797,797,797,797,797,797,797,797,797,797,797,797,797,797,797,797,797,797,797,797,797,797,797,797,797,797,797,797,797,797,799,806,812,821,833,850,881,959,995,1027,1055,1068,1069,1069,1073,1081,1100,1104],"ymouse":[505,505,505,505,505,505,505,505,505,505,505,505,505,505,505,505,505,505,505,505,505,505,505,505,505,505,505,505,505,505,505,505,505,504,503,500,497,495,492,485,467,452,428,401,365,314,216,175,149,131,126,125,125,123,117,100,96],"timestamp_mouse":[9,28,48,69,89,107,128,148,168,189,209,228,249,267,289,308,328,347,369,388,409,429,449,469,489,508,529,551,569,588,609,629,649,667,689,708,728,748,769,788,808,827,848,868,888,908,929,948,969,988,1009,1029,1049,1068,1089,1108,1128],"xSR":741.5,"ySR":469.95,"xT1":424.9,"yT1":0,"xT2":1058.1,"yT2":0,"toosoon":0,"cond_shown":"randomdotsizeEA","ratio_trial":500,"smaller_num":"1","larger_num":"2","correct_side":2,"subjID":"sofia penagos","gender":"1","age":"9","school":"4"},{"start_time":1552309182426,"click_time":1552309183580,"finger_time":1552309183118,"fix_duration":844.2243841948818,"trial":10,"RT":692,"MT":462,"sideResp":1,"stimulus":"img/750/equaldotanddens/L/13_Ratio_750_L_8_R_6.png","xmouse":[784,784,784,784,784,784,784,784,784,784,784,784,784,784,784,784,784,784,784,784,784,784,784,784,784,784,784,784,788,789,791,791,791,783,770,756,739,718,669,633,622,597,584,565,556,552,547,542,542,545,547,547,547,547,547,547,545,523],"ymouse":[539,539,539,539,539,539,539,539,539,539,539,539,539,539,539,539,539,539,539,539,539,539,539,539,539,539,538,536,525,519,513,502,495,474,456,436,411,382,314,264,248,203,180,146,132,119,107,79,69,54,50,49,49,49,49,48,48,45],"timestamp_mouse":[11,32,51,72,92,112,133,152,172,193,213,232,251,273,293,313,332,352,372,392,413,433,452,473,493,513,532,552,572,592,612,631,652,673,692,711,731,753,772,792,811,832,853,871,892,912,933,954,971,992,1012,1032,1053,1073,1092,1113,1133,1154],"xSR":741.5,"ySR":469.95,"xT1":424.9,"yT1":0,"xT2":1058.1,"yT2":0,"toosoon":0,"cond_shown":"equaldotanddens","ratio_trial":750,"smaller_num":"6","larger_num":"8","correct_side":1,"subjID":"sofia penagos","gender":"1","age":"9","school":"4"},{"start_time":1552309185467,"click_time":1552309187538,"finger_time":1552309186019,"fix_duration":925.2878749329619,"trial":11,"RT":552,"MT":1519,"sideResp":1,"stimulus":"img/900/equaldotsize/R/9_Ratio_900_L_18_R_20.png","xmouse":[780,780,780,780,780,780,780,780,780,780,780,780,780,780,780,780,780,780,780,780,780,781,785,793,802,811,830,837,843,848,857,871,878,885,890,900,916,926,936,948,962,995,1012,1029,1046,1065,1103,1110,1113,1113,1113,1113,1113,1113,1113,1113,1113,1113,1113,1113,1113,1113,1113,1113,1113,1113,1113,1113,1112,1108,1107,1104,1102,1097,1089,1077,1033,1014,989,963,942,905,887,871,852,830,768,743,719,697,679,653,638,623,602,589,564,555,550,546,542,533,528,524],"ymouse":[536,536,536,536,536,536,536,536,536,536,536,536,536,536,536,536,536,536,536,536,536,534,527,516,504,493,473,465,460,454,444,427,418,411,406,395,376,365,355,345,331,297,277,256,232,207,157,148,144,143,143,143,143,143,142,142,142,142,142,142,142,142,142,142,142,142,142,141,141,141,141,139,139,137,135,132,120,116,113,109,108,108,108,108,107,105,94,86,80,73,68,60,57,54,51,48,44,43,43,43,43,43,43,43],"timestamp_mouse":[11,30,60,71,91,112,131,152,171,192,211,232,252,272,290,311,332,351,372,391,411,432,451,471,491,512,530,552,571,591,611,631,652,671,691,710,730,751,771,791,810,831,852,871,891,912,931,952,972,992,1011,1032,1052,1071,1092,1112,1131,1151,1171,1191,1212,1231,1251,1271,1291,1312,1331,1351,1371,1391,1412,1431,1452,1472,1492,1512,1531,1551,1571,1591,1612,1632,1651,1671,1691,1712,1731,1751,1772,1792,1811,1831,1852,1871,1892,1912,1931,1951,1971,1991,2012,2031,2052,2070],"xSR":741.5,"ySR":469.95,"xT1":424.9,"yT1":0,"xT2":1058.1,"yT2":0,"toosoon":0,"cond_shown":"equaldotsize","ratio_trial":900,"smaller_num":"18","larger_num":"20","correct_side":2,"subjID":"sofia penagos","gender":"1","age":"9","school":"4"},{"start_time":1552309190564,"click_time":1552309191717,"finger_time":1552309191359,"fix_duration":584.7785050525223,"trial":12,"RT":795,"MT":358,"sideResp":1,"stimulus":"img/500/equaldotanddens/L/7_Ratio_500_L_10_R_5.png","xmouse":[780,780,780,780,780,780,780,780,780,780,780,780,780,780,780,780,780,780,780,780,780,780,780,780,780,780,780,780,780,780,780,780,780,780,780,780,780,776,766,722,689,651,642,636,634,633,632,628,622,609,596,584,557,546,539,536,526,520],"ymouse":[529,529,529,529,529,529,529,529,529,529,529,529,529,529,529,529,529,529,529,529,529,529,529,529,529,529,529,529,529,529,529,529,529,529,529,529,529,509,478,365,292,203,182,169,164,162,161,158,154,148,143,138,127,122,117,113,103,97],"timestamp_mouse":[13,35,59,74,94,114,135,154,175,195,214,234,255,273,293,314,334,353,374,395,415,435,455,475,493,515,535,554,575,594,615,635,653,675,695,714,734,754,774,795,814,835,853,875,893,914,933,954,974,994,1014,1035,1054,1073,1094,1113,1135,1153],"xSR":741.5,"ySR":469.95,"xT1":424.9,"yT1":0,"xT2":1058.1,"yT2":0,"toosoon":0,"cond_shown":"equaldotanddens","ratio_trial":500,"smaller_num":"5","larger_num":"10","correct_side":1,"subjID":"sofia penagos","gender":"1","age":"9","school":"4"},{"start_time":1552309193338,"click_time":1552309194600,"finger_time":1552309194179,"fix_duration":418.8844664150195,"trial":13,"RT":841,"MT":421,"sideResp":2,"stimulus":"img/750/randomdotsizeEA/R/11_Ratio_750_L_12_R_16.png","xmouse":[767,767,766,766,766,766,766,766,766,766,766,766,766,766,766,766,766,766,766,766,766,766,766,766,766,766,766,766,766,766,766,766,766,767,767,768,770,771,773,779,787,801,821,853,932,968,993,1010,1020,1036,1041,1048,1055,1062,1081,1088,1093,1095,1096,1098,1098,1099,1100,1103],"ymouse":[505,505,505,505,505,505,505,505,505,505,505,505,505,505,505,505,505,505,505,505,505,505,505,505,505,505,505,505,505,505,505,505,505,505,505,504,504,503,502,499,495,484,466,438,379,351,330,315,304,280,272,259,245,225,182,165,155,148,143,136,128,120,112,97],"timestamp_mouse":[1,20,40,60,80,99,121,140,161,180,200,220,241,261,281,299,320,340,360,380,400,420,441,461,480,501,521,540,560,581,601,621,640,660,681,701,720,740,761,780,800,820,841,860,880,900,920,940,959,980,1001,1020,1040,1060,1080,1101,1121,1140,1160,1180,1200,1221,1240,1262],"xSR":741.5,"ySR":469.95,"xT1":424.9,"yT1":0,"xT2":1058.1,"yT2":0,"toosoon":0,"cond_shown":"randomdotsizeEA","ratio_trial":750,"smaller_num":"12","larger_num":"16","correct_side":2,"subjID":"sofia penagos","gender":"1","age":"9","school":"4"},{"start_time":1552309197105,"click_time":1552309202879,"finger_time":1552309198138,"fix_duration":1325.2685265263624,"trial":14,"RT":1033,"MT":4741,"sideResp":2,"stimulus":"img/900/equaldotsize/L/10_Ratio_900_L_20_R_18.png","xmouse":[814,814,814,814,814,814,814,814,814,814,814,814,814,814,814,814,814,814,814,814,814,814,814,814,814,814,814,814,814,814,814,814,814,814,814,814,814,814,814,814,814,814,814,814,814,814,814,814,815,818,841,867,898,929,956,994,1007,1021,1030,1036,1042,1043,1045,1046,1047,1049,1049,1049,1049,1049,1049,1049,1049,1049,1049,1049,1049,1049,1049,1049,1049,1048,1048,1048,1048,1048,1047,1045,1044,1043,1042,1042,1042,1042,1042,1042,1042,1042,1040,1039,1031,1027,1024,1022,1021,1021,1021,1021,1021,1021,1021,1021,1021,1021,1021,1021,1021,1023,1025,1025,1025,1026,1027,1027,1027,1027,1027,1027,1027,1027,1026,1023,1022,1022,1022,1022,1022,1022,1022,1022,1022,1022,1022,1022,1022,1022,1021,1020,1020,1020,1020,1020,1020,1020,1020,1020,1020,1020,1020,1020,1020,1020,1020,1020,1020,1020,1020,1020,1020,1020,1020,1020,1020,1020,1020,1020,1020,1020,1020,1020,1020,1020,1020,1020,1020,1020,1020,1020,1020,1020,1020,1020,1020,1020,1020,1021,1021,1021,1021,1022,1022,1022,1022,1022,1022,1022,1022,1022,1022,1022,1022,1022,1022,1022,1022,1022,1022,1021,1020,1018,1014,1011,1008,1006,1003,997,996,996,996,995,993,991,989,988,986,983,980,980,980,980,979,979,979,979,979,979,979,979,979,982,983,988,989,991,991,992,992,993,995,996,996,996,996,997,998,999,1003,1007,1010,1013,1013,1013,1015,1016,1021,1024,1034,1036,1039,1039,1041,1049,1057,1067,1079,1088,1104,1107,1110],"ymouse":[523,523,523,523,523,523,523,523,523,523,523,523,523,523,523,523,523,523,523,523,523,523,523,523,523,523,523,523,523,523,523,523,523,523,523,523,523,523,523,523,523,523,523,523,523,523,523,523,523,523,486,445,394,346,305,250,233,216,205,198,192,191,189,188,185,178,174,173,171,171,171,171,171,171,171,171,171,171,171,171,170,170,170,170,170,170,171,172,173,174,174,174,174,174,174,174,174,174,175,175,179,181,182,183,183,183,183,183,183,183,183,183,183,183,183,183,183,183,181,181,181,181,180,180,180,180,180,180,180,180,180,181,182,182,182,182,182,182,182,182,182,182,182,182,182,182,182,183,183,183,183,183,183,183,183,183,183,183,183,183,183,183,183,183,183,183,183,183,183,183,183,183,183,183,183,183,183,183,183,183,183,183,183,183,183,183,183,183,183,183,183,183,183,183,183,183,183,183,183,183,183,183,183,183,183,183,183,183,183,183,183,183,183,183,183,183,183,184,184,188,201,204,208,212,215,220,224,228,232,236,241,248,250,254,258,261,266,267,267,267,268,268,268,268,268,268,268,268,268,268,267,264,264,263,263,262,261,261,260,260,260,260,260,260,259,259,256,253,252,251,250,250,248,245,236,231,218,214,210,209,203,185,172,157,141,129,110,106,98],"timestamp_mouse":[13,42,54,74,94,114,134,153,174,193,213,232,253,274,294,313,333,352,373,394,414,433,453,472,494,513,533,554,573,593,614,634,654,672,694,713,732,754,774,794,813,834,854,873,894,913,934,954,973,993,1013,1033,1053,1073,1094,1113,1132,1154,1174,1194,1214,1234,1253,1274,1293,1313,1333,1353,1374,1394,1413,1434,1454,1473,1493,1513,1533,1553,1574,1597,1613,1633,1654,1673,1692,1714,1734,1754,1773,1793,1814,1834,1854,1874,1894,1913,1934,1953,1973,1994,2014,2034,2052,2073,2093,2114,2134,2154,2174,2194,2214,2233,2253,2274,2293,2314,2332,2353,2374,2393,2414,2434,2453,2474,2493,2513,2533,2552,2574,2594,2613,2632,2653,2673,2693,2713,2733,2753,2773,2792,2814,2834,2853,2874,2894,2913,2933,2953,2973,2992,3013,3033,3054,3074,3093,3114,3132,3153,3173,3192,3214,3233,3254,3273,3294,3314,3334,3353,3372,3392,3414,3433,3453,3474,3494,3513,3534,3553,3574,3593,3613,3633,3653,3674,3693,3714,3733,3754,3774,3794,3814,3834,3853,3873,3893,3912,3933,3952,3974,3994,4013,4033,4053,4074,4092,4114,4133,4153,4174,4194,4213,4233,4254,4273,4294,4313,4334,4354,4373,4394,4414,4433,4452,4474,4494,4515,4532,4553,4574,4593,4613,4634,4653,4672,4693,4713,4733,4754,4773,4793,4812,4832,4854,4874,4894,4913,4932,4953,4974,4993,5014,5033,5053,5074,5094,5113,5133,5152,5172,5193,5214,5233,5254,5274,5293,5313,5333,5353,5374,5393,5414,5434,5453,5474,5493,5513,5532,5553,5573,5594,5614,5633,5653,5673,5693,5713,5733,5752,5773],"xSR":741.5,"ySR":469.95,"xT1":424.9,"yT1":0,"xT2":1058.1,"yT2":0,"toosoon":0,"cond_shown":"equaldotsize","ratio_trial":900,"smaller_num":"18","larger_num":"20","correct_side":1,"subjID":"sofia penagos","gender":"1","age":"9","school":"4"},{"start_time":1552309207245,"click_time":1552309208517,"finger_time":1552309208118,"fix_duration":686.0206533099264,"trial":15,"RT":873,"MT":399,"sideResp":1,"stimulus":"img/750/equaldotanddens/L/10_Ratio_750_L_4_R_3.png","xmouse":[780,780,780,780,780,780,780,780,780,780,780,780,780,780,780,780,780,780,780,780,780,780,780,780,780,780,780,780,780,780,780,780,780,780,780,780,780,780,780,780,780,781,780,775,765,762,757,753,748,701,672,638,616,597,577,574,572,571,570,559,548,539,529,520],"ymouse":[507,507,507,507,507,507,507,507,507,507,507,507,507,507,507,507,507,507,507,507,507,507,507,507,507,507,507,507,507,507,507,507,507,507,507,507,507,507,507,507,507,498,472,441,386,359,335,305,287,227,199,170,149,133,116,113,112,111,110,100,92,86,80,76],"timestamp_mouse":[13,40,52,73,93,114,133,154,174,192,214,234,252,274,294,314,334,354,374,394,414,433,452,474,494,513,532,554,574,592,613,633,654,673,694,713,733,753,774,793,814,833,854,873,894,913,933,953,973,993,1012,1032,1054,1074,1094,1113,1132,1153,1173,1194,1213,1232,1253,1272],"xSR":741.5,"ySR":469.95,"xT1":424.9,"yT1":0,"xT2":1058.1,"yT2":0,"toosoon":0,"cond_shown":"equaldotanddens","ratio_trial":750,"smaller_num":"3","larger_num":"4","correct_side":1,"subjID":"sofia penagos","gender":"1","age":"9","school":"4"},{"start_time":1552309224629,"click_time":1552309225918,"finger_time":1552309225439,"fix_duration":250,"trial":16,"RT":810,"MT":479,"sideResp":1,"stimulus":"img/900/randomdotsizeEA/L/10_Ratio_900_L_20_R_18.png","xmouse":[790,790,790,790,790,790,790,790,790,790,790,790,790,790,790,790,790,790,790,790,790,790,790,790,790,790,790,790,790,790,790,790,790,790,791,791,791,791,791,791,791,791,779,770,763,752,739,655,607,564,536,535,532,531,525,516,505,495,495,495,495,495,496,497,497],"ymouse":[506,506,506,506,506,506,506,506,506,506,506,506,506,506,506,506,506,506,506,506,506,506,506,506,506,506,506,506,506,506,506,506,506,506,504,502,497,493,482,476,464,449,409,388,373,354,332,248,208,174,148,146,141,139,133,123,114,106,106,106,106,105,103,102,99],"timestamp_mouse":[10,30,56,69,88,109,129,148,170,190,210,228,249,269,290,310,330,348,370,390,410,429,448,470,490,509,530,550,568,590,610,630,649,670,688,709,730,748,770,788,809,830,850,868,889,909,930,950,969,988,1008,1029,1049,1069,1089,1110,1129,1150,1169,1188,1208,1228,1250,1270,1289],"xSR":741.5,"ySR":469.95,"xT1":424.9,"yT1":0,"xT2":1058.1,"yT2":0,"toosoon":0,"cond_shown":"randomdotsizeEA","ratio_trial":900,"smaller_num":"18","larger_num":"20","correct_side":1,"subjID":"sofia penagos","gender":"1","age":"9","school":"4"},{"start_time":1552309227070,"click_time":1552309228059,"finger_time":1552309227639,"fix_duration":250,"trial":17,"RT":569,"MT":420,"sideResp":1,"stimulus":"img/250/equaldotsize/L/14_Ratio_250_L_12_R_3.png","xmouse":[764,764,764,764,764,764,764,765,765,765,765,765,765,765,765,765,765,765,765,765,765,765,765,766,767,767,764,757,747,735,723,697,679,656,630,590,577,574,572,571,569,559,551,544,541,540,536,530,525,520],"ymouse":[527,527,527,527,527,527,527,527,527,527,527,527,527,527,527,527,527,527,527,527,527,527,527,526,524,519,499,483,464,443,417,359,316,260,210,141,119,112,108,105,101,83,71,62,58,58,58,60,63,64],"timestamp_mouse":[9,28,52,69,88,107,129,148,169,188,209,229,249,269,288,308,328,347,369,387,407,428,449,469,488,508,528,548,569,588,608,627,647,669,687,709,728,749,768,787,808,829,848,867,888,909,928,948,968,989],"xSR":741.5,"ySR":469.95,"xT1":424.9,"yT1":0,"xT2":1058.1,"yT2":0,"toosoon":0,"cond_shown":"equaldotsize","ratio_trial":250,"smaller_num":"3","larger_num":"12","correct_side":1,"subjID":"sofia penagos","gender":"1","age":"9","school":"4"},{"start_time":1552309231549,"click_time":1552309233699,"finger_time":1552309232098,"fix_duration":1010.0636260810668,"trial":18,"RT":549,"MT":1601,"sideResp":1,"stimulus":"img/500/equaldotanddens/L/5_Ratio_500_L_4_R_2.png","xmouse":[796,796,796,796,796,796,796,796,796,796,796,796,796,796,796,796,796,796,794,792,791,790,790,788,787,787,786,782,778,772,765,752,728,708,685,665,649,625,614,606,605,605,608,611,613,615,617,623,628,641,660,709,792,817,835,848,854,857,857,858,859,860,860,860,860,860,860,860,860,860,856,843,818,810,802,800,798,790,783,777,757,740,697,671,643,620,602,586,586,586,586,584,575,569,565,560,553,539,536,535,535,535,535,535,535,534,532,522],"ymouse":[497,498,498,499,499,499,500,500,500,500,500,500,500,500,500,500,500,500,499,495,489,485,479,477,475,475,474,468,463,456,448,433,399,371,338,308,281,235,215,198,190,186,183,181,180,179,179,176,174,169,160,141,106,96,87,82,79,77,77,77,76,76,76,76,76,76,76,76,76,76,76,78,82,83,85,85,86,90,91,93,98,100,101,101,101,101,101,104,104,104,104,105,108,110,111,112,112,112,111,111,111,111,111,111,111,110,105,92],"timestamp_mouse":[10,28,49,69,89,109,130,150,169,190,209,230,250,270,289,309,329,348,369,388,409,430,449,470,488,508,530,549,568,589,609,629,649,670,689,708,729,749,769,788,809,829,850,868,889,909,929,949,968,989,1010,1029,1049,1069,1090,1109,1129,1149,1168,1189,1209,1230,1249,1270,1290,1310,1329,1348,1369,1388,1410,1429,1449,1468,1489,1509,1530,1550,1569,1589,1609,1630,1650,1670,1689,1709,1728,1749,1769,1788,1809,1829,1850,1868,1890,1909,1929,1950,1968,1989,2010,2030,2048,2068,2089,2109,2129,2150],"xSR":741.5,"ySR":469.95,"xT1":424.9,"yT1":0,"xT2":1058.1,"yT2":0,"toosoon":0,"cond_shown":"equaldotanddens","ratio_trial":500,"smaller_num":"2","larger_num":"4","correct_side":1,"subjID":"sofia penagos","gender":"1","age":"9","school":"4"},{"start_time":1552309235175,"click_time":1552309241878,"finger_time":1552309235798,"fix_duration":453.13199272781435,"trial":19,"RT":623,"MT":6080,"sideResp":1,"stimulus":"img/900/randomdotsizeEA/L/4_Ratio_900_L_20_R_18.png","xmouse":[767,771,776,776,777,777,777,777,777,777,777,777,777,777,777,777,777,777,777,777,777,777,777,777,777,777,778,780,786,794,804,822,829,836,844,854,876,888,905,911,917,925,929,930,932,934,936,937,937,937,937,937,919,899,878,857,838,794,758,732,703,671,608,583,561,545,531,492,474,460,454,452,452,452,452,452,454,463,466,468,468,469,469,469,469,469,469,469,469,469,469,469,469,469,469,469,469,469,469,469,469,469,469,469,469,469,468,467,464,464,464,464,464,464,464,464,464,464,464,464,467,470,471,472,474,476,479,484,489,493,499,507,528,534,541,545,545,545,545,545,547,551,552,552,554,554,558,594,634,699,763,807,821,821,821,821,821,821,821,821,821,819,807,793,779,766,753,731,725,715,702,681,623,582,533,488,436,400,395,393,393,393,393,393,393,393,393,395,401,407,415,422,428,429,430,433,436,445,447,448,448,449,449,449,449,449,449,449,449,449,449,449,449,449,449,449,449,449,449,449,449,449,449,449,449,449,449,449,449,449,449,449,452,466,477,486,495,499,500,501,502,504,511,516,525,537,564,608,633,660,684,701,709,709,709,709,709,712,712,713,713,714,716,717,717,719,722,731,740,747,752,754,754,754,754,759,766,795,804,807,809,810,811,811,811,811,811,811,811,808,805,796,707,579,413,256,256,256,256,256,256,256,256,256,256,256,256,256,256,256,256,256,256,256,256,256,256,256,256,256,256,256,303,322,341,360,373,375,375,376,378,382,397,406,424,445],"ymouse":[502,502,502,502,502,502,502,502,502,502,502,502,502,502,502,502,502,502,502,502,502,502,502,502,502,502,502,502,499,493,485,458,448,436,421,407,373,355,327,309,295,269,258,251,246,238,234,227,225,225,225,225,214,204,193,183,175,156,145,142,137,136,136,132,130,128,126,120,117,115,114,114,114,114,114,114,112,107,105,104,104,104,104,104,104,104,104,104,104,104,104,104,104,104,104,104,104,104,104,104,104,104,104,104,104,104,104,104,105,105,105,105,105,105,105,105,105,105,106,117,129,135,143,148,153,162,178,196,203,207,210,211,210,206,203,201,200,200,200,200,199,197,196,196,196,195,194,178,160,134,117,104,99,99,99,99,99,99,99,99,99,100,105,111,117,124,130,139,142,144,147,149,149,149,149,151,154,159,161,162,162,162,162,162,162,162,162,162,160,157,153,150,148,147,147,146,145,142,142,142,142,141,141,141,141,141,141,141,141,141,141,141,141,141,141,141,141,141,141,141,141,141,141,141,141,141,141,141,141,141,141,141,140,139,139,139,139,141,141,141,142,142,144,144,146,146,149,152,152,152,152,152,152,152,152,152,152,152,151,151,151,151,150,150,150,149,148,146,147,147,149,149,149,149,149,151,152,158,161,161,161,161,161,161,161,161,161,161,161,161,160,157,134,96,54,9,9,9,9,9,9,9,9,9,9,9,9,9,9,9,9,9,9,9,9,9,9,9,9,9,9,9,1,12,23,32,41,46,48,50,50,52,57,62,67,71],"timestamp_mouse":[3,23,51,62,82,103,123,144,163,183,203,224,243,263,283,304,324,343,363,383,404,424,443,463,484,503,523,543,563,584,603,623,642,663,684,703,724,743,763,782,804,824,842,863,882,903,922,942,963,984,1003,1024,1043,1063,1083,1104,1124,1143,1162,1183,1204,1223,1244,1263,1283,1303,1323,1343,1363,1382,1402,1423,1442,1462,1484,1503,1525,1543,1563,1582,1602,1624,1643,1664,1683,1703,1724,1743,1770,1784,1803,1824,1843,1863,1884,1903,1923,1942,1963,1984,2004,2023,2044,2063,2082,2103,2122,2142,2163,2183,2204,2223,2243,2263,2283,2303,2322,2342,2363,2390,2402,2423,2442,2463,2484,2503,2523,2543,2563,2583,2602,2622,2643,2663,2684,2704,2723,2743,2764,2783,2803,2825,2843,2862,2882,2904,2924,2943,2963,2982,3002,3023,3043,3063,3083,3102,3122,3143,3164,3183,3203,3223,3244,3262,3282,3303,3323,3343,3363,3382,3403,3422,3443,3463,3484,3503,3524,3543,3564,3584,3603,3623,3644,3664,3684,3703,3722,3743,3764,3784,3803,3824,3842,3863,3882,3903,3922,3942,3963,3983,4004,4023,4043,4063,4082,4103,4124,4142,4163,4182,4203,4224,4243,4263,4282,4303,4323,4344,4364,4384,4403,4423,4442,4463,4484,4503,4524,4544,4563,4583,4603,4623,4642,4663,4684,4703,4724,4743,4764,4784,4803,4823,4843,4864,4884,4904,4924,4942,4964,4984,5003,5024,5043,5063,5083,5102,5123,5143,5164,5183,5203,5224,5242,5262,5284,5303,5322,5343,5364,5383,5403,5424,5444,5463,5484,5502,5523,5543,5562,5583,5603,5624,5643,5664,5683,5703,5722,5742,5763,5783,5803,5823,5843,5863,5882,5902,5924,5944,5963,5983,6003,6023,6043,6062,6083,6102,6124,6143,6164,6183,6203,6223,6243,6263,6283,6304,6323,6343,6364,6384,6403,6423,6444,6463,6483,6502,6523,6543,6563,6584,6603,6623,6644,6664,6684,6703],"xSR":741.5,"ySR":469.95,"xT1":424.9,"yT1":0,"xT2":1058.1,"yT2":0,"toosoon":0,"cond_shown":"randomdotsizeEA","ratio_trial":900,"smaller_num":"18","larger_num":"20","correct_side":1,"subjID":"sofia penagos","gender":"1","age":"9","school":"4"},{"start_time":1552309244330,"click_time":1552309245438,"finger_time":1552309245099,"fix_duration":790.0726328696836,"trial":20,"RT":769,"MT":339,"sideResp":2,"stimulus":"img/500/equaldotsize/R/3_Ratio_500_L_10_R_20.png","xmouse":[796,796,796,796,796,796,796,796,796,796,796,796,796,796,796,796,796,796,796,796,796,796,796,796,796,796,796,796,796,796,796,796,796,797,798,806,811,821,830,856,875,899,933,978,1085,1131,1167,1178,1183,1185,1185,1185,1184,1182,1167,1150],"ymouse":[518,518,518,518,518,518,518,518,518,518,518,518,518,518,518,518,518,518,518,518,518,518,518,518,518,518,518,518,518,518,518,518,518,518,516,503,494,480,469,447,434,419,400,374,297,260,214,193,179,166,163,160,156,148,116,89],"timestamp_mouse":[10,45,48,68,88,107,129,148,169,189,208,229,247,268,289,308,329,348,367,389,407,427,448,468,488,509,528,547,567,589,607,627,648,668,689,708,729,748,769,790,807,828,848,868,890,907,929,949,969,990,1008,1029,1049,1069,1090,1108],"xSR":741.5,"ySR":469.95,"xT1":424.9,"yT1":0,"xT2":1058.1,"yT2":0,"toosoon":0,"cond_shown":"equaldotsize","ratio_trial":500,"smaller_num":"10","larger_num":"20","correct_side":2,"subjID":"sofia penagos","gender":"1","age":"9","school":"4"},{"start_time":1552309247796,"click_time":1552309252219,"finger_time":1552309249398,"fix_duration":1156.6826209324438,"trial":21,"RT":1602,"MT":2821,"sideResp":2,"stimulus":"img/900/randomdotsizeEA/R/13_Ratio_900_L_18_R_20.png","xmouse":[799,799,799,799,799,799,799,799,799,799,799,799,799,799,799,799,799,799,799,799,799,799,799,799,799,799,799,799,799,799,799,799,799,799,799,799,799,799,799,799,799,799,799,799,799,799,799,799,799,799,799,799,799,799,799,799,799,799,799,799,799,799,799,799,799,800,800,802,802,803,804,805,805,805,805,805,805,805,805,805,805,805,805,805,805,804,804,804,801,798,793,786,775,770,765,757,746,724,710,694,681,671,641,635,629,626,622,609,601,596,595,595,594,598,609,621,632,660,680,704,739,760,780,785,789,793,802,826,842,859,875,902,940,956,969,980,990,1006,1010,1011,1011,1011,1011,1011,1012,1012,1014,1015,1017,1020,1026,1029,1035,1036,1037,1038,1038,1038,1038,1038,1038,1038,1039,1039,1040,1041,1041,1041,1041,1041,1041,1041,1041,1041,1041,1041,1041,1041,1041,1041,1041,1041,1041,1041,1041,1041,1041,1041,1041,1041,1041,1041,1041,1041,1041,1041,1041,1041,1041,1041,1041,1041,1041,1041,1041,1041,1041,1041,1041,1041,1041,1041,1041,1041,1041,1041,1041,1041,1044,1051,1057,1060],"ymouse":[497,497,497,497,497,497,497,497,497,497,497,497,497,497,497,497,497,497,497,497,497,497,497,497,497,497,497,497,497,497,497,497,497,497,497,497,497,497,497,497,497,497,497,497,497,497,497,497,497,497,497,497,496,496,496,496,496,496,495,495,495,495,494,493,492,491,490,487,486,485,484,483,482,482,481,481,479,476,474,472,469,467,462,460,456,454,453,449,435,423,405,364,315,299,290,276,260,243,234,226,222,220,212,210,210,209,208,205,204,204,204,204,204,202,200,199,197,194,190,187,182,179,176,175,174,174,173,170,169,168,168,168,162,159,157,156,152,145,143,142,142,142,142,142,141,141,141,139,138,137,132,130,126,125,124,124,124,124,123,123,123,123,123,122,120,118,118,118,118,118,118,118,118,118,118,118,118,118,118,118,118,118,118,118,118,118,118,118,118,118,118,118,118,118,118,118,118,118,118,118,118,118,118,118,118,118,118,118,118,118,118,118,117,117,117,117,117,117,110,101,95,92],"timestamp_mouse":[9,22,41,63,82,102,122,141,163,183,202,223,243,262,282,301,322,341,363,383,402,421,442,461,482,503,521,542,562,582,603,621,642,663,683,703,722,743,763,782,801,822,843,861,883,903,922,943,962,982,1001,1021,1042,1061,1083,1103,1123,1141,1162,1183,1203,1222,1242,1262,1282,1303,1322,1342,1361,1382,1402,1422,1442,1461,1483,1503,1521,1542,1563,1582,1602,1623,1642,1663,1681,1702,1723,1742,1763,1782,1802,1822,1842,1863,1882,1902,1922,1941,1962,1981,2002,2022,2042,2063,2082,2102,2122,2142,2162,2181,2202,2222,2242,2261,2282,2302,2323,2342,2361,2381,2401,2423,2443,2463,2482,2502,2523,2542,2562,2582,2602,2622,2643,2663,2682,2702,2723,2742,2762,2781,2802,2822,2842,2862,2881,2903,2922,2943,2961,2982,3002,3022,3042,3062,3083,3103,3123,3142,3163,3182,3203,3222,3242,3263,3282,3302,3322,3342,3362,3383,3403,3422,3442,3462,3482,3502,3523,3543,3563,3582,3603,3621,3642,3663,3682,3702,3722,3742,3763,3782,3803,3822,3842,3861,3883,3902,3922,3942,3961,3982,4002,4022,4043,4063,4083,4103,4122,4142,4162,4182,4202,4221,4243,4263,4283,4302,4323,4342,4363,4382,4402,4423],"xSR":741.5,"ySR":469.95,"xT1":424.9,"yT1":0,"xT2":1058.1,"yT2":0,"toosoon":0,"cond_shown":"randomdotsizeEA","ratio_trial":900,"smaller_num":"18","larger_num":"20","correct_side":2,"subjID":"sofia penagos","gender":"1","age":"9","school":"4"},{"start_time":1552309256270,"click_time":1552309257799,"finger_time":1552309257299,"fix_duration":250,"trial":22,"RT":1029,"MT":500,"sideResp":1,"stimulus":"img/900/equaldotanddens/L/2_Ratio_900_L_20_R_18.png","xmouse":[795,795,795,795,795,795,795,795,795,795,796,796,796,796,796,796,796,796,796,796,796,796,796,796,796,796,796,796,796,796,796,796,796,796,796,796,796,796,796,796,796,796,796,796,796,796,796,796,796,796,796,789,785,774,741,728,715,705,697,689,683,674,664,645,595,562,542,527,521,518,518,518,518,518,518,518,519],"ymouse":[520,520,520,520,520,519,519,518,517,515,514,514,514,514,514,514,514,514,514,514,514,514,514,514,514,514,514,514,514,514,514,514,514,514,514,514,514,514,514,514,514,514,514,514,514,512,510,507,502,483,470,442,433,412,358,336,318,306,298,288,282,275,266,249,205,173,149,129,116,109,108,108,108,108,104,100,95],"timestamp_mouse":[11,27,48,71,87,108,128,148,168,188,209,229,247,269,288,309,328,347,369,389,407,429,448,468,489,509,527,548,569,588,609,628,649,668,687,709,729,747,767,789,807,827,849,868,887,909,927,948,968,987,1009,1029,1048,1068,1088,1109,1128,1148,1168,1188,1209,1229,1248,1267,1287,1309,1329,1348,1368,1388,1408,1428,1449,1469,1488,1507,1529],"xSR":741.5,"ySR":469.95,"xT1":424.9,"yT1":0,"xT2":1058.1,"yT2":0,"toosoon":0,"cond_shown":"equaldotanddens","ratio_trial":900,"smaller_num":"18","larger_num":"20","correct_side":1,"subjID":"sofia penagos","gender":"1","age":"9","school":"4"},{"start_time":1552309259922,"click_time":1552309261259,"finger_time":1552309260519,"fix_duration":1143.8943869161228,"trial":23,"RT":597,"MT":740,"sideResp":1,"stimulus":"img/500/equaldotanddens/L/13_Ratio_500_L_12_R_6.png","xmouse":[800,802,802,802,802,802,802,802,802,802,802,802,802,802,802,802,802,802,802,802,802,802,802,802,801,800,795,789,782,757,751,732,699,686,676,667,653,613,590,581,576,574,567,561,551,542,540,540,540,542,542,542,540,540,540,540,540,540,540,540,540,540,540,537,533,528,524],"ymouse":[505,506,506,506,506,506,506,506,506,506,506,506,506,506,506,506,506,506,506,506,506,506,506,507,507,507,499,493,481,453,445,426,383,365,348,333,318,286,269,260,254,249,226,212,194,177,157,143,136,117,108,100,93,91,91,91,91,91,91,91,91,91,91,89,86,83,81],"timestamp_mouse":[15,51,56,77,97,115,135,157,177,195,215,236,256,277,296,316,336,356,376,395,417,436,457,476,496,516,536,556,577,597,616,637,657,676,697,716,735,755,776,797,816,835,855,876,897,916,937,956,975,996,1015,1036,1056,1076,1096,1116,1136,1156,1176,1197,1215,1237,1255,1276,1297,1315,1337],"xSR":741.5,"ySR":469.95,"xT1":424.9,"yT1":0,"xT2":1058.1,"yT2":0,"toosoon":0,"cond_shown":"equaldotanddens","ratio_trial":500,"smaller_num":"6","larger_num":"12","correct_side":1,"subjID":"sofia penagos","gender":"1","age":"9","school":"4"},{"start_time":1552309262430,"click_time":1552309264158,"finger_time":1552309263258,"fix_duration":250,"trial":24,"RT":828,"MT":900,"sideResp":1,"stimulus":"img/250/randomdotsizeEA/L/5_Ratio_250_L_24_R_6.png","xmouse":[788,788,788,788,788,788,788,788,788,788,788,788,788,788,788,788,788,788,788,788,788,788,788,788,788,788,788,788,788,788,788,788,788,788,788,789,791,792,793,795,795,795,789,778,771,765,758,738,725,708,686,659,644,642,642,641,637,624,616,611,605,603,601,598,597,594,594,594,594,594,594,594,600,601,601,601,601,600,599,599,598,596,580,568,555,530,505],"ymouse":[533,533,533,533,533,533,533,533,533,533,533,533,533,533,533,533,533,533,533,533,533,533,533,533,533,533,533,533,533,533,533,533,533,533,533,532,529,524,516,502,484,462,427,403,390,382,375,361,352,342,328,310,296,294,291,285,275,242,227,211,198,192,183,175,170,163,161,161,161,161,159,159,154,151,149,144,139,132,131,131,130,129,122,117,111,101,93],"timestamp_mouse":[9,46,49,69,89,108,129,147,168,188,208,228,249,268,288,308,329,348,368,387,408,429,448,468,487,508,527,549,568,588,609,629,648,669,688,708,729,749,768,789,809,828,847,868,888,908,928,949,968,988,1008,1029,1047,1068,1088,1109,1129,1148,1168,1189,1208,1228,1248,1268,1289,1307,1328,1348,1369,1388,1408,1429,1448,1468,1488,1508,1528,1548,1567,1588,1609,1628,1648,1668,1689,1708,1728],"xSR":741.5,"ySR":469.95,"xT1":424.9,"yT1":0,"xT2":1058.1,"yT2":0,"toosoon":0,"cond_shown":"randomdotsizeEA","ratio_trial":250,"smaller_num":"6","larger_num":"24","correct_side":1,"subjID":"sofia penagos","gender":"1","age":"9","school":"4"},{"start_time":1552309265263,"click_time":1552309266579,"finger_time":1552309265778,"fix_duration":263.1507981404351,"trial":25,"RT":515,"MT":801,"sideResp":1,"stimulus":"img/250/randomdotsizeEA/L/7_Ratio_250_L_8_R_2.png","xmouse":[819,819,819,819,819,819,819,819,819,819,819,819,819,819,819,819,819,819,819,819,819,819,819,820,820,808,794,783,772,766,758,754,743,712,685,642,634,633,633,633,633,633,633,633,633,633,633,631,625,604,587,585,582,580,574,547,525,505,468,457,437,437,437,437,437,440],"ymouse":[514,514,514,514,514,514,514,514,514,514,514,514,514,514,514,514,514,514,514,514,514,514,514,512,505,468,444,423,402,388,360,350,330,279,247,188,176,173,172,172,171,171,171,171,171,171,171,170,168,162,158,157,156,156,154,146,137,129,113,108,100,100,100,100,100,98],"timestamp_mouse":[16,35,55,76,95,116,136,156,175,195,215,235,256,274,296,315,336,356,374,396,415,436,456,475,496,515,535,556,574,595,615,634,656,676,695,715,736,754,774,794,815,835,855,875,896,915,935,954,975,996,1015,1035,1055,1075,1095,1114,1136,1156,1175,1196,1216,1235,1256,1275,1295,1315],"xSR":741.5,"ySR":469.95,"xT1":424.9,"yT1":0,"xT2":1058.1,"yT2":0,"toosoon":0,"cond_shown":"randomdotsizeEA","ratio_trial":250,"smaller_num":"2","larger_num":"8","correct_side":1,"subjID":"sofia penagos","gender":"1","age":"9","school":"4"},{"start_time":1552309268150,"click_time":1552309269237,"finger_time":1552309268777,"fix_duration":250,"trial":26,"RT":627,"MT":460,"sideResp":1,"stimulus":"img/500/equaldotanddens/L/11_Ratio_500_L_12_R_6.png","xmouse":[791,793,793,793,793,793,793,794,794,794,794,794,794,794,794,795,795,795,795,795,795,795,795,794,793,791,784,779,776,771,766,752,733,727,710,699,679,671,665,661,656,650,633,623,618,614,612,597,586,574,563,537,528,522,519],"ymouse":[502,503,503,503,503,503,503,504,504,504,504,504,504,504,504,505,505,505,505,505,505,506,506,506,506,506,506,506,503,498,494,469,439,429,396,372,313,285,262,239,213,189,157,145,141,138,136,128,123,120,116,105,101,100,98],"timestamp_mouse":[7,27,47,67,87,107,128,148,168,187,207,227,247,268,287,307,328,347,367,387,407,427,448,467,488,507,527,548,567,587,608,627,647,667,686,708,728,747,767,788,808,828,848,868,887,907,928,948,967,987,1007,1027,1047,1068,1087],"xSR":741.5,"ySR":469.95,"xT1":424.9,"yT1":0,"xT2":1058.1,"yT2":0,"toosoon":0,"cond_shown":"equaldotanddens","ratio_trial":500,"smaller_num":"6","larger_num":"12","correct_side":1,"subjID":"sofia penagos","gender":"1","age":"9","school":"4"},{"start_time":1552309271949,"click_time":1552309273238,"finger_time":1552309272597,"fix_duration":250,"trial":27,"RT":648,"MT":641,"sideResp":1,"stimulus":"img/250/randomdotsizeEA/L/5_Ratio_250_L_24_R_6.png","xmouse":[778,778,778,778,778,778,778,778,778,778,778,778,778,778,778,778,778,778,778,778,778,778,778,778,778,778,778,778,778,778,779,779,744,718,689,660,619,608,596,587,579,565,541,536,536,536,536,536,536,536,535,535,535,535,535,535,535,533,533,531,529,526,518,515,513],"ymouse":[505,505,505,505,505,505,505,505,505,505,505,505,505,505,505,505,505,505,505,505,505,505,505,505,505,505,505,505,505,505,505,498,433,393,345,301,245,229,215,204,196,182,170,168,168,168,168,168,168,168,167,164,144,134,128,126,124,121,119,117,115,112,104,100,98],"timestamp_mouse":[14,29,48,67,88,109,127,149,169,188,207,228,247,268,289,308,329,347,368,389,409,428,449,469,488,508,529,549,568,588,608,629,648,668,689,708,730,748,768,789,808,827,848,868,889,908,929,948,968,989,1008,1028,1049,1068,1088,1109,1129,1148,1168,1188,1208,1229,1248,1269,1289],"xSR":741.5,"ySR":469.95,"xT1":424.9,"yT1":0,"xT2":1058.1,"yT2":0,"toosoon":0,"cond_shown":"randomdotsizeEA","ratio_trial":250,"smaller_num":"6","larger_num":"24","correct_side":1,"subjID":"sofia penagos","gender":"1","age":"9","school":"4"},{"start_time":1552309274843,"click_time":1552309276277,"finger_time":1552309275357,"fix_duration":343.46912224049953,"trial":28,"RT":514,"MT":920,"sideResp":2,"stimulus":"img/900/equaldotsize/L/4_Ratio_900_L_20_R_18.png","xmouse":[791,791,795,799,801,803,806,808,809,810,810,810,811,811,811,811,811,806,806,806,806,806,806,806,806,812,823,874,910,943,967,982,993,994,996,996,999,1005,1009,1011,1011,1013,1013,1013,1013,1014,1022,1033,1038,1043,1046,1047,1051,1053,1054,1054,1054,1054,1054,1054,1054,1054,1054,1054,1054,1054,1054,1054,1054,1054,1058,1079],"ymouse":[516,516,515,515,515,515,516,517,518,519,519,519,519,519,519,519,519,520,520,520,520,520,519,512,499,460,422,310,244,186,144,113,88,85,82,80,74,69,67,66,66,66,66,66,66,65,64,62,59,57,56,56,55,54,54,54,54,54,54,54,54,54,54,54,54,54,54,54,54,54,55,65],"timestamp_mouse":[15,38,54,74,94,115,135,154,174,193,215,234,255,274,295,314,335,354,375,394,415,435,454,475,494,514,534,554,574,594,614,634,654,674,694,715,735,754,773,794,815,834,854,874,894,915,935,954,974,994,1015,1034,1055,1074,1095,1115,1135,1154,1175,1195,1214,1235,1254,1275,1294,1314,1335,1355,1375,1394,1415,1434],"xSR":741.5,"ySR":469.95,"xT1":424.9,"yT1":0,"xT2":1058.1,"yT2":0,"toosoon":0,"cond_shown":"equaldotsize","ratio_trial":900,"smaller_num":"18","larger_num":"20","correct_side":1,"subjID":"sofia penagos","gender":"1","age":"9","school":"4"},{"start_time":1552309279933,"click_time":1552309281738,"finger_time":1552309280597,"fix_duration":594.2480582599294,"trial":29,"RT":664,"MT":1141,"sideResp":1,"stimulus":"img/900/equaldotanddens/L/2_Ratio_900_L_20_R_18.png","xmouse":[787,787,787,787,787,787,787,787,787,787,787,787,787,787,787,787,787,787,787,787,787,787,787,786,786,786,786,786,786,785,784,784,782,781,775,770,765,752,744,718,709,702,696,689,645,619,619,619,619,619,619,619,619,619,619,619,619,619,619,619,619,619,619,619,619,619,619,619,619,619,619,619,619,619,619,619,619,619,619,619,619,619,619,619,619,619,619,619,619,619,462],"ymouse":[511,511,511,511,511,511,511,511,511,511,511,511,511,511,511,511,511,511,511,511,511,510,508,505,504,504,504,503,502,497,490,483,472,460,420,392,353,308,268,190,172,157,145,131,53,14,14,14,14,14,14,14,14,14,14,14,14,14,14,14,14,14,14,14,14,14,14,14,14,14,14,14,14,14,14,14,14,14,14,14,14,14,14,14,14,14,14,14,14,14,5],"timestamp_mouse":[13,34,44,63,85,104,125,145,164,183,204,225,244,265,285,305,325,344,365,384,405,424,444,465,484,503,524,544,563,584,605,623,644,663,684,705,724,744,764,784,804,825,845,865,884,905,925,945,965,985,1005,1024,1045,1065,1085,1104,1124,1145,1165,1184,1203,1224,1243,1265,1284,1305,1325,1345,1365,1384,1404,1427,1444,1464,1484,1504,1524,1545,1564,1584,1605,1624,1645,1665,1684,1704,1725,1744,1765,1784,1805],"xSR":741.5,"ySR":469.95,"xT1":424.9,"yT1":0,"xT2":1058.1,"yT2":0,"toosoon":0,"cond_shown":"equaldotanddens","ratio_trial":900,"smaller_num":"18","larger_num":"20","correct_side":1,"subjID":"sofia penagos","gender":"1","age":"9","school":"4"},{"start_time":1552309284760,"click_time":1552309285818,"finger_time":1552309285378,"fix_duration":1361.3347674942206,"trial":30,"RT":618,"MT":440,"sideResp":1,"stimulus":"img/500/equaldotanddens/L/11_Ratio_500_L_12_R_6.png","xmouse":[802,802,802,802,802,802,802,802,802,802,802,802,802,802,802,802,802,802,802,802,802,802,802,802,802,802,802,796,785,769,738,686,542,451,379,326,310,299,298,298,298,297,295,294,294,294,294,309,327,347,377,414,482],"ymouse":[526,526,526,526,526,526,526,526,526,526,526,526,526,526,526,526,526,526,526,526,526,526,526,526,526,526,525,511,495,473,434,374,238,167,109,61,44,32,31,31,30,27,23,16,15,15,15,19,27,37,52,68,93],"timestamp_mouse":[34,38,57,78,97,118,137,158,177,198,217,238,258,277,296,318,338,358,378,398,418,438,458,478,498,517,538,557,578,598,618,638,657,677,697,717,736,757,777,798,818,837,857,877,897,918,937,958,977,997,1018,1037,1058],"xSR":741.5,"ySR":469.95,"xT1":424.9,"yT1":0,"xT2":1058.1,"yT2":0,"toosoon":0,"cond_shown":"equaldotanddens","ratio_trial":500,"smaller_num":"6","larger_num":"12","correct_side":1,"subjID":"sofia penagos","gender":"1","age":"9","school":"4"},{"start_time":1552309287346,"click_time":1552309288497,"finger_time":1552309287997,"fix_duration":446.20867150451994,"trial":31,"RT":651,"MT":500,"sideResp":2,"stimulus":"img/900/equaldotsize/R/12_Ratio_900_L_18_R_20.png","xmouse":[793,793,793,793,793,793,793,793,793,793,793,793,793,793,793,793,793,792,791,791,791,791,791,791,791,791,791,791,791,791,792,797,808,835,850,870,881,892,923,945,967,982,988,989,989,988,987,986,985,986,990,997,1006,1012,1026,1043,1055,1067],"ymouse":[495,495,495,495,495,495,495,495,495,495,495,495,495,495,495,495,495,496,496,496,496,496,496,496,496,496,496,496,496,496,490,482,467,428,406,371,351,332,286,264,244,227,213,203,191,182,172,159,134,123,115,109,104,102,98,93,91,91],"timestamp_mouse":[12,40,51,71,91,112,131,151,171,191,213,231,252,271,292,312,332,352,371,392,411,432,451,471,492,512,532,550,572,592,611,630,651,673,691,711,730,751,773,791,811,831,851,871,892,911,932,951,973,991,1011,1031,1052,1072,1090,1111,1131,1151],"xSR":741.5,"ySR":469.95,"xT1":424.9,"yT1":0,"xT2":1058.1,"yT2":0,"toosoon":0,"cond_shown":"equaldotsize","ratio_trial":900,"smaller_num":"18","larger_num":"20","correct_side":2,"subjID":"sofia penagos","gender":"1","age":"9","school":"4"},{"start_time":1552309292130,"click_time":1552309293618,"finger_time":1552309292837,"fix_duration":791.080699443165,"trial":32,"RT":707,"MT":781,"sideResp":2,"stimulus":"img/250/equaldotsize/R/9_Ratio_250_L_3_R_12.png","xmouse":[768,768,768,768,768,768,768,768,768,768,768,769,772,774,774,774,774,774,774,774,774,774,774,774,774,774,774,774,774,774,774,774,774,775,779,790,800,809,821,837,877,896,917,932,950,969,977,986,991,998,1005,1009,1016,1022,1022,1022,1022,1022,1022,1022,1022,1022,1022,1022,1022,1022,1022,1022,1022,1022,1022,1022,1022,1051,1073],"ymouse":[514,514,514,514,514,514,514,514,514,514,516,519,519,519,519,519,519,519,519,519,519,519,519,519,519,519,519,519,519,519,518,516,513,508,495,466,448,432,414,394,356,341,325,313,293,266,249,230,206,182,124,83,42,5,5,5,5,5,5,5,5,5,5,5,5,5,5,5,5,5,5,5,5,7,19],"timestamp_mouse":[10,42,47,67,87,107,128,147,168,188,207,227,246,268,288,307,328,347,367,388,407,428,447,466,488,508,528,560,567,588,607,627,648,667,687,707,728,747,767,788,807,827,848,866,887,907,927,947,967,987,1007,1027,1047,1068,1087,1108,1127,1147,1167,1187,1207,1227,1248,1266,1287,1307,1328,1348,1368,1387,1407,1427,1447,1468,1488],"xSR":741.5,"ySR":469.95,"xT1":424.9,"yT1":0,"xT2":1058.1,"yT2":0,"toosoon":0,"cond_shown":"equaldotsize","ratio_trial":250,"smaller_num":"3","larger_num":"12","correct_side":2,"subjID":"sofia penagos","gender":"1","age":"9","school":"4"},{"start_time":1552309296404,"click_time":1552309297439,"finger_time":1552309297057,"fix_duration":1344.4331773128845,"trial":33,"RT":653,"MT":382,"sideResp":2,"stimulus":"img/250/randomdotsizeEA/R/13_Ratio_250_L_2_R_8.png","xmouse":[785,785,786,786,786,786,786,786,786,786,786,786,786,787,787,787,787,787,787,788,789,792,792,793,793,793,793,795,797,800,805,819,833,853,875,908,934,963,971,979,987,998,1021,1030,1037,1041,1042,1045,1050,1055,1060,1065],"ymouse":[498,498,499,499,499,500,500,501,501,501,501,501,501,502,502,502,502,502,502,502,502,494,492,491,491,491,491,488,487,484,481,470,461,446,426,396,360,293,273,255,236,216,176,158,143,133,127,121,117,111,105,97],"timestamp_mouse":[13,35,64,73,93,114,134,153,173,192,213,232,254,273,294,312,333,353,374,394,413,434,454,472,494,514,532,554,574,593,613,634,653,673,694,713,733,753,773,793,814,835,854,873,892,913,933,953,974,994,1013,1034],"xSR":741.5,"ySR":469.95,"xT1":424.9,"yT1":0,"xT2":1058.1,"yT2":0,"toosoon":0,"cond_shown":"randomdotsizeEA","ratio_trial":250,"smaller_num":"2","larger_num":"8","correct_side":2,"subjID":"sofia penagos","gender":"1","age":"9","school":"4"},{"start_time":1552309299051,"click_time":1552309300157,"finger_time":1552309299617,"fix_duration":892.355020782904,"trial":34,"RT":566,"MT":540,"sideResp":1,"stimulus":"img/500/equaldotsize/L/5_Ratio_500_L_4_R_2.png","xmouse":[791,791,791,792,792,792,792,792,792,792,792,792,792,792,792,792,792,792,792,792,792,792,792,791,788,774,764,754,740,727,705,696,689,683,676,655,645,635,624,616,599,588,580,571,566,564,564,564,564,564,564,563,562,556,546,520],"ymouse":[529,529,529,529,530,530,530,530,530,530,530,530,530,530,530,530,530,530,530,530,530,530,530,528,525,500,486,473,457,441,416,404,392,382,370,338,325,310,296,279,226,158,95,58,43,41,41,41,41,41,41,41,40,39,38,40],"timestamp_mouse":[9,26,51,67,85,107,126,145,167,186,206,226,246,266,287,306,327,347,366,387,406,425,447,467,486,507,526,547,566,586,606,627,647,667,687,706,726,746,766,786,806,826,847,865,887,907,926,947,966,987,1006,1027,1047,1067,1087,1106],"xSR":741.5,"ySR":469.95,"xT1":424.9,"yT1":0,"xT2":1058.1,"yT2":0,"toosoon":0,"cond_shown":"equaldotsize","ratio_trial":500,"smaller_num":"2","larger_num":"4","correct_side":1,"subjID":"sofia penagos","gender":"1","age":"9","school":"4"},{"start_time":1552309302198,"click_time":1552309303077,"finger_time":1552309302697,"fix_duration":1038.3127564894146,"trial":35,"RT":499,"MT":380,"sideResp":1,"stimulus":"img/250/equaldotanddens/L/1_Ratio_250_L_8_R_2.png","xmouse":[784,784,784,784,784,783,782,781,781,781,781,781,780,780,779,779,777,777,777,777,777,777,775,770,765,760,748,737,722,676,657,640,625,612,609,608,605,602,594,592,585,576,561,532,519],"ymouse":[500,500,500,500,500,500,500,500,500,500,500,500,500,500,500,500,500,500,500,500,500,500,498,488,478,466,446,427,404,342,316,293,275,259,250,248,237,226,201,187,171,154,132,96,79],"timestamp_mouse":[1,20,40,60,80,100,118,139,160,180,199,219,239,259,280,299,319,339,361,380,399,420,439,459,478,499,520,539,559,580,599,619,638,659,679,699,720,740,760,779,799,819,839,860,879],"xSR":741.5,"ySR":469.95,"xT1":424.9,"yT1":0,"xT2":1058.1,"yT2":0,"toosoon":0,"cond_shown":"equaldotanddens","ratio_trial":250,"smaller_num":"2","larger_num":"8","correct_side":1,"subjID":"sofia penagos","gender":"1","age":"9","school":"4"},{"start_time":1552309305289,"click_time":1552309305997,"finger_time":1552309305737,"fix_duration":609.2080426378286,"trial":36,"RT":448,"MT":260,"sideResp":2,"stimulus":"img/500/equaldotsize/R/1_Ratio_500_L_9_R_18.png","xmouse":[786,786,786,786,786,786,786,787,788,789,790,790,790,791,792,793,794,795,796,798,799,799,802,816,831,853,877,909,966,1005,1029,1047,1066,1077,1099,1102],"ymouse":[505,505,505,505,505,505,505,504,502,500,498,498,497,496,493,491,489,486,482,476,474,471,466,452,436,418,399,371,314,261,228,196,167,143,104,99],"timestamp_mouse":[16,39,49,68,89,109,129,148,169,189,208,228,249,270,289,308,328,348,368,389,409,429,448,469,488,508,529,548,570,588,608,628,648,669,688,708],"xSR":741.5,"ySR":469.95,"xT1":424.9,"yT1":0,"xT2":1058.1,"yT2":0,"toosoon":0,"cond_shown":"equaldotsize","ratio_trial":500,"smaller_num":"9","larger_num":"18","correct_side":2,"subjID":"sofia penagos","gender":"1","age":"9","school":"4"},{"start_time":1552309308550,"click_time":1552309309877,"finger_time":1552309309376,"fix_duration":250,"trial":37,"RT":826,"MT":501,"sideResp":2,"stimulus":"img/900/equaldotanddens/R/15_Ratio_900_L_9_R_10.png","xmouse":[787,787,787,787,787,787,787,787,787,787,787,787,787,787,787,787,787,787,787,787,787,787,787,787,787,787,787,787,787,787,787,787,787,787,787,787,786,786,788,794,805,835,854,876,890,905,950,967,978,991,1001,1024,1032,1035,1037,1038,1038,1039,1039,1041,1043,1047,1051,1057,1065,1073,1080],"ymouse":[518,518,518,518,518,518,518,518,518,518,518,518,518,518,518,518,518,518,518,518,518,518,518,518,518,518,518,518,518,518,518,518,518,518,518,518,516,513,506,497,483,452,433,412,392,372,316,292,269,242,220,178,160,148,141,135,134,132,129,125,122,115,113,110,106,102,98],"timestamp_mouse":[9,27,55,67,87,107,128,148,167,188,207,227,248,268,287,307,327,347,368,387,408,428,447,468,488,508,527,548,567,588,608,627,648,666,687,707,727,748,766,787,808,826,847,868,887,908,927,947,967,987,1008,1026,1047,1068,1087,1107,1127,1148,1168,1187,1207,1227,1247,1268,1287,1306,1326],"xSR":741.5,"ySR":469.95,"xT1":424.9,"yT1":0,"xT2":1058.1,"yT2":0,"toosoon":0,"cond_shown":"equaldotanddens","ratio_trial":900,"smaller_num":"9","larger_num":"10","correct_side":2,"subjID":"sofia penagos","gender":"1","age":"9","school":"4"},{"start_time":1552309313414,"click_time":1552309315357,"finger_time":1552309314057,"fix_duration":1056.497446996985,"trial":38,"RT":643,"MT":1300,"sideResp":1,"stimulus":"img/750/randomdotsizeEA/L/1_Ratio_750_L_20_R_15.png","xmouse":[784,784,784,784,784,784,784,784,784,784,784,784,784,784,784,784,784,784,784,784,784,784,784,784,784,784,784,784,784,784,784,784,784,783,778,776,773,768,759,740,721,704,687,674,654,647,642,638,633,619,613,608,605,602,577,571,567,567,567,567,567,567,567,567,567,567,567,567,565,563,557,552,542,528,528,528,528,528,528,528,528,527,527,527,527,527,527,527,527,527,527,527,527,527,527,527,526,522],"ymouse":[517,517,517,517,517,517,517,517,517,517,517,517,517,517,517,517,517,517,517,517,517,517,517,517,517,517,513,512,502,495,487,479,468,457,437,421,398,363,333,277,241,216,195,181,160,153,148,145,141,131,125,121,117,113,93,90,89,89,89,89,89,89,89,89,89,89,89,89,89,89,90,90,90,90,90,90,90,90,90,90,90,90,90,90,90,90,90,90,90,90,90,90,90,90,90,90,90,90],"timestamp_mouse":[10,23,44,64,83,103,122,143,164,184,204,224,243,264,284,303,323,343,362,384,404,424,443,464,484,503,523,544,564,583,604,624,643,663,684,704,724,742,763,783,803,824,844,863,883,903,923,943,964,983,1003,1023,1044,1064,1084,1102,1124,1143,1164,1183,1203,1224,1243,1264,1283,1303,1323,1343,1362,1383,1403,1424,1444,1465,1483,1502,1524,1543,1564,1583,1603,1623,1643,1664,1683,1703,1724,1744,1764,1783,1803,1824,1843,1864,1884,1904,1923,1943],"xSR":741.5,"ySR":469.95,"xT1":424.9,"yT1":0,"xT2":1058.1,"yT2":0,"toosoon":0,"cond_shown":"randomdotsizeEA","ratio_trial":750,"smaller_num":"15","larger_num":"20","correct_side":1,"subjID":"sofia penagos","gender":"1","age":"9","school":"4"},{"start_time":1552309317778,"click_time":1552309318897,"finger_time":1552309318597,"fix_duration":640.6684571627509,"trial":39,"RT":819,"MT":300,"sideResp":1,"stimulus":"img/750/equaldotanddens/L/6_Ratio_750_L_24_R_18.png","xmouse":[750,750,750,750,750,750,752,753,756,758,762,762,762,762,762,762,762,762,762,762,762,763,764,764,764,764,764,764,764,764,764,762,762,762,762,762,762,763,765,767,767,766,761,755,749,730,724,718,713,699,685,647,626,599,568,510],"ymouse":[512,512,512,512,512,512,512,512,510,509,507,507,507,507,507,507,507,507,507,507,507,507,508,508,508,508,508,508,508,509,512,513,513,513,513,513,509,503,487,470,430,409,386,360,336,293,278,265,254,237,223,171,133,91,53,4],"timestamp_mouse":[19,40,66,79,100,120,139,160,179,200,219,240,260,280,300,319,340,360,379,400,418,440,459,479,499,518,539,559,580,599,619,640,659,680,700,720,739,759,780,800,819,840,859,879,900,919,939,960,980,998,1019,1040,1059,1080,1099,1118],"xSR":741.5,"ySR":469.95,"xT1":424.9,"yT1":0,"xT2":1058.1,"yT2":0,"toosoon":0,"cond_shown":"equaldotanddens","ratio_trial":750,"smaller_num":"18","larger_num":"24","correct_side":1,"subjID":"sofia penagos","gender":"1","age":"9","school":"4"},{"start_time":1552309321966,"click_time":1552309322937,"finger_time":1552309322617,"fix_duration":667.2416639101008,"trial":40,"RT":651,"MT":320,"sideResp":1,"stimulus":"img/500/equaldotsize/L/10_Ratio_500_L_4_R_2.png","xmouse":[817,817,817,817,817,817,817,817,817,817,817,817,817,817,817,817,817,817,817,817,817,817,817,817,816,816,816,816,814,806,794,776,681,640,626,623,626,627,627,625,613,585,536,525,521,521,521,519,517],"ymouse":[523,524,524,524,524,524,524,524,524,524,524,524,524,524,524,524,524,524,524,524,524,524,524,523,522,520,519,516,513,505,492,475,412,385,377,374,369,363,360,340,313,260,154,125,110,105,105,103,98],"timestamp_mouse":[12,32,52,71,91,111,132,151,171,192,211,232,252,271,291,312,332,352,371,392,412,431,452,472,492,512,531,552,571,592,611,631,651,671,691,712,732,751,771,791,811,831,851,871,892,911,932,952,971],"xSR":741.5,"ySR":469.95,"xT1":424.9,"yT1":0,"xT2":1058.1,"yT2":0,"toosoon":0,"cond_shown":"equaldotsize","ratio_trial":500,"smaller_num":"2","larger_num":"4","correct_side":1,"subjID":"sofia penagos","gender":"1","age":"9","school":"4"},{"start_time":1552309324269,"click_time":1552309325517,"finger_time":1552309324798,"fix_duration":250,"trial":41,"RT":529,"MT":719,"sideResp":1,"stimulus":"img/500/equaldotanddens/L/7_Ratio_500_L_10_R_5.png","xmouse":[796,796,796,796,796,796,796,796,796,796,796,796,796,796,796,796,796,796,796,796,796,796,796,796,795,794,781,771,757,740,723,711,704,703,701,698,685,665,655,648,645,645,645,643,635,623,609,579,564,555,550,548,545,544,544,544,544,544,543,543,540,530,520],"ymouse":[508,508,508,508,508,508,508,508,508,508,508,508,508,508,508,508,508,508,508,508,508,508,508,508,502,497,461,435,402,367,326,295,259,253,247,240,220,187,173,163,158,158,158,157,153,148,140,123,114,109,106,106,105,105,105,105,105,105,105,105,105,103,98],"timestamp_mouse":[12,34,48,68,88,108,129,147,168,189,209,227,249,269,288,308,328,349,368,389,407,428,449,469,489,508,529,548,569,588,608,629,648,668,689,709,729,748,768,789,808,828,848,868,889,909,928,948,969,988,1009,1028,1048,1068,1088,1108,1128,1147,1167,1189,1208,1229,1248],"xSR":741.5,"ySR":469.95,"xT1":424.9,"yT1":0,"xT2":1058.1,"yT2":0,"toosoon":0,"cond_shown":"equaldotanddens","ratio_trial":500,"smaller_num":"5","larger_num":"10","correct_side":1,"subjID":"sofia penagos","gender":"1","age":"9","school":"4"},{"start_time":1552309327053,"click_time":1552309328439,"finger_time":1552309327677,"fix_duration":733.3316941344814,"trial":42,"RT":624,"MT":762,"sideResp":1,"stimulus":"img/900/equaldotsize/L/1_Ratio_900_L_10_R_9.png","xmouse":[806,806,806,806,806,806,806,806,806,806,806,806,806,806,806,806,806,806,806,806,806,806,806,806,806,806,806,807,813,821,830,843,846,852,849,844,839,830,799,779,760,747,742,729,721,714,703,689,650,629,608,587,563,548,543,539,532,525,514,510,509,509,509,508,508,507,506,505,504,504],"ymouse":[523,523,523,523,523,523,523,523,523,523,523,523,523,523,523,523,523,523,523,523,523,523,523,523,523,523,521,519,512,501,488,465,457,428,414,402,394,383,348,321,284,255,233,197,187,179,172,165,156,153,149,144,138,133,130,129,126,121,115,113,112,111,111,110,109,107,105,103,100,99],"timestamp_mouse":[10,41,45,64,84,104,125,144,165,185,205,225,245,264,284,304,325,345,363,384,404,423,444,464,484,505,525,545,564,583,605,624,644,665,684,704,725,744,765,784,805,824,844,864,884,904,925,945,964,984,1005,1024,1045,1065,1084,1104,1124,1146,1165,1185,1206,1225,1244,1265,1285,1305,1325,1345,1365,1386],"xSR":741.5,"ySR":469.95,"xT1":424.9,"yT1":0,"xT2":1058.1,"yT2":0,"toosoon":0,"cond_shown":"equaldotsize","ratio_trial":900,"smaller_num":"9","larger_num":"10","correct_side":1,"subjID":"sofia penagos","gender":"1","age":"9","school":"4"},{"start_time":1552309330666,"click_time":1552309336238,"finger_time":1552309331219,"fix_duration":1206.5709268925732,"trial":43,"RT":553,"MT":5019,"sideResp":1,"stimulus":"img/750/randomdotsizeEA/R/7_Ratio_750_L_3_R_4.png","xmouse":[798,798,798,798,798,798,798,798,797,796,795,795,795,795,795,795,795,795,795,795,795,795,795,795,796,800,806,813,831,840,843,844,844,844,844,844,844,844,844,844,844,844,844,844,843,840,836,832,819,810,807,805,802,802,802,802,801,794,792,789,788,787,785,782,780,776,770,765,737,720,704,692,685,679,677,676,674,672,664,657,642,605,511,484,459,438,429,424,426,431,437,444,446,447,447,447,447,447,449,455,474,504,541,644,693,711,712,712,712,712,712,712,712,704,692,680,668,662,660,660,660,662,673,698,704,707,708,710,712,712,712,712,712,697,690,682,675,672,664,661,659,657,655,652,651,651,651,652,655,658,662,670,686,730,748,756,760,762,773,778,784,790,802,811,821,829,841,846,877,883,889,891,894,899,903,906,913,917,929,933,936,939,942,950,955,958,958,958,959,959,953,946,940,933,932,931,930,930,928,927,926,926,926,940,955,970,983,992,1007,1011,1014,1017,1021,1032,1038,1043,1047,1051,1053,1054,1055,1057,1058,1060,1061,1062,1062,1062,1062,1062,1061,1057,1052,1030,1019,1009,1000,985,942,909,860,803,730,578,513,471,441,418,413,411,410,406,405,405,405,405,405,410,440,458,469,469,469,469,469,469,469,469,469,469,469,469,469,469,469,469,472,482,497],"ymouse":[481,484,486,486,486,486,487,488,491,495,496,498,498,498,498,498,498,498,498,498,498,498,499,499,496,488,477,463,427,407,398,394,393,393,393,393,393,393,393,393,392,392,392,392,391,391,390,390,388,387,384,382,380,380,380,380,380,380,380,380,380,380,381,381,381,381,381,381,372,364,358,351,346,340,338,337,335,333,325,317,301,269,220,212,200,190,185,181,180,177,175,173,171,171,171,171,171,171,171,171,172,181,191,211,217,221,221,221,221,221,221,221,221,221,223,224,226,226,226,226,226,225,220,208,205,204,203,203,202,202,202,202,202,209,213,217,225,233,261,270,275,281,284,292,297,303,310,315,319,319,319,316,312,299,292,289,288,288,288,288,290,293,301,305,308,309,313,315,322,323,324,324,324,323,321,319,312,310,293,289,286,283,280,275,273,272,272,272,273,282,294,307,316,325,326,326,326,326,318,311,307,305,303,292,279,263,246,233,215,210,206,203,200,190,185,179,174,169,167,166,164,163,161,159,159,157,156,156,153,151,148,146,144,138,137,135,135,135,135,135,135,135,135,135,135,135,135,135,136,137,138,139,140,140,140,140,140,138,123,113,109,108,108,108,108,108,108,108,108,108,108,108,108,108,108,108,107,101,93],"timestamp_mouse":[12,31,53,71,92,111,132,151,171,191,212,232,253,271,292,312,332,352,371,393,411,431,452,473,492,512,532,553,573,592,611,632,653,672,693,711,732,753,773,793,811,833,853,873,893,913,933,953,973,993,1012,1032,1053,1071,1092,1113,1132,1153,1171,1192,1212,1233,1251,1271,1291,1313,1332,1353,1371,1392,1413,1433,1452,1472,1493,1512,1532,1551,1571,1592,1612,1633,1653,1672,1692,1712,1732,1752,1772,1793,1813,1833,1852,1873,1891,1912,1931,1952,1971,1992,2013,2032,2051,2072,2092,2112,2131,2152,2173,2193,2213,2232,2253,2271,2293,2312,2332,2352,2372,2392,2412,2432,2453,2473,2492,2511,2532,2552,2571,2592,2613,2631,2653,2671,2692,2713,2733,2752,2772,2792,2812,2832,2851,2872,2892,2912,2933,2953,2974,2992,3011,3033,3053,3072,3092,3111,3131,3151,3171,3192,3213,3233,3253,3272,3291,3312,3331,3352,3371,3392,3413,3433,3452,3472,3491,3512,3531,3553,3572,3592,3613,3632,3651,3671,3692,3711,3733,3752,3771,3793,3812,3833,3851,3873,3892,3913,3931,3952,3972,3993,4013,4031,4053,4071,4092,4112,4132,4152,4172,4192,4211,4232,4252,4271,4292,4313,4332,4351,4371,4392,4411,4432,4453,4471,4492,4512,4532,4551,4572,4591,4612,4631,4652,4672,4692,4712,4732,4751,4772,4792,4813,4833,4852,4871,4892,4913,4932,4952,4972,4993,5011,5033,5053,5072,5092,5112,5132,5152,5171,5192,5212,5233,5251,5271,5292,5311,5333,5353,5372,5391,5412,5433,5451,5473,5493,5511,5532,5553,5571],"xSR":741.5,"ySR":469.95,"xT1":424.9,"yT1":0,"xT2":1058.1,"yT2":0,"toosoon":0,"cond_shown":"randomdotsizeEA","ratio_trial":750,"smaller_num":"3","larger_num":"4","correct_side":2,"subjID":"sofia penagos","gender":"1","age":"9","school":"4"},{"start_time":1552309339743,"click_time":1552309340938,"finger_time":1552309340399,"fix_duration":1482.2690423165918,"trial":44,"RT":656,"MT":539,"sideResp":1,"stimulus":"img/250/equaldotanddens/L/5_Ratio_250_L_24_R_6.png","xmouse":[802,802,802,802,802,802,802,802,800,800,799,798,798,798,797,797,796,796,795,794,793,792,792,792,792,792,792,791,791,791,784,780,772,760,710,667,612,555,506,443,436,432,431,430,429,428,426,425,425,425,425,425,425,425,425,429,430,433,436,440],"ymouse":[506,506,506,506,506,506,506,506,505,503,502,500,498,498,496,496,495,493,491,490,486,485,485,485,485,485,485,484,484,484,479,475,469,457,422,396,370,341,312,262,249,232,220,205,170,151,132,120,114,109,109,109,109,108,107,105,104,103,101,99],"timestamp_mouse":[14,43,54,75,94,116,136,155,176,195,215,235,254,276,295,315,334,355,374,395,416,435,455,476,495,514,536,555,575,595,616,636,656,674,696,714,736,756,775,797,815,834,855,874,896,915,935,955,976,995,1015,1035,1056,1076,1095,1114,1136,1154,1175,1195],"xSR":741.5,"ySR":469.95,"xT1":424.9,"yT1":0,"xT2":1058.1,"yT2":0,"toosoon":0,"cond_shown":"equaldotanddens","ratio_trial":250,"smaller_num":"6","larger_num":"24","correct_side":1,"subjID":"sofia penagos","gender":"1","age":"9","school":"4"},{"start_time":1552309343639,"click_time":1552309344658,"finger_time":1552309344277,"fix_duration":1258.7533423832374,"trial":45,"RT":638,"MT":381,"sideResp":2,"stimulus":"img/500/equaldotanddens/R/2_Ratio_500_L_3_R_6.png","xmouse":[803,803,803,803,803,803,803,803,803,803,803,803,803,803,803,803,803,803,803,803,803,803,803,803,803,803,805,807,808,810,813,822,829,843,849,880,921,938,950,961,971,987,994,1001,1007,1012,1032,1039,1045,1050,1056,1063],"ymouse":[485,485,485,485,485,485,485,485,485,485,485,485,485,485,485,485,485,485,485,485,485,485,485,485,485,485,484,483,483,481,479,470,459,436,425,366,297,272,249,231,214,175,160,150,139,127,90,78,67,59,51,43],"timestamp_mouse":[1,19,47,58,79,99,120,140,158,179,199,220,240,258,278,299,319,338,359,380,400,419,440,460,479,500,519,539,558,579,600,619,638,659,680,699,720,739,759,780,799,818,840,858,878,900,919,938,959,980,1000,1018],"xSR":741.5,"ySR":469.95,"xT1":424.9,"yT1":0,"xT2":1058.1,"yT2":0,"toosoon":0,"cond_shown":"equaldotanddens","ratio_trial":500,"smaller_num":"3","larger_num":"6","correct_side":2,"subjID":"sofia penagos","gender":"1","age":"9","school":"4"},{"start_time":1552309347552,"click_time":1552309350160,"finger_time":1552309348199,"fix_duration":371.0066845631977,"trial":46,"RT":647,"MT":1961,"sideResp":1,"stimulus":"img/750/equaldotsize/R/15_Ratio_750_L_9_R_12.png","xmouse":[778,778,778,778,778,778,778,778,778,778,778,778,778,778,778,778,778,778,778,778,778,778,778,778,778,778,778,778,778,779,781,782,783,783,784,785,785,785,785,784,777,772,769,767,766,766,766,767,771,775,787,793,801,812,821,834,837,840,842,845,848,867,881,894,898,899,899,899,899,899,899,899,899,899,899,899,888,870,855,849,846,846,846,846,846,846,846,846,846,846,855,868,880,890,896,897,901,906,910,912,912,912,907,893,866,840,801,781,766,745,696,689,689,689,691,703,744,764,778,785,786,786,777,749,679,571,269,215,209,215,460],"ymouse":[518,518,518,518,518,518,518,518,518,518,518,518,518,518,518,518,518,518,518,518,518,518,518,518,518,518,518,518,518,517,495,481,469,460,452,445,440,435,430,421,394,379,366,358,355,354,353,351,349,346,336,327,317,302,290,272,266,262,260,256,252,230,212,196,192,191,191,191,191,191,191,191,191,191,191,191,196,206,214,217,218,218,218,218,218,218,218,218,218,218,215,208,202,196,194,193,191,189,187,186,186,186,186,190,193,195,198,198,198,199,199,199,199,199,199,193,167,159,152,149,149,148,143,139,130,119,88,78,75,72,36],"timestamp_mouse":[9,27,46,67,86,106,127,147,167,185,206,227,247,267,286,306,325,346,366,386,405,425,445,467,487,507,526,545,565,585,606,627,647,666,686,707,725,747,767,787,807,825,846,867,886,906,925,946,967,987,1007,1026,1046,1067,1086,1107,1125,1146,1167,1187,1207,1226,1247,1267,1286,1305,1326,1346,1366,1385,1407,1427,1446,1466,1486,1506,1526,1547,1566,1586,1606,1625,1645,1666,1685,1705,1727,1747,1766,1786,1807,1825,1845,1866,1886,1907,1926,1946,1966,1986,2006,2027,2046,2066,2085,2107,2127,2146,2166,2185,2207,2225,2246,2266,2285,2305,2325,2346,2367,2385,2407,2426,2445,2466,2485,2505,2525,2546,2565,2586,2607],"xSR":741.5,"ySR":469.95,"xT1":424.9,"yT1":0,"xT2":1058.1,"yT2":0,"toosoon":0,"cond_shown":"equaldotsize","ratio_trial":750,"smaller_num":"9","larger_num":"12","correct_side":2,"subjID":"sofia penagos","gender":"1","age":"9","school":"4"},{"start_time":1552309352289,"click_time":1552309353518,"finger_time":1552309353138,"fix_duration":250,"trial":47,"RT":849,"MT":380,"sideResp":2,"stimulus":"img/500/randomdotsizeEA/R/9_Ratio_500_L_2_R_4.png","xmouse":[797,797,797,797,797,797,797,797,797,796,794,794,794,794,794,794,794,794,794,794,794,794,794,794,794,794,794,794,794,794,794,794,794,794,794,797,802,808,809,815,826,839,859,881,925,943,961,973,985,996,1003,1010,1019,1025,1039,1044,1046,1047,1050,1057,1060,1064],"ymouse":[503,503,503,503,503,503,503,503,503,504,505,505,505,505,505,505,505,505,505,505,505,505,505,505,505,505,505,505,505,505,505,505,505,505,505,504,501,498,498,494,488,477,461,444,407,391,371,353,337,320,312,300,287,270,232,216,201,188,164,127,109,95],"timestamp_mouse":[10,39,50,69,89,109,129,149,169,189,209,229,250,269,290,308,328,348,370,388,409,428,448,469,490,510,529,549,570,590,610,628,650,669,690,710,730,748,769,789,809,828,849,870,890,908,929,949,968,988,1008,1028,1049,1070,1089,1108,1129,1149,1170,1188,1210,1228],"xSR":741.5,"ySR":469.95,"xT1":424.9,"yT1":0,"xT2":1058.1,"yT2":0,"toosoon":0,"cond_shown":"randomdotsizeEA","ratio_trial":500,"smaller_num":"2","larger_num":"4","correct_side":2,"subjID":"sofia penagos","gender":"1","age":"9","school":"4"},{"start_time":1552309355201,"click_time":1552309356599,"finger_time":1552309355999,"fix_duration":420.58671942473046,"trial":48,"RT":798,"MT":600,"sideResp":2,"stimulus":"img/500/equaldotsize/R/12_Ratio_500_L_1_R_2.png","xmouse":[785,785,787,787,787,787,787,787,787,787,787,787,787,787,787,787,787,787,787,787,787,787,787,787,787,787,787,787,787,787,787,787,787,787,787,787,787,789,803,833,849,894,926,980,1006,1019,1028,1034,1042,1045,1050,1050,1051,1051,1052,1054,1056,1057,1071,1076,1086,1090,1094,1099,1100,1101,1102,1103,1104,1105],"ymouse":[499,499,498,498,498,498,498,498,498,498,498,498,498,498,498,498,498,498,498,498,498,498,498,498,498,498,498,498,498,498,498,498,498,498,498,498,497,496,481,440,417,354,308,233,203,187,176,169,160,157,154,153,153,153,153,151,151,149,141,136,126,122,118,111,109,108,108,105,103,99],"timestamp_mouse":[34,36,57,78,96,117,138,158,178,198,218,237,256,276,298,317,337,356,377,398,417,438,457,476,496,516,537,558,576,596,618,637,658,677,696,718,738,756,777,798,818,837,856,878,897,917,937,957,977,996,1017,1037,1057,1077,1097,1117,1136,1156,1177,1196,1217,1237,1256,1278,1297,1316,1337,1357,1377,1398],"xSR":741.5,"ySR":469.95,"xT1":424.9,"yT1":0,"xT2":1058.1,"yT2":0,"toosoon":0,"cond_shown":"equaldotsize","ratio_trial":500,"smaller_num":"1","larger_num":"2","correct_side":2,"subjID":"sofia penagos","gender":"1","age":"9","school":"4"},{"start_time":1552309358964,"click_time":1552309360238,"finger_time":1552309359718,"fix_duration":1365.613058162553,"trial":49,"RT":754,"MT":520,"sideResp":1,"stimulus":"img/250/randomdotsizeEA/L/15_Ratio_250_L_12_R_3.png","xmouse":[795,795,795,795,795,795,795,795,795,795,795,795,795,795,795,795,795,795,795,795,795,795,795,795,795,795,795,795,795,795,795,795,795,795,795,795,795,777,746,707,662,587,587,587,587,587,587,587,587,587,587,587,587,587,587,587,587,587,587,587,587,587,491,488],"ymouse":[542,542,542,542,542,542,542,542,542,542,542,542,542,542,542,542,542,542,542,542,542,542,542,542,542,542,542,542,542,542,542,542,542,542,542,542,515,417,319,228,140,10,10,10,10,10,10,10,10,10,10,10,10,10,10,10,10,10,10,10,10,10,0,1],"timestamp_mouse":[14,35,53,75,95,115,134,153,174,194,214,233,255,273,295,314,334,355,374,395,413,435,455,475,493,514,535,554,574,593,614,634,655,674,695,715,734,754,773,793,815,834,855,874,893,915,933,954,975,995,1015,1033,1054,1073,1094,1113,1134,1154,1174,1194,1214,1234,1254,1274],"xSR":741.5,"ySR":469.95,"xT1":424.9,"yT1":0,"xT2":1058.1,"yT2":0,"toosoon":0,"cond_shown":"randomdotsizeEA","ratio_trial":250,"smaller_num":"3","larger_num":"12","correct_side":1,"subjID":"sofia penagos","gender":"1","age":"9","school":"4"},{"start_time":1552309364274,"click_time":1552309365598,"finger_time":1552309365038,"fix_duration":1274.2738135305403,"trial":50,"RT":764,"MT":560,"sideResp":1,"stimulus":"img/900/equaldotsize/L/1_Ratio_900_L_10_R_9.png","xmouse":[797,797,797,797,797,797,797,797,797,797,797,797,797,797,797,797,797,797,797,797,797,797,797,797,797,797,797,797,797,797,797,797,797,797,797,797,797,783,706,603,501,353,353,353,353,353,353,353,353,353,353,353,353,353,353,353,353,353,353,353,353,353,353,353,353,415,491],"ymouse":[521,521,521,521,521,521,521,521,521,521,521,521,521,521,521,521,521,521,521,521,521,521,521,521,521,521,521,521,521,521,521,521,521,521,521,521,521,486,395,279,173,4,4,4,4,4,4,4,4,4,4,4,4,4,4,4,4,4,4,4,4,4,4,4,4,22,76],"timestamp_mouse":[13,24,43,65,84,103,125,144,163,185,204,225,243,264,284,303,325,344,363,383,403,423,443,463,483,503,523,543,565,584,605,625,644,663,683,704,724,743,764,783,805,825,845,865,884,904,923,943,965,983,1003,1025,1045,1064,1084,1104,1124,1144,1165,1185,1204,1223,1243,1264,1283,1303,1324],"xSR":741.5,"ySR":469.95,"xT1":424.9,"yT1":0,"xT2":1058.1,"yT2":0,"toosoon":0,"cond_shown":"equaldotsize","ratio_trial":900,"smaller_num":"9","larger_num":"10","correct_side":1,"subjID":"sofia penagos","gender":"1","age":"9","school":"4"},{"start_time":1552309367625,"click_time":1552309369018,"finger_time":1552309368277,"fix_duration":265.9133856806696,"trial":51,"RT":652,"MT":741,"sideResp":2,"stimulus":"img/250/equaldotsize/R/6_Ratio_250_L_6_R_24.png","xmouse":[816,816,816,815,813,812,811,811,810,809,809,809,806,805,805,805,808,811,811,811,811,811,811,811,811,811,811,811,811,812,820,837,859,896,928,936,946,956,998,1032,1067,1104,1135,1160,1191,1195,1198,1201,1204,1206,1206,1206,1206,1206,1202,1201,1201,1201,1201,1197,1187,1175,1166,1153,1133,1131,1131,1131,1131,1131],"ymouse":[533,533,533,534,535,536,537,537,538,538,538,538,537,534,524,517,512,507,507,507,507,507,507,507,507,507,507,507,507,506,500,488,474,450,432,427,421,413,387,367,347,326,309,296,278,277,274,270,260,239,229,220,209,196,170,168,168,168,168,165,157,149,142,130,109,106,105,104,101,94],"timestamp_mouse":[15,36,54,73,92,114,134,153,173,194,214,232,253,273,294,313,332,353,374,393,414,432,454,473,493,514,533,554,573,593,613,634,652,674,693,714,740,752,774,792,813,834,853,872,893,913,932,954,973,993,1013,1033,1052,1073,1093,1113,1133,1152,1173,1193,1212,1233,1253,1273,1293,1312,1332,1354,1372,1392],"xSR":741.5,"ySR":469.95,"xT1":424.9,"yT1":0,"xT2":1058.1,"yT2":0,"toosoon":0,"cond_shown":"equaldotsize","ratio_trial":250,"smaller_num":"6","larger_num":"24","correct_side":2,"subjID":"sofia penagos","gender":"1","age":"9","school":"4"},{"start_time":1552309372303,"click_time":1552309373298,"finger_time":1552309372857,"fix_duration":1404.021997605622,"trial":52,"RT":554,"MT":441,"sideResp":1,"stimulus":"img/900/equaldotanddens/L/8_Ratio_900_L_20_R_18.png","xmouse":[803,803,803,803,803,803,803,803,803,803,803,803,803,803,803,803,803,803,803,803,803,803,805,807,809,815,819,822,823,824,825,826,826,826,826,826,826,826,824,820,809,798,783,762,733,664,625,596,543,513],"ymouse":[494,494,494,494,494,494,494,494,494,494,494,494,494,494,494,494,494,494,494,494,494,494,495,492,490,479,472,464,461,457,454,452,450,448,446,438,434,429,418,409,385,372,353,327,290,218,181,157,119,98],"timestamp_mouse":[15,50,54,76,95,114,135,155,176,196,214,236,256,275,295,315,335,355,376,395,414,435,455,475,495,515,535,554,575,596,615,634,654,674,694,716,734,755,775,796,816,836,855,875,896,915,934,956,975,995],"xSR":741.5,"ySR":469.95,"xT1":424.9,"yT1":0,"xT2":1058.1,"yT2":0,"toosoon":0,"cond_shown":"equaldotanddens","ratio_trial":900,"smaller_num":"18","larger_num":"20","correct_side":1,"subjID":"sofia penagos","gender":"1","age":"9","school":"4"},{"start_time":1552309376691,"click_time":1552309377998,"finger_time":1552309377278,"fix_duration":250,"trial":53,"RT":587,"MT":720,"sideResp":1,"stimulus":"img/900/equaldotanddens/R/7_Ratio_900_L_9_R_10.png","xmouse":[783,783,781,780,780,780,780,780,780,780,780,780,780,780,780,780,780,780,780,780,780,780,780,780,780,779,779,787,791,795,797,797,797,797,797,797,797,795,793,789,784,778,765,757,747,737,724,683,662,641,626,612,597,597,597,597,596,596,596,596,596,596,581,562,542,518],"ymouse":[495,495,495,495,495,495,495,495,495,495,495,495,495,495,495,495,495,495,495,495,495,495,495,495,495,495,495,489,481,469,456,441,415,407,402,398,396,381,372,360,346,333,305,292,278,265,248,199,178,157,140,124,109,108,108,108,108,108,108,108,108,108,98,88,78,68],"timestamp_mouse":[15,27,52,67,88,106,126,148,166,187,208,227,248,267,287,306,328,347,367,388,407,427,446,466,487,507,526,546,567,587,607,626,647,667,688,707,729,747,767,787,807,826,847,867,887,907,928,946,967,988,1007,1026,1047,1067,1088,1107,1129,1146,1167,1187,1207,1227,1247,1267,1287,1307],"xSR":741.5,"ySR":469.95,"xT1":424.9,"yT1":0,"xT2":1058.1,"yT2":0,"toosoon":0,"cond_shown":"equaldotanddens","ratio_trial":900,"smaller_num":"9","larger_num":"10","correct_side":2,"subjID":"sofia penagos","gender":"1","age":"9","school":"4"},{"start_time":1552309383029,"click_time":1552309384059,"finger_time":1552309383557,"fix_duration":1390.8252355795717,"trial":54,"RT":528,"MT":502,"sideResp":2,"stimulus":"img/500/equaldotsize/R/2_Ratio_500_L_3_R_6.png","xmouse":[787,787,787,787,787,787,787,787,787,787,787,787,787,787,787,787,787,787,787,787,787,787,789,791,803,838,871,891,906,915,923,931,937,945,955,983,1003,1029,1042,1053,1064,1067,1071,1077,1085,1095,1101,1104,1107,1108,1109,1112],"ymouse":[530,530,530,531,531,531,531,531,532,532,532,532,532,532,532,532,532,532,532,532,532,532,533,533,529,511,487,467,448,439,428,414,404,393,379,335,305,262,243,229,216,211,204,193,182,162,153,144,135,124,114,95],"timestamp_mouse":[17,28,49,68,88,108,130,150,169,190,209,229,249,270,290,309,328,350,369,388,408,429,448,470,490,509,528,548,570,590,609,630,648,668,689,711,729,749,769,788,810,829,849,869,890,911,929,949,969,989,1009,1030],"xSR":741.5,"ySR":469.95,"xT1":424.9,"yT1":0,"xT2":1058.1,"yT2":0,"toosoon":0,"cond_shown":"equaldotsize","ratio_trial":500,"smaller_num":"3","larger_num":"6","correct_side":2,"subjID":"sofia penagos","gender":"1","age":"9","school":"4"},{"start_time":1552309386325,"click_time":1552309387738,"finger_time":1552309386657,"fix_duration":1065.7532804101593,"trial":55,"RT":332,"MT":1081,"sideResp":1,"stimulus":"img/750/equaldotsize/R/15_Ratio_750_L_9_R_12.png","xmouse":[798,798,798,798,798,798,799,800,801,801,802,802,803,805,807,808,810,810,812,816,817,824,828,835,842,853,865,868,870,871,872,872,872,871,869,864,833,805,771,741,696,653,639,628,619,616,615,615,613,605,599,597,