[{"start_time":1552308309772,"click_time":1552308312899,"finger_time":1552308311820,"fix_duration":407.19347257297756,"trial":0,"RT":2048,"MT":1079,"sideResp":2,"stimulus":[],"xmouse":[820,820,820,820,820,820,820,820,820,820,820,820,820,820,820,820,820,820,820,820,820,820,820,820,820,820,820,820,820,820,820,820,820,820,820,820,820,820,820,820,820,820,820,820,820,820,820,820,820,820,820,820,820,820,820,820,820,820,820,820,820,820,820,820,820,820,820,820,820,820,820,820,820,820,820,820,820,820,820,820,820,820,820,820,820,820,820,820,820,820,820,819,817,816,816,816,816,816,816,816,817,826,848,896,965,1064,1098,1146,1173,1205,1227,1253,1267,1280,1302,1325,1325,1325,1325,1325,1325,1325,1325,1325,1325,1325,1325,1325,1325,1325,1325,1325,1325,1325,1325,1325,1325,1325,1325,1325,1325,1325,1325,1325,1204,1200,1191,1188,1185,1184,1181,1176,1175,1173,1170,1166,1155],"ymouse":[546,546,546,546,546,546,546,546,546,546,546,546,546,546,546,546,546,546,546,546,546,546,546,546,546,546,546,546,546,546,546,546,546,546,546,546,546,546,546,546,546,546,546,546,546,546,546,546,546,546,546,546,546,546,546,546,546,546,546,546,546,546,546,546,546,546,546,546,546,546,546,546,546,546,546,546,546,546,546,546,546,546,546,546,546,546,546,546,546,546,546,546,542,540,540,540,538,536,535,533,524,514,500,473,433,353,310,253,230,203,185,150,127,102,63,7,7,7,7,7,7,7,7,7,7,7,7,7,7,7,7,7,7,7,7,7,7,7,7,7,7,7,7,7,1,2,6,7,9,9,11,15,15,16,17,19,25],"timestamp_mouse":[10,40,47,67,86,106,126,146,167,187,206,226,247,268,288,306,327,348,367,388,407,427,447,467,486,507,527,548,568,587,607,626,648,668,686,706,727,748,768,788,808,828,847,867,887,906,927,948,968,987,1007,1027,1047,1067,1088,1107,1127,1146,1167,1186,1208,1227,1246,1268,1288,1306,1327,1348,1367,1387,1407,1428,1446,1468,1487,1507,1527,1548,1567,1588,1608,1626,1646,1668,1688,1707,1727,1748,1767,1786,1808,1827,1848,1866,1887,1908,1927,1948,1967,1987,2008,2028,2048,2068,2087,2109,2126,2146,2166,2187,2207,2228,2247,2268,2287,2307,2326,2346,2366,2387,2407,2427,2447,2466,2487,2506,2526,2547,2567,2587,2608,2627,2648,2668,2688,2707,2726,2747,2767,2787,2808,2828,2846,2867,2887,2907,2927,2946,2966,2987,3006,3026,3046,3067,3087,3107,3127],"xSR":741.5,"ySR":500.5,"xT1":424.9,"yT1":0,"xT2":1058.1,"yT2":0,"toosoon":0,"cond_shown":"Incongruent","ratio_trial":200,"L_num":7,"L_den":10,"R_num":14,"R_den":28,"correct_side":1,"subjID":"Sofiapenagos5","gender":"1","age":"9","school":"4","test":{"fix_dur":[250,1500],"timestim":1000,"targets_dim":[100,100],"targets_relative_coord":[0.3,0.7],"size_stim":[880,420],"start_dim":[100,100],"size_start":[300,300],"size_fix":60,"samplingrate":20,"img_types":["Congruent","Incongruent"],"ratios":[100,200,300],"rep_conds":19,"nTrials":120,"trials_to_rest":500,"Trials_order":[105,76,18,62,116,71,100,49,61,102,112,88,47,106,59,89,28,95,55,103,12,50,45,96,83,97,84,4,86,56,39,82,80,110,68,1,42,91,7,70,113,5,27,67,115,108,2,63,16,9,6,33,75,38,8,69,77,26,111,19,101,109,48,23,10,34,73,40,65,15,51,29,66,58,31,93,79,3,87,57,44,92,21,78,13,99,94,43,114,32,52,17,11,85,41,64,104,0,37,81,119,14,20,36,22,35,107,90,117,30,25,74,54,98,118,46,72,24,60,53],"cond_shown":["Incongruent","Congruent","Congruent","Congruent","Congruent","Incongruent","Congruent","Incongruent","Incongruent","Congruent","Congruent","Congruent","Incongruent","Congruent","Incongruent","Incongruent","Congruent","Incongruent","Incongruent","Incongruent","Congruent","Congruent","Incongruent","Congruent","Incongruent","Incongruent","Congruent","Congruent","Congruent","Congruent","Incongruent","Congruent","Congruent","Congruent","Congruent","Incongruent","Congruent","Incongruent","Incongruent","Congruent","Incongruent","Incongruent","Incongruent","Incongruent","Incongruent","Congruent","Congruent","Incongruent","Congruent","Incongruent","Congruent","Incongruent","Incongruent","Congruent","Congruent","Incongruent","Incongruent","Congruent","Incongruent","Incongruent","Incongruent","Incongruent","Congruent","Incongruent","Congruent","Congruent","Incongruent","Congruent","Incongruent","Incongruent","Incongruent","Incongruent","Congruent","Congruent","Incongruent","Incongruent","Incongruent","Incongruent","Incongruent","Incongruent","Congruent","Congruent","Incongruent","Congruent","Incongruent","Incongruent","Congruent","Incongruent","Congruent","Congruent","Congruent","Incongruent","Incongruent","Incongruent","Incongruent","Congruent","Congruent","Congruent","Incongruent","Incongruent","Incongruent","Congruent","Congruent","Congruent","Congruent","Incongruent","Incongruent","Congruent","Incongruent","Congruent","Incongruent","Congruent","Congruent","Congruent","Congruent","Congruent","Congruent","Congruent","Congruent","Incongruent"],"ratio_trial":[200,300,100,200,200,300,300,100,100,100,300,300,300,300,300,300,300,300,100,100,100,200,200,100,300,100,100,300,200,200,200,300,200,200,200,100,100,100,100,300,300,300,200,100,100,100,200,200,300,200,100,200,200,200,200,200,300,200,200,100,300,100,100,300,300,300,100,300,300,200,200,300,100,300,100,200,100,200,200,200,200,200,200,100,100,200,300,100,100,200,300,300,300,100,300,300,200,100,100,200,300,200,200,100,300,300,300,100,200,100,100,200,100,200,300,300,100,100,100,300],"left_num":[7,5,3,4,4,4,20,8,3,1,11,18,13,8,13,13,2,3,9,9,10,13,4,3,4,10,4,2,7,1,1,20,7,5,6,2,1,10,9,5,1,3,6,11,10,3,8,3,24,4,8,7,11,20,5,7,13,7,3,9,13,8,3,4,4,3,9,20,8,14,4,4,1,20,9,4,3,7,4,1,8,6,4,2,13,7,5,2,10,15,11,4,2,3,4,1,13,2,10,7,1,5,14,7,1,1,13,3,4,6,8,6,1,13,11,3,3,8,8,4],"right_num":[14,6,4,3,3,2,5,6,11,3,2,9,12,1,12,12,12,4,13,20,3,14,1,4,2,9,6,10,2,21,2,8,18,14,3,6,18,8,14,7,3,4,3,9,8,4,3,1,8,14,2,4,3,9,14,6,12,2,1,13,12,6,4,2,2,2,14,5,9,12,6,2,3,9,6,6,11,4,14,2,2,11,14,6,12,8,6,8,3,4,4,2,6,4,2,3,14,11,9,12,2,14,6,15,19,2,12,4,1,5,1,3,18,14,2,2,2,2,2,2],"left_den":[10,25,20,10,8,20,25,16,5,2,22,20,26,16,26,26,10,6,15,10,25,26,30,20,20,25,8,20,21,2,3,25,15,10,15,4,2,25,15,25,2,6,20,22,25,20,15,10,30,6,16,15,20,25,10,15,26,21,10,15,26,16,20,20,5,6,15,25,10,30,5,20,2,25,18,5,5,15,6,3,15,20,6,5,26,10,25,4,25,25,22,20,4,6,20,5,26,5,25,10,2,10,28,14,3,2,26,20,30,20,20,15,2,26,22,6,6,16,16,20],"right_den":[28,12,16,15,10,4,10,10,22,5,10,15,15,5,15,15,24,20,26,25,10,20,3,16,4,18,10,25,15,30,15,16,27,20,15,15,30,16,28,14,15,20,6,15,16,16,9,2,16,30,5,6,4,15,20,9,15,15,2,26,15,10,16,4,4,10,28,10,18,18,10,4,5,18,10,10,22,6,30,15,6,22,30,12,20,16,12,20,10,10,20,4,30,10,4,6,20,22,18,24,10,20,20,25,30,10,15,16,3,25,2,15,30,20,10,10,5,5,5,4],"correct_side":[1,2,2,1,1,2,1,2,1,2,1,1,2,1,2,2,2,1,1,1,1,2,2,2,2,2,2,2,1,2,1,1,2,2,1,1,2,2,1,2,1,1,2,2,2,2,1,2,1,1,1,2,2,1,2,2,2,1,2,1,2,2,2,2,1,1,1,1,1,2,1,2,2,1,2,1,1,2,1,1,1,2,1,2,2,1,2,1,1,1,1,2,1,1,2,2,2,2,2,1,1,2,1,2,2,1,2,2,2,1,2,1,2,2,1,1,1,1,1,2],"img_shown":["img2/200/Incongruent/L/I_Dist_200_LN_7_LD_10_RN_14_RD_28_0.png","img2/300/Congruent/R/C_Dist_300_LN_5_LD_25_RN_6_RD_12_1.png","img2/100/Congruent/R/C_Dist_100_LN_3_LD_20_RN_4_RD_16_1.png","img2/200/Congruent/L/C_Dist_200_LN_4_LD_10_RN_3_RD_15_0.png","img2/200/Congruent/L/C_Dist_200_LN_4_LD_8_RN_3_RD_10_0.png","img2/300/Incongruent/R/I_Dist_300_LN_4_LD_20_RN_2_RD_4_1.png","img2/300/Congruent/L/C_Dist_300_LN_20_LD_25_RN_5_RD_10_0.png","img2/100/Incongruent/R/I_Dist_100_LN_8_LD_16_RN_6_RD_10_1.png","img2/100/Incongruent/L/I_Dist_100_LN_3_LD_5_RN_11_RD_22_0.png","img2/100/Congruent/R/C_Dist_100_LN_1_LD_2_RN_3_RD_5_1.png","img2/300/Congruent/L/C_Dist_300_LN_11_LD_22_RN_2_RD_10_0.png","img2/300/Congruent/L/C_Dist_300_LN_18_LD_20_RN_9_RD_15_0.png","img2/300/Incongruent/R/I_Dist_300_LN_13_LD_26_RN_12_RD_15_1.png","img2/300/Congruent/L/C_Dist_300_LN_8_LD_16_RN_1_RD_5_0.png","img2/300/Incongruent/R/I_Dist_300_LN_13_LD_26_RN_12_RD_15_1.png","img2/300/Incongruent/R/I_Dist_300_LN_13_LD_26_RN_12_RD_15_1.png","img2/300/Congruent/R/C_Dist_300_LN_2_LD_10_RN_12_RD_24_1.png","img2/300/Incongruent/L/I_Dist_300_LN_3_LD_6_RN_4_RD_20_0.png","img2/100/Incongruent/L/I_Dist_100_LN_9_LD_15_RN_13_RD_26_0.png","img2/100/Incongruent/L/I_Dist_100_LN_9_LD_10_RN_20_RD_25_0.png","img2/100/Congruent/L/C_Dist_100_LN_10_LD_25_RN_3_RD_10_0.png","img2/200/Congruent/R/C_Dist_200_LN_13_LD_26_RN_14_RD_20_1.png","img2/200/Incongruent/R/I_Dist_200_LN_4_LD_30_RN_1_RD_3_1.png","img2/100/Congruent/R/C_Dist_100_LN_3_LD_20_RN_4_RD_16_1.png","img2/300/Incongruent/R/I_Dist_300_LN_4_LD_20_RN_2_RD_4_1.png","img2/100/Incongruent/R/I_Dist_100_LN_10_LD_25_RN_9_RD_18_1.png","img2/100/Congruent/R/C_Dist_100_LN_4_LD_8_RN_6_RD_10_1.png","img2/300/Congruent/R/C_Dist_300_LN_2_LD_20_RN_10_RD_25_1.png","img2/200/Congruent/L/C_Dist_200_LN_7_LD_21_RN_2_RD_15_0.png","img2/200/Congruent/R/C_Dist_200_LN_1_LD_2_RN_21_RD_30_1.png","img2/200/Incongruent/L/I_Dist_200_LN_1_LD_3_RN_2_RD_15_0.png","img2/300/Congruent/L/C_Dist_300_LN_20_LD_25_RN_8_RD_16_0.png","img2/200/Congruent/R/C_Dist_200_LN_7_LD_15_RN_18_RD_27_1.png","img2/200/Congruent/R/C_Dist_200_LN_5_LD_10_RN_14_RD_20_1.png","img2/200/Congruent/L/C_Dist_200_LN_6_LD_15_RN_3_RD_15_0.png","img2/100/Incongruent/L/I_Dist_100_LN_2_LD_4_RN_6_RD_15_0.png","img2/100/Congruent/R/C_Dist_100_LN_1_LD_2_RN_18_RD_30_1.png","img2/100/Incongruent/R/I_Dist_100_LN_10_LD_25_RN_8_RD_16_1.png","img2/100/Incongruent/L/I_Dist_100_LN_9_LD_15_RN_14_RD_28_0.png","img2/300/Congruent/R/C_Dist_300_LN_5_LD_25_RN_7_RD_14_1.png","img2/300/Incongruent/L/I_Dist_300_LN_1_LD_2_RN_3_RD_15_0.png","img2/300/Incongruent/L/I_Dist_300_LN_3_LD_6_RN_4_RD_20_0.png","img2/200/Incongruent/R/I_Dist_200_LN_6_LD_20_RN_3_RD_6_1.png","img2/100/Incongruent/R/I_Dist_100_LN_11_LD_22_RN_9_RD_15_1.png","img2/100/Incongruent/R/I_Dist_100_LN_10_LD_25_RN_8_RD_16_1.png","img2/100/Congruent/R/C_Dist_100_LN_3_LD_20_RN_4_RD_16_1.png","img2/200/Congruent/L/C_Dist_200_LN_8_LD_15_RN_3_RD_9_0.png","img2/200/Incongruent/R/I_Dist_200_LN_3_LD_10_RN_1_RD_2_1.png","img2/300/Congruent/L/C_Dist_300_LN_24_LD_30_RN_8_RD_16_0.png","img2/200/Incongruent/L/I_Dist_200_LN_4_LD_6_RN_14_RD_30_0.png","img2/100/Congruent/L/C_Dist_100_LN_8_LD_16_RN_2_RD_5_0.png","img2/200/Incongruent/R/I_Dist_200_LN_7_LD_15_RN_4_RD_6_1.png","img2/200/Incongruent/R/I_Dist_200_LN_11_LD_20_RN_3_RD_4_1.png","img2/200/Congruent/L/C_Dist_200_LN_20_LD_25_RN_9_RD_15_0.png","img2/200/Congruent/R/C_Dist_200_LN_5_LD_10_RN_14_RD_20_1.png","img2/200/Incongruent/R/I_Dist_200_LN_7_LD_15_RN_6_RD_9_1.png","img2/300/Incongruent/R/I_Dist_300_LN_13_LD_26_RN_12_RD_15_1.png","img2/200/Congruent/L/C_Dist_200_LN_7_LD_21_RN_2_RD_15_0.png","img2/200/Incongruent/R/I_Dist_200_LN_3_LD_10_RN_1_RD_2_1.png","img2/100/Incongruent/L/I_Dist_100_LN_9_LD_15_RN_13_RD_26_0.png","img2/300/Incongruent/R/I_Dist_300_LN_13_LD_26_RN_12_RD_15_1.png","img2/100/Incongruent/R/I_Dist_100_LN_8_LD_16_RN_6_RD_10_1.png","img2/100/Congruent/R/C_Dist_100_LN_3_LD_20_RN_4_RD_16_1.png","img2/300/Incongruent/R/I_Dist_300_LN_4_LD_20_RN_2_RD_4_1.png","img2/300/Congruent/L/C_Dist_300_LN_4_LD_5_RN_2_RD_4_0.png","img2/300/Congruent/L/C_Dist_300_LN_3_LD_6_RN_2_RD_10_0.png","img2/100/Incongruent/L/I_Dist_100_LN_9_LD_15_RN_14_RD_28_0.png","img2/300/Congruent/L/C_Dist_300_LN_20_LD_25_RN_5_RD_10_0.png","img2/300/Incongruent/L/I_Dist_300_LN_8_LD_10_RN_9_RD_18_0.png","img2/200/Incongruent/R/I_Dist_200_LN_14_LD_30_RN_12_RD_18_1.png","img2/200/Incongruent/L/I_Dist_200_LN_4_LD_5_RN_6_RD_10_0.png","img2/300/Incongruent/R/I_Dist_300_LN_4_LD_20_RN_2_RD_4_1.png","img2/100/Congruent/R/C_Dist_100_LN_1_LD_2_RN_3_RD_5_1.png","img2/300/Congruent/L/C_Dist_300_LN_20_LD_25_RN_9_RD_18_0.png","img2/100/Incongruent/R/I_Dist_100_LN_9_LD_18_RN_6_RD_10_1.png","img2/200/Incongruent/L/I_Dist_200_LN_4_LD_5_RN_6_RD_10_0.png","img2/100/Incongruent/L/I_Dist_100_LN_3_LD_5_RN_11_RD_22_0.png","img2/200/Incongruent/R/I_Dist_200_LN_7_LD_15_RN_4_RD_6_1.png","img2/200/Incongruent/L/I_Dist_200_LN_4_LD_6_RN_14_RD_30_0.png","img2/200/Incongruent/L/I_Dist_200_LN_1_LD_3_RN_2_RD_15_0.png","img2/200/Congruent/L/C_Dist_200_LN_8_LD_15_RN_2_RD_6_0.png","img2/200/Congruent/R/C_Dist_200_LN_6_LD_20_RN_11_RD_22_1.png","img2/200/Incongruent/L/I_Dist_200_LN_4_LD_6_RN_14_RD_30_0.png","img2/100/Congruent/R/C_Dist_100_LN_2_LD_5_RN_6_RD_12_1.png","img2/100/Incongruent/R/I_Dist_100_LN_13_LD_26_RN_12_RD_20_1.png","img2/200/Incongruent/L/I_Dist_200_LN_7_LD_10_RN_8_RD_16_0.png","img2/300/Congruent/R/C_Dist_300_LN_5_LD_25_RN_6_RD_12_1.png","img2/100/Incongruent/L/I_Dist_100_LN_2_LD_4_RN_8_RD_20_0.png","img2/100/Congruent/L/C_Dist_100_LN_10_LD_25_RN_3_RD_10_0.png","img2/200/Congruent/L/C_Dist_200_LN_15_LD_25_RN_4_RD_10_0.png","img2/300/Congruent/L/C_Dist_300_LN_11_LD_22_RN_4_RD_20_0.png","img2/300/Incongruent/R/I_Dist_300_LN_4_LD_20_RN_2_RD_4_1.png","img2/300/Incongruent/L/I_Dist_300_LN_2_LD_4_RN_6_RD_30_0.png","img2/100/Incongruent/L/I_Dist_100_LN_3_LD_6_RN_4_RD_10_0.png","img2/300/Incongruent/R/I_Dist_300_LN_4_LD_20_RN_2_RD_4_1.png","img2/300/Congruent/R/C_Dist_300_LN_1_LD_5_RN_3_RD_6_1.png","img2/200/Congruent/R/C_Dist_200_LN_13_LD_26_RN_14_RD_20_1.png","img2/100/Congruent/R/C_Dist_100_LN_2_LD_5_RN_11_RD_22_1.png","img2/100/Incongruent/R/I_Dist_100_LN_10_LD_25_RN_9_RD_18_1.png","img2/200/Incongruent/L/I_Dist_200_LN_7_LD_10_RN_12_RD_24_0.png","img2/300/Incongruent/L/I_Dist_300_LN_1_LD_2_RN_2_RD_10_0.png","img2/200/Congruent/R/C_Dist_200_LN_5_LD_10_RN_14_RD_20_1.png","img2/200/Congruent/L/C_Dist_200_LN_14_LD_28_RN_6_RD_20_0.png","img2/100/Congruent/R/C_Dist_100_LN_7_LD_14_RN_15_RD_25_1.png","img2/300/Congruent/R/C_Dist_300_LN_1_LD_3_RN_19_RD_30_1.png","img2/300/Incongruent/L/I_Dist_300_LN_1_LD_2_RN_2_RD_10_0.png","img2/300/Incongruent/R/I_Dist_300_LN_13_LD_26_RN_12_RD_15_1.png","img2/100/Congruent/R/C_Dist_100_LN_3_LD_20_RN_4_RD_16_1.png","img2/200/Incongruent/R/I_Dist_200_LN_4_LD_30_RN_1_RD_3_1.png","img2/100/Congruent/L/C_Dist_100_LN_6_LD_20_RN_5_RD_25_0.png","img2/100/Incongruent/R/I_Dist_100_LN_8_LD_20_RN_1_RD_2_1.png","img2/200/Congruent/L/C_Dist_200_LN_6_LD_15_RN_3_RD_15_0.png","img2/100/Congruent/R/C_Dist_100_LN_1_LD_2_RN_18_RD_30_1.png","img2/200/Congruent/R/C_Dist_200_LN_13_LD_26_RN_14_RD_20_1.png","img2/300/Congruent/L/C_Dist_300_LN_11_LD_22_RN_2_RD_10_0.png","img2/300/Congruent/L/C_Dist_300_LN_3_LD_6_RN_2_RD_10_0.png","img2/100/Congruent/L/C_Dist_100_LN_3_LD_6_RN_2_RD_5_0.png","img2/100/Congruent/L/C_Dist_100_LN_8_LD_16_RN_2_RD_5_0.png","img2/100/Congruent/L/C_Dist_100_LN_8_LD_16_RN_2_RD_5_0.png","img2/300/Incongruent/R/I_Dist_300_LN_4_LD_20_RN_2_RD_4_1.png"],"dist100_C":[["C_Dist_100_LN_10_LD_25_RN_3_RD_10_0.png","C_Dist_100_LN_11_LD_22_RN_4_RD_10_0.png","C_Dist_100_LN_11_LD_22_RN_6_RD_15_0.png","C_Dist_100_LN_15_LD_25_RN_13_RD_26_0.png","C_Dist_100_LN_3_LD_6_RN_2_RD_5_0.png","C_Dist_100_LN_6_LD_20_RN_5_RD_25_0.png","C_Dist_100_LN_8_LD_16_RN_2_RD_5_0.png","C_Dist_100_LN_9_LD_15_RN_8_RD_16_0.png"],["C_Dist_100_LN_1_LD_2_RN_18_RD_30_1.png","C_Dist_100_LN_1_LD_2_RN_3_RD_5_1.png","C_Dist_100_LN_12_LD_30_RN_13_RD_26_1.png","C_Dist_100_LN_2_LD_5_RN_11_RD_22_1.png","C_Dist_100_LN_2_LD_5_RN_6_RD_12_1.png","C_Dist_100_LN_3_LD_20_RN_4_RD_16_1.png","C_Dist_100_LN_4_LD_10_RN_15_RD_30_1.png","C_Dist_100_LN_4_LD_8_RN_6_RD_10_1.png","C_Dist_100_LN_6_LD_12_RN_15_RD_25_1.png","C_Dist_100_LN_7_LD_14_RN_15_RD_25_1.png","C_Dist_100_LN_7_LD_14_RN_9_RD_15_1.png"]],"dist100_I":[["I_Dist_100_LN_1_LD_2_RN_8_RD_20_0.png","I_Dist_100_LN_2_LD_4_RN_6_RD_15_0.png","I_Dist_100_LN_2_LD_4_RN_8_RD_20_0.png","I_Dist_100_LN_3_LD_5_RN_11_RD_22_0.png","I_Dist_100_LN_3_LD_5_RN_8_RD_16_0.png","I_Dist_100_LN_3_LD_6_RN_4_RD_10_0.png","I_Dist_100_LN_3_LD_9_RN_7_RD_30_0.png","I_Dist_100_LN_4_LD_8_RN_8_RD_20_0.png","I_Dist_100_LN_6_LD_10_RN_11_RD_22_0.png","I_Dist_100_LN_6_LD_10_RN_13_RD_26_0.png","I_Dist_100_LN_6_LD_10_RN_7_RD_14_0.png","I_Dist_100_LN_9_LD_10_RN_20_RD_25_0.png","I_Dist_100_LN_9_LD_15_RN_13_RD_26_0.png","I_Dist_100_LN_9_LD_15_RN_14_RD_28_0.png"],["I_Dist_100_LN_10_LD_25_RN_8_RD_16_1.png","I_Dist_100_LN_10_LD_25_RN_9_RD_18_1.png","I_Dist_100_LN_11_LD_22_RN_9_RD_15_1.png","I_Dist_100_LN_12_LD_24_RN_9_RD_15_1.png","I_Dist_100_LN_12_LD_30_RN_2_RD_4_1.png","I_Dist_100_LN_13_LD_26_RN_12_RD_20_1.png","I_Dist_100_LN_13_LD_26_RN_6_RD_10_1.png","I_Dist_100_LN_17_LD_30_RN_10_RD_15_1.png","I_Dist_100_LN_6_LD_12_RN_3_RD_5_1.png","I_Dist_100_LN_8_LD_16_RN_6_RD_10_1.png","I_Dist_100_LN_8_LD_20_RN_1_RD_2_1.png","I_Dist_100_LN_9_LD_18_RN_6_RD_10_1.png"]],"dist100_S":[["E_Dist_100_LN_2_LD_12_RN_2_RD_30_0.png","E_Dist_100_LN_6_LD_10_RN_6_RD_12_0.png"],["E_Dist_100_LN_6_LD_12_RN_6_RD_10_1.png"]],"dist200_C":[["C_Dist_200_LN_11_LD_22_RN_3_RD_10_0.png","C_Dist_200_LN_12_LD_15_RN_6_RD_10_0.png","C_Dist_200_LN_12_LD_20_RN_6_RD_15_0.png","C_Dist_200_LN_14_LD_28_RN_6_RD_20_0.png","C_Dist_200_LN_15_LD_25_RN_4_RD_10_0.png","C_Dist_200_LN_16_LD_20_RN_12_RD_20_0.png","C_Dist_200_LN_16_LD_30_RN_9_RD_27_0.png","C_Dist_200_LN_20_LD_25_RN_9_RD_15_0.png","C_Dist_200_LN_21_LD_30_RN_2_RD_4_0.png","C_Dist_200_LN_4_LD_10_RN_3_RD_15_0.png","C_Dist_200_LN_4_LD_8_RN_3_RD_10_0.png","C_Dist_200_LN_6_LD_15_RN_3_RD_15_0.png","C_Dist_200_LN_7_LD_21_RN_2_RD_15_0.png","C_Dist_200_LN_8_LD_15_RN_2_RD_6_0.png","C_Dist_200_LN_8_LD_15_RN_3_RD_9_0.png","C_Dist_200_LN_8_LD_15_RN_7_RD_21_0.png","C_Dist_200_LN_9_LD_20_RN_4_RD_16_0.png"],["C_Dist_200_LN_1_LD_2_RN_21_RD_30_1.png","C_Dist_200_LN_13_LD_26_RN_14_RD_20_1.png","C_Dist_200_LN_3_LD_10_RN_11_RD_22_1.png","C_Dist_200_LN_3_LD_10_RN_14_RD_28_1.png","C_Dist_200_LN_3_LD_10_RN_7_RD_14_1.png","C_Dist_200_LN_3_LD_12_RN_9_RD_20_1.png","C_Dist_200_LN_3_LD_6_RN_14_RD_20_1.png","C_Dist_200_LN_5_LD_10_RN_14_RD_20_1.png","C_Dist_200_LN_6_LD_12_RN_7_RD_10_1.png","C_Dist_200_LN_6_LD_20_RN_11_RD_22_1.png","C_Dist_200_LN_7_LD_15_RN_18_RD_27_1.png","C_Dist_200_LN_9_LD_30_RN_13_RD_26_1.png"]],"dist200_I":[["I_Dist_200_LN_1_LD_2_RN_3_RD_10_0.png","I_Dist_200_LN_1_LD_3_RN_2_RD_15_0.png","I_Dist_200_LN_3_LD_4_RN_11_RD_20_0.png","I_Dist_200_LN_4_LD_5_RN_6_RD_10_0.png","I_Dist_200_LN_4_LD_6_RN_14_RD_30_0.png","I_Dist_200_LN_7_LD_10_RN_12_RD_24_0.png","I_Dist_200_LN_7_LD_10_RN_14_RD_28_0.png","I_Dist_200_LN_7_LD_10_RN_8_RD_16_0.png"],["I_Dist_200_LN_11_LD_20_RN_3_RD_4_1.png","I_Dist_200_LN_14_LD_30_RN_12_RD_18_1.png","I_Dist_200_LN_14_LD_30_RN_6_RD_9_1.png","I_Dist_200_LN_3_LD_10_RN_1_RD_2_1.png","I_Dist_200_LN_4_LD_30_RN_1_RD_3_1.png","I_Dist_200_LN_6_LD_20_RN_3_RD_6_1.png","I_Dist_200_LN_7_LD_15_RN_4_RD_6_1.png","I_Dist_200_LN_7_LD_15_RN_6_RD_9_1.png","I_Dist_200_LN_9_LD_15_RN_8_RD_10_1.png"]],"dist200_S":[["E_Dist_200_LN_3_LD_6_RN_3_RD_10_0.png"],["E_Dist_200_LN_3_LD_10_RN_3_RD_6_1.png"]],"dist300_C":[["C_Dist_300_LN_11_LD_22_RN_1_RD_5_0.png","C_Dist_300_LN_11_LD_22_RN_2_RD_10_0.png","C_Dist_300_LN_11_LD_22_RN_4_RD_20_0.png","C_Dist_300_LN_12_LD_24_RN_2_RD_10_0.png","C_Dist_300_LN_18_LD_20_RN_9_RD_15_0.png","C_Dist_300_LN_20_LD_25_RN_13_RD_26_0.png","C_Dist_300_LN_20_LD_25_RN_14_RD_28_0.png","C_Dist_300_LN_20_LD_25_RN_5_RD_10_0.png","C_Dist_300_LN_20_LD_25_RN_8_RD_16_0.png","C_Dist_300_LN_20_LD_25_RN_9_RD_18_0.png","C_Dist_300_LN_24_LD_30_RN_2_RD_4_0.png","C_Dist_300_LN_24_LD_30_RN_8_RD_16_0.png","C_Dist_300_LN_3_LD_6_RN_2_RD_10_0.png","C_Dist_300_LN_4_LD_10_RN_1_RD_10_0.png","C_Dist_300_LN_4_LD_5_RN_2_RD_4_0.png","C_Dist_300_LN_8_LD_16_RN_1_RD_5_0.png","C_Dist_300_LN_9_LD_10_RN_3_RD_5_0.png"],["C_Dist_300_LN_1_LD_20_RN_7_RD_20_1.png","C_Dist_300_LN_1_LD_3_RN_19_RD_30_1.png","C_Dist_300_LN_1_LD_30_RN_8_RD_24_1.png","C_Dist_300_LN_1_LD_5_RN_11_RD_22_1.png","C_Dist_300_LN_1_LD_5_RN_3_RD_6_1.png","C_Dist_300_LN_1_LD_5_RN_6_RD_12_1.png","C_Dist_300_LN_2_LD_10_RN_12_RD_24_1.png","C_Dist_300_LN_2_LD_20_RN_10_RD_25_1.png","C_Dist_300_LN_3_LD_12_RN_11_RD_20_1.png","C_Dist_300_LN_3_LD_6_RN_4_RD_5_1.png","C_Dist_300_LN_4_LD_20_RN_13_RD_26_1.png","C_Dist_300_LN_5_LD_25_RN_6_RD_12_1.png","C_Dist_300_LN_5_LD_25_RN_7_RD_14_1.png","C_Dist_300_LN_7_LD_14_RN_20_RD_25_1.png","C_Dist_300_LN_8_LD_15_RN_10_RD_12_1.png"]],"dist300_I":[["I_Dist_300_LN_1_LD_2_RN_2_RD_10_0.png","I_Dist_300_LN_1_LD_2_RN_3_RD_15_0.png","I_Dist_300_LN_2_LD_4_RN_6_RD_30_0.png","I_Dist_300_LN_3_LD_6_RN_4_RD_20_0.png","I_Dist_300_LN_4_LD_5_RN_6_RD_12_0.png","I_Dist_300_LN_4_LD_5_RN_8_RD_16_0.png","I_Dist_300_LN_7_LD_10_RN_8_RD_20_0.png","I_Dist_300_LN_8_LD_10_RN_14_RD_28_0.png","I_Dist_300_LN_8_LD_10_RN_9_RD_18_0.png"],["I_Dist_300_LN_13_LD_26_RN_12_RD_15_1.png","I_Dist_300_LN_4_LD_20_RN_2_RD_4_1.png"]],"dist300_S":[["E_Dist_300_LN_9_LD_12_RN_9_RD_20_0.png"],["E_Dist_300_LN_18_LD_30_RN_18_RD_20_1.png","E_Dist_300_LN_3_LD_10_RN_3_RD_5_1.png","E_Dist_300_LN_9_LD_20_RN_9_RD_12_1.png"]],"dist500_C":[["C_Dist_500_LN_10_LD_13_RN_7_RD_26_0.png","C_Dist_500_LN_10_LD_15_RN_4_RD_24_0.png","C_Dist_500_LN_12_LD_16_RN_3_RD_12_0.png","C_Dist_500_LN_12_LD_18_RN_4_RD_24_0.png","C_Dist_500_LN_15_LD_18_RN_5_RD_15_0.png","C_Dist_500_LN_15_LD_20_RN_1_RD_4_0.png","C_Dist_500_LN_18_LD_27_RN_1_RD_6_0.png","C_Dist_500_LN_20_LD_24_RN_1_RD_3_0.png","C_Dist_500_LN_20_LD_24_RN_3_RD_9_0.png","C_Dist_500_LN_20_LD_24_RN_7_RD_21_0.png","C_Dist_500_LN_20_LD_28_RN_3_RD_14_0.png","C_Dist_500_LN_21_LD_28_RN_6_RD_24_0.png","C_Dist_500_LN_22_LD_28_RN_2_RD_7_0.png","C_Dist_500_LN_25_LD_30_RN_9_RD_27_0.png","C_Dist_500_LN_4_LD_6_RN_1_RD_6_0.png","C_Dist_500_LN_5_LD_6_RN_2_RD_6_0.png","C_Dist_500_LN_6_LD_9_RN_1_RD_6_0.png","C_Dist_500_LN_7_LD_10_RN_1_RD_5_0.png","C_Dist_500_LN_8_LD_12_RN_1_RD_6_0.png","C_Dist_500_LN_8_LD_12_RN_4_RD_24_0.png"],["C_Dist_500_LN_1_LD_4_RN_12_RD_16_1.png","C_Dist_500_LN_1_LD_4_RN_9_RD_12_1.png","C_Dist_500_LN_1_LD_9_RN_11_RD_18_1.png","C_Dist_500_LN_10_LD_24_RN_22_RD_24_1.png","C_Dist_500_LN_2_LD_12_RN_10_RD_15_1.png","C_Dist_500_LN_2_LD_12_RN_12_RD_18_1.png","C_Dist_500_LN_2_LD_12_RN_4_RD_6_1.png","C_Dist_500_LN_2_LD_24_RN_7_RD_12_1.png","C_Dist_500_LN_2_LD_5_RN_18_RD_20_1.png","C_Dist_500_LN_2_LD_5_RN_9_RD_10_1.png","C_Dist_500_LN_2_LD_8_RN_12_RD_16_1.png","C_Dist_500_LN_2_LD_8_RN_21_RD_28_1.png","C_Dist_500_LN_3_LD_10_RN_4_RD_5_1.png","C_Dist_500_LN_3_LD_12_RN_15_RD_20_1.png","C_Dist_500_LN_3_LD_30_RN_6_RD_10_1.png","C_Dist_500_LN_3_LD_8_RN_14_RD_16_1.png","C_Dist_500_LN_4_LD_16_RN_15_RD_20_1.png","C_Dist_500_LN_4_LD_24_RN_12_RD_18_1.png","C_Dist_500_LN_5_LD_14_RN_6_RD_7_1.png","C_Dist_500_LN_7_LD_21_RN_20_RD_24_1.png","C_Dist_500_LN_7_LD_28_RN_12_RD_16_1.png","C_Dist_500_LN_7_LD_28_RN_9_RD_12_1.png","C_Dist_500_LN_9_LD_27_RN_20_RD_24_1.png"]],"dist500_I":[["I_Dist_500_LN_2_LD_3_RN_4_RD_24_0.png","I_Dist_500_LN_5_LD_6_RN_6_RD_18_0.png","I_Dist_500_LN_7_LD_8_RN_9_RD_24_0.png"],["I_Dist_500_LN_7_LD_21_RN_5_RD_6_1.png"]],"dist500_S":[["E_Dist_500_LN_6_LD_8_RN_6_RD_24_0.png"],["E_Dist_500_LN_2_LD_12_RN_2_RD_3_1.png","E_Dist_500_LN_6_LD_24_RN_6_RD_8_1.png"]]}},{"start_time":1552308316635,"click_time":1552308321319,"finger_time":1552308320519,"fix_duration":694.0408863262688,"trial":1,"RT":3884,"MT":800,"sideResp":1,"stimulus":[],"xmouse":[790,790,790,790,790,790,790,790,790,790,790,790,790,790,790,790,790,790,790,790,790,790,790,790,790,790,790,790,790,790,790,790,790,790,790,790,790,790,790,790,790,790,790,790,790,790,790,790,790,790,790,790,790,790,790,790,790,790,790,790,790,790,790,790,790,790,790,790,790,790,790,790,790,790,790,790,790,790,790,790,790,790,790,790,790,790,790,790,790,790,790,790,790,790,790,790,790,790,790,790,790,790,790,790,790,790,790,790,790,790,790,790,790,790,790,790,790,790,790,790,790,790,790,790,790,790,790,790,790,790,790,790,790,790,790,790,790,790,790,790,790,790,790,790,790,790,790,790,790,790,790,790,790,790,790,790,790,790,790,790,790,790,790,790,790,790,790,790,790,790,790,790,790,790,790,790,790,790,790,790,790,790,790,790,790,790,790,790,790,790,790,790,790,790,777,765,756,747,739,737,737,737,737,737,737,737,737,737,737,737,737,737,737,737,737,737,737,737,737,737,737,737,737,737,737,737,737,737,737,737,737,737,541,525,505],"ymouse":[493,493,493,493,493,493,493,493,493,493,493,493,493,493,493,493,493,493,493,493,493,493,493,493,493,493,493,493,493,493,493,493,493,493,493,493,493,493,493,493,493,493,493,493,493,493,493,493,493,493,493,493,493,493,493,493,493,493,493,493,493,493,493,493,493,493,493,493,493,493,493,493,492,492,492,491,491,491,491,490,490,490,490,490,490,490,490,490,490,490,490,490,490,490,490,490,490,490,490,490,490,490,490,490,490,490,490,490,490,490,490,490,490,490,490,490,490,490,490,490,490,490,490,490,490,490,490,490,490,490,490,490,490,490,490,490,490,490,490,490,490,490,490,490,490,490,490,490,490,490,490,490,490,490,490,490,490,490,490,490,490,490,490,490,490,490,490,490,490,490,490,490,490,490,490,490,490,490,490,490,490,490,490,490,490,490,490,490,490,490,490,490,489,485,369,290,225,167,107,31,31,31,31,31,31,31,31,31,31,31,31,31,31,31,31,31,31,31,31,31,31,31,31,31,31,31,31,31,31,31,31,31,11,20,32],"timestamp_mouse":[9,24,44,64,84,103,124,144,165,183,205,223,243,265,285,304,325,344,364,384,403,425,443,464,485,505,524,545,564,585,603,624,645,665,685,704,723,744,765,785,804,825,845,865,885,905,923,944,965,985,1003,1023,1045,1063,1084,1105,1125,1144,1165,1185,1204,1224,1244,1265,1283,1304,1323,1344,1364,1384,1403,1424,1444,1464,1484,1503,1523,1545,1565,1583,1604,1624,1645,1665,1684,1704,1725,1744,1764,1784,1805,1825,1844,1865,1885,1905,1925,1944,1964,1983,2005,2024,2044,2065,2083,2104,2125,2145,2164,2184,2205,2224,2243,2265,2285,2304,2323,2344,2363,2384,2404,2424,2443,2463,2483,2505,2525,2545,2565,2583,2604,2624,2644,2665,2685,2704,2725,2745,2765,2784,2804,2823,2845,2865,2885,2904,2924,2944,2964,2984,3005,3025,3043,3064,3085,3105,3125,3145,3164,3183,3204,3224,3244,3264,3284,3305,3325,3344,3363,3384,3403,3425,3445,3465,3484,3504,3525,3544,3564,3584,3603,3623,3645,3665,3685,3705,3724,3744,3763,3784,3804,3823,3844,3865,3884,3904,3925,3944,3965,3985,4005,4025,4044,4064,4085,4104,4124,4145,4165,4185,4205,4224,4245,4264,4284,4304,4324,4344,4364,4383,4403,4423,4444,4465,4483,4503,4524,4543,4564,4584,4604,4624,4645,4664,4684],"xSR":741.5,"ySR":469.95,"xT1":424.9,"yT1":0,"xT2":1058.1,"yT2":0,"toosoon":0,"cond_shown":"Congruent","ratio_trial":300,"L_num":5,"L_den":25,"R_num":6,"R_den":12,"correct_side":2,"subjID":"Sofiapenagos5","gender":"1","school":"4","age":"9"},{"start_time":1552308326163,"click_time":1552308328979,"finger_time":1552308328820,"fix_duration":782.4352281177767,"trial":2,"RT":2657,"MT":159,"sideResp":2,"stimulus":[],"xmouse":[789,789,789,789,789,789,789,789,789,789,789,789,789,789,789,789,789,789,789,789,789,789,789,789,789,789,789,789,789,789,789,789,789,789,789,789,789,789,789,789,789,789,789,789,789,789,789,789,789,789,789,789,789,789,789,789,789,789,789,789,789,789,789,789,789,789,789,789,789,789,789,789,789,789,789,789,789,789,789,789,789,789,789,789,789,789,789,789,789,789,789,789,789,789,789,789,789,789,789,789,789,789,789,789,789,789,789,789,790,790,790,790,790,790,790,790,791,791,792,794,795,797,798,798,799,799,803,805,810,812,813,816,829,840,858,885,919,990,1018,1055,1075],"ymouse":[510,510,510,510,510,510,510,510,510,510,510,510,510,510,510,510,510,510,510,510,510,510,509,509,509,509,509,509,509,509,509,509,509,509,509,509,509,509,509,509,509,509,509,509,509,509,509,509,509,509,509,509,509,509,509,509,509,509,509,509,509,509,509,509,509,509,509,509,509,509,509,509,509,509,509,509,509,509,509,509,509,509,509,509,509,509,509,509,509,509,509,509,509,509,509,509,509,509,509,509,509,509,508,508,508,508,508,508,508,508,508,507,507,507,507,507,507,507,507,505,505,504,503,503,502,502,500,499,496,495,494,492,467,442,406,360,313,214,171,116,90],"timestamp_mouse":[15,43,55,77,96,116,136,157,177,195,215,235,256,276,297,315,335,355,377,396,416,435,457,476,497,516,537,556,576,597,615,635,655,676,696,716,736,756,777,797,816,837,855,877,896,916,936,956,976,996,1016,1036,1056,1075,1095,1117,1135,1155,1176,1195,1215,1237,1257,1276,1296,1316,1335,1357,1376,1396,1417,1437,1456,1476,1497,1515,1537,1557,1576,1595,1617,1637,1655,1677,1696,1717,1737,1755,1775,1797,1817,1836,1856,1876,1895,1917,1935,1956,1977,1996,2015,2037,2056,2077,2097,2115,2137,2156,2176,2196,2217,2236,2257,2276,2296,2317,2337,2356,2376,2396,2417,2436,2455,2475,2496,2516,2536,2557,2576,2597,2616,2636,2657,2675,2696,2717,2736,2758,2775,2795,2815],"xSR":741.5,"ySR":469.95,"xT1":424.9,"yT1":0,"xT2":1058.1,"yT2":0,"toosoon":0,"cond_shown":"Congruent","ratio_trial":100,"L_num":3,"L_den":20,"R_num":4,"R_den":16,"correct_side":2,"subjID":"Sofiapenagos5","gender":"1","school":"4","age":"9"},{"start_time":1552308331801,"click_time":1552308335180,"finger_time":1552308334400,"fix_duration":1156.552659068517,"trial":3,"RT":2599,"MT":780,"sideResp":1,"stimulus":[],"xmouse":[790,790,790,790,790,790,790,790,790,790,790,790,790,790,790,790,790,790,790,790,790,790,790,790,790,790,790,790,790,790,790,790,790,790,790,790,790,790,790,790,790,790,790,790,790,790,790,790,790,790,790,790,790,790,790,790,790,790,790,790,790,790,790,790,790,790,790,790,790,790,790,790,790,790,790,790,790,790,790,790,790,790,790,790,790,790,790,790,790,790,790,790,790,790,790,790,790,790,790,790,790,790,790,790,790,790,790,790,790,790,790,790,790,790,790,790,790,790,790,790,790,791,792,793,793,794,794,795,796,798,798,793,761,742,731,726,722,722,722,722,722,722,722,722,722,721,712,670,641,618,604,597,589,587,586,583,582,579,578,577,576,572,563,557,551,543,539,531,527,520],"ymouse":[513,513,513,513,513,513,513,513,513,513,513,513,513,513,513,513,513,513,513,513,513,513,513,513,513,513,513,513,513,513,513,513,513,513,513,513,513,513,513,513,513,513,513,513,513,513,513,513,513,513,513,513,513,513,513,513,513,513,513,513,513,513,513,513,513,513,513,513,513,513,513,513,513,513,513,513,513,513,513,513,513,513,513,513,513,513,513,513,513,513,513,513,513,513,513,513,513,513,513,513,513,513,513,513,513,513,513,513,513,513,513,513,513,513,513,513,513,513,513,513,513,512,512,512,512,511,510,510,509,496,463,427,318,270,238,220,209,209,209,209,209,209,209,209,209,204,183,119,84,57,43,37,33,33,33,32,32,32,32,32,32,32,32,32,32,32,32,32,32,31],"timestamp_mouse":[2,18,51,58,79,99,117,137,159,178,199,218,237,257,279,298,319,337,357,377,398,419,438,458,478,498,518,539,558,577,598,618,637,657,677,697,718,738,758,779,799,819,838,858,878,899,918,939,959,978,998,1018,1038,1057,1078,1098,1119,1138,1158,1177,1198,1219,1238,1258,1279,1298,1317,1338,1358,1379,1398,1418,1439,1459,1477,1499,1519,1537,1558,1579,1598,1617,1639,1657,1678,1699,1719,1738,1758,1777,1798,1818,1838,1859,1878,1897,1918,1939,1959,1978,1998,2018,2039,2059,2079,2097,2118,2137,2159,2179,2198,2218,2238,2259,2279,2297,2319,2338,2357,2378,2398,2418,2439,2458,2478,2499,2518,2538,2559,2579,2599,2619,2638,2658,2677,2697,2718,2738,2758,2779,2799,2818,2837,2858,2877,2898,2917,2938,2958,2978,2998,3018,3038,3057,3078,3099,3119,3138,3157,3178,3198,3219,3238,3257,3278,3297,3319,3338,3358,3379],"xSR":741.5,"ySR":469.95,"xT1":424.9,"yT1":0,"xT2":1058.1,"yT2":0,"toosoon":0,"cond_shown":"Congruent","ratio_trial":200,"L_num":4,"L_den":10,"R_num":3,"R_den":15,"correct_side":1,"subjID":"Sofiapenagos5","gender":"1","school":"4","age":"9"},{"start_time":1552308337136,"click_time":1552308339518,"finger_time":1552308338899,"fix_duration":315.51995119014487,"trial":4,"RT":1763,"MT":619,"sideResp":1,"stimulus":[],"xmouse":[782,782,782,782,782,782,782,782,782,782,782,782,782,782,782,782,782,782,782,782,782,782,782,782,782,782,782,782,782,782,782,782,782,782,782,782,782,782,782,782,782,782,782,782,782,782,782,782,782,782,782,782,782,782,782,782,782,782,782,782,782,782,782,782,782,782,782,782,782,782,782,782,782,782,782,782,782,782,782,782,782,782,782,782,782,782,783,780,769,755,741,734,734,734,733,723,703,686,668,652,632,600,588,578,573,573,573,574,574,574,574,562,553,547,545,545,542,537,530,524],"ymouse":[546,546,546,546,546,546,546,546,546,546,546,546,546,546,546,546,546,546,546,546,546,546,546,546,546,546,546,546,546,546,546,546,546,546,546,546,546,546,546,546,546,546,546,546,546,546,546,546,546,546,546,546,546,546,546,546,546,546,546,546,546,546,546,546,546,546,546,546,546,546,546,546,546,546,546,546,546,546,546,546,546,546,546,546,546,546,515,477,449,421,401,386,384,382,379,366,344,328,308,286,259,210,186,163,148,146,140,139,138,137,134,116,107,98,96,95,84,74,58,45],"timestamp_mouse":[10,22,43,63,84,103,122,143,163,182,202,223,243,263,284,304,322,344,364,382,402,424,443,462,483,503,523,543,564,582,604,622,643,663,684,703,724,743,762,784,803,823,844,862,882,904,922,944,963,983,1002,1023,1044,1064,1082,1102,1123,1143,1162,1182,1202,1224,1242,1264,1283,1303,1323,1342,1364,1382,1404,1424,1443,1463,1484,1502,1522,1544,1563,1583,1602,1624,1642,1663,1684,1704,1724,1744,1763,1783,1803,1822,1842,1863,1883,1905,1922,1942,1963,1983,2003,2023,2042,2063,2082,2103,2123,2142,2163,2183,2204,2223,2243,2264,2283,2303,2322,2343,2363,2382],"xSR":741.5,"ySR":469.95,"xT1":424.9,"yT1":0,"xT2":1058.1,"yT2":0,"toosoon":0,"cond_shown":"Congruent","ratio_trial":200,"L_num":4,"L_den":8,"R_num":3,"R_den":10,"correct_side":1,"subjID":"Sofiapenagos5","gender":"1","school":"4","age":"9"},{"start_time":1552308344191,"click_time":1552308346398,"finger_time":1552308345859,"fix_duration":250,"trial":5,"RT":1668,"MT":539,"sideResp":1,"stimulus":[],"xmouse":[809,809,809,809,809,809,809,809,809,809,809,809,809,809,809,809,809,809,809,809,809,809,809,809,809,809,809,809,809,809,809,809,809,809,809,809,809,809,809,809,809,809,809,809,809,809,809,809,809,809,809,809,809,809,809,809,809,809,809,809,809,809,809,809,809,809,809,809,809,809,809,809,809,809,809,809,809,809,809,809,808,816,829,846,882,894,899,899,866,866,866,866,866,866,866,866,866,866,866,866,866,866,866,866,866,589,580,562,531,525,518],"ymouse":[497,497,497,497,497,497,497,497,497,497,497,497,497,497,497,497,497,497,497,497,497,497,497,497,497,497,497,497,497,497,497,497,497,497,497,497,497,497,497,497,497,497,497,497,497,497,497,497,497,497,497,497,497,497,497,497,497,497,497,497,497,497,497,497,497,497,497,497,497,497,497,497,497,497,497,497,497,497,497,497,497,491,484,466,369,303,234,161,8,8,8,8,8,8,8,8,8,8,8,8,8,8,8,8,8,2,5,12,18,18,18],"timestamp_mouse":[10,41,48,68,87,107,127,148,168,188,207,229,247,268,288,309,327,349,369,388,408,429,449,469,489,507,528,549,568,589,607,629,648,669,688,709,729,747,768,789,807,829,849,868,889,909,928,949,969,988,1008,1028,1048,1069,1087,1108,1129,1149,1167,1189,1209,1229,1249,1267,1288,1309,1328,1348,1367,1387,1408,1427,1447,1469,1488,1508,1528,1548,1567,1588,1608,1628,1649,1668,1689,1708,1729,1749,1769,1789,1807,1828,1847,1868,1888,1907,1928,1949,1968,1989,2008,2028,2048,2068,2089,2108,2128,2149,2169,2187,2207],"xSR":741.5,"ySR":469.95,"xT1":424.9,"yT1":0,"xT2":1058.1,"yT2":0,"toosoon":0,"cond_shown":"Incongruent","ratio_trial":300,"L_num":4,"L_den":20,"R_num":2,"R_den":4,"correct_side":2,"subjID":"Sofiapenagos5","gender":"1","school":"4","age":"9"},{"start_time":1552308351246,"click_time":1552308352739,"finger_time":1552308352320,"fix_duration":666.4707272661543,"trial":6,"RT":1074,"MT":419,"sideResp":1,"stimulus":[],"xmouse":[792,792,792,792,792,792,792,792,792,792,792,792,792,792,792,792,792,792,792,792,792,792,792,792,792,792,792,792,792,792,792,792,792,792,792,792,792,792,792,792,792,792,792,792,792,792,792,792,792,792,792,792,792,799,802,804,807,806,799,793,785,773,767,759,745,730,711,678,658,637,617,584,552,530,512],"ymouse":[489,489,489,489,489,489,489,489,489,489,489,489,489,489,489,489,489,489,489,489,489,489,489,489,489,489,489,489,489,489,489,489,489,489,489,489,489,489,489,489,489,489,489,489,489,489,489,489,489,489,489,489,487,467,444,422,383,354,327,302,280,250,239,230,216,204,192,166,150,134,120,92,68,55,46],"timestamp_mouse":[12,45,53,73,92,113,133,153,172,193,214,233,252,274,294,313,333,353,373,392,412,433,454,473,493,513,534,554,573,593,612,633,652,674,693,713,733,754,774,793,812,833,854,873,894,913,934,953,973,993,1012,1033,1053,1074,1094,1114,1133,1152,1173,1193,1214,1234,1252,1273,1293,1313,1333,1352,1373,1393,1412,1433,1452,1472,1493],"xSR":741.5,"ySR":469.95,"xT1":424.9,"yT1":0,"xT2":1058.1,"yT2":0,"toosoon":0,"cond_shown":"Congruent","ratio_trial":300,"L_num":20,"L_den":25,"R_num":5,"R_den":10,"correct_side":1,"subjID":"Sofiapenagos5","gender":"1","school":"4","age":"9"},{"start_time":1552308354711,"click_time":1552308356900,"finger_time":1552308356180,"fix_duration":529.1292328599268,"trial":7,"RT":1469,"MT":720,"sideResp":1,"stimulus":[],"xmouse":[803,803,803,803,803,803,803,803,803,803,803,803,803,803,803,803,803,803,803,803,803,803,803,803,803,803,803,803,803,803,803,803,803,803,803,803,803,803,803,803,803,803,803,803,803,803,803,803,803,803,803,803,803,803,803,803,803,803,803,803,803,803,803,803,803,803,803,803,803,803,803,811,818,823,815,801,782,761,714,703,703,703,703,703,703,703,703,703,703,703,703,703,703,703,703,703,703,703,703,703,587,583,579,557,543,533,529,527,525,516],"ymouse":[520,520,520,520,520,520,520,520,520,520,520,520,520,520,520,520,520,520,520,520,520,520,520,520,520,520,520,520,520,520,520,520,520,520,520,520,520,520,520,520,520,520,520,520,520,520,520,520,520,520,520,520,520,520,520,520,520,520,520,520,520,520,520,520,520,520,520,520,520,520,520,515,498,408,338,266,191,122,26,10,10,10,10,10,10,10,10,10,10,10,10,10,10,10,10,10,10,10,10,10,2,3,4,12,16,17,19,20,21,24],"timestamp_mouse":[10,32,48,67,89,108,129,148,167,188,207,229,249,267,288,308,328,347,367,387,407,429,448,468,489,509,527,547,569,588,607,627,649,668,689,709,729,748,767,787,809,829,848,868,887,909,927,949,968,989,1008,1028,1049,1068,1089,1109,1128,1149,1168,1188,1209,1229,1248,1269,1288,1309,1329,1348,1368,1388,1409,1429,1448,1469,1487,1508,1528,1548,1569,1588,1609,1628,1649,1668,1688,1709,1728,1749,1768,1788,1809,1829,1849,1869,1888,1909,1929,1949,1969,1989,2008,2028,2049,2070,2088,2107,2128,2149,2169,2189],"xSR":741.5,"ySR":469.95,"xT1":424.9,"yT1":0,"xT2":1058.1,"yT2":0,"toosoon":0,"cond_shown":"Incongruent","ratio_trial":100,"L_num":8,"L_den":16,"R_num":6,"R_den":10,"correct_side":2,"subjID":"Sofiapenagos5","gender":"1","school":"4","age":"9"},{"start_time":1552308359960,"click_time":1552308361219,"finger_time":1552308360799,"fix_duration":719.5092411001611,"trial":8,"RT":839,"MT":420,"sideResp":2,"stimulus":[],"xmouse":[793,793,793,793,793,793,793,793,793,793,793,793,793,793,793,793,793,793,793,793,793,793,793,793,793,793,793,793,793,793,793,793,793,793,793,793,793,793,793,793,808,826,919,947,966,982,988,995,1004,1014,1025,1034,1054,1077,1085,1111,1121,1132,1134,1134,1136,1141,1150,1158],"ymouse":[520,520,520,520,520,520,520,520,520,520,520,520,520,520,520,520,520,520,520,520,520,520,520,520,520,520,520,520,520,520,520,520,520,520,520,520,520,520,520,520,511,503,474,461,446,412,385,325,293,269,250,234,202,175,167,146,140,134,132,132,129,122,102,83],"timestamp_mouse":[6,22,39,59,80,100,119,139,159,180,200,219,239,260,280,299,319,339,359,380,400,420,440,460,480,500,519,539,560,580,599,620,639,660,680,699,720,740,760,779,800,820,839,859,879,899,920,939,959,979,999,1020,1040,1059,1080,1099,1119,1139,1159,1179,1200,1220,1240,1259],"xSR":741.5,"ySR":469.95,"xT1":424.9,"yT1":0,"xT2":1058.1,"yT2":0,"toosoon":0,"cond_shown":"Incongruent","ratio_trial":100,"L_num":3,"L_den":5,"R_num":11,"R_den":22,"correct_side":1,"subjID":"Sofiapenagos5","gender":"1","school":"4","age":"9"},{"start_time":1552308380416,"click_time":1552308382639,"finger_time":1552308381939,"fix_duration":1215.2921825175636,"trial":9,"RT":1523,"MT":700,"sideResp":2,"stimulus":[],"xmouse":[776,776,776,776,775,775,775,775,775,775,775,775,775,775,775,775,775,775,775,775,775,775,775,775,775,775,775,775,775,775,775,775,775,775,775,775,775,775,775,775,775,775,775,775,775,775,775,775,775,775,775,775,775,775,775,775,775,775,775,775,775,775,775,775,775,775,775,775,775,775,775,775,775,778,787,799,813,867,914,962,1010,1098,1161,1204,1245,1266,1286,1289,1291,1291,1291,1291,1291,1291,1291,1291,1289,1271,1250,1226,1203,1181,1170,1168,1167,1167,1167,1167,1167,1165,1159,1144],"ymouse":[486,486,487,487,487,487,487,487,487,487,487,487,487,487,487,487,487,487,487,487,487,487,487,487,487,487,487,487,487,487,487,487,487,487,487,487,487,487,487,487,487,487,487,487,487,487,487,487,487,487,487,487,487,487,487,487,487,487,487,487,487,487,487,487,487,487,487,487,487,487,487,487,487,486,481,475,467,443,427,409,389,346,313,287,258,241,208,193,178,164,152,142,124,121,119,118,116,103,94,83,74,67,65,65,65,65,65,65,65,65,65,66],"timestamp_mouse":[10,25,55,64,84,104,123,143,163,183,203,223,244,263,284,303,323,343,363,384,404,424,444,464,483,504,523,556,563,583,603,625,644,663,682,704,723,744,763,784,803,824,844,863,884,904,923,944,964,983,1003,1025,1044,1064,1084,1104,1124,1144,1163,1183,1204,1223,1243,1263,1283,1304,1324,1344,1364,1383,1404,1423,1443,1464,1483,1503,1523,1544,1564,1584,1603,1625,1643,1664,1684,1703,1725,1742,1763,1783,1804,1825,1844,1863,1883,1903,1923,1943,1963,1983,2003,2025,2043,2064,2083,2103,2125,2143,2163,2184,2204,2223],"xSR":741.5,"ySR":469.95,"xT1":424.9,"yT1":0,"xT2":1058.1,"yT2":0,"toosoon":0,"cond_shown":"Congruent","ratio_trial":100,"L_num":1,"L_den":2,"R_num":3,"R_den":5,"correct_side":2,"subjID":"Sofiapenagos5","gender":"1","school":"4","age":"9"},{"start_time":1552308385135,"click_time":1552308386979,"finger_time":1552308386259,"fix_duration":654.1541992489581,"trial":10,"RT":1124,"MT":720,"sideResp":1,"stimulus":[],"xmouse":[801,801,801,801,801,801,801,801,801,801,801,801,801,801,801,801,801,801,801,801,801,801,801,801,801,801,801,801,801,801,801,801,801,801,801,801,801,801,801,801,801,801,801,801,801,801,801,801,801,801,801,801,802,802,792,781,770,768,768,768,768,768,768,762,755,744,721,709,691,673,653,625,625,630,630,628,627,627,627,627,627,627,627,627,627,627,627,627,627,627,627,488,484],"ymouse":[546,546,546,546,546,546,546,546,546,546,546,546,546,546,546,546,546,546,546,546,546,546,546,546,546,546,546,546,546,546,546,546,546,546,546,546,546,546,546,546,546,546,546,546,546,546,546,546,546,546,546,545,544,527,499,478,459,458,458,458,458,455,446,425,409,392,358,336,304,268,220,112,68,32,16,6,3,3,3,3,3,3,3,3,3,3,3,3,3,3,3,0,3],"timestamp_mouse":[10,24,44,65,84,104,125,145,164,184,204,225,244,265,285,305,325,345,365,385,405,424,445,465,485,505,524,545,564,585,604,625,645,665,684,704,724,744,765,785,805,825,844,864,885,904,924,945,964,984,1004,1024,1044,1065,1084,1104,1124,1145,1164,1185,1205,1225,1245,1265,1285,1304,1325,1345,1364,1384,1404,1425,1445,1464,1484,1504,1524,1545,1564,1585,1604,1625,1644,1664,1684,1705,1725,1745,1764,1785,1805,1826,1844],"xSR":741.5,"ySR":469.95,"xT1":424.9,"yT1":0,"xT2":1058.1,"yT2":0,"toosoon":0,"cond_shown":"Congruent","ratio_trial":300,"L_num":11,"L_den":22,"R_num":2,"R_den":10,"correct_side":1,"subjID":"Sofiapenagos5","gender":"1","school":"4","age":"9"},{"start_time":1552308391178,"click_time":1552308392679,"finger_time":1552308392578,"fix_duration":1277.479905586498,"trial":11,"RT":1400,"MT":101,"sideResp":1,"stimulus":[],"xmouse":[793,793,793,793,793,793,793,793,794,794,794,794,794,794,794,794,794,794,795,795,795,795,795,795,795,795,795,795,795,795,795,795,795,795,795,795,795,795,795,796,796,796,796,796,796,796,796,796,796,797,797,797,797,798,798,799,799,799,799,799,799,799,799,799,799,799,799,799,799,799,761,703,647,588,548,521],"ymouse":[511,511,511,511,511,511,511,510,509,509,509,509,509,509,509,509,509,509,508,508,508,508,508,508,508,508,508,508,508,508,508,508,508,508,508,508,508,508,508,508,508,508,507,507,507,507,507,507,507,507,507,507,507,506,506,506,506,506,506,506,506,506,506,506,506,506,506,506,506,504,412,318,224,140,83,45],"timestamp_mouse":[12,25,41,61,81,101,121,141,161,181,202,221,240,261,282,301,322,342,362,381,402,422,442,462,481,502,522,541,562,581,602,622,641,662,681,701,721,742,761,782,801,822,841,862,882,902,922,941,962,981,1001,1021,1042,1061,1081,1102,1122,1141,1162,1181,1201,1222,1242,1260,1281,1301,1321,1341,1361,1381,1400,1421,1441,1462,1481,1501],"xSR":741.5,"ySR":469.95,"xT1":424.9,"yT1":0,"xT2":1058.1,"yT2":0,"toosoon":0,"cond_shown":"Congruent","ratio_trial":300,"L_num":18,"L_den":20,"R_num":9,"R_den":15,"correct_side":1,"subjID":"Sofiapenagos5","gender":"1","school":"4","age":"9"},{"start_time":1552308394776,"click_time":1552308396399,"finger_time":1552308396139,"fix_duration":474.2315974873953,"trial":12,"RT":1363,"MT":260,"sideResp":2,"stimulus":[],"xmouse":[759,759,759,758,758,758,758,758,758,758,758,758,758,758,758,758,758,758,758,758,758,758,758,758,758,758,758,758,758,758,758,758,758,758,758,758,758,758,758,758,758,758,758,758,758,758,758,758,758,758,758,758,758,758,758,758,758,758,759,760,760,761,762,763,766,779,801,808,833,858,917,948,982,1003,1016,1031,1034,1038,1045,1050,1058,1060],"ymouse":[497,497,497,498,498,498,498,498,498,498,498,498,498,498,498,498,498,498,498,498,498,498,498,498,498,498,498,498,498,498,498,498,498,498,498,498,498,498,498,498,498,498,498,498,498,498,498,498,498,498,498,498,498,498,498,498,498,498,497,497,497,496,495,495,493,486,474,470,455,435,358,300,234,179,137,107,102,99,92,87,78,75],"timestamp_mouse":[11,23,43,63,83,104,123,143,163,183,203,224,244,264,283,304,323,344,363,383,404,424,444,464,483,503,524,544,564,583,604,624,643,663,684,704,724,743,763,783,803,823,844,863,883,903,924,942,963,983,1003,1023,1043,1064,1083,1104,1123,1144,1163,1183,1204,1223,1243,1264,1284,1303,1324,1344,1363,1384,1404,1423,1444,1464,1483,1504,1524,1543,1562,1583,1604,1623],"xSR":741.5,"ySR":469.95,"xT1":424.9,"yT1":0,"xT2":1058.1,"yT2":0,"toosoon":0,"cond_shown":"Incongruent","ratio_trial":300,"L_num":13,"L_den":26,"R_num":12,"R_den":15,"correct_side":2,"subjID":"Sofiapenagos5","gender":"1","school":"4","age":"9"},{"start_time":1552308398737,"click_time":1552308400280,"finger_time":1552308399739,"fix_duration":376.3314114063675,"trial":13,"RT":1002,"MT":541,"sideResp":1,"stimulus":[],"xmouse":[775,775,775,775,775,775,775,775,775,775,775,775,775,775,775,775,775,775,775,775,775,775,775,775,775,775,775,775,775,775,775,775,775,775,775,775,775,775,775,775,775,775,775,775,774,774,774,774,775,774,760,741,715,672,663,659,657,653,640,635,632,630,628,628,628,628,625,623,592,579,566,560,556,548,539,528,515,497],"ymouse":[505,505,505,505,505,505,505,505,505,505,505,505,505,505,505,505,505,505,505,505,505,505,505,505,505,505,505,505,505,505,505,505,505,505,505,505,505,505,505,505,505,505,505,505,505,505,505,505,502,479,448,418,382,327,316,309,305,300,281,276,272,270,269,269,269,269,268,267,248,238,227,218,210,188,172,151,129,98],"timestamp_mouse":[10,22,45,62,82,102,123,142,162,183,203,222,242,263,282,303,322,343,363,383,403,423,441,462,482,503,523,541,563,582,602,622,642,663,681,702,722,742,762,783,803,822,842,862,882,902,922,942,963,982,1002,1022,1042,1062,1083,1103,1122,1142,1167,1182,1203,1222,1243,1262,1282,1302,1323,1342,1363,1382,1402,1422,1443,1463,1482,1502,1522,1543],"xSR":741.5,"ySR":469.95,"xT1":424.9,"yT1":0,"xT2":1058.1,"yT2":0,"toosoon":0,"cond_shown":"Congruent","ratio_trial":300,"L_num":8,"L_den":16,"R_num":1,"R_den":5,"correct_side":1,"subjID":"Sofiapenagos5","gender":"1","school":"4","age":"9"},{"start_time":1552308403820,"click_time":1552308416479,"finger_time":1552308405239,"fix_duration":1179.4559715024766,"trial":14,"RT":1419,"MT":11240,"sideResp":2,"stimulus":[],"xmouse":[775,775,775,775,775,775,775,775,775,775,775,775,775,775,775,775,775,775,775,775,775,775,775,775,775,775,775,775,775,775,775,775,775,775,775,775,775,775,775,775,775,775,775,775,775,775,775,775,775,775,775,775,775,775,775,775,775,775,775,775,775,775,775,775,775,775,775,775,775,774,779,791,794,794,793,789,786,785,785,784,779,775,763,756,752,750,750,750,750,750,750,752,756,759,773,782,792,796,802,818,830,837,841,844,846,846,846,846,846,855,865,871,884,895,906,922,924,924,925,925,925,925,925,925,925,925,925,925,925,925,925,925,925,925,925,925,925,922,906,884,845,821,811,808,808,808,808,808,808,808,808,808,808,807,807,804,803,801,796,771,754,744,728,705,684,645,625,608,590,589,589,589,589,589,589,589,597,604,605,605,607,612,629,658,681,736,785,853,912,963,1008,1012,1012,1012,1012,1012,1012,1013,1010,1006,961,935,918,911,907,896,896,889,882,879,871,860,848,841,826,822,819,819,819,819,853,883,906,927,951,1000,1010,1011,1011,1011,1011,1011,1011,1012,1012,984,955,914,858,775,736,714,697,687,681,676,676,676,677,692,734,749,761,781,799,837,857,871,879,881,881,881,881,882,882,878,874,869,861,839,788,764,747,732,721,697,690,686,686,686,686,698,713,729,751,792,810,826,839,846,872,885,893,899,902,902,902,903,912,916,911,903,891,883,879,876,876,876,876,876,876,876,876,876,876,876,876,876,876,876,876,876,876,876,876,876,876,876,876,876,876,876,876,876,876,876,876,876,876,876,876,876,876,876,876,876,876,876,876,876,876,876,876,876,876,876,876,876,876,876,876,876,876,876,876,876,876,876,876,876,876,876,876,876,876,876,876,876,876,876,876,876,876,876,876,876,876,876,876,876,876,876,876,876,876,876,876,876,876,876,876,876,876,876,876,876,876,876,876,876,876,876,876,876,876,876,876,876,876,876,876,876,876,876,876,876,876,876,876,876,876,876,876,876,876,876,876,876,876,876,876,876,876,876,876,876,876,876,876,876,876,876,876,876,876,876,876,876,876,876,876,876,876,876,876,876,876,876,876,876,876,876,876,876,876,876,876,876,876,876,876,876,876,876,876,876,876,876,876,876,876,876,876,876,876,876,876,876,876,876,876,876,876,876,876,876,876,876,876,876,876,876,876,876,876,876,876,876,876,876,876,876,876,876,876,876,876,876,876,876,876,876,876,876,876,876,876,876,876,876,876,876,876,876,876,876,876,876,876,876,876,876,876,876,876,876,876,876,876,876,876,876,876,876,876,876,895,917,917,917,917,917,917,917,917,917,917,917,917,917,917,917,917,917,917,917,917,917,1046,1046,1046,1046,1046,1046,1046,1046,1046,1046,1046,1046,1046,1046,1046,1046,1046,1046,1046,1046,1046,1046,1046,1046,1046,1046,1046,1046,1046,1046,1049,1051,1056,1060,1065,1069,1073,1074,1074,1074,1074,1075,1078,1118,1137,1152],"ymouse":[505,505,505,505,505,505,505,505,505,505,505,505,505,505,505,505,505,505,505,505,505,505,505,505,505,505,505,505,505,505,505,505,505,505,505,505,505,505,505,505,505,505,505,505,505,505,505,505,505,505,505,505,505,505,505,505,505,505,505,505,505,505,505,505,505,505,505,505,505,504,499,464,433,406,366,352,346,343,341,340,334,330,318,310,304,300,300,300,299,298,289,284,275,270,253,246,238,235,230,217,209,205,203,201,200,200,200,200,200,195,191,189,186,183,178,173,172,172,172,172,172,172,172,172,172,172,172,172,172,172,172,172,172,172,172,172,172,166,146,122,83,63,56,53,53,53,53,53,53,53,53,53,53,53,53,55,57,58,59,66,75,80,86,93,95,96,96,98,102,102,102,102,102,102,102,102,105,106,106,106,108,110,112,116,121,142,153,172,185,191,198,199,199,199,199,199,199,199,190,184,144,128,120,118,117,119,120,123,125,126,127,131,134,137,139,140,141,141,141,141,141,145,152,160,168,181,184,184,184,184,184,184,184,184,185,177,169,157,143,130,135,144,152,158,162,166,166,166,166,165,158,157,157,157,157,157,160,161,164,164,164,164,164,165,165,167,170,172,174,176,176,176,176,176,177,181,182,182,182,182,180,174,168,164,161,159,162,165,167,167,171,171,172,173,173,173,173,173,173,174,148,128,115,110,109,108,108,108,108,108,108,108,108,108,108,108,108,108,108,108,108,108,108,108,108,108,108,108,108,108,108,108,108,108,108,108,108,108,108,108,108,108,108,108,108,108,108,108,108,108,108,108,108,108,108,108,108,108,108,108,108,108,108,108,108,108,108,108,108,108,108,108,108,108,108,108,108,108,108,108,108,108,108,108,108,108,108,108,108,108,108,108,108,108,108,108,108,108,108,108,108,108,108,108,108,108,108,108,108,108,108,108,108,108,108,108,108,108,108,108,108,108,108,108,108,108,108,108,108,108,108,108,108,108,108,108,108,108,108,108,108,108,108,108,108,108,108,108,108,108,108,108,108,108,108,108,108,108,108,108,108,108,108,108,108,108,108,108,108,108,108,108,108,108,108,108,108,108,108,108,108,108,108,108,108,108,108,108,108,108,108,108,108,108,108,108,108,108,108,108,108,108,108,108,108,108,108,108,108,108,108,108,108,108,108,108,108,108,108,108,108,108,108,108,108,108,108,108,108,108,108,108,108,108,108,108,108,108,108,108,108,108,108,108,108,108,108,108,108,108,108,108,108,108,108,108,108,108,108,108,108,108,108,108,108,108,61,14,14,14,14,14,14,14,14,14,14,14,14,14,14,14,14,14,14,14,14,14,0,7,12,13,13,13,13,13,13,16,22,28,32,32,32,32,32,32,32,32,32,32,32,32,32,32,32,32,35,49,66,81,100,107,111,115,117,118,118,118,118,118,118,107,103,97],"timestamp_mouse":[2,19,45,60,79,99,120,139,159,180,200,220,240,259,280,299,320,339,360,378,399,420,440,459,479,498,520,540,559,580,600,619,640,660,680,700,718,740,760,779,799,820,840,860,880,900,919,939,960,980,999,1020,1040,1059,1078,1098,1119,1139,1158,1180,1200,1219,1240,1259,1280,1299,1320,1339,1360,1380,1399,1419,1440,1459,1480,1499,1519,1539,1560,1580,1598,1620,1639,1659,1679,1700,1720,1739,1759,1780,1799,1820,1839,1860,1880,1899,1919,1940,1959,1980,1999,2020,2039,2060,2080,2099,2119,2139,2159,2180,2199,2220,2240,2260,2279,2299,2319,2339,2359,2379,2400,2420,2438,2459,2479,2500,2519,2539,2559,2580,2599,2620,2640,2659,2679,2700,2719,2740,2759,2780,2799,2819,2840,2860,2879,2900,2919,2940,2960,2980,3000,3020,3038,3060,3079,3100,3119,3139,3160,3180,3198,3219,3240,3259,3279,3299,3319,3340,3359,3379,3399,3420,3440,3458,3479,3499,3519,3540,3559,3579,3600,3620,3640,3659,3680,3700,3719,3740,3759,3779,3800,3819,3840,3860,3879,3900,3920,3939,3959,3980,4000,4020,4040,4059,4079,4099,4120,4140,4159,4179,4199,4219,4240,4260,4281,4299,4319,4340,4360,4380,4399,4419,4439,4460,4479,4500,4519,4540,4560,4580,4599,4620,4639,4659,4680,4699,4719,4740,4760,4781,4799,4820,4839,4859,4879,4899,4919,4939,4959,4979,4999,5019,5040,5060,5079,5100,5119,5140,5159,5180,5199,5219,5240,5260,5280,5300,5320,5340,5359,5380,5399,5420,5439,5460,5480,5499,5519,5540,5559,5579,5600,5620,5640,5659,5680,5700,5720,5740,5759,5780,5800,5819,5839,5859,5879,5900,5919,5939,5960,5979,5999,6020,6040,6060,6080,6099,6119,6140,6160,6180,6200,6219,6240,6260,6278,6299,6320,6340,6359,6380,6400,6419,6440,6459,6478,6499,6520,6539,6559,6580,6600,6619,6639,6660,6679,6699,6719,6739,6759,6779,6799,6819,6839,6860,6880,6899,6920,6940,6960,6980,6999,7019,7040,7060,7079,7100,7119,7140,7159,7180,7199,7220,7240,7260,7280,7298,7320,7340,7359,7379,7399,7419,7440,7459,7480,7499,7520,7539,7560,7580,7599,7619,7640,7659,7680,7699,7720,7739,7759,7778,7799,7820,7839,7859,7879,7899,7920,7940,7960,7980,7999,8020,8039,8060,8079,8100,8119,8139,8159,8180,8199,8219,8240,8259,8280,8299,8319,8339,8360,8379,8400,8419,8440,8459,8480,8500,8520,8539,8560,8580,8599,8620,8639,8660,8679,8699,8720,8739,8760,8780,8799,8820,8839,8860,8879,8899,8919,8940,8959,8980,8999,9018,9040,9060,9080,9099,9119,9140,9160,9180,9200,9220,9238,9260,9279,9299,9319,9340,9360,9379,9400,9420,9439,9460,9480,9499,9519,9540,9560,9580,9599,9619,9640,9660,9680,9699,9720,9740,9759,9778,9799,9819,9840,9860,9880,9900,9920,9939,9960,9978,9999,10019,10039,10059,10079,10099,10120,10140,10159,10178,10200,10220,10239,10259,10279,10299,10320,10340,10360,10380,10400,10420,10440,10460,10479,10500,10518,10540,10559,10580,10600,10620,10639,10660,10679,10700,10720,10739,10760,10779,10800,10819,10839,10860,10879,10900,10919,10939,10959,10979,10999,11019,11040,11059,11079,11099,11120,11140,11160,11179,11200,11219,11239,11259,11280,11300,11320,11340,11360,11380,11400,11420,11439,11460,11480,11500,11519,11539,11559,11580,11599,11619,11639,11659,11679,11700,11720,11740,11759,11780,11799,11820,11840,11860,11880,11899,11919,11939,11960,11980,12000,12019,12039,12059,12080,12100,12119,12140,12160,12179,12200,12219,12239,12259,12280,12300,12319,12340,12360,12380,12401,12419,12440,12459,12479,12500,12520,12539,12560,12579,12599,12620,12639,12659],"xSR":741.5,"ySR":469.95,"xT1":424.9,"yT1":0,"xT2":1058.1,"yT2":0,"toosoon":0,"cond_shown":"Incongruent","ratio_trial":300,"L_num":13,"L_den":26,"R_num":12,"R_den":15,"correct_side":2,"subjID":"Sofiapenagos5","gender":"1","school":"4","age":"9"},{"start_time":1552308423004,"click_time":1552308426979,"finger_time":1552308425740,"fix_duration":1363.1411457745019,"trial":15,"RT":2736,"MT":1239,"sideResp":1,"stimulus":[],"xmouse":[810,810,810,810,810,810,810,810,810,810,810,810,810,810,810,810,810,810,810,810,810,810,810,810,810,810,810,810,810,810,810,810,810,810,810,810,810,810,810,810,810,810,810,810,810,810,810,810,810,810,810,810,810,810,810,810,810,810,810,810,810,810,810,810,810,810,810,810,810,810,810,810,810,810,810,810,810,810,810,810,810,810,810,810,810,810,810,810,810,810,810,810,810,810,810,810,810,810,810,810,810,810,810,810,810,810,810,810,810,810,810,810,810,810,810,810,810,810,810,810,810,810,810,810,810,810,810,810,810,810,810,810,810,810,810,810,818,829,829,817,775,716,592,592,592,592,592,592,592,592,592,592,592,592,592,592,592,592,592,592,592,592,592,592,592,592,592,592,592,592,592,592,592,592,592,592,592,592,592,592,592,592,592,592,592,592,592,592,592,592,592,592,592,592,592,592,592,592,485],"ymouse":[507,507,507,507,507,507,507,507,507,507,507,507,507,507,507,507,507,507,507,507,507,507,507,507,507,507,507,507,507,507,507,507,507,507,507,507,507,507,507,507,507,507,507,507,507,507,507,507,507,507,507,507,507,507,507,507,507,507,507,507,507,507,507,507,507,507,507,507,507,507,507,507,507,507,507,507,507,507,507,507,507,507,507,507,507,507,507,507,507,507,507,507,507,507,507,507,507,507,507,507,507,507,507,507,507,507,507,507,507,507,507,507,507,507,507,507,507,507,507,507,507,507,507,507,507,507,507,507,507,507,507,504,495,495,495,495,466,408,340,264,185,110,0,0,0,0,0,0,0,0,0,0,0,0,0,0,0,0,0,0,0,0,0,0,0,0,0,0,0,0,0,0,0,0,0,0,0,0,0,0,0,0,0,0,0,0,0,0,0,0,0,0,0,0,0,0,0,0,2],"timestamp_mouse":[15,35,56,76,95,116,136,156,175,196,215,235,255,276,296,316,335,355,376,395,416,436,456,475,496,516,535,556,576,596,616,636,656,676,696,716,736,755,775,795,816,836,856,876,896,915,936,956,975,995,1015,1036,1056,1076,1095,1116,1135,1157,1176,1195,1216,1236,1255,1276,1295,1316,1336,1356,1375,1396,1415,1436,1456,1475,1495,1516,1536,1556,1575,1595,1615,1636,1656,1676,1696,1716,1735,1755,1776,1796,1816,1836,1855,1876,1895,1915,1936,1955,1975,1996,2015,2036,2056,2075,2096,2115,2135,2156,2176,2196,2217,2235,2255,2276,2295,2315,2335,2356,2376,2396,2415,2436,2456,2475,2496,2515,2536,2555,2576,2596,2616,2636,2655,2676,2695,2716,2736,2755,2775,2795,2816,2835,2855,2876,2895,2915,2936,2956,2975,2995,3016,3035,3057,3075,3095,3115,3136,3155,3176,3195,3215,3236,3255,3276,3296,3315,3335,3356,3375,3395,3416,3435,3455,3475,3496,3516,3536,3556,3576,3595,3616,3635,3656,3675,3696,3715,3736,3756,3775,3795,3816,3836,3855,3875,3895,3916,3936,3956,3975],"xSR":741.5,"ySR":469.95,"xT1":424.9,"yT1":0,"xT2":1058.1,"yT2":0,"toosoon":0,"cond_shown":"Incongruent","ratio_trial":300,"L_num":13,"L_den":26,"R_num":12,"R_den":15,"correct_side":2,"subjID":"Sofiapenagos5","gender":"1","school":"4","age":"9"},{"start_time":1552308432970,"click_time":1552308434659,"finger_time":1552308433961,"fix_duration":1388.0728678324213,"trial":16,"RT":991,"MT":698,"sideResp":2,"stimulus":[],"xmouse":[787,787,787,787,787,787,787,787,787,787,781,779,778,778,777,777,777,777,777,777,777,777,777,777,777,777,777,777,777,778,781,782,782,784,785,786,787,787,787,787,787,787,787,787,789,791,799,808,820,841,856,863,871,876,877,878,879,880,881,884,891,898,905,915,923,937,942,945,947,950,969,981,993,1002,1012,1019,1022,1025,1029,1033,1044,1050,1058,1070,1083],"ymouse":[494,494,494,494,494,494,494,494,493,490,478,477,477,476,475,474,473,473,473,473,473,473,473,473,473,473,473,473,473,473,475,477,479,481,483,486,488,489,489,489,489,489,489,489,490,490,487,482,477,465,459,456,452,449,448,446,445,443,441,434,417,404,390,374,359,338,331,326,323,317,296,287,278,270,262,250,242,231,218,203,161,142,121,103,87],"timestamp_mouse":[10,38,50,70,90,110,130,149,169,189,209,229,249,270,290,310,330,349,369,389,409,430,449,470,489,511,530,550,570,590,609,630,649,670,690,710,730,750,770,790,810,830,850,870,889,910,929,950,969,991,1009,1030,1049,1070,1089,1109,1129,1150,1169,1189,1208,1229,1249,1270,1289,1309,1330,1350,1369,1389,1409,1430,1450,1469,1490,1509,1530,1550,1569,1590,1609,1629,1649,1669,1689],"xSR":741.5,"ySR":469.95,"xT1":424.9,"yT1":0,"xT2":1058.1,"yT2":0,"toosoon":0,"cond_shown":"Congruent","ratio_trial":300,"L_num":2,"L_den":10,"R_num":12,"R_den":24,"correct_side":2,"subjID":"Sofiapenagos5","gender":"1","school":"4","age":"9"},{"start_time":1552308437299,"click_time":1552308442740,"finger_time":1552308439080,"fix_duration":317.5315806068576,"trial":17,"RT":1781,"MT":3660,"sideResp":1,"stimulus":[],"xmouse":[811,811,811,811,811,811,811,811,811,811,811,811,811,811,811,811,811,811,811,811,811,811,811,811,811,811,811,811,811,811,811,811,811,811,811,811,811,811,811,811,811,811,811,811,811,811,811,811,811,811,811,811,811,811,811,811,811,811,811,811,811,811,811,811,811,811,811,811,811,811,811,811,811,811,811,812,813,813,813,814,814,814,816,817,824,828,832,837,840,843,845,845,848,852,869,884,895,898,898,897,897,898,899,901,917,929,940,951,959,964,964,964,964,964,964,964,964,963,958,928,904,872,855,846,834,824,811,801,798,796,795,789,779,773,763,758,746,723,688,653,622,620,620,620,620,618,617,616,616,611,603,583,571,565,563,563,563,563,563,563,563,563,563,563,562,562,562,562,562,562,562,562,562,562,560,559,559,559,559,559,559,557,556,555,554,554,553,553,552,550,549,549,549,546,541,540,539,538,537,537,537,536,536,536,536,536,536,536,536,535,534,533,532,531,529,527,524,522,520,520,520,520,520,520,520,520,520,520,520,520,520,520,520,520,520,520,520,520,520,520,520,520,520,520,520,520,520,520,519,519,519,519,519,519,519,519,519,519,519,519,519,519,519,519,519,519,520,518,518,518,518,518,518],"ymouse":[519,519,519,519,519,519,519,519,519,519,519,519,519,519,519,519,519,519,519,519,519,519,519,519,519,519,519,519,519,519,519,519,519,519,519,519,519,519,519,519,519,519,519,519,519,519,519,519,519,519,519,519,519,519,519,519,519,519,519,519,519,519,519,519,519,519,519,519,519,519,519,519,519,518,518,517,517,516,516,515,515,515,513,511,505,501,497,493,491,488,487,486,483,478,444,405,362,314,282,256,255,255,254,253,247,244,242,239,237,235,235,235,235,235,235,235,235,235,233,220,210,199,193,192,191,191,191,190,189,189,189,187,185,183,181,178,173,163,149,134,116,115,115,115,115,115,114,113,113,111,108,100,96,92,92,92,92,92,92,92,92,92,92,92,92,92,92,92,92,92,92,92,92,92,92,92,92,92,92,92,92,93,94,94,95,96,97,97,98,100,100,101,101,101,101,101,101,101,101,101,101,101,101,101,101,101,101,101,101,101,102,102,102,103,104,104,104,104,104,104,104,104,104,104,104,104,104,104,104,104,104,104,104,104,104,104,104,104,104,104,104,104,104,104,104,104,104,104,104,104,104,104,104,104,104,103,103,103,103,103,102,102,102,102,102,102,101,100,100,100,100,100,99],"timestamp_mouse":[9,20,43,61,80,100,120,141,160,180,200,221,250,260,280,301,320,340,360,381,400,420,441,460,480,501,521,541,560,580,600,620,640,661,680,701,720,741,760,781,800,821,841,864,881,900,920,941,960,981,1000,1020,1040,1060,1080,1100,1120,1141,1160,1180,1201,1221,1240,1260,1281,1301,1321,1340,1360,1380,1400,1421,1440,1461,1481,1500,1520,1540,1560,1580,1601,1620,1641,1661,1680,1701,1720,1740,1761,1781,1800,1821,1841,1861,1880,1900,1921,1941,1960,1981,2000,2021,2040,2060,2081,2100,2121,2140,2160,2181,2201,2221,2240,2261,2280,2301,2320,2340,2361,2381,2400,2421,2441,2461,2480,2500,2520,2541,2561,2580,2601,2620,2641,2661,2681,2700,2720,2740,2761,2781,2800,2821,2841,2861,2881,2900,2920,2941,2961,2981,3000,3020,3040,3061,3081,3101,3121,3141,3161,3180,3200,3221,3241,3261,3281,3301,3320,3340,3360,3380,3400,3420,3440,3460,3481,3501,3520,3541,3561,3581,3600,3621,3640,3660,3681,3701,3720,3741,3761,3781,3800,3820,3841,3860,3881,3900,3920,3941,3960,3980,4000,4021,4041,4061,4081,4101,4120,4140,4160,4181,4200,4221,4241,4260,4281,4301,4320,4341,4360,4380,4401,4420,4441,4460,4481,4500,4520,4540,4561,4581,4600,4620,4641,4661,4681,4700,4720,4741,4760,4781,4801,4821,4841,4861,4881,4901,4921,4941,4960,4980,5001,5021,5041,5061,5082,5101,5121,5140,5161,5181,5201,5220,5241,5261,5281,5301,5321,5340,5361,5380,5401,5421,5441],"xSR":741.5,"ySR":469.95,"xT1":424.9,"yT1":0,"xT2":1058.1,"yT2":0,"toosoon":0,"cond_shown":"Incongruent","ratio_trial":300,"L_num":3,"L_den":6,"R_num":4,"R_den":20,"correct_side":1,"subjID":"Sofiapenagos5","gender":"1","school":"4","age":"9"},{"start_time":1552308445658,"click_time":1552308447139,"finger_time":1552308446660,"fix_duration":516.3547361497028,"trial":18,"RT":1002,"MT":479,"sideResp":2,"stimulus":[],"xmouse":[775,775,775,775,775,775,775,775,775,775,775,775,775,775,775,775,775,775,775,776,776,776,777,779,779,779,780,780,781,781,781,781,781,781,781,781,781,781,781,781,783,783,785,787,788,790,792,795,797,797,799,802,808,811,815,819,822,835,848,853,871,885,933,964,986,999,1004,1013,1018,1029,1040,1052,1098,1121,1144],"ymouse":[505,505,505,505,505,505,505,505,505,505,505,505,505,505,505,505,505,505,505,505,505,505,504,504,504,504,504,503,503,503,503,503,503,503,503,503,503,503,503,503,503,502,500,499,496,492,489,482,477,474,468,458,432,421,410,397,387,361,337,328,302,282,243,231,223,219,217,210,205,197,187,174,125,102,80],"timestamp_mouse":[10,21,49,62,82,101,121,143,162,182,201,221,242,262,281,301,321,342,362,382,401,421,442,461,481,502,522,541,561,581,601,622,642,661,682,701,722,741,762,781,802,822,841,862,881,902,922,941,962,982,1002,1021,1041,1061,1081,1102,1121,1142,1161,1181,1201,1222,1241,1262,1281,1302,1322,1342,1362,1382,1401,1422,1441,1462,1481],"xSR":741.5,"ySR":469.95,"xT1":424.9,"yT1":0,"xT2":1058.1,"yT2":0,"toosoon":0,"cond_shown":"Incongruent","ratio_trial":100,"L_num":9,"L_den":15,"R_num":13,"R_den":26,"correct_side":1,"subjID":"Sofiapenagos5","gender":"1","school":"4","age":"9"},{"start_time":1552308449151,"click_time":1552308450660,"finger_time":1552308450160,"fix_duration":250,"trial":19,"RT":1009,"MT":500,"sideResp":2,"stimulus":[],"xmouse":[781,780,780,780,780,780,780,780,780,780,780,780,780,780,780,780,780,780,780,780,780,780,780,780,780,780,780,780,780,780,780,780,780,780,780,780,780,780,780,780,780,780,780,780,781,782,785,788,805,815,823,834,844,868,874,878,882,888,892,896,900,907,921,928,941,946,952,960,967,978,988,997,1017,1033,1047,1062],"ymouse":[515,515,515,516,517,517,517,517,517,517,517,517,517,517,517,517,517,517,517,517,517,517,517,517,517,517,517,517,517,517,517,517,517,517,517,517,517,517,517,517,517,517,517,517,517,516,515,513,493,477,455,428,403,347,334,324,315,302,292,277,262,247,214,201,184,178,171,163,157,151,144,137,116,91,67,37],"timestamp_mouse":[10,28,50,69,89,109,129,148,169,188,208,229,248,269,289,309,329,348,368,388,408,429,449,468,488,508,529,548,568,588,608,629,649,669,689,709,729,748,769,788,809,829,849,869,889,909,928,949,969,989,1009,1029,1049,1068,1088,1109,1129,1149,1168,1188,1209,1229,1250,1268,1288,1308,1328,1349,1368,1388,1409,1428,1449,1468,1488,1509],"xSR":741.5,"ySR":469.95,"xT1":424.9,"yT1":0,"xT2":1058.1,"yT2":0,"toosoon":0,"cond_shown":"Incongruent","ratio_trial":100,"L_num":9,"L_den":10,"R_num":20,"R_den":25,"correct_side":1,"subjID":"Sofiapenagos5","gender":"1","school":"4","age":"9"},{"start_time":1552308451991,"click_time":1552308455119,"finger_time":1552308454300,"fix_duration":250,"trial":20,"RT":2309,"MT":819,"sideResp":1,"stimulus":[],"xmouse":[806,806,806,806,806,806,806,806,806,806,806,805,804,803,803,803,803,803,803,803,803,803,803,803,803,802,801,800,800,799,799,799,799,799,799,799,799,799,799,799,799,799,799,799,799,799,799,799,799,799,799,799,799,799,799,799,799,799,799,799,799,799,799,799,799,799,799,799,799,799,799,799,799,799,799,799,799,799,799,799,799,799,799,799,799,799,799,799,799,799,799,799,799,799,799,799,799,799,799,799,799,798,801,802,803,804,804,804,804,804,804,804,804,804,804,804,804,804,800,794,784,771,761,755,751,749,749,749,749,748,748,730,718,701,683,649,592,569,557,553,553,553,553,553,550,546,541,541,541,539,536,530,529,527,526,525,523],"ymouse":[497,497,497,497,497,497,497,497,497,497,497,497,497,498,498,498,498,498,498,498,498,498,498,498,498,498,499,500,500,500,500,500,500,500,500,500,500,500,500,500,500,500,500,500,500,500,500,500,500,500,500,500,500,500,500,500,500,500,500,500,500,500,500,500,500,500,500,500,500,500,500,500,500,500,500,500,500,500,500,500,500,500,500,500,500,500,500,500,500,500,500,500,500,500,500,500,500,500,500,500,500,492,483,477,472,470,470,470,470,470,470,470,470,470,470,464,450,438,424,408,382,342,312,284,263,253,250,250,250,249,249,236,225,211,194,165,113,88,72,68,67,67,67,66,63,60,58,58,58,58,57,57,57,57,57,57,61],"timestamp_mouse":[11,28,50,68,88,109,129,148,169,189,209,229,249,269,288,309,328,349,368,389,409,428,449,469,489,509,529,549,569,589,609,628,649,669,688,708,728,749,769,789,808,828,849,868,889,908,929,950,969,989,1008,1029,1048,1069,1088,1109,1129,1149,1169,1189,1208,1228,1248,1269,1288,1308,1329,1349,1370,1389,1409,1428,1448,1469,1488,1509,1529,1548,1569,1589,1608,1629,1649,1669,1688,1708,1729,1749,1768,1789,1809,1828,1848,1868,1889,1908,1929,1949,1969,1988,2009,2028,2049,2068,2089,2108,2129,2149,2169,2189,2209,2229,2249,2268,2288,2309,2328,2348,2368,2389,2408,2428,2449,2468,2489,2509,2528,2549,2569,2589,2608,2629,2648,2669,2689,2709,2728,2748,2769,2788,2809,2829,2849,2868,2888,2908,2928,2949,2969,2989,3009,3028,3048,3068,3089,3109,3128],"xSR":741.5,"ySR":469.95,"xT1":424.9,"yT1":0,"xT2":1058.1,"yT2":0,"toosoon":0,"cond_shown":"Congruent","ratio_trial":100,"L_num":10,"L_den":25,"R_num":3,"R_den":10,"correct_side":1,"subjID":"Sofiapenagos5","gender":"1","school":"4","age":"9"},{"start_time":1552308457618,"click_time":1552308461780,"finger_time":1552308459580,"fix_duration":1037.0951607683346,"trial":21,"RT":1962,"MT":2200,"sideResp":1,"stimulus":[],"xmouse":[816,816,816,816,816,816,816,816,816,816,816,816,816,816,816,816,816,816,816,816,816,816,816,816,816,816,816,816,816,816,816,816,816,816,816,816,816,816,816,816,816,816,816,816,816,816,816,816,816,816,816,816,816,816,816,816,816,816,816,816,816,816,816,816,816,816,816,816,816,816,816,816,816,816,816,816,816,816,816,816,816,816,816,816,816,816,816,816,816,816,816,816,816,816,816,816,816,803,781,759,741,729,728,728,728,728,717,705,695,687,670,663,657,648,638,632,619,618,616,614,609,597,593,591,589,588,587,585,582,579,573,561,559,556,555,552,543,543,543,543,543,543,542,542,542,542,542,542,542,546,549,550,550,547,541,533,530,528,526,526,525,525,525,525,525,525,525,525,525,525,525,525,525,524,524,523,523,523,523,523,523,523,523,523,523,523,523,523,523,523,521,520,520,520,520,520,520,520,520,520,520,520,520,520,520,520,520,520,521],"ymouse":[523,523,523,523,523,523,523,523,523,523,523,523,523,523,523,523,523,523,523,523,523,523,523,523,523,523,523,523,523,523,523,523,523,523,523,523,523,523,523,523,523,523,523,523,523,523,523,523,523,523,523,523,523,523,523,523,523,523,523,523,523,523,523,523,523,523,523,523,523,523,523,523,523,523,523,523,523,523,523,523,523,523,523,523,523,523,523,523,523,523,523,523,523,523,523,523,511,473,431,394,364,340,338,337,337,336,328,319,309,297,269,256,239,220,199,182,143,131,118,108,98,83,78,76,75,75,74,73,73,73,73,73,73,73,73,74,74,74,74,74,74,74,75,76,77,85,90,95,101,108,112,116,117,118,118,117,115,113,112,112,112,112,112,112,112,112,112,112,112,112,111,108,107,106,106,105,105,105,105,105,105,105,105,105,105,105,105,105,105,104,103,102,102,101,101,101,101,101,101,101,101,101,101,100,100,100,100,100,99],"timestamp_mouse":[10,21,45,62,81,101,123,141,161,183,201,222,242,263,282,302,321,342,361,381,402,422,441,463,482,501,522,541,562,582,602,622,642,662,681,702,721,742,762,781,802,822,842,862,882,902,922,941,961,981,1002,1022,1041,1062,1081,1101,1121,1142,1162,1184,1201,1222,1242,1262,1281,1301,1322,1342,1361,1382,1402,1422,1441,1462,1482,1502,1522,1541,1562,1581,1602,1621,1641,1662,1681,1701,1722,1741,1762,1781,1801,1822,1841,1861,1882,1902,1922,1941,1962,1981,2001,2021,2042,2061,2082,2102,2121,2142,2161,2181,2203,2221,2242,2261,2281,2301,2322,2342,2362,2381,2401,2421,2442,2461,2481,2502,2521,2541,2562,2581,2601,2621,2641,2662,2681,2701,2722,2742,2762,2782,2802,2822,2841,2861,2882,2903,2921,2942,2962,2981,3002,3021,3042,3061,3082,3103,3121,3141,3161,3181,3202,3222,3241,3262,3282,3303,3321,3341,3361,3381,3403,3421,3441,3461,3481,3501,3521,3541,3561,3581,3602,3622,3641,3661,3681,3702,3721,3742,3761,3781,3801,3821,3841,3862,3882,3902,3922,3941,3962,3981,4002,4021,4042,4061,4081,4102,4122,4142,4162],"xSR":741.5,"ySR":469.95,"xT1":424.9,"yT1":0,"xT2":1058.1,"yT2":0,"toosoon":0,"cond_shown":"Congruent","ratio_trial":200,"L_num":13,"L_den":26,"R_num":14,"R_den":20,"correct_side":2,"subjID":"Sofiapenagos5","gender":"1","school":"4","age":"9"},{"start_time":1552308465007,"click_time":1552308466820,"finger_time":1552308466400,"fix_duration":1265.9540727652832,"trial":22,"RT":1393,"MT":420,"sideResp":1,"stimulus":[],"xmouse":[773,773,773,774,774,774,774,773,772,772,770,769,769,769,769,769,768,768,768,768,768,768,768,768,768,768,768,768,768,768,768,768,768,768,768,768,768,768,768,768,768,768,768,768,768,768,768,768,768,768,768,768,768,768,768,768,768,768,768,768,768,768,768,768,770,772,774,776,776,773,766,749,741,728,721,713,688,671,660,651,646,644,640,633,627,618,592,578,554,528,509],"ymouse":[494,494,494,494,495,496,497,497,498,498,499,500,501,502,502,502,503,503,503,503,503,503,503,503,503,503,503,503,503,503,503,503,503,503,503,503,503,503,503,503,503,503,503,503,503,503,503,503,503,503,503,503,503,503,503,503,503,503,503,503,503,503,503,503,503,499,496,484,474,463,448,414,396,367,346,328,290,271,257,246,238,232,217,201,188,172,138,123,97,67,50],"timestamp_mouse":[13,38,52,73,93,112,132,152,173,193,213,232,252,273,292,314,334,352,373,392,413,434,453,473,493,512,532,553,572,592,612,633,653,672,692,712,733,752,772,793,813,833,852,872,893,912,932,952,972,992,1012,1032,1053,1072,1092,1112,1132,1153,1172,1193,1213,1232,1252,1272,1293,1312,1332,1352,1372,1393,1412,1432,1452,1473,1492,1513,1532,1552,1572,1592,1612,1633,1653,1672,1692,1712,1733,1752,1772,1793,1813],"xSR":741.5,"ySR":469.95,"xT1":424.9,"yT1":0,"xT2":1058.1,"yT2":0,"toosoon":0,"cond_shown":"Incongruent","ratio_trial":200,"L_num":4,"L_den":30,"R_num":1,"R_den":3,"correct_side":2,"subjID":"Sofiapenagos5","gender":"1","school":"4","age":"9"},{"start_time":1552308470313,"click_time":1552308476979,"finger_time":1552308472280,"fix_duration":250,"trial":23,"RT":1967,"MT":4699,"sideResp":2,"stimulus":[],"xmouse":[787,787,787,787,787,787,787,786,783,781,781,781,781,781,781,781,780,778,776,776,776,775,775,775,775,775,775,775,775,775,775,777,777,777,777,777,777,777,777,777,777,777,777,777,777,777,777,777,777,777,777,777,777,777,777,777,777,777,777,777,777,777,777,777,777,777,777,778,784,785,786,786,786,786,786,786,787,788,788,788,788,789,790,791,791,791,791,793,794,794,794,794,795,796,801,803,811,814,816,816,817,817,818,819,820,820,820,820,820,820,820,820,820,819,817,814,814,814,814,814,814,814,814,814,814,814,814,814,814,814,814,814,814,814,814,814,814,814,814,814,814,814,814,812,811,809,809,809,809,809,809,809,809,809,809,809,809,809,809,809,809,809,809,809,809,809,809,809,809,809,809,809,809,809,809,809,809,809,809,809,809,809,809,809,809,809,809,809,809,809,809,809,809,809,809,809,809,809,809,809,812,819,839,848,857,863,872,884,923,942,957,967,977,982,993,1001,1013,1032,1039,1044,1051,1055,1060,1062,1068,1074,1084,1098,1136,1150,1159,1163,1164,1164,1164,1164,1164,1164,1164,1164,1164,1165,1166,1177,1180,1183,1184,1186,1186,1186,1186,1186,1187,1187,1187,1187,1187,1187,1187,1187,1187,1187,1187,1187,1187,1187,1187,1187,1187,1187,1187,1187,1187,1187,1187,1187,1187,1187,1187,1187,1187,1187,1187,1187,1187,1187,1187,1187,1187,1187,1187,1187,1187,1187,1188,1191,1193,1193,1193,1193,1193,1193,1193,1193,1193,1193,1193,1193,1193,1193,1193,1193,1193,1191,1191,1191,1191,1191,1191,1190,1185,1179,1175,1171,1171,1170,1169,1165,1164,1164,1163,1162,1160,1158],"ymouse":[554,554,554,554,554,554,554,550,546,544,544,544,544,544,544,544,544,544,544,544,544,544,544,544,544,544,544,544,544,544,544,544,544,544,544,544,544,544,544,544,544,544,544,544,544,544,544,544,544,544,544,544,544,544,544,544,544,544,544,544,544,544,544,544,544,544,544,543,540,540,540,540,540,540,540,539,539,538,538,538,538,537,536,534,533,532,531,525,520,516,512,507,501,500,491,489,478,471,468,467,466,465,463,461,460,460,460,460,460,460,460,460,460,460,461,462,463,463,463,463,463,463,463,463,463,463,463,463,463,463,463,463,463,463,463,463,463,463,463,463,463,463,463,463,464,465,468,472,473,473,473,473,473,473,473,473,473,473,473,473,473,473,473,473,473,473,473,473,473,473,473,473,473,473,473,473,473,473,475,478,480,481,482,482,482,482,482,482,482,482,482,482,482,482,482,482,482,482,482,482,482,480,473,469,466,463,460,458,451,449,448,447,444,442,432,426,413,389,377,369,359,351,345,339,321,300,277,251,214,205,198,196,196,195,195,195,195,195,195,195,195,191,187,158,149,141,135,131,127,126,126,125,125,125,125,125,125,125,125,125,125,125,125,125,125,125,125,125,125,125,125,125,125,125,125,125,125,125,125,125,125,125,125,125,125,125,125,125,125,125,125,125,125,125,123,116,111,111,111,111,111,111,111,111,111,111,111,111,111,110,110,110,110,111,111,111,111,111,111,111,108,103,99,97,96,96,95,92,91,90,90,88,87,83],"timestamp_mouse":[18,28,46,66,87,106,126,146,167,187,206,227,246,267,286,307,326,346,367,387,407,426,446,466,486,507,527,546,567,586,607,626,646,667,687,708,726,746,766,786,807,826,846,867,886,906,926,946,966,986,1007,1026,1046,1067,1086,1106,1126,1148,1167,1186,1206,1226,1246,1266,1286,1306,1326,1347,1366,1386,1407,1427,1447,1467,1486,1507,1527,1546,1567,1586,1606,1627,1647,1666,1686,1706,1726,1746,1767,1786,1806,1827,1846,1867,1886,1906,1927,1946,1967,1987,2007,2026,2046,2067,2086,2106,2126,2146,2166,2187,2206,2227,2246,2267,2286,2306,2327,2346,2366,2387,2407,2427,2447,2467,2487,2507,2527,2547,2566,2586,2607,2627,2646,2667,2687,2707,2727,2746,2767,2787,2807,2827,2846,2867,2887,2906,2926,2946,2966,2986,3007,3027,3047,3066,3087,3106,3126,3147,3166,3186,3207,3226,3246,3266,3287,3306,3327,3346,3367,3387,3407,3426,3446,3467,3487,3506,3526,3546,3567,3587,3607,3626,3647,3666,3687,3707,3726,3746,3767,3787,3806,3827,3847,3867,3887,3907,3926,3947,3967,3987,4006,4027,4046,4066,4087,4107,4126,4146,4167,4187,4206,4227,4247,4267,4287,4306,4327,4346,4366,4386,4406,4426,4447,4465,4486,4507,4526,4546,4566,4587,4606,4626,4646,4666,4686,4707,4726,4747,4767,4787,4807,4826,4847,4867,4887,4906,4927,4946,4966,4987,5007,5026,5046,5066,5086,5106,5126,5146,5166,5187,5207,5226,5247,5267,5286,5306,5326,5346,5366,5386,5407,5427,5446,5467,5487,5507,5526,5546,5566,5586,5606,5627,5646,5666,5687,5706,5727,5747,5767,5787,5807,5827,5847,5867,5886,5906,5927,5947,5966,5987,6006,6026,6046,6066,6086,6107,6127,6147,6167,6187,6207,6226,6246,6267,6287,6307,6327,6346,6367,6386,6407,6426,6447,6467,6487,6507,6526,6548,6566,6586,6606,6626,6648,6666],"xSR":741.5,"ySR":469.95,"xT1":424.9,"yT1":0,"xT2":1058.1,"yT2":0,"toosoon":0,"cond_shown":"Congruent","ratio_trial":100,"L_num":3,"L_den":20,"R_num":4,"R_den":16,"correct_side":2,"subjID":"Sofiapenagos5","gender":"1","school":"4","age":"9"},{"start_time":1552308479130,"click_time":1552308481279,"finger_time":1552308480779,"fix_duration":250,"trial":24,"RT":1649,"MT":500,"sideResp":1,"stimulus":[],"xmouse":[822,822,822,822,822,822,822,822,822,822,822,822,822,822,822,822,822,822,822,822,822,822,822,822,821,821,821,821,821,821,821,821,821,821,821,821,821,821,821,821,821,821,821,821,821,821,821,822,822,822,822,822,822,822,822,822,822,822,823,823,823,823,823,823,823,823,823,823,823,823,823,823,823,823,823,823,823,823,823,823,823,820,807,796,781,760,743,712,700,690,680,675,657,639,621,596,572,501,458,419,400,387,387,387,391,405,417,429],"ymouse":[517,517,517,517,517,517,517,517,517,517,517,517,516,516,516,516,516,516,516,516,516,516,516,516,516,516,516,516,516,516,516,516,516,516,516,516,516,516,516,516,516,515,514,514,513,512,512,512,511,511,510,510,510,510,510,508,507,506,504,504,503,503,503,503,503,503,503,503,503,503,503,503,503,503,503,503,503,503,503,499,498,488,454,431,406,376,349,305,289,278,268,263,249,237,223,206,192,150,125,105,96,89,89,89,82,71,60,45],"timestamp_mouse":[13,35,50,70,89,110,129,150,169,190,209,230,250,269,289,310,330,349,370,389,410,429,449,470,489,510,529,550,570,589,610,630,649,670,689,709,730,749,769,790,809,830,849,869,889,909,930,950,969,990,1010,1030,1050,1070,1090,1110,1130,1150,1170,1189,1209,1230,1249,1269,1290,1310,1330,1350,1370,1390,1410,1429,1450,1469,1489,1510,1530,1549,1570,1589,1610,1630,1649,1669,1689,1710,1729,1750,1769,1789,1809,1830,1849,1869,1889,1910,1929,1949,1969,1990,2009,2029,2050,2070,2089,2110,2129,2149],"xSR":741.5,"ySR":469.95,"xT1":424.9,"yT1":0,"xT2":1058.1,"yT2":0,"toosoon":0,"cond_shown":"Incongruent","ratio_trial":300,"L_num":4,"L_den":20,"R_num":2,"R_den":4,"correct_side":2,"subjID":"Sofiapenagos5","gender":"1","school":"4","age":"9"},{"start_time":1552308484469,"click_time":1552308486819,"finger_time":1552308486660,"fix_duration":867.6333871572632,"trial":25,"RT":2191,"MT":159,"sideResp":2,"stimulus":[],"xmouse":[764,757,757,755,755,754,754,753,751,751,749,749,749,749,749,749,749,749,749,749,749,749,749,749,749,749,749,749,749,749,749,749,749,749,749,749,749,749,749,749,749,749,749,749,749,749,749,749,749,749,749,750,750,750,750,751,751,751,751,751,751,751,751,751,751,751,751,751,751,751,751,751,751,751,751,751,751,751,751,751,751,751,751,751,751,751,751,751,751,751,751,752,752,752,753,753,753,755,755,758,759,762,762,764,765,766,769,772,776,782,791,834,866,901,939,975,1070,1113],"ymouse":[521,521,521,521,521,521,521,520,519,518,517,517,517,517,517,516,515,515,515,515,515,515,515,515,515,515,515,515,515,515,514,514,514,514,514,514,514,514,513,513,513,513,513,513,513,513,513,513,513,513,513,513,513,513,513,513,513,513,513,513,513,513,513,513,513,513,513,513,513,513,513,513,513,513,513,513,513,513,513,513,513,513,513,513,513,513,513,513,513,513,513,513,513,513,512,512,512,511,510,507,505,498,496,495,493,491,487,484,477,468,457,417,391,362,325,278,144,81],"timestamp_mouse":[11,48,50,71,91,111,131,150,170,191,210,230,250,270,290,311,331,350,371,390,411,430,450,470,490,511,531,550,570,591,611,631,651,670,691,710,731,751,770,790,810,831,850,870,890,910,930,950,971,992,1011,1032,1050,1071,1090,1111,1131,1151,1170,1191,1210,1231,1251,1270,1291,1311,1330,1350,1370,1391,1411,1431,1451,1470,1491,1510,1531,1552,1572,1591,1610,1630,1651,1671,1690,1711,1731,1750,1771,1790,1810,1831,1852,1871,1891,1910,1931,1950,1971,1991,2011,2030,2050,2071,2090,2110,2131,2151,2171,2191,2211,2230,2250,2270,2291,2310,2331,2350],"xSR":741.5,"ySR":469.95,"xT1":424.9,"yT1":0,"xT2":1058.1,"yT2":0,"toosoon":0,"cond_shown":"Incongruent","ratio_trial":100,"L_num":10,"L_den":25,"R_num":9,"R_den":18,"correct_side":2,"subjID":"Sofiapenagos5","gender":"1","school":"4","age":"9"},{"start_time":1552308492122,"click_time":1552308496380,"finger_time":1552308494700,"fix_duration":1460.0812164009783,"trial":26,"RT":2578,"MT":1680,"sideResp":2,"stimulus":[],"xmouse":[824,824,824,824,822,821,820,819,819,819,819,819,819,819,819,818,817,815,811,810,810,810,810,810,810,810,810,810,810,810,810,810,810,810,810,810,810,810,810,810,810,810,810,810,810,810,810,810,810,810,810,810,808,808,808,807,807,806,806,806,806,805,805,805,805,805,804,804,804,804,804,804,804,804,804,804,804,804,804,804,804,804,804,804,804,804,804,804,804,804,804,804,804,804,804,804,804,804,804,804,804,804,805,806,806,806,806,806,806,806,806,806,806,806,806,806,806,806,806,806,806,806,806,806,807,811,819,827,863,882,902,914,930,956,972,980,990,1000,1010,1029,1037,1037,1029,1013,1009,1007,1006,1006,1006,1006,1006,1006,1006,1006,1006,1006,1006,1006,1006,1023,1034,1040,1041,1041,1041,1043,1044,1046,1047,1048,1048,1048,1048,1048,1048,1048,1048,1048,1048,1048,1048,1048,1048,1048,1048,1048,1048,1048,1048,1048,1048,1048,1048,1048,1048,1048,1048,1048,1048,1048,1048,1048,1048,1048,1048,1048,1048,1048,1048,1048,1050,1053,1061],"ymouse":[520,520,520,520,520,520,520,520,520,520,520,520,520,520,520,520,520,520,520,520,520,520,520,520,520,520,520,520,520,520,520,520,520,520,520,520,520,520,520,520,520,520,520,520,520,520,520,520,520,520,520,520,520,520,520,520,520,520,520,520,520,521,521,521,521,521,521,521,521,521,521,521,521,521,521,521,521,521,522,522,522,522,522,522,522,522,522,522,522,522,522,522,522,522,522,522,522,522,522,522,522,522,522,521,521,521,521,521,521,521,521,521,521,521,521,521,521,521,521,521,521,521,521,521,520,518,515,509,484,473,464,456,447,431,420,413,404,393,377,328,275,196,115,34,19,10,6,5,5,5,5,5,5,5,5,5,5,5,5,30,43,49,50,50,50,50,50,50,49,49,49,49,49,49,49,49,49,49,49,49,49,49,49,49,49,49,49,49,49,49,49,49,49,49,49,49,49,49,49,49,49,49,49,49,49,49,49,49,49,49,48,46,46],"timestamp_mouse":[19,41,58,77,98,117,137,158,177,198,218,238,257,278,297,318,337,357,378,397,417,437,457,477,497,518,538,557,578,597,617,637,657,677,698,717,738,757,777,797,817,837,857,878,897,917,938,958,978,998,1017,1037,1057,1078,1098,1118,1137,1158,1177,1198,1218,1237,1258,1277,1298,1317,1338,1358,1377,1398,1418,1437,1457,1477,1498,1517,1537,1557,1578,1597,1618,1639,1657,1677,1697,1717,1737,1757,1778,1798,1817,1838,1858,1877,1898,1917,1937,1958,1977,1997,2018,2038,2058,2077,2098,2118,2137,2157,2177,2197,2217,2237,2258,2277,2298,2318,2337,2358,2378,2397,2418,2438,2458,2478,2498,2517,2538,2558,2578,2597,2617,2637,2658,2678,2697,2717,2737,2758,2777,2797,2818,2837,2857,2879,2897,2918,2937,2957,2977,2997,3017,3038,3058,3078,3097,3117,3137,3157,3178,3197,3217,3237,3257,3278,3297,3317,3337,3357,3378,3397,3417,3438,3458,3477,3498,3516,3538,3557,3577,3597,3618,3637,3657,3679,3697,3718,3737,3757,3778,3798,3817,3838,3858,3878,3898,3918,3937,3958,3977,3997,4017,4038,4058,4078,4097,4118,4138,4158,4178,4197,4218,4238,4258],"xSR":741.5,"ySR":469.95,"xT1":424.9,"yT1":0,"xT2":1058.1,"yT2":0,"toosoon":0,"cond_shown":"Congruent","ratio_trial":100,"L_num":4,"L_den":8,"R_num":6,"R_den":10,"correct_side":2,"subjID":"Sofiapenagos5","gender":"1","school":"4","age":"9"},{"start_time":1552308498368,"click_time":1552308501980,"finger_time":1552308500280,"fix_duration":626.9305984522715,"trial":27,"RT":1912,"MT":1700,"sideResp":1,"stimulus":[],"xmouse":[785,783,782,778,778,778,778,778,778,778,778,778,778,778,778,778,778,778,778,778,778,778,778,778,778,778,778,778,778,778,778,778,778,778,778,778,779,779,779,779,779,779,779,779,779,779,779,779,779,779,779,779,779,780,780,780,780,780,780,780,780,780,781,781,782,782,782,782,782,782,782,782,782,782,782,782,782,782,782,782,782,782,782,782,782,782,782,782,782,782,782,782,782,782,786,786,783,764,757,752,749,746,743,737,731,724,717,702,694,677,663,651,641,639,639,637,635,632,624,620,617,613,605,603,602,601,599,588,574,566,560,556,553,553,553,552,552,551,549,545,541,536,531,530,530,529,529,529,529,527,527,527,526,526,526,525,525,525,525,525,525,525,525,525,525,525,525,525,525,525,525,525,525,525,525,525,525,525,525,525,524],"ymouse":[491,492,493,494,494,494,494,494,494,494,494,494,494,494,494,494,494,494,494,494,494,494,494,494,494,494,494,494,494,494,494,494,494,494,494,494,494,494,494,494,494,494,494,494,494,494,494,494,494,494,494,494,494,494,494,494,494,494,494,494,494,494,493,493,493,493,493,493,493,493,493,493,493,493,493,493,493,493,493,493,493,493,493,493,493,493,493,493,493,493,493,493,493,493,477,430,387,332,315,307,302,299,293,284,273,260,248,222,210,191,180,169,158,155,153,151,148,143,133,127,123,117,106,102,100,100,95,84,75,70,67,65,63,63,63,63,63,63,63,65,66,67,68,68,69,69,69,69,69,70,70,70,71,71,71,71,72,72,72,72,72,72,72,72,72,72,72,72,72,72,72,72,72,72,72,72,72,72,72,72,72],"timestamp_mouse":[11,32,52,71,91,112,132,151,172,192,213,231,251,272,292,312,331,352,371,391,411,432,451,471,492,511,532,551,571,591,611,631,651,672,692,711,731,751,772,792,812,832,852,872,892,911,932,952,971,992,1011,1031,1052,1072,1092,1111,1132,1152,1172,1191,1211,1232,1251,1271,1291,1311,1332,1351,1372,1392,1411,1431,1452,1473,1491,1511,1531,1552,1571,1591,1612,1632,1652,1672,1692,1711,1731,1752,1771,1792,1811,1832,1851,1871,1892,1912,1931,1952,1971,1991,2011,2032,2051,2071,2092,2112,2131,2152,2171,2191,2212,2232,2252,2271,2291,2311,2332,2352,2372,2391,2412,2432,2451,2471,2491,2512,2532,2552,2571,2591,2611,2631,2651,2672,2691,2711,2731,2752,2771,2792,2812,2831,2852,2870,2892,2911,2931,2952,2972,2992,3012,3032,3052,3071,3091,3111,3131,3151,3171,3191,3212,3231,3251,3271,3291,3311,3332,3352,3371,3391,3412,3431,3452,3471,3491,3511,3532,3551,3571,3592,3612],"xSR":741.5,"ySR":469.95,"xT1":424.9,"yT1":0,"xT2":1058.1,"yT2":0,"toosoon":0,"cond_shown":"Congruent","ratio_trial":300,"L_num":2,"L_den":20,"R_num":10,"R_den":25,"correct_side":2,"subjID":"Sofiapenagos5","gender":"1","school":"4","age":"9"},{"start_time":1552308504526,"click_time":1552308506139,"finger_time":1552308506059,"fix_duration":1323.5275350928102,"trial":28,"RT":1533,"MT":80,"sideResp":1,"stimulus":[],"xmouse":[805,805,805,805,805,805,805,805,805,805,805,805,805,805,805,805,805,805,805,805,805,805,805,805,805,805,805,805,805,805,805,805,805,805,805,805,805,805,805,805,805,805,805,805,805,805,805,805,805,805,805,805,805,805,805,805,805,805,805,805,805,805,805,805,805,805,805,805,805,805,805,805,805,805,806,806,787,748,695,588,467],"ymouse":[505,505,505,505,505,505,505,505,505,505,505,505,505,505,505,505,505,505,505,505,505,505,505,505,505,505,505,505,505,505,505,505,505,505,505,505,505,505,505,505,505,505,505,505,505,505,505,505,505,505,505,505,505,505,505,505,505,505,505,505,505,505,505,505,505,505,505,505,505,505,505,505,505,505,505,483,442,389,325,224,84],"timestamp_mouse":[13,43,53,73,93,113,133,153,173,193,214,234,254,274,294,313,334,353,373,394,415,434,454,474,494,514,534,554,573,593,614,633,654,675,693,714,734,754,773,793,813,833,853,874,893,914,933,954,974,993,1013,1034,1053,1073,1095,1114,1134,1154,1174,1194,1214,1234,1253,1273,1294,1314,1334,1355,1373,1393,1413,1433,1454,1474,1494,1514,1533,1554,1573,1594,1613],"xSR":741.5,"ySR":469.95,"xT1":424.9,"yT1":0,"xT2":1058.1,"yT2":0,"toosoon":0,"cond_shown":"Congruent","ratio_trial":200,"L_num":7,"L_den":21,"R_num":2,"R_den":15,"correct_side":1,"subjID":"Sofiapenagos5","gender":"1","school":"4","age":"9"},{"start_time":1552308509712,"click_time":1552308511140,"finger_time":1552308510579,"fix_duration":850.3270963203847,"trial":29,"RT":867,"MT":561,"sideResp":2,"stimulus":[],"xmouse":[813,813,813,813,813,813,813,813,813,813,813,813,813,813,813,813,813,813,813,813,813,813,813,813,813,813,813,813,813,813,813,813,813,813,813,813,813,813,814,818,823,829,841,848,855,866,888,893,900,904,908,912,921,926,928,928,928,928,932,937,943,955,989,1007,1019,1029,1039,1044,1047,1051,1056,1061],"ymouse":[521,521,521,521,521,521,521,521,521,521,521,521,521,521,521,521,521,521,521,521,521,521,521,521,521,521,521,521,521,521,521,521,521,521,521,521,521,519,518,515,508,500,486,477,469,460,442,437,429,424,418,412,393,378,358,334,260,192,151,121,97,78,53,46,44,43,43,45,47,49,51,52],"timestamp_mouse":[10,45,47,67,87,107,128,147,168,187,208,227,248,268,287,308,328,348,368,388,408,428,448,467,488,508,528,547,568,587,608,627,647,668,688,707,728,748,768,788,807,828,848,867,887,907,929,947,968,987,1008,1028,1047,1067,1087,1107,1128,1148,1167,1188,1208,1227,1247,1267,1288,1308,1329,1347,1367,1388,1407,1428],"xSR":741.5,"ySR":469.95,"xT1":424.9,"yT1":0,"xT2":1058.1,"yT2":0,"toosoon":0,"cond_shown":"Congruent","ratio_trial":200,"L_num":1,"L_den":2,"R_num":21,"R_den":30,"correct_side":2,"subjID":"Sofiapenagos5","gender":"1","school":"4","age":"9"},{"start_time":1552308516339,"click_time":1552308518339,"finger_time":1552308517659,"fix_duration":1179.0385853206449,"trial":30,"RT":1320,"MT":680,"sideResp":2,"stimulus":[],"xmouse":[788,787,786,785,785,785,785,785,785,785,785,785,785,785,785,785,785,785,785,785,785,785,785,785,785,785,785,785,785,785,785,785,785,785,785,785,785,785,785,785,785,785,785,785,785,785,785,785,785,785,785,785,785,785,785,785,785,785,785,786,786,787,788,792,800,811,833,842,850,860,873,900,913,925,929,932,938,941,945,949,957,963,979,990,1000,1008,1022,1027,1033,1039,1045,1051,1072,1081,1086,1092,1102,1105,1108,1111,1116],"ymouse":[492,493,494,495,495,495,495,495,495,495,495,495,495,495,495,495,495,495,495,495,495,495,495,495,495,495,495,495,495,495,495,495,495,495,495,495,495,495,495,495,495,495,495,495,495,495,495,495,495,495,495,495,495,495,495,495,495,495,495,494,494,494,493,491,486,475,458,449,439,427,408,371,353,336,329,324,315,308,302,295,284,276,259,248,234,221,197,192,186,180,174,166,141,131,125,120,112,109,106,101,96],"timestamp_mouse":[1,25,40,61,82,101,121,141,160,180,200,220,241,260,280,301,321,341,361,381,401,421,447,460,480,500,521,540,560,580,600,620,640,660,680,700,720,740,760,780,800,820,840,860,880,900,920,940,961,980,1000,1021,1041,1060,1080,1101,1120,1140,1160,1180,1201,1220,1241,1260,1280,1300,1320,1340,1360,1380,1400,1420,1441,1460,1481,1500,1520,1540,1561,1581,1600,1620,1641,1660,1680,1700,1720,1740,1761,1781,1800,1820,1840,1860,1880,1901,1920,1940,1960,1980,2000],"xSR":741.5,"ySR":469.95,"xT1":424.9,"yT1":0,"xT2":1058.1,"yT2":0,"toosoon":0,"cond_shown":"Incongruent","ratio_trial":200,"L_num":1,"L_den":3,"R_num":2,"R_den":15,"correct_side":1,"subjID":"Sofiapenagos5","gender":"1","school":"4","age":"9"},{"start_time":1552308521539,"click_time":1552308524239,"finger_time":1552308523200,"fix_duration":498.7183941293327,"trial":31,"RT":1661,"MT":1039,"sideResp":1,"stimulus":[],"xmouse":[809,809,809,809,809,809,809,809,809,809,809,809,809,809,808,808,808,808,807,807,807,807,807,807,807,807,807,807,807,807,807,807,807,807,807,807,806,806,806,805,805,805,804,803,802,801,800,798,798,797,797,797,797,797,797,797,797,797,797,797,797,797,797,797,797,797,797,797,797,797,797,797,797,797,797,797,797,797,797,797,797,797,796,795,793,789,786,784,784,784,784,784,781,778,774,773,770,766,764,761,753,747,732,722,711,700,688,671,666,660,655,650,636,629,622,618,616,612,607,604,596,592,584,582,577,573,566,555,552,547,546,544,537,532,526,523],"ymouse":[494,494,494,494,494,494,494,494,494,494,494,494,494,494,494,494,494,494,495,495,495,495,495,495,495,495,495,495,495,495,495,495,495,495,495,495,496,496,496,496,496,496,497,497,498,498,500,501,502,503,503,503,503,503,503,503,503,503,503,503,503,503,503,503,503,503,503,503,503,503,503,503,503,503,503,503,503,503,503,503,503,503,479,463,448,434,425,417,414,413,413,412,400,391,383,376,368,354,347,339,321,311,283,268,252,238,224,202,195,188,182,175,157,149,140,137,133,129,123,121,116,112,107,107,104,102,99,92,91,89,88,87,84,80,77,75],"timestamp_mouse":[9,21,41,61,80,101,120,141,160,181,200,220,240,261,280,302,321,341,360,381,400,421,441,461,481,501,520,540,561,582,601,620,640,661,682,701,721,741,760,780,801,820,840,860,881,900,920,940,961,981,1001,1020,1041,1061,1080,1101,1120,1141,1160,1181,1200,1221,1241,1260,1280,1301,1321,1340,1361,1380,1401,1420,1441,1461,1481,1501,1520,1541,1560,1581,1600,1621,1640,1661,1680,1700,1721,1740,1760,1780,1800,1821,1841,1860,1880,1900,1921,1941,1961,1981,2000,2020,2040,2060,2081,2100,2121,2141,2160,2180,2201,2220,2240,2260,2281,2300,2320,2341,2361,2381,2401,2420,2440,2461,2480,2500,2520,2540,2560,2580,2600,2620,2640,2660,2680,2700],"xSR":741.5,"ySR":469.95,"xT1":424.9,"yT1":0,"xT2":1058.1,"yT2":0,"toosoon":0,"cond_shown":"Congruent","ratio_trial":300,"L_num":20,"L_den":25,"R_num":8,"R_den":16,"correct_side":1,"subjID":"Sofiapenagos5","gender":"1","school":"4","age":"9"},{"start_time":1552308526192,"click_time":1552308527980,"finger_time":1552308527399,"fix_duration":650.3974109518581,"trial":32,"RT":1207,"MT":581,"sideResp":2,"stimulus":[],"xmouse":[799,797,797,797,797,797,797,797,797,797,797,797,797,797,797,797,797,797,797,797,797,797,797,797,797,797,797,797,797,797,797,797,797,797,797,797,797,797,797,797,797,797,797,797,797,797,797,797,797,797,797,797,797,797,797,797,797,800,804,815,845,859,872,878,886,894,903,909,916,930,940,949,959,968,979,982,989,994,999,1009,1014,1018,1020,1021,1022,1027,1033,1042,1053,1090],"ymouse":[525,526,526,526,526,526,526,526,526,526,526,526,526,526,526,526,526,526,526,526,526,526,526,526,526,526,526,526,526,526,526,526,526,526,526,526,526,526,526,526,526,526,526,526,526,526,526,526,526,526,526,526,526,526,526,526,526,520,511,492,451,433,420,410,402,389,377,367,355,330,315,299,283,268,247,242,236,232,228,216,209,204,199,197,195,187,176,161,141,72],"timestamp_mouse":[11,27,48,67,87,108,128,148,169,187,208,227,248,267,287,307,328,347,367,387,407,427,448,467,487,508,527,547,567,588,607,627,647,668,687,707,727,747,767,788,807,827,847,867,887,908,928,948,968,988,1007,1028,1048,1067,1087,1107,1127,1147,1168,1187,1207,1227,1248,1267,1288,1308,1327,1347,1368,1388,1407,1427,1448,1467,1488,1507,1527,1548,1567,1588,1607,1628,1648,1668,1687,1707,1727,1748,1768,1788],"xSR":741.5,"ySR":469.95,"xT1":424.9,"yT1":0,"xT2":1058.1,"yT2":0,"toosoon":0,"cond_shown":"Congruent","ratio_trial":200,"L_num":7,"L_den":15,"R_num":18,"R_den":27,"correct_side":2,"subjID":"Sofiapenagos5","gender":"1","school":"4","age":"9"},{"start_time":1552308529786,"click_time":1552308531180,"finger_time":1552308530600,"fix_duration":785.2364900422942,"trial":33,"RT":814,"MT":580,"sideResp":2,"stimulus":[],"xmouse":[777,777,777,778,778,781,781,781,781,781,781,781,781,781,781,781,781,781,781,781,781,781,782,783,783,783,783,783,783,785,786,787,790,791,798,807,811,813,816,822,851,869,881,892,899,923,937,951,968,986,994,1000,1003,1008,1015,1024,1030,1036,1044,1051,1066,1071,1075,1077,1079,1082,1085,1088,1091,1094],"ymouse":[511,511,511,511,510,510,510,510,510,510,510,510,510,510,510,510,510,510,510,510,510,509,509,508,508,508,508,508,508,507,507,506,504,504,499,495,493,491,489,486,460,445,430,414,401,371,355,335,314,278,262,248,237,228,216,200,192,182,171,158,135,127,123,120,117,114,109,104,100,94],"timestamp_mouse":[14,39,53,73,94,113,133,154,173,193,213,233,253,273,294,313,333,354,374,393,414,434,454,473,494,513,533,553,574,593,613,634,654,674,694,714,734,754,774,794,814,834,854,874,894,913,933,953,973,995,1014,1034,1053,1074,1093,1113,1133,1153,1173,1193,1213,1234,1253,1274,1293,1313,1334,1353,1373,1394],"xSR":741.5,"ySR":469.95,"xT1":424.9,"yT1":0,"xT2":1058.1,"yT2":0,"toosoon":0,"cond_shown":"Congruent","ratio_trial":200,"L_num":5,"L_den":10,"R_num":14,"R_den":20,"correct_side":2,"subjID":"Sofiapenagos5","gender":"1","school":"4","age":"9"},{"start_time":1552308533674,"click_time":1552308536000,"finger_time":1552308535139,"fix_duration":1113.2219431424478,"trial":34,"RT":1465,"MT":861,"sideResp":1,"stimulus":[],"xmouse":[811,812,812,812,812,812,812,812,812,812,812,812,812,812,812,812,812,812,812,812,812,812,812,812,812,812,812,812,812,812,812,812,812,812,812,812,812,812,812,812,812,812,812,812,812,812,812,812,812,812,812,812,812,812,812,812,812,812,812,812,812,812,812,812,812,812,812,812,812,812,812,812,802,775,740,712,696,695,695,695,696,697,697,697,692,686,678,657,638,629,619,610,606,603,599,596,589,587,585,585,585,585,585,585,585,585,585,585,585,585,585,585,585,583,579,564,523],"ymouse":[524,524,523,523,523,523,523,523,523,523,523,523,523,523,523,523,523,523,523,523,523,523,523,523,523,523,523,523,523,523,523,523,523,523,523,523,523,523,523,523,523,523,523,523,523,523,523,523,523,523,523,523,523,523,523,523,523,523,523,523,523,523,523,523,523,523,523,523,523,523,523,523,496,449,388,335,285,275,268,266,264,257,252,245,236,224,214,191,173,163,156,145,140,137,132,128,121,118,116,116,116,116,116,116,116,116,116,116,116,116,116,116,116,115,112,103,77],"timestamp_mouse":[5,25,45,65,85,105,126,145,165,186,205,226,246,265,286,306,325,346,365,385,406,425,445,466,486,507,526,546,566,585,606,626,646,665,685,706,726,745,765,785,806,826,846,865,885,905,925,946,965,986,1005,1025,1046,1065,1086,1105,1126,1146,1165,1186,1206,1225,1246,1265,1285,1306,1326,1345,1366,1386,1406,1426,1446,1465,1486,1505,1526,1545,1566,1585,1605,1626,1645,1665,1685,1705,1726,1746,1765,1785,1805,1825,1845,1865,1886,1906,1926,1945,1965,1985,2005,2025,2045,2065,2085,2105,2126,2146,2166,2186,2206,2225,2246,2265,2286,2305,2326],"xSR":741.5,"ySR":469.95,"xT1":424.9,"yT1":0,"xT2":1058.1,"yT2":0,"toosoon":0,"cond_shown":"Congruent","ratio_trial":200,"L_num":6,"L_den":15,"R_num":3,"R_den":15,"correct_side":1,"subjID":"Sofiapenagos5","gender":"1","school":"4","age":"9"},{"start_time":1552308538074,"click_time":1552308539519,"finger_time":1552308538879,"fix_duration":653.1327957306415,"trial":35,"RT":805,"MT":640,"sideResp":2,"stimulus":[],"xmouse":[757,757,757,757,757,757,757,758,758,758,758,758,758,758,758,758,758,758,758,758,758,758,758,758,758,758,758,760,760,760,761,762,764,766,772,774,778,786,806,828,850,893,912,935,963,991,1030,1050,1054,1057,1060,1061,1061,1061,1061,1060,1055,1054,1054,1054,1054,1055,1055,1057,1059,1063,1076,1079,1083,1088,1093,1100,1110],"ymouse":[498,498,498,498,498,498,498,498,498,498,