[{"start_time":1552308389123,"click_time":1552308390408,"finger_time":1552308389867,"fix_duration":1190.4741856773317,"trial":0,"RT":744,"MT":541,"sideResp":1,"stimulus":[],"xmouse":[799,799,799,799,799,799,799,799,799,799,799,799,799,799,799,799,799,799,799,799,799,799,799,799,799,799,799,799,799,799,799,799,799,799,799,809,833,859,874,879,879,879,879,879,879,879,879,879,879,879,879,879,879,879,879,879,879,873,855,752,705,661,612,559,443],"ymouse":[540,540,540,540,540,540,540,540,540,540,540,540,540,540,540,540,540,540,540,540,540,540,540,540,540,540,540,540,540,540,540,540,540,540,540,539,536,536,536,536,536,536,536,536,536,536,536,536,536,536,536,536,536,536,536,536,534,521,487,345,289,238,183,129,25],"timestamp_mouse":[9,40,44,64,85,104,126,144,165,186,206,226,244,265,284,305,325,344,364,385,406,426,444,465,486,506,525,545,564,586,604,625,645,665,685,705,724,744,765,784,805,825,844,865,884,905,926,944,965,984,1004,1025,1044,1066,1086,1105,1125,1144,1166,1184,1204,1226,1245,1265,1284],"xSR":741.5,"ySR":500.5,"xT1":424.9,"yT1":0,"xT2":1058.1,"yT2":0,"toosoon":0,"cond_shown":"Congruent","ratio_trial":300,"L_num":12,"L_den":24,"R_num":2,"R_den":10,"correct_side":1,"subjID":"sofiapulido2","gender":"1","age":"9","school":"4","test":{"fix_dur":[250,1500],"timestim":1000,"targets_dim":[100,100],"targets_relative_coord":[0.3,0.7],"size_stim":[880,420],"start_dim":[100,100],"size_start":[300,300],"size_fix":60,"samplingrate":20,"img_types":["Congruent","Incongruent"],"ratios":[100,200,300],"rep_conds":19,"nTrials":120,"trials_to_rest":500,"Trials_order":[118,51,64,52,13,94,27,66,9,28,70,4,84,115,113,57,68,89,55,47,107,117,6,1,17,43,54,79,111,24,69,21,78,32,98,85,76,100,42,38,3,23,22,88,91,12,81,77,75,33,95,46,29,20,8,72,80,83,114,45,36,58,53,44,25,16,50,60,15,86,48,67,40,104,62,103,31,49,63,19,2,105,96,34,74,109,99,90,93,73,35,41,14,7,39,59,112,0,92,119,97,82,56,30,26,65,110,37,87,11,106,5,102,18,116,101,71,108,10,61],"cond_shown":["Congruent","Incongruent","Congruent","Congruent","Incongruent","Congruent","Incongruent","Congruent","Incongruent","Congruent","Congruent","Congruent","Congruent","Incongruent","Incongruent","Incongruent","Congruent","Incongruent","Incongruent","Incongruent","Incongruent","Incongruent","Congruent","Incongruent","Incongruent","Incongruent","Congruent","Incongruent","Incongruent","Congruent","Incongruent","Incongruent","Congruent","Congruent","Congruent","Incongruent","Congruent","Congruent","Congruent","Congruent","Incongruent","Incongruent","Congruent","Congruent","Incongruent","Congruent","Incongruent","Incongruent","Incongruent","Incongruent","Incongruent","Congruent","Incongruent","Congruent","Congruent","Congruent","Congruent","Incongruent","Congruent","Incongruent","Congruent","Congruent","Incongruent","Congruent","Incongruent","Congruent","Congruent","Congruent","Incongruent","Congruent","Congruent","Incongruent","Congruent","Congruent","Congruent","Incongruent","Incongruent","Incongruent","Incongruent","Incongruent","Congruent","Incongruent","Congruent","Congruent","Congruent","Incongruent","Incongruent","Congruent","Incongruent","Incongruent","Incongruent","Incongruent","Congruent","Incongruent","Incongruent","Incongruent","Congruent","Congruent","Congruent","Incongruent","Incongruent","Congruent","Congruent","Congruent","Congruent","Incongruent","Congruent","Incongruent","Incongruent","Incongruent","Congruent","Incongruent","Congruent","Congruent","Congruent","Incongruent","Incongruent","Congruent","Congruent","Incongruent"],"ratio_trial":[300,200,300,300,100,300,200,100,200,300,300,300,100,100,300,200,200,300,100,300,300,200,100,100,300,100,100,100,200,100,200,200,100,200,200,100,300,300,100,200,200,300,300,300,100,100,200,300,200,200,300,300,300,200,200,100,200,300,100,200,100,300,300,200,100,300,200,100,200,200,100,100,300,200,200,100,100,100,200,100,200,200,100,300,200,100,200,100,200,100,300,300,200,100,200,300,300,100,200,300,100,300,200,100,200,300,200,100,200,300,300,300,100,100,200,300,300,100,300,100],"left_num":[12,3,24,20,3,5,7,3,14,4,1,3,11,2,4,7,13,2,3,8,8,7,7,12,2,10,6,9,4,8,14,11,1,9,20,10,1,1,11,3,11,8,1,1,9,12,1,3,6,9,1,20,4,1,3,15,6,4,6,11,11,4,4,3,6,18,13,2,3,3,7,17,1,3,3,4,6,3,7,11,8,3,1,2,7,10,1,11,7,2,4,4,1,9,6,1,2,12,13,7,13,18,6,4,13,13,1,2,4,4,20,7,2,8,3,13,3,7,11,9],"right_num":[2,11,2,14,11,7,4,4,6,13,11,11,6,8,2,12,14,6,4,14,14,14,9,9,6,8,15,6,1,2,6,3,3,13,9,8,11,6,4,14,3,9,6,3,20,13,2,4,3,8,3,5,2,21,11,13,7,2,5,3,6,1,2,14,13,9,14,6,1,14,9,10,19,9,7,8,3,7,4,9,3,1,18,10,2,9,2,6,8,8,8,6,21,14,3,2,10,13,14,8,6,9,7,6,14,12,21,8,1,2,14,8,6,2,11,12,4,15,1,13],"left_den":[24,4,30,25,5,25,15,20,30,20,5,12,22,4,20,10,26,4,6,10,10,10,14,24,4,25,12,18,30,16,30,20,2,30,25,25,5,5,22,6,20,10,5,5,10,30,3,6,20,15,2,25,20,2,10,25,12,20,20,20,22,10,20,10,10,20,26,5,10,10,14,30,3,12,10,8,12,9,15,22,15,10,2,20,21,25,3,22,10,4,5,5,2,15,20,2,20,30,26,10,26,20,12,8,26,26,2,4,30,20,25,10,5,16,10,26,6,14,22,15],"right_den":[10,20,4,28,22,14,6,16,9,26,22,20,15,20,4,24,20,30,10,28,28,28,15,15,30,16,25,10,3,5,9,4,5,26,15,16,22,12,10,20,4,18,12,6,25,26,15,20,6,10,15,10,4,30,22,26,10,4,25,4,15,10,4,28,26,15,20,12,2,28,15,15,30,20,14,20,5,30,6,15,9,2,30,25,15,18,15,15,16,20,16,12,30,28,6,10,25,26,20,20,10,15,10,10,20,15,30,20,3,4,28,20,12,5,22,15,20,25,5,26],"correct_side":[1,1,1,1,1,2,2,2,2,2,2,2,1,1,2,1,2,1,1,1,1,1,2,2,1,2,2,2,2,1,2,2,2,2,1,2,2,2,1,2,2,1,2,2,1,2,1,1,2,2,1,1,2,2,2,1,2,2,1,2,1,1,2,2,1,1,2,2,2,2,2,2,2,2,2,1,2,1,2,2,1,2,2,2,1,2,1,1,1,1,1,1,2,1,2,1,2,2,2,1,2,1,2,2,2,2,2,1,2,2,1,1,2,1,2,2,1,2,1,1],"img_shown":["img2/300/Congruent/L/C_Dist_300_LN_12_LD_24_RN_2_RD_10_0.png","img2/200/Incongruent/L/I_Dist_200_LN_3_LD_4_RN_11_RD_20_0.png","img2/300/Congruent/L/C_Dist_300_LN_24_LD_30_RN_2_RD_4_0.png","img2/300/Congruent/L/C_Dist_300_LN_20_LD_25_RN_14_RD_28_0.png","img2/100/Incongruent/L/I_Dist_100_LN_3_LD_5_RN_11_RD_22_0.png","img2/300/Congruent/R/C_Dist_300_LN_5_LD_25_RN_7_RD_14_1.png","img2/200/Incongruent/R/I_Dist_200_LN_7_LD_15_RN_4_RD_6_1.png","img2/100/Congruent/R/C_Dist_100_LN_3_LD_20_RN_4_RD_16_1.png","img2/200/Incongruent/R/I_Dist_200_LN_14_LD_30_RN_6_RD_9_1.png","img2/300/Congruent/R/C_Dist_300_LN_4_LD_20_RN_13_RD_26_1.png","img2/300/Congruent/R/C_Dist_300_LN_1_LD_5_RN_11_RD_22_1.png","img2/300/Congruent/R/C_Dist_300_LN_3_LD_12_RN_11_RD_20_1.png","img2/100/Congruent/L/C_Dist_100_LN_11_LD_22_RN_6_RD_15_0.png","img2/100/Incongruent/L/I_Dist_100_LN_2_LD_4_RN_8_RD_20_0.png","img2/300/Incongruent/R/I_Dist_300_LN_4_LD_20_RN_2_RD_4_1.png","img2/200/Incongruent/L/I_Dist_200_LN_7_LD_10_RN_12_RD_24_0.png","img2/200/Congruent/R/C_Dist_200_LN_13_LD_26_RN_14_RD_20_1.png","img2/300/Incongruent/L/I_Dist_300_LN_2_LD_4_RN_6_RD_30_0.png","img2/100/Incongruent/L/I_Dist_100_LN_3_LD_6_RN_4_RD_10_0.png","img2/300/Incongruent/L/I_Dist_300_LN_8_LD_10_RN_14_RD_28_0.png","img2/300/Incongruent/L/I_Dist_300_LN_8_LD_10_RN_14_RD_28_0.png","img2/200/Incongruent/L/I_Dist_200_LN_7_LD_10_RN_14_RD_28_0.png","img2/100/Congruent/R/C_Dist_100_LN_7_LD_14_RN_9_RD_15_1.png","img2/100/Incongruent/R/I_Dist_100_LN_12_LD_24_RN_9_RD_15_1.png","img2/300/Incongruent/L/I_Dist_300_LN_2_LD_4_RN_6_RD_30_0.png","img2/100/Incongruent/R/I_Dist_100_LN_10_LD_25_RN_8_RD_16_1.png","img2/100/Congruent/R/C_Dist_100_LN_6_LD_12_RN_15_RD_25_1.png","img2/100/Incongruent/R/I_Dist_100_LN_9_LD_18_RN_6_RD_10_1.png","img2/200/Incongruent/R/I_Dist_200_LN_4_LD_30_RN_1_RD_3_1.png","img2/100/Congruent/L/C_Dist_100_LN_8_LD_16_RN_2_RD_5_0.png","img2/200/Incongruent/R/I_Dist_200_LN_14_LD_30_RN_6_RD_9_1.png","img2/200/Incongruent/R/I_Dist_200_LN_11_LD_20_RN_3_RD_4_1.png","img2/100/Congruent/R/C_Dist_100_LN_1_LD_2_RN_3_RD_5_1.png","img2/200/Congruent/R/C_Dist_200_LN_9_LD_30_RN_13_RD_26_1.png","img2/200/Congruent/L/C_Dist_200_LN_20_LD_25_RN_9_RD_15_0.png","img2/100/Incongruent/R/I_Dist_100_LN_10_LD_25_RN_8_RD_16_1.png","img2/300/Congruent/R/C_Dist_300_LN_1_LD_5_RN_11_RD_22_1.png","img2/300/Congruent/R/C_Dist_300_LN_1_LD_5_RN_6_RD_12_1.png","img2/100/Congruent/L/C_Dist_100_LN_11_LD_22_RN_4_RD_10_0.png","img2/200/Congruent/R/C_Dist_200_LN_3_LD_6_RN_14_RD_20_1.png","img2/200/Incongruent/R/I_Dist_200_LN_11_LD_20_RN_3_RD_4_1.png","img2/300/Incongruent/L/I_Dist_300_LN_8_LD_10_RN_9_RD_18_0.png","img2/300/Congruent/R/C_Dist_300_LN_1_LD_5_RN_6_RD_12_1.png","img2/300/Congruent/R/C_Dist_300_LN_1_LD_5_RN_3_RD_6_1.png","img2/100/Incongruent/L/I_Dist_100_LN_9_LD_10_RN_20_RD_25_0.png","img2/100/Congruent/R/C_Dist_100_LN_12_LD_30_RN_13_RD_26_1.png","img2/200/Incongruent/L/I_Dist_200_LN_1_LD_3_RN_2_RD_15_0.png","img2/300/Incongruent/L/I_Dist_300_LN_3_LD_6_RN_4_RD_20_0.png","img2/200/Incongruent/R/I_Dist_200_LN_6_LD_20_RN_3_RD_6_1.png","img2/200/Incongruent/R/I_Dist_200_LN_9_LD_15_RN_8_RD_10_1.png","img2/300/Incongruent/L/I_Dist_300_LN_1_LD_2_RN_3_RD_15_0.png","img2/300/Congruent/L/C_Dist_300_LN_20_LD_25_RN_5_RD_10_0.png","img2/300/Incongruent/R/I_Dist_300_LN_4_LD_20_RN_2_RD_4_1.png","img2/200/Congruent/R/C_Dist_200_LN_1_LD_2_RN_21_RD_30_1.png","img2/200/Congruent/R/C_Dist_200_LN_3_LD_10_RN_11_RD_22_1.png","img2/100/Congruent/L/C_Dist_100_LN_15_LD_25_RN_13_RD_26_0.png","img2/200/Congruent/R/C_Dist_200_LN_6_LD_12_RN_7_RD_10_1.png","img2/300/Incongruent/R/I_Dist_300_LN_4_LD_20_RN_2_RD_4_1.png","img2/100/Congruent/L/C_Dist_100_LN_6_LD_20_RN_5_RD_25_0.png","img2/200/Incongruent/R/I_Dist_200_LN_11_LD_20_RN_3_RD_4_1.png","img2/100/Congruent/L/C_Dist_100_LN_11_LD_22_RN_6_RD_15_0.png","img2/300/Congruent/L/C_Dist_300_LN_4_LD_10_RN_1_RD_10_0.png","img2/300/Incongruent/R/I_Dist_300_LN_4_LD_20_RN_2_RD_4_1.png","img2/200/Congruent/R/C_Dist_200_LN_3_LD_10_RN_14_RD_28_1.png","img2/100/Incongruent/L/I_Dist_100_LN_6_LD_10_RN_13_RD_26_0.png","img2/300/Congruent/L/C_Dist_300_LN_18_LD_20_RN_9_RD_15_0.png","img2/200/Congruent/R/C_Dist_200_LN_13_LD_26_RN_14_RD_20_1.png","img2/100/Congruent/R/C_Dist_100_LN_2_LD_5_RN_6_RD_12_1.png","img2/200/Incongruent/R/I_Dist_200_LN_3_LD_10_RN_1_RD_2_1.png","img2/200/Congruent/R/C_Dist_200_LN_3_LD_10_RN_14_RD_28_1.png","img2/100/Congruent/R/C_Dist_100_LN_7_LD_14_RN_9_RD_15_1.png","img2/100/Incongruent/R/I_Dist_100_LN_17_LD_30_RN_10_RD_15_1.png","img2/300/Congruent/R/C_Dist_300_LN_1_LD_3_RN_19_RD_30_1.png","img2/200/Congruent/R/C_Dist_200_LN_3_LD_12_RN_9_RD_20_1.png","img2/200/Congruent/R/C_Dist_200_LN_3_LD_10_RN_7_RD_14_1.png","img2/100/Incongruent/L/I_Dist_100_LN_4_LD_8_RN_8_RD_20_0.png","img2/100/Incongruent/R/I_Dist_100_LN_6_LD_12_RN_3_RD_5_1.png","img2/100/Incongruent/L/I_Dist_100_LN_3_LD_9_RN_7_RD_30_0.png","img2/200/Incongruent/R/I_Dist_200_LN_7_LD_15_RN_4_RD_6_1.png","img2/100/Incongruent/R/I_Dist_100_LN_11_LD_22_RN_9_RD_15_1.png","img2/200/Congruent/L/C_Dist_200_LN_8_LD_15_RN_3_RD_9_0.png","img2/200/Incongruent/R/I_Dist_200_LN_3_LD_10_RN_1_RD_2_1.png","img2/100/Congruent/R/C_Dist_100_LN_1_LD_2_RN_18_RD_30_1.png","img2/300/Congruent/R/C_Dist_300_LN_2_LD_20_RN_10_RD_25_1.png","img2/200/Congruent/L/C_Dist_200_LN_7_LD_21_RN_2_RD_15_0.png","img2/100/Incongruent/R/I_Dist_100_LN_10_LD_25_RN_9_RD_18_1.png","img2/200/Incongruent/L/I_Dist_200_LN_1_LD_3_RN_2_RD_15_0.png","img2/100/Congruent/L/C_Dist_100_LN_11_LD_22_RN_6_RD_15_0.png","img2/200/Incongruent/L/I_Dist_200_LN_7_LD_10_RN_8_RD_16_0.png","img2/100/Incongruent/L/I_Dist_100_LN_2_LD_4_RN_8_RD_20_0.png","img2/300/Incongruent/L/I_Dist_300_LN_4_LD_5_RN_8_RD_16_0.png","img2/300/Incongruent/L/I_Dist_300_LN_4_LD_5_RN_6_RD_12_0.png","img2/200/Congruent/R/C_Dist_200_LN_1_LD_2_RN_21_RD_30_1.png","img2/100/Incongruent/L/I_Dist_100_LN_9_LD_15_RN_14_RD_28_0.png","img2/200/Incongruent/R/I_Dist_200_LN_6_LD_20_RN_3_RD_6_1.png","img2/300/Incongruent/L/I_Dist_300_LN_1_LD_2_RN_2_RD_10_0.png","img2/300/Congruent/R/C_Dist_300_LN_2_LD_20_RN_10_RD_25_1.png","img2/100/Congruent/R/C_Dist_100_LN_12_LD_30_RN_13_RD_26_1.png","img2/200/Congruent/R/C_Dist_200_LN_13_LD_26_RN_14_RD_20_1.png","img2/300/Incongruent/L/I_Dist_300_LN_7_LD_10_RN_8_RD_20_0.png","img2/100/Incongruent/R/I_Dist_100_LN_13_LD_26_RN_6_RD_10_1.png","img2/300/Congruent/L/C_Dist_300_LN_18_LD_20_RN_9_RD_15_0.png","img2/200/Congruent/R/C_Dist_200_LN_6_LD_12_RN_7_RD_10_1.png","img2/100/Congruent/R/C_Dist_100_LN_4_LD_8_RN_6_RD_10_1.png","img2/200/Congruent/R/C_Dist_200_LN_13_LD_26_RN_14_RD_20_1.png","img2/300/Incongruent/R/I_Dist_300_LN_13_LD_26_RN_12_RD_15_1.png","img2/200/Congruent/R/C_Dist_200_LN_1_LD_2_RN_21_RD_30_1.png","img2/100/Incongruent/L/I_Dist_100_LN_2_LD_4_RN_8_RD_20_0.png","img2/200/Incongruent/R/I_Dist_200_LN_4_LD_30_RN_1_RD_3_1.png","img2/300/Incongruent/R/I_Dist_300_LN_4_LD_20_RN_2_RD_4_1.png","img2/300/Congruent/L/C_Dist_300_LN_20_LD_25_RN_14_RD_28_0.png","img2/300/Incongruent/L/I_Dist_300_LN_7_LD_10_RN_8_RD_20_0.png","img2/100/Congruent/R/C_Dist_100_LN_2_LD_5_RN_6_RD_12_1.png","img2/100/Congruent/L/C_Dist_100_LN_8_LD_16_RN_2_RD_5_0.png","img2/200/Congruent/R/C_Dist_200_LN_3_LD_10_RN_11_RD_22_1.png","img2/300/Incongruent/R/I_Dist_300_LN_13_LD_26_RN_12_RD_15_1.png","img2/300/Incongruent/L/I_Dist_300_LN_3_LD_6_RN_4_RD_20_0.png","img2/100/Congruent/R/C_Dist_100_LN_7_LD_14_RN_15_RD_25_1.png","img2/300/Congruent/L/C_Dist_300_LN_11_LD_22_RN_1_RD_5_0.png","img2/100/Incongruent/L/I_Dist_100_LN_9_LD_15_RN_13_RD_26_0.png"],"dist100_C":[["C_Dist_100_LN_10_LD_25_RN_3_RD_10_0.png","C_Dist_100_LN_11_LD_22_RN_4_RD_10_0.png","C_Dist_100_LN_11_LD_22_RN_6_RD_15_0.png","C_Dist_100_LN_15_LD_25_RN_13_RD_26_0.png","C_Dist_100_LN_3_LD_6_RN_2_RD_5_0.png","C_Dist_100_LN_6_LD_20_RN_5_RD_25_0.png","C_Dist_100_LN_8_LD_16_RN_2_RD_5_0.png","C_Dist_100_LN_9_LD_15_RN_8_RD_16_0.png"],["C_Dist_100_LN_1_LD_2_RN_18_RD_30_1.png","C_Dist_100_LN_1_LD_2_RN_3_RD_5_1.png","C_Dist_100_LN_12_LD_30_RN_13_RD_26_1.png","C_Dist_100_LN_2_LD_5_RN_11_RD_22_1.png","C_Dist_100_LN_2_LD_5_RN_6_RD_12_1.png","C_Dist_100_LN_3_LD_20_RN_4_RD_16_1.png","C_Dist_100_LN_4_LD_10_RN_15_RD_30_1.png","C_Dist_100_LN_4_LD_8_RN_6_RD_10_1.png","C_Dist_100_LN_6_LD_12_RN_15_RD_25_1.png","C_Dist_100_LN_7_LD_14_RN_15_RD_25_1.png","C_Dist_100_LN_7_LD_14_RN_9_RD_15_1.png"]],"dist100_I":[["I_Dist_100_LN_1_LD_2_RN_8_RD_20_0.png","I_Dist_100_LN_2_LD_4_RN_6_RD_15_0.png","I_Dist_100_LN_2_LD_4_RN_8_RD_20_0.png","I_Dist_100_LN_3_LD_5_RN_11_RD_22_0.png","I_Dist_100_LN_3_LD_5_RN_8_RD_16_0.png","I_Dist_100_LN_3_LD_6_RN_4_RD_10_0.png","I_Dist_100_LN_3_LD_9_RN_7_RD_30_0.png","I_Dist_100_LN_4_LD_8_RN_8_RD_20_0.png","I_Dist_100_LN_6_LD_10_RN_11_RD_22_0.png","I_Dist_100_LN_6_LD_10_RN_13_RD_26_0.png","I_Dist_100_LN_6_LD_10_RN_7_RD_14_0.png","I_Dist_100_LN_9_LD_10_RN_20_RD_25_0.png","I_Dist_100_LN_9_LD_15_RN_13_RD_26_0.png","I_Dist_100_LN_9_LD_15_RN_14_RD_28_0.png"],["I_Dist_100_LN_10_LD_25_RN_8_RD_16_1.png","I_Dist_100_LN_10_LD_25_RN_9_RD_18_1.png","I_Dist_100_LN_11_LD_22_RN_9_RD_15_1.png","I_Dist_100_LN_12_LD_24_RN_9_RD_15_1.png","I_Dist_100_LN_12_LD_30_RN_2_RD_4_1.png","I_Dist_100_LN_13_LD_26_RN_12_RD_20_1.png","I_Dist_100_LN_13_LD_26_RN_6_RD_10_1.png","I_Dist_100_LN_17_LD_30_RN_10_RD_15_1.png","I_Dist_100_LN_6_LD_12_RN_3_RD_5_1.png","I_Dist_100_LN_8_LD_16_RN_6_RD_10_1.png","I_Dist_100_LN_8_LD_20_RN_1_RD_2_1.png","I_Dist_100_LN_9_LD_18_RN_6_RD_10_1.png"]],"dist100_S":[["E_Dist_100_LN_2_LD_12_RN_2_RD_30_0.png","E_Dist_100_LN_6_LD_10_RN_6_RD_12_0.png"],["E_Dist_100_LN_6_LD_12_RN_6_RD_10_1.png"]],"dist200_C":[["C_Dist_200_LN_11_LD_22_RN_3_RD_10_0.png","C_Dist_200_LN_12_LD_15_RN_6_RD_10_0.png","C_Dist_200_LN_12_LD_20_RN_6_RD_15_0.png","C_Dist_200_LN_14_LD_28_RN_6_RD_20_0.png","C_Dist_200_LN_15_LD_25_RN_4_RD_10_0.png","C_Dist_200_LN_16_LD_20_RN_12_RD_20_0.png","C_Dist_200_LN_16_LD_30_RN_9_RD_27_0.png","C_Dist_200_LN_20_LD_25_RN_9_RD_15_0.png","C_Dist_200_LN_21_LD_30_RN_2_RD_4_0.png","C_Dist_200_LN_4_LD_10_RN_3_RD_15_0.png","C_Dist_200_LN_4_LD_8_RN_3_RD_10_0.png","C_Dist_200_LN_6_LD_15_RN_3_RD_15_0.png","C_Dist_200_LN_7_LD_21_RN_2_RD_15_0.png","C_Dist_200_LN_8_LD_15_RN_2_RD_6_0.png","C_Dist_200_LN_8_LD_15_RN_3_RD_9_0.png","C_Dist_200_LN_8_LD_15_RN_7_RD_21_0.png","C_Dist_200_LN_9_LD_20_RN_4_RD_16_0.png"],["C_Dist_200_LN_1_LD_2_RN_21_RD_30_1.png","C_Dist_200_LN_13_LD_26_RN_14_RD_20_1.png","C_Dist_200_LN_3_LD_10_RN_11_RD_22_1.png","C_Dist_200_LN_3_LD_10_RN_14_RD_28_1.png","C_Dist_200_LN_3_LD_10_RN_7_RD_14_1.png","C_Dist_200_LN_3_LD_12_RN_9_RD_20_1.png","C_Dist_200_LN_3_LD_6_RN_14_RD_20_1.png","C_Dist_200_LN_5_LD_10_RN_14_RD_20_1.png","C_Dist_200_LN_6_LD_12_RN_7_RD_10_1.png","C_Dist_200_LN_6_LD_20_RN_11_RD_22_1.png","C_Dist_200_LN_7_LD_15_RN_18_RD_27_1.png","C_Dist_200_LN_9_LD_30_RN_13_RD_26_1.png"]],"dist200_I":[["I_Dist_200_LN_1_LD_2_RN_3_RD_10_0.png","I_Dist_200_LN_1_LD_3_RN_2_RD_15_0.png","I_Dist_200_LN_3_LD_4_RN_11_RD_20_0.png","I_Dist_200_LN_4_LD_5_RN_6_RD_10_0.png","I_Dist_200_LN_4_LD_6_RN_14_RD_30_0.png","I_Dist_200_LN_7_LD_10_RN_12_RD_24_0.png","I_Dist_200_LN_7_LD_10_RN_14_RD_28_0.png","I_Dist_200_LN_7_LD_10_RN_8_RD_16_0.png"],["I_Dist_200_LN_11_LD_20_RN_3_RD_4_1.png","I_Dist_200_LN_14_LD_30_RN_12_RD_18_1.png","I_Dist_200_LN_14_LD_30_RN_6_RD_9_1.png","I_Dist_200_LN_3_LD_10_RN_1_RD_2_1.png","I_Dist_200_LN_4_LD_30_RN_1_RD_3_1.png","I_Dist_200_LN_6_LD_20_RN_3_RD_6_1.png","I_Dist_200_LN_7_LD_15_RN_4_RD_6_1.png","I_Dist_200_LN_7_LD_15_RN_6_RD_9_1.png","I_Dist_200_LN_9_LD_15_RN_8_RD_10_1.png"]],"dist200_S":[["E_Dist_200_LN_3_LD_6_RN_3_RD_10_0.png"],["E_Dist_200_LN_3_LD_10_RN_3_RD_6_1.png"]],"dist300_C":[["C_Dist_300_LN_11_LD_22_RN_1_RD_5_0.png","C_Dist_300_LN_11_LD_22_RN_2_RD_10_0.png","C_Dist_300_LN_11_LD_22_RN_4_RD_20_0.png","C_Dist_300_LN_12_LD_24_RN_2_RD_10_0.png","C_Dist_300_LN_18_LD_20_RN_9_RD_15_0.png","C_Dist_300_LN_20_LD_25_RN_13_RD_26_0.png","C_Dist_300_LN_20_LD_25_RN_14_RD_28_0.png","C_Dist_300_LN_20_LD_25_RN_5_RD_10_0.png","C_Dist_300_LN_20_LD_25_RN_8_RD_16_0.png","C_Dist_300_LN_20_LD_25_RN_9_RD_18_0.png","C_Dist_300_LN_24_LD_30_RN_2_RD_4_0.png","C_Dist_300_LN_24_LD_30_RN_8_RD_16_0.png","C_Dist_300_LN_3_LD_6_RN_2_RD_10_0.png","C_Dist_300_LN_4_LD_10_RN_1_RD_10_0.png","C_Dist_300_LN_4_LD_5_RN_2_RD_4_0.png","C_Dist_300_LN_8_LD_16_RN_1_RD_5_0.png","C_Dist_300_LN_9_LD_10_RN_3_RD_5_0.png"],["C_Dist_300_LN_1_LD_20_RN_7_RD_20_1.png","C_Dist_300_LN_1_LD_3_RN_19_RD_30_1.png","C_Dist_300_LN_1_LD_30_RN_8_RD_24_1.png","C_Dist_300_LN_1_LD_5_RN_11_RD_22_1.png","C_Dist_300_LN_1_LD_5_RN_3_RD_6_1.png","C_Dist_300_LN_1_LD_5_RN_6_RD_12_1.png","C_Dist_300_LN_2_LD_10_RN_12_RD_24_1.png","C_Dist_300_LN_2_LD_20_RN_10_RD_25_1.png","C_Dist_300_LN_3_LD_12_RN_11_RD_20_1.png","C_Dist_300_LN_3_LD_6_RN_4_RD_5_1.png","C_Dist_300_LN_4_LD_20_RN_13_RD_26_1.png","C_Dist_300_LN_5_LD_25_RN_6_RD_12_1.png","C_Dist_300_LN_5_LD_25_RN_7_RD_14_1.png","C_Dist_300_LN_7_LD_14_RN_20_RD_25_1.png","C_Dist_300_LN_8_LD_15_RN_10_RD_12_1.png"]],"dist300_I":[["I_Dist_300_LN_1_LD_2_RN_2_RD_10_0.png","I_Dist_300_LN_1_LD_2_RN_3_RD_15_0.png","I_Dist_300_LN_2_LD_4_RN_6_RD_30_0.png","I_Dist_300_LN_3_LD_6_RN_4_RD_20_0.png","I_Dist_300_LN_4_LD_5_RN_6_RD_12_0.png","I_Dist_300_LN_4_LD_5_RN_8_RD_16_0.png","I_Dist_300_LN_7_LD_10_RN_8_RD_20_0.png","I_Dist_300_LN_8_LD_10_RN_14_RD_28_0.png","I_Dist_300_LN_8_LD_10_RN_9_RD_18_0.png"],["I_Dist_300_LN_13_LD_26_RN_12_RD_15_1.png","I_Dist_300_LN_4_LD_20_RN_2_RD_4_1.png"]],"dist300_S":[["E_Dist_300_LN_9_LD_12_RN_9_RD_20_0.png"],["E_Dist_300_LN_18_LD_30_RN_18_RD_20_1.png","E_Dist_300_LN_3_LD_10_RN_3_RD_5_1.png","E_Dist_300_LN_9_LD_20_RN_9_RD_12_1.png"]],"dist500_C":[["C_Dist_500_LN_10_LD_13_RN_7_RD_26_0.png","C_Dist_500_LN_10_LD_15_RN_4_RD_24_0.png","C_Dist_500_LN_12_LD_16_RN_3_RD_12_0.png","C_Dist_500_LN_12_LD_18_RN_4_RD_24_0.png","C_Dist_500_LN_15_LD_18_RN_5_RD_15_0.png","C_Dist_500_LN_15_LD_20_RN_1_RD_4_0.png","C_Dist_500_LN_18_LD_27_RN_1_RD_6_0.png","C_Dist_500_LN_20_LD_24_RN_1_RD_3_0.png","C_Dist_500_LN_20_LD_24_RN_3_RD_9_0.png","C_Dist_500_LN_20_LD_24_RN_7_RD_21_0.png","C_Dist_500_LN_20_LD_28_RN_3_RD_14_0.png","C_Dist_500_LN_21_LD_28_RN_6_RD_24_0.png","C_Dist_500_LN_22_LD_28_RN_2_RD_7_0.png","C_Dist_500_LN_25_LD_30_RN_9_RD_27_0.png","C_Dist_500_LN_4_LD_6_RN_1_RD_6_0.png","C_Dist_500_LN_5_LD_6_RN_2_RD_6_0.png","C_Dist_500_LN_6_LD_9_RN_1_RD_6_0.png","C_Dist_500_LN_7_LD_10_RN_1_RD_5_0.png","C_Dist_500_LN_8_LD_12_RN_1_RD_6_0.png","C_Dist_500_LN_8_LD_12_RN_4_RD_24_0.png"],["C_Dist_500_LN_1_LD_4_RN_12_RD_16_1.png","C_Dist_500_LN_1_LD_4_RN_9_RD_12_1.png","C_Dist_500_LN_1_LD_9_RN_11_RD_18_1.png","C_Dist_500_LN_10_LD_24_RN_22_RD_24_1.png","C_Dist_500_LN_2_LD_12_RN_10_RD_15_1.png","C_Dist_500_LN_2_LD_12_RN_12_RD_18_1.png","C_Dist_500_LN_2_LD_12_RN_4_RD_6_1.png","C_Dist_500_LN_2_LD_24_RN_7_RD_12_1.png","C_Dist_500_LN_2_LD_5_RN_18_RD_20_1.png","C_Dist_500_LN_2_LD_5_RN_9_RD_10_1.png","C_Dist_500_LN_2_LD_8_RN_12_RD_16_1.png","C_Dist_500_LN_2_LD_8_RN_21_RD_28_1.png","C_Dist_500_LN_3_LD_10_RN_4_RD_5_1.png","C_Dist_500_LN_3_LD_12_RN_15_RD_20_1.png","C_Dist_500_LN_3_LD_30_RN_6_RD_10_1.png","C_Dist_500_LN_3_LD_8_RN_14_RD_16_1.png","C_Dist_500_LN_4_LD_16_RN_15_RD_20_1.png","C_Dist_500_LN_4_LD_24_RN_12_RD_18_1.png","C_Dist_500_LN_5_LD_14_RN_6_RD_7_1.png","C_Dist_500_LN_7_LD_21_RN_20_RD_24_1.png","C_Dist_500_LN_7_LD_28_RN_12_RD_16_1.png","C_Dist_500_LN_7_LD_28_RN_9_RD_12_1.png","C_Dist_500_LN_9_LD_27_RN_20_RD_24_1.png"]],"dist500_I":[["I_Dist_500_LN_2_LD_3_RN_4_RD_24_0.png","I_Dist_500_LN_5_LD_6_RN_6_RD_18_0.png","I_Dist_500_LN_7_LD_8_RN_9_RD_24_0.png"],["I_Dist_500_LN_7_LD_21_RN_5_RD_6_1.png"]],"dist500_S":[["E_Dist_500_LN_6_LD_8_RN_6_RD_24_0.png"],["E_Dist_500_LN_2_LD_12_RN_2_RD_3_1.png","E_Dist_500_LN_6_LD_24_RN_6_RD_8_1.png"]]}},{"start_time":1552308393059,"click_time":1552308394249,"finger_time":1552308393789,"fix_duration":729.9186582468454,"trial":1,"RT":730,"MT":460,"sideResp":2,"stimulus":[],"xmouse":[792,792,792,792,792,792,792,792,792,792,792,792,792,792,792,792,792,792,792,792,792,792,792,792,792,792,792,792,792,792,792,792,792,792,794,802,866,939,959,975,984,989,1000,1004,1007,1007,1007,1007,1007,1007,1007,1007,1007,1007,1008,1014,1025,1051,1065,1079],"ymouse":[524,524,524,524,524,524,524,524,524,524,524,524,524,524,524,524,524,524,524,524,524,524,524,524,524,524,524,524,524,524,524,524,524,524,524,519,478,416,381,343,306,267,190,160,138,122,111,108,108,108,108,108,108,108,108,108,108,104,101,97],"timestamp_mouse":[9,36,49,69,89,109,128,149,169,188,210,229,248,270,290,309,329,348,368,388,409,429,449,470,489,509,528,549,569,589,609,628,648,670,688,710,730,749,768,789,809,829,850,868,888,908,929,949,968,988,1008,1028,1049,1068,1088,1109,1128,1149,1168,1189],"xSR":741.5,"ySR":469.95,"xT1":424.9,"yT1":0,"xT2":1058.1,"yT2":0,"toosoon":0,"cond_shown":"Incongruent","ratio_trial":200,"L_num":3,"L_den":4,"R_num":11,"R_den":20,"correct_side":1,"subjID":"sofiapulido2","gender":"1","school":"4","age":"9"},{"start_time":1552308396282,"click_time":1552308397449,"finger_time":1552308397028,"fix_duration":852.6383309350098,"trial":2,"RT":746,"MT":421,"sideResp":1,"stimulus":[],"xmouse":[812,812,812,812,812,812,812,812,812,812,812,812,812,812,812,812,812,812,812,812,812,812,812,812,812,812,812,812,812,812,812,811,811,811,811,805,800,764,738,713,686,657,623,605,597,590,579,562,557,553,550,549,549,549,548,546,542,526,512],"ymouse":[530,530,530,530,530,530,530,530,530,530,530,530,530,530,530,530,530,530,530,530,530,530,530,530,530,530,530,530,530,531,532,533,533,533,533,529,522,456,395,338,281,233,172,141,127,114,99,77,70,66,63,62,62,62,61,61,61,61,59],"timestamp_mouse":[11,25,45,66,86,107,125,146,165,185,205,227,246,267,285,305,326,347,366,386,406,426,447,466,485,506,526,547,565,586,606,626,646,666,687,705,725,746,766,786,807,826,845,865,886,905,926,945,965,986,1006,1026,1047,1066,1086,1105,1126,1146,1167],"xSR":741.5,"ySR":469.95,"xT1":424.9,"yT1":0,"xT2":1058.1,"yT2":0,"toosoon":0,"cond_shown":"Congruent","ratio_trial":300,"L_num":24,"L_den":30,"R_num":2,"R_den":4,"correct_side":1,"subjID":"sofiapulido2","gender":"1","school":"4","age":"9"},{"start_time":1552308399676,"click_time":1552308402028,"finger_time":1552308401389,"fix_duration":1026.4045462685401,"trial":3,"RT":1713,"MT":639,"sideResp":1,"stimulus":[],"xmouse":[767,767,767,767,767,767,767,766,766,766,767,769,771,771,771,771,771,771,771,771,771,771,771,771,771,771,771,771,771,771,771,771,771,771,771,771,771,771,771,771,771,771,771,771,771,771,771,771,771,771,771,771,771,771,771,771,771,771,771,771,771,771,771,771,771,771,771,771,771,771,771,771,771,771,771,771,771,771,771,771,771,771,767,759,744,723,691,611,573,531,486,425,375,362,355,354,353,355,357,359,361,364,367,368,368,368,368,391,396,401,405,406,409,411,414,418,423,429],"ymouse":[509,509,509,509,509,509,509,510,512,513,516,520,522,522,522,522,522,522,522,522,522,522,522,522,522,522,522,522,522,522,522,522,522,522,522,522,522,522,522,522,522,522,522,522,522,522,522,522,523,523,523,523,523,523,523,523,523,523,523,523,523,523,523,523,523,523,523,523,523,523,523,523,523,523,523,523,523,523,523,523,523,523,522,516,506,490,467,392,345,287,222,144,82,63,50,45,39,24,17,12,8,3,0,0,0,0,0,2,7,12,17,19,22,24,26,28,31,33],"timestamp_mouse":[12,36,52,73,92,112,132,152,173,192,211,231,251,273,291,312,333,352,372,391,413,433,452,472,492,511,531,552,572,593,612,632,653,673,692,712,732,752,772,793,813,831,852,871,893,913,933,951,971,991,1011,1031,1053,1071,1092,1113,1133,1152,1171,1191,1213,1231,1252,1272,1291,1312,1331,1351,1372,1392,1411,1432,1452,1471,1491,1513,1532,1552,1573,1592,1613,1632,1651,1671,1692,1713,1732,1753,1771,1791,1813,1832,1852,1871,1891,1912,1931,1952,1971,1991,2011,2031,2052,2071,2091,2111,2132,2152,2171,2191,2211,2231,2252,2271,2292,2311,2332,2352],"xSR":741.5,"ySR":469.95,"xT1":424.9,"yT1":0,"xT2":1058.1,"yT2":0,"toosoon":0,"cond_shown":"Congruent","ratio_trial":300,"L_num":20,"L_den":25,"R_num":14,"R_den":28,"correct_side":1,"subjID":"sofiapulido2","gender":"1","school":"4","age":"9"},{"start_time":1552308403719,"click_time":1552308405032,"finger_time":1552308404788,"fix_duration":250,"trial":4,"RT":1069,"MT":244,"sideResp":2,"stimulus":[],"xmouse":[780,780,780,780,780,780,780,780,780,780,780,780,780,780,780,780,780,780,780,780,780,780,780,780,780,780,780,780,780,780,780,780,780,780,780,780,780,780,780,780,780,780,780,780,780,780,780,780,780,780,780,783,790,801,815,831,868,920,964,1003,1024,1042,1047,1053,1061,1084],"ymouse":[496,496,496,496,496,496,496,496,496,496,496,496,496,496,496,496,496,496,496,496,496,496,496,496,496,496,496,496,496,496,496,496,496,496,496,496,496,496,496,496,496,496,496,496,496,496,496,496,496,496,496,488,475,459,441,421,370,299,243,197,167,139,130,120,106,54],"timestamp_mouse":[9,40,48,68,90,108,128,149,170,189,209,228,250,268,289,310,328,349,368,390,408,429,448,469,488,509,530,549,569,590,609,629,649,668,688,710,730,748,768,788,808,829,850,868,888,909,929,949,968,989,1008,1029,1048,1069,1090,1109,1128,1148,1169,1188,1209,1228,1249,1269,1288,1313],"xSR":741.5,"ySR":469.95,"xT1":424.9,"yT1":0,"xT2":1058.1,"yT2":0,"toosoon":0,"cond_shown":"Incongruent","ratio_trial":100,"L_num":3,"L_den":5,"R_num":11,"R_den":22,"correct_side":1,"subjID":"sofiapulido2","gender":"1","school":"4","age":"9"},{"start_time":1552308408134,"click_time":1552308410948,"finger_time":1552308410507,"fix_duration":544.5609452910928,"trial":5,"RT":2373,"MT":441,"sideResp":1,"stimulus":[],"xmouse":[780,780,780,780,780,780,780,780,780,780,780,780,780,780,780,780,780,780,780,780,780,780,780,780,780,780,780,780,780,780,780,780,780,780,780,780,780,780,780,780,780,780,780,780,780,780,780,780,780,780,780,780,780,780,780,780,780,780,780,780,780,780,780,780,780,780,780,780,780,780,780,780,780,780,780,780,780,780,780,780,780,780,780,780,780,780,780,780,780,780,779,778,778,778,778,778,778,778,778,778,778,778,778,778,778,778,778,778,778,778,778,778,778,778,778,775,765,749,735,719,685,672,656,645,626,602,593,585,576,566,538,521,505,490,479,473,472,471,471,471,473],"ymouse":[503,503,503,503,503,503,503,503,503,503,503,503,503,503,503,503,503,503,503,503,503,503,503,503,503,503,503,503,503,503,503,503,503,503,503,503,503,503,503,503,503,503,503,503,503,503,503,503,503,503,503,503,503,503,503,503,503,503,503,503,503,503,503,503,503,503,503,503,503,503,503,503,503,503,503,503,503,503,503,503,503,503,503,503,503,503,503,503,503,503,503,502,502,502,502,502,502,502,502,502,502,502,502,502,502,502,502,502,502,502,502,502,502,502,502,502,496,487,478,465,433,413,387,363,323,276,258,243,231,219,194,181,169,157,144,126,121,116,109,102,87],"timestamp_mouse":[14,33,55,74,94,115,133,153,173,193,214,234,255,273,293,313,334,354,374,393,414,434,454,473,493,513,534,555,574,594,613,635,653,673,693,714,734,755,775,793,813,835,854,874,893,914,934,954,974,994,1014,1035,1054,1075,1094,1113,1134,1153,1173,1194,1214,1234,1254,1273,1293,1313,1334,1355,1374,1395,1414,1434,1454,1473,1493,1513,1534,1553,1574,1595,1614,1634,1654,1674,1693,1713,1735,1755,1774,1794,1814,1833,1854,1873,1894,1913,1934,1953,1973,1994,2013,2034,2053,2074,2093,2115,2135,2154,2173,2193,2215,2235,2255,2273,2293,2313,2335,2354,2373,2393,2414,2433,2454,2474,2493,2514,2533,2554,2573,2593,2615,2633,2654,2674,2694,2715,2733,2754,2774,2794,2814],"xSR":741.5,"ySR":469.95,"xT1":424.9,"yT1":0,"xT2":1058.1,"yT2":0,"toosoon":0,"cond_shown":"Congruent","ratio_trial":300,"L_num":5,"L_den":25,"R_num":7,"R_den":14,"correct_side":2,"subjID":"sofiapulido2","gender":"1","school":"4","age":"9"},{"start_time":1552308412580,"click_time":1552308414349,"finger_time":1552308413329,"fix_duration":250,"trial":6,"RT":749,"MT":1020,"sideResp":1,"stimulus":[],"xmouse":[767,767,767,772,777,781,787,791,793,794,794,794,794,794,792,791,791,791,791,797,805,810,814,816,817,817,817,817,816,809,790,778,770,766,765,767,777,795,861,897,928,934,935,935,905,879,839,788,747,708,698,698,703,734,759,784,805,820,826,828,824,814,796,774,734,727,727,727,727,730,732,732,728,714,670,644,621,602,589,564,559,555,552,548,542,539,535,530,516],"ymouse":[511,511,511,511,511,511,510,510,509,509,509,509,509,509,510,511,513,516,520,527,529,530,530,530,530,530,530,530,530,530,530,532,534,537,547,553,563,574,591,596,599,599,595,582,530,504,481,462,455,455,466,480,498,524,532,536,536,536,532,519,513,507,504,504,511,514,515,515,515,505,482,461,433,396,324,288,255,223,198,141,125,111,99,87,73,68,64,58,50],"timestamp_mouse":[14,28,47,68,87,108,128,148,167,188,209,229,247,269,287,307,327,349,367,388,408,429,448,469,487,508,528,547,568,588,609,629,649,667,688,708,727,749,770,787,807,828,848,868,887,908,928,947,967,987,1007,1029,1048,1069,1088,1108,1128,1147,1167,1188,1209,1228,1247,1267,1287,1308,1327,1347,1369,1388,1407,1427,1448,1467,1487,1508,1528,1549,1567,1587,1607,1627,1647,1667,1687,1707,1728,1748,1769],"xSR":741.5,"ySR":469.95,"xT1":424.9,"yT1":0,"xT2":1058.1,"yT2":0,"toosoon":0,"cond_shown":"Incongruent","ratio_trial":200,"L_num":7,"L_den":15,"R_num":4,"R_den":6,"correct_side":2,"subjID":"sofiapulido2","gender":"1","school":"4","age":"9"},{"start_time":1552308416139,"click_time":1552308418228,"finger_time":1552308417887,"fix_duration":628.3584403852774,"trial":7,"RT":1748,"MT":341,"sideResp":2,"stimulus":[],"xmouse":[769,763,763,763,765,770,784,795,807,816,822,826,826,825,822,817,802,797,791,789,788,790,793,795,795,795,795,795,796,798,800,803,803,803,803,802,797,796,795,795,795,795,795,792,789,787,786,786,786,788,790,790,790,790,792,792,792,792,791,790,789,778,774,773,773,773,773,773,775,776,780,789,791,791,791,791,791,786,781,767,763,759,759,760,763,772,825,885,957,1055,1096,1127,1130,1133,1138,1143,1150,1157,1159,1162,1167,1168,1168,1160,1152],"ymouse":[526,536,539,542,545,546,546,541,531,523,512,502,499,497,495,494,493,494,500,507,515,530,534,535,535,535,535,535,535,535,533,525,519,515,511,507,501,500,499,499,499,499,499,499,502,505,516,523,529,532,534,534,534,534,533,532,528,525,523,522,522,522,525,528,530,531,532,532,532,532,530,524,521,521,521,521,521,521,521,527,530,538,542,545,547,548,544,528,501,447,410,352,328,306,288,270,248,210,191,171,141,101,80,60,42],"timestamp_mouse":[9,37,48,69,88,109,129,148,169,189,210,228,250,269,289,308,329,349,368,389,410,429,449,469,488,509,529,548,570,589,609,629,649,669,689,710,728,748,768,790,809,828,849,868,889,909,928,948,970,989,1008,1028,1048,1070,1089,1110,1129,1149,1168,1189,1209,1229,1248,1270,1290,1308,1330,1349,1368,1389,1410,1429,1449,1470,1489,1509,1529,1548,1570,1590,1609,1628,1650,1668,1689,1710,1729,1748,1768,1789,1808,1829,1848,1868,1890,1908,1929,1948,1968,1989,2008,2029,2050,2069,2089],"xSR":741.5,"ySR":469.95,"xT1":424.9,"yT1":0,"xT2":1058.1,"yT2":0,"toosoon":0,"cond_shown":"Congruent","ratio_trial":100,"L_num":3,"L_den":20,"R_num":4,"R_den":16,"correct_side":2,"subjID":"sofiapulido2","gender":"1","school":"4","age":"9"},{"start_time":1552308422959,"click_time":1552308424488,"finger_time":1552308424248,"fix_duration":250,"trial":8,"RT":1289,"MT":240,"sideResp":1,"stimulus":[],"xmouse":[772,772,772,772,772,772,772,772,772,772,772,772,772,772,772,772,772,772,772,772,772,772,772,772,772,772,772,772,772,772,772,772,772,772,772,772,772,772,772,772,772,772,772,772,772,772,772,772,772,772,772,772,772,772,772,772,772,772,771,770,767,762,757,751,744,737,717,697,681,666,652,621,605,585,567,548,516],"ymouse":[538,538,538,538,538,538,538,538,538,538,538,538,538,538,538,538,538,538,538,538,538,538,538,538,538,538,538,538,538,538,538,538,538,538,538,538,538,538,538,538,538,538,538,538,538,538,538,538,538,538,538,538,538,538,538,538,538,538,536,530,523,506,495,482,469,452,404,350,310,277,249,201,178,156,134,115,78],"timestamp_mouse":[8,42,49,69,90,108,129,150,170,190,209,230,249,270,289,309,330,349,370,388,409,430,448,470,490,508,528,550,570,590,610,629,649,670,689,709,730,749,768,790,809,828,848,870,890,909,929,950,968,988,1009,1029,1050,1070,1089,1109,1130,1149,1170,1190,1208,1228,1249,1269,1289,1309,1329,1349,1369,1389,1409,1429,1448,1469,1489,1510,1528],"xSR":741.5,"ySR":469.95,"xT1":424.9,"yT1":0,"xT2":1058.1,"yT2":0,"toosoon":0,"cond_shown":"Incongruent","ratio_trial":200,"L_num":14,"L_den":30,"R_num":6,"R_den":9,"correct_side":2,"subjID":"sofiapulido2","gender":"1","school":"4","age":"9"},{"start_time":1552308426609,"click_time":1552308428408,"finger_time":1552308427907,"fix_duration":1320.763550040658,"trial":9,"RT":1298,"MT":501,"sideResp":2,"stimulus":[],"xmouse":[793,790,783,769,767,767,767,767,767,767,767,768,770,775,777,779,780,780,780,780,780,780,780,780,780,780,780,780,780,780,780,780,780,780,780,780,780,780,780,780,780,780,780,780,780,780,780,780,780,780,780,780,780,780,780,780,780,780,780,780,781,788,800,817,874,915,958,1006,1107,1152,1180,1204,1237,1262,1269,1274,1274,1274,1274,1274,1274,1274,1274,1274,1274,1274,1274,1274,1274,1145],"ymouse":[531,530,529,527,527,527,527,527,527,527,527,527,527,527,527,527,526,526,526,526,526,526,526,526,526,526,526,526,526,526,526,526,526,526,526,526,526,526,526,526,526,526,526,526,526,526,526,526,526,526,526,526,526,526,526,526,526,526,526,526,526,522,511,497,439,399,353,297,190,145,113,81,46,21,13,3,3,3,3,3,3,3,3,3,3,3,3,3,3,3],"timestamp_mouse":[23,43,59,79,99,120,139,160,180,198,220,240,259,280,298,319,339,359,380,399,420,439,459,480,499,519,539,560,579,598,618,639,659,679,699,719,740,759,779,799,818,839,860,879,899,919,939,959,979,1000,1020,1039,1059,1079,1100,1119,1140,1158,1179,1199,1218,1240,1259,1278,1298,1320,1340,1359,1379,1399,1420,1439,1460,1480,1498,1519,1540,1559,1579,1600,1619,1640,1658,1680,1700,1720,1739,1760,1780,1799],"xSR":741.5,"ySR":469.95,"xT1":424.9,"yT1":0,"xT2":1058.1,"yT2":0,"toosoon":0,"cond_shown":"Congruent","ratio_trial":300,"L_num":4,"L_den":20,"R_num":13,"R_den":26,"correct_side":2,"subjID":"sofiapulido2","gender":"1","school":"4","age":"9"},{"start_time":1552308430594,"click_time":1552308432068,"finger_time":1552308431588,"fix_duration":1005.2490737872404,"trial":10,"RT":994,"MT":480,"sideResp":2,"stimulus":[],"xmouse":[769,769,769,769,769,769,769,769,769,769,769,769,769,769,769,769,769,769,769,769,769,769,769,769,769,769,769,769,769,769,769,769,769,769,769,769,769,769,769,769,769,769,769,769,769,773,779,788,797,807,820,831,843,860,880,912,924,932,939,946,959,964,967,968,969,972,976,981,988,996,1018,1031,1049,1070],"ymouse":[515,515,515,515,515,515,515,515,515,515,515,515,515,515,515,515,515,515,515,515,515,515,515,515,515,515,515,515,515,515,515,515,515,515,515,515,515,515,515,515,515,515,515,515,515,511,500,487,473,456,414,378,352,327,303,257,236,216,198,178,143,126,115,111,108,105,103,102,100,98,91,88,84,81],"timestamp_mouse":[20,40,53,73,93,113,134,154,174,194,215,234,253,274,295,315,335,354,374,395,414,434,455,475,494,515,534,554,573,593,614,634,654,675,694,713,734,755,774,793,815,833,853,873,895,915,935,954,975,994,1014,1034,1053,1074,1094,1113,1135,1154,1174,1195,1213,1234,1255,1274,1294,1315,1335,1354,1374,1394,1413,1434,1454,1474],"xSR":741.5,"ySR":469.95,"xT1":424.9,"yT1":0,"xT2":1058.1,"yT2":0,"toosoon":0,"cond_shown":"Congruent","ratio_trial":300,"L_num":1,"L_den":5,"R_num":11,"R_den":22,"correct_side":2,"subjID":"sofiapulido2","gender":"1","school":"4","age":"9"},{"start_time":1552308433689,"click_time":1552308443909,"finger_time":1552308440628,"fix_duration":517.4900423671556,"trial":11,"RT":6939,"MT":3281,"sideResp":2,"stimulus":[],"xmouse":[803,803,803,803,803,803,803,803,802,802,802,802,802,801,801,801,801,801,801,801,801,801,801,801,801,801,801,801,801,801,801,801,801,801,801,801,801,801,801,801,801,801,801,801,801,800,800,800,800,800,800,800,800,799,798,797,797,797,797,796,795,793,793,793,793,793,792,792,792,791,791,791,790,790,789,789,789,788,787,786,785,785,785,785,785,785,785,785,785,785,785,785,785,785,785,785,785,785,785,785,785,785,785,785,785,785,785,785,785,785,785,785,785,785,785,785,785,785,785,785,785,785,785,785,785,785,785,785,785,785,785,785,785,785,785,785,785,785,785,785,785,785,785,785,785,785,785,785,785,785,785,785,785,785,785,785,785,785,785,785,785,785,785,785,785,785,785,785,785,785,785,785,785,785,785,785,785,785,785,785,785,785,785,785,785,785,785,785,785,785,785,785,785,785,785,785,785,785,785,785,785,785,785,785,785,785,785,785,785,785,785,785,785,785,785,785,785,785,785,785,785,785,785,785,785,785,785,785,785,785,785,785,785,785,785,785,785,785,785,785,785,785,785,785,785,785,785,785,785,785,783,782,778,778,777,777,777,777,777,777,777,777,777,777,777,777,777,779,780,782,783,789,791,792,793,793,792,790,789,788,787,781,777,773,772,772,772,773,773,773,773,773,775,781,790,796,800,804,804,804,804,801,797,794,785,778,769,765,763,763,766,772,788,794,802,805,807,809,809,809,809,807,794,780,773,767,765,763,762,762,763,769,777,779,789,796,812,817,821,822,823,823,817,805,789,768,746,703,696,694,694,694,700,719,738,758,774,789,791,791,793,793,787,771,748,723,700,680,678,678,678,678,685,691,700,708,717,728,732,736,742,746,752,754,754,754,754,740,723,705,685,667,650,650,651,657,666,691,703,717,723,726,727,727,725,725,724,718,713,709,706,706,706,706,708,712,715,725,731,736,740,743,746,746,746,746,746,746,746,746,746,746,746,746,746,746,746,746,746,746,746,746,745,745,745,745,745,745,745,745,745,745,745,745,745,745,745,745,745,745,745,745,745,745,745,745,745,745,745,745,745,745,745,745,745,745,745,745,745,745,745,745,745,745,745,745,745,745,745,745,745,748,765,776,788,797,808,822,856,873,898,904,937,950,963,977,991,1006,1033,1048,1074,1090],"ymouse":[503,503,503,503,503,503,503,503,504,504,504,504,504,504,504,505,505,505,505,505,505,505,505,505,505,505,505,505,505,505,505,505,505,505,505,505,505,505,505,505,505,505,505,505,506,507,508,508,508,508,508,508,508,508,508,509,509,509,509,510,511,512,513,513,513,513,513,513,513,514,514,514,515,515,515,515,515,516,517,517,518,518,518,518,518,518,518,518,518,518,518,518,518,518,518,518,518,518,518,518,518,518,518,518,518,518,518,518,518,518,518,518,518,518,518,518,518,518,518,518,518,518,518,518,518,518,518,518,518,518,518,518,518,518,518,518,518,518,518,518,518,518,518,518,518,518,518,518,518,518,518,518,518,518,518,518,518,518,518,518,518,518,518,518,518,518,518,518,518,518,518,518,518,518,518,518,518,518,518,518,518,518,518,518,518,518,518,518,518,518,518,518,518,518,518,518,518,518,518,518,518,518,518,518,518,518,518,518,518,518,518,518,518,518,518,518,518,518,518,518,518,518,518,518,518,518,518,518,518,518,518,518,518,518,518,518,518,518,518,518,518,518,518,518,518,518,518,518,518,518,521,522,526,528,529,530,530,530,530,531,531,531,531,531,531,531,531,531,531,531,530,525,519,514,507,502,496,494,493,493,493,493,494,501,506,510,513,515,515,515,515,515,515,517,518,518,518,517,515,512,509,503,503,503,503,503,506,510,518,527,536,543,549,549,548,545,542,532,527,524,522,520,519,519,519,520,521,523,526,531,536,543,546,546,546,546,544,540,536,532,527,523,513,506,503,500,496,493,493,494,495,500,515,526,531,535,536,537,536,535,529,521,506,501,498,494,491,491,491,491,496,502,522,530,539,543,546,547,547,547,547,547,546,544,543,541,537,531,529,529,529,529,534,538,544,550,556,559,559,559,559,556,548,545,542,542,541,541,545,551,556,562,568,568,568,568,568,568,568,568,568,567,564,562,561,560,559,559,558,557,555,553,546,544,542,540,539,538,536,536,536,536,535,535,535,535,535,535,535,535,535,535,535,535,535,535,535,535,535,535,535,535,535,535,535,535,535,535,535,535,535,535,535,535,535,535,535,535,535,535,535,535,535,535,535,535,535,535,535,535,533,531,513,499,484,468,451,431,391,371,338,329,282,264,244,223,202,182,142,125,100,86],"timestamp_mouse":[1,19,39,60,80,98,120,138,159,180,199,220,239,259,280,299,319,340,359,380,399,419,438,460,478,500,520,538,560,578,599,620,639,660,679,699,718,738,760,780,799,819,839,860,879,899,919,939,960,979,1000,1019,1040,1059,1078,1099,1119,1139,1159,1178,1198,1218,1239,1260,1279,1298,1319,1339,1359,1379,1399,1419,1439,1460,1479,1498,1518,1540,1560,1580,1600,1619,1640,1658,1678,1700,1719,1739,1760,1780,1799,1819,1839,1859,1880,1899,1920,1938,1958,1980,2000,2019,2039,2060,2080,2098,2118,2140,2160,2180,2200,2219,2238,2260,2279,2298,2320,2340,2359,2380,2400,2419,2439,2458,2478,2500,2519,2540,2560,2579,2600,2619,2640,2659,2679,2700,2719,2740,2759,2779,2800,2819,2840,2860,2878,2898,2919,2940,2959,2980,2999,3019,3039,3059,3079,3100,3119,3139,3160,3179,3200,3219,3239,3259,3279,3299,3319,3340,3360,3380,3399,3419,3440,3459,3480,3500,3519,3539,3559,3579,3599,3619,3639,3659,3680,3700,3719,3738,3760,3780,3799,3820,3838,3858,3880,3899,3920,3938,3960,3979,3999,4019,4040,4060,4080,4100,4119,4140,4160,4179,4200,4220,4240,4260,4278,4298,4320,4340,4359,4380,4400,4418,4439,4460,4480,4499,4520,4539,4560,4580,4599,4619,4640,4660,4679,4699,4718,4739,4760,4780,4799,4820,4840,4859,4880,4899,4920,4940,4959,4980,4999,5018,5039,5060,5078,5100,5120,5140,5159,5179,5198,5220,5240,5259,5278,5298,5320,5340,5360,5379,5399,5420,5440,5460,5479,5499,5520,5540,5559,5579,5600,5620,5640,5660,5680,5699,5720,5739,5760,5778,5798,5819,5839,5859,5879,5899,5919,5940,5960,5980,6000,6020,6039,6058,6080,6100,6120,6140,6159,6178,6198,6220,6240,6260,6280,6299,6318,6339,6360,6380,6399,6418,6439,6459,6480,6499,6518,6540,6559,6579,6599,6620,6639,6658,6680,6700,6720,6740,6758,6780,6799,6818,6840,6859,6880,6898,6918,6939,6959,6980,7000,7021,7038,7060,7079,7099,7119,7139,7160,7179,7200,7220,7238,7259,7280,7299,7319,7339,7359,7379,7399,7418,7439,7460,7479,7499,7520,7539,7559,7579,7600,7620,7638,7660,7680,7700,7719,7739,7759,7779,7800,7819,7839,7859,7879,7898,7920,7939,7959,7979,7998,8019,8038,8060,8079,8099,8119,8138,8158,8179,8199,8219,8239,8260,8279,8299,8320,8339,8358,8380,8399,8420,8438,8460,8479,8499,8520,8539,8559,8579,8600,8619,8639,8659,8680,8698,8720,8740,8759,8779,8798,8820,8838,8859,8879,8898,8920,8940,8959,8979,8998,9019,9040,9059,9079,9100,9120,9139,9158,9178,9200,9220,9239,9259,9280,9298,9319,9340,9359,9380,9400,9419,9439,9460,9479,9499,9518,9539,9559,9578,9600,9620,9639,9660,9680,9700,9719,9739,9760,9779,9799,9818,9839,9860,9879,9900,9920,9938,9959,9978,9999,10020,10040,10059,10079,10099,10119,10139,10159,10179,10199,10220],"xSR":741.5,"ySR":469.95,"xT1":424.9,"yT1":0,"xT2":1058.1,"yT2":0,"toosoon":0,"cond_shown":"Congruent","ratio_trial":300,"L_num":3,"L_den":12,"R_num":11,"R_den":20,"correct_side":2,"subjID":"sofiapulido2","gender":"1","school":"4","age":"9"},{"start_time":1552308445441,"click_time":1552308447248,"finger_time":1552308446749,"fix_duration":250,"trial":12,"RT":1308,"MT":499,"sideResp":1,"stimulus":[],"xmouse":[789,790,790,790,790,790,790,790,790,790,790,790,790,790,790,790,790,790,790,790,790,790,790,790,795,798,802,804,806,808,809,810,810,810,810,810,810,810,810,810,810,810,810,810,810,810,810,810,810,810,810,810,810,810,810,810,810,810,808,805,803,799,793,785,757,740,719,698,674,653,613,597,595,587,584,584,590,593,593,588,584,575,573,568,564,558,555,552,547,533,522],"ymouse":[536,537,537,537,537,537,537,537,537,537,537,537,537,537,537,537,537,537,537,537,537,537,537,537,534,532,529,529,528,527,526,526,525,525,525,525,525,525,525,525,525,525,525,525,525,525,525,525,525,525,525,525,525,525,525,525,525,525,525,525,525,524,522,519,507,498,485,470,450,433,390,357,347,317,283,262,238,214,191,152,135,111,104,92,83,69,65,62,59,54,51],"timestamp_mouse":[8,27,51,67,88,107,127,147,168,187,206,226,248,268,287,308,326,348,368,387,407,428,448,468,487,506,527,548,568,587,606,627,647,667,688,707,727,748,768,787,808,827,847,866,888,908,927,947,968,987,1006,1027,1047,1067,1087,1108,1127,1148,1168,1187,1206,1227,1248,1268,1288,1308,1327,1348,1367,1388,1407,1428,1446,1467,1488,1506,1528,1547,1568,1589,1607,1627,1646,1667,1688,1707,1728,1746,1766,1789,1807],"xSR":741.5,"ySR":469.95,"xT1":424.9,"yT1":0,"xT2":1058.1,"yT2":0,"toosoon":0,"cond_shown":"Congruent","ratio_trial":100,"L_num":11,"L_den":22,"R_num":6,"R_den":15,"correct_side":1,"subjID":"sofiapulido2","gender":"1","school":"4","age":"9"},{"start_time":1552308449274,"click_time":1552308451148,"finger_time":1552308450369,"fix_duration":865.9529298743387,"trial":13,"RT":1095,"MT":779,"sideResp":2,"stimulus":[],"xmouse":[768,768,768,768,768,768,768,768,768,768,768,768,768,768,768,768,768,768,768,768,768,768,768,768,768,768,768,768,768,768,768,768,768,768,768,768,768,768,768,768,768,768,768,768,768,768,768,768,768,768,768,768,770,779,784,789,792,795,801,805,812,820,827,844,852,862,874,897,932,948,963,976,987,1000,1004,1008,1013,1019,1031,1033,1034,1034,1034,1035,1038,1042,1044,1044,1045,1045,1046,1050,1053,1060],"ymouse":[505,505,505,505,505,505,505,505,505,505,505,505,505,505,505,505,505,505,505,505,505,505,505,505,505,505,505,505,505,505,505,505,505,505,505,505,505,505,505,505,505,505,505,505,505,505,505,505,505,505,505,505,504,482,469,455,441,430,399,385,368,352,336,304,287,271,253,224,181,158,135,116,100,82,78,73,68,62,49,46,46,46,46,45,45,45,45,45,45,45,46,49,52,58],"timestamp_mouse":[14,35,56,73,95,115,134,154,174,195,214,235,254,273,293,315,334,355,374,395,415,435,455,474,495,514,535,555,575,593,613,633,654,675,694,715,733,753,774,794,815,833,855,875,895,914,934,953,975,994,1014,1035,1055,1074,1095,1114,1134,1155,1174,1194,1215,1235,1255,1274,1294,1313,1334,1355,1374,1393,1414,1435,1455,1473,1495,1515,1534,1554,1575,1593,1614,1635,1654,1674,1693,1715,1755,1757,1775,1794,1814,1835,1855,1874],"xSR":741.5,"ySR":469.95,"xT1":424.9,"yT1":0,"xT2":1058.1,"yT2":0,"toosoon":0,"cond_shown":"Incongruent","ratio_trial":100,"L_num":2,"L_den":4,"R_num":8,"R_den":20,"correct_side":1,"subjID":"sofiapulido2","gender":"1","school":"4","age":"9"},{"start_time":1552308459051,"click_time":1552308460888,"finger_time":1552308460489,"fix_duration":1281.6622767971,"trial":14,"RT":1438,"MT":399,"sideResp":1,"stimulus":[],"xmouse":[799,799,799,799,799,799,799,799,799,799,799,799,799,799,799,799,799,799,799,799,799,799,799,799,799,799,799,799,799,799,799,799,799,799,799,799,799,799,799,799,799,799,799,799,799,799,799,799,799,799,799,799,799,799,799,799,799,799,799,799,799,799,799,799,799,799,797,796,793,789,773,758,741,716,680,634,608,580,553,534,515,511,508,504,497,493,492,492,492,492,492,492],"ymouse":[527,527,527,527,527,527,527,527,527,527,527,527,527,527,527,527,527,527,527,527,527,527,527,527,527,527,527,527,527,527,527,527,528,528,528,528,528,528,528,528,528,528,528,528,528,528,528,528,528,528,528,528,528,528,528,528,528,528,528,528,528,528,528,528,528,528,527,525,520,513,490,469,448,418,374,310,274,240,210,189,164,155,145,135,117,104,102,102,102,102,100,99],"timestamp_mouse":[18,37,58,77,98,117,138,157,176,197,218,238,258,278,298,316,337,358,378,397,418,438,458,477,498,517,536,557,578,596,618,636,658,678,698,718,736,758,777,797,817,837,857,878,898,916,936,958,978,998,1018,1038,1058,1078,1098,1116,1137,1158,1178,1197,1217,1237,1257,1278,1297,1318,1338,1358,1377,1398,1417,1438,1457,1478,1497,1516,1537,1556,1577,1598,1616,1636,1657,1677,1696,1717,1738,1757,1777,1797,1817,1837],"xSR":741.5,"ySR":469.95,"xT1":424.9,"yT1":0,"xT2":1058.1,"yT2":0,"toosoon":0,"cond_shown":"Incongruent","ratio_trial":300,"L_num":4,"L_den":20,"R_num":2,"R_den":4,"correct_side":2,"subjID":"sofiapulido2","gender":"1","school":"4","age":"9"},{"start_time":1552308462899,"click_time":1552308464849,"finger_time":1552308464368,"fix_duration":909.0911116078548,"trial":15,"RT":1469,"MT":481,"sideResp":2,"stimulus":[],"xmouse":[760,760,760,760,760,760,760,760,760,760,760,760,760,760,760,760,760,760,760,760,760,760,760,760,760,759,759,759,759,759,759,759,758,758,756,755,754,754,753,753,752,752,752,752,751,751,751,751,751,751,751,751,751,751,751,751,751,750,749,749,749,749,749,749,748,748,748,748,748,750,752,760,763,772,780,791,804,819,849,862,873,890,899,909,927,935,942,952,961,987,991,996,1000,1007,1027,1041,1054,1065],"ymouse":[489,489,489,489,489,489,489,489,489,489,489,489,489,489,489,489,489,489,489,490,490,490,492,493,494,495,496,496,496,496,497,498,498,500,502,504,506,507,507,507,509,509,509,509,510,510,510,510,510,510,510,510,510,510,510,510,510,512,513,513,513,513,513,513,514,514,514,514,514,511,505,490,483,467,456,440,422,398,347,323,300,264,243,222,192,180,172,165,160,148,144,136,128,119,107,99,90,81],"timestamp_mouse":[9,36,49,69,89,109,130,150,168,190,210,230,249,270,289,309,329,349,370,389,408,428,450,469,489,510,530,549,570,589,609,628,648,669,690,708,730,749,769,789,810,830,849,870,890,910,929,949,970,990,1009,1028,1049,1069,1090,1108,1129,1150,1170,1190,1209,1229,1250,1269,1288,1310,1330,1349,1368,1389,1409,1430,1450,1469,1488,1509,1530,1550,1570,1588,1609,1629,1648,1670,1688,1709,1729,1749,1769,1789,1809,1830,1849,1870,1888,1909,1929,1950],"xSR":741.5,"ySR":469.95,"xT1":424.9,"yT1":0,"xT2":1058.1,"yT2":0,"toosoon":0,"cond_shown":"Incongruent","ratio_trial":200,"L_num":7,"L_den":10,"R_num":12,"R_den":24,"correct_side":1,"subjID":"sofiapulido2","gender":"1","school":"4","age":"9"},{"start_time":1552308467053,"click_time":1552308470768,"finger_time":1552308470648,"fix_duration":981.7430196033768,"trial":16,"RT":3595,"MT":120,"sideResp":1,"stimulus":[],"xmouse":[785,785,785,785,785,783,780,779,777,776,775,774,774,774,773,772,770,769,767,766,765,763,762,762,762,762,762,762,762,762,762,762,762,762,762,762,762,762,762,762,762,762,762,762,762,762,762,762,762,762,762,761,760,760,758,758,757,757,757,757,757,756,755,755,755,754,754,754,754,754,754,754,754,754,754,754,754,754,754,754,754,754,754,754,754,754,752,751,750,749,749,749,749,749,749,749,749,749,749,749,749,749,749,749,749,749,749,749,752,759,770,785,789,793,795,795,796,796,796,796,796,796,796,796,796,796,796,796,796,796,796,796,796,796,796,796,796,796,796,796,796,796,796,796,796,796,797,797,797,797,797,797,797,797,797,797,797,797,797,797,797,797,797,797,797,797,797,797,797,797,797,797,797,797,797,797,797,794,791,778,748,689,653,611,568,502],"ymouse":[522,522,522,522,522,524,525,525,526,527,527,527,527,527,527,527,528,528,528,529,529,531,531,531,531,531,531,531,531,531,531,531,531,531,531,531,531,531,531,531,531,531,531,531,531,531,531,531,531,531,531,532,533,534,536,537,539,539,539,539,539,541,541,541,542,543,544,544,544,544,544,544,544,544,544,544,544,544,544,544,544,544,544,544,544,544,543,540,538,538,537,537,537,537,537,537,537,537,537,537,537,537,537,537,537,537,537,535,532,530,526,521,518,516,514,512,509,508,507,507,507,507,507,507,507,507,507,507,507,507,507,507,507,507,507,507,507,507,507,507,507,507,507,505,503,502,501,501,501,501,501,502,502,502,502,502,502,502,502,502,502,502,502,502,502,502,502,502,502,502,502,502,502,502,502,502,502,501,493,459,385,270,211,153,93,2],"timestamp_mouse":[15,34,55,75,94,116,136,156,174,195,216,236,255,276,296,315,334,355,376,395,415,434,456,476,495,516,534,555,576,596,615,634,654,676,695,714,735,755,776,796,815,836,856,875,896,915,936,954,976,994,1016,1035,1056,1075,1096,1115,1134,1156,1175,1194,1216,1235,1255,1276,1296,1314,1335,1356,1375,1396,1416,1434,1455,1475,1495,1516,1536,1556,1575,1596,1615,1634,1656,1676,1695,1715,1735,1754,1776,1795,1814,1835,1855,1876,1894,1916,1935,1954,1976,1996,2015,2036,2054,2074,2096,2116,2135,2156,2176,2195,2215,2235,2255,2276,2295,2316,2334,2355,2376,2395,2416,2435,2454,2475,2496,2515,2536,2556,2576,2595,2616,2635,2656,2675,2696,2716,2736,2755,2775,2795,2815,2835,2856,2876,2895,2915,2935,2955,2974,2996,3016,3035,3056,3076,3094,3116,3135,3156,3175,3194,3214,3236,3255,3276,3295,3314,3334,3355,3376,3396,3414,3434,3456,3476,3496,3515,3536,3554,3576,3595,3616,3636,3656,3674,3695,3715],"xSR":741.5,"ySR":469.95,"xT1":424.9,"yT1":0,"xT2":1058.1,"yT2":0,"toosoon":0,"cond_shown":"Congruent","ratio_trial":200,"L_num":13,"L_den":26,"R_num":14,"R_den":20,"correct_side":2,"subjID":"sofiapulido2","gender":"1","school":"4","age":"9"},{"start_time":1552308472628,"click_time":1552308475789,"finger_time":1552308474228,"fix_duration":878.0685005337365,"trial":17,"RT":1600,"MT":1561,"sideResp":2,"stimulus":[],"xmouse":[766,766,766,766,766,766,766,766,766,766,766,766,766,766,766,766,766,766,766,766,766,766,766,766,766,766,766,766,766,766,766,766,766,766,766,766,766,766,766,766,766,766,766,766,766,766,766,766,766,766,766,766,766,766,766,766,766,766,766,766,766,766,766,766,766,766,766,766,766,766,766,766,766,766,766,766,768,772,777,802,833,856,876,914,926,936,947,959,972,995,1011,1017,1022,1026,1029,1029,1029,1029,1029,1029,1029,1029,1029,1029,1029,1029,1029,1029,1029,1026,1020,1013,1002,990,961,951,946,943,940,930,924,919,917,916,916,916,916,916,916,918,925,937,950,966,999,1013,1025,1036,1042,1048,1048,1049,1049,1049,1049,1049,1049,1049,1049,1047,1044,1039,1034,1032,1032,1032,1035,1048,1095],"ymouse":[499,499,499,499,499,499,499,499,499,499,499,499,499,499,499,499,499,499,499,499,499,499,499,499,499,499,499,499,499,499,499,499,499,499,499,499,499,499,499,499,499,499,499,499,499,499,499,499,499,499,499,499,499,499,499,499,499,499,499,499,499,499,499,499,499,499,499,499,499,499,499,499,499,499,499,499,499,499,493,470,443,420,392,326,297,274,249,227,204,166,141,130,118,109,101,100,98,98,98,98,98,98,98,98,98,98,98,98,98,99,103,109,118,130,157,167,176,183,189,208,217,222,224,226,226,226,226,226,226,226,223,218,211,203,185,177,166,158,149,138,135,133,133,133,133,133,133,133,133,135,137,139,141,142,142,142,139,130,99],"timestamp_mouse":[8,19,40,60,80,100,120,141,160,181,200,221,240,260,280,300,321,341,360,380,401,420,441,460,480,501,520,539,561,581,599,621,641,661,680,701,721,740,761,780,800,820,840,860,880,900,919,939,960,981,1000,1020,1040,1061,1080,1099,1121,1141,1159,1180,1201,1220,1239,1261,1280,1301,1320,1340,1360,1381,1401,1419,1441,1461,1479,1500,1521,1540,1559,1581,1600,1621,1641,1662,1679,1701,1721,1741,1759,1779,1800,1820,1840,1860,1880,1900,1920,1940,1959,1979,1999,2020,2040,2060,2080,2101,2121,2140,2161,2180,2200,2221,2241,2261,2280,2300,2321,2341,2361,2380,2399,2419,2440,2460,2480,2500,2520,2540,2560,2580,2599,2619,2639,2660,2681,2700,2721,2741,2761,2780,2801,2820,2841,2861,2880,2900,2920,2940,2960,2980,3000,3019,3040,3060,3079,3100,3120,3140,3160],"xSR":741.5,"ySR":469.95,"xT1":424.9,"yT1":0,"xT2":1058.1,"yT2":0,"toosoon":0,"cond_shown":"Incongruent","ratio_trial":300,"L_num":2,"L_den":4,"R_num":6,"R_den":30,"correct_side":1,"subjID":"sofiapulido2","gender":"1","school":"4","age":"9"},{"start_time":1552308477624,"click_time":1552308483268,"finger_time":1552308477628,"fix_duration":514.4998806462454,"trial":18,"RT":4,"MT":5640,"sideResp":2,"stimulus":[],"xmouse":[740,738,735,733,728,725,723,721,720,719,718,717,716,714,709,707,705,702,699,697,694,693,691,691,686,686,684,683,683,682,682,682,682,682,682,682,682,682,682,681,679,679,679,679,678,678,678,678,678,678,678,678,678,678,678,678,678,677,677,677,677,677,677,677,677,677,677,677,677,677,677,677,677,677,677,677,677,677,677,677,677,677,677,677,677,677,677,677,677,677,677,677,677,677,677,677,677,677,677,677,677,677,677,677,677,677,677,677,677,678,694,724,753,780,816,822,822,823,824,824,824,824,824,824,824,822,814,807,798,784,777,773,771,769,768,768,768,768,767,766,763,763,763,763,763,763,763,763,763,763,763,763,763,763,763,763,763,763,763,763,763,763,763,763,764,767,774,779,784,786,786,786,786,786,786,786,786,786,786,786,786,786,786,786,786,786,786,786,786,786,786,786,786,786,786,786,786,786,786,786,786,786,786,786,786,786,786,786,786,786,786,786,786,786,786,786,786,786,786,786,786,786,786,786,786,786,786,786,786,786,786,786,786,786,786,786,786,786,786,786,786,786,786,786,786,786,786,786,786,786,786,786,786,791,804,818,842,850,882,949,984,1022,1059,1091,1119,1164,1183,1194,1205,1212,1212,1212,1212,1212,1212,1212,1212,1212,1212,1212,1212,1212,1093],"ymouse":[503,503,503,503,504,504,505,505,505,506,506,507,507,508,510,511,512,513,514,516,517,517,517,518,520,520,521,522,522,523,523,523,523,523,523,523,523,523,523,524,527,527,527,527,528,528,528,528,528,528,528,528,528,528,528,528,528,529,529,529,529,529,529,529,529,529,529,529,529,529,529,529,529,529,529,529,529,529,529,529,529,529,529,529,529,529,529,529,529,529,529,529,529,529,529,529,529,529,529,529,529,529,529,529,529,529,529,529,529,529,531,535,542,550,563,566,567,567,568,569,569,569,570,570,570,567,561,554,547,535,528,523,519,517,515,515,515,515,514,514,515,516,516,516,516,516,516,516,516,516,516,516,516,516,516,516,516,516,516,516,516,516,516,516,519,520,524,528,530,532,532,532,532,532,532,532,532,532,532,532,532,532,532,532,532,532,532,532,532,532,532,532,532,532,532,532,532,532,532,532,532,532,532,532,532,532,532,532,532,532,532,532,532,532,532,532,532,532,532,532,532,532,532,532,532,532,532,532,532,532,532,532,532,532,532,532,532,532,532,532,532,532,532,532,532,532,532,532,532,532,532,532,532,532,518,501,465,453,410,327,289,248,212,178,146,90,63,44,25,12,12,12,12,12,12,12,12,12,12,12,12,12,16],"timestamp_mouse":[4,26,47,65,83,103,124,144,165,184,204,224,245,265,283,304,324,344,364,383,404,425,444,465,484,505,525,544,563,584,604,625,644,664,684,703,724,744,764,783,804,823,845,864,884,905,924,944,964,983,1003,1024,1045,1064,1084,1105,1124,1143,1163,1183,1205,1224,1245,1265,1284,1305,1324,1343,1365,1384,1404,1424,1444,1464,1483,1503,1525,1543,1563,1584,1604,1624,1643,1663,1685,1704,1725,1745,1765,1784,1804,1824,1843,1864,1886,1904,1924,1945,1963,1984,2005,2024,2045,2064,2084,2103,2124,2145,2164,2184,2205,2224,2245,2265,2283,2305,2324,2344,2365,2384,2404,2423,2445,2465,2485,2504,2523,2545,2564,2584,2605,2624,2645,2665,2684,2704,2724,2745,2764,2784,2805,2824,2843,2863,2884,2904,2924,2944,2964,2984,3005,3025,3045,3063,3084,3104,3125,3143,3163,3185,3204,3224,3245,3263,3285,3305,3325,3344,3363,3384,3404,3423,3444,3465,3484,3504,3525,3543,3564,3583,3604,3625,3644,3665,3684,3704,3724,3743,3763,3785,3804,3825,3845,3864,3883,3905,3924,3945,3965,3984,4003,4024,4045,4065,4084,4104,4125,4144,4165,4184,4203,4225,4244,4265,4285,4305,4324,4344,4363,4385,4405,4424,4445,4465,4483,4503,4523,4545,4565,4585,4603,4624,4643,4664,4685,4704,4723,4744,4764,4783,4803,4825,4845,4864,4885,4905,4925,4943,4963,4985,5005,5025,5044,5065,5085,5105,5124,5144,5164,5185,5204,5224,5244,5265,5285,5304,5324,5345,5364,5385,5405,5424,5444,5464,5484,5504,5525,5545,5565,5584,5604,5624,5644],"xSR":741.5,"ySR":469.95,"xT1":424.9,"yT1":0,"xT2":1058.1,"yT2":0,"toosoon":0,"cond_shown":"Incongruent","ratio_trial":100,"L_num":3,"L_den":6,"R_num":4,"R_den":10,"correct_side":1,"subjID":"sofiapulido2","gender":"1","school":"4","age":"9"},{"start_time":1552308485485,"click_time":1552308493768,"finger_time":1552308485988,"fix_duration":854.7351349538014,"trial":19,"RT":503,"MT":7780,"sideResp":2,"stimulus":[],"xmouse":[779,779,779,779,779,779,779,779,779,779,779,779,778,778,778,778,778,777,777,777,776,776,776,775,773,772,771,770,768,767,767,766,764,764,763,762,762,761,761,760,760,760,760,760,760,760,759,758,758,757,757,756,756,755,754,753,751,748,745,743,740,740,740,740,740,740,740,740,740,740,740,740,740,740,740,739,738,737,735,735,735,734,734,733,733,731,730,725,722,719,717,713,707,706,704,704,704,704,704,703,703,701,696,686,679,676,672,668,667,665,663,661,658,657,657,657,657,657,657,657,657,657,657,656,656,656,656,661,664,667,670,676,689,698,710,720,730,739,751,754,756,757,757,757,757,757,757,762,771,786,805,835,874,891,905,916,922,926,927,929,930,931,932,933,933,935,937,943,945,946,948,948,948,948,944,937,927,897,874,861,853,848,842,833,827,822,816,806,801,798,790,784,779,774,773,773,773,773,773,773,773,773,773,773,773,773,773,773,773,773,773,773,773,773,773,773,773,773,773,773,771,768,762,761,760,760,760,760,760,760,760,760,760,760,760,760,760,760,760,760,760,760,760,760,760,760,760,760,760,760,760,760,760,760,760,760,760,760,760,760,760,760,760,760,760,760,760,760,760,760,760,760,760,760,760,760,760,760,760,760,760,760,760,760,760,760,760,760,760,760,760,760,760,760,760,760,760,760,760,760,760,760,760,760,760,760,760,760,760,760,760,760,760,760,760,760,760,760,760,760,760,760,760,760,760,760,760,760,760,760,760,760,760,760,760,760,760,760,760,760,760,760,760,760,760,760,760,760,760,760,760,760,760,760,760,760,760,760,760,760,760,760,760,760,760,760,760,760,760,760,760,760,760,760,760,760,760,760,760,760,760,760,760,760,760,760,760,760,760,760,760,762,764,786,812,849,890,927,985,993,1003,1014,1028,1066,1086,1103,1117,1124,1134,1137,1140,1143,1145,1147,1147],"ymouse":[560,560,560,560,560,560,560,560,560,560,560,561,562,562,562,562,563,564,564,564,565,565,567,568,569,571,572,574,577,579,580,581,584,584,585,585,586,587,587,588,588,588,588,588,588,588,589,589,589,589,589,589,589,589,590,591,591,593,594,594,595,595,595,595,595,595,595,595,595,595,595,595,595,595,595,595,595,595,596,596,596,596,596,596,596,596,596,596,595,595,593,593,591,591,590,590,590,590,590,589,589,587,579,551,529,505,480,431,408,387,368,348,331,328,328,328,328,327,327,327,327,327,328,330,331,334,337,344,348,352,358,367,385,397,410,422,435,444,459,462,464,465,465,465,465,465,465,465,465,462,457,449,429,419,409,401,395,389,387,385,383,382,380,380,379,376,372,362,358,355,352,352,352,352,352,358,365,386,406,416,423,427,430,435,437,440,445,451,457,462,472,479,485,493,495,496,496,496,496,496,496,496,496,496,496,496,496,496,496,496,496,496,496,496,496,496,496,496,496,496,496,496,496,496,496,498,498,498,498,498,498,498,498,498,498,498,498,498,498,498,498,498,498,498,498,498,498,498,498,498,498,498,498,498,498,498,498,498,498,498,498,498,498,498,498,498,498,498,498,498,498,498,498,498,498,498,498,498,498,498,498,498,498,498,498,498,498,498,498,498,498,498,498,498,498,498,498,498,498,498,498,498,498,498,498,498,498,498,498,498,498,498,498,498,498,498,498,498,498,498,498,498,498,498,498,498,498,498,498,498,498,498,498,498,498,498,498,498,498,498,498,498,498,498,498,498,498,498,498,498,498,498,498,498,498,498,498,498,498,498,498,498,498,498,498,498,498,498,498,498,498,498,498,498,498,498,498,498,498,498,498,498,498,498,498,498,498,494,487,483,483,479,477,459,444,424,403,382,340,326,308,292,275,245,233,221,211,203,184,176,167,156,142,111,95],"timestamp_mouse":[8,23,43,63,84,103,123,143,164,182,203,224,244,263,282,304,324,343,363,382,403,423,443,463,484,503,523,542,564,583,603,623,643,663,684,703,724,744,763,783,803,824,843,864,882,902,923,943,964,983,1004,1022,1043,1064,1083,1103,1123,1143,1163,1184,1203,1223,1243,1263,1283,1304,1323,1344,1363,1383,1404,1423,1443,1463,1484,1504,1523,1543,1564,1584,1603,1623,1643,1664,1684,1704,1723,1743,1763,1784,1803,1824,1843,1863,1883,1903,1924,1944,1964,1984,2004,2023,2043,2064,2084,2104,2123,2143,2162,2183,2204,2223,2243,2264,2282,2303,2323,2343,2363,2383,2403,2424,2443,2463,2484,2504,2523,2543,2562,2584,2603,2623,2643,2663,2684,2703,2723,2743,2764,2783,2804,2824,2844,2864,2884,2902,2923,2943,2963,2984,3003,3023,3044,3063,3083,3104,3123,3143,3163,3184,3203,3224,3244,3263,3283,3304,3324,3344,3362,3384,3403,3423,3443,3463,3483,3504,3524,3543,3563,3583,3604,3624,3643,3664,3682,3703,3723,3744,3763,3783,3803,3824,3843,3864,3883,3904,3922,3944,3964,3983,4004,4024,4043,4063,4082,4104,4123,4143,4163,4183,4204,4223,4243,4264,4282,4304,4324,4343,4364,4384,4403,4423,4443,4462,4483,4504,4522,4542,4564,4584,4603,4623,4644,4663,4684,4703,4724,4743,4763,4782,4804,4824,4842,4864,4883,4903,4924,4944,4963,4983,5002,5023,5043,5062,5083,5104,5124,5142,5164,5184,5202,5223,5243,5263,5282,5304,5324,5342,5362,5382,5403,5422,5444,5463,5484,5504,5523,5544,5563,5583,5602,5623,5644,5663,5683,5703,5723,5742,5763,5782,5803,5824,5843,5864,5884,5904,5924,5942,5963,5983,6004,6024,6044,6064,6082,6104,6124,6143,6162,6184,6204,6224,6244,6264,6283,6304,6323,6344,6364,6384,6403,6424,6444,6462,6484,6503,6524,6543,6563,6583,6603,6624,6642,6663,6684,6704,6723,6742,6764,6783,6803,6823,6842,6864,6883,6904,6923,6944,6964,6984,7003,7024,7043,7062,7082,7104,7124,7143,7164,7184,7204,7224,7244,7262,7284,7304,7324,7342,7364,7384,7404,7422,7444,7464,7482,7503,7524,7544,7564,7583,7603,7624,7643,7664,7683,7702,7724,7744,7763,7784,7803,7823,7844,7863,7883,7903,7923,7944,7962,7983,8002,8023,8044,8064,8083,8102,8124,8144,8163,8184,8203,8224,8244,8262,8283],"xSR":741.5,"ySR":469.95,"xT1":424.9,"yT1":0,"xT2":1058.1,"yT2":0,"toosoon":0,"cond_shown":"Incongruent","ratio_trial":300,"L_num":8,"L_den":10,"R_num":14,"R_den":28,"correct_side":1,"subjID":"sofiapulido2","gender":"1","school":"4","age":"9"},{"start_time":1552308498661,"click_time":1552308501168,"finger_time":1552308500769,"fix_duration":411.5512670333595,"trial":20,"RT":2108,"MT":399,"sideResp":2,"stimulus":[],"xmouse":[772,772,772,772,772,772,772,772,772,772,772,772,772,772,772,772,772,772,772,772,772,772,772,772,772,772,772,772,772,772,772,772,772,772,772,772,772,772,772,772,772,772,772,772,772,772,772,772,772,772,772,772,772,772,772,772,772,772,772,772,772,772,772,772,772,772,772,772,772,772,772,772,772,772,772,772,772,772,772,772,772,772,772,772,772,772,772,772,772,772,772,772,772,772,772,772,772,772,772,772,772,775,779,793,812,860,900,930,953,974,1005,1023,1036,1049,1058,1082,1099,1110,1119,1125,1134,1136,1138,1138,1138,1138],"ymouse":[519,519,519,519,519,519,519,519,519,519,519,519,519,519,519,519,519,519,519,519,519,519,519,519,519,519,519,519,519,519,519,519,519,519,519,519,519,519,519,519,519,519,519,519,519,519,519,519,519,519,519,519,519,519,519,519,519,519,519,519,519,519,519,519,519,519,519,519,519,519,519,519,519,519,519,519,519,519,519,519,519,519,519,519,519,519,519,519,519,519,519,519,519,519,519,519,519,519,519,519,519,518,517,515,512,500,479,459,440,419,371,344,320,298,278,243,220,205,191,178,150,140,128,118,109,98],"timestamp_mouse":[8,27,47,67,87,108,126,146,167,188,207,228,248,266,288,308,326,348,368,387,408,428,447,468,487,508,526,548,567,587,607,628,646,667,688,708,728,746,768,788,807,828,848,867,888,908,927,947,968,988,1007,1027,1047,1068,1087,1107,1127,1147,1167,1186,1207,1228,1246,1267,1288,1306,1328,1347,1366,1387,1408,1428,1446,1467,1488,1507,1528,1547,1568,1587,1608,1628,1647,1668,1688,1708,1727,1747,1768,1786,1808,1828,1847,1866,1887,1908,1928,1948,1968,1986,2007,2027,2048,2068,2087,2108,2128,2146,2166,2188,2207,2227,2247,2267,2288,2307,2327,2348,2366,2387,2408,2428,2447,2468,2489,2507],"xSR":741.5,"ySR":469.95,"xT1":424.9,"yT1":0,"xT2":1058.1,"yT2":0,"toosoon":0,"cond_shown":"Incongruent","ratio_trial":300,"L_num":8,"L_den":10,"R_num":14,"R_den":28,"correct_side":1,"subjID":"sofiapulido2","gender":"1","school":"4","age":"9"},{"start_time":1552308504526,"click_time":1552308506849,"finger_time":1552308506249,"fix_duration":376.30057124401793,"trial":21,"RT":1723,"MT":600,"sideResp":2,"stimulus":[],"xmouse":[795,795,795,795,795,795,795,795,795,795,795,795,795,795,795,795,795,795,795,795,795,795,795,795,795,795,795,795,795,795,795,795,795,795,795,795,795,795,795,795,795,795,795,795,795,795,795,795,795,795,795,795,795,795,795,795,795,795,795,795,795,795,795,795,795,795,795,795,795,795,795,795,795,795,795,795,795,795,795,795,795,795,795,796,803,811,818,837,844,856,861,876,888,909,914,918,923,933,940,950,967,977,988,994,999,1007,1013,1017,1023,1027,1028,1033,1042,1047,1052,1057,1060],"ymouse":[497,497,497,497,497,497,497,497,497,497,497,497,497,497,497,497,497,497,497,497,497,497,497,497,497,497,497,497,497,497,497,497,497,497,497,497,497,497,497,497,497,497,497,497,497,497,497,497,497,497,497,497,497,497,497,497,497,497,497,497,497,497,497,497,497,497,497,497,497,497,497,497,497,497,497,497,497,497,497,497,497,497,497,495,484,475,462,431,418,395,385,356,336,309,304,300,294,283,273,261,238,225,207,198,187,170,153,137,117,104,101,93,81,75,69,63,61],"timestamp_mouse":[8,21,42,62,82,103,122,143,163,181,202,223,242,263,282,302,323,342,363,383,401,421,442,462,483,503,522,541,561,583,603,622,641,662,683,703,723,742,763,782,803,823,842,863,883,902,923,942,963,982,1001,1022,1042,1063,1082,1103,1122,1142,1162,1182,1203,1223,1242,1263,1282,1302,1321,1343,1361,1382,1402,1422,1442,1463,1483,1503,1522,1543,1562,1583,1603,1622,1643,1662,1682,1702,1723,1743,1762,1783,1803,1822,1842,1861,1882,1902,1922,1943,1961,1982,2003,2022,2042,2061,2082,2103,2123,2142,2163,2182,2203,2222,2242,2261,2281,2302,2322],"xSR":741.5,"ySR":469.95,"xT1":424.9,"yT1":0,"xT2":1058.1,"yT2":0,"toosoon":0,"cond_shown":"Incongruent","ratio_trial":200,"L_num":7,"L_den":10,"R_num":14,"R_den":28,"correct_side":1,"subjID":"sofiapulido2","gender":"1","school":"4","age":"9"},{"start_time":1552308508374,"click_time":1552308512609,"finger_time":1552308510469,"fix_duration":324.0466363230796,"trial":22,"RT":2095,"MT":2140,"sideResp":1,"stimulus":[],"xmouse":[799,799,799,799,799,799,799,799,799,799,799,799,799,799,799,799,799,799,799,799,799,799,799,799,799,799,799,799,799,799,799,799,799,799,799,799,799,799,799,799,799,799,799,799,799,799,799,799,799,799,799,799,799,799,799,799,799,799,799,799,799,799,799,799,799,799,799,799,799,799,799,799,799,799,799,799,799,799,799,799,799,799,799,799,799,799,799,799,799,799,799,799,799,799,799,799,799,799,799,799,799,799,798,798,797,786,780,771,764,757,748,743,738,733,728,718,715,714,714,713,713,713,713,713,713,713,713,713,713,713,713,713,713,713,713,713,713,713,713,713,713,713,713,713,713,713,713,713,713,713,713,713,713,712,709,700,698,695,692,690,684,680,676,672,666,655,652,650,650,650,650,650,650,650,650,650,650,650,650,650,650,650,650,649,649,646,637,632,626,620,607,604,601,599,597,593,591,589,586,583,574,569,565,562,558,555,549,546,542,539,528,522],"ymouse":[480,480,480,480,480,480,480,480,480,480,480,480,480,480,480,480,480,480,480,480,480,480,480,480,480,480,480,480,480,480,480,480,480,480,480,480,480,480,480,480,480,480,480,480,480,480,480,480,480,480,480,480,480,480,480,480,480,480,480,480,480,480,480,480,480,480,480,480,480,480,480,480,480,480,480,480,480,480,480,480,480,480,480,480,480,480,480,480,480,480,480,480,480,480,480,480,480,480,480,480,480,480,476,474,468,437,419,399,380,362,330,312,295,277,259,227,218,213,209,208,207,207,207,207,207,207,207,207,207,207,207,207,207,207,207,207,207,207,207,207,207,207,207,207,207,207,207,207,207,207,207,207,207,206,202,192,188,183,178,174,165,159,152,147,139,125,121,119,118,118,118,118,118,118,118,118,118,118,118,118,118,118,118,118,118,118,118,118,118,120,122,122,122,123,123,124,124,124,124,124,122,120,119,118,117,115,112,111,108,105,97,92],"timestamp_mouse":[13,38,54,75,93,113,135,155,174,195,214,235,255,273,295,314,334,355,373,395,414,434,455,473,495,515,533,553,574,594,614,635,653,673,695,713,733,754,774,793,815,833,854,875,894,915,934,954,975,994,1014,1034,1054,1074,1093,1115,1134,1155,1174,1194,1215,1234,1254,1275,1294,1314,1335,1354,1373,1395,1415,1434,1453,1473,1495,1515,1535,1555,1575,1594,1615,1634,1655,1674,1694,1715,1734,1755,1775,1793,1815,1834,1854,1875,1895,1914,1933,1955,1975,1994,2015,2035,2054,2075,2095,2114,2134,2154,2174,2193,2215,2234,2254,2274,2295,2313,2334,2354,2375,2395,2414,2435,2455,2473,2495,2514,2534,2554,2574,2595,2614,2634,2654,2673,2695,2714,2734,2754,2773,2794,2814,2834,2855,2874,2895,2913,2934,2954,2974,2995,3014,3034,3054,3074,3095,3113,3134,3155,3174,3194,3214,3234,3254,3274,3294,3314,3334,3355,3375,3394,3413,3434,3454,3474,3495,3514,3534,3554,3574,3594,3614,3634,3655,3674,3695,3714,3735,3755,3775,3795,3813,3834,3854,3875,3894,3914,3934,3954,3974,3995,4014,4035,4055,4075,4095,4114,4134,4154,4174,4194,4214,4235],"xSR":741.5,"ySR":469.95,"xT1":424.9,"yT1":0,"xT2":1058.1,"yT2":0,"toosoon":0,"cond_shown":"Congruent","ratio_trial":100,"L_num":7,"L_den":14,"R_num":9,"R_den":15,"correct_side":2,"subjID":"sofiapulido2","gender":"1","school":"4","age":"9"},{"start_time":1552308513962,"click_time":1552308516449,"finger_time":1552308515708,"fix_duration":451.0909138734198,"trial":23,"RT":1746,"MT":741,"sideResp":2,"stimulus":[],"xmouse":[785,785,785,785,785,785,785,785,785,785,785,785,785,785,785,785,785,785,785,785,785,785,785,785,785,785,785,785,785,785,785,785,785,785,785,785,785,785,785,785,785,785,785,785,785,785,785,785,785,785,785,785,785,785,785,785,785,785,785,785,785,785,785,785,785,785,785,785,785,785,785,785,785,785,785,785,785,785,785,785,785,785,785,785,785,786,797,879,957,1045,1139,1299,1369,1467,1494,1494,1494,1494,1494,1494,1494,1494,1494,1494,1494,1494,1494,1494,1455,1407,1363,1331,1283,1259,1228,1210,1196,1180,1176,1173,1169,1165,1162,1159,1155],"ymouse":[535,535,535,535,535,535,535,535,535,535,535,535,535,535,535,535,535,535,535,535,535,535,535,535,535,535,535,535,535,535,535,535,535,535,535,535,535,535,535,535,535,535,535,535,535,534,534,534,534,534,534,534,534,534,534,534,534,534,534,534,534,534,534,534,534,534,534,534,534,534,534,534,534,534,534,534,534,534,534,534,534,534,534,534,534,532,521,465,418,367,307,197,136,41,12,12,12,12,12,12,12,12,12,12,12,12,12,12,29,58,79,94,109,115,119,121,122,122,122,120,116,109,105,101,96],"timestamp_mouse":[9,39,45,67,85,106,126,147,166,186,207,226,247,267,285,307,327,347,367,387,407,426,447,467,486,507,526,546,567,585,606,626,647,667,686,707,726,746,765,786,806,826,847,867,886,907,927,947,967,987,1007,1026,1047,1066,1087,1107,1125,1147,1166,1187,1207,1226,1247,1267,1285,1306,1326,1345,1367,1387,1407,1426,1447,1465,1487,1507,1526,1547,1565,1587,1607,1627,1647,1665,1687,1707,1726,1746,1766,1786,1806,1827,1846,1866,1887,1907,1927,1946,1966,1986,2006,2027,2046,2066,2087,2107,2126,2145,2166,2186,2206,2226,2246,2267,2287,2307,2326,2347,2366,2387,2407,2427,2447,2466,2487],"xSR":741.5,"ySR":469.95,"xT1":424.9,"yT1":0,"xT2":1058.1,"yT2":0,"toosoon":0,"cond_shown":"Incongruent","ratio_trial":100,"L_num":12,"L_den":24,"R_num":9,"R_den":15,"correct_side":2,"subjID":"sofiapulido2","gender":"1","school":"4","age":"9"},{"start_time":1552308519068,"click_time":1552308521129,"finger_time":1552308520408,"fix_duration":1156.9659850348,"trial":24,"RT":1340,"MT":721,"sideResp":2,"stimulus":[],"xmouse":[814,814,814,814,814,814,814,814,814,814,814,814,814,814,814,814,814,814,814,814,814,814,814,814,814,814,814,814,814,814,814,814,814,814,814,814,814,814,814,814,814,814,814,814,814,814,814,814,814,814,814,814,814,814,814,814,814,814,814,814,814,814,814,816,820,826,835,863,874,887,899,912,939,956,975,999,1039,1109,1140,1165,1185,1198,1215,1221,1226,1230,1234,1238,1238,1238,1238,1238,1238,1238,1236,1235,1231,1220,1211,1200,1186,1174,1161,1158],"ymouse":[528,528,528,528,528,528,528,528,528,528,528,528,528,528,528,528,528,528,528,528,528,528,528,528,528,528,528,528,528,528,528,528,528,528,528,528,528,528,528,528,528,528,528,528,528,528,528,528,528,528,528,528,528,528,528,528,528,528,528,528,528,528,528,525,524,521,515,495,485,474,463,449,418,399,382,359,323,262,231,204,179,162,139,131,122,115,108,97,96,96,96,96,96,95,95,94,93,89,85,79,71,63,52,49],"timestamp_mouse":[8,21,41,61,79,101,121,141,160,181,201,221,240,261,279,301,320,341,361,381,401,420,441,461,480,500,520,540,559,580,600,621,640,660,681,700,720,740,760,780,800,820,840,860,880,900,921,940,960,980,1000,1021,1041,1061,1080,1101,1119,1140,1160,1181,1201,1221,1239,1260,1280,1300,1320,1340,1360,1380,1400,1419,1440,1459,1480,1501,1521,1540,1561,1580,1600,1621,1640,1659,1680,1700,1720,1740,1761,1780,1801,1821,1841,1860,1879,1901,1921,1941,1961,1981,2000,2020,2040,2061],"xSR":741.5,"ySR":469.95,"xT1":424.9,"yT1":0,"xT2":1058.1,"yT2":0,"toosoon":0,"cond_shown":"Incongruent","ratio_trial":300,"L_num":2,"L_den":4,"R_num":6,"R_den":30,"correct_side":1,"subjID":"sofiapulido2","gender":"1","school":"4","age":"9"},{"start_time":1552308528913,"click_time":1552308532088,"finger_time":1552308531089,"fix_duration":902.436173346552,"trial":25,"RT":2176,"MT":999,"sideResp":1,"stimulus":[],"xmouse":[802,802,802,802,802,802,802,802,802,802,802,802,802,802,802,802,802,802,802,802,802,802,802,802,802,802,802,802,802,802,802,802,802,802,802,802,802,802,802,802,802,802,802,802,802,802,802,802,802,802,802,802,802,802,802,802,802,802,802,802,802,802,802,802,802,802,802,802,802,802,802,802,802,802,802,802,802,802,802,802,801,797,795,795,795,795,795,795,795,795,795,795,795,795,795,795,795,795,795,795,795,795,795,794,794,793,792,792,789,786,780,777,777,777,777,777,777,777,776,772,765,760,755,747,741,723,714,705,692,682,665,657,651,646,642,636,634,631,628,626,617,613,608,600,593,581,578,575,572,569,565,562,558,555,552,545,540,533,524],"ymouse":[505,505,505,505,505,505,505,505,505,505,505,505,505,505,505,505,505,505,505,505,505,505,505,505,505,505,505,505,505,505,505,505,505,505,505,505,505,505,505,505,505,505,505,505,505,505,505,505,505,505,505,505,505,505,505,505,505,505,505,505,505,505,505,505,505,505,505,505,505,505,505,505,505,505,505,505,505,505,505,505,505,507,508,508,508,508,508,508,508,508,508,508,508,508,508,508,508,508,508,508,508,508,508,506,503,492,485,478,462,451,432,426,425,425,425,425,425,424,423,414,399,391,382,367,356,326,313,301,283,271,245,234,225,218,210,202,198,194,188,186,170,160,149,136,124,108,104,100,97,93,88,86,84,82,80,78,77,75,73],"timestamp_mouse":[15,51,56,75,95,114,136,156,174,196,216,235,255,276,295,316,335,356,376,395,416,435,455,475,496,515,534,556,576,596,616,635,655,676,696,715,735,756,775,795,815,836,856,876,895,916,934,954,976,994,1015,1036,1055,1075,1095,1116,1136,1155,1175,1194,1215,1235,1255,1275,1296,1314,1335,1356,1376,1396,1415,1435,1456,1474,1496,1514,1534,1555,1576,1595,1615,1635,1655,1675,1696,1716,1735,1756,1775,1794,1816,1836,1856,1874,1896,1916,1935,1956,1976,1995,2015,2034,2055,2075,2095,2115,2136,2155,2176,2196,2215,2236,2256,2275,2295,2316,2335,2356,2376,2396,2415,2435,2456,2476,2495,2516,2534,2556,2575,2596,2615,2634,2655,2675,2695,2716,2735,2756,2776,2794,2815,2835,2856,2875,2896,2915,2935,2956,2975,2996,3015,3035,3056,3075,3095,3115,3135,3156,3175],"xSR":741.5,"ySR":469.95,"xT1":424.9,"yT1":0,"xT2":1058.1,"yT2":0,"toosoon":0,"cond_shown":"Incongruent","ratio_trial":100,"L_num":10,"L_den":25,"R_num":8,"R_den":16,"correct_side":2,"subjID":"sofiapulido2","gender":"1","school":"4","age":"9"},{"start_time":1552308539122,"click_time":1552308541328,"finger_time":1552308540748,"fix_duration":1392.4734476437109,"trial":26,"RT":1626,"MT":580,"sideResp":2,"stimulus":[],"xmouse":[800,800,800,800,800,800,800,800,800,800,800,800,800,800,800,800,800,796,791,786,781,780,780,780,780,780,780,780,780,780,780,780,780,779,777,777,776,776,776,776,776,776,776,776,776,776,776,776,776,776,776,776,776,776,776,776,776,776,776,776,776,776,776,776,776,775,775,775,775,775,775,775,775,775,775,775,775,776,789,804,822,864,893,936,1018,1074,1166,1194,1212,1224,1233,1239,1243,1243,1243,1240,1236,1220,1211,1201,1194,1186,1174,1172,1170,1170,1170,1170,1168,1163,1154],"ymouse":[494,494,494,494,494,494,494,494,494,494,494,494,494,494,494,494,494,496,502,506,508,510,510,510,510,510,510,510,510,510,510,510,510,510,510,510,510,510,510,510,510,510,510,510,510,510,510,510,510,510,510,510,510,510,510,510,510,510,510,510,510,510,510,510,510,510,510,510,510,510,510,510,510,510,510,510,510,509,497,486,475,451,433,409,362,329,273,251,235,223,211,198,184,179,174,169,165,149,138,123,110,97,79,76,75,75,75,74,74,72,68],"timestamp_mouse":[8,37,46,66,87,106,126,146,165,185,206,226,246,267,285,306,326,346,367,387,407,425,446,467,485,505,526,546,565,587,606,626,647,666,687,707,725,746,767,787,806,826,847,866,886,907,926,946,967,985,1007,1027,1047,1067,1087,1106,1126,1147,1165,1187,1206,1226,1246,1265,1287,1307,1325,1345,1366,1387,1407,1425,1445,1466,1487,1507,1527,1547,1567,1586,1607,1626,1645,1666,1686,1706,1726,1745,1766,1787,1806,1827,1846,1866,1886,1906,1926,1946,1966,1986,2006,2025,2046,2067,2086,2107,2126,2146,2167,2187,2206],"xSR":741.5,"ySR":469.95,"xT1":424.9,"yT1":0,"xT2":1058.1,"yT2":0,"toosoon":0,"cond_shown":"Congruent","ratio_trial":100,"L_num":6,"L_den":12,"R_num":15,"R_den":25,"correct_side":2,"subjID":"sofiapulido2","gender":"1","school":"4","age":"9"},{"start_time":1552308545807,"click_time":1552308547488,"finger_time":1552308547268,"fix_duration":536.5394902357207,"trial":27,"RT":1461,"MT":220,"sideResp":1,"stimulus":[],"xmouse":[780,780,780,780,780,780,780,780,780,780,780,780,780,780,780,780,780,780,780,780,780,780,780,780,780,780,780,780,780,780,780,780,780,780,780,780,780,780,780,780,780,780,780,780,780,780,780,780,780,780,780,780,780,780,780,780,780,780,780,780,780,780,780,780,780,780,780,780,778,775,769,761,750,734,694,667,645,612,580,569,559,551,543,529,521],"ymouse":[524,524,524,524,524,524,524,524,524,524,524,524,524,524,524,524,524,524,524,524,524,524,524,524,524,524,524,524,524,524,524,524,524,524,524,524,524,524,524,524,524,524,524,524,524,524,524,524,524,524,524,524,524,524,524,524,524,524,524,524,524,524,524,524,524,524,524,523,519,513,504,489,472,449,389,353,313,255,189,164,139,121,102,77,67],"timestamp_mouse":[8,21,41,61,82,100,121,142,161,182,200,220,241,262,281,302,322,342,360,381,401,422,442,461,482,501,521,540,562,581,602,622,642,662,680,702,722,741,760,781,801,821,841,861,881,902,922,940,961,981,1000,1020,1042,1062,1081,1101,1121,1140,1162,1181,1202,1222,1241,1262,1282,1301,1322,1341,1361,1382,1401,1420,1441,1461,1482,1501,1521,1540,1561,1582,1601,1621,1641,1661,1681],"xSR":741.5,"ySR":469.95,"xT1":424.9,"yT1":0,"xT2":1058.1,"yT2":0,"toosoon":0,"cond_shown":"Incongruent","ratio_trial":100,"L_num":9,"L_den":18,"R_num":6,"R_den":10,"correct_side":2,"subjID":"sofiapulido2","gender":"1","school":"4","age":"9"},{"start_time":1552308549168,"click_time":1552308551308,"finger_time":1552308550828,"fix_duration":300.01715948634944,"trial":28,"RT":1660,"MT":480,"sideResp":1,"stimulus":[],"xmouse":[790,790,790,790,790,789,788,786,785,785,785,785,785,785,785,785,785,785,785,785,785,785,785,785,785,785,785,785,785,785,785,785,785,785,785,785,785,785,785,785,785,785,785,785,785,785,785,785,785,785,785,785,785,785,785,785,785,785,785,785,785,785,785,785,785,785,785,785,785,785,785,785,785,785,785,785,784,784,784,783,774,762,741,704,617,578,541,534,523,519,519,519,519,519,519,519,519,519,522,525,528,528,527,525,524,523,521],"ymouse":[517,517,517,517,517,517,518,518,518,518,518,518,518,518,518,518,518,518,518,518,518,518,518,518,518,518,518,518,518,518,518,518,518,518,518,518,518,518,518,518,518,518,518,518,518,518,518,518,518,518,518,518,518,518,518,518,518,518,518,518,518,518,518,518,518,518,518,518,518,518,518,518,518,518,518,518,518,518,518,518,514,503,481,444,347,301,249,239,216,204,201,199,197,195,190,188,185,179,170,160,135,122,112,105,103,101,97],"timestamp_mouse":[20,40,59,81,101,120,139,161,181,201,219,239,260,281,300,320,341,361,379,399,421,441,461,480,500,519,541,561,581,601,620,640,660,680,699,721,741,760,780,799,820,841,860,879,899,919,941,961,980,1000,1019,1039,1060,1080,1100,1119,1141,1161,1180,1200,1221,1240,1259,1281,1301,1320,1340,1360,1379,1401,1420,1441,1459,1479,1500,1521,1541,1561,1581,1599,1620,1641,1660,1680,1701,1720,1740,1760,1781,1801,1821,1839,1860,1879,1901,1920,1940,1960,1981,2001,2019,2040,2060,2080,2101,2120,2140],"xSR":741.5,"ySR":469.95,"xT1":424.9,"yT1":0,"xT2":1058.1,"yT2":0,"toosoon":0,"cond_shown":"Incongruent","ratio_trial":200,"L_num":4,"L_den":30,"R_num":1,"R_den":3,"correct_side":2,"subjID":"sofiapulido2","gender":"1","school":"4","age":"9"},{"start_time":1552308552764,"click_time":1552308554648,"finger_time":1552308554248,"fix_duration":474.1625583077844,"trial":29,"RT":1484,"MT":400,"sideResp":2,"stimulus":[],"xmouse":[778,777,777,777,777,777,777,777,777,777,778,779,779,779,779,779,779,779,779,779,779,779,779,779,779,779,779,779,779,779,779,779,779,779,778,778,778,778,778,778,778,778,778,778,778,778,778,778,778,778,778,778,778,778,778,778,777,777,777,777,777,777,777,777,777,777,777,777,777,777,778,790,802,817,832,847,877,889,907,932,964,1020,1040,1058,1068,1078,1081,1081,1078,1074,1072,1071,1071,1071,1071],"ymouse":[512,513,513,513,513,513,513,510,507,506,504,499,497,495,494,493,492,492,492,492,492,492,492,492,492,492,492,492,492,492,492,492,490,490,490,490,490,490,490,490,490,490,490,490,490,490,490,490,490,490,490,490,490,490,490,490,488,487,486,483,483,483,483,483,483,483,483,483,483,483,482,478,474,470,468,465,455,447,433,414,386,317,289,260,239,212,182,168,155,142,131,116,108,100,90],"timestamp_mouse":[4,37,44,63,85,103,123,144,165,185,203,223,244,264,285,304,324,345,364,385,405,425,443,463,483,505,524,544,564,584,604,625,644,664,683,704,724,744,764,784,804,824,845,864,884,904,924,944,963,985,1004,1024,1044,1063,1084,1103,1124,1144,1164,1184,1203,1224,1244,1265,1285,1304,1324,1345,1363,1383,1405,1424,1445,1465,1484,1504,1523,1544,1564,1584,1605,1624,1644,1664,1683,1705,1723,1744,1764,1784,1804,1823,1844,1865,1884],"xSR":741.5,"ySR":469.95,"xT1":424.9,"yT1":0,"xT2":1058.1,"yT2":0,"toosoon":0,"cond_shown":"Congruent","ratio_trial":100,"L_num":8,"L_den":16,"R_num":2,"R_den":5,"correct_side":1,"subjID":"sofiapulido2","gender":"1","school":"4","age":"9"},{"start_time":1552308559399,"click_time":1552308562107,"finger_time":1552308561208,"fix_duration":309.37900127315754,"trial":30,"RT":1809,"MT":899,"sideResp":1,"stimulus":[],"xmouse":[782,782,782,782,782,782,782,782,782,782,782,782,782,782,782,782,782,782,782,782,782,782,781,781,781,781,781,781,781,781,781,781,781,781,781,781,781,781,781,779,779,779,779,779,779,779,779,779,779,779,779,779,779,779,779,779,779,779,779,779,779,779,779,779,779,779,779,779,779,779,778,778,778,778,778,778,778,778,778,778,778,778,778,778,778,778,779,782,788,792,765,719,662,594,522,362,362,362,362,362,362,362,362,362,362,362,362,362,362,362,116,131,143,151,158,172,178,184,191,197,213,221,232,244,255,279,293,307,320,335,376,393,408,416,424,434],"ymouse":[526,526,526,526,526,526,526,526,526,526,526,526,526,526,526,526,526,526,526,526,526,526,525,525,525,525,526,526,526,526,526,526,526,526,526,526,526,526,526,528,530,530,530,530,530,530,530,530,530,530,530,530,530,530,530,530,530,530,530,530,530,530,530,530,530,530,530,530,530,530,530,530,530,530,530,530,530,530,530,530,530,530,530,530,530,530,530,529,514,489,377,328,274,216,158,24,24,24,24,24,24,24,24,24,24,24,24,24,24,24,6,19,27,31,33,34,34,34,34,34,34,34,34,34,34,34,37,41,45,49,59,61,63,64,64,64],"timestamp_mouse":[11,36,49,70,89,110,130,149,168,190,210,228,250,270,289,310,330,348,370,390,410,430,448,468,490,509,528,549,570,588,609,630,648,669,689,710,729,750,770,790,809,830,849,868,890,909,930,948,969,990,1008,1029,1048,1070,1089,1109,1129,1149,1168,1190,1210,1229,1248,1269,1290,1309,1329,1348,1370,1389,1410,1429,1448,1470,1489,1510,1530,1550,1568,1589,1609,1630,1648,1669,1689,1709,1729,1749,1769,1789,1809,1830,1850,1870,1888,1909,1929,1949,1969,1990,2009,2029,2049,2069,2089,2109,2129,2148,2169,2190,2210,2229,2250,2270,2289,2309,2328,2349,2369,2390,2409,2430,2448,2468,2489,2509,2529,2550,2569,2590,2608,2629,2649,2670,2689,2708],"xSR":741.5,"ySR":469.95,"xT1":424.9,"yT1":0,"xT2":1058.1,"yT2":0,"toosoon":0,"cond_shown":"Incongruent","ratio_trial":200,"L_num":14,"L_den":30,"R_num":6,"R_den":9,"correct_side":2,"subjID":"sofiapulido2","gender":"1","school":"4","age":"9"},{"start_time":1552308571327,"click_time":1552308572588,"finger_time":1552308572489,"fix_duration":1017.433267714133,"trial":31,"RT":1162,"MT":99,"sideResp":1,"stimulus":[],"xmouse":[790,790,790,790,790,790,790,790,790,790,790,790,790,790,790,790,790,790,790,790,790,790,790,790,790,790,790,790,790,790,790,790,790,790,790,790,790,790,790,790,790,790,790,790,790,790,790,790,790,790,790,790,790,790,790,790,783,775,742,695,638,602,543,463],"ymouse":[539,539,539,539,539,539,539,539,539,539,539,539,539,539,539,539,539,539,539,539,539,539,539,539,539,539,539,539,539,539,539,539,539,539,539,539,539,539,539,539,539,539,539,539,539,539,539,539,539,539,539,539,539,539,539,539,532,517,461,352,225,178,115,35],"timestamp_mouse":[8,20,42,61,82,102,121,141,161,181,202,220,242,260,282,302,322,342,362,382,400,421,440,462,482,501,521,542,561,581,600,621,642,661,680,702,722,742,760,781,802,822,842,862,880,902,922,942,962,981,1001,1020,1041,1060,1080,1101,1121,1141,1162,1181,1200,1221,1240,1261],"xSR":741.5,"ySR":469.95,"xT1":424.9,"yT1":0,"xT2":1058.1,"yT2":0,"toosoon":0,"cond_shown":"Incongruent","ratio_trial":200,"L_num":11,"L_den":20,"R_num":3,"R_den":4,"correct_side":2,"subjID":"sofiapulido2","gender":"1","school":"4","age":"9"},{"start_time":1552308577413,"click_time":1552308579149,"finger_time":1552308578647,"fix_duration":1341.658024280295,"trial":32,"RT":1234,"MT":502,"sideResp":2,"stimulus":[],"xmouse":[778,778,778,778,778,778,778,778,778,778,778,778,778,778,778,778,778,778,778,777,777,777,777,777,777,777,777,777,777,777,777,777,777,777,777,777,777,777,777,777,777,777,777,776,775,774,772,772,772,771,771,767,766,766,766,766,766,766,767,771,786,806,826,855,889,933,1044,1096,1141,1177,1208,1248,1249,1249,1249,1249,1248,1246,1244,1237,1227,1203,1184,1174,1167,1161,1153],"ymouse":[502,502,502,502,502,502,502,502,502,502,502,502,502,502,502,502,502,503,503,504,504,504,504,504,504,504,504,504,504,504,504,504,504,504,504,504,504,504,504,504,504,504,504,504,505,506,508,509,509,509,509,509,508,508,508,508,508,505,502,495,474,455,438,413,379,335,224,174,125,90,68,48,47,45,42,39,33,30,27,26,24,23,23,23,23,25,28],"timestamp_mouse":[15,35,55,75,95,115,136,156,176,196,216,235,254,276,296,316,335,355,376,396,414,435,455,476,494,514,535,556,575,594,616,635,654,675,696,716,736,754,776,795,816,835,854,876,896,915,935,956,975,994,1015,1035,1055,1076,1095,1116,1135,1155,1175,1195,1216,1234,1254,1274,1295,1315,1335,1355,1375,1395,1415,1434,1455,1475,1495,1515,1535,1554,1575,1595,1614,1635,1655,1675,1695,1714,1735],"xSR":741.5,"ySR":469.95,"xT1":424.9,"yT1":0,"xT2":1058.1,"yT2":0,"toosoon":0,"cond_shown":"Congruent","ratio_trial":100,"L_num":1,"L_den":2,"R_num":3,"R_den":5,"correct_side":2,"subjID":"sofiapulido2","gender":"1","school":"4","age":"9"},{"start_time":1552308582803,"click_time":1552308585368,"finger_time":1552308584528,"fix_duration":1233.5094107988023,"trial":33,"RT":1725,"MT":840,"sideResp":2,"stimulus":[],"xmouse":[788,788,788,788,788,788,788,788,788,788,788,788,788,788,788,788,788,788,788,788,788,788,788,788,788,788,788,788,788,788,788,788,788,788,788,788,788,788,788,788,788,788,788,788,788,788,788,788,788,788,788,788,788,788,788,788,788,788,788,788,788,788,788,788,788,788,788,788,788,788,788,788,788,788,788,788,788,788,788,788,788,788,788,788,787,785,782,778,777,776,776,776,776,775,774,774,774,774,773,773,772,772,771,771,771,771,771,773,781,788,801,809,824,830,836,844,852,863,891,916,934,953,991,1011,1029,1051,1072,1090,1119],"ymouse":[501,501,501,501,501,501,501,501,501,501,501,501,501,501,501,501,501,501,501,501,501,501,501,501,501,501,501,501,501,501,501,501,501,501,501,501,501,501,501,501,501,501,501,501,501,501,501,501,501,501,501,501,501,501,501,501,501,501,501,501,501,501,501,501,501,501,501,501,501,501,501,501,501,501,501,501,501,501,501,501,501,501,495,490,484,478,464,452,451,446,444,437,429,425,424,423,423,423,423,423,423,423,423,423,423,423,421,420,410,401,388,380,356,343,328,313,298,283,255,233,220,207,183,172,161,150,138,125,94],"timestamp_mouse":[8,38,45,66,86,105,124,146,164,186,206,226,245,266,286,306,326,345,365,386,405,424,444,466,486,506,526,545,565,586,604,625,645,666,686,704,725,745,766,785,806,824,845,866,886,905,926,945,965,985,1005,1024,1045,1065,1086,1106,1126,1145,1166,1186,1205,1224,1245,1265,1284,1305,1325,1345,1364,1384,1406,1426,1445,1465,1485,1504,1525,1545,1566,1585,1604,1626,1645,1666,1685,1705,1725,1746,1765,1785,1806,1825,1846,1865,1885,1906,1924,1946,1964,1985,2005,2025,2046,2065,2086,2104,2126,2145,2166,2185,2206,2226,2245,2265,2285,2304,2326,2346,2366,2385,2406,2426,2446,2464,2485,2506,2525,2546,2565],"xSR":741.5,"ySR":469.95,"xT1":424.9,"yT1":0,"xT2":1058.1,"yT2":0,"toosoon":0,"cond_shown":"Congruent","ratio_trial":200,"L_num":9,"L_den":30,"R_num":13,"R_den":26,"correct_side":2,"subjID":"sofiapulido2","gender":"1","school":"4","age":"9"},{"start_time":1552308587722,"click_time":1552308589568,"finger_time":1552308588909,"fix_duration":250,"trial":34,"RT":1187,"MT":659,"sideResp":1,"stimulus":[],"xmouse":[786,786,786,786,786,786,786,786,786,786,786,786,786,786,786,786,786,786,786,786,786,786,786,786,786,786,786,785,785,785,785,785,785,785,785,785,785,785,785,785,785,785,785,785,785,785,785,785,785,785,785,785,785,785,785,785,785,785,785,783,779,776,775,775,774,774,773,763,751,740,725,706,648,628,607,591,576,557,549,545,536,534,527,527,526,526,525,522,519,517,511,510,497],"ymouse":[499,499,499,499,499,499,499,499,499,499,499,499,499,499,499,499,499,499,499,499,499,499,499,499,499,499,499,499,500,500,500,500,500,500,500,500,500,500,500,500,500,500,500,500,500,500,500,500,500,500,500,500,500,500,500,495,493,477,471,465,461,458,458,458,457,457,453,432,413,394,368,341,269,250,233,219,206,186,178,173,166,164,159,158,157,155,151,138,129,120,108,103,91],"timestamp_mouse":[8,26,56,67,87,105,126,147,167,187,206,226,247,265,286,306,327,347,366,386,407,427,446,467,486,507,527,547,566,586,607,627,645,666,686,707,725,747,767,786,805,826,846,867,885,906,926,947,965,987,1006,1027,1046,1066,1086,1107,1127,1146,1167,1187,1206,1227,1246,1266,1287,1307,1326,1346,1367,1386,1406,1427,1447,1467,1486,1506,1526,1546,1567,1586,1607,1627,1645,1665,1686,1705,1726,1746,1766,1786,1805,1826,1845],"xSR":741.5,"ySR":469.95,"xT1":424.9,"yT1":0,"xT2":1058.1,"yT2":0,"toosoon":0,"cond_shown":"Congruent","ratio_trial":200,"L_num":20,"L_den":25,"R_num":9,"R_den":15,"correct_side":1,"subjID":"sofiapulido2","gender":"1","school":"4","age":"9"},{"start_time":1552308593214,"click_time":1552308595468,"finger_time":1552308594908,"fix_duration":745.6862876837963,"trial":35,"RT":1694,"MT":560,"sideResp":2,"stimulus":[],"xmouse":[796,796,796,794,793,793,793,793,793,793,793,793,793,793,793,793,793,793,793,793,793,793,793,793,793,793,793,793,793,793,793,793,793,791,791,791,790,790,790,790,790,790,790,790,789,788,788,788,788,788,788,788,788,788,788,788,788,788,788,788,788,788,788,788,788,788,788,788,788,788,788,788,788,788,788,788,788,788,788,788,788,788,796,814,848,864,875,897,903,910,917,920,923,930,932,932,934,938,939,940,941,944,955,964,972,982,990,998,1020,1031,1043,1054,1066],"ymouse":[550,549,549,543,542,542,542,542,542,542,542,542,542,542,542,542,542,542,542,542,542,542,542,542,542,542,542,542,542,542,542,542,542,542,542,542,542,542,542,542,542,542,542,542,538,535,535,535,535,535,535,535,535,535,535,535,535,535,535,535,534,534,533,533,533,533,533,533,533,533,533,533,533,533,533,533,533,533,533,533,533,532,524,500,461,443,427,389,365,339,316,293,269,218,173,149,134,118,114,112,111,110,108,107,107,106,103,98,86,80,71,60,49],"timestamp_mouse":[15,38,54,75,93,114,135,154,174,195,214,234,255,274,295,314,333,354,373,395,414,435,454,474,493,515,534,554,575,593,615,635,654,674,695,714,734,755,774,793,815,835,855,875,893,913,933,954,974,993,1014,1034,1054,1074,1095,1115,1133,1155,1174,1194,1214,1235,1254,1274,1294,1314,1333,1353,1375,1395,1415,1434,1454,1475,1495,1515,1534,1553,1575,1595,1615,1633,1655,1674,1694,1715,1735,1755,1773,1793,1814,1835,1854,1875,1893,1914,1934,1955,1973,1994,2014,2034,2055,2073,2094,2115,2134,2154,2175,2193,2215,2234,2254],"xSR":741.5,"ySR":469.95,"xT1":424.9,"yT1":0,"xT2":1058.1,"yT2":0,"toosoon":0,"cond_shown":"Incongruent","ratio_trial":100,"L_num":10,"L_den":25,"R_num":8,"R_den":16,"correct_side":2,"subjID":"sofiapulido2","gender":"1","school":"4","age":"9"},{"start_time":1552308597312,"click_time":1552308598828,"finger_time":1552308598288,"fix_duration":1042.916245799455,"trial":36,"RT":976,"MT":540,"sideResp":2,"stimulus":[],"xmouse":[776,776,776,776,776,776,776,776,776,776,776,776,776,776,776,776,776,776,776,776,776,776,776,776,776,776,776,776,776,776,776,776,776,776,776,776,776,776,777,778,778,780,781,784,785,787,789,790,793,794,797,801,806,820,827,839,853,871,907,923,936,946,953,964,969,974,982,989,1007,1013,1019,1024,1028,1038,1048,1059],"ymouse":[509,509,509,509,509,509,509,509,509,509,509,509,509,509,509,509,509,509,509,509,509,509,509,509,509,509,509,509,509,509,509,509,509,509,509,509,509,509,508,505,503,501,497,490,486,484,479,474,466,460,452,441,430,397,378,353,323,281,213,187,163,145,132,116,109,104,99,95,84,80,78,76,75,72,71,69],"timestamp_mouse":[18,37,56,75,96,116,137,155,176,197,215,237,256,277,295,316,336,356,375,396,416,437,455,477,496,517,536,555,577,597,616,637,656,675,697,717,735,757,777,797,817,836,856,875,896,917,936,956,976,997,1016,1036,1055,1075,1096,1116,1136,1156,1176,1196,1215,1237,1255,1276,1295,1316,1335,1357,1376,1395,1416,1435,1456,1477,1495,1516],"xSR":741.5,"ySR":469.95,"xT1":424.9,"yT1":0,"xT2":1058.1,"yT2":0,"toosoon":0,"cond_shown":"Congruent","ratio_trial":300,"L_num":1,"L_den":5,"R_num":11,"R_den":22,"correct_side":2,"subjID":"sofiapulido2","gender":"1","school":"4","age":"9"},{"start_time":1552308600326,"click_time":1552308601867,"finger_time":1552308601548,"fix_duration":436.9970291160706,"trial":37,"RT":1222,"MT":319,"sideResp":2,"stimulus":[],"xmouse":[783,783,783,783,783,783,783,783,783,783,783,783,783,783,783,783,783,783,783,783,783,783,783,783,783,783,783,783,783,783,783,783,783,783,783,783,783,783,783,783,783,783,783,783,783,783,783,783,783,783,783,783,783,783,783,782,781,780,779,779,779,783,789,814,831,860,881,908,939,994,1014,1030,1041,1050,1052,1056,1058,1060],"ymouse":[524,524,524,524,524,524,524,524,524,524,524,524,524,524,524,524,524,524,524,524,524,524,524,524,524,524,524,524,524,524,524,524,524,524,524,524,524,524,524,524,524,524,524,524,524,524,524,524,524,524,524,524,524,524,524,523,521,516,502,491,478,462,443,400,374,329,294,253,218,156,136,121,113,104,102,98,94,91],"timestamp_mouse":[8,35,43,62,83,101,122,142,163,182,203,221,241,263,283,302,321,343,362,382,403,422,443,462,483,503,521,542,563,581,603,622,642,662,682,703,723,741,763,783,803,822,843,862,882,902,922,943,963,981,1002,1022,1043,1061,1083,1102,1122,1142,1162,1183,1202,1222,1243,1262,1281,1303,1323,1341,1362,1382,1401,1423,1442,1462,1481,1502,1522,1541],"xSR":741.5,"ySR":469.95,"xT1":424.9,"yT1":0,"xT2":1058.1,"yT2":0,"toosoon":0,"cond_shown":"Congruent","ratio_trial":300,"L_num":1,"L_den":5,"R_num":6,"R_den":12,"correct_side":2,"subjID":"sofiapulido2","gender":"1","school":"4","age":"9"},{"start_time":1552308603121,"click_time":1552308604808,"finger_time":1552308604408,"fix_duration":250,"trial":38,"RT":1287,"MT":400,"sideResp":1,"stimulus":[],"xmouse":[784,787,788,790,793,793,793,794,794,794,794,794,794,794,794,794,794,794,794,794,794,794,794,794,794,794,794,794,794,794,794,794,794,794,794,794,794,794,794,794,794,794,794,794,794,794,794,794,794,794,794,794,794,794,794,794,794,794,794,794,794,793,790,773,743,725,698,671,642,561,527,507,496,492,490,490,490,490,490,491,494,496,498,500,505],"ymouse":[538,535,533,531,528,528,528,527,527,527,527,527,527,527,527,527,527,527,527,527,527,527,527,527,527,527,527,527,527,527,527,527,527,527,527,527,527,527,527,527,527,527,527,527,527,527,527,527,527,527,527,527,527,527,527,527,527,527,527,527,527,521,515,488,445,424,392,355,316,222,182,159,146,139,133,132,131,131,131,127,122,117,109,102,81],"timestamp_mouse":[9,27,47,68,88,107,126,146,167,188,208,227,247,267,288,307,326,347,367,386,408,427,448,466,486,508,528,548,567,586,607,628,646,666,688,707,727,748,766,786,808,828,846,867,888,907,927,947,967,986,1007,1027,1047,1068,1088,1107,1127,1148,1168,1187,1207,1227,1248,1267,