[{"start_time":1552309121322,"click_time":1552309122585,"finger_time":1552309122024,"fix_duration":1313.7460928583557,"trial":0,"RT":702,"MT":561,"sideResp":2,"stimulus":"img/250/equaldotsize/R/10_Ratio_250_L_4_R_16.png","xmouse":[775,775,775,775,775,775,775,775,775,775,775,775,775,775,775,775,775,775,775,775,775,775,775,775,775,775,775,775,775,775,775,775,775,776,782,790,795,798,801,810,816,826,836,847,856,890,902,911,919,928,944,955,965,978,991,1019,1025,1028,1032,1042,1047,1053,1057,1062],"ymouse":[517,517,517,517,517,517,517,517,517,517,517,517,517,517,517,517,517,517,517,517,517,517,517,517,517,517,517,517,517,517,517,517,515,512,488,469,460,453,448,432,421,403,382,362,340,287,272,259,244,228,196,180,166,154,145,125,119,114,110,99,96,92,90,86],"timestamp_mouse":[9,35,43,62,82,103,122,142,163,182,203,224,243,262,283,304,322,342,362,383,402,423,442,462,482,502,522,542,563,584,604,623,643,663,683,702,723,743,763,783,802,822,843,862,882,903,923,942,962,982,1002,1023,1043,1062,1083,1103,1122,1143,1162,1183,1202,1222,1243,1263],"xSR":741.5,"ySR":500.5,"xT1":424.9,"yT1":0,"xT2":1058.1,"yT2":0,"toosoon":0,"cond_shown":"equaldotsize","ratio_trial":250,"smaller_num":"4","larger_num":"16","correct_side":2,"subjID":"sofiapulido 2","gender":"1","age":"9","school":"4","test":{"fix_dur":[250,1500],"timestim":300,"targets_dim":[100,100],"targets_relative_coord":[0.3,0.7],"size_stim":[880,420],"start_dim":[100,100],"size_start":[300,300],"size_fix":60,"samplingrate":20,"img_types":["equaldotsize","equaldotanddens","randomdotsizeEA"],"ratios":[250,500,750,900],"rep_conds":9,"nTrials":120,"trials_to_rest":500,"Trials_order":[24,49,46,83,43,95,15,70,11,25,110,39,102,107,62,52,56,75,30,114,27,42,76,38,115,74,72,98,41,119,61,51,78,13,91,66,109,112,87,67,6,86,84,22,50,104,108,37,3,5,117,71,116,48,92,45,33,20,40,36,65,89,100,28,18,79,44,111,12,19,34,93,77,63,103,113,85,53,17,101,4,21,23,31,59,7,81,54,105,35,118,57,96,26,73,47,64,94,82,68,106,32,99,90,60,16,10,2,69,9,58,14,29,0,55,97,88,80,8,1],"cond_shown":["equaldotsize","equaldotanddens","equaldotanddens","randomdotsizeEA","equaldotanddens","randomdotsizeEA","equaldotsize","equaldotanddens","randomdotsizeEA","equaldotanddens","randomdotsizeEA","equaldotsize","equaldotsize","randomdotsizeEA","randomdotsizeEA","equaldotanddens","randomdotsizeEA","equaldotsize","equaldotsize","equaldotsize","equaldotsize","equaldotsize","equaldotanddens","randomdotsizeEA","equaldotanddens","randomdotsizeEA","equaldotsize","randomdotsizeEA","randomdotsizeEA","randomdotsizeEA","equaldotanddens","equaldotsize","equaldotsize","equaldotanddens","equaldotanddens","equaldotsize","equaldotanddens","equaldotanddens","equaldotsize","equaldotanddens","equaldotsize","randomdotsizeEA","equaldotsize","equaldotanddens","randomdotsizeEA","randomdotsizeEA","equaldotsize","equaldotanddens","equaldotsize","randomdotsizeEA","equaldotsize","randomdotsizeEA","randomdotsizeEA","equaldotsize","randomdotsizeEA","equaldotsize","equaldotsize","randomdotsizeEA","equaldotanddens","equaldotsize","randomdotsizeEA","randomdotsizeEA","equaldotanddens","equaldotanddens","equaldotsize","equaldotanddens","randomdotsizeEA","equaldotsize","equaldotsize","equaldotanddens","equaldotanddens","equaldotsize","randomdotsizeEA","equaldotsize","equaldotanddens","randomdotsizeEA","equaldotanddens","randomdotsizeEA","randomdotsizeEA","randomdotsizeEA","equaldotanddens","equaldotsize","randomdotsizeEA","equaldotanddens","randomdotsizeEA","equaldotanddens","equaldotsize","equaldotsize","equaldotsize","randomdotsizeEA","equaldotanddens","equaldotsize","equaldotsize","randomdotsizeEA","equaldotanddens","randomdotsizeEA","equaldotanddens","equaldotanddens","equaldotanddens","randomdotsizeEA","equaldotanddens","randomdotsizeEA","equaldotsize","equaldotsize","equaldotsize","equaldotanddens","equaldotanddens","randomdotsizeEA","equaldotsize","equaldotsize","equaldotanddens","randomdotsizeEA","randomdotsizeEA","equaldotsize","equaldotanddens","equaldotanddens","equaldotanddens","randomdotsizeEA","randomdotsizeEA","equaldotanddens"],"ratio_trial":[250,250,900,900,750,900,500,900,900,250,250,500,750,900,250,500,750,500,750,750,500,750,500,250,750,250,250,250,500,900,250,500,750,250,750,750,250,500,500,750,750,250,250,900,250,750,250,250,500,500,900,900,750,250,750,900,900,750,500,250,500,500,500,500,750,750,750,500,250,750,900,900,500,500,750,500,250,500,500,500,500,900,900,750,900,750,900,750,900,900,900,900,250,250,250,900,500,900,900,750,900,750,500,750,250,500,900,250,900,900,900,250,500,250,750,250,500,750,750,250],"smaller_num":["4","4","18","9","3","18","1","9","9","3","2","5","6","18","3","3","3","5","15","6","9","3","9","2","12","3","4","1","10","18","5","9","6","1","12","6","5","4","5","3","18","3","3","18","1","9","3","1","5","9","18","18","15","6","3","18","9","6","9","2","6","10","5","4","12","3","15","9","3","15","18","18","4","6","6","2","2","9","9","3","1","18","9","15","18","3","18","15","9","18","18","18","2","5","3","18","4","9","9","3","18","3","6","18","4","9","18","2","18","18","18","3","1","3","18","2","5","3","15","3"],"larger_num":["16","16","20","10","4","20","2","10","10","12","8","10","8","20","12","6","4","10","20","8","18","4","18","8","16","12","16","4","20","20","20","18","8","4","16","8","20","8","10","4","24","12","12","20","4","12","12","4","10","18","20","20","20","24","4","20","10","8","18","8","12","20","10","8","16","4","20","18","12","20","20","20","8","12","8","4","8","18","18","6","2","20","10","20","20","4","20","20","10","20","20","20","8","20","12","20","8","10","10","4","20","4","12","24","16","18","20","8","20","20","20","12","2","12","24","8","10","4","20","12"],"correct_side":[2,1,1,2,1,1,2,2,1,1,1,2,1,1,2,2,1,1,1,1,2,1,1,1,2,2,2,2,2,2,2,1,1,2,2,1,2,1,2,1,1,2,1,1,2,2,1,2,2,2,2,1,1,1,1,2,2,1,2,1,1,2,1,1,2,1,2,2,1,2,1,1,1,1,1,1,2,2,2,2,2,2,2,2,2,1,1,2,2,2,1,2,1,2,2,1,1,1,2,1,1,2,1,1,2,1,1,1,1,1,1,2,2,2,1,1,1,1,2,2],"img_shown":["img/250/equaldotsize/R/10_Ratio_250_L_4_R_16.png","img/250/equaldotanddens/L/2_Ratio_250_L_16_R_4.png","img/900/equaldotanddens/L/4_Ratio_900_L_20_R_18.png","img/900/randomdotsizeEA/R/5_Ratio_900_L_9_R_10.png","img/750/equaldotanddens/L/9_Ratio_750_L_4_R_3.png","img/900/randomdotsizeEA/L/10_Ratio_900_L_20_R_18.png","img/500/equaldotsize/R/12_Ratio_500_L_1_R_2.png","img/900/equaldotanddens/R/7_Ratio_900_L_9_R_10.png","img/900/randomdotsizeEA/L/1_Ratio_900_L_10_R_9.png","img/250/equaldotanddens/L/14_Ratio_250_L_12_R_3.png","img/250/randomdotsizeEA/L/1_Ratio_250_L_8_R_2.png","img/500/equaldotsize/R/14_Ratio_500_L_5_R_10.png","img/750/equaldotsize/L/13_Ratio_750_L_8_R_6.png","img/900/randomdotsizeEA/L/4_Ratio_900_L_20_R_18.png","img/250/randomdotsizeEA/R/11_Ratio_250_L_3_R_12.png","img/500/equaldotanddens/R/2_Ratio_500_L_3_R_6.png","img/750/randomdotsizeEA/L/10_Ratio_750_L_4_R_3.png","img/500/equaldotsize/L/7_Ratio_500_L_10_R_5.png","img/750/equaldotsize/L/1_Ratio_750_L_20_R_15.png","img/750/equaldotsize/L/13_Ratio_750_L_8_R_6.png","img/500/equaldotsize/R/1_Ratio_500_L_9_R_18.png","img/750/equaldotsize/L/10_Ratio_750_L_4_R_3.png","img/500/equaldotanddens/L/4_Ratio_500_L_18_R_9.png","img/250/randomdotsizeEA/L/1_Ratio_250_L_8_R_2.png","img/750/equaldotanddens/R/11_Ratio_750_L_12_R_16.png","img/250/randomdotsizeEA/R/11_Ratio_250_L_3_R_12.png","img/250/equaldotsize/R/10_Ratio_250_L_4_R_16.png","img/250/randomdotsizeEA/R/8_Ratio_250_L_1_R_4.png","img/500/randomdotsizeEA/R/3_Ratio_500_L_10_R_20.png","img/900/randomdotsizeEA/R/13_Ratio_900_L_18_R_20.png","img/250/equaldotanddens/R/12_Ratio_250_L_5_R_20.png","img/500/equaldotsize/L/4_Ratio_500_L_18_R_9.png","img/750/equaldotsize/L/13_Ratio_750_L_8_R_6.png","img/250/equaldotanddens/R/8_Ratio_250_L_1_R_4.png","img/750/equaldotanddens/R/11_Ratio_750_L_12_R_16.png","img/750/equaldotsize/L/14_Ratio_750_L_8_R_6.png","img/250/equaldotanddens/R/12_Ratio_250_L_5_R_20.png","img/500/equaldotanddens/L/8_Ratio_500_L_8_R_4.png","img/500/equaldotsize/R/14_Ratio_500_L_5_R_10.png","img/750/equaldotanddens/L/8_Ratio_750_L_4_R_3.png","img/750/equaldotsize/L/6_Ratio_750_L_24_R_18.png","img/250/randomdotsizeEA/R/4_Ratio_250_L_3_R_12.png","img/250/equaldotsize/L/15_Ratio_250_L_12_R_3.png","img/900/equaldotanddens/L/4_Ratio_900_L_20_R_18.png","img/250/randomdotsizeEA/R/8_Ratio_250_L_1_R_4.png","img/750/randomdotsizeEA/R/15_Ratio_750_L_9_R_12.png","img/250/equaldotsize/L/14_Ratio_250_L_12_R_3.png","img/250/equaldotanddens/R/8_Ratio_250_L_1_R_4.png","img/500/equaldotsize/R/14_Ratio_500_L_5_R_10.png","img/500/randomdotsizeEA/R/1_Ratio_500_L_9_R_18.png","img/900/equaldotsize/R/9_Ratio_900_L_18_R_20.png","img/900/randomdotsizeEA/L/2_Ratio_900_L_20_R_18.png","img/750/randomdotsizeEA/L/1_Ratio_750_L_20_R_15.png","img/250/equaldotsize/L/5_Ratio_250_L_24_R_6.png","img/750/randomdotsizeEA/L/8_Ratio_750_L_4_R_3.png","img/900/equaldotsize/R/9_Ratio_900_L_18_R_20.png","img/900/equaldotsize/R/7_Ratio_900_L_9_R_10.png","img/750/randomdotsizeEA/L/13_Ratio_750_L_8_R_6.png","img/500/equaldotanddens/R/1_Ratio_500_L_9_R_18.png","img/250/equaldotsize/L/7_Ratio_250_L_8_R_2.png","img/500/randomdotsizeEA/L/13_Ratio_500_L_12_R_6.png","img/500/randomdotsizeEA/R/3_Ratio_500_L_10_R_20.png","img/500/equaldotanddens/L/7_Ratio_500_L_10_R_5.png","img/500/equaldotanddens/L/8_Ratio_500_L_8_R_4.png","img/750/equaldotsize/R/11_Ratio_750_L_12_R_16.png","img/750/equaldotanddens/L/9_Ratio_750_L_4_R_3.png","img/750/randomdotsizeEA/R/3_Ratio_750_L_15_R_20.png","img/500/equaldotsize/R/6_Ratio_500_L_9_R_18.png","img/250/equaldotsize/L/14_Ratio_250_L_12_R_3.png","img/750/equaldotanddens/R/3_Ratio_750_L_15_R_20.png","img/900/equaldotanddens/L/4_Ratio_900_L_20_R_18.png","img/900/equaldotsize/L/2_Ratio_900_L_20_R_18.png","img/500/randomdotsizeEA/L/8_Ratio_500_L_8_R_4.png","img/500/equaldotsize/L/13_Ratio_500_L_12_R_6.png","img/750/equaldotanddens/L/14_Ratio_750_L_8_R_6.png","img/500/randomdotsizeEA/L/5_Ratio_500_L_4_R_2.png","img/250/equaldotanddens/R/13_Ratio_250_L_2_R_8.png","img/500/randomdotsizeEA/R/6_Ratio_500_L_9_R_18.png","img/500/randomdotsizeEA/R/6_Ratio_500_L_9_R_18.png","img/500/randomdotsizeEA/R/2_Ratio_500_L_3_R_6.png","img/500/equaldotanddens/R/15_Ratio_500_L_1_R_2.png","img/900/equaldotsize/R/13_Ratio_900_L_18_R_20.png","img/900/randomdotsizeEA/R/15_Ratio_900_L_9_R_10.png","img/750/equaldotanddens/R/4_Ratio_750_L_15_R_20.png","img/900/randomdotsizeEA/R/14_Ratio_900_L_18_R_20.png","img/750/equaldotanddens/L/9_Ratio_750_L_4_R_3.png","img/900/equaldotsize/L/8_Ratio_900_L_20_R_18.png","img/750/equaldotsize/R/4_Ratio_750_L_15_R_20.png","img/900/equaldotsize/R/3_Ratio_900_L_9_R_10.png","img/900/randomdotsizeEA/R/12_Ratio_900_L_18_R_20.png","img/900/equaldotanddens/L/10_Ratio_900_L_20_R_18.png","img/900/equaldotsize/R/11_Ratio_900_L_18_R_20.png","img/250/equaldotsize/L/3_Ratio_250_L_8_R_2.png","img/250/randomdotsizeEA/R/12_Ratio_250_L_5_R_20.png","img/250/equaldotanddens/R/4_Ratio_250_L_3_R_12.png","img/900/randomdotsizeEA/L/8_Ratio_900_L_20_R_18.png","img/500/equaldotanddens/L/8_Ratio_500_L_8_R_4.png","img/900/equaldotanddens/L/1_Ratio_900_L_10_R_9.png","img/900/equaldotanddens/R/6_Ratio_900_L_9_R_10.png","img/750/randomdotsizeEA/L/9_Ratio_750_L_4_R_3.png","img/900/equaldotanddens/L/2_Ratio_900_L_20_R_18.png","img/750/randomdotsizeEA/R/12_Ratio_750_L_3_R_4.png","img/500/equaldotsize/L/13_Ratio_500_L_12_R_6.png","img/750/equaldotsize/L/6_Ratio_750_L_24_R_18.png","img/250/equaldotsize/R/10_Ratio_250_L_4_R_16.png","img/500/equaldotanddens/L/4_Ratio_500_L_18_R_9.png","img/900/equaldotanddens/L/4_Ratio_900_L_20_R_18.png","img/250/randomdotsizeEA/L/1_Ratio_250_L_8_R_2.png","img/900/equaldotsize/L/10_Ratio_900_L_20_R_18.png","img/900/equaldotsize/L/2_Ratio_900_L_20_R_18.png","img/900/equaldotanddens/L/2_Ratio_900_L_20_R_18.png","img/250/randomdotsizeEA/R/4_Ratio_250_L_3_R_12.png","img/500/randomdotsizeEA/R/15_Ratio_500_L_1_R_2.png","img/250/equaldotsize/R/9_Ratio_250_L_3_R_12.png","img/750/equaldotanddens/L/6_Ratio_750_L_24_R_18.png","img/250/equaldotanddens/L/1_Ratio_250_L_8_R_2.png","img/500/equaldotanddens/L/7_Ratio_500_L_10_R_5.png","img/750/randomdotsizeEA/L/9_Ratio_750_L_4_R_3.png","img/750/randomdotsizeEA/R/5_Ratio_750_L_15_R_20.png","img/250/equaldotanddens/R/9_Ratio_250_L_3_R_12.png"],"Rat0":[["12_Ratio_0_L_9_R_0.png","13_Ratio_0_L_6_R_0.png","5_Ratio_0_L_2_R_0.png","6_Ratio_0_L_4_R_0.png","8_Ratio_0_L_6_R_0.png"],["1_Ratio_0_L_0_R_17.png","10_Ratio_0_L_0_R_22.png","11_Ratio_0_L_0_R_1.png","14_Ratio_0_L_0_R_24.png","15_Ratio_0_L_0_R_4.png","2_Ratio_0_L_0_R_5.png","3_Ratio_0_L_0_R_17.png","4_Ratio_0_L_0_R_7.png","7_Ratio_0_L_0_R_19.png","9_Ratio_0_L_0_R_15.png"]],"Rat250":[["1_Ratio_250_L_8_R_2.png","14_Ratio_250_L_12_R_3.png","15_Ratio_250_L_12_R_3.png","2_Ratio_250_L_16_R_4.png","3_Ratio_250_L_8_R_2.png","5_Ratio_250_L_24_R_6.png","7_Ratio_250_L_8_R_2.png"],["10_Ratio_250_L_4_R_16.png","11_Ratio_250_L_3_R_12.png","12_Ratio_250_L_5_R_20.png","13_Ratio_250_L_2_R_8.png","4_Ratio_250_L_3_R_12.png","6_Ratio_250_L_6_R_24.png","8_Ratio_250_L_1_R_4.png","9_Ratio_250_L_3_R_12.png"]],"Rat500":[["10_Ratio_500_L_4_R_2.png","11_Ratio_500_L_12_R_6.png","13_Ratio_500_L_12_R_6.png","4_Ratio_500_L_18_R_9.png","5_Ratio_500_L_4_R_2.png","7_Ratio_500_L_10_R_5.png","8_Ratio_500_L_8_R_4.png"],["1_Ratio_500_L_9_R_18.png","12_Ratio_500_L_1_R_2.png","14_Ratio_500_L_5_R_10.png","15_Ratio_500_L_1_R_2.png","2_Ratio_500_L_3_R_6.png","3_Ratio_500_L_10_R_20.png","6_Ratio_500_L_9_R_18.png","9_Ratio_500_L_2_R_4.png"]],"Rat750":[["1_Ratio_750_L_20_R_15.png","10_Ratio_750_L_4_R_3.png","13_Ratio_750_L_8_R_6.png","14_Ratio_750_L_8_R_6.png","6_Ratio_750_L_24_R_18.png","8_Ratio_750_L_4_R_3.png","9_Ratio_750_L_4_R_3.png"],["11_Ratio_750_L_12_R_16.png","12_Ratio_750_L_3_R_4.png","15_Ratio_750_L_9_R_12.png","2_Ratio_750_L_6_R_8.png","3_Ratio_750_L_15_R_20.png","4_Ratio_750_L_15_R_20.png","5_Ratio_750_L_15_R_20.png","7_Ratio_750_L_3_R_4.png"]],"Rat900":[["1_Ratio_900_L_10_R_9.png","10_Ratio_900_L_20_R_18.png","2_Ratio_900_L_20_R_18.png","4_Ratio_900_L_20_R_18.png","8_Ratio_900_L_20_R_18.png"],["11_Ratio_900_L_18_R_20.png","12_Ratio_900_L_18_R_20.png","13_Ratio_900_L_18_R_20.png","14_Ratio_900_L_18_R_20.png","15_Ratio_900_L_9_R_10.png","3_Ratio_900_L_9_R_10.png","5_Ratio_900_L_9_R_10.png","6_Ratio_900_L_9_R_10.png","7_Ratio_900_L_9_R_10.png","9_Ratio_900_L_18_R_20.png"]],"Rat1000":[["10_Ratio_1000_L_16_R_16.png","11_Ratio_1000_L_6_R_6.png","12_Ratio_1000_L_14_R_14.png","13_Ratio_1000_L_20_R_20.png","15_Ratio_1000_L_15_R_15.png","2_Ratio_1000_L_17_R_17.png","4_Ratio_1000_L_9_R_9.png","5_Ratio_1000_L_6_R_6.png","6_Ratio_1000_L_19_R_19.png","8_Ratio_1000_L_14_R_14.png","9_Ratio_1000_L_25_R_25.png"],["1_Ratio_1000_L_1_R_1.png","14_Ratio_1000_L_17_R_17.png","3_Ratio_1000_L_17_R_17.png","7_Ratio_1000_L_6_R_6.png"]]}},{"start_time":1552309124991,"click_time":1552309125965,"finger_time":1552309125604,"fix_duration":904.9956623891477,"trial":1,"RT":613,"MT":361,"sideResp":1,"stimulus":"img/250/equaldotanddens/L/2_Ratio_250_L_16_R_4.png","xmouse":[760,760,760,760,760,760,760,760,760,760,760,760,760,760,760,760,760,760,760,760,760,760,760,760,760,760,760,760,760,759,743,703,682,665,649,638,625,619,614,602,594,577,571,565,557,550,533,526,520],"ymouse":[506,506,506,506,506,506,506,506,506,506,506,506,506,506,506,506,506,506,506,506,506,506,506,506,506,506,506,506,499,491,455,389,354,323,294,268,225,207,190,167,153,124,113,102,94,85,71,63,56],"timestamp_mouse":[13,35,54,75,94,114,133,153,173,195,214,234,253,273,294,314,333,353,373,393,415,434,453,473,494,514,533,554,574,594,613,633,654,674,694,713,734,754,774,795,814,833,853,874,894,915,933,954,973],"xSR":741.5,"ySR":469.95,"xT1":424.9,"yT1":0,"xT2":1058.1,"yT2":0,"toosoon":0,"cond_shown":"equaldotanddens","ratio_trial":250,"smaller_num":"4","larger_num":"16","correct_side":1,"subjID":"sofiapulido 2","gender":"1","age":"9","school":"4"},{"start_time":1552309128804,"click_time":1552309129705,"finger_time":1552309129344,"fix_duration":738.5174662188462,"trial":2,"RT":540,"MT":361,"sideResp":2,"stimulus":"img/900/equaldotanddens/L/4_Ratio_900_L_20_R_18.png","xmouse":[804,805,807,807,808,808,808,808,808,809,809,809,809,809,809,809,809,809,809,809,809,809,809,809,809,810,815,827,838,847,857,865,869,870,872,879,895,915,933,955,976,1018,1036,1050,1060,1066],"ymouse":[525,523,518,518,516,515,514,513,512,511,511,511,511,511,511,511,511,511,511,511,511,511,511,511,511,507,491,469,449,432,415,382,366,352,339,325,300,275,255,229,205,156,139,126,111,98],"timestamp_mouse":[3,21,52,60,81,101,120,141,160,182,202,220,241,261,280,301,321,341,361,381,400,421,441,461,481,501,521,540,560,582,600,621,641,660,681,701,721,740,760,780,801,822,840,861,882,901],"xSR":741.5,"ySR":469.95,"xT1":424.9,"yT1":0,"xT2":1058.1,"yT2":0,"toosoon":0,"cond_shown":"equaldotanddens","ratio_trial":900,"smaller_num":"18","larger_num":"20","correct_side":1,"subjID":"sofiapulido 2","gender":"1","age":"9","school":"4"},{"start_time":1552309131945,"click_time":1552309134164,"finger_time":1552309133604,"fix_duration":1038.043022144531,"trial":3,"RT":1659,"MT":560,"sideResp":1,"stimulus":"img/900/randomdotsizeEA/R/5_Ratio_900_L_9_R_10.png","xmouse":[756,756,756,756,756,756,756,756,756,756,756,756,756,756,756,756,756,756,756,756,756,756,756,756,756,756,756,756,756,756,756,756,756,756,756,756,756,756,756,756,756,756,756,756,756,756,756,756,756,756,756,756,756,756,756,756,756,756,756,756,756,756,756,756,756,756,756,756,756,756,756,756,756,756,756,756,756,756,756,756,755,749,742,730,713,673,652,631,601,583,554,545,539,533,529,522,519,516,511,504,495,491,489,488,488,488,487,485,483,482,481,481],"ymouse":[527,527,527,527,527,527,527,527,527,527,527,527,527,527,527,527,527,527,527,527,527,527,527,527,527,527,527,527,527,527,527,527,527,527,527,527,527,527,527,527,527,527,527,527,527,527,527,527,527,527,527,527,527,527,527,527,527,527,527,527,527,527,527,527,527,527,527,527,527,527,527,527,527,527,527,527,527,527,527,527,527,525,521,514,504,479,464,448,425,410,386,379,369,361,354,340,332,324,313,292,261,246,233,221,206,175,159,144,130,117,104,99],"timestamp_mouse":[1,21,41,59,79,99,121,139,159,179,199,219,239,259,279,299,320,339,360,380,400,420,439,459,481,500,520,540,561,581,599,619,640,660,679,700,720,739,760,780,799,821,840,859,880,900,921,940,960,979,1000,1019,1039,1059,1080,1101,1119,1140,1160,1180,1201,1220,1240,1259,1280,1301,1320,1339,1361,1381,1400,1420,1440,1459,1480,1500,1520,1539,1559,1580,1601,1619,1640,1659,1680,1699,1719,1740,1759,1780,1799,1820,1840,1860,1879,1899,1920,1939,1960,1979,1999,2020,2039,2059,2080,2099,2120,2139,2159,2180,2199,2219],"xSR":741.5,"ySR":469.95,"xT1":424.9,"yT1":0,"xT2":1058.1,"yT2":0,"toosoon":0,"cond_shown":"randomdotsizeEA","ratio_trial":900,"smaller_num":"9","larger_num":"10","correct_side":2,"subjID":"sofiapulido 2","gender":"1","age":"9","school":"4"},{"start_time":1552309135622,"click_time":1552309137265,"finger_time":1552309136824,"fix_duration":596.3077546837171,"trial":4,"RT":1202,"MT":441,"sideResp":1,"stimulus":"img/750/equaldotanddens/L/9_Ratio_750_L_4_R_3.png","xmouse":[770,770,770,770,770,770,770,770,770,770,770,770,770,770,770,770,770,770,770,770,770,770,770,770,770,770,770,770,770,770,770,770,770,770,770,771,771,771,771,771,771,771,771,771,771,771,771,771,771,771,771,771,771,771,771,771,766,761,754,747,734,702,659,625,589,558,502,483,460,442,427,407,400,396,395,394,394,394,396,399,405,422,428],"ymouse":[516,516,516,516,516,516,516,516,516,516,516,516,516,516,516,516,516,516,516,516,516,516,516,516,516,516,516,516,516,516,516,516,516,516,514,511,509,509,509,509,509,509,509,509,509,509,509,509,509,509,509,509,509,509,509,507,498,492,482,472,455,418,376,342,306,277,222,201,176,155,137,108,97,85,78,71,63,59,58,56,55,53,52],"timestamp_mouse":[8,23,43,63,82,103,123,142,162,183,203,222,242,263,282,302,322,343,363,383,403,422,442,462,483,503,524,543,563,583,602,622,643,662,683,703,722,743,763,784,804,822,843,862,883,903,922,943,962,983,1003,1022,1044,1063,1082,1103,1122,1143,1162,1183,1202,1223,1242,1262,1282,1303,1323,1343,1364,1382,1403,1422,1444,1462,1483,1502,1523,1543,1563,1582,1602,1622,1643],"xSR":741.5,"ySR":469.95,"xT1":424.9,"yT1":0,"xT2":1058.1,"yT2":0,"toosoon":0,"cond_shown":"equaldotanddens","ratio_trial":750,"smaller_num":"3","larger_num":"4","correct_side":1,"subjID":"sofiapulido 2","gender":"1","age":"9","school":"4"},{"start_time":1552309139275,"click_time":1552309140785,"finger_time":1552309140265,"fix_duration":969.6964222760666,"trial":5,"RT":990,"MT":520,"sideResp":2,"stimulus":"img/900/randomdotsizeEA/L/10_Ratio_900_L_20_R_18.png","xmouse":[759,759,759,759,759,759,759,759,758,758,758,758,758,758,758,758,758,758,758,758,758,758,758,758,758,758,758,758,758,758,758,758,758,758,758,758,758,758,758,758,758,758,758,758,758,758,759,761,766,788,799,819,840,866,872,877,882,884,901,913,920,925,931,934,939,943,948,954,963,989,998,1008,1017,1029,1056,1071],"ymouse":[536,536,536,536,536,536,536,536,536,536,536,536,536,536,536,536,536,536,536,536,536,536,536,536,536,536,536,536,536,536,536,536,537,537,537,537,537,537,537,537,537,537,537,537,537,533,531,524,512,461,436,402,363,306,285,267,251,238,213,195,183,172,163,156,148,144,139,135,131,115,110,102,95,89,81,78],"timestamp_mouse":[9,34,51,70,91,110,130,149,170,189,210,230,250,270,290,310,329,351,370,390,410,429,451,470,489,510,529,549,570,590,609,630,649,670,691,711,731,750,770,789,810,830,850,870,890,910,930,950,971,990,1009,1030,1050,1071,1089,1110,1129,1149,1171,1189,1210,1230,1250,1270,1289,1309,1330,1349,1370,1390,1409,1429,1451,1469,1490,1510],"xSR":741.5,"ySR":469.95,"xT1":424.9,"yT1":0,"xT2":1058.1,"yT2":0,"toosoon":0,"cond_shown":"randomdotsizeEA","ratio_trial":900,"smaller_num":"18","larger_num":"20","correct_side":1,"subjID":"sofiapulido 2","gender":"1","age":"9","school":"4"},{"start_time":1552309142156,"click_time":1552309143704,"finger_time":1552309143064,"fix_duration":250,"trial":6,"RT":908,"MT":640,"sideResp":2,"stimulus":"img/500/equaldotsize/R/12_Ratio_500_L_1_R_2.png","xmouse":[778,778,778,778,778,777,777,777,777,777,777,777,777,777,777,777,777,777,777,777,777,777,777,777,777,777,777,777,777,777,777,777,777,777,777,777,777,777,777,777,777,777,777,778,781,786,790,795,802,812,843,859,898,923,946,984,995,1002,1009,1012,1015,1016,1017,1018,1019,1022,1024,1028,1031,1035,1046,1050,1054,1055,1057,1058,1058,1059],"ymouse":[489,489,489,489,489,489,489,489,489,489,489,489,489,489,489,489,489,489,489,489,489,489,489,489,489,489,489,489,489,489,489,489,489,489,489,489,489,489,489,489,489,489,489,488,483,469,457,442,423,400,348,321,268,228,197,135,110,91,74,62,52,50,48,45,42,38,36,34,32,30,26,25,25,25,25,25,25,25],"timestamp_mouse":[8,40,49,68,89,109,128,148,169,190,208,229,249,268,289,308,328,348,370,389,409,429,448,468,489,508,529,548,568,588,608,630,649,668,688,708,728,749,768,789,809,828,848,869,889,908,929,949,968,988,1008,1029,1049,1069,1089,1108,1129,1148,1169,1188,1208,1229,1249,1269,1289,1308,1329,1349,1369,1389,1408,1429,1449,1468,1489,1508,1528,1548],"xSR":741.5,"ySR":469.95,"xT1":424.9,"yT1":0,"xT2":1058.1,"yT2":0,"toosoon":0,"cond_shown":"equaldotsize","ratio_trial":500,"smaller_num":"1","larger_num":"2","correct_side":2,"subjID":"sofiapulido 2","gender":"1","age":"9","school":"4"},{"start_time":1552309145392,"click_time":1552309166565,"finger_time":1552309147344,"fix_duration":726.5871324855369,"trial":7,"RT":1952,"MT":19221,"sideResp":2,"stimulus":"img/900/equaldotanddens/R/7_Ratio_900_L_9_R_10.png","xmouse":[779,779,779,779,779,778,778,778,778,778,778,778,778,778,778,778,778,778,778,778,778,778,778,778,778,778,778,778,778,778,778,778,778,778,778,778,778,778,778,778,778,778,778,778,778,778,778,778,778,778,778,778,778,778,778,778,778,778,778,778,778,778,778,778,778,778,778,778,778,778,778,778,778,778,778,778,779,779,780,780,780,780,781,782,783,783,784,784,785,788,790,792,795,802,808,817,833,856,946,1037,1095,1144,1180,1213,1215,1215,1215,1215,1215,1215,1215,1215,1215,1215,1215,1215,1215,1215,1215,1215,1215,1215,1215,1215,1215,1215,1215,1215,1215,1215,1215,1215,1215,1215,1215,1215,1215,1215,1215,1215,1215,1215,1215,1215,1215,1215,1215,1215,1215,1215,1215,1215,1215,1215,1215,1215,1215,1215,1215,1214,1214,1214,1214,1213,1213,1213,1213,1213,1213,1213,1213,1213,1213,1213,1213,1213,1213,1213,1213,1213,1213,1213,1213,1213,1213,1213,1213,1213,1213,1213,1213,1212,1207,1201,1187,1181,1179,1178,1177,1177,1177,1177,1175,1174,1167,1165,1163,1163,1162,1162,1162,1162,1162,1162,1162,1162,1162,1162,1162,1162,1162,1162,1162,1162,1162,1162,1162,1162,1162,1162,1162,1162,1162,1161,1160,1160,1160,1160,1160,1160,1160,1160,1160,1160,1160,1160,1160,1160,1160,1160,1160,1160,1160,1160,1160,1160,1160,1160,1160,1160,1160,1160,1160,1160,1160,1160,1160,1160,1160,1160,1160,1160,1160,1160,1160,1160,1160,1160,1160,1160,1160,1160,1160,1160,1160,1160,1160,1160,1160,1160,1160,1160,1160,1160,1160,1160,1160,1160,1160,1160,1160,1160,1160,1160,1160,1160,1160,1160,1160,1160,1160,1160,1160,1159,1159,1159,1159,1159,1159,1159,1159,1159,1159,1159,1159,1159,1159,1159,1159,1159,1159,1159,1159,1159,1159,1159,1159,1159,1159,1159,1159,1159,1159,1159,1159,1159,1159,1159,1159,1159,1159,1159,1159,1159,1159,1159,1159,1159,1159,1159,1159,1159,1159,1159,1159,1159,1159,1159,1159,1159,1159,1159,1159,1159,1159,1159,1159,1159,1159,1159,1159,1159,1159,1159,1159,1159,1159,1159,1159,1159,1159,1156,1156,1156,1156,1155,1155,1154,1154,1154,1154,1153,1153,1153,1153,1153,1153,1153,1153,1153,1153,1153,1153,1153,1153,1153,1153,1153,1153,1153,1153,1153,1153,1153,1153,1153,1153,1153,1153,1153,1153,1153,1153,1153,1153,1153,1153,1153,1153,1153,1153,1153,1153,1153,1153,1153,1153,1153,1153,1153,1153,1153,1153,1153,1153,1153,1153,1153,1153,1153,1153,1153,1153,1153,1153,1153,1153,1153,1153,1153,1153,1153,1153,1153,1153,1153,1153,1153,1153,1153,1153,1153,1153,1153,1153,1153,1153,1153,1153,1153,1153,1153,1153,1153,1153,1153,1153,1153,1153,1153,1153,1153,1153,1153,1153,1153,1153,1153,1153,1153,1153,1153,1153,1153,1153,1153,1153,1153,1153,1153,1153,1151,1149,1147,1147,1147,1147,1147,1147,1147,1147,1147,1147,1147,1147,1145,1144,1142,1139,1137,1137,1137,1137,1137,1137,1137,1137,1137,1137,1137,1137,1137,1137,1137,1137,1137,1137,1137,1137,1137,1137,1137,1137,1137,1137,1137,1137,1137,1137,1137,1137,1137,1137,1137,1137,1136,1136,1136,1136,1136,1136,1136,1136,1136,1136,1136,1136,1136,1136,1136,1136,1136,1136,1136,1136,1136,1136,1136,1136,1136,1136,1136,1136,1136,1136,1136,1136,1136,1136,1136,1135,1135,1134,1134,1133,1133,1133,1133,1133,1133,1133,1133,1133,1133,1133,1133,1133,1133,1133,1133,1133,1133,1133,1133,1133,1133,1133,1133,1133,1133,1133,1133,1133,1133,1133,1133,1133,1133,1133,1133,1133,1133,1133,1133,1133,1133,1133,1133,1133,1133,1133,1133,1133,1133,1133,1133,1133,1133,1133,1133,1133,1133,1133,1133,1133,1133,1133,1133,1133,1133,1133,1133,1133,1133,1133,1133,1133,1133,1133,1133,1127,1115,1100,1088,1073,1072,1072,1072,1071,1073,1078,1078,1078,1078,1078,1078,1078,1078,1078,1078,1078,1078,1078,1078,1078,1078,1078,1078,1078,1078,1078,1078,1078,1078,1078,1078,1078,1078,1078,1078,1078,1078,1078,1078,1078,1078,1078,1078,1078,1079,1080,1080,1080,1080,1080,1080,1080,1080,1080,1081,1081,1082,1083,1085,1086,1087,1087,1087,1087,1087,1087,1087,1087,1087,1087,1087,1087,1087,1087,1087,1087,1087,1087,1087,1087,1087,1087,1087,1087,1087,1087,1087,1087,1087,1087,1087,1087,1087,1087,1087,1087,1087,1087,1087,1087,1087,1087,1087,1087,1087,1087,1087,1087,1087,1087,1087,1087,1087,1087,1087,1086,1084,1083,1079,1074,1059,1049,1039,1035,1034,1034,1034,1033,1029,1022,989,970,945,922,905,894,889,888,888,888,884,876,866,855,846,832,827,824,821,820,820,820,820,820,819,818,817,815,812,808,800,796,795,795,795,795,795,795,794,793,791,789,787,785,783,780,780,780,780,780,780,780,780,780,780,780,779,779,779,779,779,779,779,779,779,779,779,779,779,779,779,779,779,779,779,779,779,779,779,779,779,779,779,779,779,779,779,779,779,779,779,779,779,779,779,779,779,779,779,779,779,779,779,779,779,779,779,779,779,779,779,779,779,779,779,779,779,779,779,779,779,779,779,779,779,779,779,779,779,779,779,779,779,779,779,779,779,779,779,779,779,779,779,779,779,779,779,779,779,779,779,779,779,779,779,779,779,779,779,779,779,779,779,779,779,779,779,779,779,779,779,779,779,779,779,779,779,779,779,779,779,779,779,779,779,779,779,779,779,779,779,779,779,779,779,779,779,779,779,779,779,779,780,781,782,784,795,800,803,805,805,810,812,816,821,840,851,862,874,888,902,925,932,937,944,949,968,979,990,1002,1013,1038,1050,1062],"ymouse":[507,507,507,507,507,508,508,508,508,508,508,508,508,508,508,508,508,508,508,508,508,508,508,508,508,508,508,508,508,508,508,508,508,508,508,508,508,508,508,508,508,508,508,508,508,508,508,508,508,508,508,508,508,508,508,508,508,508,508,508,508,508,508,508,508,508,508,508,508,508,508,508,508,508,509,509,509,509,509,509,509,509,509,508,508,508,508,508,508,508,508,508,507,507,507,507,507,507,507,509,520,534,545,558,560,560,560,560,560,560,560,560,560,560,560,560,560,560,560,560,560,560,560,560,560,560,560,560,560,560,560,560,560,560,560,560,560,560,560,560,560,560,560,560,561,561,561,561,561,561,561,562,562,562,563,563,563,564,565,568,569,570,571,573,574,574,574,574,574,574,574,574,574,574,574,574,574,574,574,574,574,574,574,574,574,574,574,574,574,574,574,575,576,576,576,576,576,576,576,576,576,576,577,578,583,585,587,587,589,589,589,589,589,589,589,589,589,589,589,589,589,589,589,589,589,589,589,589,589,589,590,591,592,593,595,595,595,595,595,595,595,595,595,595,595,595,595,595,595,595,595,595,595,595,595,595,595,595,595,595,595,595,595,595,595,595,595,595,595,595,595,595,595,595,595,595,595,595,595,595,595,595,595,595,595,595,595,595,595,595,595,595,595,595,595,595,595,595,595,595,595,595,595,595,595,595,595,595,595,595,595,595,595,597,597,597,597,597,597,597,597,597,597,597,597,597,597,597,597,597,597,597,597,597,597,597,597,597,597,597,597,597,597,597,597,597,597,597,597,597,597,597,597,597,597,597,597,597,597,597,597,597,597,597,597,597,597,597,597,597,597,597,597,597,597,597,597,597,597,597,597,597,597,597,597,597,597,597,597,597,597,598,598,598,598,598,598,599,599,599,599,599,599,599,599,599,599,599,599,599,599,599,599,599,599,599,599,599,599,599,599,599,599,599,599,599,599,599,599,599,599,599,599,599,599,599,599,599,599,599,599,599,599,599,599,599,599,599,599,599,599,599,599,599,599,599,599,599,599,599,599,599,599,599,599,599,599,599,599,599,599,599,599,599,599,599,599,599,599,599,599,599,599,599,599,599,599,599,599,599,599,599,599,599,599,599,599,599,599,599,599,599,599,599,599,599,599,599,599,599,599,599,599,599,599,599,599,599,599,599,599,599,600,601,601,601,601,601,601,601,601,601,601,601,601,601,601,602,602,602,602,602,602,602,602,602,602,602,602,602,602,602,602,602,602,602,602,602,602,602,602,602,602,602,602,602,602,602,602,602,602,602,602,602,602,602,602,602,602,602,602,602,602,602,602,602,602,602,602,602,602,602,602,602,602,602,602,602,602,602,602,602,602,602,602,602,602,602,603,603,604,604,604,604,605,605,605,605,605,605,605,605,605,605,605,605,605,605,605,605,605,605,605,605,605,605,605,605,605,605,605,605,605,605,605,605,605,605,605,605,605,605,605,605,605,605,605,605,605,605,605,605,605,605,605,605,605,605,605,605,605,605,605,605,605,605,605,605,605,605,605,605,605,605,605,603,603,603,603,603,609,617,625,630,635,635,635,635,635,631,626,625,625,625,625,625,625,625,625,625,625,625,625,625,625,625,625,625,625,625,625,625,625,625,625,625,625,625,625,625,625,625,625,625,625,625,625,625,625,624,623,623,623,623,623,623,623,623,623,622,622,621,620,618,617,616,616,616,616,616,616,616,616,616,616,616,616,616,616,616,616,616,616,616,616,616,616,616,616,616,616,616,616,616,616,616,616,616,616,616,616,616,616,616,616,616,616,616,616,616,616,616,616,616,616,616,616,616,616,614,613,611,610,608,607,604,603,602,601,601,601,601,600,600,598,591,587,579,572,565,557,549,543,540,536,530,527,525,523,521,519,519,518,517,517,517,517,517,517,517,517,517,517,516,515,514,513,512,512,512,512,512,512,512,512,512,512,512,511,511,511,511,511,511,511,511,511,511,511,511,511,510,510,510,509,509,508,508,508,508,508,508,508,508,508,508,508,508,508,508,508,508,508,508,508,508,508,507,507,507,507,507,507,507,507,507,507,507,507,507,507,507,507,507,507,507,507,507,507,507,507,507,507,507,507,507,507,507,507,507,507,507,507,507,507,507,507,507,507,507,507,501,495,490,485,481,480,480,479,479,479,479,479,479,479,479,479,479,479,479,479,479,479,479,479,479,479,479,479,479,479,479,479,479,479,479,479,479,479,479,479,479,479,479,479,479,479,479,479,479,479,479,479,479,479,479,479,479,479,479,479,479,479,479,479,479,479,479,479,479,479,479,479,479,479,479,475,472,468,464,460,438,422,406,387,368,327,306,287,268,209,188,170,154,140,130,117,112,107,102,98,91,87,84,81,78,69,68,67],"timestamp_mouse":[12,41,52,73,92,112,132,153,173,193,213,232,253,272,292,312,333,353,372,392,412,432,454,474,493,513,534,553,573,593,613,632,653,672,694,712,732,753,772,794,813,832,852,873,893,913,933,953,972,993,1012,1032,1052,1073,1094,1113,1132,1152,1172,1194,1213,1233,1252,1272,1293,1313,1333,1352,1372,1393,1413,1433,1453,1472,1493,1512,1533,1553,1573,1593,1612,1634,1653,1672,1692,1714,1733,1752,1772,1793,1813,1832,1852,1872,1893,1913,1933,1952,1974,1992,2012,2033,2053,2073,2092,2112,2133,2153,2173,2194,2212,2233,2253,2273,2292,2312,2333,2353,2373,2392,2413,2432,2452,2473,2492,2513,2532,2552,2573,2592,2613,2633,2652,2673,2692,2714,2733,2752,2772,2793,2813,2832,2853,2873,2894,2912,2933,2954,2973,2993,3012,3033,3052,3072,3092,3113,3133,3153,3173,3192,3212,3233,3252,3274,3292,3313,3333,3353,3373,3392,3412,3432,3452,3472,3492,3512,3533,3553,3573,3593,3612,3632,3653,3673,3692,3714,3733,3752,3773,3793,3812,3833,3852,3872,3892,3913,3933,3952,3973,3993,4012,4033,4052,4074,4092,4112,4132,4152,4172,4193,4212,4233,4252,4273,4292,4313,4333,4353,4372,4394,4414,4433,4453,4472,4492,4512,4532,4552,4573,4592,4612,4632,4653,4673,4692,4712,4732,4753,4774,4793,4813,4832,4853,4873,4892,4913,4933,4952,4973,4992,5012,5032,5052,5073,5092,5112,5133,5153,5172,5193,5212,5233,5253,5274,5292,5313,5332,5352,5372,5394,5413,5433,5453,5473,5493,5513,5533,5553,5573,5593,5612,5633,5652,5672,5692,5713,5732,5753,5773,5792,5813,5833,5853,5873,5892,5913,5932,5952,5973,5993,6013,6032,6053,6072,6092,6112,6132,6152,6172,6193,6213,6232,6252,6272,6293,6313,6333,6352,6372,6392,6414,6432,6453,6473,6492,6512,6533,6553,6573,6593,6613,6633,6653,6673,6692,6712,6733,6752,6772,6793,6812,6833,6853,6874,6892,6912,6933,6952,6972,6993,7012,7032,7053,7074,7093,7112,7133,7152,7173,7193,7212,7232,7252,7272,7293,7313,7333,7353,7372,7392,7412,7432,7453,7474,7492,7512,7533,7552,7573,7593,7612,7633,7654,7673,7692,7713,7733,7753,7773,7792,7812,7832,7854,7873,7893,7913,7933,7952,7972,7992,8012,8032,8053,8073,8092,8113,8132,8152,8173,8194,8213,8232,8252,8273,8293,8312,8333,8353,8373,8393,8414,8433,8453,8473,8492,8513,8534,8553,8573,8592,8613,8633,8652,8672,8692,8712,8733,8753,8773,8793,8812,8833,8853,8872,8893,8913,8932,8953,8973,8993,9012,9032,9053,9072,9093,9113,9133,9153,9173,9193,9213,9233,9252,9273,9292,9313,9332,9352,9373,9393,9413,9433,9452,9472,9492,9513,9534,9553,9573,9593,9613,9632,9653,9673,9693,9712,9733,9752,9773,9793,9812,9832,9853,9872,9893,9914,9933,9953,9973,9993,10012,10033,10053,10072,10093,10114,10133,10153,10173,10192,10213,10232,10252,10273,10293,10312,10332,10353,10372,10393,10412,10433,10453,10474,10493,10514,10533,10553,10573,10593,10613,10632,10653,10672,10693,10712,10732,10753,10773,10793,10812,10832,10853,10873,10892,10912,10932,10952,10972,10993,11012,11033,11053,11073,11092,11112,11132,11152,11173,11193,11213,11232,11252,11272,11292,11313,11333,11352,11373,11392,11413,11433,11453,11472,11493,11512,11532,11553,11574,11593,11613,11633,11652,11673,11692,11713,11732,11752,11773,11793,11812,11832,11853,11873,11892,11913,11932,11952,11973,11992,12012,12034,12053,12073,12093,12113,12132,12153,12173,12193,12214,12233,12252,12273,12306,12312,12333,12353,12373,12393,12413,12433,12453,12472,12492,12512,12533,12553,12573,12593,12612,12633,12653,12672,12692,12712,12732,12752,12772,12793,12812,12833,12853,12872,12894,12912,12932,12953,12973,12992,13012,13032,13052,13073,13092,13112,13133,13152,13172,13193,13212,13232,13252,13272,13292,13313,13333,13352,13373,13393,13412,13433,13453,13473,13493,13512,13532,13552,13573,13592,13613,13632,13653,13673,13692,13712,13733,13753,13772,13792,13812,13834,13853,13872,13892,13912,13932,13953,13972,13993,14013,14032,14053,14073,14093,14112,14132,14152,14172,14193,14213,14233,14253,14272,14293,14312,14333,14352,14374,14393,14413,14433,14453,14473,14493,14513,14532,14553,14572,14593,14612,14633,14653,14673,14693,14713,14732,14753,14773,14793,14812,14833,14852,14872,14892,14912,14932,14953,14972,14993,15012,15032,15052,15072,15092,15112,15132,15152,15172,15192,15213,15233,15253,15272,15293,15313,15332,15352,15373,15393,15413,15433,15452,15472,15493,15512,15532,15552,15572,15594,15613,15632,15652,15673,15693,15713,15734,15753,15773,15793,15813,15832,15853,15873,15892,15913,15932,15953,15972,15993,16013,16033,16053,16073,16092,16113,16133,16153,16172,16192,16212,16233,16253,16272,16292,16312,16332,16353,16372,16394,16412,16432,16452,16472,16492,16512,16533,16553,16573,16593,16612,16632,16653,16672,16692,16712,16732,16753,16772,16793,16813,16834,16852,16872,16893,16913,16933,16953,16972,16992,17012,17033,17053,17073,17092,17112,17133,17153,17172,17192,17212,17232,17252,17272,17292,17312,17333,17353,17372,17392,17413,17432,17453,17472,17492,17513,17532,17552,17573,17592,17613,17632,17653,17673,17692,17713,17733,17753,17772,17793,17812,17833,17853,17874,17892,17912,17933,17954,17974,17993,18012,18033,18053,18074,18093,18112,18132,18153,18173,18193,18213,18232,18252,18272,18293,18312,18332,18353,18374,18392,18412,18433,18453,18473,18492,18512,18534,18553,18573,18594,18613,18632,18652,18673,18694,18712,18733,18752,18772,18793,18812,18833,18853,18874,18893,18912,18934,18953,18973,18992,19012,19033,19053,19073,19092,19112,19132,19153,19173,19193,19212,19232,19254,19273,19294,19313,19333,19353,19374,19393,19412,19433,19454,19472,19493,19512,19534,19553,19574,19593,19612,19633,19653,19673,19693,19713,19732,19752,19773,19793,19813,19832,19852,19873,19892,19913,19933,19954,19972,19993,20013,20032,20053,20073,20093,20112,20133,20153,20172,20192,20213,20233,20253,20274,20293,20313,20332,20353,20373,20392,20414,20433,20452,20473,20492,20513,20533,20552,20574,20592,20612,20632,20653,20673,20693,20712,20733,20752,20773,20793,20814,20832,20853,20873,20893,20912,20932,20953,20973,20993,21014,21033,21053,21072,21092,21114,21132,21154,21173],"xSR":741.5,"ySR":469.95,"xT1":424.9,"yT1":0,"xT2":1058.1,"yT2":0,"toosoon":0,"cond_shown":"equaldotanddens","ratio_trial":900,"smaller_num":"9","larger_num":"10","correct_side":2,"subjID":"sofiapulido 2","gender":"1","age":"9","school":"4"},{"start_time":1552309168812,"click_time":1552309169905,"finger_time":1552309169565,"fix_duration":1387.068903756739,"trial":8,"RT":753,"MT":340,"sideResp":1,"stimulus":"img/900/randomdotsizeEA/L/1_Ratio_900_L_10_R_9.png","xmouse":[778,778,778,778,778,778,778,778,778,778,778,778,778,778,778,778,778,778,778,778,778,778,778,778,778,778,778,778,778,778,778,778,778,778,777,771,769,767,761,758,755,745,742,736,728,721,698,675,656,634,593,572,552,535,520],"ymouse":[494,494,494,494,494,494,494,494,494,494,494,494,494,494,494,494,494,494,494,494,494,494,494,494,494,494,494,494,494,494,494,494,494,492,488,476,470,465,453,446,437,419,408,397,381,368,326,284,250,213,139,109,81,61,42],"timestamp_mouse":[13,41,52,73,92,113,132,154,173,192,214,233,252,272,294,313,332,352,373,393,413,433,453,472,493,512,534,553,573,592,613,632,653,673,692,712,733,753,772,793,812,832,854,872,893,912,933,952,972,992,1012,1032,1052,1073,1093],"xSR":741.5,"ySR":469.95,"xT1":424.9,"yT1":0,"xT2":1058.1,"yT2":0,"toosoon":0,"cond_shown":"randomdotsizeEA","ratio_trial":900,"smaller_num":"9","larger_num":"10","correct_side":1,"subjID":"sofiapulido 2","gender":"1","age":"9","school":"4"},{"start_time":1552309171992,"click_time":1552309173165,"finger_time":1552309172705,"fix_duration":1025.4845468354133,"trial":9,"RT":713,"MT":460,"sideResp":1,"stimulus":"img/250/equaldotanddens/L/14_Ratio_250_L_12_R_3.png","xmouse":[781,781,781,781,781,781,780,780,778,778,777,777,777,777,777,777,777,777,777,777,777,777,777,777,777,777,777,775,775,774,772,770,763,755,745,730,693,663,646,625,603,570,558,548,540,535,530,529,529,529,529,529,529,529,529,527,524,507,494],"ymouse":[530,530,530,530,529,528,525,523,520,520,519,519,518,518,518,518,518,518,518,518,518,518,518,518,518,518,518,518,517,516,515,513,502,490,474,454,402,355,324,289,250,191,170,154,142,133,123,122,122,122,122,122,122,122,120,117,114,103,96],"timestamp_mouse":[13,39,53,72,93,112,133,153,172,194,214,233,253,273,293,313,332,353,372,393,412,433,453,473,492,512,532,553,573,592,613,633,652,672,693,713,733,752,772,793,812,833,852,873,894,912,933,952,972,993,1012,1033,1053,1073,1092,1114,1133,1153,1172],"xSR":741.5,"ySR":469.95,"xT1":424.9,"yT1":0,"xT2":1058.1,"yT2":0,"toosoon":0,"cond_shown":"equaldotanddens","ratio_trial":250,"smaller_num":"3","larger_num":"12","correct_side":1,"subjID":"sofiapulido 2","gender":"1","age":"9","school":"4"},{"start_time":1552309174478,"click_time":1552309175844,"finger_time":1552309174985,"fix_duration":250,"trial":10,"RT":507,"MT":859,"sideResp":1,"stimulus":"img/250/randomdotsizeEA/L/1_Ratio_250_L_8_R_2.png","xmouse":[785,785,784,783,782,781,780,780,780,780,780,780,780,780,780,780,780,779,779,776,775,774,769,755,746,738,729,714,712,712,712,712,712,717,725,733,742,749,756,757,763,775,822,860,882,900,911,917,920,920,920,920,920,917,913,905,893,875,832,805,768,733,673,609,586,568,552,539,519],"ymouse":[539,538,537,535,533,532,532,531,531,531,531,531,531,531,531,531,531,530,530,527,526,524,518,502,494,489,484,478,477,477,477,477,475,468,459,448,431,417,399,397,386,369,311,276,259,243,232,224,216,214,214,214,213,213,213,213,212,211,204,199,189,180,162,138,128,121,111,104,93],"timestamp_mouse":[9,28,47,66,88,106,126,147,167,187,208,226,247,268,287,306,326,347,366,387,407,426,447,467,486,507,527,548,566,587,606,626,646,666,687,706,727,746,767,786,807,827,848,866,887,906,927,946,966,986,1006,1027,1048,1066,1086,1106,1127,1147,1166,1187,1207,1227,1247,1266,1287,1307,1327,1347,1366],"xSR":741.5,"ySR":469.95,"xT1":424.9,"yT1":0,"xT2":1058.1,"yT2":0,"toosoon":0,"cond_shown":"randomdotsizeEA","ratio_trial":250,"smaller_num":"2","larger_num":"8","correct_side":1,"subjID":"sofiapulido 2","gender":"1","age":"9","school":"4"},{"start_time":1552309176977,"click_time":1552309178304,"finger_time":1552309177804,"fix_duration":250,"trial":11,"RT":827,"MT":500,"sideResp":2,"stimulus":"img/500/equaldotsize/R/14_Ratio_500_L_5_R_10.png","xmouse":[770,770,770,770,770,770,770,770,770,770,770,770,770,770,770,770,770,770,770,770,770,770,770,770,770,770,770,770,770,770,770,770,770,770,770,770,770,770,774,785,797,810,823,834,837,842,852,864,886,898,906,914,920,927,931,938,942,954,974,983,992,1002,1013,1030,1038,1052,1061],"ymouse":[535,535,535,535,535,535,535,535,535,535,535,535,535,536,536,536,536,536,536,536,536,536,536,536,536,536,536,536,536,536,536,536,536,536,536,536,536,536,529,510,484,455,423,377,355,319,291,259,211,191,177,165,156,151,148,144,142,136,127,122,116,109,102,91,86,78,72],"timestamp_mouse":[8,38,47,67,87,107,127,148,167,187,207,228,248,267,288,307,327,347,367,387,408,428,447,468,487,507,528,548,567,587,607,627,648,667,687,708,727,748,767,787,807,827,847,867,887,908,927,947,967,988,1007,1028,1048,1067,1088,1108,1128,1148,1167,1188,1207,1227,1247,1267,1288,1307,1327],"xSR":741.5,"ySR":469.95,"xT1":424.9,"yT1":0,"xT2":1058.1,"yT2":0,"toosoon":0,"cond_shown":"equaldotsize","ratio_trial":500,"smaller_num":"5","larger_num":"10","correct_side":2,"subjID":"sofiapulido 2","gender":"1","age":"9","school":"4"},{"start_time":1552309179966,"click_time":1552309181186,"finger_time":1552309180884,"fix_duration":520.6154145237424,"trial":12,"RT":918,"MT":302,"sideResp":1,"stimulus":"img/750/equaldotsize/L/13_Ratio_750_L_8_R_6.png","xmouse":[796,796,796,796,796,796,796,796,796,796,796,796,796,796,796,796,796,796,796,796,796,796,796,796,796,796,796,796,796,796,796,796,796,796,796,796,796,796,796,796,796,796,795,786,772,760,743,726,692,678,667,656,648,622,604,578,561,549,534,528,523],"ymouse":[502,502,502,502,502,502,502,502,502,502,502,502,502,502,502,502,502,502,502,502,502,502,502,502,502,502,502,502,502,502,502,502,502,502,502,502,502,502,502,502,502,502,502,494,478,463,444,424,381,361,338,307,278,207,171,128,104,88,66,59,52],"timestamp_mouse":[23,38,58,79,98,119,138,158,178,199,219,238,259,278,298,319,338,359,378,399,418,439,459,478,498,519,539,559,578,598,619,638,659,678,698,719,738,758,778,798,818,839,859,878,899,918,938,959,979,998,1018,1039,1059,1079,1098,1118,1138,1158,1179,1198,1220],"xSR":741.5,"ySR":469.95,"xT1":424.9,"yT1":0,"xT2":1058.1,"yT2":0,"toosoon":0,"cond_shown":"equaldotsize","ratio_trial":750,"smaller_num":"6","larger_num":"8","correct_side":1,"subjID":"sofiapulido 2","gender":"1","age":"9","school":"4"},{"start_time":1552309183638,"click_time":1552309184847,"finger_time":1552309184164,"fix_duration":1413.4477175747325,"trial":13,"RT":526,"MT":683,"sideResp":2,"stimulus":"img/900/randomdotsizeEA/L/4_Ratio_900_L_20_R_18.png","xmouse":[753,753,753,753,753,753,753,753,753,753,753,753,753,753,755,756,762,764,766,767,770,770,770,770,770,770,774,778,782,786,799,818,832,848,866,883,905,912,918,923,932,949,957,957,957,957,957,957,957,957,957,957,957,981,983,986,993,1001,1015,1039,1060],"ymouse":[513,513,513,513,513,513,513,513,513,513,513,513,513,511,509,506,495,489,486,482,476,475,475,474,474,473,466,457,446,432,404,356,324,284,239,191,124,100,83,68,46,13,3,3,3,3,3,3,3,3,3,3,3,8,13,16,27,34,40,48,50],"timestamp_mouse":[8,37,46,67,86,106,126,147,166,187,208,226,246,267,287,306,326,346,367,386,407,426,446,467,486,506,526,546,566,586,607,627,646,667,687,707,726,746,767,787,807,826,846,867,887,907,927,946,966,986,1006,1027,1048,1066,1087,1106,1126,1147,1167,1187,1208],"xSR":741.5,"ySR":469.95,"xT1":424.9,"yT1":0,"xT2":1058.1,"yT2":0,"toosoon":0,"cond_shown":"randomdotsizeEA","ratio_trial":900,"smaller_num":"18","larger_num":"20","correct_side":1,"subjID":"sofiapulido 2","gender":"1","age":"9","school":"4"},{"start_time":1552309186886,"click_time":1552309188326,"finger_time":1552309187764,"fix_duration":920.9677945844071,"trial":14,"RT":878,"MT":562,"sideResp":2,"stimulus":"img/250/randomdotsizeEA/R/11_Ratio_250_L_3_R_12.png","xmouse":[776,777,777,777,777,777,777,777,777,777,777,777,777,777,777,777,777,777,777,777,777,777,777,777,777,777,777,777,777,777,777,777,777,777,777,777,777,777,777,777,777,775,772,766,762,761,760,760,759,758,758,758,758,763,770,782,802,818,855,871,888,906,920,950,965,986,999,1012,1037,1047,1058,1066],"ymouse":[491,491,491,491,491,491,491,491,491,491,491,491,491,491,491,491,491,491,491,491,491,491,491,491,491,491,491,491,491,491,491,491,491,491,491,491,491,491,491,487,484,478,470,458,452,450,447,446,441,436,429,419,408,385,369,352,323,304,270,256,241,229,219,196,187,169,157,142,105,86,68,53],"timestamp_mouse":[19,41,58,78,99,118,138,159,179,199,218,238,259,278,300,318,339,359,379,399,419,439,459,478,499,519,539,559,578,598,619,638,659,679,698,718,739,760,779,798,818,839,859,878,898,919,938,959,978,998,1019,1038,1058,1079,1099,1120,1139,1159,1179,1199,1218,1238,1258,1278,1298,1319,1338,1358,1378,1398,1418,1439],"xSR":741.5,"ySR":469.95,"xT1":424.9,"yT1":0,"xT2":1058.1,"yT2":0,"toosoon":0,"cond_shown":"randomdotsizeEA","ratio_trial":250,"smaller_num":"3","larger_num":"12","correct_side":2,"subjID":"sofiapulido 2","gender":"1","age":"9","school":"4"},{"start_time":1552309190636,"click_time":1552309192166,"finger_time":1552309191585,"fix_duration":1190.0481556458765,"trial":15,"RT":949,"MT":581,"sideResp":2,"stimulus":"img/500/equaldotanddens/R/2_Ratio_500_L_3_R_6.png","xmouse":[795,795,795,795,795,795,795,795,795,795,795,795,795,795,795,795,795,795,795,795,795,795,795,795,795,795,795,795,795,795,795,795,795,795,795,795,795,795,795,793,793,793,793,793,793,793,793,795,801,807,817,827,850,862,875,885,896,924,937,949,957,969,974,976,977,980,983,988,992,997,1006,1018,1047,1059,1066,1074,1095],"ymouse":[546,546,546,546,546,546,546,546,546,546,546,546,546,546,546,546,546,546,546,546,546,546,546,546,546,546,546,546,546,546,546,546,546,546,546,546,546,546,546,544,542,535,528,520,512,503,492,455,436,414,393,374,342,327,312,298,285,248,232,218,209,192,186,180,175,169,162,155,150,144,138,131,116,110,107,103,97],"timestamp_mouse":[8,36,49,68,88,108,128,149,168,189,209,228,249,269,288,308,329,349,368,389,409,429,449,469,488,509,528,548,569,589,609,629,649,669,689,708,728,749,769,789,808,829,848,868,889,909,929,949,968,989,1008,1029,1048,1068,1089,1108,1128,1148,1169,1189,1208,1230,1248,1268,1289,1310,1329,1348,1368,1389,1408,1429,1448,1468,1489,1508,1530],"xSR":741.5,"ySR":469.95,"xT1":424.9,"yT1":0,"xT2":1058.1,"yT2":0,"toosoon":0,"cond_shown":"equaldotanddens","ratio_trial":500,"smaller_num":"3","larger_num":"6","correct_side":2,"subjID":"sofiapulido 2","gender":"1","age":"9","school":"4"},{"start_time":1552309194638,"click_time":1552309196264,"finger_time":1552309195824,"fix_duration":1452.5141058143015,"trial":16,"RT":1186,"MT":440,"sideResp":2,"stimulus":"img/750/randomdotsizeEA/L/10_Ratio_750_L_4_R_3.png","xmouse":[782,782,782,782,782,782,782,782,782,782,782,782,782,782,782,782,782,782,782,782,782,782,782,782,782,782,782,782,782,782,782,782,782,782,782,782,782,782,782,782,782,782,782,782,782,782,782,782,782,782,782,783,783,784,784,785,787,792,796,800,806,813,831,840,853,875,890,916,927,935,944,951,972,983,996,1015,1027,1041,1047,1051,1056,1059],"ymouse":[554,554,554,554,554,554,554,554,554,554,554,554,554,554,554,554,554,554,554,554,554,554,554,554,554,554,554,554,554,554,554,554,554,554,554,554,554,554,554,554,554,554,554,554,554,554,554,554,554,554,554,552,549,544,533,528,512,488,475,461,446,427,391,373,358,340,329,309,300,292,284,274,250,237,225,205,190,156,141,124,109,96],"timestamp_mouse":[9,37,46,67,86,107,128,147,167,186,207,226,247,267,288,306,328,347,366,387,406,427,447,466,486,507,526,546,567,587,606,626,647,667,687,706,726,746,767,787,806,826,847,868,887,906,926,947,967,986,1007,1026,1046,1067,1086,1107,1127,1146,1166,1186,1206,1226,1246,1266,1287,1307,1326,1347,1367,1387,1407,1426,1447,1466,1486,1506,1527,1546,1567,1586,1606,1626],"xSR":741.5,"ySR":469.95,"xT1":424.9,"yT1":0,"xT2":1058.1,"yT2":0,"toosoon":0,"cond_shown":"randomdotsizeEA","ratio_trial":750,"smaller_num":"3","larger_num":"4","correct_side":1,"subjID":"sofiapulido 2","gender":"1","age":"9","school":"4"},{"start_time":1552309198080,"click_time":1552309199505,"finger_time":1552309198984,"fix_duration":772.8766941758762,"trial":17,"RT":904,"MT":521,"sideResp":1,"stimulus":"img/500/equaldotsize/L/7_Ratio_500_L_10_R_5.png","xmouse":[794,794,794,794,793,793,793,793,793,793,792,792,792,791,791,791,791,791,791,791,791,791,791,791,791,791,790,790,790,790,790,790,790,790,790,790,790,790,790,790,790,789,785,779,771,736,714,687,655,625,576,555,532,521,513,506,494,491,489,488,488,487,487,487,487,485,480,476,473,470,463,455],"ymouse":[530,531,531,532,533,533,534,534,534,535,535,537,537,538,538,538,538,538,538,538,538,538,538,538,538,539,540,540,540,540,540,540,540,540,540,540,540,540,540,540,540,539,537,531,523,501,488,475,461,449,423,408,387,373,360,348,332,327,323,319,316,301,292,281,268,254,218,197,174,151,121,95],"timestamp_mouse":[14,24,46,65,84,105,125,144,164,185,204,225,244,265,285,304,325,344,364,384,405,424,444,465,484,504,525,545,564,584,604,624,644,664,685,704,724,745,765,784,804,825,844,865,885,904,924,944,964,984,1005,1024,1044,1064,1085,1104,1124,1144,1165,1184,1204,1224,1245,1264,1284,1305,1324,1345,1365,1384,1405,1424],"xSR":741.5,"ySR":469.95,"xT1":424.9,"yT1":0,"xT2":1058.1,"yT2":0,"toosoon":0,"cond_shown":"equaldotsize","ratio_trial":500,"smaller_num":"5","larger_num":"10","correct_side":1,"subjID":"sofiapulido 2","gender":"1","age":"9","school":"4"},{"start_time":1552309200671,"click_time":1552309202204,"finger_time":1552309201685,"fix_duration":366.4421959767367,"trial":18,"RT":1014,"MT":519,"sideResp":1,"stimulus":"img/750/equaldotsize/L/1_Ratio_750_L_20_R_15.png","xmouse":[798,798,798,798,798,798,798,798,798,797,796,796,796,795,795,795,793,793,792,791,790,789,788,788,788,788,788,788,788,788,788,788,788,788,788,788,788,788,788,788,788,788,788,788,787,785,783,779,772,764,734,718,699,676,642,563,525,503,490,482,473,470,467,463,460,455,453,453,453,453,453,456,456,458,458,458,447],"ymouse":[513,513,513,513,513,513,514,515,517,519,523,525,526,527,528,529,532,534,536,538,540,544,545,545,545,545,545,545,545,545,545,545,545,545,545,545,545,545,545,545,545,545,545,545,547,547,547,547,546,538,504,487,471,454,432,386,363,346,327,308,255,234,215,197,183,163,157,154,153,151,150,141,136,128,121,106,71],"timestamp_mouse":[14,38,55,74,94,113,133,153,173,193,214,233,253,273,293,313,333,353,374,394,413,434,454,473,494,514,534,554,573,593,613,634,653,673,693,713,733,754,773,793,814,834,853,874,894,914,933,954,973,993,1014,1033,1053,1073,1094,1115,1133,1154,1173,1193,1215,1233,1253,1274,1294,1315,1333,1354,1375,1393,1414,1433,1454,1473,1493,1514,1533],"xSR":741.5,"ySR":469.95,"xT1":424.9,"yT1":0,"xT2":1058.1,"yT2":0,"toosoon":0,"cond_shown":"equaldotsize","ratio_trial":750,"smaller_num":"15","larger_num":"20","correct_side":1,"subjID":"sofiapulido 2","gender":"1","age":"9","school":"4"},{"start_time":1552309203455,"click_time":1552309205165,"finger_time":1552309204464,"fix_duration":250,"trial":19,"RT":1009,"MT":701,"sideResp":1,"stimulus":"img/750/equaldotsize/L/13_Ratio_750_L_8_R_6.png","xmouse":[802,802,802,802,802,802,802,802,802,802,802,802,802,802,802,802,802,802,802,802,802,802,802,802,802,802,802,802,802,802,802,802,802,802,802,802,802,802,802,802,802,802,802,802,801,799,796,790,782,767,755,739,704,687,668,655,643,628,623,618,613,611,608,608,608,605,603,597,591,586,576,569,557,550,544,539,536,531,529,527,524,524,522,520,518,517],"ymouse":[539,539,539,539,539,539,539,539,539,539,539,539,539,539,539,539,539,539,539,539,539,539,539,539,539,539,539,539,539,539,539,539,539,539,539,539,539,539,539,539,539,539,539,539,535,532,527,511,498,480,467,454,427,413,401,388,374,347,334,323,309,302,286,276,267,255,244,222,213,205,192,185,169,161,151,144,137,128,124,121,116,114,109,106,101,98],"timestamp_mouse":[11,29,49,70,90,110,130,149,170,189,209,230,250,269,289,311,330,349,370,390,410,429,449,469,489,509,529,549,570,590,610,629,650,669,690,709,730,749,770,789,809,829,849,870,889,910,929,949,970,989,1009,1030,1050,1069,1090,1109,1129,1149,1170,1190,1210,1229,1250,1270,1290,1309,1330,1350,1369,1389,1409,1429,1449,1470,1489,1510,1530,1550,1569,1589,1609,1630,1650,1669,1689,1710],"xSR":741.5,"ySR":469.95,"xT1":424.9,"yT1":0,"xT2":1058.1,"yT2":0,"toosoon":0,"cond_shown":"equaldotsize","ratio_trial":750,"smaller_num":"6","larger_num":"8","correct_side":1,"subjID":"sofiapulido 2","gender":"1","age":"9","school":"4"},{"start_time":1552309206757,"click_time":1552309208444,"finger_time":1552309207685,"fix_duration":250,"trial":20,"RT":928,"MT":759,"sideResp":2,"stimulus":"img/500/equaldotsize/R/1_Ratio_500_L_9_R_18.png","xmouse":[796,796,796,796,796,796,796,796,796,796,796,796,796,796,796,796,796,796,796,796,796,796,796,796,796,796,796,796,796,796,796,796,796,796,796,796,796,796,796,796,796,796,796,802,811,825,842,862,909,927,947,961,980,984,988,988,988,979,979,979,979,979,979,979,979,979,979,979,979,979,979,979,979,979,979,979,979,979,979,979,979,1029,1037,1054,1065],"ymouse":[512,512,512,512,512,512,512,512,512,512,512,512,512,512,512,512,512,512,512,512,512,512,512,512,512,512,512,512,512,512,512,512,512,512,512,512,512,513,513,513,513,513,514,508,498,482,462,438,378,346,310,273,192,161,107,76,43,13,13,13,13,13,13,13,13,13,13,13,13,13,13,13,13,13,13,13,13,13,13,13,13,0,3,11,14],"timestamp_mouse":[7,27,48,68,87,108,128,148,168,188,208,228,248,268,288,308,328,347,367,388,408,428,447,468,487,508,527,547,567,588,607,628,647,668,688,707,727,748,768,787,808,827,847,867,887,907,928,948,967,987,1007,1027,1048,1067,1088,1107,1128,1148,1168,1187,1208,1228,1248,1268,1287,1308,1327,1348,1368,1387,1407,1428,1447,1467,1487,1507,1527,1548,1567,1587,1607,1628,1648,1667,1687],"xSR":741.5,"ySR":469.95,"xT1":424.9,"yT1":0,"xT2":1058.1,"yT2":0,"toosoon":0,"cond_shown":"equaldotsize","ratio_trial":500,"smaller_num":"9","larger_num":"18","correct_side":2,"subjID":"sofiapulido 2","gender":"1","age":"9","school":"4"},{"start_time":1552309214476,"click_time":1552309216004,"finger_time":1552309215345,"fix_duration":250,"trial":21,"RT":869,"MT":659,"sideResp":1,"stimulus":"img/750/equaldotsize/L/10_Ratio_750_L_4_R_3.png","xmouse":[826,826,826,826,826,826,826,826,826,826,826,826,826,826,826,826,826,826,826,826,826,826,826,826,826,826,826,826,826,825,824,823,823,822,821,820,819,816,814,812,809,804,778,726,673,614,576,536,520,496,466,435,371,337,290,264,264,264,264,264,264,264,264,264,264,264,264,264,264,264,264,264,373,393,407,418,427],"ymouse":[523,521,519,519,519,519,519,519,519,519,519,519,519,519,519,519,519,519,519,520,520,520,520,520,520,520,520,520,520,520,520,520,520,520,520,520,520,520,520,520,520,517,506,483,464,441,426,405,388,353,300,240,133,86,31,1,1,1,1,1,1,1,1,1,1,1,1,1,1,1,1,1,6,19,26,32,35],"timestamp_mouse":[8,28,51,69,88,108,128,149,169,188,209,230,249,268,289,308,330,348,368,389,408,428,449,469,489,508,528,548,568,589,608,629,648,668,688,709,728,749,768,789,809,828,848,869,888,909,928,949,968,989,1008,1028,1048,1068,1089,1109,1128,1148,1168,1188,1209,1229,1249,1268,1288,1310,1329,1349,1368,1388,1408,1429,1450,1468,1488,1508,1528],"xSR":741.5,"ySR":469.95,"xT1":424.9,"yT1":0,"xT2":1058.1,"yT2":0,"toosoon":0,"cond_shown":"equaldotsize","ratio_trial":750,"smaller_num":"3","larger_num":"4","correct_side":1,"subjID":"sofiapulido 2","gender":"1","age":"9","school":"4"},{"start_time":1552309217387,"click_time":1552309218864,"finger_time":1552309218164,"fix_duration":360.3808632273474,"trial":22,"RT":777,"MT":700,"sideResp":1,"stimulus":"img/500/equaldotanddens/L/4_Ratio_500_L_18_R_9.png","xmouse":[773,770,769,769,769,769,769,769,769,769,769,769,769,769,769,769,769,769,769,769,769,769,769,769,769,769,769,770,771,771,772,772,773,773,773,773,770,749,732,710,680,596,546,499,451,417,388,352,345,339,337,335,334,334,334,336,341,362,366,371,374,378,379,381,385,388,400,405,407,409,410,411,420,426],"ymouse":[531,532,533,533,533,533,533,533,533,533,533,533,533,533,533,533,533,533,533,533,533,533,533,533,533,533,533,533,533,532,532,530,529,528,525,522,515,485,469,449,422,350,312,278,249,230,213,185,174,161,153,146,140,138,136,134,132,121,117,113,110,105,104,102,99,97,88,85,83,82,81,80,75,73],"timestamp_mouse":[17,51,58,78,98,117,138,158,178,197,218,238,258,277,299,317,337,358,378,399,418,437,458,478,498,517,538,558,578,598,617,638,657,677,697,717,737,758,777,797,818,839,857,878,898,918,938,957,978,998,1018,1038,1057,1078,1097,1118,1138,1157,1177,1197,1217,1239,1257,1277,1298,1317,1338,1357,1377,1398,1417,1437,1457,1477],"xSR":741.5,"ySR":469.95,"xT1":424.9,"yT1":0,"xT2":1058.1,"yT2":0,"toosoon":0,"cond_shown":"equaldotanddens","ratio_trial":500,"smaller_num":"9","larger_num":"18","correct_side":1,"subjID":"sofiapulido 2","gender":"1","age":"9","school":"4"},{"start_time":1552309220197,"click_time":1552309221344,"finger_time":1552309221125,"fix_duration":250,"trial":23,"RT":928,"MT":219,"sideResp":1,"stimulus":"img/250/randomdotsizeEA/L/1_Ratio_250_L_8_R_2.png","xmouse":[801,801,801,801,801,801,801,801,801,801,801,801,801,801,801,801,801,801,801,801,801,801,801,801,801,801,801,801,801,801,801,801,801,801,801,801,801,801,801,801,801,801,801,798,794,784,754,659,616,580,554,530,482,466,455,448,445,445],"ymouse":[522,522,515,515,515,514,514,514,514,514,514,514,514,514,514,514,514,512,511,509,508,507,506,505,505,504,504,502,501,500,500,500,500,500,500,500,500,500,500,500,500,500,500,495,490,477,453,392,357,323,295,266,184,151,130,113,102,97],"timestamp_mouse":[16,27,47,67,88,109,127,147,168,187,208,227,247,268,289,307,328,348,367,387,407,427,448,468,488,508,527,547,567,587,607,627,648,667,687,707,729,748,768,787,807,827,848,867,887,909,928,947,967,987,1008,1027,1047,1067,1088,1107,1128,1147],"xSR":741.5,"ySR":469.95,"xT1":424.9,"yT1":0,"xT2":1058.1,"yT2":0,"toosoon":0,"cond_shown":"randomdotsizeEA","ratio_trial":250,"smaller_num":"2","larger_num":"8","correct_side":1,"subjID":"sofiapulido 2","gender":"1","age":"9","school":"4"},{"start_time":1552309223864,"click_time":1552309225145,"finger_time":1552309224524,"fix_duration":617.6518061012011,"trial":24,"RT":660,"MT":621,"sideResp":2,"stimulus":"img/750/equaldotanddens/R/11_Ratio_750_L_12_R_16.png","xmouse":[797,797,797,797,797,796,796,795,795,795,795,795,795,795,795,795,795,795,795,795,795,795,795,795,795,795,795,795,795,795,796,801,807,814,823,844,856,869,879,900,914,920,927,934,947,952,955,958,962,974,980,988,996,1005,1011,1023,1031,1037,1042,1046,1054,1055,1056,1057,1059],"ymouse":[510,510,510,510,511,512,512,512,512,512,512,512,512,512,512,512,512,512,512,512,512,512,512,512,512,512,512,512,512,511,507,495,482,465,446,407,389,371,357,327,308,296,279,267,246,235,227,216,205,177,168,157,145,133,124,107,98,90,83,78,68,67,65,64,62],"timestamp_mouse":[8,20,40,60,81,100,120,140,161,180,200,221,241,261,280,301,321,340,361,380,400,420,441,461,480,500,521,541,561,581,601,620,641,660,681,700,721,741,761,781,800,821,840,861,881,900,921,941,960,981,1000,1020,1041,1060,1080,1100,1121,1140,1162,1181,1200,1221,1240,1260,1281],"xSR":741.5,"ySR":469.95,"xT1":424.9,"yT1":0,"xT2":1058.1,"yT2":0,"toosoon":0,"cond_shown":"equaldotanddens","ratio_trial":750,"smaller_num":"12","larger_num":"16","correct_side":2,"subjID":"sofiapulido 2","gender":"1","age":"9","school":"4"},{"start_time":1552309226315,"click_time":1552309227846,"finger_time":1552309227324,"fix_duration":250,"trial":25,"RT":1009,"MT":522,"sideResp":2,"stimulus":"img/250/randomdotsizeEA/R/11_Ratio_250_L_3_R_12.png","xmouse":[804,803,802,801,801,801,801,801,801,801,801,801,801,801,801,801,801,801,801,801,801,801,801,801,801,801,801,801,801,800,800,800,800,799,798,798,797,797,796,796,796,796,796,796,796,796,797,801,804,808,812,819,822,826,829,831,842,851,863,878,893,915,926,937,945,955,980,992,1001,1010,1018,1028,1046,1057,1067,1076,1084],"ymouse":[560,559,558,558,558,558,558,558,558,558,558,558,558,558,558,558,558,558,558,558,558,558,558,558,558,558,558,558,558,557,556,553,551,548,544,541,535,533,532,532,532,531,530,528,526,524,520,503,492,480,469,443,432,419,408,398,365,346,325,302,281,240,222,206,191,178,153,144,137,129,123,117,110,106,103,100,96],"timestamp_mouse":[10,33,49,70,89,110,130,149,169,190,210,229,249,269,290,309,329,349,369,390,410,429,450,469,490,510,530,549,569,589,609,630,649,670,689,710,730,749,770,790,810,829,849,869,890,909,929,951,969,989,1009,1031,1049,1071,1089,1110,1131,1149,1170,1190,1209,1230,1250,1269,1289,1310,1331,1349,1369,1389,1410,1430,1449,1469,1489,1510,1530],"xSR":741.5,"ySR":469.95,"xT1":424.9,"yT1":0,"xT2":1058.1,"yT2":0,"toosoon":0,"cond_shown":"randomdotsizeEA","ratio_trial":250,"smaller_num":"3","larger_num":"12","correct_side":2,"subjID":"sofiapulido 2","gender":"1","age":"9","school":"4"},{"start_time":1552309229451,"click_time":1552309230965,"finger_time":1552309230324,"fix_duration":545.8733756224223,"trial":26,"RT":873,"MT":641,"sideResp":2,"stimulus":"img/250/equaldotsize/R/10_Ratio_250_L_4_R_16.png","xmouse":[776,776,776,776,776,776,776,776,776,776,776,776,776,776,776,776,776,776,775,775,775,775,776,776,776,776,776,777,777,777,777,777,777,777,777,777,778,779,781,786,794,797,799,801,804,813,816,817,824,828,838,844,852,861,872,895,908,924,937,948,969,979,989,998,1006,1013,1023,1027,1030,1033,1042,1049,1057,1062,1069,1075],"ymouse":[524,524,524,524,524,524,524,524,524,524,524,524,524,524,524,524,524,524,524,524,523,523,521,519,516,508,506,504,503,503,503,503,503,503,503,503,502,500,497,489,478,474,470,466,462,449,446,444,433,425,408,399,387,373,359,325,303,272,249,228,195,181,170,159,151,144,138,136,134,132,124,118,111,107,101,95],"timestamp_mouse":[13,41,54,73,93,114,134,153,174,193,214,235,254,273,293,313,334,353,373,393,413,433,453,474,493,513,533,553,574,593,614,633,654,673,694,713,733,754,773,794,813,833,853,873,893,913,933,953,973,993,1013,1034,1053,1073,1093,1113,1134,1153,1173,1193,1213,1233,1253,1273,1294,1313,1334,1353,1373,1393,1413,1433,1453,1473,1493,1514],"xSR":741.5,"ySR":469.95,"xT1":424.9,"yT1":0,"xT2":1058.1,"yT2":0,"toosoon":0,"cond_shown":"equaldotsize","ratio_trial":250,"smaller_num":"4","larger_num":"16","correct_side":2,"subjID":"sofiapulido 2","gender":"1","age":"9","school":"4"},{"start_time":1552309233525,"click_time":1552309235066,"finger_time":1552309234624,"fix_duration":1359.9879156063084,"trial":27,"RT":1099,"MT":442,"sideResp":2,"stimulus":"img/250/randomdotsizeEA/R/8_Ratio_250_L_1_R_4.png","xmouse":[775,775,775,775,775,776,776,776,776,776,776,776,776,776,776,776,776,776,776,776,776,776,776,776,776,776,776,776,776,776,776,777,777,779,779,780,780,780,780,780,780,780,780,780,780,780,780,780,780,781,782,783,787,792,799,806,814,829,833,840,849,859,888,902,916,931,941,959,970,977,984,990,994,1012,1022,1032,1042,1060],"ymouse":[535,535,535,535,535,535,534,534,534,534,534,534,534,534,534,534,534,534,534,534,534,534,534,534,534,534,534,534,534,534,534,532,531,529,528,526,526,526,526,526,526,526,525,524,524,524,523,522,521,519,515,514,504,492,481,468,452,415,408,391,372,353,312,295,279,263,250,223,206,195,184,172,166,141,127,114,99,71],"timestamp_mouse":[1,20,39,67,79,101,119,140,160,180,200,220,240,259,279,300,320,339,359,379,399,420,439,459,479,500,520,540,559,580,599,620,640,660,679,699,720,740,760,780,799,819,840,860,880,900,919,940,960,980,999,1020,1040,1060,1079,1099,1119,1140,1159,1179,1200,1220,1241,1259,1279,1300,1319,1340,1359,1379,1400,1419,1439,1460,1480,1499,1519,1541],"xSR":741.5,"ySR":469.95,"xT1":424.9,"yT1":0,"xT2":1058.1,"yT2":0,"toosoon":0,"cond_shown":"randomdotsizeEA","ratio_trial":250,"smaller_num":"1","larger_num":"4","correct_side":2,"subjID":"sofiapulido 2","gender":"1","age":"9","school":"4"},{"start_time":1552309237166,"click_time":1552309238626,"finger_time":1552309238304,"fix_duration":1180.6637916950892,"trial":28,"RT":1138,"MT":322,"sideResp":2,"stimulus":"img/500/randomdotsizeEA/R/3_Ratio_500_L_10_R_20.png","xmouse":[789,789,789,789,789,789,789,789,789,789,789,789,789,789,789,789,789,789,789,789,789,789,789,789,789,789,789,789,789,789,789,789,789,789,789,789,789,789,789,789,787,786,784,782,781,780,780,780,780,780,780,781,783,788,794,820,833,847,862,884,917,932,945,956,969,989,1001,1012,1027,1037,1056,1061,1065],"ymouse":[531,531,531,531,531,531,531,531,531,531,531,531,531,531,531,531,531,531,531,531,531,531,531,531,531,531,531,531,531,531,531,531,531,531,531,531,531,530,529,527,525,524,524,523,523,523,523,523,522,521,520,517,513,507,499,471,452,435,413,379,332,309,288,266,239,195,174,156,134,123,107,100,92],"timestamp_mouse":[19,38,62,79,98,118,138,159,179,199,218,238,259,279,299,318,338,358,378,399,420,439,459,478,498,520,539,559,578,598,619,639,659,679,698,719,739,758,778,798,818,838,858,879,898,919,939,959,979,998,1019,1038,1058,1079,1099,1118,1138,1158,1179,1198,1218,1238,1259,1278,1298,1319,1339,1358,1379,1399,1418,1438,1460],"xSR":741.5,"ySR":469.95,"xT1":424.9,"yT1":0,"xT2":1058.1,"yT2":0,"toosoon":0,"cond_shown":"randomdotsizeEA","ratio_trial":500,"smaller_num":"10","larger_num":"20","correct_side":2,"subjID":"sofiapulido 2","gender":"1","age":"9","school":"4"},{"start_time":1552309239817,"click_time":1552309241225,"finger_time":1552309240764,"fix_duration":291.2002919536185,"trial":29,"RT":947,"MT":461,"sideResp":2,"stimulus":"img/900/randomdotsizeEA/R/13_Ratio_900_L_18_R_20.png","xmouse":[755,755,755,755,755,755,755,755,755,755,755,755,755,755,755,755,755,755,755,755,755,755,755,755,755,755,755,755,755,755,755,755,755,755,754,754,754,754,753,753,755,758,762,772,784,794,806,819,844,855,866,877,888,912,922,935,941,946,958,964,972,979,988,1002,1012,1018,1026,1034,1049,1055,1059],"ymouse":[559,559,559,559,559,559,559,559,559,559,559,559,559,559,559,559,559,559,559,559,559,559,559,559,559,559,559,559,559,559,559,559,559,559,559,559,559,559,559,557,552,547,539,521,504,490,473,454,417,392,367,341,316,274,258,237,224,215,195,188,180,172,165,148,135,126,117,108,92,87,83],"timestamp_mouse":[8,35,47,69,87,108,128,148,168,187,208,227,247,267,288,308,328,347,368,387,407,427,447,468,488,508,529,549,567,587,608,627,647,668,688,707,728,748,769,787,808,828,847,867,888,907,928,947,968,987,1008,1028,1047,1068,1088,1107,1128,1148,1167,1187,1208,1227,1249,1268,1287,1307,1327,1347,1367,1387,1408],"xSR":741.5,"ySR":469.95,"xT1":424.9,"yT1":0,"xT2":1058.1,"yT2":0,"toosoon":0,"cond_shown":"randomdotsizeEA","ratio_trial":900,"smaller_num":"18","larger_num":"20","correct_side":2,"subjID":"sofiapulido 2","gender":"1","age":"9","school":"4"},{"start_time":1552309242751,"click_time":1552309243986,"finger_time":1552309243524,"fix_duration":325.79358993586095,"trial":30,"RT":773,"MT":462,"sideResp":2,"stimulus":"img/250/equaldotanddens/R/12_Ratio_250_L_5_R_20.png","xmouse":[755,755,755,755,755,755,755,755,755,755,755,755,755,755,755,755,755,755,755,755,755,755,755,755,755,755,755,755,755,755,755,755,755,755,755,757,768,800,824,845,868,893,921,941,963,981,1003,1008,1013,1018,1021,1025,1027,1030,1033,1035,1037,1041,1046,1050,1057,1077],"ymouse":[514,514,514,514,514,514,514,514,514,514,514,514,514,514,514,514,514,514,514,514,514,514,514,514,514,514,514,514,514,514,514,514,514,514,513,510,500,472,451,432,405,375,344,318,290,254,197,179,163,142,133,106,97,88,80,72,66,59,54,51,45,29],"timestamp_mouse":[14,33,53,74,95,114,133,154,173,193,214,234,254,274,294,313,334,354,374,394,414,433,453,474,494,513,534,553,574,593,613,634,653,674,693,714,733,754,773,793,813,833,853,873,894,913,935,953,973,994,1013,1034,1053,1073,1094,1113,1133,1154,1173,1195,1214,1234],"xSR":741.5,"ySR":469.95,"xT1":424.9,"yT1":0,"xT2":1058.1,"yT2":0,"toosoon":0,"cond_shown":"equaldotanddens","ratio_trial":250,"smaller_num":"5","larger_num":"20","correct_side":2,"subjID":"sofiapulido 2","gender":"1","age":"9","school":"4"},{"start_time":1552309246298,"click_time":1552309248204,"finger_time":1552309247204,"fix_duration":1030.1049942356208,"trial":31,"RT":906,"MT":1000,"sideResp":2,"stimulus":"img/500/equaldotsize/L/4_Ratio_500_L_18_R_9.png","xmouse":[792,792,792,792,792,792,792,792,792,792,792,792,792,792,792,792,792,792,792,792,792,792,792,792,792,792,792,792,792,792,792,792,792,792,792,792,792,792,792,792,792,792,792,797,801,814,815,815,815,815,815,815,815,815,816,817,818,818,818,818,818,818,818,818,818,818,818,818,818,818,818,818,818,818,818,818,818,818,818,818,832,843,861,888,921,960,1035,1046,1072,1085,1107,1116,1122,1126,1127,1132],"ymouse":[495,495,495,495,495,495,495,495,495,495,495,495,495,495,495,495,495,495,495,495,495,495,495,495,495,495,495,495,495,495,495,495,495,495,495,495,495,495,495,495,495,495,495,489,482,461,460,460,460,460,460,460,460,460,459,458,457,457,457,457,457,457,457,457,457,457,457,457,457,457,457,457,457,457,457,457,457,457,457,456,447,440,426,408,384,356,278,264,217,189,151,135,124,115,105,83],"timestamp_mouse":[9,33,48,67,87,106,127,147,167,187,207,227,246,266,287,307,327,347,367,387,406,427,448,467,487,506,527,546,566,586,606,627,646,667,686,707,726,747,767,788,806,826,847,866,886,906,926,946,966,987,1007,1026,1047,1067,1087,1106,1127,1147,1166,1187,1206,1226,1246,1266,1286,1307,1327,1346,1367,1386,1407,1427,1447,1467,1487,1506,1527,1546,1567,1588,1606,1627,1646,1667,1687,1706,1727,1747,1766,1786,1806,1826,1847,1867,1887,1906],"xSR":741.5,"ySR":469.95,"xT1":424.9,"yT1":0,"xT2":1058.1,"yT2":0,"toosoon":0,"cond_shown":"equaldotsize","ratio_trial":500,"smaller_num":"9","larger_num":"18","correct_side":1,"subjID":"sofiapulido 2","gender":"1","age":"9","school":"4"},{"start_time":1552309250056,"click_time":1552309251425,"finger_time":1552309251024,"fix_duration":1009.926832313695,"trial":32,"RT":968,"MT":401,"sideResp":1,"stimulus":"img/750/equaldotsize/L/13_Ratio_750_L_8_R_6.png","xmouse":[757,757,757,757,757,757,757,757,757,757,757,757,757,757,757,757,757,757,757,757,757,757,757,757,757,757,757,757,757,757,757,757,757,757,757,757,757,757,757,757,757,757,757,757,757,757,757,747,736,729,720,715,699,687,663,635,635,635,635,635,635,635,635,635,635,635,635,635,483],"ymouse":[524,524,524,524,524,524,524,524,524,524,524,524,524,524,524,524,524,524,524,524,524,524,524,524,524,524,524,524,524,524,524,524,524,524,524,524,524,524,524,524,524,524,524,524,524,524,519,495,459,432,398,360,240,164,87,8,8,8,8,8,8,8,8,8,8,8,8,8,8],"timestamp_mouse":[10,29,48,69,89,109,129,148,168,189,208,228,248,268,288,309,328,348,369,388,408,429,448,469,488,508,529,549,568,588,609,629,648,668,689,708,728,749,769,788,809,830,848,869,889,908,928,948,968,988,1008,1028,1049,1068,1090,1108,1128,1149,1168,1189,1209,1228,1248,1269,1288,1308,1328,1349,1369],"xSR":741.5,"ySR":469.95,"xT1":424.9,"yT1":0,"xT2":1058.1,"yT2":0,"toosoon":0,"cond_shown":"equaldotsize","ratio_trial":750,"smaller_num":"6","larger_num":"8","correct_side":1,"subjID":"sofiapulido 2","gender":"1","age":"9","school":"4"},{"start_time":1552309254597,"click_time":1552309255725,"finger_time":1552309255404,"fix_duration":790.1984308637333,"trial":33,"RT":807,"MT":321,"sideResp":2,"stimulus":"img/250/equaldotanddens/R/8_Ratio_250_L_1_R_4.png","xmouse":[802,802,802,802,802,802,801,801,801,801,801,801,801,801,801,801,801,801,801,801,801,801,801,801,801,801,801,801,801,801,801,801,801,801,802,802,807,809,813,821,828,850,862,878,892,907,943,959,978,1003,1016,1040,1053,1066,1075,1085,1103],"ymouse":[513,513,513,513,513,513,513,513,513,513,513,513,513,513,513,513,513,513,513,513,513,513,513,513,513,513,513,513,513,513,513,513,513,512,510,508,500,493,486,474,465,432,410,385,363,340,297,278,260,230,210,174,158,143,132,120,95],"timestamp_mouse":[8,37,48,68,87,108,127,147,167,188,207,227,247,268,289,307,327,348,368,388,408,427,448,468,487,508,528,547,569,588,607,628,647,668,687,708,727,748,767,787,807,827,847,867,887,907,927,947,968,987,1008,1028,1047,1067,1087,1108,1127],"xSR":741.5,"ySR":469.95,"xT1":424.9,"yT1":0,"xT2":1058.1,"yT2":0,"toosoon":0,"cond_shown":"equaldotanddens","ratio_trial":250,"smaller_num":"1","larger_num":"4","correct_side":2,"subjID":"sofiapulido 2","gender":"1","age":"9","school":"4"},{"start_time":1552309257889,"click_time":1552309259725,"finger_time":1552309258705,"fix_duration":983.5892697786571,"trial":34,"RT":816,"MT":1020,"sideResp":2,"stimulus":"img/750/equaldotanddens/R/11_Ratio_750_L_12_R_16.png","xmouse":[774,774,774,774,774,774,774,774,774,774,774,774,774,774,774,774,774,774,774,774,774,774,774,774,774,774,774,774,774,774,774,774,774,774,775,775,774,772,769,765,759,748,738,731,725,717,705,700,694,689,685,679,675,671,666,659,647,643,641,641,641,641,641,641,641,641,655,673,704,748,796,843,914,951,975,994,1012,1045,1061,1076,1088,1105,1113,1117,1119,1121,1122,1123,1124,1125,1126,1130],"ymouse":[509,509,509,509,509,509,509,509,509,509,509,509,509,509,509,509,509,509,509,509,509,509,509,509,509,509,509,509,509,509,509,509,509,509,507,505,497,492,487,479,469,443,419,402,385,366,332,317,302,289,279,257,247,233,221,207,185,179,177,177,177,177,177,177,177,179,192,204,216,230,243,248,251,247,238,229,220,200,189,178,169,154,145,138,132,127,120,117,114,112,107,96],"timestamp_mouse":[16,35,55,75,96,116,135,156,175,196,215,235,255,276,296,315,335,355,377,395,415,435,456,476,495,516,535,555,575,597,616,635,655,676,695,715,735,755,776,795,816,835,855,876,895,916,935,955,976,995,1016,1036,1055,1076,1095,1116,1135,1155,1175,1195,1215,1236,1255,1275,1296,1316,1335,1355,1375,1395,1416,1436,1455,1475,1495,1515,1536,1555,1575,1596,1615,1636,1655,1675,1695,1715,1736,1755,1775,1795,1816,1836],"xSR":741.5,"ySR":469.95,"xT1":424.9,"yT1":0,"xT2":1058.1,"yT2":0,"toosoon":0,"cond_shown":"equaldotanddens","ratio_trial":750,"smaller_num":"12","larger_num":"16","correct_side":2,"subjID":"sofiapulido 2","gender":"1","age":"9","school":"4"},{"start_time":1552309261593,"click_time":1552309263644,"finger_time":1552309262964,"fix_duration":747.9218905630631,"trial":35,"RT":1371,"MT":680,"sideResp":1,"stimulus":"img/750/equaldotsize/L/14_Ratio_750_L_8_R_6.png","xmouse":[792,792,792,792,792,792,792,792,792,792,792,794,794,795,795,795,795,795,795,795,795,795,795,795,795,795,795,795,795,795,795,795,795,795,795,795,795,795,795,795,796,796,796,796,796,797,797,799,800,801,801,802,802,802,802,802,802,802,802,802,802,803,803,803,803,804,804,804,804,804,804,802,798,793,787,780,769,752,741,729,714,691,643,621,607,591,584,582,582,582,582,582,582,581,579,577,574,566,561,556,548,540,517],"ymouse":[500,500,500,500,500,500,500,500,500,500,501,501,501,500,500,500,500,500,500,500,500,500,500,500,500,500,500,500,500,500,500,500,500,500,500,500,500,500,500,500,500,500,500,500,500,498,497,493,490,486,483,480,480,480,479,479,479,479,479,479,479,479,478,476,476,474,471,470,469,467,464,455,449,441,429,415,389,345,315,278,241,197,118,88,69,50,43,41,41,41,41,41,41,41,41,41,41,42,43,43,45,46,50],"timestamp_mouse":[11,33,53,72,92,111,131,152,171,191,211,231,251,272,293,311,332,352,372,392,411,433,451,472,492,512,532,551,572,592,611,632,653,671,691,712,731,752,772,792,811,832,851,872,891,911,931,952,971,992,1011,1032,1052,1072,1091,1111,1132,1153,1171,1192,1211,1232,1252,1272,1292,1311,1332,1351,1371,1392,1411,1433,1451,1472,1492,1511,1531,1552,1571,1592,1611,1632,1651,1673,1692,1712,1731,1751,1771,1792,1811,1832,1851,1871,1891,1911,1932,1951,1971,1991,2012,2032,2051],"xSR":741.5,"ySR":469.95,"xT1":424.9,"yT1":0,"xT2":1058.1,"yT2":0,"toosoon":0,"cond_shown":"equaldotsize","ratio_trial":750,"smaller_num":"6","larger_num":"8","correct_side":1,"subjID":"sofiapulido 2","gender":"1","age":"9","school":"4"},{"start_time":1552309265766,"click_time":1552309266804,"finger_time":1552309266384,"fix_duration":1177.3671027668456,"trial":36,"RT":618,"MT":420,"sideResp":2,"stimulus":"img/250/equaldotanddens/R/12_Ratio_250_L_5_R_20.png","xmouse":[769,769,769,769,769,769,769,769,769,769,769,769,769,769,769,769,769,769,769,769,769,769,769,769,769,769,770,772,774,785,791,801,814,833,876,903,938,953,968,997,1009,1018,1025,1029,1036,1042,1046,1048,1050,1054,1056,1058,1060],"ymouse":[516,516,516,516,516,516,516,516,516,516,516,516,516,516,516,516,516,516,516,516,516,516,516,516,516,516,515,511,506,486,472,454,431,400,343,309,269,249,231,195,181,167,158,150,138,128,121,115,110,97,92,87,82],"timestamp_mouse":[1,30,39,59,78,98,118,139,158,178,199,218,239,259,279,298,318,339,358,378,399,420,438,458,479,499,518,538,559,578,598,618,639,658,678,698,718,738,759,779,798,819,838,858,878,898,919,938,958,979,998,1019,1038],"xSR":741.5,"ySR":469.95,"xT1":424.9,"yT1":0,"xT2":1058.1,"yT2":0,"toosoon":0,"cond_shown":"equaldotanddens","ratio_trial":250,"smaller_num":"5","larger_num":"20","correct_side":2,"subjID":"sofiapulido 2","gender":"1","age":"9","school":"4"},{"start_time":1552309268897,"click_time":1552309270184,"finger_time":1552309269525,"fix_duration":1010.6080960415428,"trial":37,"RT":628,"MT":659,"sideResp":1,"stimulus":"img/500/equaldotanddens/L/8_Ratio_500_L_8_R_4.png","xmouse":[767,767,767,767,767,767,767,767,767,767,767,767,767,769,772,773,775,777,781,781,781,782,782,784,784,785,785,786,786,786,783,778,764,756,749,743,737,723,717,710,703,695,674,660,642,620,600,557,548,540,534,530,527,527,527,527,527,527,527,527,527,525,523,517,515],"ymouse":[513,513,513,513,513,513,513,513,513,513,513,513,513,513,513,513,513,513,513,513,513,513,513,513,512,511,510,505,496,488,475,463,432,419,407,396,387,360,352,341,331,319,297,286,274,260,245,210,198,186,174,166,158,157,155,154,152,149,139,134,126,119,113,100,98],"timestamp_mouse":[9,27,47,68,87,108,128,147,167,187,207,228,247,267,288,308,327,348,368,387,408,427,448,467,487,507,528,548,568,587,609,628,649,667,688,707,727,749,767,787,808,828,849,868,888,907,927,948,967,988,1007,1027,1049,1067,1088,1108,1127,1147,1167,1187,1207,1228,1248,1267,1287],"xSR":741.5,"ySR":469.95,"xT1":424.9,"yT1":0,"xT2":1058.1,"yT2":0,"toosoon":0,"cond_shown":"equaldotanddens","ratio_trial":500,"smaller_num":"4","larger_num":"8","correct_side":1,"subjID":"sofiapulido 2","gender":"1","age":"9","school":"4"},{"start_time":1552309272613,"click_time":1552309273585,"finger_time":1552309273124,"fix_duration":1366.4305603350763,"trial":38,"RT":511,"MT":461,"sideResp":2,"stimulus":"img/500/equaldotsize/R/14_Ratio_500_L_5_R_10.png","xmouse":[795,795,795,795,795,795,795,795,795,795,795,795,795,795,795,795,795,795,796,796,798,799,804,808,814,822,831,851,860,875,879,895,916,928,941,957,971,998,1010,1021,1034,1043,1062,1073,1086,1095,1104,1116,1121],"ymouse":[504,504,504,504,504,504,504,504,504,504,504,504,504,504,504,504,504,504,502,501,498,496,488,483,473,464,449,418,403,377,371,348,318,303,286,269,252,226,216,207,198,191,174,163,150,137,125,100,88],"timestamp_mouse":[12,32,51,71,91,113,132,152,172,191,211,231,252,271,292,312,331,351,372,391,412,431,451,471,491,511,531,551,573,591,612,632,652,671,692,712,732,751,771,791,811,831,851,871,892,911,931,951,972],"xSR":741.5,"ySR":469.95,"xT1":424.9,"yT1":0,"xT2":1058.1,"yT2":0,"toosoon":0,"cond_shown":"equaldotsize","ratio_trial":500,"smaller_num":"5","larger_num":"10","correct_side":2,"subjID":"sofiapulido 2","gender":"1","age":"9","school":"4"},{"start_time":1552309277009,"click_time":1552309278266,"finger_time":1552309277684,"fix_duration":823.660953356524,"trial":39,"RT":675,"MT":582,"sideResp":1,"stimulus":"img/750/equaldotanddens/L/8_Ratio_750_L_4_R_3.png","xmouse":[811,811,811,811,811,811,811,811,811,811,811,811,811,811,811,811,811,811,811,811,811,811,811,811,811,811,811,812,815,818,819,821,822,822,821,815,805,781,767,760,754,750,746,735,728,719,708,678,665,646,629,613,583,572,564,559,556,556,556,556,556,556,500],"ymouse":[497,497,497,497,497,497,497,497,497,497,497,497,497,497,497,497,497,497,497,497,497,497,497,497,497,497,497,496,493,490,486,482,472,465,454,438,420,387,365,353,341,333,327,301,285,263,238,173,151,124,99,77,37,22,12,4,1,1,1,1,1,1,5],"timestamp_mouse":[15,37,55,76,97,115,136,155,175,195,215,236,256,276,296,316,336,355,376,395,415,436,456,476,497,517,536,555,575,595,616,635,655,675,695,715,736,757,775,795,815,836,855,875,895,916,936,957,975,996,1015,1036,1057,1075,1095,1115,1135,1156,1176,1195,1215,1235,1256],"xSR":741.5,"ySR":469.95,"xT1":424.9,"yT1":0,"xT2":1058.1,"yT2":0,"toosoon":0,"cond_shown":"equaldotanddens","ratio_trial":750,"smaller_num":"3","larger_num":"4","correct_side":1,"subjID":"sofiapulido 2","gender":"1","age":"9","school":"4"},{"start_time":1552309280289,"click_time":1552309281765,"finger_time":1552309281324,"fix_duration":803.9514780162341,"trial":40,"RT":1035,"MT":441,"sideResp":1,"stimulus":"img/750/equaldotsize/L/6_Ratio_750_L_24_R_18.png","xmouse":[795,795,795,795,795,795,795,795,795,795,795,796,796,796,796,796,796,796,796,796,796,796,796,796,796,796,796,796,796,796,796,796,796,796,796,796,796,796,796,796,796,796,796,796,796,796,796,796,795,790,784,774,771,760,752,747,742,736,728,710,699,688,683,679,672,670,668,664,660,641,626,591,579,508],"ymouse":[527,527,527,527,527,527,527,527,527,527,527,527,527,527,527,527,527,527,527,527,527,527,527,527,527,527,527,527,527,527,527,527,527,527,527,527,527,527,527,527,527,527,526,525,521,518,516,513,509,491,475,448,437,399,333,299,269,244,221,184,173,159,153,149,143,141,140,137,134,120,109,79,68,10],"timestamp_mouse":[16,35,56,75,96,117,136,156,175,196,217,235,256,276,296,315,337,356,376,396,416,436,455,476,496,515,536,555,575,595,616,635,656,675,696,715,735,756,775,795,816,836,855,876,895,915,936,956,976,995,1015,1035,1055,1076,1096,1115,1135,1156,1175,1195,1216,1235,1255,1276,1296,1316,1335,1355,1376,1396,1416,1435,1455,1476],"xSR":741.5,"ySR":469.95,"xT1":424.9,"yT1":0,"xT2":1058.1,"yT2":0,"toosoon":0,"cond_shown":"equaldotsize","ratio_trial":750,"smaller_num":"18","larger_num":"24","correct_side":1,"subjID":"sofiapulido 2","gender":"1","age":"9","school":"4"},{"start_time":1552309288719,"click_time":1552309290105,"finger_time":1552309289384,"fix_duration":1352.0825993632511,"trial":41,"RT":665,"MT":721,"sideResp":2,"stimulus":"img/250/randomdotsizeEA/R/4_Ratio_250_L_3_R_12.png","xmouse":[779,779,779,779,779,779,779,779,779,779,779,779,779,779,779,779,779,779,779,779,779,779,779,779,780,783,784,786,792,795,798,799,802,805,813,822,836,861,880,938,978,1019,1051,1076,1131,1154,1181,1209,1244,1279,1291,1298,1299,1300,1300,1300,1300,1300,1300,1288,1280,1271,1258,1247,1225,1213,1201,1181,1169,1148],"ymouse":[487,487,487,487,487,487,487,487,487,487,487,487,487,487,487,487,487,487,487,487,487,487,487,487,485,485,484,484,481,476,473,472,470,467,460,452,439,413,395,353,332,304,284,268,236,224,212,196,172,131,111,96,87,83,82,82,82,82,82,82,82,82,82,78,71,65,60,49,42,26],"timestamp_mouse":[8,34,46,67,85,106,126,145,166,186,207,226,247,266,285,306,326,345,366,386,406,425,445,466,486,505,525,545,566,585,605,625,646,665,685,705,725,745,766,785,805,827,845,865,885,905,925,947,965,985,1005,1025,1046,1067,1085,1106,1126,1145,1166,1185,1205,1225,1245,1266,1285,1306,1325,1346,1365,1386],"xSR":741.5,"ySR":469.95,"xT1":424.9,"yT1":0,"xT2":1058.1,"yT2":0,"toosoon":0,"cond_shown":"randomdotsizeEA","ratio_trial":250,"smaller_num":"3","larger_num":"12","correct_side":2,"subjID":"sofiapulido 2","gender":"1","age":"9","school":"4"},{"start_time":1552309291456,"click_time":1552309292405,"finger_time":1552309291985,"fix_duration":250,"trial":42,"RT":529,"MT":420,"sideResp":1,"stimulus":"img/250/equaldotsize/L/15_Ratio_250_L_12_R_3.png","xmouse":[769,769,769,769,769,769,769,769,769,769,769,769,769,769,769,769,769,769,769,769,769,769,769,769,770,770,769,754,748,738,732,726,705,688,666,646,631,606,597,583,575,575,575,575,575,575,575,522],"ymouse":[524,524,524,524,524,524,524,524,524,524,524,524,524,524,524,524,524,524,524,524,524,524,514,505,489,470,449,397,374,343,325,302,242,195,143,97,65,26,18,8,2,2,2,2,2,2,2,5],"timestamp_mouse":[8,36,48,69,89,109,128,148,168,188,209,229,248,269,289,309,328,349,368,389,408,428,448,468,489,509,529,549,569,588,608,629,649,668,688,708,730,748,769,788,808,828,848,868,888,908,929,948],"xSR":741.5,"ySR":469.95,"xT1":424.9,"yT1":0,"xT2":1058.1,"yT2":0,"toosoon":0,"cond_shown":"equaldotsize","ratio_trial":250,"smaller_num":"3","larger_num":"12","correct_side":1,"subjID":"sofiapulido 2","gender":"1","age":"9","school":"4"},{"start_time":1552309293797,"click_time":1552309295064,"finger_time":1552309294625,"fix_duration":250,"trial":43,"RT":828,"MT":439,"sideResp":2,"stimulus":"img/900/equaldotanddens/L/4_Ratio_900_L_20_R_18.png","xmouse":[823,823,823,823,823,823,823,823,823,823,823,823,823,823,821,820,817,815,814,814,814,814,814,814,813,813,813,813,813,813,813,813,813,813,813,813,813,813,813,817,827,849,869,890,910,953,976,998,1020,1039,1052,1080,1089,1094,1100,1111,1115,1118,1122,1125,1134,1141,1143,1144],"ymouse":[526,526,524,524,524,524,524,524,524,524,524,524,524,523,523,523,523,523,523,523,523,523,523,523,523,523,523,523,523,523,523,523,523,523,523,523,523,523,523,521,514,496,476,451,425,389,372,356,338,321,304,265,253,243,233,208,199,190,183,174,147,119,101,90],"timestamp_mouse":[26,27,47,68,89,107,128,148,169,188,207,228,247,268,288,308,327,348,367,388,407,428,447,468,488,508,527,548,568,588,607,628,647,667,688,707,727,748,768,787,807,828,847,868,887,907,927,947,968,987,1007,1028,1048,1068,1088,1109,1128,1147,1167,1187,1208,1227,1248,1267],"xSR":741.5,"ySR":469.95,"xT1":424.9,"yT1":0,"xT2":1058.1,"yT2":0,"toosoon":0,"cond_shown":"equaldotanddens","ratio_trial":900,"smaller_num":"18","larger_num":"20","correct_side":1,"subjID":"sofiapulido 2","gender":"1","age":"9","school":"4"},{"start_time":1552309296517,"click_time":1552309297705,"finger_time":1552309297185,"fix_duration":250,"trial":44,"RT":668,"MT":520,"sideResp":2,"stimulus":"img/250/randomdotsizeEA/R/8_Ratio_250_L_1_R_4.png","xmouse":[797,797,797,797,797,797,797,797,797,797,797,797,797,797,797,797,797,797,797,797,797,797,797,797,797,797,797,797,797,797,797,803,814,833,894,937,975,1020,1071,1118,1178,1200,1219,1234,1250,1253,1253,1254,1254,1254,1252,1250,1249,1246,1222,1208,1195,1182,1167,1157],"ymouse":[498,498,498,498,498,498,498,498,498,498,498,498,498,498,498,498,498,498,498,498,498,497,495,495,495,495,495,495,495,495,493,488,480,467,413,378,343,299,254,220,187,178,169,162,148,145,143,140,139,133,129,126,125,121,94,81,67,56,43,35],"timestamp_mouse":[12,34,47,68,88,107,127,148,167,187,208,228,248,268,288,308,327,347,367,388,407,428,448,468,488,509,528,547,567,588,607,629,648,668,688,707,728,748,767,787,807,829,848,867,888,908,927,947,968,989,1007,1027,1047,1068,1089,1107,1127,1147,1167,1188],"xSR":741.5,"ySR":469.95,"xT1":424.9,"yT1":0,"xT2":1058.1,"yT2":0,"toosoon":0,"cond_shown":"randomdotsizeEA","ratio_trial":250,"smaller_num":"1","larger_num":"4","correct_side":2,"subjID":"sofiapulido 2","gender":"1","age":"9","school":"4"},{"start_time":1552309299476,"click_time":1552309300604,"finger_time":1552309300164,"fix_duration":589.8151554673834,"trial":45,"RT":688,"MT":440,"sideResp":1,"stimulus":"img/750/randomdotsizeEA/R/15_Ratio_750_L_9_R_12.png","xmouse":[803,803,803,803,803,803,803,803,803,803,803,803,803,803,803,803,803,803,803,803,803,803,803,803,803,803,803,803,802,800,800,798,793,790,781,775,768,762,741,731,720,711,697,690,671,653,635,598,583,572,561,556,549,545,535,528,521],"ymouse":[514,514,514,514,514,514,514,514,514,514,514,514,514,514,514,514,514,514,514,514,514,514,514,514,514,514,514,514,514,513,512,507,492,481,463,454,442,433,408,395,381,365,337,324,294,270,244,188,170,154,141,133,121,115,103,94,85],"timestamp_mouse":[12,29,50,69,88,108,129,148,168,188,210,228,248,270,289,309,329,349,368,389,409,428,449,469,488,509,528,549,569,589,608,629,648,669,688,708,729,748,768,789,809,829,849,869,888,908,929,949,969,988,1008,1028,1049,1068,1088,1109,1128],"xSR":741.5,"ySR":469.95,"xT1":424.9,"yT1":0,"xT2":1058.1,"yT2":0,"toosoon":0,"cond_shown":"randomdotsizeEA","ratio_trial":750,"smaller_num":"9","larger_num":"12","correct_side":2,"subjID":"sofiapulido 2","gender":"1","age":"9","school":"4"},{"start_time":1552309302420,"click_time":1552309303684,"finger_time":1552309302924,"fix_duration":294.0298842890983,"trial":46,"RT":504,"MT":760,"sideResp":1,"stimulus":"img/250/equaldotsize/L/14_Ratio_250_L_12_R_3.png","xmouse":[785,785,785,785,785,785,785,785,788,790,797,798,799,800,801,801,801,801,802,804,810,814,817,822,827,844,863,878,891,901,911,911,909,906,899,885,868,863,860,857,855,850,843,829,812,772,742,724,710,698,669,651,631,611,593,570,570,570,570,570,570,570,514,512],"ymouse":[516,516,516,516,516,516,516,516,517,517,514,514,513,512,512,512,512,512,510,509,501,497,491,483,474,447,423,405,387,369,338,329,323,319,316,314,314,313,312,311,309,307,301,291,277,232,190,165,139,118,73,55,36,22,11,2,2,2,2,2,2,2,0,1],"timestamp_mouse":[9,38,44,64,84,104,125,144,164,185,204,224,246,264,284,305,324,345,365,384,404,424,445,465,485,504,524,544,565,584,605,624,644,665,684,704,726,745,764,784,804,824,844,864,884,904,924,944,964,984,1005,1024,1044,1065,1084,1104,1124,1144,1164,1185,1205,1224,1244,1264],"xSR":741.5,"ySR":469.95,"xT1":424.9,"yT1":0,"xT2":1058.1,"yT2":0,"toosoon":0,"cond_shown":"equaldotsize","ratio_trial":250,"smaller_num":"3","larger_num":"12","correct_side":1,"subjID":"sofiapulido 2","gender":"1","age":"9","school":"4"},{"start_time":1552309306523,"click_time":1552309307965,"finger_time":1552309307344,"fix_duration":1457.7267195365414,"trial":47,"RT":821,"MT":621,"sideResp":2,"stimulus":"img/250/equaldotanddens/R/8_Ratio_250_L_1_R_4.png","xmouse":[786,786,786,787,787,787,787,787,787,787,787,787,787,787,787,787,787,787,787,787,787,787,787,787,787,787,787,787,787,789,790,791,793,794,795,797,802,806,818,827,840,878,898,916,933,947,968,974,980,986,997,1010,1016,1023,1030,1039,1055,1063,1071,1081,1087,1102,1109,1116,1123,1129,1137,1141,1145,1146,1148,1150,1151],"ymouse":[525,525,525,525,525,525,525,525,525,525,525,525,525,525,525,525,525,525,525,525,525,525,525,525,525,525,525,525,525,525,524,523,521,521,520,518,514,510,500,494,484,457,443,426,407,391,373,369,366,361,351,335,327,315,303,289,260,245,233,215,205,181,169,157,146,137,127,122,116,112,107,100,97],"timestamp_mouse":[9,32,41,62,81,103,122,141,162,183,201,221,242,261,281,302,321,342,362,381,402,421,442,462,481,501,522,541,561,581,601,623,641,662,681,701,721,741,761,782,801,821,841,861,881,902,921,941,962,982,1001,1021,1041,1061,1081,1101,1121,1141,1161,1181,1202,1222,1241,1262,1281,1302,1321,1341,1361,1381,1401,1421,1441],"xSR":741.5,"ySR":469.95,"xT1":424.9,"yT1":0,"xT2":1058.1,"yT2":0,"toosoon":0,"cond_shown":"equaldotanddens","ratio_trial":250,"smaller_num":"1","larger_num":"4","correct_side":2,"subjID":"sofiapulido 2","gender":"1","age":"9","school":"4"},{"start_time":1552309310459,"click_time":1552309311625,"finger_time":1552309311226,"fix_duration":1374.4111287881476,"trial":48,"RT":767,"MT":399,"sideResp":2,"stimulus":"img/500/equaldotsize/R/14_Ratio_500_L_5_R_10.png","xmouse":[806,806,806,806,806,806,806,806,806,806,806,806,806,806,806,806,806,806,806,806,806,806,806,806,806,806,806,806,806,806,806,806,806,806,812,816,823,835,850,891,921,936,950,965,991,1002,1012,1021,1029,1049,1060,1069,1079,1086,1095,1105,1108,1110,1112],"ymouse":[519,519,519,519,519,519,519,519,519,519,519,519,519,519,519,519,519,519,519,519,519,519,519,519,519,519,519,519,519,519,519,519,518,515,510,506,500,490,477,447,423,411,399,386,362,351,340,328,315,276,258,239,225,209,190,147,126,110,96],"timestamp_mouse":[11,31,46,66,86,105,125,145,165,185,205,226,245,265,285,306,327,346,366,386,405,426,446,465,486,506,527,546,566,585,606,627,646,666,685,705,725,746,767,786,805,825,846,865,886,905,926,945,966,986,1006,1025,1045,1065,1085,1105,1126,1146,1166],"xSR":741.5,"ySR":469.95,"xT1":424.9,"yT1":0,"xT2":1058.1,"yT2":0,"toosoon":0,"cond_shown":"equaldotsize","ratio_trial":500,"smaller_num":"5","larger_num":"10","correct_side":2,"subjID":"sofiapulido 2","gender":"1","age":"9","school":"4"},{"start_time":1552309313115,"click_time":1552309315845,"finger_time":1552309315264,"fix_duration":250,"trial":49,"RT":2149,"MT":581,"sideResp":2,"stimulus":"img/500/randomdotsizeEA/R/1_Ratio_500_L_9_R_18.png","xmouse":[811,811,811,811,811,811,811,811,811,811,811,811,811,811,811,811,811,811,811,811,811,811,811,811,811,811,811,811,811,811,811,811,811,811,811,811,811,811,811,811,811,811,811,811,811,811,811,811,811,811,811,811,811,811,811,811,811,811,811,811,811,811,811,811,811,811,811,811,811,811,811,811,811,811,811,811,812,815,816,817,818,819,820,820,820,820,820,820,820,821,821,822,822,822,822,822,822,822,822,822,822,822,822,822,822,822,826,842,855,874,909,954,1046,1082,1112,1118,1132,1142,1147,1151,1155,1159,1167,1168,1170,1171,1171,1171,1171,1171,1171,1171,1171,1171,1169,1165,1156],"ymouse":[537,537,537,537,537,537,537,537,537,537,537,537,537,537,537,537,537,537,537,537,537,537,537,537,537,537,537,537,537,537,537,537,537,537,537,537,537,537,537,537,537,537,537,537,537,537,537,537,537,537,537,537,537,537,537,537,537,537,537,537,537,537,537,537,537,537,537,537,537,537,537,537,537,536,536,535,534,532,530,529,527,526,524,523,523,523,523,523,523,522,522,520,520,520,520,520,520,520,519,517,516,513,508,505,504,501,493,471,456,438,409,372,292,257,221,213,198,184,176,170,160,150,130,118,107,97,88,82,78,75,73,73,73,72,72,72,72],"timestamp_mouse":[9,36,50,69,90,110,129,149,170,189,209,230,251,270,290,309,329,349,369,390,411,430,450,470,489,509,530,550,571,590,610,630,650,671,689,710,730,749,770,791,809,830,849,870,890,910,930,950,971,990,1009,1029,1050,1069,1089,1110,1130,1149,1170,1189,1211,1229,1249,1269,1289,1309,1329,1349,1369,1390,1411,1430,1449,1470,1489,1509,1529,1549,1569,1589,1610,1629,1649,1671,1690,1709,1730,1749,1769,1789,1810,1830,1849,1869,1890,1909,1929,1949,1970,1990,2009,2030,2049,2070,2089,2111,2129,2149,2169,2190,2209,2230,2249,2269,2289,2309,2329,2349,2369,2389,2410,2430,2449,2469,2489,2510,2530,2549,2569,2589,2609,2629,2650,2669,2689,2710,2729],"xSR":741.5,"ySR":469.95,"xT1":424.9,"yT1":0,"xT2":1058.1,"yT2":0,"toosoon":0,"cond_shown":"randomdotsizeEA","ratio_trial":500,"smaller_num":"9","larger_num":"18","correct_side":2,"subjID":"sofiapulido 2","gender":"1","age":"9","school":"4"},{"start_time":1552309317683,"click_time":1552309318684,"finger_time":1552309318164,"fix_duration":717.5591380659938,"trial":50,"RT":481,"MT":520,"sideResp":2,"stimulus":"img/900/equaldotsize/R/9_Ratio_900_L_18_R_20.png","xmouse":[792,792,793,794,794,795,795,796,796,798,799,800,802,804,808,810,812,813,813,813,813,813,813,813,815,816,818,819,821,831,843,857,873,896,949,971,985,1000,1008,1013,1026,1033,1040,1047,1061,1069,1076,1081,1084,1090,1094],"ymouse":[490,490,490,490,490,489,489,489,488,487,486,486,484,480,476,474,472,471,471,471,471,471,471,470,467,467,464,463,460,445,432,416,394,369,317,297,278,255,242,232,213,204,194,184,160,146,131,121,114,103,97],"timestamp_mouse":[10,21,41,62,82,101,121,141,161,181,201,222,241,261,281,301,321,341,362,381,402,421,441,461,481,502,522,541,561,581,601,622,642,661,682,702,721,741,761,781,801,821,841,863,881,902,921,941,961,981,1001],"xSR":741.5,"ySR":469.95,"xT1":424.9,"yT1":0,"xT2":1058.1,"yT2":0,"toosoon":0,"cond_shown":"equaldotsize","ratio_trial":900,"smaller_num":"18","larger_num":"20","correct_side":2,"subjID":"sofiapulido 2","gender":"1","age":"9","school":"4"},{"start_time":1552309321168,"click_time":1552309322485,"finger_time":1552309321865,"fix_duration":861.9332239759788,"trial":51,"RT":697,"MT":620,"sideResp":2,"stimulus":"img/900/randomdotsizeEA/L/2_Ratio_900_L_20_R_18.png","xmouse":[802,802,802,802,802,802,802,802,802,802,802,802,802,802,802,802,802,802,805,808,815,817,817,817,818,818,818,818,818,818,818,819,823,826,830,837,842,845,850,864,888,916,955,1003,1096,1137,1167,1196,1217,1228,1245,1245,1245,1245,1245,1245,1245,1245,1245,1245,1245,1245,1210,1190,1171,1140],"ymouse":[484,484,484,484,484,484,484,484,484,484,484,484,484,484,484,484,484,484,482,482,480,478,478,478,478,478,478,478,478,478,478,478,476,472,469,464,462,461,460,453,437,415,380,338,240,187,150,109,74,49,2,2,2,2,2,2,2,2,2,2,2,2,0,8,13,23],"timestamp_mouse":[16,36,57,77,97,116,137,156,178,196,216,236,256,276,296,316,336,356,377,397,416,436,456,476,496,517,537,556,576,597,617,636,656,677,697,716,736,756,778,797,816,836,856,876,897,916,937,957,977,996,1016,1036,1056,1077,1097,1116,1136,1156,1176,1198,1218,1237,1256,1277,1297,1317],"xSR":741.5,"ySR":469.95,"xT1":424.9,"yT1":0,"xT2":1058.1,"yT2":0,"toosoon":0,"cond_shown":"randomdotsizeEA","ratio_trial":900,"smaller_num":"18","larger_num":"20","correct_side":1,"subjID":"sofiapulido 2","gender":"1","age":"9","school":"4"},{"start_time":1552309325371,"click_time":1552309327105,"finger_time":1552309326225,"fix_duration":1445.2967269606029,"trial":52,"RT":854,"MT":880,"sideResp":2,"stimulus":"img/750/randomdotsizeEA/L/1_Ratio_750_L_20_R_15.png","xmouse":[797,797,797,797,797,797,797,797,797,797,797,798,801,804,805,806,806,806,806,806,806,806,806,806,806,806,806,806,806,806,806,806,806,806,806,806,807,807,808,808,808,808,808,808,808,804,800,790,782,774,765,764,763,763,763,763,763,763,763,764,769,774,786,801,819,869,929,970,1007,1032,1075,1084,1086,1086,1086,1087,1088,1089,1092,1095,1105,1110,1114,1118,1121,1126,1127],"ymouse":[494,494,494,494,494,494,494,494,494,494,494,492,490,488,487,486,486,486,486,486,486,486,486,486,486,486,486,486,486,486,486,486,486,486,486,486,486,485,483,480,475,472,469,464,460,446,433,411,392,374,353,349,347,347,347,347,347,347,347,348,355,359,366,370,374,370,338,309,287,276,263,260,259,259,259,258,257,256,253,246,222,203,180,159,139,106,90],"timestamp_mouse":[14,44,54,74,93,113,133,154,173,194,215,233,254,273,293,313,335,354,373,395,414,433,453,473,493,515,533,553,573,593,614,633,653,674,693,713,733,753,773,794,813,833,854,873,893,913,933,953,973,993,1013,1033,1053,1073,1094,1114,1133,1154,1173,1193,1213,1234,1254,1273,1294,1313,1334,1353,1374,1393,1414,1433,1453,1474,1493,1514,1534,1553,1574,1593,1614,1633,1654,1673,1694,1714,1734],"xSR":741.5,"ySR":469.95,