[{"start_time":1552327402244,"click_time":1552327406572,"finger_time":1552327402254,"fix_duration":706.1906237257325,"trial":0,"RT":10,"MT":4318,"sideResp":1,"stimulus":[],"xmouse":[814,814,814,814,814,814,814,814,814,814,814,814,814,814,814,814,814,814,814,814,814,814,814,814,814,814,814,814,814,814,814,814,814,814,814,812,812,811,811,811,811,810,810,810,810,810,810,810,810,809,808,806,804,804,803,803,803,803,803,803,803,803,803,803,803,803,803,803,803,803,803,803,803,803,803,803,803,803,803,803,803,803,803,803,803,803,803,803,803,803,804,804,804,804,804,804,804,804,804,804,804,804,804,804,804,804,804,804,804,804,804,804,804,804,804,804,804,804,804,804,804,804,804,804,804,805,805,805,805,805,805,805,805,805,805,805,805,805,805,808,808,809,810,810,810,810,810,810,810,810,810,811,813,813,814,814,815,815,815,815,815,815,815,815,815,815,815,815,815,815,815,815,815,815,815,815,815,815,815,815,815,815,815,815,815,815,815,815,815,815,815,812,802,794,780,777,765,747,740,731,724,713,691,682,674,663,659,654,651,647,639,631,609,591,571,528,496],"ymouse":[508,508,508,508,508,508,508,508,508,508,508,508,508,508,508,508,508,508,508,508,508,508,508,508,508,508,508,508,508,508,508,508,508,508,508,513,517,542,553,561,568,573,583,587,590,592,593,598,599,601,605,607,612,614,616,616,616,616,616,616,616,616,616,616,616,616,616,616,616,616,616,616,616,616,616,616,616,616,616,616,616,617,618,619,619,619,619,622,623,624,625,625,625,625,625,625,625,625,625,625,625,625,625,625,625,625,625,625,625,625,625,625,625,625,625,625,625,625,625,625,625,625,625,625,625,625,625,625,625,625,625,625,625,625,625,625,625,625,625,624,623,621,620,620,620,620,620,620,620,620,620,619,614,610,607,604,601,597,595,594,593,593,593,593,593,593,593,593,593,594,596,601,611,615,619,626,627,629,629,629,629,629,629,629,629,629,629,629,629,629,629,621,605,593,573,568,549,517,504,484,454,427,386,372,357,339,331,320,312,301,289,279,249,225,196,140,96],"timestamp_mouse":[9,28,48,67,87,107,126,147,166,187,207,228,246,267,288,307,327,348,367,387,407,427,447,467,487,508,527,547,568,587,608,627,646,667,686,708,727,748,767,787,806,826,846,866,886,907,926,946,966,988,1008,1027,1047,1067,1087,1107,1126,1148,1166,1186,1208,1227,1248,1267,1287,1308,1326,1347,1368,1387,1408,1427,1446,1466,1487,1506,1526,1548,1566,1588,1607,1628,1647,1667,1686,1707,1727,1746,1766,1786,1807,1827,1846,1866,1887,1907,1928,1948,1968,1986,2007,2028,2046,2066,2088,2107,2126,2146,2167,2187,2207,2226,2246,2268,2286,2306,2328,2346,2367,2388,2408,2428,2447,2467,2488,2507,2527,2546,2568,2588,2607,2627,2647,2666,2688,2707,2727,2746,2768,2787,2807,2828,2846,2866,2888,2907,2927,2947,2966,2986,3007,3027,3047,3067,3087,3108,3127,3147,3166,3187,3208,3227,3247,3266,3288,3307,3328,3347,3368,3387,3407,3427,3447,3468,3487,3507,3526,3547,3567,3588,3607,3627,3647,3667,3688,3706,3728,3747,3768,3787,3807,3827,3846,3868,3887,3908,3927,3946,3967,3987,4007,4028,4046,4067,4087,4106,4128,4148,4166,4186,4207,4228,4246,4267,4287,4306,4327],"xSR":741.5,"ySR":469.95,"xT1":424.9,"yT1":0,"xT2":1058.1,"yT2":0,"toosoon":0,"cond_shown":"Incongruent","ratio_trial":300,"L_num":8,"L_den":10,"R_num":14,"R_den":28,"correct_side":1,"subjID":"TalianaVigoyaTaborda24","gender":"1","age":"9","school":"4","test":{"fix_dur":[250,1500],"timestim":1000,"targets_dim":[100,100],"targets_relative_coord":[0.3,0.7],"size_stim":[880,420],"start_dim":[100,100],"size_start":[300,300],"size_fix":60,"samplingrate":20,"img_types":["Congruent","Incongruent"],"ratios":[100,200,300],"rep_conds":19,"nTrials":120,"trials_to_rest":500,"Trials_order":[47,22,119,49,38,26,40,117,50,14,30,0,62,106,4,34,78,103,42,33,89,18,107,23,7,20,41,11,101,108,73,31,76,63,100,48,1,3,35,13,102,84,65,64,99,27,90,68,77,94,79,96,44,115,81,114,15,55,71,5,16,92,83,113,25,8,74,111,57,28,54,52,95,2,70,46,87,75,45,112,6,37,43,82,60,88,17,59,51,98,10,109,24,118,32,29,80,105,39,97,93,110,104,61,85,69,58,21,67,72,12,53,86,56,66,116,19,91,9,36],"cond_shown":["Incongruent","Congruent","Incongruent","Incongruent","Congruent","Congruent","Congruent","Incongruent","Congruent","Congruent","Congruent","Congruent","Congruent","Congruent","Congruent","Congruent","Congruent","Incongruent","Congruent","Incongruent","Incongruent","Congruent","Incongruent","Incongruent","Incongruent","Congruent","Incongruent","Incongruent","Incongruent","Congruent","Incongruent","Incongruent","Congruent","Incongruent","Congruent","Congruent","Incongruent","Incongruent","Incongruent","Incongruent","Congruent","Congruent","Incongruent","Congruent","Incongruent","Incongruent","Congruent","Congruent","Incongruent","Congruent","Incongruent","Congruent","Congruent","Incongruent","Incongruent","Congruent","Incongruent","Incongruent","Incongruent","Incongruent","Congruent","Congruent","Incongruent","Incongruent","Incongruent","Congruent","Congruent","Incongruent","Incongruent","Congruent","Congruent","Congruent","Incongruent","Congruent","Congruent","Congruent","Incongruent","Incongruent","Incongruent","Congruent","Congruent","Incongruent","Incongruent","Congruent","Congruent","Congruent","Incongruent","Incongruent","Incongruent","Congruent","Congruent","Incongruent","Congruent","Congruent","Congruent","Incongruent","Congruent","Incongruent","Incongruent","Incongruent","Incongruent","Congruent","Congruent","Incongruent","Incongruent","Incongruent","Congruent","Incongruent","Incongruent","Congruent","Congruent","Incongruent","Congruent","Congruent","Congruent","Congruent","Incongruent","Incongruent","Incongruent","Congruent"],"ratio_trial":[300,300,300,100,200,200,300,200,200,200,100,100,200,300,300,300,100,100,100,200,300,100,300,300,100,200,300,300,300,100,100,100,300,200,300,100,100,200,300,100,100,100,300,300,200,200,100,200,300,300,100,100,200,100,200,100,200,100,300,300,300,200,300,300,100,200,200,200,200,300,100,300,300,200,300,300,200,200,200,300,100,100,100,300,100,300,300,300,200,200,300,100,100,300,200,300,200,200,200,100,200,200,200,100,100,200,300,200,100,100,100,300,200,200,100,200,100,100,200,100],"left_num":[8,24,4,1,6,6,3,4,3,8,9,6,3,2,20,20,15,6,11,4,13,15,4,8,9,14,13,4,4,3,6,9,1,7,8,4,11,4,4,10,4,7,4,1,4,3,8,12,1,20,11,6,3,13,11,1,11,3,7,4,2,3,8,13,9,8,13,7,4,20,9,7,1,3,2,2,1,4,7,2,6,6,4,1,15,12,7,8,7,3,3,12,1,3,8,2,9,7,14,6,4,4,13,6,8,7,1,7,12,3,10,8,3,21,11,9,13,11,6,1],"right_num":[14,2,2,8,3,11,2,6,14,7,8,5,7,12,8,5,13,3,4,6,12,13,8,14,6,6,12,2,2,2,13,20,11,8,1,15,9,6,2,8,15,15,6,7,1,11,2,6,2,9,9,5,14,12,3,3,3,11,8,6,12,9,9,12,6,7,14,12,6,14,8,20,2,7,10,12,3,6,14,12,15,7,8,11,13,2,8,9,8,11,2,9,3,4,2,6,4,12,12,3,6,3,14,7,1,6,3,8,2,2,3,14,11,2,4,4,12,9,3,18],"left_den":[10,30,20,2,15,20,6,5,6,15,15,20,10,10,25,25,25,12,22,5,26,25,5,10,18,28,26,20,20,6,10,10,5,10,16,10,22,5,20,25,10,14,5,20,30,4,16,20,2,25,22,20,6,26,20,2,20,5,10,5,10,12,10,26,18,15,26,10,5,25,15,14,2,10,20,10,2,5,10,10,12,10,8,5,25,24,10,10,10,10,6,24,2,6,15,4,20,10,30,12,5,8,26,10,20,15,5,10,30,6,25,10,10,30,22,20,26,22,20,2],"right_den":[28,4,4,20,15,22,10,10,20,21,16,25,14,24,16,10,26,5,10,10,15,26,16,28,10,20,15,4,4,5,26,25,22,16,5,30,15,10,4,16,30,25,12,20,3,20,5,15,10,18,15,25,20,20,4,5,4,22,20,12,24,20,18,15,10,21,20,24,10,28,16,25,10,14,25,24,10,10,28,24,25,14,20,22,26,10,20,18,16,22,10,15,5,5,6,30,16,24,18,5,10,10,20,14,2,9,6,16,4,5,10,28,22,4,10,16,20,15,6,30],"correct_side":[1,1,2,1,1,2,1,1,2,1,1,1,2,2,1,1,1,2,1,1,2,1,1,1,2,1,2,2,2,1,1,1,2,1,1,2,2,1,2,2,2,2,1,2,2,1,1,1,1,1,2,1,2,2,2,2,2,1,1,1,2,2,1,2,2,1,2,1,1,1,1,2,1,2,2,2,1,1,1,2,2,1,1,2,1,1,1,1,1,2,1,2,2,2,1,1,1,1,2,2,1,1,2,1,2,2,2,1,2,1,1,1,2,1,1,1,2,2,2,2],"img_shown":["img2/300/Incongruent/L/I_Dist_300_LN_8_LD_10_RN_14_RD_28_0.png","img2/300/Congruent/L/C_Dist_300_LN_24_LD_30_RN_2_RD_4_0.png","img2/300/Incongruent/R/I_Dist_300_LN_4_LD_20_RN_2_RD_4_1.png","img2/100/Incongruent/L/I_Dist_100_LN_1_LD_2_RN_8_RD_20_0.png","img2/200/Congruent/L/C_Dist_200_LN_6_LD_15_RN_3_RD_15_0.png","img2/200/Congruent/R/C_Dist_200_LN_6_LD_20_RN_11_RD_22_1.png","img2/300/Congruent/L/C_Dist_300_LN_3_LD_6_RN_2_RD_10_0.png","img2/200/Incongruent/L/I_Dist_200_LN_4_LD_5_RN_6_RD_10_0.png","img2/200/Congruent/R/C_Dist_200_LN_3_LD_6_RN_14_RD_20_1.png","img2/200/Congruent/L/C_Dist_200_LN_8_LD_15_RN_7_RD_21_0.png","img2/100/Congruent/L/C_Dist_100_LN_9_LD_15_RN_8_RD_16_0.png","img2/100/Congruent/L/C_Dist_100_LN_6_LD_20_RN_5_RD_25_0.png","img2/200/Congruent/R/C_Dist_200_LN_3_LD_10_RN_7_RD_14_1.png","img2/300/Congruent/R/C_Dist_300_LN_2_LD_10_RN_12_RD_24_1.png","img2/300/Congruent/L/C_Dist_300_LN_20_LD_25_RN_8_RD_16_0.png","img2/300/Congruent/L/C_Dist_300_LN_20_LD_25_RN_5_RD_10_0.png","img2/100/Congruent/L/C_Dist_100_LN_15_LD_25_RN_13_RD_26_0.png","img2/100/Incongruent/R/I_Dist_100_LN_6_LD_12_RN_3_RD_5_1.png","img2/100/Congruent/L/C_Dist_100_LN_11_LD_22_RN_4_RD_10_0.png","img2/200/Incongruent/L/I_Dist_200_LN_4_LD_5_RN_6_RD_10_0.png","img2/300/Incongruent/R/I_Dist_300_LN_13_LD_26_RN_12_RD_15_1.png","img2/100/Congruent/L/C_Dist_100_LN_15_LD_25_RN_13_RD_26_0.png","img2/300/Incongruent/L/I_Dist_300_LN_4_LD_5_RN_8_RD_16_0.png","img2/300/Incongruent/L/I_Dist_300_LN_8_LD_10_RN_14_RD_28_0.png","img2/100/Incongruent/R/I_Dist_100_LN_9_LD_18_RN_6_RD_10_1.png","img2/200/Congruent/L/C_Dist_200_LN_14_LD_28_RN_6_RD_20_0.png","img2/300/Incongruent/R/I_Dist_300_LN_13_LD_26_RN_12_RD_15_1.png","img2/300/Incongruent/R/I_Dist_300_LN_4_LD_20_RN_2_RD_4_1.png","img2/300/Incongruent/R/I_Dist_300_LN_4_LD_20_RN_2_RD_4_1.png","img2/100/Congruent/L/C_Dist_100_LN_3_LD_6_RN_2_RD_5_0.png","img2/100/Incongruent/L/I_Dist_100_LN_6_LD_10_RN_13_RD_26_0.png","img2/100/Incongruent/L/I_Dist_100_LN_9_LD_10_RN_20_RD_25_0.png","img2/300/Congruent/R/C_Dist_300_LN_1_LD_5_RN_11_RD_22_1.png","img2/200/Incongruent/L/I_Dist_200_LN_7_LD_10_RN_8_RD_16_0.png","img2/300/Congruent/L/C_Dist_300_LN_8_LD_16_RN_1_RD_5_0.png","img2/100/Congruent/R/C_Dist_100_LN_4_LD_10_RN_15_RD_30_1.png","img2/100/Incongruent/R/I_Dist_100_LN_11_LD_22_RN_9_RD_15_1.png","img2/200/Incongruent/L/I_Dist_200_LN_4_LD_5_RN_6_RD_10_0.png","img2/300/Incongruent/R/I_Dist_300_LN_4_LD_20_RN_2_RD_4_1.png","img2/100/Incongruent/R/I_Dist_100_LN_10_LD_25_RN_8_RD_16_1.png","img2/100/Congruent/R/C_Dist_100_LN_4_LD_10_RN_15_RD_30_1.png","img2/100/Congruent/R/C_Dist_100_LN_7_LD_14_RN_15_RD_25_1.png","img2/300/Incongruent/L/I_Dist_300_LN_4_LD_5_RN_6_RD_12_0.png","img2/300/Congruent/R/C_Dist_300_LN_1_LD_20_RN_7_RD_20_1.png","img2/200/Incongruent/R/I_Dist_200_LN_4_LD_30_RN_1_RD_3_1.png","img2/200/Incongruent/L/I_Dist_200_LN_3_LD_4_RN_11_RD_20_0.png","img2/100/Congruent/L/C_Dist_100_LN_8_LD_16_RN_2_RD_5_0.png","img2/200/Congruent/L/C_Dist_200_LN_12_LD_20_RN_6_RD_15_0.png","img2/300/Incongruent/L/I_Dist_300_LN_1_LD_2_RN_2_RD_10_0.png","img2/300/Congruent/L/C_Dist_300_LN_20_LD_25_RN_9_RD_18_0.png","img2/100/Incongruent/R/I_Dist_100_LN_11_LD_22_RN_9_RD_15_1.png","img2/100/Congruent/L/C_Dist_100_LN_6_LD_20_RN_5_RD_25_0.png","img2/200/Congruent/R/C_Dist_200_LN_3_LD_6_RN_14_RD_20_1.png","img2/100/Incongruent/R/I_Dist_100_LN_13_LD_26_RN_12_RD_20_1.png","img2/200/Incongruent/R/I_Dist_200_LN_11_LD_20_RN_3_RD_4_1.png","img2/100/Congruent/R/C_Dist_100_LN_1_LD_2_RN_3_RD_5_1.png","img2/200/Incongruent/R/I_Dist_200_LN_11_LD_20_RN_3_RD_4_1.png","img2/100/Incongruent/L/I_Dist_100_LN_3_LD_5_RN_11_RD_22_0.png","img2/300/Incongruent/L/I_Dist_300_LN_7_LD_10_RN_8_RD_20_0.png","img2/300/Incongruent/L/I_Dist_300_LN_4_LD_5_RN_6_RD_12_0.png","img2/300/Congruent/R/C_Dist_300_LN_2_LD_10_RN_12_RD_24_1.png","img2/200/Congruent/R/C_Dist_200_LN_3_LD_12_RN_9_RD_20_1.png","img2/300/Incongruent/L/I_Dist_300_LN_8_LD_10_RN_9_RD_18_0.png","img2/300/Incongruent/R/I_Dist_300_LN_13_LD_26_RN_12_RD_15_1.png","img2/100/Incongruent/R/I_Dist_100_LN_9_LD_18_RN_6_RD_10_1.png","img2/200/Congruent/L/C_Dist_200_LN_8_LD_15_RN_7_RD_21_0.png","img2/200/Congruent/R/C_Dist_200_LN_13_LD_26_RN_14_RD_20_1.png","img2/200/Incongruent/L/I_Dist_200_LN_7_LD_10_RN_12_RD_24_0.png","img2/200/Incongruent/L/I_Dist_200_LN_4_LD_5_RN_6_RD_10_0.png","img2/300/Congruent/L/C_Dist_300_LN_20_LD_25_RN_14_RD_28_0.png","img2/100/Congruent/L/C_Dist_100_LN_9_LD_15_RN_8_RD_16_0.png","img2/300/Congruent/R/C_Dist_300_LN_7_LD_14_RN_20_RD_25_1.png","img2/300/Incongruent/L/I_Dist_300_LN_1_LD_2_RN_2_RD_10_0.png","img2/200/Congruent/R/C_Dist_200_LN_3_LD_10_RN_7_RD_14_1.png","img2/300/Congruent/R/C_Dist_300_LN_2_LD_20_RN_10_RD_25_1.png","img2/300/Congruent/R/C_Dist_300_LN_2_LD_10_RN_12_RD_24_1.png","img2/200/Incongruent/L/I_Dist_200_LN_1_LD_2_RN_3_RD_10_0.png","img2/200/Incongruent/L/I_Dist_200_LN_4_LD_5_RN_6_RD_10_0.png","img2/200/Incongruent/L/I_Dist_200_LN_7_LD_10_RN_14_RD_28_0.png","img2/300/Congruent/R/C_Dist_300_LN_2_LD_10_RN_12_RD_24_1.png","img2/100/Congruent/R/C_Dist_100_LN_6_LD_12_RN_15_RD_25_1.png","img2/100/Incongruent/L/I_Dist_100_LN_6_LD_10_RN_7_RD_14_0.png","img2/100/Incongruent/L/I_Dist_100_LN_4_LD_8_RN_8_RD_20_0.png","img2/300/Congruent/R/C_Dist_300_LN_1_LD_5_RN_11_RD_22_1.png","img2/100/Congruent/L/C_Dist_100_LN_15_LD_25_RN_13_RD_26_0.png","img2/300/Congruent/L/C_Dist_300_LN_12_LD_24_RN_2_RD_10_0.png","img2/300/Incongruent/L/I_Dist_300_LN_7_LD_10_RN_8_RD_20_0.png","img2/300/Incongruent/L/I_Dist_300_LN_8_LD_10_RN_9_RD_18_0.png","img2/200/Incongruent/L/I_Dist_200_LN_7_LD_10_RN_8_RD_16_0.png","img2/200/Congruent/R/C_Dist_200_LN_3_LD_10_RN_11_RD_22_1.png","img2/300/Congruent/L/C_Dist_300_LN_3_LD_6_RN_2_RD_10_0.png","img2/100/Incongruent/R/I_Dist_100_LN_12_LD_24_RN_9_RD_15_1.png","img2/100/Congruent/R/C_Dist_100_LN_1_LD_2_RN_3_RD_5_1.png","img2/300/Congruent/R/C_Dist_300_LN_3_LD_6_RN_4_RD_5_1.png","img2/200/Congruent/L/C_Dist_200_LN_8_LD_15_RN_2_RD_6_0.png","img2/300/Incongruent/L/I_Dist_300_LN_2_LD_4_RN_6_RD_30_0.png","img2/200/Congruent/L/C_Dist_200_LN_9_LD_20_RN_4_RD_16_0.png","img2/200/Incongruent/L/I_Dist_200_LN_7_LD_10_RN_12_RD_24_0.png","img2/200/Incongruent/R/I_Dist_200_LN_14_LD_30_RN_12_RD_18_1.png","img2/100/Incongruent/R/I_Dist_100_LN_6_LD_12_RN_3_RD_5_1.png","img2/200/Incongruent/L/I_Dist_200_LN_4_LD_5_RN_6_RD_10_0.png","img2/200/Congruent/L/C_Dist_200_LN_4_LD_8_RN_3_RD_10_0.png","img2/200/Congruent/R/C_Dist_200_LN_13_LD_26_RN_14_RD_20_1.png","img2/100/Incongruent/L/I_Dist_100_LN_6_LD_10_RN_7_RD_14_0.png","img2/100/Incongruent/R/I_Dist_100_LN_8_LD_20_RN_1_RD_2_1.png","img2/200/Incongruent/R/I_Dist_200_LN_7_LD_15_RN_6_RD_9_1.png","img2/300/Congruent/R/C_Dist_300_LN_1_LD_5_RN_3_RD_6_1.png","img2/200/Incongruent/L/I_Dist_200_LN_7_LD_10_RN_8_RD_16_0.png","img2/100/Incongruent/R/I_Dist_100_LN_12_LD_30_RN_2_RD_4_1.png","img2/100/Congruent/L/C_Dist_100_LN_3_LD_6_RN_2_RD_5_0.png","img2/100/Congruent/L/C_Dist_100_LN_10_LD_25_RN_3_RD_10_0.png","img2/300/Incongruent/L/I_Dist_300_LN_8_LD_10_RN_14_RD_28_0.png","img2/200/Congruent/R/C_Dist_200_LN_3_LD_10_RN_11_RD_22_1.png","img2/200/Congruent/L/C_Dist_200_LN_21_LD_30_RN_2_RD_4_0.png","img2/100/Congruent/L/C_Dist_100_LN_11_LD_22_RN_4_RD_10_0.png","img2/200/Congruent/L/C_Dist_200_LN_9_LD_20_RN_4_RD_16_0.png","img2/100/Incongruent/R/I_Dist_100_LN_13_LD_26_RN_12_RD_20_1.png","img2/100/Incongruent/R/I_Dist_100_LN_11_LD_22_RN_9_RD_15_1.png","img2/200/Incongruent/R/I_Dist_200_LN_6_LD_20_RN_3_RD_6_1.png","img2/100/Congruent/R/C_Dist_100_LN_1_LD_2_RN_18_RD_30_1.png"],"dist100_C":[["C_Dist_100_LN_10_LD_25_RN_3_RD_10_0.png","C_Dist_100_LN_11_LD_22_RN_4_RD_10_0.png","C_Dist_100_LN_11_LD_22_RN_6_RD_15_0.png","C_Dist_100_LN_15_LD_25_RN_13_RD_26_0.png","C_Dist_100_LN_3_LD_6_RN_2_RD_5_0.png","C_Dist_100_LN_6_LD_20_RN_5_RD_25_0.png","C_Dist_100_LN_8_LD_16_RN_2_RD_5_0.png","C_Dist_100_LN_9_LD_15_RN_8_RD_16_0.png"],["C_Dist_100_LN_1_LD_2_RN_18_RD_30_1.png","C_Dist_100_LN_1_LD_2_RN_3_RD_5_1.png","C_Dist_100_LN_12_LD_30_RN_13_RD_26_1.png","C_Dist_100_LN_2_LD_5_RN_11_RD_22_1.png","C_Dist_100_LN_2_LD_5_RN_6_RD_12_1.png","C_Dist_100_LN_3_LD_20_RN_4_RD_16_1.png","C_Dist_100_LN_4_LD_10_RN_15_RD_30_1.png","C_Dist_100_LN_4_LD_8_RN_6_RD_10_1.png","C_Dist_100_LN_6_LD_12_RN_15_RD_25_1.png","C_Dist_100_LN_7_LD_14_RN_15_RD_25_1.png","C_Dist_100_LN_7_LD_14_RN_9_RD_15_1.png"]],"dist100_I":[["I_Dist_100_LN_1_LD_2_RN_8_RD_20_0.png","I_Dist_100_LN_2_LD_4_RN_6_RD_15_0.png","I_Dist_100_LN_2_LD_4_RN_8_RD_20_0.png","I_Dist_100_LN_3_LD_5_RN_11_RD_22_0.png","I_Dist_100_LN_3_LD_5_RN_8_RD_16_0.png","I_Dist_100_LN_3_LD_6_RN_4_RD_10_0.png","I_Dist_100_LN_3_LD_9_RN_7_RD_30_0.png","I_Dist_100_LN_4_LD_8_RN_8_RD_20_0.png","I_Dist_100_LN_6_LD_10_RN_11_RD_22_0.png","I_Dist_100_LN_6_LD_10_RN_13_RD_26_0.png","I_Dist_100_LN_6_LD_10_RN_7_RD_14_0.png","I_Dist_100_LN_9_LD_10_RN_20_RD_25_0.png","I_Dist_100_LN_9_LD_15_RN_13_RD_26_0.png","I_Dist_100_LN_9_LD_15_RN_14_RD_28_0.png"],["I_Dist_100_LN_10_LD_25_RN_8_RD_16_1.png","I_Dist_100_LN_10_LD_25_RN_9_RD_18_1.png","I_Dist_100_LN_11_LD_22_RN_9_RD_15_1.png","I_Dist_100_LN_12_LD_24_RN_9_RD_15_1.png","I_Dist_100_LN_12_LD_30_RN_2_RD_4_1.png","I_Dist_100_LN_13_LD_26_RN_12_RD_20_1.png","I_Dist_100_LN_13_LD_26_RN_6_RD_10_1.png","I_Dist_100_LN_17_LD_30_RN_10_RD_15_1.png","I_Dist_100_LN_6_LD_12_RN_3_RD_5_1.png","I_Dist_100_LN_8_LD_16_RN_6_RD_10_1.png","I_Dist_100_LN_8_LD_20_RN_1_RD_2_1.png","I_Dist_100_LN_9_LD_18_RN_6_RD_10_1.png"]],"dist100_S":[["E_Dist_100_LN_2_LD_12_RN_2_RD_30_0.png","E_Dist_100_LN_6_LD_10_RN_6_RD_12_0.png"],["E_Dist_100_LN_6_LD_12_RN_6_RD_10_1.png"]],"dist200_C":[["C_Dist_200_LN_11_LD_22_RN_3_RD_10_0.png","C_Dist_200_LN_12_LD_15_RN_6_RD_10_0.png","C_Dist_200_LN_12_LD_20_RN_6_RD_15_0.png","C_Dist_200_LN_14_LD_28_RN_6_RD_20_0.png","C_Dist_200_LN_15_LD_25_RN_4_RD_10_0.png","C_Dist_200_LN_16_LD_20_RN_12_RD_20_0.png","C_Dist_200_LN_16_LD_30_RN_9_RD_27_0.png","C_Dist_200_LN_20_LD_25_RN_9_RD_15_0.png","C_Dist_200_LN_21_LD_30_RN_2_RD_4_0.png","C_Dist_200_LN_4_LD_10_RN_3_RD_15_0.png","C_Dist_200_LN_4_LD_8_RN_3_RD_10_0.png","C_Dist_200_LN_6_LD_15_RN_3_RD_15_0.png","C_Dist_200_LN_7_LD_21_RN_2_RD_15_0.png","C_Dist_200_LN_8_LD_15_RN_2_RD_6_0.png","C_Dist_200_LN_8_LD_15_RN_3_RD_9_0.png","C_Dist_200_LN_8_LD_15_RN_7_RD_21_0.png","C_Dist_200_LN_9_LD_20_RN_4_RD_16_0.png"],["C_Dist_200_LN_1_LD_2_RN_21_RD_30_1.png","C_Dist_200_LN_13_LD_26_RN_14_RD_20_1.png","C_Dist_200_LN_3_LD_10_RN_11_RD_22_1.png","C_Dist_200_LN_3_LD_10_RN_14_RD_28_1.png","C_Dist_200_LN_3_LD_10_RN_7_RD_14_1.png","C_Dist_200_LN_3_LD_12_RN_9_RD_20_1.png","C_Dist_200_LN_3_LD_6_RN_14_RD_20_1.png","C_Dist_200_LN_5_LD_10_RN_14_RD_20_1.png","C_Dist_200_LN_6_LD_12_RN_7_RD_10_1.png","C_Dist_200_LN_6_LD_20_RN_11_RD_22_1.png","C_Dist_200_LN_7_LD_15_RN_18_RD_27_1.png","C_Dist_200_LN_9_LD_30_RN_13_RD_26_1.png"]],"dist200_I":[["I_Dist_200_LN_1_LD_2_RN_3_RD_10_0.png","I_Dist_200_LN_1_LD_3_RN_2_RD_15_0.png","I_Dist_200_LN_3_LD_4_RN_11_RD_20_0.png","I_Dist_200_LN_4_LD_5_RN_6_RD_10_0.png","I_Dist_200_LN_4_LD_6_RN_14_RD_30_0.png","I_Dist_200_LN_7_LD_10_RN_12_RD_24_0.png","I_Dist_200_LN_7_LD_10_RN_14_RD_28_0.png","I_Dist_200_LN_7_LD_10_RN_8_RD_16_0.png"],["I_Dist_200_LN_11_LD_20_RN_3_RD_4_1.png","I_Dist_200_LN_14_LD_30_RN_12_RD_18_1.png","I_Dist_200_LN_14_LD_30_RN_6_RD_9_1.png","I_Dist_200_LN_3_LD_10_RN_1_RD_2_1.png","I_Dist_200_LN_4_LD_30_RN_1_RD_3_1.png","I_Dist_200_LN_6_LD_20_RN_3_RD_6_1.png","I_Dist_200_LN_7_LD_15_RN_4_RD_6_1.png","I_Dist_200_LN_7_LD_15_RN_6_RD_9_1.png","I_Dist_200_LN_9_LD_15_RN_8_RD_10_1.png"]],"dist200_S":[["E_Dist_200_LN_3_LD_6_RN_3_RD_10_0.png"],["E_Dist_200_LN_3_LD_10_RN_3_RD_6_1.png"]],"dist300_C":[["C_Dist_300_LN_11_LD_22_RN_1_RD_5_0.png","C_Dist_300_LN_11_LD_22_RN_2_RD_10_0.png","C_Dist_300_LN_11_LD_22_RN_4_RD_20_0.png","C_Dist_300_LN_12_LD_24_RN_2_RD_10_0.png","C_Dist_300_LN_18_LD_20_RN_9_RD_15_0.png","C_Dist_300_LN_20_LD_25_RN_13_RD_26_0.png","C_Dist_300_LN_20_LD_25_RN_14_RD_28_0.png","C_Dist_300_LN_20_LD_25_RN_5_RD_10_0.png","C_Dist_300_LN_20_LD_25_RN_8_RD_16_0.png","C_Dist_300_LN_20_LD_25_RN_9_RD_18_0.png","C_Dist_300_LN_24_LD_30_RN_2_RD_4_0.png","C_Dist_300_LN_24_LD_30_RN_8_RD_16_0.png","C_Dist_300_LN_3_LD_6_RN_2_RD_10_0.png","C_Dist_300_LN_4_LD_10_RN_1_RD_10_0.png","C_Dist_300_LN_4_LD_5_RN_2_RD_4_0.png","C_Dist_300_LN_8_LD_16_RN_1_RD_5_0.png","C_Dist_300_LN_9_LD_10_RN_3_RD_5_0.png"],["C_Dist_300_LN_1_LD_20_RN_7_RD_20_1.png","C_Dist_300_LN_1_LD_3_RN_19_RD_30_1.png","C_Dist_300_LN_1_LD_30_RN_8_RD_24_1.png","C_Dist_300_LN_1_LD_5_RN_11_RD_22_1.png","C_Dist_300_LN_1_LD_5_RN_3_RD_6_1.png","C_Dist_300_LN_1_LD_5_RN_6_RD_12_1.png","C_Dist_300_LN_2_LD_10_RN_12_RD_24_1.png","C_Dist_300_LN_2_LD_20_RN_10_RD_25_1.png","C_Dist_300_LN_3_LD_12_RN_11_RD_20_1.png","C_Dist_300_LN_3_LD_6_RN_4_RD_5_1.png","C_Dist_300_LN_4_LD_20_RN_13_RD_26_1.png","C_Dist_300_LN_5_LD_25_RN_6_RD_12_1.png","C_Dist_300_LN_5_LD_25_RN_7_RD_14_1.png","C_Dist_300_LN_7_LD_14_RN_20_RD_25_1.png","C_Dist_300_LN_8_LD_15_RN_10_RD_12_1.png"]],"dist300_I":[["I_Dist_300_LN_1_LD_2_RN_2_RD_10_0.png","I_Dist_300_LN_1_LD_2_RN_3_RD_15_0.png","I_Dist_300_LN_2_LD_4_RN_6_RD_30_0.png","I_Dist_300_LN_3_LD_6_RN_4_RD_20_0.png","I_Dist_300_LN_4_LD_5_RN_6_RD_12_0.png","I_Dist_300_LN_4_LD_5_RN_8_RD_16_0.png","I_Dist_300_LN_7_LD_10_RN_8_RD_20_0.png","I_Dist_300_LN_8_LD_10_RN_14_RD_28_0.png","I_Dist_300_LN_8_LD_10_RN_9_RD_18_0.png"],["I_Dist_300_LN_13_LD_26_RN_12_RD_15_1.png","I_Dist_300_LN_4_LD_20_RN_2_RD_4_1.png"]],"dist300_S":[["E_Dist_300_LN_9_LD_12_RN_9_RD_20_0.png"],["E_Dist_300_LN_18_LD_30_RN_18_RD_20_1.png","E_Dist_300_LN_3_LD_10_RN_3_RD_5_1.png","E_Dist_300_LN_9_LD_20_RN_9_RD_12_1.png"]],"dist500_C":[["C_Dist_500_LN_10_LD_13_RN_7_RD_26_0.png","C_Dist_500_LN_10_LD_15_RN_4_RD_24_0.png","C_Dist_500_LN_12_LD_16_RN_3_RD_12_0.png","C_Dist_500_LN_12_LD_18_RN_4_RD_24_0.png","C_Dist_500_LN_15_LD_18_RN_5_RD_15_0.png","C_Dist_500_LN_15_LD_20_RN_1_RD_4_0.png","C_Dist_500_LN_18_LD_27_RN_1_RD_6_0.png","C_Dist_500_LN_20_LD_24_RN_1_RD_3_0.png","C_Dist_500_LN_20_LD_24_RN_3_RD_9_0.png","C_Dist_500_LN_20_LD_24_RN_7_RD_21_0.png","C_Dist_500_LN_20_LD_28_RN_3_RD_14_0.png","C_Dist_500_LN_21_LD_28_RN_6_RD_24_0.png","C_Dist_500_LN_22_LD_28_RN_2_RD_7_0.png","C_Dist_500_LN_25_LD_30_RN_9_RD_27_0.png","C_Dist_500_LN_4_LD_6_RN_1_RD_6_0.png","C_Dist_500_LN_5_LD_6_RN_2_RD_6_0.png","C_Dist_500_LN_6_LD_9_RN_1_RD_6_0.png","C_Dist_500_LN_7_LD_10_RN_1_RD_5_0.png","C_Dist_500_LN_8_LD_12_RN_1_RD_6_0.png","C_Dist_500_LN_8_LD_12_RN_4_RD_24_0.png"],["C_Dist_500_LN_1_LD_4_RN_12_RD_16_1.png","C_Dist_500_LN_1_LD_4_RN_9_RD_12_1.png","C_Dist_500_LN_1_LD_9_RN_11_RD_18_1.png","C_Dist_500_LN_10_LD_24_RN_22_RD_24_1.png","C_Dist_500_LN_2_LD_12_RN_10_RD_15_1.png","C_Dist_500_LN_2_LD_12_RN_12_RD_18_1.png","C_Dist_500_LN_2_LD_12_RN_4_RD_6_1.png","C_Dist_500_LN_2_LD_24_RN_7_RD_12_1.png","C_Dist_500_LN_2_LD_5_RN_18_RD_20_1.png","C_Dist_500_LN_2_LD_5_RN_9_RD_10_1.png","C_Dist_500_LN_2_LD_8_RN_12_RD_16_1.png","C_Dist_500_LN_2_LD_8_RN_21_RD_28_1.png","C_Dist_500_LN_3_LD_10_RN_4_RD_5_1.png","C_Dist_500_LN_3_LD_12_RN_15_RD_20_1.png","C_Dist_500_LN_3_LD_30_RN_6_RD_10_1.png","C_Dist_500_LN_3_LD_8_RN_14_RD_16_1.png","C_Dist_500_LN_4_LD_16_RN_15_RD_20_1.png","C_Dist_500_LN_4_LD_24_RN_12_RD_18_1.png","C_Dist_500_LN_5_LD_14_RN_6_RD_7_1.png","C_Dist_500_LN_7_LD_21_RN_20_RD_24_1.png","C_Dist_500_LN_7_LD_28_RN_12_RD_16_1.png","C_Dist_500_LN_7_LD_28_RN_9_RD_12_1.png","C_Dist_500_LN_9_LD_27_RN_20_RD_24_1.png"]],"dist500_I":[["I_Dist_500_LN_2_LD_3_RN_4_RD_24_0.png","I_Dist_500_LN_5_LD_6_RN_6_RD_18_0.png","I_Dist_500_LN_7_LD_8_RN_9_RD_24_0.png"],["I_Dist_500_LN_7_LD_21_RN_5_RD_6_1.png"]],"dist500_S":[["E_Dist_500_LN_6_LD_8_RN_6_RD_24_0.png"],["E_Dist_500_LN_2_LD_12_RN_2_RD_3_1.png","E_Dist_500_LN_6_LD_24_RN_6_RD_8_1.png"]]}},{"start_time":1552327408588,"click_time":1552327410391,"finger_time":1552327410031,"fix_duration":1055.9919800474981,"trial":1,"RT":1443,"MT":360,"sideResp":1,"stimulus":[],"xmouse":[786,786,786,786,786,786,786,786,786,786,786,786,786,786,786,786,786,786,786,786,786,786,786,786,786,786,786,786,786,786,786,786,786,786,786,786,786,786,786,786,786,786,786,786,786,786,786,786,786,786,786,786,786,786,786,786,786,786,786,786,786,786,786,786,786,786,786,786,786,786,786,776,766,756,737,692,675,661,658,656,653,651,647,646,641,629,613,596,570,544,504],"ymouse":[622,622,622,622,622,622,622,622,622,622,622,622,622,622,622,622,622,622,622,622,622,622,622,622,622,622,622,622,622,622,622,622,622,622,622,622,622,622,622,622,622,622,622,622,622,622,622,622,622,622,622,622,622,622,622,622,622,622,622,622,622,622,622,622,622,622,622,622,622,621,617,594,570,535,482,381,350,325,316,310,297,290,282,276,267,243,213,184,141,103,40],"timestamp_mouse":[11,23,43,62,84,103,123,144,162,183,204,224,244,263,283,304,323,342,363,383,402,423,443,464,482,503,524,543,563,582,603,623,643,664,683,703,722,744,764,784,803,822,842,864,884,903,923,942,964,982,1002,1023,1044,1064,1083,1103,1123,1143,1163,1184,1203,1223,1242,1264,1283,1304,1323,1344,1363,1383,1403,1423,1443,1463,1483,1503,1524,1543,1563,1582,1603,1622,1643,1662,1682,1703,1722,1743,1763,1782,1802],"xSR":741.5,"ySR":573.95,"xT1":424.9,"yT1":0,"xT2":1058.1,"yT2":0,"toosoon":0,"cond_shown":"Congruent","ratio_trial":300,"L_num":24,"L_den":30,"R_num":2,"R_den":4,"correct_side":1,"subjID":"TalianaVigoyaTaborda24","gender":"1","school":"4","age":"9"},{"start_time":1552327412244,"click_time":1552327414031,"finger_time":1552327413492,"fix_duration":451.48685692584587,"trial":2,"RT":1248,"MT":539,"sideResp":2,"stimulus":[],"xmouse":[770,770,770,770,770,770,770,770,770,770,770,770,770,770,770,770,770,770,770,770,770,770,770,770,770,770,770,770,770,770,770,770,770,770,770,770,770,770,770,770,770,770,770,770,770,770,770,770,770,770,770,770,770,770,770,770,770,770,770,770,771,779,818,848,888,916,947,997,1023,1054,1114,1164,1201,1236,1236,1236,1236,1231,1214,1204,1193,1184,1173,1164,1160,1156,1153,1149,1139,1136],"ymouse":[605,605,605,605,605,605,605,605,605,605,605,605,605,605,605,605,605,605,605,605,605,605,605,605,605,605,605,605,605,605,605,605,605,605,605,605,605,605,605,605,605,605,605,605,605,605,605,605,605,605,605,605,605,605,605,605,605,605,605,605,605,599,572,554,532,519,501,476,460,437,386,327,266,189,176,175,175,175,165,157,149,143,140,136,133,130,125,120,100,91],"timestamp_mouse":[13,35,47,66,87,107,127,148,166,186,208,227,247,266,286,307,328,347,366,387,407,427,446,466,488,507,527,547,567,587,607,628,647,667,686,708,727,747,767,788,806,826,847,867,888,907,928,948,967,987,1006,1026,1047,1066,1086,1107,1126,1147,1167,1187,1207,1227,1248,1267,1287,1307,1326,1348,1367,1388,1407,1427,1447,1467,1486,1506,1527,1547,1566,1586,1606,1628,1647,1667,1686,1706,1727,1748,1766,1787],"xSR":741.5,"ySR":573.95,"xT1":424.9,"yT1":0,"xT2":1058.1,"yT2":0,"toosoon":0,"cond_shown":"Incongruent","ratio_trial":300,"L_num":4,"L_den":20,"R_num":2,"R_den":4,"correct_side":2,"subjID":"TalianaVigoyaTaborda24","gender":"1","school":"4","age":"9"},{"start_time":1552327416176,"click_time":1552327417871,"finger_time":1552327417530,"fix_duration":864.2605692440277,"trial":3,"RT":1354,"MT":341,"sideResp":2,"stimulus":[],"xmouse":[823,823,824,824,825,826,827,827,829,829,829,830,830,830,830,830,830,830,830,830,830,830,830,830,830,830,830,830,830,830,830,830,830,830,830,830,830,829,827,826,824,822,820,819,819,818,818,816,813,810,806,801,800,799,798,797,797,797,797,797,797,797,798,808,817,824,834,842,860,883,921,984,1010,1019,1023,1028,1040,1045,1053,1061,1067,1074,1078,1080,1082],"ymouse":[618,618,617,617,616,615,613,612,608,606,604,596,595,592,590,588,584,582,582,582,582,582,582,582,582,582,584,585,586,587,588,589,589,590,590,593,598,601,605,608,610,613,614,616,617,617,617,619,621,624,627,633,634,635,635,636,636,636,636,636,636,636,632,619,607,597,583,571,542,502,448,360,315,296,283,271,244,228,210,193,179,149,135,119,99],"timestamp_mouse":[15,35,54,74,95,114,134,155,175,195,215,234,254,275,295,315,334,355,375,395,415,434,454,475,495,515,536,555,575,594,615,635,654,674,696,715,734,755,774,796,815,834,856,874,896,915,935,954,976,995,1016,1034,1055,1074,1096,1114,1135,1154,1176,1196,1216,1234,1254,1274,1296,1315,1334,1354,1374,1395,1416,1435,1454,1474,1496,1515,1535,1555,1575,1595,1614,1635,1655,1675,1695],"xSR":741.5,"ySR":573.95,"xT1":424.9,"yT1":0,"xT2":1058.1,"yT2":0,"toosoon":0,"cond_shown":"Incongruent","ratio_trial":100,"L_num":1,"L_den":2,"R_num":8,"R_den":20,"correct_side":1,"subjID":"TalianaVigoyaTaborda24","gender":"1","school":"4","age":"9"},{"start_time":1552327420258,"click_time":1552327421931,"finger_time":1552327421530,"fix_duration":1206.5942422814817,"trial":4,"RT":1272,"MT":401,"sideResp":1,"stimulus":[],"xmouse":[777,777,777,778,779,779,779,779,779,779,779,780,781,781,781,782,782,782,782,782,782,782,782,782,782,782,782,782,782,782,782,782,782,782,782,782,782,782,782,782,782,782,782,782,782,782,782,782,782,782,782,782,782,782,782,782,782,782,782,784,784,782,776,757,744,731,721,713,702,697,692,684,673,668,664,657,652,641,620,605,584,562,516,492],"ymouse":[645,644,644,644,643,643,643,643,643,643,643,642,642,642,642,641,641,641,641,641,641,641,641,641,641,641,641,641,641,641,641,641,641,641,641,641,641,641,641,641,641,641,641,641,641,641,641,641,641,641,641,641,641,641,641,641,641,641,641,634,618,601,581,531,496,452,417,379,346,328,310,295,269,257,246,237,229,216,191,177,160,145,114,96],"timestamp_mouse":[14,38,52,73,92,113,134,153,174,192,212,234,253,273,293,313,333,353,373,392,412,433,452,472,494,512,532,552,573,593,613,632,653,672,694,714,733,753,773,794,813,832,852,873,893,913,933,954,973,993,1013,1032,1054,1074,1094,1113,1133,1154,1173,1192,1213,1232,1253,1272,1293,1313,1334,1353,1373,1392,1413,1433,1454,1472,1493,1513,1533,1553,1573,1592,1614,1632,1654,1673],"xSR":741.5,"ySR":573.95,"xT1":424.9,"yT1":0,"xT2":1058.1,"yT2":0,"toosoon":0,"cond_shown":"Congruent","ratio_trial":200,"L_num":6,"L_den":15,"R_num":3,"R_den":15,"correct_side":1,"subjID":"TalianaVigoyaTaborda24","gender":"1","school":"4","age":"9"},{"start_time":1552327423861,"click_time":1552327425931,"finger_time":1552327425330,"fix_duration":329.84704954259195,"trial":5,"RT":1469,"MT":601,"sideResp":2,"stimulus":[],"xmouse":[773,774,774,775,777,777,777,777,777,777,778,778,779,779,779,779,779,779,779,779,779,779,779,779,779,779,779,779,779,779,779,779,779,779,779,779,779,779,779,779,779,779,779,779,779,779,779,779,779,779,779,779,779,779,779,779,779,779,779,779,779,779,779,779,779,779,779,779,779,779,780,787,810,911,953,996,1012,1020,1024,1025,1025,1028,1028,1041,1047,1047,1047,1047,1046,1046,1046,1046,1046,1047,1047,1047,1047,1047,1047,1047,1048,1049,1053,1061],"ymouse":[609,610,610,610,611,611,611,611,611,611,611,611,611,611,611,611,611,611,611,611,611,611,611,611,611,611,611,611,611,611,611,611,611,611,611,611,611,611,611,611,611,611,611,611,611,611,611,611,611,611,611,611,611,611,611,611,611,611,611,611,611,611,611,611,611,611,611,611,611,611,611,611,597,538,505,457,430,411,383,369,352,333,314,221,169,119,95,81,67,46,37,31,27,23,23,23,23,23,23,23,23,25,31,41],"timestamp_mouse":[9,29,52,69,91,111,130,150,170,190,210,230,250,270,289,309,329,350,369,390,409,429,449,470,491,509,529,550,569,590,611,630,650,670,691,711,731,751,771,789,810,829,851,870,891,910,930,951,971,991,1011,1030,1050,1070,1091,1110,1130,1151,1171,1190,1210,1231,1250,1270,1289,1310,1331,1351,1370,1390,1411,1429,1450,1469,1490,1509,1530,1549,1570,1589,1610,1630,1649,1670,1689,1710,1730,1750,1769,1789,1810,1830,1851,1870,1889,1911,1930,1951,1970,1991,2010,2030,2049,2069],"xSR":741.5,"ySR":573.95,"xT1":424.9,"yT1":0,"xT2":1058.1,"yT2":0,"toosoon":0,"cond_shown":"Congruent","ratio_trial":200,"L_num":6,"L_den":20,"R_num":11,"R_den":22,"correct_side":2,"subjID":"TalianaVigoyaTaborda24","gender":"1","school":"4","age":"9"},{"start_time":1552327430590,"click_time":1552327432391,"finger_time":1552327432190,"fix_duration":1317.3036179156343,"trial":6,"RT":1600,"MT":201,"sideResp":1,"stimulus":[],"xmouse":[801,801,801,801,801,801,801,801,801,801,801,801,801,801,801,801,801,801,801,801,801,801,801,801,801,801,801,801,801,801,801,801,801,801,801,801,801,801,801,801,801,801,801,801,801,801,801,801,801,801,801,801,801,801,801,801,801,801,801,801,801,801,801,801,801,801,801,801,801,801,801,801,801,801,801,801,801,801,794,782,763,737,706,628,592,546,525,511,496,493,489],"ymouse":[615,615,615,615,615,615,615,615,615,615,615,615,615,615,615,615,615,615,615,615,615,615,615,615,615,615,615,615,615,615,615,615,615,615,615,615,615,615,615,615,615,615,615,615,615,615,615,615,615,615,615,615,615,615,615,615,615,615,615,615,615,615,615,615,615,615,615,615,615,615,615,615,615,615,615,615,615,615,604,578,532,485,434,320,273,204,174,150,119,108,96],"timestamp_mouse":[10,22,41,62,82,102,120,141,161,181,201,222,242,261,281,302,321,341,361,382,401,421,442,461,482,502,521,542,561,582,602,621,642,661,681,701,722,742,762,782,802,821,842,861,882,901,921,941,961,982,1001,1020,1042,1061,1081,1102,1121,1141,1161,1181,1200,1222,1241,1261,1281,1302,1322,1342,1361,1382,1401,1421,1441,1462,1481,1501,1522,1541,1561,1581,1600,1622,1642,1660,1682,1701,1721,1742,1761,1781,1801],"xSR":741.5,"ySR":573.95,"xT1":424.9,"yT1":0,"xT2":1058.1,"yT2":0,"toosoon":0,"cond_shown":"Congruent","ratio_trial":300,"L_num":3,"L_den":6,"R_num":2,"R_den":10,"correct_side":1,"subjID":"TalianaVigoyaTaborda24","gender":"1","school":"4","age":"9"},{"start_time":1552327434948,"click_time":1552327436871,"finger_time":1552327436371,"fix_duration":1296.2098956803377,"trial":7,"RT":1423,"MT":500,"sideResp":1,"stimulus":[],"xmouse":[797,797,797,797,797,797,797,797,797,797,797,797,797,797,797,797,797,797,797,797,797,797,797,797,798,798,798,798,798,798,798,798,798,798,798,798,798,798,798,798,798,799,799,799,799,799,799,799,799,799,799,800,800,800,800,800,800,800,800,800,800,800,800,800,800,800,800,800,800,800,800,793,778,752,719,645,608,595,586,583,583,583,583,583,581,581,576,575,572,569,559,552,544,539,534,525,521],"ymouse":[616,616,616,616,616,616,616,616,616,616,616,616,616,616,616,616,616,616,616,616,616,616,616,616,616,616,616,616,616,616,616,616,616,616,616,616,616,616,616,616,616,615,615,615,615,615,615,615,615,615,615,614,614,614,614,614,614,614,614,614,614,614,614,614,614,614,614,614,614,609,594,572,539,477,401,251,194,178,170,167,167,167,167,167,164,164,152,145,136,127,109,99,88,82,75,66,64],"timestamp_mouse":[13,37,44,64,84,103,123,143,164,184,203,224,244,264,283,304,323,344,363,384,404,423,442,463,483,504,523,544,564,582,604,624,644,663,683,704,723,742,764,783,803,824,844,864,884,904,924,944,963,984,1002,1024,1044,1063,1084,1103,1123,1144,1163,1183,1203,1222,1243,1263,1283,1304,1323,1343,1363,1383,1403,1423,1443,1463,1483,1503,1523,1543,1563,1584,1604,1623,1643,1662,1683,1703,1724,1743,1763,1783,1803,1823,1843,1863,1882,1904,1923],"xSR":741.5,"ySR":573.95,"xT1":424.9,"yT1":0,"xT2":1058.1,"yT2":0,"toosoon":0,"cond_shown":"Incongruent","ratio_trial":200,"L_num":4,"L_den":5,"R_num":6,"R_den":10,"correct_side":1,"subjID":"TalianaVigoyaTaborda24","gender":"1","school":"4","age":"9"},{"start_time":1552327438881,"click_time":1552327440451,"finger_time":1552327439651,"fix_duration":827.358786612497,"trial":8,"RT":770,"MT":800,"sideResp":2,"stimulus":[],"xmouse":[809,809,809,809,809,809,809,809,809,809,809,809,809,809,809,809,809,809,809,809,809,809,809,809,809,809,809,809,809,809,809,809,809,809,809,809,809,810,813,823,830,838,845,853,867,893,899,913,916,920,921,924,926,939,948,955,962,965,968,977,983,988,993,997,1005,1011,1021,1027,1031,1036,1036,1036,1036,1036,1036,1039,1048,1058,1072],"ymouse":[596,596,596,597,597,598,598,598,598,598,598,598,598,598,598,598,598,598,598,598,598,598,598,598,598,598,598,598,598,598,598,598,598,598,596,591,583,580,571,548,531,515,496,479,432,355,331,280,257,227,218,209,201,180,169,161,153,150,147,144,141,141,139,138,136,134,133,133,131,131,131,131,131,131,131,128,116,101,86],"timestamp_mouse":[15,37,49,70,89,111,130,151,171,190,211,230,251,271,291,310,330,351,371,390,411,431,450,471,491,511,531,551,570,590,611,631,651,670,690,710,730,751,770,790,810,830,851,871,889,911,930,950,971,990,1010,1031,1050,1072,1091,1110,1130,1150,1170,1189,1209,1230,1249,1271,1289,1310,1329,1350,1370,1391,1409,1430,1450,1470,1489,1510,1529,1551,1570],"xSR":741.5,"ySR":573.95,"xT1":424.9,"yT1":0,"xT2":1058.1,"yT2":0,"toosoon":0,"cond_shown":"Congruent","ratio_trial":200,"L_num":3,"L_den":6,"R_num":14,"R_den":20,"correct_side":2,"subjID":"TalianaVigoyaTaborda24","gender":"1","school":"4","age":"9"},{"start_time":1552327443768,"click_time":1552327445412,"finger_time":1552327444931,"fix_duration":1374.047707679151,"trial":9,"RT":1163,"MT":481,"sideResp":1,"stimulus":[],"xmouse":[799,799,799,799,799,799,799,799,799,799,799,799,799,799,799,799,799,799,799,799,799,799,799,799,799,799,799,799,799,799,799,799,799,799,799,799,799,799,799,799,799,799,799,799,799,799,799,799,799,799,799,799,798,796,786,777,765,753,740,709,694,680,667,657,645,619,605,591,575,561,556,552,551,551,551,551,551,551,550,537,529,521],"ymouse":[629,629,629,629,629,629,629,629,629,629,629,629,629,629,629,629,629,629,629,629,629,629,629,629,629,629,629,629,629,629,629,629,629,629,629,629,629,629,629,629,629,629,628,628,628,627,627,626,625,625,625,625,623,621,607,598,583,567,548,493,462,436,409,385,356,296,266,241,210,166,148,133,128,126,126,126,126,125,123,110,103,97],"timestamp_mouse":[13,42,64,83,104,123,144,164,184,203,223,243,262,284,304,324,344,364,382,404,423,444,464,483,503,524,543,563,584,604,623,642,664,683,704,723,744,763,784,804,823,843,863,884,903,923,943,963,984,1002,1023,1043,1064,1083,1103,1123,1144,1163,1183,1204,1223,1243,1263,1282,1303,1323,1343,1363,1383,1403,1423,1444,1464,1483,1503,1523,1543,1563,1584,1604,1623,1644],"xSR":741.5,"ySR":573.95,"xT1":424.9,"yT1":0,"xT2":1058.1,"yT2":0,"toosoon":0,"cond_shown":"Congruent","ratio_trial":200,"L_num":8,"L_den":15,"R_num":7,"R_den":21,"correct_side":1,"subjID":"TalianaVigoyaTaborda24","gender":"1","school":"4","age":"9"},{"start_time":1552327447524,"click_time":1552327449731,"finger_time":1552327449331,"fix_duration":810.6964104187514,"trial":10,"RT":1807,"MT":400,"sideResp":1,"stimulus":[],"xmouse":[820,820,820,820,820,820,820,820,820,820,820,820,820,820,820,820,820,820,820,820,820,820,820,820,820,820,820,820,820,820,820,820,820,820,820,820,820,820,820,820,820,820,820,820,820,820,820,820,820,820,820,820,820,820,820,820,820,820,820,820,820,820,820,820,820,820,820,820,820,820,820,820,820,820,820,820,820,820,820,820,820,820,820,820,820,820,820,820,811,797,762,749,698,630,605,591,580,571,557,552,548,544,542,538,537,535,533,532,527,525,520],"ymouse":[605,605,605,605,605,605,605,605,605,605,605,605,605,605,605,605,605,605,605,605,605,605,605,605,605,605,605,605,605,605,605,605,605,605,605,605,605,605,605,605,605,605,605,605,605,605,605,605,605,605,605,605,605,605,605,605,605,605,605,605,605,605,605,605,605,605,605,605,605,605,605,605,605,605,605,605,605,605,605,605,605,605,605,605,605,605,605,604,594,575,536,521,460,380,348,327,309,291,254,238,224,203,188,158,145,133,122,112,98,95,88],"timestamp_mouse":[12,34,47,68,87,107,128,147,167,187,208,228,248,267,287,308,328,347,368,387,407,427,448,468,488,507,527,548,567,588,608,628,647,667,687,707,727,748,767,788,807,828,848,868,887,906,928,946,968,988,1008,1028,1048,1067,1087,1108,1128,1147,1167,1186,1206,1228,1248,1268,1288,1307,1328,1348,1367,1388,1407,1428,1448,1467,1486,1507,1528,1547,1567,1588,1607,1628,1647,1667,1687,1708,1728,1748,1767,1787,1807,1827,1847,1867,1887,1907,1927,1948,1966,1987,2008,2028,2047,2067,2087,2107,2127,2147,2166,2186,2207],"xSR":741.5,"ySR":573.95,"xT1":424.9,"yT1":0,"xT2":1058.1,"yT2":0,"toosoon":0,"cond_shown":"Congruent","ratio_trial":100,"L_num":9,"L_den":15,"R_num":8,"R_den":16,"correct_side":1,"subjID":"TalianaVigoyaTaborda24","gender":"1","school":"4","age":"9"},{"start_time":1552327451844,"click_time":1552327453572,"finger_time":1552327452991,"fix_duration":1151.8965915104607,"trial":11,"RT":1147,"MT":581,"sideResp":1,"stimulus":[],"xmouse":[764,765,765,765,765,765,765,765,765,765,765,765,765,765,765,765,765,765,765,765,765,765,765,765,765,765,765,765,765,765,765,765,765,765,765,765,765,765,765,765,765,765,765,765,765,765,765,765,765,765,765,765,765,765,760,754,746,729,721,712,702,688,651,637,624,614,603,582,572,564,553,545,531,526,525,522,521,518,515,513,511,508,502,501,499,495,492],"ymouse":[632,631,631,631,631,631,631,631,631,631,631,631,631,631,631,631,631,631,631,631,631,631,631,631,631,631,631,631,631,631,631,631,631,631,631,631,631,631,631,631,631,631,631,631,631,631,631,631,631,631,631,631,625,617,608,595,581,553,538,521,502,481,428,410,391,374,355,317,298,278,256,235,201,183,178,172,167,156,150,145,138,134,123,119,113,107,98],"timestamp_mouse":[13,39,47,67,86,108,128,148,167,187,208,228,248,268,287,308,328,348,367,387,408,428,448,467,487,507,528,548,568,587,607,627,648,668,688,706,727,747,768,788,807,827,846,868,887,907,928,947,968,988,1008,1028,1047,1068,1087,1107,1127,1147,1167,1187,1207,1228,1247,1267,1288,1308,1327,1347,1366,1387,1407,1426,1447,1466,1487,1508,1527,1547,1567,1588,1607,1627,1647,1667,1687,1708,1728],"xSR":741.5,"ySR":573.95,"xT1":424.9,"yT1":0,"xT2":1058.1,"yT2":0,"toosoon":0,"cond_shown":"Congruent","ratio_trial":100,"L_num":6,"L_den":20,"R_num":5,"R_den":25,"correct_side":1,"subjID":"TalianaVigoyaTaborda24","gender":"1","school":"4","age":"9"},{"start_time":1552327456303,"click_time":1552327457931,"finger_time":1552327457251,"fix_duration":1470.4105324924724,"trial":12,"RT":948,"MT":680,"sideResp":2,"stimulus":[],"xmouse":[774,774,774,774,774,774,774,774,774,774,774,774,774,774,774,774,774,774,774,774,774,774,774,774,774,774,774,774,774,774,774,774,774,774,774,774,774,774,774,774,774,774,774,774,774,778,786,803,812,819,830,835,840,847,866,877,892,907,947,976,1015,1030,1045,1059,1069,1081,1084,1085,1085,1085,1085,1085,1085,1085,1085,1085,1085,1086,1086,1086,1087,1087],"ymouse":[616,616,616,616,616,616,616,616,616,616,616,616,616,616,616,616,616,616,616,616,616,616,616,616,616,616,616,616,616,616,616,616,616,616,616,616,616,616,616,616,616,616,616,616,616,611,599,573,554,538,512,502,490,473,430,408,385,362,319,294,254,235,213,192,171,137,127,124,124,124,124,124,124,124,124,124,124,123,119,113,101,95],"timestamp_mouse":[14,28,49,67,89,109,129,148,169,188,209,229,248,269,288,309,328,349,367,388,408,429,448,469,489,508,528,548,569,587,609,629,648,669,688,708,727,747,767,788,807,828,849,869,889,909,928,948,969,988,1008,1028,1048,1068,1089,1109,1128,1148,1168,1188,1208,1228,1248,1268,1288,1307,1329,1348,1368,1389,1408,1428,1448,1468,1488,1508,1529,1548,1568,1588,1608,1628],"xSR":741.5,"ySR":573.95,"xT1":424.9,"yT1":0,"xT2":1058.1,"yT2":0,"toosoon":0,"cond_shown":"Congruent","ratio_trial":200,"L_num":3,"L_den":10,"R_num":7,"R_den":14,"correct_side":2,"subjID":"TalianaVigoyaTaborda24","gender":"1","school":"4","age":"9"},{"start_time":1552327460975,"click_time":1552327462451,"finger_time":1552327461850,"fix_duration":1263.7892806408533,"trial":13,"RT":875,"MT":601,"sideResp":2,"stimulus":[],"xmouse":[791,791,791,791,791,791,791,791,791,791,791,791,791,791,791,791,791,791,791,791,791,791,791,791,791,791,791,791,791,791,791,791,791,791,791,791,791,791,791,791,794,810,833,843,856,868,895,907,916,924,935,943,967,981,995,1009,1030,1039,1045,1053,1060,1071,1075,1080,1085,1089,1090,1093,1096,1097,1100,1103,1103,1103],"ymouse":[640,640,640,640,640,640,640,640,640,640,640,640,640,640,640,640,640,640,640,640,640,640,640,640,640,640,640,640,640,640,640,640,640,640,640,640,640,640,638,636,633,610,579,558,535,516,476,455,437,421,398,385,351,332,310,292,257,244,231,218,207,187,180,172,163,156,150,142,134,128,118,101,100,98],"timestamp_mouse":[16,35,56,76,96,117,137,156,176,195,217,236,256,276,296,317,335,356,376,397,417,437,456,477,497,516,537,556,577,596,616,637,656,676,695,717,736,756,777,796,816,837,856,875,896,915,936,956,976,997,1017,1035,1057,1076,1096,1116,1136,1155,1176,1196,1217,1236,1256,1276,1297,1316,1335,1356,1376,1396,1416,1436,1456,1476],"xSR":741.5,"ySR":573.95,"xT1":424.9,"yT1":0,"xT2":1058.1,"yT2":0,"toosoon":0,"cond_shown":"Congruent","ratio_trial":300,"L_num":2,"L_den":10,"R_num":12,"R_den":24,"correct_side":2,"subjID":"TalianaVigoyaTaborda24","gender":"1","school":"4","age":"9"},{"start_time":1552327464552,"click_time":1552327466031,"finger_time":1552327465531,"fix_duration":980.4372559714152,"trial":14,"RT":979,"MT":500,"sideResp":1,"stimulus":[],"xmouse":[810,810,810,810,810,810,810,810,810,810,810,810,810,810,810,810,810,810,810,810,810,810,810,810,810,810,810,810,810,810,810,810,810,810,810,810,810,810,810,810,810,810,808,808,806,804,798,792,773,762,747,726,712,686,675,666,656,643,624,616,610,598,589,569,561,554,550,545,537,534,529,522,519,509],"ymouse":[634,634,634,634,634,634,634,634,634,634,634,634,634,634,634,634,634,634,634,634,634,634,634,634,634,634,634,634,634,634,634,634,634,634,634,634,634,634,634,634,633,632,623,619,615,607,594,583,544,517,484,432,395,333,308,283,255,230,184,158,134,93,68,24,10,0,0,0,0,0,0,0,0,4],"timestamp_mouse":[18,41,59,80,99,119,139,160,180,200,220,240,259,280,300,320,340,359,380,399,418,440,459,480,500,520,540,560,579,599,619,640,659,679,700,719,740,759,779,799,819,840,860,879,898,919,939,960,979,1000,1020,1039,1060,1079,1099,1119,1139,1159,1178,1200,1218,1239,1259,1278,1299,1320,1339,1360,1380,1399,1418,1439,1458,1478],"xSR":741.5,"ySR":573.95,"xT1":424.9,"yT1":0,"xT2":1058.1,"yT2":0,"toosoon":0,"cond_shown":"Congruent","ratio_trial":300,"L_num":20,"L_den":25,"R_num":8,"R_den":16,"correct_side":1,"subjID":"TalianaVigoyaTaborda24","gender":"1","school":"4","age":"9"},{"start_time":1552327468126,"click_time":1552327471351,"finger_time":1552327468931,"fix_duration":794.0027058317241,"trial":15,"RT":805,"MT":2420,"sideResp":1,"stimulus":[],"xmouse":[774,774,774,774,774,774,774,774,774,774,774,774,774,774,774,774,774,775,775,776,776,776,777,777,777,777,778,778,778,779,780,781,781,782,782,782,782,782,782,781,777,772,770,765,762,758,757,755,754,753,746,741,731,722,714,704,701,700,700,700,700,700,700,700,700,700,700,700,700,697,689,683,681,681,681,681,681,681,683,691,726,743,755,762,767,772,775,777,779,780,781,781,781,782,783,784,787,789,791,792,792,792,792,792,792,792,792,792,792,792,792,792,792,792,792,792,792,792,792,792,792,793,793,794,794,794,794,794,794,794,794,794,794,794,794,794,794,794,794,794,794,794,796,796,796,796,790,786,781,775,769,747,734,713,687,614,584,557,528,490,479,452],"ymouse":[595,595,595,595,595,595,595,595,595,595,595,595,595,595,595,595,595,596,596,596,596,596,595,595,595,595,595,595,594,593,592,591,591,591,591,589,586,584,579,575,564,554,551,542,538,528,526,523,520,515,504,495,481,466,455,443,439,439,439,439,439,439,439,439,439,439,439,439,439,434,414,401,396,395,395,395,395,399,405,421,466,485,503,519,531,551,560,567,573,577,581,583,586,591,595,606,614,619,624,625,625,625,625,625,625,625,625,625,625,625,625,625,625,625,625,625,625,625,625,625,625,625,625,625,625,625,625,625,625,625,625,625,625,625,625,625,625,625,625,625,625,625,624,622,617,612,597,589,581,572,562,529,510,478,442,342,299,248,200,132,115,64],"timestamp_mouse":[12,38,45,66,85,106,125,159,166,185,205,225,245,266,286,306,325,345,364,386,405,425,444,466,485,504,524,546,566,586,605,625,645,664,685,706,725,746,766,785,805,825,845,865,885,905,924,945,965,986,1006,1026,1045,1066,1086,1105,1126,1146,1166,1185,1206,1225,1246,1265,1285,1304,1325,1346,1365,1385,1405,1425,1445,1465,1485,1506,1525,1546,1565,1585,1605,1625,1645,1665,1685,1704,1725,1746,1766,1786,1805,1826,1845,1865,1884,1905,1925,1946,1965,1986,2006,2026,2045,2064,2086,2105,2125,2144,2165,2185,2206,2225,2246,2265,2286,2305,2325,2346,2366,2386,2405,2425,2446,2466,2486,2506,2525,2544,2566,2586,2606,2625,2646,2666,2684,2706,2725,2746,2765,2785,2804,2824,2845,2865,2885,2905,2924,2945,2965,2985,3005,3026,3045,3066,3085,3105,3125,3145,3165,3184,3206,3225],"xSR":741.5,"ySR":573.95,"xT1":424.9,"yT1":0,"xT2":1058.1,"yT2":0,"toosoon":0,"cond_shown":"Congruent","ratio_trial":300,"L_num":20,"L_den":25,"R_num":5,"R_den":10,"correct_side":1,"subjID":"TalianaVigoyaTaborda24","gender":"1","school":"4","age":"9"},{"start_time":1552327472680,"click_time":1552327474971,"finger_time":1552327474050,"fix_duration":308.95616050445716,"trial":16,"RT":1370,"MT":921,"sideResp":1,"stimulus":[],"xmouse":[788,788,788,788,788,788,788,788,788,788,788,788,788,788,788,789,789,789,789,789,789,789,789,789,789,789,789,790,790,790,790,790,790,790,790,790,790,790,790,790,790,790,790,790,790,790,790,790,790,790,790,790,790,790,790,790,790,790,790,790,789,789,789,788,787,787,787,787,792,801,815,852,1022,1130,1222,1266,1280,1282,1280,1274,1266,1256,1241,1178,1135,1097,1071,1053,1027,1008,1002,982,962,919,894,870,847,825,777,753,732,702,686,661,653,647,640,631,606,593,584,562,545,527,524],"ymouse":[643,643,643,643,643,642,642,642,642,642,642,642,642,642,642,641,641,641,641,641,641,641,641,641,641,641,641,640,640,640,640,640,640,640,640,640,640,640,640,640,640,640,640,640,640,640,640,640,640,640,640,640,640,640,639,637,636,635,633,632,631,629,628,622,616,610,599,586,559,540,519,482,408,362,319,287,270,260,243,232,219,211,202,174,156,145,139,133,125,121,119,114,109,96,91,83,76,70,56,50,43,38,35,32,31,31,31,32,40,46,51,60,68,76,78],"timestamp_mouse":[19,36,51,70,92,111,131,151,171,192,211,232,251,271,291,312,332,351,371,390,411,431,452,472,491,511,532,551,571,592,611,632,650,671,692,712,732,752,772,790,812,832,851,872,891,911,932,952,971,991,1011,1031,1051,1071,1091,1111,1131,1151,1170,1191,1210,1231,1251,1272,1291,1312,1331,1351,1370,1391,1411,1432,1452,1471,1491,1512,1531,1552,1570,1591,1611,1631,1651,1672,1691,1711,1730,1751,1771,1792,1811,1832,1851,1872,1891,1911,1932,1951,1970,1992,2010,2031,2050,2070,2091,2111,2131,2152,2171,2192,2210,2231,2251,2270,2291],"xSR":741.5,"ySR":573.95,"xT1":424.9,"yT1":0,"xT2":1058.1,"yT2":0,"toosoon":0,"cond_shown":"Congruent","ratio_trial":100,"L_num":15,"L_den":25,"R_num":13,"R_den":26,"correct_side":1,"subjID":"TalianaVigoyaTaborda24","gender":"1","school":"4","age":"9"},{"start_time":1552327477584,"click_time":1552327482711,"finger_time":1552327482232,"fix_duration":830.8008752857833,"trial":17,"RT":4648,"MT":479,"sideResp":1,"stimulus":[],"xmouse":[812,812,812,812,812,812,812,812,812,812,812,812,812,812,812,812,812,812,812,812,812,812,812,812,812,812,812,813,813,813,813,813,813,813,813,813,813,813,813,813,813,813,813,813,813,813,813,813,813,813,813,813,815,815,816,816,816,816,816,816,816,816,816,816,816,816,816,816,816,816,816,816,816,816,816,816,816,816,816,816,816,816,816,816,816,816,816,816,816,816,816,816,816,816,816,816,816,816,816,816,816,816,816,816,816,816,816,816,816,816,816,816,816,816,816,816,816,816,816,816,816,816,816,816,816,816,816,816,816,816,816,816,816,816,816,816,816,816,816,816,816,816,816,816,812,809,804,800,788,783,780,776,774,773,773,773,773,773,773,773,773,773,773,773,773,775,775,775,776,777,777,777,777,778,779,779,779,779,779,779,779,779,779,779,780,780,780,780,780,780,780,780,778,776,764,761,760,760,760,760,760,760,760,760,760,760,760,760,760,760,760,760,760,760,760,760,760,760,760,760,760,760,760,760,760,760,760,760,760,759,755,746,724,684,663,645,629,615,602,583,576,570,563,563,558,556,554,552,549,543,538,537,533,531,525,523,520],"ymouse":[601,601,601,601,601,601,601,601,601,601,601,601,601,601,601,601,601,601,601,601,601,601,601,601,601,601,601,601,601,601,601,601,601,601,601,601,601,601,601,601,601,601,601,601,601,601,601,601,601,601,601,601,599,599,599,599,599,599,599,599,599,599,599,599,599,599,599,599,599,599,599,599,599,599,599,599,599,599,599,599,599,599,599,599,599,599,599,599,599,599,599,599,599,599,599,599,599,599,599,599,599,599,599,599,599,599,599,599,599,599,599,599,599,599,599,599,599,599,599,599,599,599,599,599,599,599,599,599,599,599,599,599,599,599,599,599,599,599,599,599,599,599,599,598,600,603,608,612,621,627,629,633,634,635,635,635,635,635,635,635,635,635,635,635,635,635,635,635,635,635,635,635,634,634,633,633,632,631,627,625,624,622,621,619,615,614,613,613,613,613,613,613,612,612,610,610,610,610,610,610,610,610,610,610,610,610,610,610,610,610,610,610,610,610,610,610,610,610,610,610,610,610,610,610,610,610,610,610,610,607,594,575,543,493,467,442,416,394,372,334,317,299,275,270,233,219,204,190,179,156,144,138,127,122,110,103,96],"timestamp_mouse":[13,38,47,68,87,108,127,146,168,187,206,228,248,268,287,307,327,348,367,387,408,428,446,467,487,508,528,548,567,588,606,627,648,668,687,707,728,747,767,787,808,827,848,866,888,908,927,947,967,987,1006,1026,1048,1068,1087,1108,1127,1147,1167,1187,1207,1228,1247,1268,1288,1308,1328,1346,1368,1388,1406,1427,1448,1467,1488,1507,1527,1547,1568,1587,1607,1628,1647,1666,1687,1707,1728,1747,1766,1788,1807,1828,1846,1868,1888,1906,1928,1948,1968,1987,2007,2028,2046,2067,2088,2107,2126,2148,2166,2188,2208,2228,2247,2268,2288,2307,2327,2347,2367,2386,2408,2427,2448,2468,2487,2507,2528,2548,2566,2586,2607,2628,2648,2668,2688,2708,2727,2748,2767,2787,2807,2828,2848,2867,2888,2907,2926,2947,2967,2987,3007,3027,3048,3068,3088,3108,3127,3147,3168,3188,3212,3227,3247,3267,3288,3307,3327,3347,3368,3388,3408,3427,3446,3467,3487,3507,3527,3547,3567,3587,3608,3627,3647,3667,3688,3708,3726,3747,3768,3787,3807,3827,3847,3868,3888,3907,3927,3948,3968,3987,4008,4028,4046,4068,4088,4108,4128,4146,4168,4187,4208,4227,4246,4268,4288,4307,4328,4348,4367,4388,4406,4428,4448,4467,4487,4508,4527,4548,4568,4586,4608,4628,4648,4668,4687,4707,4728,4747,4768,4786,4808,4828,4847,4867,4888,4907,4927,4947,4967,4987,5007,5027,5047,5067,5086,5107,5127],"xSR":741.5,"ySR":573.95,"xT1":424.9,"yT1":0,"xT2":1058.1,"yT2":0,"toosoon":0,"cond_shown":"Incongruent","ratio_trial":100,"L_num":6,"L_den":12,"R_num":3,"R_den":5,"correct_side":2,"subjID":"TalianaVigoyaTaborda24","gender":"1","school":"4","age":"9"},{"start_time":1552327485334,"click_time":1552327487171,"finger_time":1552327486631,"fix_duration":981.4013452677443,"trial":18,"RT":1297,"MT":540,"sideResp":1,"stimulus":[],"xmouse":[793,793,793,793,793,793,793,793,793,793,793,792,792,792,792,792,792,792,792,792,792,792,792,792,792,792,793,793,793,793,793,793,793,793,793,793,793,793,793,793,793,793,793,793,793,793,793,793,793,793,793,793,793,793,793,793,793,793,793,793,793,788,782,777,771,763,743,729,716,703,687,657,649,631,620,611,601,583,573,565,559,554,552,550,547,543,541,540,540,539,534,521],"ymouse":[635,635,635,635,635,635,635,635,635,635,635,634,634,634,634,634,634,634,634,634,634,634,634,634,634,634,633,633,633,633,633,633,633,633,633,633,633,633,633,633,633,633,633,633,633,633,633,633,633,633,633,633,633,633,633,633,633,633,631,629,624,605,591,579,568,551,513,489,463,435,402,334,316,275,250,227,203,169,156,144,136,129,125,121,116,111,108,107,106,105,103,97],"timestamp_mouse":[18,38,58,77,98,117,137,158,178,197,218,238,258,277,297,317,337,358,378,398,418,438,458,478,498,517,538,557,577,598,618,638,657,678,696,717,737,757,777,798,817,837,856,877,897,917,938,957,978,997,1018,1037,1057,1077,1097,1118,1138,1157,1178,1197,1217,1237,1258,1277,1297,1317,1337,1356,1377,1396,1417,1437,1458,1477,1497,1517,1537,1556,1578,1597,1618,1637,1657,1677,1698,1717,1737,1757,1777,1797,1818,1837],"xSR":741.5,"ySR":573.95,"xT1":424.9,"yT1":0,"xT2":1058.1,"yT2":0,"toosoon":0,"cond_shown":"Congruent","ratio_trial":100,"L_num":11,"L_den":22,"R_num":4,"R_den":10,"correct_side":1,"subjID":"TalianaVigoyaTaborda24","gender":"1","school":"4","age":"9"},{"start_time":1552327489518,"click_time":1552327491891,"finger_time":1552327490891,"fix_duration":1284.6252221191762,"trial":19,"RT":1373,"MT":1000,"sideResp":2,"stimulus":[],"xmouse":[799,799,799,799,799,799,799,799,799,799,799,799,799,799,799,799,799,799,799,799,799,799,799,800,800,800,800,800,800,800,800,800,800,800,800,800,800,800,800,800,800,800,800,800,800,800,800,800,800,800,800,800,800,800,800,800,800,800,800,800,800,802,806,815,820,824,828,830,835,836,837,837,837,837,837,837,837,837,843,847,853,868,891,904,916,927,937,944,949,951,953,956,962,970,972,974,974,974,974,974,974,974,974,974,974,974,974,974,974,974,974,974,974,974,976,986,1003,1108,1155],"ymouse":[628,628,628,628,628,628,628,628,628,628,628,628,628,628,628,628,628,628,628,628,628,628,628,626,626,626,626,626,626,626,626,626,626,626,626,626,626,626,626,626,626,626,626,626,626,626,626,626,626,626,626,626,626,626,626,626,626,626,626,626,626,623,621,610,602,594,585,577,567,563,561,560,559,558,557,555,549,539,503,482,459,425,379,356,335,317,301,291,284,282,279,274,267,258,255,253,253,253,253,253,253,253,253,247,240,235,232,228,224,222,217,215,211,209,206,201,195,130,74],"timestamp_mouse":[19,46,53,74,94,114,133,153,174,193,213,233,253,273,293,313,333,353,374,393,414,434,453,472,494,513,534,553,573,594,612,633,654,674,693,713,734,754,774,793,813,834,853,873,894,913,934,953,973,993,1013,1033,1053,1075,1094,1113,1134,1153,1173,1193,1213,1233,1254,1273,1293,1314,1334,1353,1373,1393,1413,1433,1453,1474,1493,1514,1533,1553,1573,1594,1613,1633,1654,1673,1693,1713,1734,1755,1773,1794,1813,1834,1853,1873,1893,1913,1934,1954,1974,1993,2013,2033,2053,2073,2093,2113,2134,2153,2173,2194,2213,2233,2253,2274,2293,2313,2334,2355,2373],"xSR":741.5,"ySR":573.95,"xT1":424.9,"yT1":0,"xT2":1058.1,"yT2":0,"toosoon":0,"cond_shown":"Incongruent","ratio_trial":200,"L_num":4,"L_den":5,"R_num":6,"R_den":10,"correct_side":1,"subjID":"TalianaVigoyaTaborda24","gender":"1","school":"4","age":"9"},{"start_time":1552327498003,"click_time":1552327499771,"finger_time":1552327499491,"fix_duration":1469.0097932564436,"trial":20,"RT":1488,"MT":280,"sideResp":2,"stimulus":[],"xmouse":[802,802,802,802,802,802,802,802,802,802,802,802,802,802,802,802,802,802,802,802,802,802,802,802,802,800,794,787,780,775,774,774,774,772,768,765,764,764,764,764,764,764,764,764,764,764,764,764,764,764,764,764,764,764,764,764,764,764,764,764,764,764,764,764,764,764,764,764,764,764,764,768,776,801,856,916,931,941,948,957,979,991,999,1006,1021,1053,1067,1077,1082],"ymouse":[654,654,654,654,653,651,650,650,650,650,650,650,650,650,650,650,650,650,650,650,650,650,650,650,650,650,650,650,650,650,650,650,650,650,650,650,650,650,650,650,650,650,650,650,650,650,650,650,650,650,650,650,650,646,645,640,640,640,640,640,640,640,640,640,640,640,640,640,640,640,640,636,632,619,586,547,533,520,505,488,441,411,384,359,306,202,153,111,72],"timestamp_mouse":[15,38,48,69,88,109,129,149,169,189,209,228,248,268,289,309,329,349,369,388,408,428,448,468,489,509,528,550,569,588,608,628,650,668,689,708,728,749,769,789,808,829,849,869,889,908,929,949,969,989,1008,1028,1048,1069,1088,1109,1129,1149,1168,1189,1209,1229,1248,1269,1290,1308,1329,1348,1369,1389,1409,1428,1448,1469,1488,1508,1528,1548,1568,1590,1608,1628,1649,1669,1688,1708,1728,1748,1768],"xSR":741.5,"ySR":573.95,"xT1":424.9,"yT1":0,"xT2":1058.1,"yT2":0,"toosoon":0,"cond_shown":"Incongruent","ratio_trial":300,"L_num":13,"L_den":26,"R_num":12,"R_den":15,"correct_side":2,"subjID":"TalianaVigoyaTaborda24","gender":"1","school":"4","age":"9"},{"start_time":1552327501605,"click_time":1552327503611,"finger_time":1552327503152,"fix_duration":292.68324391820266,"trial":21,"RT":1547,"MT":459,"sideResp":1,"stimulus":[],"xmouse":[776,776,776,776,776,776,776,776,776,776,776,776,776,776,776,776,776,777,777,777,778,778,780,780,780,780,780,780,780,780,780,780,780,780,780,780,780,780,780,780,780,780,780,780,780,780,780,780,780,780,780,780,780,780,780,780,780,780,780,780,780,780,780,780,780,780,780,780,780,780,780,780,780,780,780,776,768,757,743,728,696,690,675,665,653,631,621,613,607,601,584,580,567,560,555,549,543,534,525,517,509],"ymouse":[629,629,629,629,629,629,629,629,629,629,629,628,628,627,626,624,624,623,622,621,619,618,616,616,616,616,616,616,616,616,616,616,616,616,616,616,616,616,616,616,616,616,616,616,616,616,616,616,616,616,616,616,616,616,616,616,616,616,616,616,616,616,616,616,616,616,616,616,616,616,616,616,616,616,616,606,589,568,548,528,474,464,430,407,381,327,304,284,263,244,188,176,146,134,125,118,113,108,105,101,97],"timestamp_mouse":[13,39,46,67,86,107,126,147,167,186,206,227,246,266,287,306,326,347,367,387,406,427,446,466,487,508,526,546,567,587,607,628,647,667,686,707,728,747,766,786,807,826,847,867,887,906,926,946,967,987,1007,1027,1046,1067,1087,1106,1126,1147,1166,1187,1206,1227,1247,1266,1286,1306,1327,1347,1366,1387,1407,1427,1447,1467,1486,1506,1526,1547,1567,1587,1606,1626,1646,1667,1686,1706,1726,1747,1766,1788,1806,1826,1846,1866,1887,1906,1926,1947,1966,1986,2006],"xSR":741.5,"ySR":573.95,"xT1":424.9,"yT1":0,"xT2":1058.1,"yT2":0,"toosoon":0,"cond_shown":"Congruent","ratio_trial":100,"L_num":15,"L_den":25,"R_num":13,"R_den":26,"correct_side":1,"subjID":"TalianaVigoyaTaborda24","gender":"1","school":"4","age":"9"},{"start_time":1552327505897,"click_time":1552327507152,"finger_time":1552327506832,"fix_duration":904.9106807517733,"trial":22,"RT":935,"MT":320,"sideResp":1,"stimulus":[],"xmouse":[778,778,778,778,778,778,778,778,778,778,778,778,778,778,778,778,778,778,778,778,778,778,778,778,778,778,778,778,778,778,778,778,778,778,778,778,778,778,776,775,770,766,763,759,755,750,730,720,704,688,667,626,610,590,572,562,550,542,535,530,526,516,510],"ymouse":[637,637,636,635,633,629,626,624,624,624,624,624,624,624,624,624,624,624,624,624,624,624,624,624,624,624,624,624,624,624,624,624,624,624,624,624,623,621,617,614,608,602,599,593,587,581,553,534,508,480,443,369,336,295,253,230,196,178,162,151,140,109,94],"timestamp_mouse":[20,45,54,75,94,115,135,155,174,194,215,234,256,275,295,315,335,354,376,395,414,434,454,475,496,514,535,555,574,595,615,634,656,674,695,715,734,754,774,795,815,834,854,875,895,914,935,954,975,994,1014,1034,1056,1074,1094,1114,1135,1154,1175,1194,1214,1234,1254],"xSR":741.5,"ySR":573.95,"xT1":424.9,"yT1":0,"xT2":1058.1,"yT2":0,"toosoon":0,"cond_shown":"Incongruent","ratio_trial":300,"L_num":4,"L_den":5,"R_num":8,"R_den":16,"correct_side":1,"subjID":"TalianaVigoyaTaborda24","gender":"1","school":"4","age":"9"},{"start_time":1552327513274,"click_time":1552327515151,"finger_time":1552327514632,"fix_duration":1301.734072036008,"trial":23,"RT":1358,"MT":519,"sideResp":1,"stimulus":[],"xmouse":[777,777,777,777,777,777,777,777,777,777,777,777,777,777,777,777,777,777,777,777,777,777,777,777,777,777,777,777,777,777,777,777,777,777,777,777,777,777,777,777,777,777,777,777,777,777,777,777,777,777,777,777,777,777,777,777,777,777,777,777,777,777,777,777,777,772,765,741,720,695,670,647,608,598,589,581,575,570,560,556,555,553,553,552,551,551,550,548,543,540,538,533,531,522],"ymouse":[622,622,622,622,622,622,622,622,622,622,622,622,622,622,622,622,622,622,622,622,622,622,622,622,622,622,622,622,622,622,622,622,622,622,622,622,622,622,622,622,622,622,622,622,622,622,622,622,622,622,622,622,622,622,622,622,622,622,622,622,622,622,622,622,622,615,606,567,528,478,421,365,272,249,231,215,201,185,155,142,134,131,128,128,127,125,124,122,116,112,110,104,100,89],"timestamp_mouse":[17,37,57,77,97,117,137,157,177,198,218,238,257,277,297,318,337,357,379,398,418,439,457,477,498,518,538,557,577,597,617,637,657,677,698,717,738,758,778,798,817,839,858,877,897,918,937,957,977,999,1019,1038,1057,1078,1097,1117,1137,1157,1178,1198,1217,1238,1258,1277,1297,1318,1337,1358,1377,1398,1418,1437,1458,1477,1498,1517,1537,1557,1577,1598,1617,1638,1657,1677,1698,1718,1737,1757,1777,1797,1818,1837,1857,1877],"xSR":741.5,"ySR":573.95,"xT1":424.9,"yT1":0,"xT2":1058.1,"yT2":0,"toosoon":0,"cond_shown":"Incongruent","ratio_trial":300,"L_num":8,"L_den":10,"R_num":14,"R_den":28,"correct_side":1,"subjID":"TalianaVigoyaTaborda24","gender":"1","school":"4","age":"9"},{"start_time":1552327517182,"click_time":1552327519731,"finger_time":1552327518551,"fix_duration":930.5975994209958,"trial":24,"RT":1369,"MT":1180,"sideResp":2,"stimulus":[],"xmouse":[759,759,759,759,759,759,759,759,759,759,759,759,759,759,759,759,759,759,759,759,759,759,759,759,759,759,759,759,759,759,759,759,759,759,759,759,759,759,759,759,759,759,759,759,759,759,759,759,759,759,759,759,759,759,759,759,759,759,759,759,759,758,757,755,752,752,751,751,750,750,748,748,745,740,737,733,724,719,709,704,700,698,696,695,694,693,692,690,681,675,667,658,646,634,634,634,634,634,634,638,648,663,675,698,717,752,793,847,937,976,1005,1023,1035,1045,1046,1046,1046,1046,1046,1046,1046,1046,1046,1046,1046,1049,1055,1062],"ymouse":[616,616,616,616,616,616,616,616,616,616,616,616,616,616,616,616,616,616,616,616,616,616,616,616,616,616,616,616,616,616,616,616,616,616,616,616,616,616,616,616,616,616,616,616,616,616,616,616,616,616,616,616,616,616,616,616,616,616,616,616,616,613,612,608,597,594,583,575,562,557,551,545,537,520,508,497,474,463,439,430,423,417,413,407,404,397,390,379,344,328,313,298,284,270,269,269,269,269,269,267,265,264,264,263,262,253,238,206,133,88,53,29,12,0,0,0,0,0,0,0,0,0,0,0,0,1,13,23],"timestamp_mouse":[12,35,50,70,90,109,131,149,169,189,209,229,249,269,289,310,329,349,369,389,409,429,450,470,489,509,529,549,569,590,609,630,649,670,689,709,729,750,769,791,810,830,851,869,890,909,929,949,969,990,1009,1030,1050,1069,1090,1110,1129,1151,1170,1189,1209,1229,1250,1270,1290,1309,1329,1349,1369,1389,1409,1429,1449,1469,1490,1509,1530,1549,1569,1590,1610,1629,1649,1670,1689,1709,1730,1749,1769,1789,1809,1830,1849,1869,1889,1909,1929,1949,1970,1989,2009,2029,2050,2069,2090,2109,2129,2149,2171,2189,2209,2229,2250,2269,2289,2309,2330,2351,2369,2390,2409,2429,2449,2470,2489,2509,2530,2549],"xSR":741.5,"ySR":573.95,"xT1":424.9,"yT1":0,"xT2":1058.1,"yT2":0,"toosoon":0,"cond_shown":"Incongruent","ratio_trial":100,"L_num":9,"L_den":18,"R_num":6,"R_den":10,"correct_side":2,"subjID":"TalianaVigoyaTaborda24","gender":"1","school":"4","age":"9"},{"start_time":1552327521103,"click_time":1552327522671,"finger_time":1552327522232,"fix_duration":250,"trial":25,"RT":1129,"MT":439,"sideResp":2,"stimulus":[],"xmouse":[826,826,826,826,826,826,826,826,826,826,826,826,826,826,826,826,826,826,826,826,826,826,826,826,826,826,826,826,826,826,826,826,826,826,826,826,826,826,826,826,826,826,826,826,826,826,826,826,826,826,826,826,826,826,831,837,843,850,858,860,863,868,887,905,926,948,967,992,998,1004,1012,1020,1035,1042,1049,1055,1061,1067,1081],"ymouse":[646,646,646,646,646,646,646,646,646,646,645,645,645,645,645,645,645,645,645,644,643,643,643,643,643,643,643,643,643,643,643,643,643,643,643,643,643,643,643,643,643,643,643,643,643,643,643,643,643,643,643,643,643,640,634,627,619,611,597,590,581,563,494,448,395,344,298,225,212,202,191,176,149,137,127,119,112,106,96],"timestamp_mouse":[25,45,49,68,89,109,129,148,168,188,208,228,248,268,288,309,328,348,368,388,409,428,448,468,488,509,528,550,568,588,609,629,648,668,688,708,728,749,769,789,808,830,848,868,889,908,928,948,969,989,1009,1029,1048,1068,1089,1108,1129,1148,1169,1189,1209,1228,1248,1268,1288,1308,1329,1348,1368,1389,1408,1428,1448,1468,1488,1508,1529,1548,1568],"xSR":741.5,"ySR":573.95,"xT1":424.9,"yT1":0,"xT2":1058.1,"yT2":0,"toosoon":0,"cond_shown":"Congruent","ratio_trial":200,"L_num":14,"L_den":28,"R_num":6,"R_den":20,"correct_side":1,"subjID":"TalianaVigoyaTaborda24","gender":"1","school":"4","age":"9"},{"start_time":1552327524833,"click_time":1552327527152,"finger_time":1552327525072,"fix_duration":359.9691941731808,"trial":26,"RT":239,"MT":2080,"sideResp":1,"stimulus":[],"xmouse":[801,801,801,801,801,801,801,801,798,795,789,778,760,753,747,745,744,744,744,744,744,744,744,744,744,744,744,742,738,737,735,734,734,734,734,736,742,745,746,747,747,749,750,751,752,754,756,765,769,772,774,774,774,774,774,774,774,775,776,776,776,776,778,779,780,780,780,781,781,781,781,781,781,781,781,781,781,781,781,781,781,781,781,781,781,782,782,774,766,755,731,706,650,622,596,583,572,560,556,552,544,540,540,540,540,540,540,540,540,540,540,540,540,537,532,526,521],"ymouse":[650,650,650,650,650,650,650,650,641,629,614,589,554,542,536,533,533,533,533,533,533,533,533,533,533,533,533,533,539,551,566,589,615,624,634,644,662,665,667,668,669,671,672,672,672,672,672,664,659,654,650,649,647,646,646,645,644,643,642,640,638,635,628,626,623,621,619,619,619,619,619,619,619,619,619,619,619,619,619,619,619,619,619,619,619,618,615,602,588,568,526,484,374,311,250,203,167,125,109,93,64,33,26,24,23,23,23,23,23,23,23,23,23,23,23,26,28],"timestamp_mouse":[1,18,39,58,78,98,118,138,158,179,198,218,239,258,279,299,318,338,358,378,398,419,438,458,479,499,519,538,559,578,599,619,638,658,680,698,720,738,758,778,799,818,839,858,878,898,920,938,958,978,998,1018,1040,1058,1079,1098,1119,1138,1158,1178,1199,1218,1238,1258,1279,1299,1318,1339,1358,1379,1399,1419,1438,1458,1478,1498,1518,1538,1559,1578,1599,1619,1640,1659,1678,1698,1718,1739,1759,1778,1798,1818,1838,1858,1878,1899,1918,1938,1958,1978,1999,2020,2038,2058,2078,2098,2118,2139,2159,2178,2198,2219,2239,2258,2278,2298,2319],"xSR":741.5,"ySR":573.95,"xT1":424.9,"yT1":0,"xT2":1058.1,"yT2":0,"toosoon":0,"cond_shown":"Incongruent","ratio_trial":300,"L_num":13,"L_den":26,"R_num":12,"R_den":15,"correct_side":2,"subjID":"TalianaVigoyaTaborda24","gender":"1","school":"4","age":"9"},{"start_time":1552327528876,"click_time":1552327529971,"finger_time":1552327529651,"fix_duration":603.7801564439394,"trial":27,"RT":775,"MT":320,"sideResp":2,"stimulus":[],"xmouse":[810,808,808,808,808,808,808,808,808,808,808,808,808,808,808,808,808,808,808,808,808,808,808,808,808,808,808,808,808,808,808,808,808,808,808,810,821,835,850,878,891,903,914,927,951,977,992,1007,1020,1040,1049,1056,1061,1068,1079],"ymouse":[634,634,634,634,634,634,634,634,634,634,634,634,634,634,634,634,634,634,634,634,634,634,634,634,634,634,634,634,634,634,634,634,634,634,634,628,615,599,581,546,529,510,491,466,408,352,314,279,249,199,173,151,128,103,54],"timestamp_mouse":[22,40,56,76,96,116,136,155,175,196,216,237,255,276,295,315,336,355,377,396,415,436,456,475,495,517,536,556,576,596,616,636,655,676,695,715,735,755,775,795,815,837,856,875,895,915,935,955,975,995,1015,1035,1055,1075,1095],"xSR":741.5,"ySR":573.95,"xT1":424.9,"yT1":0,"xT2":1058.1,"yT2":0,"toosoon":0,"cond_shown":"Incongruent","ratio_trial":300,"L_num":4,"L_den":20,"R_num":2,"R_den":4,"correct_side":2,"subjID":"TalianaVigoyaTaborda24","gender":"1","school":"4","age":"9"},{"start_time":1552327532335,"click_time":1552327533872,"finger_time":1552327533511,"fix_duration":861.2106055612679,"trial":28,"RT":1176,"MT":361,"sideResp":2,"stimulus":[],"xmouse":[786,786,786,786,786,786,786,786,786,786,786,786,786,786,786,786,786,786,786,786,786,786,786,786,786,786,786,786,786,786,786,786,786,786,786,786,786,786,787,787,787,787,787,787,787,787,787,787,787,787,787,787,787,787,787,790,815,841,873,911,940,946,973,988,1005,1021,1055,1062,1067,1069,1070,1071,1077,1080,1082,1085,1087],"ymouse":[643,643,643,643,643,643,643,643,643,643,643,643,643,643,643,643,643,643,643,643,643,643,643,643,643,643,643,643,643,643,643,643,643,643,643,643,643,643,642,642,642,642,642,642,642,642,642,642,642,642,642,642,642,642,642,640,626,612,590,567,543,534,478,441,403,363,277,245,224,209,196,188,152,135,122,109,92],"timestamp_mouse":[16,37,56,77,97,116,136,157,177,197,217,237,256,277,297,316,337,358,376,397,416,436,457,476,497,518,537,556,577,596,617,637,656,677,697,718,738,756,776,796,816,836,857,876,896,917,936,956,976,998,1018,1037,1057,1076,1096,1117,1137,1156,1176,1196,1216,1236,1256,1276,1297,1317,1337,1356,1377,1397,1416,1436,1456,1476,1497,1516,1537],"xSR":741.5,"ySR":573.95,"xT1":424.9,"yT1":0,"xT2":1058.1,"yT2":0,"toosoon":0,"cond_shown":"Incongruent","ratio_trial":300,"L_num":4,"L_den":20,"R_num":2,"R_den":4,"correct_side":2,"subjID":"TalianaVigoyaTaborda24","gender":"1","school":"4","age":"9"},{"start_time":1552327535991,"click_time":1552327537991,"finger_time":1552327537511,"fix_duration":997.4034501576193,"trial":29,"RT":1520,"MT":480,"sideResp":1,"stimulus":[],"xmouse":[801,801,801,801,801,801,801,801,801,801,801,801,801,801,801,801,801,801,801,801,801,801,801,801,801,801,801,801,801,801,801,801,801,801,801,801,801,801,801,801,801,801,801,801,801,801,801,801,801,801,801,801,801,801,801,801,801,801,801,801,801,801,801,801,801,801,801,801,801,801,801,801,800,799,797,788,773,756,731,694,608,572,546,536,532,529,529,528,528,528,528,528,528,528,528,528,528,528,527,526,523],"ymouse":[593,593,593,593,593,593,593,593,593,593,593,593,593,593,593,593,593,593,593,593,593,593,593,593,593,593,593,593,593,593,593,593,593,593,593,593,593,593,593,593,593,593,593,593,593,593,593,593,593,593,593,593,593,593,593,593,593,593,593,593,593,593,593,593,593,593,593,593,593,593,593,593,593,592,590,579,561,540,506,440,246,154,95,73,64,59,55,52,51,51,51,51,51,51,51,51,51,51,51,51,51],"timestamp_mouse":[13,23,45,61,80,101,121,140,161,181,201,221,240,260,281,300,320,341,361,381,401,421,441,460,480,501,521,541,560,581,601,621,641,660,681,700,721,740,761,781,801,820,841,861,881,900,921,940,961,981,1000,1020,1041,1060,1081,1100,1121,1141,1160,1181,1201,1222,1240,1261,1281,1300,1321,1340,1360,1381,1400,1421,1441,1460,1481,1500,1520,1540,1560,1580,1600,1620,1641,1661,1681,1700,1720,1740,1760,1781,1800,1820,1840,1861,1881,1901,1921,1940,1961,1980,2000],"xSR":741.5,"ySR":573.95,"xT1":424.9,"yT1":0,"xT2":1058.1,"yT2":0,"toosoon":0,"cond_shown":"Congruent","ratio_trial":100,"L_num":3,"L_den":6,"R_num":2,"R_den":5,"correct_side":1,"subjID":"TalianaVigoyaTaborda24","gender":"1","school":"4","age":"9"},{"start_time":1552327541483,"click_time":1552327543352,"finger_time":1552327542751,"fix_duration":1090.8367952159178,"trial":30,"RT":1268,"MT":601,"sideResp":1,"stimulus":[],"xmouse":[761,761,761,761,761,761,761,761,761,761,761,761,761,761,761,761,761,761,761,761,761,761,761,761,761,761,761,761,761,761,761,761,761,761,761,761,761,761,761,761,761,761,761,761,761,761,761,761,761,761,761,761,761,761,761,761,761,761,761,761,761,756,747,734,717,681,658,637,615,595,578,562,556,549,546,541,539,534,530,524,519,506,498,491,485,477,474,471,470,470,470,469,469,468],"ymouse":[622,622,622,622,622,622,622,622,622,622,622,622,622,622,622,622,622,622,622,622,622,622,622,622,622,622,622,622,622,622,622,622,622,622,622,622,622,622,622,622,622,622,622,622,622,622,622,622,622,622,622,622,623,624,624,624,624,624,624,624,624,622,614,600,583,541,514,488,457,429,397,358,341,326,314,298,288,274,260,235,213,170,149,133,124,111,107,103,103,102,102,100,100,99],"timestamp_mouse":[13,42,48,68,88,108,128,148,169,189,209,229,248,269,289,308,328,349,369,388,409,429,449,469,488,508,529,549,569,589,609,628,648,669,688,708,729,749,768,789,808,828,849,868,888,909,929,948,968,989,1008,1029,1048,1068,1089,1109,1128,1148,1169,1188,1208,1229,1248,1268,1288,1309,1329,1349,1368,1389,1408,1429,1448,1469,1488,1510,1528,1549,1568,1589,1608,1628,1648,1668,1689,1709,1729,1749,1769,1788,1809,1830,1848,1869],"xSR":741.5,"ySR":573.95,"xT1":424.9,"yT1":0,"xT2":1058.1,"yT2":0,"toosoon":0,"cond_shown":"Incongruent","ratio_trial":100,"L_num":6,"L_den":10,"R_num":13,"R_den":26,"correct_side":1,"subjID":"TalianaVigoyaTaborda24","gender":"1","school":"4","age":"9"},{"start_time":1552327545973,"click_time":1552327548111,"finger_time":1552327547771,"fix_duration":1161.920399199291,"trial":31,"RT":1798,"MT":340,"sideResp":1,"stimulus":[],"xmouse":[796,796,796,796,796,796,796,796,796,796,796,796,796,796,796,796,796,796,796,796,796,796,796,796,796,796,796,796,796,796,796,796,796,796,796,796,796,796,796,796,796,796,796,796,796,796,796,796,796,796,796,796,796,796,796,796,796,796,796,796,796,796,796,796,796,796,796,796,796,796,796,796,796,796,796,796,796,796,796,796,796,796,796,796,796,796,794,786,776,764,752,724,705,686,666,641,591,571,556,548,544,536,531,529,528,526,521],"ymouse":[625,625,625,625,625,625,625,625,625,625,625,625,625,625,625,625,625,625,625,625,625,625,625,625,625,625,625,625,625,625,625,625,625,625,625,625,625,625,625,625,625,625,625,625,625,625,625,625,625,625,625,625,625,625,625,625,625,625,625,625,625,625,625,625,625,625,625,625,625,625,625,625,625,625,625,625,625,625,625,625,625,625,625,625,625,625,617,604,586,564,543,495,460,428,389,342,250,215,187,169,156,134,122,116,107,98,73],"timestamp_mouse":[19,38,58,78,98,119,138,159,179,198,219,240,258,279,299,318,339,359,378,399,419,439,458,478,499,518,538,558,578,599,619,638,658,679,699,718,739,758,778,799,820,838,859,878,898,918,938,958,979,999,1019,1039,1058,1078,1099,1118,1139,1159,1179,1198,1219,1240,1260,1279,1298,1319,1339,1359,1379,1399,1419,1439,1459,1479,1500,1519,1538,1559,1578,1599,1619,1640,1658,1678,1698,1718,1738,1758,1778,1798,1819,1838,1858,1878,1900,1918,1938,1958,1979,1998,2018,2038,2058,2078,2099,2119,2138],"xSR":741.5,"ySR":573.95,"xT1":424.9,"yT1":0,"xT2":1058.1,"yT2":0,"toosoon":0,"cond_shown":"Incongruent","ratio_trial":100,"L_num":9,"L_den":10,"R_num":20,"R_den":25,"correct_side":1,"subjID":"TalianaVigoyaTaborda24","gender":"1","school":"4","age":"9"},{"start_time":1552327549791,"click_time":1552327552591,"finger_time":1552327551892,"fix_duration":378.6017128597636,"trial":32,"RT":2101,"MT":699,"sideResp":1,"stimulus":[],"xmouse":[769,769,769,769,769,769,769,769,769,769,769,769,769,769,769,769,769,769,769,769,769,769,769,769,769,769,769,769,769,769,769,769,769,769,769,769,769,769,769,769,769,769,769,769,769,769,769,769,769,769,769,769,769,769,769,769,769,769,769,769,769,769,769,769,769,769,769,769,769,769,769,769,769,769,769,769,769,769,769,769,769,769,770,771,772,773,774,775,775,775,775,775,775,775,775,775,775,775,775,775,775,775,775,769,750,716,654,524,472,412,386,369,346,341,338,337,337,337,338,344,351,363,383,390,394,397,398,399,400,401,402,404,406,408,410,412,415,420,422,423,425],"ymouse":[633,633,633,633,633,633,633,633,633,633,633,633,633,633,633,633,633,633,633,633,633,633,633,633,633,633,633,633,633,633,633,633,633,633,633,633,633,633,633,633,633,633,633,633,633,633,633,633,633,633,633,633,633,633,633,633,633,633,633,633,633,633,633,633,633,633,633,633,633,632,632,632,632,631,631,631,631,631,631,631,631,630,629,627,625,622,620,617,617,617,617,617,617,617,617,617,617,617,617,617,617,617,615,606,587,559,506,403,353,293,261,238,201,188,179,172,158,152,147,138,131,124,111,106,102,99,97,95,93,93,90,87,84,82,80,78,75,69,66,65,63],"timestamp_mouse":[9,20,40,60,81,100,120,142,161,181,201,221,240,261,281,301,321,342,362,381,400,420,440,461,481,501,520,541,561,580,600,621,642,661,681,701,721,740,760,781,800,820,841,860,881,900,921,940,961,981,1001,1021,1040,1062,1081,1100,1121,1141,1162,1181,1200,1221,1242,1261,1281,1301,1321,1341,1361,1380,1401,1421,1440,1461,1480,1501,1520,1541,1562,1581,1601,1621,1642,1661,1681,1700,1720,1741,1762,1780,1801,1820,1841,1860,1881,1901,1921,1940,1962,1982,2002,2021,2041,2061,2081,2101,2120,2140,2161,2180,2201,2221,2240,2260,2280,2300,2321,2341,2361,2381,2401,2421,2440,2460,2480,2501,2520,2540,2560,2580,2600,2622,2641,2660,2680,2700,2721,2740,2761,2781,2800],"xSR":741.5,"ySR":573.95,"xT1":424.9,"yT1":0,"xT2":1058.1,"yT2":0,"toosoon":0,"cond_shown":"Congruent","ratio_trial":300,"L_num":1,"L_den":5,"R_num":11,"R_den":22,"correct_side":2,"subjID":"TalianaVigoyaTaborda24","gender":"1","school":"4","age":"9"},{"start_time":1552327555563,"click_time":1552327557731,"finger_time":1552327557031,"fix_duration":250,"trial":33,"RT":1468,"MT":700,"sideResp":1,"stimulus":[],"xmouse":[801,801,801,801,801,801,801,801,801,801,801,801,801,802,802,802,802,802,802,802,802,802,802,802,802,802,802,802,802,802,802,802,802,802,802,802,802,802,802,802,802,802,802,802,802,802,802,802,802,802,802,802,802,802,802,802,802,802,802,802,802,802,802,802,802,802,802,800,798,795,793,791,781,735,698,659,627,601,577,528,515,504,494,478,473,471,469,467,467,467,467,467,467,467,467,466,465,465,464,463,463,463,462,461,461,461,461,461,461],"ymouse":[635,635,635,635,635,635,635,635,635,635,637,637,638,639,639,639,639,639,639,639,639,639,639,639,639,641,642,642,642,642,642,642,642,642,642,642,642,642,642,642,642,642,642,642,642,642,642,642,642,642,642,642,642,642,642,642,642,642,642,642,642,642,642,642,642,642,642,643,644,645,645,645,637,597,561,522,486,460,436,379,362,343,324,287,271,253,237,219,191,181,176,173,169,161,157,151,147,143,141,136,134,132,131,127,123,118,111,105,94],"timestamp_mouse":[13,36,48,68,88,108,128,148,169,188,209,229,248,268,288,308,328,348,368,390,409,429,449,468,488,508,529,548,568,588,608,628,650,670,688,709,728,750,769,788,810,829,848,868,888,908,929,949,968,988,1008,1029,1048,1068,1088,1110,1129,1148,1168,1189,1209,1228,1248,1268,1290,1309,1328,1349,1368,1390,1409,1429,1448,1468,1488,1508,1528,1548,1569,1590,1608,1629,1648,1668,1689,1709,1728,1748,1768,1788,1809,1829,1848,1869,1888,1909,1928,1948,1969,1988,2008,2030,2049,2068,2088,2108,2128,2149,2168],"xSR":741.5,"ySR":573.95,"xT1":424.9,"yT1":0,"xT2":1058.1,"yT2":0,"toosoon":0,"cond_shown":"Incongruent","ratio_trial":200,"L_num":7,"L_den":10,"R_num":8,"R_den":16,"correct_side":1,"subjID":"TalianaVigoyaTaborda24","gender":"1","school":"4","age":"9"},{"start_time":1552327559735,"click_time":1552327561552,"finger_time":1552327561111,"fix_duration":883.7981490778997,"trial":34,"RT":1376,"MT":441,"sideResp":1,"stimulus":[],"xmouse":[764,764,764,764,764,764,764,764,764,764,764,764,764,764,764,764,764,764,764,764,764,764,764,764,764,764,764,764,764,764,764,764,764,764,764,764,764,764,764,764,764,764,764,764,764,764,764,764,764,764,764,764,764,764,764,764,764,764,764,764,764,764,764,764,764,764,761,758,737,705,613,573,538,514,496,481,478,476,474,473,473,473,473,473,473,473,473,473,473,473,473],"ymouse":[638,638,638,638,638,638,638,638,638,638,638,638,638,638,638,638,638,638,638,638,638,638,638,638,638,638,638,638,638,638,638,638,638,638,638,638,638,636,635,633,633,633,633,633,633,633,633,633,633,633,633,633,633,633,633,633,633,633,633,633,633,633,633,633,632,630,628,624,605,575,485,425,373,327,291,256,246,239,225,214,188,176,165,159,153,145,140,133,118,106,84],"timestamp_mouse":[20,41,57,76,96,118,136,157,176,197,217,237,256,277,296,318,336,356,376,397,416,436,456,476,497,517,538,557,577,597,617,637,657,677,697,716,736,756,777,798,817,836,856,876,896,917,936,957,976,996,1016,1037,1056,1077,1097,1117,1137,1157,1176,1197,1216,1236,1256,1277,1297,1316,1337,1356,1376,1397,1418,1436,1456,1476,1496,1516,1537,1557,1577,1596,1617,1636,1656,1677,1696,1716,1736,1756,1778,1798,1817],"xSR":741.5,"ySR":573.95,"xT1":424.9,"yT1":0,"xT2":1058.1,"yT2":0,"toosoon":0,"cond_shown":"Congruent","ratio_trial":300,"L_num":8,"L_den":16,"R_num":1,"R_den":5,"correct_side":1,"subjID":"TalianaVigoyaTaborda24","gender":"1","school":"4","age":"9"},{"start_time":1552327562882,"click_time":1552327564751,"finger_time":1552327564511,"fix_duration":250,"trial":35,"RT":1629,"MT":240,"sideResp":1,"stimulus":[],"xmouse":[768,768,768,768,768,768,768,768,768,768,768,768,768,768,768,768,768,768,768,768,768,768,768,768,768,768,768,768,768,768,768,768,768,768,768,768,768,768,768,768,768,768,768,768,768,768,768,768,768,768,768,768,768,768,768,768,768,768,768,768,768,768,768,768,768,768,768,768,768,768,768,768,768,768,768,768,767,766,762,754,745,732,714,662,631,603,579,550,475,458,446,440,434,431],"ymouse":[647,647,647,647,647,647,647,647,647,647,647,647,647,647,647,647,647,647,647,647,647,647,647,647,647,647,647,647,647,647,647,647,647,647,647,647,647,647,647,647,647,647,647,647,647,647,647,647,647,647,647,647,647,647,647,647,647,647,647,647,647,647,647,647,647,647,647,647,647,647,647,647,647,647,647,647,646,645,642,632,620,601,578,523,488,456,424,383,241,203,172,151,131,98],"timestamp_mouse":[13,35,50,69,90,110,130,149,169,190,211,230,250,270,289,309,329,350,370,389,409,429,449,470,490,510,531,550,569,589,610,630,650,671,691,710,730,749,770,789,809,830,849,870,890,910,930,949,969,989,1010,1031,1050,1070,1090,1109,1129,1149,1170,1190,1210,1229,1250,1269,1289,1309,1330,1349,1370,1391,1409,1430,1450,1469,1489,1510,1529,1549,1569,1589,1610,1629,1650,1670,1689,1709,1729,1751,1769,1789,1809,1830,1850,1869],"xSR":741.5,"ySR":573.95,"xT1":424.9,"yT1":0,"xT2":1058.1,"yT2":0,"toosoon":0,"cond_shown":"Congruent","ratio_trial":100,"L_num":4,"L_den":10,"R_num":15,"R_den":30,"correct_side":2,"subjID":"TalianaVigoyaTaborda24","gender":"1","school":"4","age":"9"},{"start_time":1552327567709,"click_time":1552327569472,"finger_time":1552327568712,"fix_duration":1156.3910243950463,"trial":36,"RT":1003,"MT":760,"sideResp":2,"stimulus":[],"xmouse":[774,774,774,774,774,774,774,774,774,774,774,774,774,774,774,774,774,774,774,774,774,774,774,774,774,774,774,774,774,774,774,773,772,770,770,770,769,769,769,768,768,768,768,768,768,768,770,773,786,797,810,820,831,848,855,871,875,894,912,919,923,927,931,940,945,947,955,960,975,985,997,1007,1013,1013,1013,1013,1013,1013,1014,1015,1016,1017,1019,1028,1034,1039,1047,1052,1060],"ymouse":[623,623,623,623,623,623,623,623,623,623,623,623,623,623,623,623,623,623,623,623,623,623,623,623,623,623,623,623,623,623,623,623,623,623,623,623,622,622,622,622,622,622,621,619,619,616,611,607,593,583,572,563,551,531,518,493,483,452,413,395,380,363,348,320,299,292,269,253,214,189,160,137,115,115,115,115,115,115,114,114,114,114,114,113,112,109,104,100,91],"timestamp_mouse":[21,23,44,62,82,102,122,143,162,183,203,224,243,263,282,304,322,342,363,383,403,422,442,463,483,504,524,543,562,583,602,622,643,662,683,702,722,742,763,783,803,823,843,863,883,902,923,942,962,982,1003,1023,1042,1062,1083,1102,1122,1142,1162,1182,1202,1223,1242,1263,1283,1302,1323,1344,1363,1382,1402,1423,1444,1462,1482,1502,1522,1543,1562,1583,1603,1622,1642,1662,1682,1702,1723,1742,1763],"xSR":741.5,"ySR":573.95,"xT1":424.9,"yT1":0,"xT2":1058.1,"yT2":0,"toosoon":0,"cond_shown":"Incongruent","ratio_trial":100,"L_num":11,"L_den":22,"R_num":9,"R_den":15,"correct_side":2,"subjID":"TalianaVigoyaTaborda24","gender":"1","school":"4","age":"9"},{"start_time":1552327572891,"click_time":1552327574551,"finger_time":1552327573891,"fix_duration":799.7247397770682,"trial":37,"RT":1000,"MT":660,"sideResp":1,"stimulus":[],"xmouse":[825,825,825,825,825,825,825,825,825,825,825,825,825,825,825,825,825,825,825,825,825,825,825,825,825,825,825,825,825,825,825,825,825,825,825,825,825,825,825,825,825,825,825,825,825,825,825,825,822,789,747,677,587,496,412,282,265,257,251,248,247,246,245,245,247,251,258,268,280,319,333,341,344,348,351,352,358,366,375,386,398,407,420,427],"ymouse":[616,616,616,616,616,616,616,616,616,616,616,616,616,616,616,616,616,616,616,616,616,616,616,616,616,616,616,616,616,616,616,616,616,616,616,616,616,616,616,616,616,616,616,616,616,616,616,616,615,595,571,528,465,387,305,130,99,79,63,38,29,22,18,17,15,14,13,12,12,18,21,23,25,27,29,31,37,45,52,58,65,70,75,77],"timestamp_mouse":[10,35,40,61,80,101,121,142,161,180,200,220,241,261,281,300,320,341,360,382,401,420,441,461,480,500,520,540,561,580,600,620,640,661,681,701,721,740,761,781,801,821,841,861,881,900,920,940,961,980,1000,1020,1040,1061,1080,1101,1120,1141,1161,1180,1200,1221,1241,1260,1280,1302,1320,1341,1360,1380,1400,1421,1441,1460,1481,1501,1520,1540,1562,1580,1600,1620,1640,1660],"xSR":741.5,"ySR":573.95,"xT1":424.9,"yT1":0,"xT2":1058.1,"yT2":0,"toosoon":0,"cond_shown":"Incongruent","ratio_trial":200,"L_num":4,"L_den":5,"R_num":6,"R_den":10,"correct_side":1,"subjID":"TalianaVigoyaTaborda24","gender":"1","school":"4","age":"9"},{"start_time":1552327576043,"click_time":1552327577911,"finger_time":1552327577112,"fix_duration":250,"trial":38,"RT":1069,"MT":799,"sideResp":2,"stimulus":[],"xmouse":[817,817,817,817,817,817,817,817,817,817,817,817,817,817,817,817,817,817,817,817,817,817,817,817,817,817,817,817,817,817,817,817,817,817,817,817,817,817,817,817,817,817,817,817,817,817,817,817,817,817,817,819,823,823,823,823,822,819,818,817,816,816,813,812,812,812,812,812,812,819,843,870,922,940,956,969,1003,1015,1024,1029,1029,1029,1029,1029,1029,1029,1029,1029,1029,1029,1030,1032,1046,1060],"ymouse":[623,623,623,623,623,623,623,623,623,623,623,623,623,623,623,623,623,623,623,623,623,623,623,623,623,623,623,623,623,623,623,623,623,623,623,623,623,623,623,623,623,623,623,623,623,623,623,623,623,614,608,595,578,572,567,559,554,546,543,539,534,530,515,504,490,469,456,432,417,396,360,326,264,239,216,198,148,128,110,99,91,87,82,82,81,81,81,81,81,81,80,80,77,75],"timestamp_mouse":[12,28,49,69,89,109,128,148,168,189,208,229,248,269,289,308,330,349,368,390,409,428,449,468,489,508,529,549,569,590,610,629,648,669,688,709,729,750,769,789,808,828,848,869,890,909,929,948,969,989,1009,1028,1049,1069,1088,1108,1128,1148,1168,1188,1208,1229,1248,1269,1288,1308,1328,1350,1368,1389,1409,1430,1449,1470,1488,1509,1529,1548,1568,1589,1608,1629,1649,1668,1689,1708,1728,1749,1768,1789,1809,1828,1848,1868],"xSR":741.5,"ySR":573.95,"xT1":424.9,"yT1":0,"xT2":1058.1,"yT2":0,"toosoon":0,"cond_shown":"Incongruent","ratio_trial":300,"L_num":4,"L_den":20,"R_num":2,"R_den":4,"correct_side":2,"subjID":"TalianaVigoyaTaborda24","gender":"1","school":"4","age":"9"},{"start_time":1552327579284,"click_time":1552327581712,"finger_time":1552327580892,"fix_duration":250,"trial":39,"RT":1608,"MT":820,"sideResp":2,"stimulus":[],"xmouse":[802,802,802,802,802,802,802,802,802,802,802,802,802,802,802,802,802,802,802,802,802,802,802,802,802,802,802,802,802,802,802,802,802,802,802,802,802,802,802,802,802,802,802,802,802,802,802,800,797,796,795,795,795,795,795,795,795,795,795,795,795,795,795,795,795,795,795,795,795,795,795,795,791,786,782,773,769,766,763,760,755,755,753,752,751,751,751,752,755,757,769,777,786,794,806,832,846,859,871,885,903,917,926,935,944,958,964,968,971,973,975,977,980,988,999,1018,1026,1029,1034,1040,1057,1066],"ymouse":[640,640,640,640,640,640,640,640,640,640,640,640,640,640,640,640,640,640,640,640,640,640,640,640,640,640,640,640,640,640,640,640,640,640,640,640,640,640,640,640,640,640,640,640,640,640,640,639,638,637,637,637,637,637,637,637,637,637,637,637,637,637,637,637,637,637,637,637,637,637,637,637,634,625,617,603,595,589,585,581,572,567,561,556,546,522,507,492,476,462,423,406,390,373,354,315,295,277,261,243,218,203,194,183,170,149,141,135,132,131,129,128,128,127,125,118,115,113,110,107,93,86],"timestamp_mouse":[13,38,47,69,87,109,128,147,167,188,208,229,247,268,288,309,327,347,368,389,408,428,447,469,488,508,528,547,567,588,608,627,648,667,688,707,729,749,767,788,808,827,847,867,887,907,927,948,967,987,1007,1027,1049,1067,1088,1107,1129,1148,1169,1187,1208,1229,1249,1268,1287,1307,1329,1348,1367,1387,1407,1427,1447,1468,1488,1507,1527,1548,1568,1588,1608,1627,1647,1668,1688,1708,1727,1748,1768,1788,1808,1828,1848,1868,1889,1909,1927,1948,1967,1988,2007,2028,2047,2068,2087,2107,2127,2148,2167,2187,2207,2227,2247,2268,2288,2307,2327,2348,2367,2388,2407,2428],"xSR":741.5,"ySR":573.95,"xT1":424.9,"yT1":0,"xT2":1058.1,"yT2":0,"toosoon":0,"cond_shown":"Incongruent","ratio_trial":100,"L_num":10,"L_den":25,"R_num":8,"R_den":16,"correct_side":2,"subjID":"TalianaVigoyaTaborda24","gender":"1","school":"4","age":"9"},{"start_time":1552327583788,"click_time":1552327586152,"finger_time":1552327585271,"fix_duration":614.9222283587015,"trial":40,"RT":1483,"MT":881,"sideResp":1,"stimulus":[],"xmouse":[808,808,808,808,808,808,808,807,807,807,807,807,807,807,807,807,807,807,807,807,807,807,807,807,807,807,807,807,807,807,807,807,807,807,807,807,807,807,807,807,807,807,807,807,807,807,807,807,807,807,807,807,807,807,807,807,807,807,807,807,807,807,807,807,807,807,807,807,807,805,795,785,769,752,738,726,726,726,726,726,726,721,719,719,719,719,719,719,718,717,717,714,713,712,706,700,680,667,652,635,617,583,572,561,552,543,537,535,533,532,528,527,526,526,526,525,521,520,517],"ymouse":[623,623,623,623,623,623,623,623,623,623,623,623,623,623,623,623,623,623,623,623,623,623,623,623,623,623,623,623,623,623,623,623,623,623,623,622,622,622,622,622,622,622,622,622,622,622,622,622,622,622,622,622,622,622,622,622,622,622,622,622,622,622,622,622,622,622,622,622,622,621,614,607,597,587,579,573,573,573,573,573,573,571,570,570,570,570,570,570,570,570,570,568,565,561,549,534,488,456,423,385,345,264,237,210,186,159,142,136,131,127,118,115,113,113,113,111,104,101,97],"timestamp_mouse":[14,41,43,64,83,103,123,144,163,184,203,224,244,264,284,304,323,344,363,384,404,424,443,465,484,503,523,544,563,583,603,623,644,663,683,704,724,744,764,783,803,823,845,865,884,904,923,944,963,984,1003,1024,1043,1063,1083,1103,1124,1143,1163,1184,1204,1224,1243,1263,1283,1304,1324,1344,1364,1383,1404,1423,1444,1463,1483,1504,1523,1543,1564,1584,1604,1625,1644,1663,1683,1704,1723,1744,1764,1784,1803,1823,1843,1863,1883,1903,1923,1943,1964,1984,2003,2024,2045,2063,2083,2103,2123,2143,2164,2184,2204,2223,2244,2263,2283,2303,2323,2343,2363],"xSR":741.5,"ySR":573.95,"xT1":424.9,"yT1":0,"xT2":1058.1,"yT2":0,"toosoon":0,"cond_shown":"Congruent","ratio_trial":100,"L_num":4,"L_den":10,"R_num":15,"R_den":30,"correct_side":2,"subjID":"TalianaVigoyaTaborda24","gender":"1","school":"4","age":"9"},{"start_time":1552327588803,"click_time":1552327594692,"finger_time":1552327594152,"fix_duration":330.3132016286525,"trial":41,"RT":5349,"MT":540,"sideResp":2,"stimulus":[],"xmouse":[778,785,785,785,785,785,785,785,785,785,785,785,785,785,784,782,782,782,782,782,781,781,780,780,779,778,778,778,778,778,778,778,778,778,778,778,778,778,778,778,778,778,778,778,778,778,778,778,778,778,778,778,778,778,778,778,778,778,778,778,778,778,778,777,776,771,771,771,771,771,770,769,768,768,768,768,768,768,768,768,767,767,767,767,767,767,767,767,767,767,767,767,766,766,766,766,766,765,765,765,765,765,765,765,765,765,765,765,765,765,765,765,765,765,765,765,765,765,765,765,765,765,765,765,765,765,765,765,765,765,765,765,765,765,765,765,765,765,765,765,765,765,765,765,765,765,765,765,765,765,765,765,765,765,765,765,765,765,765,765,765,765,765,765,765,765,765,765,765,765,765,765,765,765,765,765,765,765,765,765,765,765,765,765,765,765,765,765,765,765,765,765,765,765,765,765,765,765,765,765,765,765,765,765,765,765,765,765,765,765,765,765,765,765,765,765,765,765,765,765,765,765,765,765,765,765,765,765,765,765,765,765,765,765,765,765,765,765,765,765,765,765,765,765,765,765,765,765,765,765,765,765,765,765,765,765,765,765,765,765,765,765,765,766,770,781,812,826,838,849,874,889,906,928,951,966,979,984,990,994,1002,1013,1018,1019,1019,1019,1021,1027,1034,1040,1043,1046,1048,1054,1060],"ymouse":[637,636,636,635,635,635,635,635,635,635,635,635,635,635,635,636,636,636,636,636,636,637,637,638,639,640,640,640,640,640,640,640,640,640,640,640,640,640,640,640,640,640,640,640,640,640,640,640,640,640,640,640,640,640,640,640,640,640,640,640,640,640,640,640,640,637,636,636,636,636,635,635,634,634,634,634,634,634,634,634,634,634,634,634,634,634,634,634,634,634,634,634,633,632,632,632,631,631,631,630,630,630,630,630,630,630,630,630,630,630,630,630,630,630,630,630,630,630,630,630,630,630,630,630,630,630,630,630,630,630,630,630,630,630,630,630,630,630,630,630,630,630,630,630,630,630,630,630,630,630,630,630,630,630,630,630,630,630,630,630,630,630,630,630,630,630,630,630,630,630,630,630,630,630,630,630,630,630,630,630,630,630,630,630,630,630,630,630,630,630,630,630,630,630,630,630,630,630,630,630,630,630,630,630,630,630,630,630,630,630,630,630,630,630,630,630,630,630,630,630,630,630,630,630,630,630,630,630,630,630,630,630,630,630,630,630,630,630,630,630,630,630,630,630,630,630,630,630,630,630,630,630,630,630,630,630,630,630,630,630,630,630,630,628,625,615,587,570,554,535,481,447,404,355,301,259,211,191,174,158,132,105,98,96,96,96,94,94,92,91,91,90,90,89,88],"timestamp_mouse":[19,40,48,70,88,108,128,148,168,189,209,229,249,268,288,308,329,349,369,388,408,429,448,468,488,509,529,548,568,589,610,628,649,668,689,709,728,749,768,789,808,829,848,870,889,908,929,948,969,988,1008,1028,1049,1069,1088,1108,1129,1149,1168,1188,1209,1228,1249,1269,1288,1308,1328,1349,1368,1390,1408,1429,1450,1468,1488,1508,1529,1548,1568,1588,1609,1629,1648,1668,1688,1709,1728,1749,1769,1789,1809,1828,1848,1870,1889,1908,1929,1950,1969,1989,2008,2029,2049,2069,2089,2108,2130,2149,2169,2189,2209,2228,2249,2269,2290,2309,2329,2348,2368,2388,2408,2429,2449,2469,2488,2509,2529,2550,2569,2588,2609,2628,2649,2670,2689,2709,2728,2748,2768,2789,2808,2828,2849,2869,2888,2909,2928,2948,2969,2988,3008,3029,3050,3069,3089,3108,3129,3148,3169,3188,3209,3228,3249,3269,3288,3308,3330,3349,3369,3389,3409,3428,3449,3470,3489,3509,3529,3548,3568,3589,3609,3629,3648,3668,3689,3709,3728,3749,3768,3788,3809,3828,3849,3869,3889,3908,3928,3949,3969,3989,4008,4028,4049,4068,4088,4108,4128,4149,4168,4189,4210,4230,4248,4268,4289,4308,4328,4349,4369,4388,4409,4429,4449,4468,4489,4509,4529,4548,4569,4590,4609,4629,4649,4669,4689,4708,4728,4749,4769,4788,4809,4829,4849,4869,4889,4909,4929,4949,4969,4989,5008,5029,5049,5069,5089,5108,5129,5149,5168,5189,5209,5229,5249,5269,5288,5308,5328,5349,5368,5389,5410,5428,5448,5468,5488,5508,5528,5548,5569,5589,5609,5629,5650,5669,5689,5709,5728,5749,5768,5789,5809,5828,5850,5869,5889],"xSR":741.5,"ySR":573.95,"xT1":424.9,"yT1":0,"xT2":1058.1,"yT2":0,"toosoon":0,"cond_shown":"Congruent","ratio_trial":100,"L_num":7,"L_den":14,"R_num":15,"R_den":25,"correct_side":2,"subjID":"TalianaVigoyaTaborda24","gender":"1","school":"4","age":"9"},{"start_time":1552327596230,"click_time":1552327598053,"finger_time":1552327597371,"fix_duration":277.045375260207,"trial":42,"RT":1141,"MT":682,"sideResp":1,"stimulus":[],"xmouse":[793,793,793,793,793,793,793,793,793,793,793,793,793,793,793,793,793,793,793,793,793,793,793,793,793,793,793,793,793,793,793,793,793,793,793,793,793,793,793,793,793,793,793,793,793,793,793,793,793,793,793,793,793,792,791,785,776,761,735,722,706,701,697,693,688,674,660,646,637,628,616,610,604,595,587,566,558,554,548,541,535,534,534,534,534,533,532,530,530,529,526,524],"ymouse":[613,613,613,613,613,613,613,613,613,613,613,613,613,613,613,613,613,613,613,613,613,613,613,613,613,613,613,613,613,613,613,613,613,613,613,613,613,613,613,613,613,613,613,613,613,613,613,613,613,613,613,613,613,613,613,601,584,558,513,493,465,456,447,438,427,395,362,338,314,296,266,253,235,213,183,95,41,16,0,0,0,0,0,0,0,0,0,0,1,2,7,10],"timestamp_mouse":[10,37,42,62,81,101,121,141,161,183,202,222,242,262,282,302,322,341,361,381,402,422,441,462,482,501,522,542,562,583,602,621,643,662,681,703,723,742,762,781,801,822,841,861,882,901,922,941,963,982,1002,1022,1042,1062,1082,1101,1122,1141,1161,1181,1201,1222,1242,1262,1282,1301,1331,1341,1362,1381,1402,1421,1442,1461,1482,1501,1522,1541,1561,1582,1601,1621,1642,1661,1682,1701,1721,1741,1761,1781,1801,1823],"xSR":741.5,"ySR":573.95,"xT1":424.9,"yT1":0,"xT2":1058.1,"yT2":0,"toosoon":0,"cond_shown":"Incongruent","ratio_trial":300,"L_num":4,"L_den":5,"R_num":6,"R_den":12,"correct_side":1,"subjID":"TalianaVigoyaTaborda24","gender":"1","school":"4","age":"9"},{"start_time":1552327600695,"click_time":1552327603631,"finger_time":1552327602072,"fix_duration":1163.3534107434969,"trial":43,"RT":1377,"MT":1559,"sideResp":2,"stimulus":[],"xmouse":[809,809,809,809,809,809,809,809,809,809,809,809,809,809,809,809,809,809,809,809,809,809,809,809,809,809,809,809,809,809,809,809,809,809,809,809,807,806,805,805,805,804,804,804,804,804,804,804,804,804,804,804,804,804,804,804,804,804,804,807,813,820,829,831,831,832,833,839,847,865,871,890,908,910,910,910,910,910,910,910,910,910,910,910,910,910,910,910,910,910,910,910,910,910,910,910,910,910,910,910,910,910,910,910,910,910,910,910,910,910,910,910,910,910,910,910,913,923,930,936,944,954,966,970,975,981,986,994,996,996,996,996,996,996,996,996,996,997,1001,1003,1007,1013,1026,1034,1043,1052,1060],"ymouse":[634,634,634,634,634,634,634,634,634,634,634,634,634,634,634,634,634,634,634,634,634,634,634,634,634,634,634,634,634,634,634,634,634,634,634,634,634,634,634,636,641,645,645,645,645,645,645,645,646,646,646,646,646,646,646,646,646,646,646,645,642,640,634,632,632,630,630,623,613,592,585,562,542,539,538,538,538,538,538,538,538,538,538,538,538,538,538,538,538,538,538,538,538,538,538,538,538,538,538,538,538,538,538,538,538,538,538,538,538,538,538,538,538,538,537,531,521,485,463,437,412,378,342,322,306,288,270,239,230,226,226,225,213,200,186,174,165,149,138,130,121,109,91,79,67,54,45],"timestamp_mouse":[16,47,57,78,97,117,136,156,177,196,216,236,257,277,297,317,338,357,377,396,417,438,457,476,496,517,537,556,577,597,617,636,656,677,696,717,737,757,777,797,816,837,857,877,896,916,937,957,976,998,1016,1036,1056,1076,1096,1116,1136,1157,1177,1197,1217,1236,1257,1277,1296,1316,1336,1356,1377,1396,1416,1436,1457,1476,1497,1517,1537,1557,1576,1597,1616,1636,1656,1677,1697,1716,1737,1756,1776,1797,1816,1837,1856,1877,1896,1916,1937,1956,1976,1997,2016,2036,2056,2076,2096,2117,2137,2156,2176,2197,2217,2238,2257,2276,2297,2316,2336,2356,2377,2398,2417,2436,2456,2476,2496,2516,2537,2557,2577,2596,2616,2636,2656,2676,2697,2716,2737,2756,2777,2796,2816,2837,2856,2876,2896,2916,2936],"xSR":741.5,"ySR":573.95,"xT1":424.9,"yT1":0,"xT2":1058.1,"yT2":0,"toosoon":0,"cond_shown