[{"start_time":1552327969490,"click_time":1552327972186,"finger_time":1552327969507,"fix_duration":618.0457772570446,"trial":0,"RT":17,"MT":2679,"sideResp":1,"stimulus":"img/500/equaldotsize/R/12_Ratio_500_L_1_R_2.png","xmouse":[777,777,777,777,777,777,777,777,777,777,777,777,777,777,777,777,777,777,777,777,777,777,777,777,777,777,777,777,777,777,777,777,780,784,787,793,812,820,827,832,838,838,839,839,839,839,839,839,839,839,839,839,839,839,839,839,839,839,839,839,839,839,839,833,822,801,797,797,797,797,797,797,797,797,797,797,797,797,797,797,797,797,797,797,797,797,797,797,797,797,797,797,797,797,797,797,797,797,797,797,797,797,797,797,797,797,797,791,778,765,756,740,733,725,714,688,675,662,650,637,625,612,602,592,579,560,555,552,548,545,542,533,530,526,523],"ymouse":[530,530,530,530,530,530,530,530,530,530,530,530,530,530,530,530,530,530,530,530,530,530,530,530,530,530,530,530,530,530,530,536,541,548,554,562,585,596,608,615,629,632,633,633,633,633,633,633,633,633,633,633,633,633,633,633,633,633,633,633,633,633,633,633,633,633,633,633,633,633,633,633,633,633,633,633,633,633,633,633,633,633,633,633,633,633,633,633,633,633,633,633,633,633,633,633,633,633,633,633,633,633,633,633,633,628,594,549,496,450,421,362,339,316,289,225,181,137,94,45,0,0,0,0,0,0,0,0,0,0,4,15,20,27,31],"timestamp_mouse":[16,36,55,76,95,115,135,155,177,196,215,235,255,276,295,316,336,356,376,396,415,436,456,475,495,515,535,555,576,596,615,636,656,675,695,715,736,755,775,796,816,835,856,876,896,915,935,955,976,996,1015,1035,1056,1075,1095,1115,1136,1157,1176,1195,1216,1237,1255,1276,1296,1316,1336,1356,1375,1396,1417,1435,1455,1476,1497,1516,1535,1556,1575,1596,1616,1635,1656,1676,1695,1716,1735,1755,1776,1796,1817,1837,1855,1875,1897,1916,1935,1956,1976,1996,2015,2036,2055,2076,2096,2115,2135,2155,2176,2196,2215,2236,2255,2275,2295,2317,2336,2355,2375,2395,2415,2435,2455,2476,2496,2516,2536,2555,2575,2596,2615,2635,2655,2675,2695],"xSR":741.5,"ySR":469.95,"xT1":424.9,"yT1":0,"xT2":1058.1,"yT2":0,"toosoon":0,"cond_shown":"equaldotsize","ratio_trial":500,"smaller_num":"1","larger_num":"2","correct_side":2,"subjID":"TalianaVigoya24","gender":"1","age":"9","school":"4","test":{"fix_dur":[250,1500],"timestim":300,"targets_dim":[100,100],"targets_relative_coord":[0.3,0.7],"size_stim":[880,420],"start_dim":[100,100],"size_start":[300,300],"size_fix":60,"samplingrate":20,"img_types":["equaldotsize","equaldotanddens","randomdotsizeEA"],"ratios":[250,500,750,900],"rep_conds":9,"nTrials":120,"trials_to_rest":500,"Trials_order":[87,12,118,86,9,32,69,81,112,49,63,95,78,106,6,27,88,5,20,48,107,16,82,30,92,119,58,73,113,67,110,13,74,59,4,91,98,42,8,64,34,3,109,15,55,77,103,39,100,75,29,43,79,44,104,117,72,90,84,83,23,66,38,116,71,45,101,51,22,14,33,24,80,105,54,17,0,89,11,96,26,85,36,50,111,52,60,93,115,1,57,41,70,56,10,68,40,35,53,62,94,102,76,47,2,7,28,25,61,99,18,31,19,114,65,97,108,21,46,37],"cond_shown":["equaldotsize","equaldotsize","equaldotanddens","randomdotsizeEA","equaldotsize","randomdotsizeEA","equaldotsize","equaldotsize","equaldotanddens","equaldotanddens","equaldotsize","randomdotsizeEA","equaldotsize","equaldotanddens","equaldotsize","equaldotsize","equaldotanddens","randomdotsizeEA","randomdotsizeEA","equaldotsize","randomdotsizeEA","equaldotanddens","equaldotanddens","equaldotsize","randomdotsizeEA","randomdotsizeEA","equaldotanddens","equaldotanddens","randomdotsizeEA","equaldotanddens","randomdotsizeEA","equaldotanddens","randomdotsizeEA","randomdotsizeEA","equaldotanddens","equaldotanddens","randomdotsizeEA","equaldotsize","randomdotsizeEA","equaldotanddens","equaldotanddens","equaldotsize","equaldotanddens","equaldotsize","equaldotanddens","randomdotsizeEA","equaldotanddens","equaldotsize","equaldotanddens","equaldotsize","randomdotsizeEA","equaldotanddens","equaldotanddens","randomdotsizeEA","randomdotsizeEA","equaldotsize","equaldotsize","equaldotsize","equaldotsize","randomdotsizeEA","randomdotsizeEA","equaldotsize","randomdotsizeEA","randomdotsizeEA","randomdotsizeEA","equaldotsize","randomdotsizeEA","equaldotsize","equaldotanddens","randomdotsizeEA","equaldotsize","equaldotsize","randomdotsizeEA","equaldotsize","equaldotsize","randomdotsizeEA","equaldotsize","randomdotsizeEA","randomdotsizeEA","equaldotsize","randomdotsizeEA","equaldotanddens","equaldotsize","randomdotsizeEA","equaldotsize","equaldotanddens","equaldotsize","equaldotsize","equaldotanddens","equaldotanddens","equaldotsize","randomdotsizeEA","equaldotanddens","randomdotsizeEA","equaldotanddens","randomdotsizeEA","equaldotanddens","randomdotsizeEA","randomdotsizeEA","randomdotsizeEA","equaldotanddens","equaldotsize","equaldotanddens","randomdotsizeEA","randomdotsizeEA","equaldotanddens","equaldotanddens","equaldotanddens","equaldotanddens","equaldotsize","equaldotsize","equaldotanddens","equaldotanddens","equaldotsize","randomdotsizeEA","equaldotanddens","equaldotsize","equaldotsize","equaldotanddens","equaldotanddens"],"ratio_trial":[500,250,900,250,900,750,900,900,500,250,500,900,750,900,750,500,500,500,750,250,900,500,900,750,750,900,900,250,500,750,250,250,250,900,500,750,250,750,750,500,900,500,250,500,750,500,750,500,500,500,500,750,750,750,750,900,250,750,250,900,900,750,250,750,900,900,500,500,900,250,900,250,750,900,750,500,250,500,900,250,250,250,250,250,500,500,250,900,750,250,900,500,900,750,900,750,500,900,500,250,900,750,500,900,250,750,500,250,250,500,750,750,750,750,500,250,250,900,900,250],"smaller_num":["1","2","9","3","18","3","18","9","5","6","9","9","6","18","15","1","1","10","12","3","18","9","18","9","3","18","18","2","4","15","4","5","2","18","9","15","4","6","9","4","18","5","5","3","15","5","12","2","2","3","4","3","3","3","15","18","6","3","4","9","18","3","2","15","18","18","5","6","18","2","18","3","15","18","12","2","4","4","18","3","6","2","2","3","6","2","6","18","6","5","9","10","18","6","9","15","5","9","3","3","9","18","1","9","2","15","3","3","2","6","15","3","3","6","9","2","2","18","18","5"],"larger_num":["2","8","10","12","20","4","20","10","10","24","18","10","8","20","20","2","2","20","16","12","20","18","20","12","4","20","20","8","8","20","16","20","8","20","18","20","16","8","12","8","20","10","20","6","20","10","16","4","4","6","8","4","4","4","20","20","24","4","16","10","20","4","8","20","20","20","10","12","20","8","20","12","20","20","16","4","16","8","20","12","24","8","8","12","12","4","24","20","8","20","10","20","20","8","10","20","10","10","6","12","10","24","2","10","8","20","6","12","8","12","20","4","4","8","18","8","8","20","20","20"],"correct_side":[2,1,2,2,1,1,2,2,1,1,2,1,1,2,2,2,2,2,2,1,1,1,1,2,2,2,1,1,1,2,2,2,1,1,2,2,1,2,2,1,2,2,2,2,2,2,2,2,1,2,1,1,1,1,2,2,1,2,1,2,2,2,1,2,1,1,2,1,2,1,1,1,1,2,2,1,2,1,1,2,1,1,1,2,1,1,1,1,1,2,2,2,1,1,2,2,2,2,2,2,2,1,2,2,1,2,2,2,1,1,2,1,1,1,2,1,2,1,1,2],"img_shown":["img/500/equaldotsize/R/12_Ratio_500_L_1_R_2.png","img/250/equaldotsize/L/7_Ratio_250_L_8_R_2.png","img/900/equaldotanddens/R/5_Ratio_900_L_9_R_10.png","img/250/randomdotsizeEA/R/4_Ratio_250_L_3_R_12.png","img/900/equaldotsize/L/2_Ratio_900_L_20_R_18.png","img/750/randomdotsizeEA/L/9_Ratio_750_L_4_R_3.png","img/900/equaldotsize/R/9_Ratio_900_L_18_R_20.png","img/900/equaldotsize/R/7_Ratio_900_L_9_R_10.png","img/500/equaldotanddens/L/7_Ratio_500_L_10_R_5.png","img/250/equaldotanddens/L/5_Ratio_250_L_24_R_6.png","img/500/equaldotsize/R/1_Ratio_500_L_9_R_18.png","img/900/randomdotsizeEA/L/1_Ratio_900_L_10_R_9.png","img/750/equaldotsize/L/14_Ratio_750_L_8_R_6.png","img/900/equaldotanddens/R/9_Ratio_900_L_18_R_20.png","img/750/equaldotsize/R/3_Ratio_750_L_15_R_20.png","img/500/equaldotsize/R/15_Ratio_500_L_1_R_2.png","img/500/equaldotanddens/R/15_Ratio_500_L_1_R_2.png","img/500/randomdotsizeEA/R/3_Ratio_500_L_10_R_20.png","img/750/randomdotsizeEA/R/11_Ratio_750_L_12_R_16.png","img/250/equaldotsize/L/14_Ratio_250_L_12_R_3.png","img/900/randomdotsizeEA/L/10_Ratio_900_L_20_R_18.png","img/500/equaldotanddens/L/4_Ratio_500_L_18_R_9.png","img/900/equaldotanddens/L/2_Ratio_900_L_20_R_18.png","img/750/equaldotsize/R/15_Ratio_750_L_9_R_12.png","img/750/randomdotsizeEA/R/12_Ratio_750_L_3_R_4.png","img/900/randomdotsizeEA/R/13_Ratio_900_L_18_R_20.png","img/900/equaldotanddens/L/2_Ratio_900_L_20_R_18.png","img/250/equaldotanddens/L/3_Ratio_250_L_8_R_2.png","img/500/randomdotsizeEA/L/8_Ratio_500_L_8_R_4.png","img/750/equaldotanddens/R/3_Ratio_750_L_15_R_20.png","img/250/randomdotsizeEA/R/10_Ratio_250_L_4_R_16.png","img/250/equaldotanddens/R/12_Ratio_250_L_5_R_20.png","img/250/randomdotsizeEA/L/3_Ratio_250_L_8_R_2.png","img/900/randomdotsizeEA/L/8_Ratio_900_L_20_R_18.png","img/500/equaldotanddens/R/1_Ratio_500_L_9_R_18.png","img/750/equaldotanddens/R/3_Ratio_750_L_15_R_20.png","img/250/randomdotsizeEA/L/2_Ratio_250_L_16_R_4.png","img/750/equaldotsize/R/2_Ratio_750_L_6_R_8.png","img/750/randomdotsizeEA/R/15_Ratio_750_L_9_R_12.png","img/500/equaldotanddens/L/8_Ratio_500_L_8_R_4.png","img/900/equaldotanddens/R/12_Ratio_900_L_18_R_20.png","img/500/equaldotsize/R/14_Ratio_500_L_5_R_10.png","img/250/equaldotanddens/R/12_Ratio_250_L_5_R_20.png","img/500/equaldotsize/R/2_Ratio_500_L_3_R_6.png","img/750/equaldotanddens/R/4_Ratio_750_L_15_R_20.png","img/500/randomdotsizeEA/R/14_Ratio_500_L_5_R_10.png","img/750/equaldotanddens/R/11_Ratio_750_L_12_R_16.png","img/500/equaldotsize/R/9_Ratio_500_L_2_R_4.png","img/500/equaldotanddens/L/10_Ratio_500_L_4_R_2.png","img/500/equaldotsize/R/2_Ratio_500_L_3_R_6.png","img/500/randomdotsizeEA/L/8_Ratio_500_L_8_R_4.png","img/750/equaldotanddens/L/9_Ratio_750_L_4_R_3.png","img/750/equaldotanddens/L/10_Ratio_750_L_4_R_3.png","img/750/randomdotsizeEA/L/9_Ratio_750_L_4_R_3.png","img/750/randomdotsizeEA/R/5_Ratio_750_L_15_R_20.png","img/900/equaldotsize/R/9_Ratio_900_L_18_R_20.png","img/250/equaldotsize/L/5_Ratio_250_L_24_R_6.png","img/750/equaldotsize/R/7_Ratio_750_L_3_R_4.png","img/250/equaldotsize/L/2_Ratio_250_L_16_R_4.png","img/900/randomdotsizeEA/R/5_Ratio_900_L_9_R_10.png","img/900/randomdotsizeEA/R/9_Ratio_900_L_18_R_20.png","img/750/equaldotsize/R/7_Ratio_750_L_3_R_4.png","img/250/randomdotsizeEA/L/3_Ratio_250_L_8_R_2.png","img/750/randomdotsizeEA/R/4_Ratio_750_L_15_R_20.png","img/900/randomdotsizeEA/L/10_Ratio_900_L_20_R_18.png","img/900/equaldotsize/L/8_Ratio_900_L_20_R_18.png","img/500/randomdotsizeEA/R/14_Ratio_500_L_5_R_10.png","img/500/equaldotsize/L/11_Ratio_500_L_12_R_6.png","img/900/equaldotanddens/R/13_Ratio_900_L_18_R_20.png","img/250/randomdotsizeEA/L/3_Ratio_250_L_8_R_2.png","img/900/equaldotsize/L/2_Ratio_900_L_20_R_18.png","img/250/equaldotsize/L/14_Ratio_250_L_12_R_3.png","img/750/randomdotsizeEA/L/1_Ratio_750_L_20_R_15.png","img/900/equaldotsize/R/13_Ratio_900_L_18_R_20.png","img/750/equaldotsize/R/11_Ratio_750_L_12_R_16.png","img/500/randomdotsizeEA/L/5_Ratio_500_L_4_R_2.png","img/250/equaldotsize/R/10_Ratio_250_L_4_R_16.png","img/500/randomdotsizeEA/L/8_Ratio_500_L_8_R_4.png","img/900/randomdotsizeEA/L/4_Ratio_900_L_20_R_18.png","img/250/equaldotsize/R/11_Ratio_250_L_3_R_12.png","img/250/randomdotsizeEA/L/5_Ratio_250_L_24_R_6.png","img/250/equaldotanddens/L/7_Ratio_250_L_8_R_2.png","img/250/equaldotsize/L/7_Ratio_250_L_8_R_2.png","img/250/randomdotsizeEA/R/4_Ratio_250_L_3_R_12.png","img/500/equaldotsize/L/13_Ratio_500_L_12_R_6.png","img/500/equaldotanddens/L/5_Ratio_500_L_4_R_2.png","img/250/equaldotsize/L/5_Ratio_250_L_24_R_6.png","img/900/equaldotsize/L/4_Ratio_900_L_20_R_18.png","img/750/equaldotanddens/L/14_Ratio_750_L_8_R_6.png","img/250/equaldotanddens/R/12_Ratio_250_L_5_R_20.png","img/900/equaldotsize/R/3_Ratio_900_L_9_R_10.png","img/500/randomdotsizeEA/R/3_Ratio_500_L_10_R_20.png","img/900/equaldotanddens/L/10_Ratio_900_L_20_R_18.png","img/750/randomdotsizeEA/L/13_Ratio_750_L_8_R_6.png","img/900/equaldotanddens/R/5_Ratio_900_L_9_R_10.png","img/750/randomdotsizeEA/R/3_Ratio_750_L_15_R_20.png","img/500/equaldotanddens/R/14_Ratio_500_L_5_R_10.png","img/900/randomdotsizeEA/R/5_Ratio_900_L_9_R_10.png","img/500/randomdotsizeEA/R/2_Ratio_500_L_3_R_6.png","img/250/randomdotsizeEA/R/4_Ratio_250_L_3_R_12.png","img/900/equaldotanddens/R/15_Ratio_900_L_9_R_10.png","img/750/equaldotsize/L/6_Ratio_750_L_24_R_18.png","img/500/equaldotanddens/R/12_Ratio_500_L_1_R_2.png","img/900/randomdotsizeEA/R/5_Ratio_900_L_9_R_10.png","img/250/randomdotsizeEA/L/7_Ratio_250_L_8_R_2.png","img/750/equaldotanddens/R/3_Ratio_750_L_15_R_20.png","img/500/equaldotanddens/R/2_Ratio_500_L_3_R_6.png","img/250/equaldotanddens/R/9_Ratio_250_L_3_R_12.png","img/250/equaldotanddens/L/3_Ratio_250_L_8_R_2.png","img/500/equaldotsize/L/11_Ratio_500_L_12_R_6.png","img/750/equaldotsize/R/4_Ratio_750_L_15_R_20.png","img/750/equaldotanddens/L/8_Ratio_750_L_4_R_3.png","img/750/equaldotanddens/L/9_Ratio_750_L_4_R_3.png","img/750/equaldotsize/L/14_Ratio_750_L_8_R_6.png","img/500/randomdotsizeEA/R/6_Ratio_500_L_9_R_18.png","img/250/equaldotanddens/L/1_Ratio_250_L_8_R_2.png","img/250/equaldotsize/R/13_Ratio_250_L_2_R_8.png","img/900/equaldotsize/L/10_Ratio_900_L_20_R_18.png","img/900/equaldotanddens/L/8_Ratio_900_L_20_R_18.png","img/250/equaldotanddens/R/12_Ratio_250_L_5_R_20.png"],"Rat0":[["12_Ratio_0_L_9_R_0.png","13_Ratio_0_L_6_R_0.png","5_Ratio_0_L_2_R_0.png","6_Ratio_0_L_4_R_0.png","8_Ratio_0_L_6_R_0.png"],["1_Ratio_0_L_0_R_17.png","10_Ratio_0_L_0_R_22.png","11_Ratio_0_L_0_R_1.png","14_Ratio_0_L_0_R_24.png","15_Ratio_0_L_0_R_4.png","2_Ratio_0_L_0_R_5.png","3_Ratio_0_L_0_R_17.png","4_Ratio_0_L_0_R_7.png","7_Ratio_0_L_0_R_19.png","9_Ratio_0_L_0_R_15.png"]],"Rat250":[["1_Ratio_250_L_8_R_2.png","14_Ratio_250_L_12_R_3.png","15_Ratio_250_L_12_R_3.png","2_Ratio_250_L_16_R_4.png","3_Ratio_250_L_8_R_2.png","5_Ratio_250_L_24_R_6.png","7_Ratio_250_L_8_R_2.png"],["10_Ratio_250_L_4_R_16.png","11_Ratio_250_L_3_R_12.png","12_Ratio_250_L_5_R_20.png","13_Ratio_250_L_2_R_8.png","4_Ratio_250_L_3_R_12.png","6_Ratio_250_L_6_R_24.png","8_Ratio_250_L_1_R_4.png","9_Ratio_250_L_3_R_12.png"]],"Rat500":[["10_Ratio_500_L_4_R_2.png","11_Ratio_500_L_12_R_6.png","13_Ratio_500_L_12_R_6.png","4_Ratio_500_L_18_R_9.png","5_Ratio_500_L_4_R_2.png","7_Ratio_500_L_10_R_5.png","8_Ratio_500_L_8_R_4.png"],["1_Ratio_500_L_9_R_18.png","12_Ratio_500_L_1_R_2.png","14_Ratio_500_L_5_R_10.png","15_Ratio_500_L_1_R_2.png","2_Ratio_500_L_3_R_6.png","3_Ratio_500_L_10_R_20.png","6_Ratio_500_L_9_R_18.png","9_Ratio_500_L_2_R_4.png"]],"Rat750":[["1_Ratio_750_L_20_R_15.png","10_Ratio_750_L_4_R_3.png","13_Ratio_750_L_8_R_6.png","14_Ratio_750_L_8_R_6.png","6_Ratio_750_L_24_R_18.png","8_Ratio_750_L_4_R_3.png","9_Ratio_750_L_4_R_3.png"],["11_Ratio_750_L_12_R_16.png","12_Ratio_750_L_3_R_4.png","15_Ratio_750_L_9_R_12.png","2_Ratio_750_L_6_R_8.png","3_Ratio_750_L_15_R_20.png","4_Ratio_750_L_15_R_20.png","5_Ratio_750_L_15_R_20.png","7_Ratio_750_L_3_R_4.png"]],"Rat900":[["1_Ratio_900_L_10_R_9.png","10_Ratio_900_L_20_R_18.png","2_Ratio_900_L_20_R_18.png","4_Ratio_900_L_20_R_18.png","8_Ratio_900_L_20_R_18.png"],["11_Ratio_900_L_18_R_20.png","12_Ratio_900_L_18_R_20.png","13_Ratio_900_L_18_R_20.png","14_Ratio_900_L_18_R_20.png","15_Ratio_900_L_9_R_10.png","3_Ratio_900_L_9_R_10.png","5_Ratio_900_L_9_R_10.png","6_Ratio_900_L_9_R_10.png","7_Ratio_900_L_9_R_10.png","9_Ratio_900_L_18_R_20.png"]],"Rat1000":[["10_Ratio_1000_L_16_R_16.png","11_Ratio_1000_L_6_R_6.png","12_Ratio_1000_L_14_R_14.png","13_Ratio_1000_L_20_R_20.png","15_Ratio_1000_L_15_R_15.png","2_Ratio_1000_L_17_R_17.png","4_Ratio_1000_L_9_R_9.png","5_Ratio_1000_L_6_R_6.png","6_Ratio_1000_L_19_R_19.png","8_Ratio_1000_L_14_R_14.png","9_Ratio_1000_L_25_R_25.png"],["1_Ratio_1000_L_1_R_1.png","14_Ratio_1000_L_17_R_17.png","3_Ratio_1000_L_17_R_17.png","7_Ratio_1000_L_6_R_6.png"]]}},{"start_time":1552327973818,"click_time":1552327974966,"finger_time":1552327974545,"fix_duration":490.0992043091531,"trial":1,"RT":727,"MT":421,"sideResp":1,"stimulus":"img/250/equaldotsize/L/7_Ratio_250_L_8_R_2.png","xmouse":[799,799,799,799,799,799,799,799,799,799,799,799,799,799,799,799,799,799,799,799,799,799,799,799,799,799,799,799,799,799,799,799,799,799,800,800,791,775,755,723,660,620,602,591,581,567,561,557,553,551,548,548,548,548,548,543,529,523],"ymouse":[634,634,634,634,634,634,634,634,634,634,634,634,634,634,634,634,634,634,634,634,634,634,634,635,635,635,635,635,635,635,635,635,635,635,633,604,571,517,449,364,211,125,89,69,53,23,0,0,0,0,0,0,0,0,0,3,22,30],"timestamp_mouse":[14,41,47,67,88,108,129,148,167,187,207,228,247,268,288,308,327,347,367,388,408,428,447,468,488,508,527,547,567,587,609,628,648,667,688,707,727,747,768,788,807,827,847,868,887,907,927,947,967,989,1007,1028,1048,1067,1087,1107,1127,1148],"xSR":741.5,"ySR":573.95,"xT1":424.9,"yT1":0,"xT2":1058.1,"yT2":0,"toosoon":0,"cond_shown":"equaldotsize","ratio_trial":250,"smaller_num":"2","larger_num":"8","correct_side":1,"subjID":"TalianaVigoya24","gender":"1","age":"9","school":"4"},{"start_time":1552327977426,"click_time":1552327978806,"finger_time":1552327978246,"fix_duration":1340.7722474435782,"trial":2,"RT":820,"MT":560,"sideResp":2,"stimulus":"img/900/equaldotanddens/R/5_Ratio_900_L_9_R_10.png","xmouse":[801,801,801,801,801,801,801,801,801,801,801,801,801,801,801,801,801,801,801,801,801,801,801,801,801,801,801,801,801,801,801,801,801,801,801,801,801,801,802,826,869,916,970,1021,1075,1085,1091,1096,1102,1128,1139,1150,1157,1162,1163,1163,1163,1163,1163,1163,1163,1163,1162,1160,1158,1155,1153,1152,1148],"ymouse":[633,633,633,633,633,633,633,633,633,633,633,633,633,633,633,633,633,633,633,633,633,633,633,633,633,633,633,633,633,633,633,633,633,633,633,633,633,631,623,584,524,473,413,359,297,281,272,263,253,213,192,171,152,140,137,137,137,137,137,137,136,129,123,119,116,110,105,100,94],"timestamp_mouse":[19,39,59,79,99,120,139,159,179,199,219,239,259,279,299,319,339,360,380,399,419,439,460,480,500,519,540,559,580,600,620,639,659,679,699,719,739,759,779,799,820,840,859,879,900,919,940,960,980,1000,1019,1040,1059,1080,1100,1119,1140,1159,1179,1199,1220,1239,1260,1279,1299,1319,1340,1360,1379],"xSR":741.5,"ySR":573.95,"xT1":424.9,"yT1":0,"xT2":1058.1,"yT2":0,"toosoon":0,"cond_shown":"equaldotanddens","ratio_trial":900,"smaller_num":"9","larger_num":"10","correct_side":2,"subjID":"TalianaVigoya24","gender":"1","age":"9","school":"4"},{"start_time":1552327979917,"click_time":1552327981345,"finger_time":1552327980646,"fix_duration":250,"trial":3,"RT":729,"MT":699,"sideResp":1,"stimulus":"img/250/randomdotsizeEA/R/4_Ratio_250_L_3_R_12.png","xmouse":[830,830,830,830,830,830,830,830,830,830,830,830,830,830,830,830,830,830,830,830,830,830,830,830,830,830,830,830,830,830,830,830,830,830,830,827,797,774,760,752,747,732,723,714,693,679,656,648,642,635,624,597,586,574,563,558,558,558,554,553,548,540,536,530,526,526,526,526,526,526,526,521],"ymouse":[620,620,620,620,620,620,620,620,620,620,620,620,620,620,620,620,620,620,620,620,620,620,620,620,620,620,620,620,620,620,620,620,620,620,619,610,543,496,472,453,435,396,375,347,295,258,199,180,168,156,142,122,115,108,103,101,101,101,100,99,97,94,92,91,89,89,89,89,89,89,89,88],"timestamp_mouse":[12,43,49,69,89,108,128,149,168,188,209,229,248,269,289,310,329,349,369,388,409,429,450,468,488,508,528,549,568,588,609,628,648,668,689,708,729,748,768,788,810,828,849,869,889,908,928,949,969,989,1008,1028,1050,1069,1088,1108,1128,1148,1169,1188,1209,1228,1248,1268,1289,1309,1328,1348,1368,1388,1408,1428],"xSR":741.5,"ySR":573.95,"xT1":424.9,"yT1":0,"xT2":1058.1,"yT2":0,"toosoon":0,"cond_shown":"randomdotsizeEA","ratio_trial":250,"smaller_num":"3","larger_num":"12","correct_side":2,"subjID":"TalianaVigoya24","gender":"1","age":"9","school":"4"},{"start_time":1552327983504,"click_time":1552327984765,"finger_time":1552327984345,"fix_duration":1135.3853672970083,"trial":4,"RT":841,"MT":420,"sideResp":2,"stimulus":"img/900/equaldotsize/L/2_Ratio_900_L_20_R_18.png","xmouse":[767,767,767,767,767,767,767,767,767,767,767,767,767,767,767,767,767,767,767,767,767,767,767,767,767,767,767,767,767,767,767,767,767,767,767,767,767,767,767,772,784,825,962,1009,1043,1064,1084,1111,1121,1130,1138,1143,1150,1152,1152,1153,1154,1154,1154,1154,1154,1154,1154,1154],"ymouse":[622,622,622,622,622,622,622,622,622,622,622,622,622,622,622,622,622,622,622,622,622,622,622,622,622,622,622,622,622,622,622,622,622,622,622,622,622,622,622,622,616,599,525,495,468,442,410,351,327,304,282,264,235,223,220,216,212,195,185,171,155,135,119,85],"timestamp_mouse":[10,22,42,62,82,101,122,141,162,182,202,222,242,261,282,301,321,341,362,382,402,423,442,461,481,501,521,541,561,582,602,622,642,663,682,702,722,741,761,782,801,822,841,861,881,902,921,941,961,982,1001,1021,1041,1061,1081,1101,1121,1142,1161,1181,1201,1221,1241,1261],"xSR":741.5,"ySR":573.95,"xT1":424.9,"yT1":0,"xT2":1058.1,"yT2":0,"toosoon":0,"cond_shown":"equaldotsize","ratio_trial":900,"smaller_num":"18","larger_num":"20","correct_side":1,"subjID":"TalianaVigoya24","gender":"1","age":"9","school":"4"},{"start_time":1552327986773,"click_time":1552327987966,"finger_time":1552327987685,"fix_duration":1085.667810004184,"trial":5,"RT":912,"MT":281,"sideResp":1,"stimulus":"img/750/randomdotsizeEA/L/9_Ratio_750_L_4_R_3.png","xmouse":[783,783,783,783,783,783,783,783,783,783,783,783,783,783,783,783,783,783,783,783,783,783,783,783,783,783,783,783,783,783,783,783,783,783,783,783,783,783,783,783,783,783,783,781,777,766,743,714,682,667,667,667,667,649,625,593,563,538,524,518],"ymouse":[640,639,638,637,637,637,637,637,637,637,637,637,637,637,637,637,637,637,637,637,637,637,637,637,637,637,637,637,637,637,637,637,637,637,637,637,637,637,637,637,637,637,637,625,599,538,447,349,255,226,225,225,225,209,187,159,134,116,106,99],"timestamp_mouse":[12,32,54,72,93,112,133,153,172,193,212,232,254,274,293,312,333,353,373,394,413,433,453,472,493,513,533,553,573,593,613,633,652,673,694,713,733,753,773,793,814,834,852,873,892,912,932,953,972,993,1013,1032,1052,1073,1092,1113,1132,1152,1172,1193],"xSR":741.5,"ySR":573.95,"xT1":424.9,"yT1":0,"xT2":1058.1,"yT2":0,"toosoon":0,"cond_shown":"randomdotsizeEA","ratio_trial":750,"smaller_num":"3","larger_num":"4","correct_side":1,"subjID":"TalianaVigoya24","gender":"1","age":"9","school":"4"},{"start_time":1552327989658,"click_time":1552327990567,"finger_time":1552327990246,"fix_duration":391.6667511188119,"trial":6,"RT":588,"MT":321,"sideResp":1,"stimulus":"img/900/equaldotsize/R/9_Ratio_900_L_18_R_20.png","xmouse":[783,783,783,783,783,783,783,783,783,783,783,783,783,783,783,783,783,783,783,783,783,783,783,783,783,783,783,785,789,798,807,808,808,807,803,790,779,759,728,694,634,613,582,572,537,502],"ymouse":[586,586,586,586,586,586,586,586,586,586,586,586,586,586,586,586,586,586,586,586,586,586,586,586,586,586,586,585,579,559,517,490,484,460,443,400,360,312,252,205,139,121,98,93,74,52],"timestamp_mouse":[13,36,47,67,87,107,127,148,167,187,208,229,247,268,287,307,327,347,368,389,408,427,448,468,487,507,528,547,567,588,607,628,647,667,688,707,727,748,768,787,807,828,847,867,888,908],"xSR":741.5,"ySR":573.95,"xT1":424.9,"yT1":0,"xT2":1058.1,"yT2":0,"toosoon":0,"cond_shown":"equaldotsize","ratio_trial":900,"smaller_num":"18","larger_num":"20","correct_side":2,"subjID":"TalianaVigoya24","gender":"1","age":"9","school":"4"},{"start_time":1552327992957,"click_time":1552327994106,"finger_time":1552327993785,"fix_duration":1308.1181902561632,"trial":7,"RT":828,"MT":321,"sideResp":2,"stimulus":"img/900/equaldotsize/R/7_Ratio_900_L_9_R_10.png","xmouse":[763,763,763,763,763,763,763,763,763,763,763,763,763,763,763,763,763,763,763,763,763,763,763,763,763,763,763,763,763,763,763,763,763,763,763,763,763,763,768,789,818,871,896,915,934,956,960,965,972,978,996,1005,1015,1026,1036,1053,1064,1072],"ymouse":[619,619,619,619,619,619,619,619,619,619,619,619,619,619,619,619,619,619,619,619,619,619,619,619,619,619,619,619,619,619,619,619,619,619,619,619,619,619,618,604,579,515,470,436,402,364,356,343,324,301,257,236,213,189,167,131,107,92],"timestamp_mouse":[9,39,48,68,89,109,128,149,169,188,209,229,249,269,289,308,329,348,369,388,409,429,448,468,489,509,528,550,570,588,608,628,648,669,689,709,728,749,769,788,808,828,848,868,889,909,928,949,968,989,1009,1028,1049,1068,1089,1109,1128,1149],"xSR":741.5,"ySR":573.95,"xT1":424.9,"yT1":0,"xT2":1058.1,"yT2":0,"toosoon":0,"cond_shown":"equaldotsize","ratio_trial":900,"smaller_num":"9","larger_num":"10","correct_side":2,"subjID":"TalianaVigoya24","gender":"1","age":"9","school":"4"},{"start_time":1552327995279,"click_time":1552327996245,"finger_time":1552327995926,"fix_duration":250,"trial":8,"RT":647,"MT":319,"sideResp":1,"stimulus":"img/500/equaldotanddens/L/7_Ratio_500_L_10_R_5.png","xmouse":[799,799,799,799,799,799,799,799,799,799,799,799,799,799,799,799,799,799,799,799,799,799,799,799,799,799,799,799,799,799,799,792,779,752,681,653,631,622,617,602,598,596,591,586,578,559,545,528,509],"ymouse":[600,600,600,600,600,600,600,600,600,600,600,600,600,600,600,600,600,600,600,600,600,600,600,600,600,600,600,600,600,600,600,574,530,473,362,316,290,277,267,239,228,221,210,199,187,157,141,121,99],"timestamp_mouse":[12,31,47,67,86,106,126,146,167,186,207,226,246,267,288,306,327,346,366,386,406,428,447,467,486,508,527,547,567,586,608,626,647,667,687,706,728,746,766,787,806,827,846,867,886,906,926,946,966],"xSR":741.5,"ySR":573.95,"xT1":424.9,"yT1":0,"xT2":1058.1,"yT2":0,"toosoon":0,"cond_shown":"equaldotanddens","ratio_trial":500,"smaller_num":"5","larger_num":"10","correct_side":1,"subjID":"TalianaVigoya24","gender":"1","age":"9","school":"4"},{"start_time":1552327999327,"click_time":1552328000005,"finger_time":1552327999785,"fix_duration":880.1771014629791,"trial":9,"RT":458,"MT":220,"sideResp":1,"stimulus":"img/250/equaldotanddens/L/5_Ratio_250_L_24_R_6.png","xmouse":[786,786,786,786,786,786,786,786,786,786,786,786,786,786,786,786,786,786,786,786,784,781,749,710,698,645,605,545,535,531,530,528,524,517],"ymouse":[626,626,626,626,626,626,626,626,626,626,626,626,626,626,626,626,626,626,626,626,623,614,534,441,408,303,234,151,136,129,127,122,111,99],"timestamp_mouse":[21,39,59,78,99,118,138,158,178,198,219,239,259,279,299,318,338,358,378,399,418,438,458,480,499,519,539,558,578,599,618,639,658,678],"xSR":741.5,"ySR":573.95,"xT1":424.9,"yT1":0,"xT2":1058.1,"yT2":0,"toosoon":0,"cond_shown":"equaldotanddens","ratio_trial":250,"smaller_num":"6","larger_num":"24","correct_side":1,"subjID":"TalianaVigoya24","gender":"1","age":"9","school":"4"},{"start_time":1552328002090,"click_time":1552328003586,"finger_time":1552328002505,"fix_duration":802.4111750222395,"trial":10,"RT":415,"MT":1081,"sideResp":2,"stimulus":"img/500/equaldotsize/R/1_Ratio_500_L_9_R_18.png","xmouse":[762,762,762,762,762,762,762,762,762,762,762,762,762,762,762,762,762,762,762,746,730,718,709,704,692,685,682,677,672,656,643,631,620,614,610,609,609,609,609,641,720,828,955,1073,1141,1189,1196,1199,1202,1203,1205,1205,1205,1205,1199,1195,1189,1184,1178,1161,1153,1148,1144,1143,1143,1142,1142,1142,1142,1139,1136,1133,1130,1127,1122],"ymouse":[628,628,628,628,628,628,628,628,628,628,628,628,628,628,628,628,628,628,621,587,558,537,520,505,482,463,453,439,423,381,351,324,303,288,278,278,278,278,278,284,306,336,354,364,364,334,321,312,303,298,288,282,276,270,247,238,229,219,209,183,168,155,143,138,135,133,132,131,130,124,120,114,108,103,96],"timestamp_mouse":[16,42,56,76,96,115,135,156,176,196,215,237,255,276,295,316,335,356,375,397,415,435,455,476,495,515,536,556,576,595,615,636,655,675,695,715,736,755,775,796,815,836,855,876,896,916,936,957,976,995,1015,1036,1055,1075,1096,1115,1136,1156,1176,1195,1215,1235,1255,1276,1296,1315,1337,1355,1375,1396,1415,1436,1455,1476,1496],"xSR":741.5,"ySR":573.95,"xT1":424.9,"yT1":0,"xT2":1058.1,"yT2":0,"toosoon":0,"cond_shown":"equaldotsize","ratio_trial":500,"smaller_num":"9","larger_num":"18","correct_side":2,"subjID":"TalianaVigoya24","gender":"1","age":"9","school":"4"},{"start_time":1552328005599,"click_time":1552328006825,"finger_time":1552328006345,"fix_duration":950.8228426579677,"trial":11,"RT":746,"MT":480,"sideResp":1,"stimulus":"img/900/randomdotsizeEA/L/1_Ratio_900_L_10_R_9.png","xmouse":[799,799,799,798,798,798,798,798,798,798,798,798,798,798,798,798,798,798,798,798,798,798,798,798,798,798,798,798,798,798,798,798,798,798,797,790,777,747,731,674,611,585,569,559,550,533,526,522,516,508,497,492,488,485,476,473,471,469,467,462,458,457],"ymouse":[619,619,619,619,619,619,619,619,619,619,619,619,619,619,619,619,619,619,619,619,619,619,619,619,619,619,619,619,619,619,619,619,619,619,619,604,580,531,507,423,325,291,273,260,251,233,227,222,213,198,174,162,153,146,135,131,128,125,120,111,101,97],"timestamp_mouse":[14,36,47,66,86,107,126,146,166,187,206,227,246,268,286,307,327,347,367,386,406,427,446,467,487,506,526,546,566,586,606,626,647,667,686,706,727,746,766,786,806,826,846,867,886,906,927,947,966,986,1006,1026,1047,1066,1088,1106,1127,1146,1166,1186,1206,1226],"xSR":741.5,"ySR":573.95,"xT1":424.9,"yT1":0,"xT2":1058.1,"yT2":0,"toosoon":0,"cond_shown":"randomdotsizeEA","ratio_trial":900,"smaller_num":"9","larger_num":"10","correct_side":1,"subjID":"TalianaVigoya24","gender":"1","age":"9","school":"4"},{"start_time":1552328009130,"click_time":1552328010386,"finger_time":1552328009726,"fix_duration":1282.2228561057077,"trial":12,"RT":596,"MT":660,"sideResp":1,"stimulus":"img/750/equaldotsize/L/14_Ratio_750_L_8_R_6.png","xmouse":[777,777,777,777,777,777,777,777,777,777,777,777,777,777,777,777,777,777,777,777,777,777,777,777,777,777,777,776,766,749,736,714,696,679,679,679,679,677,671,669,667,660,648,587,555,533,524,521,518,511,509,506,506,506,506,506,506,506,506,506,506,504,499],"ymouse":[614,614,614,614,614,614,614,614,614,614,614,614,614,614,614,614,614,614,614,614,614,614,614,614,614,614,614,612,582,528,474,413,356,279,259,240,225,212,197,189,185,177,167,134,121,111,108,106,105,101,101,100,100,100,100,100,100,100,100,100,100,100,99],"timestamp_mouse":[15,38,55,77,95,117,135,156,175,195,216,237,256,276,295,315,335,355,376,396,415,435,456,475,495,516,536,555,575,596,615,635,655,675,695,715,736,755,775,795,815,836,855,875,895,916,935,955,975,996,1015,1037,1056,1075,1096,1115,1135,1155,1175,1197,1215,1235,1256],"xSR":741.5,"ySR":573.95,"xT1":424.9,"yT1":0,"xT2":1058.1,"yT2":0,"toosoon":0,"cond_shown":"equaldotsize","ratio_trial":750,"smaller_num":"6","larger_num":"8","correct_side":1,"subjID":"TalianaVigoya24","gender":"1","age":"9","school":"4"},{"start_time":1552328012061,"click_time":1552328013126,"finger_time":1552328012805,"fix_duration":933.326644721097,"trial":13,"RT":744,"MT":321,"sideResp":1,"stimulus":"img/900/equaldotanddens/R/9_Ratio_900_L_18_R_20.png","xmouse":[810,810,810,810,810,810,810,810,810,810,810,810,810,810,810,810,810,810,810,810,810,810,810,810,810,810,810,810,810,810,810,810,810,810,810,808,802,775,752,734,718,706,683,674,663,649,634,600,578,559,538,522,500,481],"ymouse":[608,608,608,608,608,608,608,608,608,608,608,608,608,608,608,608,608,608,608,608,608,608,608,608,608,608,608,608,608,608,608,608,608,608,608,602,580,502,458,429,406,392,373,366,354,338,317,257,220,192,159,133,100,71],"timestamp_mouse":[12,25,60,63,84,104,123,144,164,185,204,223,245,264,283,303,323,343,365,385,405,424,444,463,484,504,525,544,563,585,604,624,644,665,683,704,724,744,763,783,804,823,844,864,885,904,924,945,964,984,1004,1024,1044,1065],"xSR":741.5,"ySR":573.95,"xT1":424.9,"yT1":0,"xT2":1058.1,"yT2":0,"toosoon":0,"cond_shown":"equaldotanddens","ratio_trial":900,"smaller_num":"18","larger_num":"20","correct_side":2,"subjID":"TalianaVigoya24","gender":"1","age":"9","school":"4"},{"start_time":1552328014876,"click_time":1552328016646,"finger_time":1552328015424,"fix_duration":828.1064243860212,"trial":14,"RT":548,"MT":1222,"sideResp":1,"stimulus":"img/750/equaldotsize/R/3_Ratio_750_L_15_R_20.png","xmouse":[763,763,763,763,763,763,763,763,763,763,763,763,763,763,763,763,763,763,763,763,764,769,782,788,794,800,809,838,858,878,900,939,991,1011,1030,1043,1052,1056,1057,1057,1058,1060,1063,1063,1063,1063,1063,1063,1063,1063,1060,1055,1039,1023,1003,978,945,874,845,813,805,781,740,725,712,707,704,698,691,680,664,637,590,570,551,542,538,537,537,537,537,537,537,537,537,537,536,529,520],"ymouse":[624,624,624,624,624,624,624,624,624,624,624,624,624,624,624,624,624,624,624,624,622,618,610,605,599,593,582,550,528,504,476,430,353,325,297,279,265,257,255,254,250,244,234,230,225,222,220,219,219,219,218,218,218,218,218,214,208,194,185,177,175,167,157,152,150,148,147,145,144,140,136,128,112,103,97,95,93,93,93,93,93,93,93,93,93,93,93,92,90],"timestamp_mouse":[10,38,49,69,90,109,130,149,169,190,210,229,249,268,289,309,330,349,369,390,409,430,450,468,488,509,529,548,568,589,609,630,650,669,689,710,729,748,770,789,809,829,848,869,889,908,929,949,969,989,1010,1030,1049,1069,1088,1108,1128,1148,1169,1188,1209,1229,1248,1269,1289,1309,1330,1348,1368,1389,1410,1429,1450,1469,1490,1509,1529,1549,1569,1589,1610,1629,1648,1668,1688,1710,1730,1748,1770],"xSR":741.5,"ySR":573.95,"xT1":424.9,"yT1":0,"xT2":1058.1,"yT2":0,"toosoon":0,"cond_shown":"equaldotsize","ratio_trial":750,"smaller_num":"15","larger_num":"20","correct_side":2,"subjID":"TalianaVigoya24","gender":"1","age":"9","school":"4"},{"start_time":1552328018807,"click_time":1552328020145,"finger_time":1552328019645,"fix_duration":1041.2899802927548,"trial":15,"RT":838,"MT":500,"sideResp":2,"stimulus":"img/500/equaldotsize/R/15_Ratio_500_L_1_R_2.png","xmouse":[781,781,781,781,781,781,781,781,781,781,781,781,781,781,781,781,781,781,781,781,781,781,781,781,781,781,781,781,781,781,781,781,781,781,781,781,781,782,785,792,804,866,969,1062,1146,1222,1227,1227,1227,1227,1226,1226,1229,1234,1238,1236,1230,1223,1218,1209,1199,1196,1191,1187,1181,1163,1155],"ymouse":[627,627,627,627,627,627,627,627,627,627,627,627,627,627,627,627,627,627,627,627,627,627,627,627,627,627,627,627,627,627,627,627,627,627,627,627,627,627,626,625,621,595,538,465,389,293,277,271,266,261,238,206,175,136,93,41,26,16,12,11,9,9,9,9,9,9,12],"timestamp_mouse":[19,46,57,78,98,119,138,157,177,197,219,238,258,277,299,318,339,357,379,398,418,438,458,478,498,518,538,559,578,599,618,639,658,678,698,719,738,758,778,798,818,838,858,877,897,918,937,958,978,998,1017,1037,1058,1079,1098,1117,1137,1158,1178,1199,1217,1237,1258,1279,1297,1318,1338],"xSR":741.5,"ySR":573.95,"xT1":424.9,"yT1":0,"xT2":1058.1,"yT2":0,"toosoon":0,"cond_shown":"equaldotsize","ratio_trial":500,"smaller_num":"1","larger_num":"2","correct_side":2,"subjID":"TalianaVigoya24","gender":"1","age":"9","school":"4"},{"start_time":1552328025012,"click_time":1552328026465,"finger_time":1552328025865,"fix_duration":1365.8050726715253,"trial":16,"RT":853,"MT":600,"sideResp":2,"stimulus":"img/500/equaldotanddens/R/15_Ratio_500_L_1_R_2.png","xmouse":[800,800,800,800,800,800,800,800,800,800,800,800,800,800,800,800,800,800,800,800,800,800,800,800,800,800,800,800,800,800,800,800,800,800,800,800,800,800,800,800,800,831,864,904,947,979,1022,1035,1051,1060,1069,1086,1092,1094,1096,1096,1096,1096,1095,1094,1092,1088,1085,1083,1083,1082,1081,1081,1081,1081,1081,1081,1081],"ymouse":[626,626,626,626,626,626,626,624,624,624,624,624,624,624,624,624,624,624,624,624,624,624,624,624,624,624,624,624,624,624,624,624,624,624,624,624,624,624,624,624,624,602,579,547,508,482,425,405,377,360,340,295,275,258,246,239,229,224,214,204,193,164,153,144,141,139,134,130,125,117,111,101,96],"timestamp_mouse":[13,34,53,73,93,112,132,154,173,192,212,233,253,272,294,313,332,353,374,392,413,433,454,473,492,514,533,552,573,594,614,633,653,674,692,713,734,753,773,793,813,833,853,874,893,913,932,954,973,993,1013,1032,1052,1073,1093,1113,1132,1154,1173,1192,1212,1233,1253,1273,1293,1312,1333,1352,1374,1393,1413,1432,1452],"xSR":741.5,"ySR":573.95,"xT1":424.9,"yT1":0,"xT2":1058.1,"yT2":0,"toosoon":0,"cond_shown":"equaldotanddens","ratio_trial":500,"smaller_num":"1","larger_num":"2","correct_side":2,"subjID":"TalianaVigoya24","gender":"1","age":"9","school":"4"},{"start_time":1552328027717,"click_time":1552328029405,"finger_time":1552328028425,"fix_duration":250,"trial":17,"RT":708,"MT":980,"sideResp":2,"stimulus":"img/500/randomdotsizeEA/R/3_Ratio_500_L_10_R_20.png","xmouse":[803,803,803,803,803,803,803,803,803,803,804,804,804,804,804,804,804,804,804,804,805,806,806,806,806,806,806,806,806,806,806,806,806,805,799,788,775,734,705,675,645,617,616,616,616,616,616,616,617,618,620,625,635,662,690,730,869,942,1023,1093,1129,1150,1175,1182,1189,1194,1202,1202,1203,1203,1203,1203,1203,1203,1201,1197,1180,1174,1173,1172,1172,1172,1163,1161,1158],"ymouse":[605,605,605,606,606,606,607,607,607,607,608,608,609,609,609,609,609,609,609,609,609,610,610,610,610,610,610,610,610,610,610,610,608,600,586,568,544,469,412,347,291,220,214,214,214,214,211,210,207,205,202,199,197,193,191,190,171,160,150,132,121,114,97,92,85,79,66,63,63,63,63,63,63,63,62,61,59,58,58,58,58,58,58,58,58],"timestamp_mouse":[13,44,48,67,89,108,127,149,167,188,208,228,248,268,287,309,328,347,368,389,408,428,448,469,488,508,529,547,567,588,609,627,648,667,687,708,727,747,768,788,808,828,847,868,888,907,928,947,967,988,1008,1028,1048,1068,1088,1108,1127,1147,1168,1188,1208,1228,1249,1269,1288,1308,1328,1348,1367,1388,1408,1428,1447,1467,1489,1509,1528,1547,1568,1588,1608,1628,1648,1668,1687],"xSR":741.5,"ySR":573.95,"xT1":424.9,"yT1":0,"xT2":1058.1,"yT2":0,"toosoon":0,"cond_shown":"randomdotsizeEA","ratio_trial":500,"smaller_num":"10","larger_num":"20","correct_side":2,"subjID":"TalianaVigoya24","gender":"1","age":"9","school":"4"},{"start_time":1552328031463,"click_time":1552328033125,"finger_time":1552328032486,"fix_duration":715.9710879886204,"trial":18,"RT":1023,"MT":639,"sideResp":2,"stimulus":"img/750/randomdotsizeEA/R/11_Ratio_750_L_12_R_16.png","xmouse":[809,809,809,809,809,809,809,809,809,809,809,809,809,809,809,809,809,809,809,809,809,809,809,809,809,808,808,808,808,808,808,808,808,808,808,808,808,808,808,808,808,808,808,808,808,808,808,808,808,813,823,833,842,858,869,890,907,922,934,948,968,972,975,979,982,993,999,1005,1011,1018,1028,1034,1037,1046,1049,1052,1052,1052,1052,1052,1052,1053,1056,1063],"ymouse":[626,626,626,626,626,626,626,626,626,626,626,626,626,626,626,626,626,626,626,626,626,626,626,626,626,625,625,625,625,625,625,625,625,625,622,611,606,603,598,596,593,593,593,593,593,593,593,593,593,586,574,563,550,523,502,451,414,377,338,291,221,195,171,139,117,72,58,47,40,32,25,21,21,18,18,16,16,16,16,16,16,16,16,16],"timestamp_mouse":[10,35,43,63,83,101,122,142,162,181,203,223,243,262,282,301,323,343,361,383,403,422,443,462,481,501,522,543,563,581,603,622,641,663,681,702,721,741,761,782,803,823,842,862,882,902,923,941,961,982,1001,1023,1042,1062,1082,1103,1122,1142,1162,1182,1201,1222,1242,1261,1282,1302,1322,1343,1363,1381,1401,1423,1442,1463,1482,1503,1522,1542,1563,1582,1601,1621,1641,1662],"xSR":741.5,"ySR":573.95,"xT1":424.9,"yT1":0,"xT2":1058.1,"yT2":0,"toosoon":0,"cond_shown":"randomdotsizeEA","ratio_trial":750,"smaller_num":"12","larger_num":"16","correct_side":2,"subjID":"TalianaVigoya24","gender":"1","age":"9","school":"4"},{"start_time":1552328034516,"click_time":1552328035506,"finger_time":1552328035164,"fix_duration":250,"trial":19,"RT":648,"MT":342,"sideResp":1,"stimulus":"img/250/equaldotsize/L/14_Ratio_250_L_12_R_3.png","xmouse":[792,792,792,792,792,792,792,792,792,792,792,792,792,792,792,792,792,792,792,792,792,792,792,792,792,792,792,792,792,792,791,784,753,733,709,683,663,635,625,612,602,593,576,569,562,550,543,530,527,524],"ymouse":[628,628,628,628,628,628,628,628,628,628,628,628,628,628,628,628,628,628,628,628,628,628,628,628,628,628,628,628,628,628,626,599,480,407,331,266,220,149,125,96,79,66,44,39,34,30,26,24,24,24],"timestamp_mouse":[12,36,49,68,90,110,129,148,170,190,210,228,249,270,288,308,329,348,368,388,409,429,449,470,489,509,528,549,570,589,609,629,648,669,688,709,729,748,769,789,809,829,849,868,889,909,930,948,968,990],"xSR":741.5,"ySR":573.95,"xT1":424.9,"yT1":0,"xT2":1058.1,"yT2":0,"toosoon":0,"cond_shown":"equaldotsize","ratio_trial":250,"smaller_num":"3","larger_num":"12","correct_side":1,"subjID":"TalianaVigoya24","gender":"1","age":"9","school":"4"},{"start_time":1552328036756,"click_time":1552328037946,"finger_time":1552328037524,"fix_duration":250,"trial":20,"RT":768,"MT":422,"sideResp":2,"stimulus":"img/900/randomdotsizeEA/L/10_Ratio_900_L_20_R_18.png","xmouse":[783,783,783,783,783,783,783,783,783,783,783,783,783,783,783,783,783,783,783,783,783,783,783,783,783,783,783,783,783,783,783,783,783,783,783,790,812,828,840,853,875,885,897,910,922,936,969,980,994,1005,1035,1047,1059,1065,1071,1073,1073,1075,1077,1078],"ymouse":[614,614,614,614,614,614,614,614,614,614,614,614,614,614,614,614,614,614,614,614,614,614,614,614,614,614,614,614,614,614,614,614,614,614,614,614,598,585,572,559,523,505,489,473,455,435,370,348,323,304,246,216,189,167,150,132,125,117,108,99],"timestamp_mouse":[12,39,48,70,89,109,128,150,170,189,210,229,250,270,289,310,330,348,369,389,410,430,448,470,488,508,530,550,569,588,608,629,649,670,689,709,728,748,768,788,809,828,849,869,888,908,929,949,969,989,1009,1029,1049,1069,1089,1110,1129,1149,1169,1189],"xSR":741.5,"ySR":573.95,"xT1":424.9,"yT1":0,"xT2":1058.1,"yT2":0,"toosoon":0,"cond_shown":"randomdotsizeEA","ratio_trial":900,"smaller_num":"18","larger_num":"20","correct_side":1,"subjID":"TalianaVigoya24","gender":"1","age":"9","school":"4"},{"start_time":1552328040077,"click_time":1552328041285,"finger_time":1552328040825,"fix_duration":770.7965595397441,"trial":21,"RT":748,"MT":460,"sideResp":1,"stimulus":"img/500/equaldotanddens/L/4_Ratio_500_L_18_R_9.png","xmouse":[752,752,752,752,752,752,752,752,752,752,752,752,752,752,752,752,752,752,752,752,752,752,752,752,752,752,752,752,752,752,752,752,752,752,752,752,753,749,734,706,677,667,658,645,616,600,584,571,558,553,545,539,534,526,521,517,514,513,510,508,503],"ymouse":[633,633,633,633,633,633,633,633,633,633,633,633,633,633,633,633,633,633,633,633,633,633,633,633,633,633,633,633,633,633,633,633,633,633,633,633,613,571,529,468,409,387,366,346,296,272,247,227,203,191,173,164,153,143,135,123,118,114,106,101,91],"timestamp_mouse":[9,27,47,68,89,107,128,149,168,189,208,228,248,268,287,308,329,348,369,389,408,429,449,468,487,509,529,548,569,588,607,628,647,667,688,707,728,748,768,788,807,827,847,868,889,908,928,948,968,988,1008,1028,1047,1068,1088,1107,1127,1148,1168,1187,1208],"xSR":741.5,"ySR":573.95,"xT1":424.9,"yT1":0,"xT2":1058.1,"yT2":0,"toosoon":0,"cond_shown":"equaldotanddens","ratio_trial":500,"smaller_num":"9","larger_num":"18","correct_side":1,"subjID":"TalianaVigoya24","gender":"1","age":"9","school":"4"},{"start_time":1552328042497,"click_time":1552328043505,"finger_time":1552328043185,"fix_duration":250,"trial":22,"RT":688,"MT":320,"sideResp":2,"stimulus":"img/900/equaldotanddens/L/2_Ratio_900_L_20_R_18.png","xmouse":[772,772,772,772,772,772,772,772,772,772,772,772,772,772,772,772,772,772,772,772,772,772,772,772,772,773,773,773,773,774,783,796,810,829,896,931,976,1002,1024,1054,1066,1081,1091,1103,1119,1122,1124,1125,1126,1129,1129],"ymouse":[629,629,629,629,629,629,629,629,629,629,629,629,629,629,629,629,629,629,629,629,629,629,629,629,629,629,629,629,629,629,626,617,605,588,531,493,432,394,363,316,290,262,237,210,173,160,147,140,132,108,94],"timestamp_mouse":[12,33,48,68,88,108,129,148,168,187,208,227,248,268,288,308,327,347,369,388,407,428,449,467,489,508,528,548,569,588,607,629,647,669,688,708,727,747,768,788,807,827,848,868,887,908,928,949,968,987,1008],"xSR":741.5,"ySR":573.95,"xT1":424.9,"yT1":0,"xT2":1058.1,"yT2":0,"toosoon":0,"cond_shown":"equaldotanddens","ratio_trial":900,"smaller_num":"18","larger_num":"20","correct_side":1,"subjID":"TalianaVigoya24","gender":"1","age":"9","school":"4"},{"start_time":1552328045482,"click_time":1552328046805,"finger_time":1552328046104,"fix_duration":816.003625033619,"trial":23,"RT":622,"MT":701,"sideResp":1,"stimulus":"img/750/equaldotsize/R/15_Ratio_750_L_9_R_12.png","xmouse":[771,773,773,773,773,773,773,773,773,774,774,774,774,774,774,774,774,774,774,774,774,774,774,774,774,774,774,774,774,771,769,749,740,736,735,734,734,734,734,734,734,734,734,730,717,641,596,558,542,540,540,540,540,540,539,537,534,531,530,530,529,529,529,528,528,512,487],"ymouse":[610,617,617,617,617,617,617,617,617,618,618,618,618,618,618,618,618,618,618,618,618,618,618,618,618,618,618,618,618,606,596,548,529,518,515,513,513,513,513,513,504,485,460,430,391,252,198,155,141,139,139,139,139,139,139,138,135,133,131,131,131,131,131,130,130,114,92],"timestamp_mouse":[3,23,52,63,83,103,123,143,164,183,204,224,243,262,283,303,324,343,363,383,402,423,443,464,483,502,523,543,562,582,602,622,643,662,684,703,724,744,764,783,802,823,843,863,884,903,922,943,964,983,1004,1023,1044,1062,1084,1103,1123,1143,1164,1183,1204,1223,1243,1262,1283,1302,1322],"xSR":741.5,"ySR":573.95,"xT1":424.9,"yT1":0,"xT2":1058.1,"yT2":0,"toosoon":0,"cond_shown":"equaldotsize","ratio_trial":750,"smaller_num":"9","larger_num":"12","correct_side":2,"subjID":"TalianaVigoya24","gender":"1","age":"9","school":"4"},{"start_time":1552328051041,"click_time":1552328052405,"finger_time":1552328051765,"fix_duration":1454.7131507677097,"trial":24,"RT":724,"MT":640,"sideResp":2,"stimulus":"img/750/randomdotsizeEA/R/12_Ratio_750_L_3_R_4.png","xmouse":[787,787,787,787,787,787,787,787,787,787,787,787,787,787,787,787,787,787,787,787,787,787,787,787,787,787,787,787,787,787,787,787,787,795,808,837,857,877,904,913,918,923,925,930,937,939,944,947,968,988,1013,1045,1065,1086,1089,1090,1090,1091,1094,1094,1094,1094,1094,1094,1094,1094,1094,1095,1099],"ymouse":[642,642,642,642,642,642,642,642,642,642,642,642,642,642,642,642,642,642,642,642,642,642,642,642,642,642,642,642,642,642,642,642,642,636,622,591,567,535,480,455,433,417,403,376,358,345,329,321,294,270,241,201,171,141,137,135,134,133,128,127,127,127,127,127,127,125,118,109,85],"timestamp_mouse":[20,28,45,64,83,105,123,145,164,183,205,223,243,263,284,304,323,345,363,383,404,425,444,464,483,504,524,545,564,583,605,625,644,663,684,703,724,744,763,783,804,825,845,864,884,905,923,944,963,984,1005,1024,1044,1063,1085,1103,1124,1144,1163,1185,1204,1225,1257,1265,1285,1304,1325,1344,1364],"xSR":741.5,"ySR":573.95,"xT1":424.9,"yT1":0,"xT2":1058.1,"yT2":0,"toosoon":0,"cond_shown":"randomdotsizeEA","ratio_trial":750,"smaller_num":"3","larger_num":"4","correct_side":2,"subjID":"TalianaVigoya24","gender":"1","age":"9","school":"4"},{"start_time":1552328054727,"click_time":1552328055965,"finger_time":1552328055446,"fix_duration":1280.46740938612,"trial":25,"RT":719,"MT":519,"sideResp":2,"stimulus":"img/900/randomdotsizeEA/R/13_Ratio_900_L_18_R_20.png","xmouse":[810,810,810,810,810,810,810,810,810,810,810,810,810,810,810,810,810,810,810,810,810,810,810,810,810,810,810,810,808,799,795,791,790,789,789,796,818,854,911,916,920,920,920,920,924,931,943,957,974,1000,1000,1000,1000,1000,1004,1010,1019,1031,1043,1048,1054,1064],"ymouse":[629,629,629,629,629,629,629,629,629,629,629,629,629,629,629,629,629,629,629,629,629,629,629,629,629,629,629,629,627,618,615,613,612,611,599,573,515,431,256,229,204,181,161,135,122,105,88,75,63,51,51,51,51,51,51,51,51,51,51,51,51,53],"timestamp_mouse":[17,44,58,78,98,119,138,158,177,197,219,238,259,277,298,318,337,359,378,398,418,438,457,478,498,519,538,558,577,599,617,638,657,678,697,719,738,759,778,799,818,837,857,879,898,917,939,958,978,998,1018,1039,1057,1078,1097,1117,1137,1157,1178,1197,1218,1237],"xSR":741.5,"ySR":573.95,"xT1":424.9,"yT1":0,"xT2":1058.1,"yT2":0,"toosoon":0,"cond_shown":"randomdotsizeEA","ratio_trial":900,"smaller_num":"18","larger_num":"20","correct_side":2,"subjID":"TalianaVigoya24","gender":"1","age":"9","school":"4"},{"start_time":1552328057199,"click_time":1552328058465,"finger_time":1552328058006,"fix_duration":312.2297093629297,"trial":26,"RT":807,"MT":459,"sideResp":1,"stimulus":"img/900/equaldotanddens/L/2_Ratio_900_L_20_R_18.png","xmouse":[794,794,794,794,794,794,794,794,794,794,794,794,794,794,794,794,794,794,794,794,794,794,794,794,794,794,794,794,794,794,794,794,794,795,795,796,796,796,796,795,770,745,712,681,649,595,583,570,561,553,539,531,525,520,515,506,497,495,493,490,486,485,485,484],"ymouse":[636,636,636,636,636,636,636,636,636,636,636,636,636,636,636,636,636,636,636,636,636,636,636,636,636,636,636,636,636,636,636,636,637,637,635,628,623,615,600,582,505,446,387,336,292,222,208,193,183,175,162,155,150,144,138,128,117,114,111,107,103,101,100,97],"timestamp_mouse":[21,40,46,66,86,106,127,146,166,185,205,227,245,265,285,306,327,346,365,387,407,427,445,466,487,507,526,545,565,586,605,626,645,665,686,706,727,745,766,786,807,826,846,867,885,907,925,946,965,985,1007,1025,1046,1065,1085,1105,1125,1145,1166,1186,1207,1225,1246,1265],"xSR":741.5,"ySR":573.95,"xT1":424.9,"yT1":0,"xT2":1058.1,"yT2":0,"toosoon":0,"cond_shown":"equaldotanddens","ratio_trial":900,"smaller_num":"18","larger_num":"20","correct_side":1,"subjID":"TalianaVigoya24","gender":"1","age":"9","school":"4"},{"start_time":1552328060390,"click_time":1552328061185,"finger_time":1552328061006,"fix_duration":902.9548395353113,"trial":27,"RT":616,"MT":179,"sideResp":1,"stimulus":"img/250/equaldotanddens/L/3_Ratio_250_L_8_R_2.png","xmouse":[808,808,808,808,808,808,808,808,808,808,808,808,808,808,808,808,808,808,808,808,808,808,808,808,808,808,808,808,805,794,778,719,683,627,597,575,544,531,517,497],"ymouse":[607,607,607,607,607,607,607,607,607,607,607,607,607,607,607,607,607,607,607,607,607,607,607,607,607,607,607,603,593,575,550,465,415,336,290,243,173,144,118,90],"timestamp_mouse":[15,36,56,75,94,115,136,156,175,195,215,236,256,274,295,315,334,354,374,396,416,435,456,475,496,516,535,554,574,594,616,635,655,675,696,715,734,754,774,795],"xSR":741.5,"ySR":573.95,"xT1":424.9,"yT1":0,"xT2":1058.1,"yT2":0,"toosoon":0,"cond_shown":"equaldotanddens","ratio_trial":250,"smaller_num":"2","larger_num":"8","correct_side":1,"subjID":"TalianaVigoya24","gender":"1","age":"9","school":"4"},{"start_time":1552328063803,"click_time":1552328065544,"finger_time":1552328064544,"fix_duration":1377.3379802688455,"trial":28,"RT":741,"MT":1000,"sideResp":1,"stimulus":"img/500/randomdotsizeEA/L/8_Ratio_500_L_8_R_4.png","xmouse":[786,785,785,785,785,784,784,784,784,784,784,784,787,787,787,787,787,787,787,787,787,787,787,787,788,788,788,788,788,788,789,790,790,790,793,798,811,859,890,922,959,989,1018,1021,1026,1035,1048,1085,1100,1111,1117,1121,1121,1121,1120,1115,1104,1100,1096,1091,1088,1081,1073,1064,1050,1033,1010,949,894,850,809,747,730,710,689,668,625,608,594,588,587,587,587,581,570,557,542,523],"ymouse":[601,601,601,601,601,601,601,601,601,601,604,607,611,613,613,613,613,613,613,613,613,613,613,613,614,614,614,614,614,614,614,613,613,612,610,607,603,585,560,527,482,442,396,390,383,375,364,331,311,291,266,245,236,225,214,201,182,176,172,166,163,159,156,154,150,145,138,128,121,115,108,104,104,104,104,104,104,104,104,104,104,104,104,104,102,100,95,88],"timestamp_mouse":[13,26,45,61,81,102,122,142,162,181,203,222,241,263,283,302,322,342,362,381,403,421,443,462,483,502,523,543,563,583,602,622,643,661,681,702,722,741,762,782,802,822,842,862,882,902,922,941,963,982,1001,1022,1041,1062,1082,1102,1123,1141,1161,1182,1202,1222,1241,1262,1281,1301,1322,1341,1362,1382,1402,1422,1441,1462,1483,1502,1523,1542,1561,1581,1602,1623,1643,1661,1681,1702,1722,1741],"xSR":741.5,"ySR":573.95,"xT1":424.9,"yT1":0,"xT2":1058.1,"yT2":0,"toosoon":0,"cond_shown":"randomdotsizeEA","ratio_trial":500,"smaller_num":"4","larger_num":"8","correct_side":1,"subjID":"TalianaVigoya24","gender":"1","age":"9","school":"4"},{"start_time":1552328066984,"click_time":1552328068405,"finger_time":1552328067785,"fix_duration":357.70212953791525,"trial":29,"RT":801,"MT":620,"sideResp":2,"stimulus":"img/750/equaldotanddens/R/3_Ratio_750_L_15_R_20.png","xmouse":[763,763,763,763,763,763,763,763,763,763,763,763,763,763,763,763,763,763,763,763,763,763,763,763,763,763,763,763,763,763,763,763,763,763,764,764,765,766,770,774,780,796,805,868,896,927,949,969,996,1009,1014,1024,1030,1037,1039,1043,1046,1049,1053,1055,1057,1062,1067,1073,1075,1075,1076,1077,1081,1085,1091,1096],"ymouse":[625,625,625,625,625,625,625,625,625,625,625,625,625,625,625,625,625,625,625,625,625,625,625,625,625,625,625,625,625,625,625,625,625,625,621,614,606,598,583,575,565,544,535,478,452,423,398,370,315,272,261,235,226,209,202,196,191,185,178,175,171,165,160,151,148,145,142,139,129,121,109,97],"timestamp_mouse":[10,21,44,61,80,100,121,142,160,181,201,220,242,260,280,301,322,341,361,382,400,422,441,461,480,501,521,540,561,581,600,620,642,660,680,702,721,741,760,782,801,821,841,860,881,900,920,941,960,981,1001,1021,1041,1061,1081,1101,1122,1140,1161,1180,1200,1220,1240,1260,1280,1301,1321,1342,1360,1381,1400,1420],"xSR":741.5,"ySR":573.95,"xT1":424.9,"yT1":0,"xT2":1058.1,"yT2":0,"toosoon":0,"cond_shown":"equaldotanddens","ratio_trial":750,"smaller_num":"15","larger_num":"20","correct_side":2,"subjID":"TalianaVigoya24","gender":"1","age":"9","school":"4"},{"start_time":1552328069956,"click_time":1552328071685,"finger_time":1552328070605,"fix_duration":409.82590517454497,"trial":30,"RT":649,"MT":1080,"sideResp":2,"stimulus":"img/250/randomdotsizeEA/R/10_Ratio_250_L_4_R_16.png","xmouse":[794,794,794,794,794,794,794,794,794,794,794,794,794,794,794,794,794,795,796,799,799,799,800,800,800,800,800,800,800,796,791,786,779,772,757,753,749,745,737,709,685,647,621,594,552,533,518,506,499,492,491,491,489,488,485,485,485,485,485,485,485,485,485,485,485,488,510,547,613,770,836,894,918,936,967,981,993,1003,1011,1019,1024,1028,1033,1037,1044,1056,1060],"ymouse":[650,650,650,650,650,650,650,650,650,650,650,650,650,650,650,650,650,650,648,640,639,636,635,633,631,629,627,622,618,602,587,575,563,551,531,526,519,512,497,449,407,340,298,255,191,168,149,136,128,120,117,117,115,112,109,108,108,108,108,108,108,108,108,108,108,108,110,115,125,146,156,162,163,163,163,160,156,153,148,142,136,133,128,121,111,95,90],"timestamp_mouse":[26,35,49,68,89,109,128,150,169,188,209,229,249,268,290,309,328,348,369,389,409,428,450,468,489,508,530,549,570,588,608,628,649,669,688,708,729,749,769,788,809,829,849,869,889,908,930,949,969,989,1008,1029,1049,1069,1089,1110,1130,1149,1170,1189,1209,1229,1250,1268,1289,1308,1329,1349,1369,1388,1408,1429,1448,1469,1488,1508,1529,1549,1568,1589,1608,1629,1649,1669,1689,1708,1729],"xSR":741.5,"ySR":573.95,"xT1":424.9,"yT1":0,"xT2":1058.1,"yT2":0,"toosoon":0,"cond_shown":"randomdotsizeEA","ratio_trial":250,"smaller_num":"4","larger_num":"16","correct_side":2,"subjID":"TalianaVigoya24","gender":"1","age":"9","school":"4"},{"start_time":1552328073702,"click_time":1552328074665,"finger_time":1552328074264,"fix_duration":1075.8910435651032,"trial":31,"RT":562,"MT":401,"sideResp":2,"stimulus":"img/250/equaldotanddens/R/12_Ratio_250_L_5_R_20.png","xmouse":[796,796,796,796,796,796,796,796,796,796,796,796,796,796,796,796,796,796,796,796,796,796,796,796,796,800,809,835,856,885,918,949,1003,1037,1043,1047,1049,1052,1057,1058,1060,1063,1065,1069,1071,1073,1076,1082,1084],"ymouse":[634,634,634,634,634,634,634,634,634,634,634,634,634,634,634,634,634,634,634,634,634,634,634,634,634,630,621,590,567,532,494,452,378,319,301,288,278,268,246,235,221,206,191,160,148,137,126,103,95],"timestamp_mouse":[10,22,43,63,82,103,122,144,164,183,202,223,244,264,282,303,324,343,364,383,403,424,443,463,483,504,523,544,562,583,603,624,643,664,683,704,723,744,762,783,802,823,843,863,883,903,923,944,962],"xSR":741.5,"ySR":573.95,"xT1":424.9,"yT1":0,"xT2":1058.1,"yT2":0,"toosoon":0,"cond_shown":"equaldotanddens","ratio_trial":250,"smaller_num":"5","larger_num":"20","correct_side":2,"subjID":"TalianaVigoya24","gender":"1","age":"9","school":"4"},{"start_time":1552328075915,"click_time":1552328077165,"finger_time":1552328076704,"fix_duration":250,"trial":32,"RT":789,"MT":461,"sideResp":1,"stimulus":"img/250/randomdotsizeEA/L/3_Ratio_250_L_8_R_2.png","xmouse":[822,822,822,822,822,822,822,822,822,822,822,822,822,822,822,822,822,822,822,822,822,822,822,822,822,822,822,822,822,822,822,822,822,822,822,822,821,804,781,734,718,678,644,628,616,604,591,565,542,526,514,507,503,502,501,501,499,499,499,499,499,499,496],"ymouse":[603,603,603,603,603,603,603,603,603,603,603,603,603,603,603,603,603,603,603,603,603,603,603,603,603,603,603,603,603,603,603,603,603,603,603,603,603,593,575,521,499,435,359,326,298,275,253,202,164,143,129,119,113,112,111,110,107,105,105,105,105,104,98],"timestamp_mouse":[14,30,50,70,90,110,130,150,169,191,210,231,250,270,291,309,331,351,370,391,411,430,450,470,491,511,531,550,571,590,609,631,651,670,691,710,730,750,769,789,810,830,850,870,889,910,930,949,971,990,1009,1029,1050,1069,1090,1109,1129,1150,1170,1190,1210,1229,1250],"xSR":741.5,"ySR":573.95,"xT1":424.9,"yT1":0,"xT2":1058.1,"yT2":0,"toosoon":0,"cond_shown":"randomdotsizeEA","ratio_trial":250,"smaller_num":"2","larger_num":"8","correct_side":1,"subjID":"TalianaVigoya24","gender":"1","age":"9","school":"4"},{"start_time":1552328078405,"click_time":1552328079365,"finger_time":1552328079025,"fix_duration":357.35583299575404,"trial":33,"RT":620,"MT":340,"sideResp":2,"stimulus":"img/900/randomdotsizeEA/L/8_Ratio_900_L_20_R_18.png","xmouse":[806,806,806,806,806,806,806,806,806,806,806,806,806,806,806,806,806,806,806,806,806,806,806,806,806,806,806,806,806,810,826,859,905,1022,1054,1073,1088,1098,1117,1126,1132,1138,1141,1142,1142,1142,1140,1137,1132],"ymouse":[625,625,625,626,626,626,626,626,626,626,626,626,626,626,626,626,626,626,626,626,626,626,626,626,626,626,626,626,626,620,603,572,533,430,393,363,335,313,267,245,223,200,181,154,139,130,120,109,97],"timestamp_mouse":[10,20,39,60,80,100,121,140,161,181,201,220,241,261,281,299,321,340,360,381,399,420,440,461,481,501,519,541,560,579,600,620,640,660,681,700,719,739,760,779,799,819,840,859,880,900,921,939,960],"xSR":741.5,"ySR":573.95,"xT1":424.9,"yT1":0,"xT2":1058.1,"yT2":0,"toosoon":0,"cond_shown":"randomdotsizeEA","ratio_trial":900,"smaller_num":"18","larger_num":"20","correct_side":1,"subjID":"TalianaVigoya24","gender":"1","age":"9","school":"4"},{"start_time":1552328081740,"click_time":1552328082645,"finger_time":1552328082425,"fix_duration":1213.333693864156,"trial":34,"RT":685,"MT":220,"sideResp":2,"stimulus":"img/500/equaldotanddens/R/1_Ratio_500_L_9_R_18.png","xmouse":[813,813,813,813,813,813,813,813,813,813,813,813,813,813,813,813,813,813,813,813,813,813,813,813,813,813,813,813,813,813,813,813,814,824,842,868,928,965,986,1004,1014,1021,1038,1049,1058,1066],"ymouse":[648,648,648,648,648,648,648,648,648,648,648,648,648,648,648,648,648,648,648,648,648,648,648,648,648,648,648,648,648,648,648,648,644,629,605,562,448,364,310,267,236,208,159,129,101,74],"timestamp_mouse":[20,36,45,65,85,105,125,144,164,185,204,226,245,265,285,306,326,346,366,384,404,425,446,466,484,506,526,545,566,584,605,626,644,665,685,706,725,745,765,785,805,825,844,865,885,905],"xSR":741.5,"ySR":573.95,"xT1":424.9,"yT1":0,"xT2":1058.1,"yT2":0,"toosoon":0,"cond_shown":"equaldotanddens","ratio_trial":500,"smaller_num":"9","larger_num":"18","correct_side":2,"subjID":"TalianaVigoya24","gender":"1","age":"9","school":"4"},{"start_time":1552328084843,"click_time":1552328086386,"finger_time":1552328085805,"fix_duration":1016.2212912729011,"trial":35,"RT":962,"MT":581,"sideResp":2,"stimulus":"img/750/equaldotanddens/R/3_Ratio_750_L_15_R_20.png","xmouse":[760,760,760,779,786,791,795,798,798,799,799,799,799,799,799,799,799,799,799,799,799,799,799,799,799,799,799,799,799,799,799,799,799,799,799,799,799,799,799,799,800,800,801,801,802,803,808,814,824,843,849,870,890,900,919,948,983,1030,1041,1048,1048,1049,1049,1049,1049,1049,1049,1049,1049,1049,1049,1049,1049,1049,1049,1049,1053,1065],"ymouse":[633,633,633,628,627,626,624,624,624,623,623,623,623,623,623,623,623,623,623,623,623,623,623,623,623,623,623,623,623,623,623,623,623,623,623,623,623,623,623,623,622,621,618,617,613,611,599,581,559,512,495,436,377,348,302,234,173,77,50,24,18,8,5,5,5,5,5,5,5,5,5,5,5,5,5,5,3,4],"timestamp_mouse":[12,22,42,61,82,102,122,142,162,182,202,222,241,262,282,302,323,341,361,383,401,421,443,463,482,503,522,541,563,581,603,621,641,663,682,702,722,742,763,783,803,821,842,861,883,902,923,941,962,982,1003,1022,1042,1061,1081,1102,1122,1141,1162,1182,1203,1222,1242,1262,1281,1302,1323,1342,1363,1383,1403,1423,1441,1463,1482,1503,1523,1543],"xSR":741.5,"ySR":573.95,"xT1":424.9,"yT1":0,"xT2":1058.1,"yT2":0,"toosoon":0,"cond_shown":"equaldotanddens","ratio_trial":750,"smaller_num":"15","larger_num":"20","correct_side":2,"subjID":"TalianaVigoya24","gender":"1","age":"9","school":"4"},{"start_time":1552328089045,"click_time":1552328090485,"finger_time":1552328089845,"fix_duration":1359.61470738705,"trial":36,"RT":800,"MT":640,"sideResp":1,"stimulus":"img/250/randomdotsizeEA/L/2_Ratio_250_L_16_R_4.png","xmouse":[785,785,785,785,785,785,785,785,785,785,785,785,785,785,785,785,785,785,785,785,785,785,785,785,785,785,785,785,785,785,785,785,785,785,785,785,785,784,780,775,770,763,746,733,722,712,703,680,663,657,650,647,643,633,629,623,616,590,577,565,555,546,535,533,533,533,533,533,533,533,533,533,523],"ymouse":[621,621,621,621,621,621,621,621,621,621,621,621,621,621,621,621,621,621,621,621,621,621,621,621,621,621,621,621,621,621,621,621,621,621,621,621,621,622,608,589,569,548,499,467,435,409,379,298,241,216,194,177,163,142,135,128,123,113,112,110,108,106,104,103,103,103,103,103,103,103,103,100,90],"timestamp_mouse":[13,23,46,60,80,100,119,139,160,181,200,219,241,259,279,300,321,340,359,380,399,421,441,461,481,501,520,541,561,581,600,620,640,659,680,699,720,740,761,779,800,820,840,860,879,900,920,940,959,981,1000,1019,1040,1059,1080,1100,1120,1140,1159,1180,1199,1219,1240,1259,1281,1299,1320,1339,1360,1381,1401,1419,1440],"xSR":741.5,"ySR":573.95,"xT1":424.9,"yT1":0,"xT2":1058.1,"yT2":0,"toosoon":0,"cond_shown":"randomdotsizeEA","ratio_trial":250,"smaller_num":"4","larger_num":"16","correct_side":1,"subjID":"TalianaVigoya24","gender":"1","age":"9","school":"4"},{"start_time":1552328091777,"click_time":1552328093446,"finger_time":1552328092605,"fix_duration":250,"trial":37,"RT":828,"MT":841,"sideResp":2,"stimulus":"img/750/equaldotsize/R/2_Ratio_750_L_6_R_8.png","xmouse":[810,810,810,810,810,810,810,808,806,805,804,803,803,803,803,803,803,803,803,803,803,803,803,803,803,803,803,803,803,803,803,803,803,803,803,803,803,803,801,796,788,760,743,724,707,688,668,661,655,648,644,638,635,634,634,634,634,635,647,679,706,762,780,797,815,845,865,886,919,929,958,991,1005,1022,1040,1072,1081,1087,1091,1093,1094,1097,1099,1100],"ymouse":[624,624,624,624,624,624,625,625,624,624,624,623,623,623,623,623,623,623,623,623,623,623,623,623,623,623,623,623,623,623,623,623,623,623,623,623,623,623,620,610,598,562,544,527,512,497,480,472,466,457,452,442,439,437,436,435,434,431,427,413,401,375,364,352,340,319,308,296,277,269,251,227,214,201,187,158,148,140,132,128,122,110,103,98],"timestamp_mouse":[12,41,49,67,87,107,128,149,168,188,207,229,248,268,289,308,328,347,368,389,408,429,447,469,488,508,528,548,568,587,608,628,649,669,688,707,727,748,767,788,808,828,848,868,888,908,927,949,967,988,1008,1027,1048,1068,1087,1108,1127,1148,1167,1188,1209,1229,1248,1268,1288,1309,1328,1348,1367,1387,1407,1427,1447,1467,1487,1509,1528,1548,1568,1588,1607,1629,1647,1669],"xSR":741.5,"ySR":573.95,"xT1":424.9,"yT1":0,"xT2":1058.1,"yT2":0,"toosoon":0,"cond_shown":"equaldotsize","ratio_trial":750,"smaller_num":"6","larger_num":"8","correct_side":2,"subjID":"TalianaVigoya24","gender":"1","age":"9","school":"4"},{"start_time":1552328095261,"click_time":1552328096366,"finger_time":1552328096024,"fix_duration":773.0595385870283,"trial":38,"RT":763,"MT":342,"sideResp":1,"stimulus":"img/750/randomdotsizeEA/R/15_Ratio_750_L_9_R_12.png","xmouse":[774,774,774,774,774,774,774,774,774,774,774,774,774,774,774,774,774,774,774,774,774,774,774,774,774,774,774,774,774,774,774,774,774,774,774,774,774,763,750,731,711,684,620,575,555,539,528,503,493,486,480,475,471,470,468,468],"ymouse":[634,634,634,634,634,634,634,634,634,634,634,634,634,634,634,634,634,634,634,634,634,634,634,634,634,634,634,634,634,634,634,634,634,632,626,619,610,576,552,521,488,454,374,322,296,274,254,203,180,160,146,134,118,112,102,98],"timestamp_mouse":[19,39,43,63,83,104,123,144,164,184,203,225,244,263,285,304,324,345,364,384,403,423,444,463,483,504,524,544,564,584,604,624,644,664,683,705,724,743,763,784,803,825,843,863,883,904,924,943,963,984,1004,1024,1043,1064,1084,1105],"xSR":741.5,"ySR":573.95,"xT1":424.9,"yT1":0,"xT2":1058.1,"yT2":0,"toosoon":0,"cond_shown":"randomdotsizeEA","ratio_trial":750,"smaller_num":"9","larger_num":"12","correct_side":2,"subjID":"TalianaVigoya24","gender":"1","age":"9","school":"4"},{"start_time":1552328097530,"click_time":1552328098445,"finger_time":1552328098325,"fix_duration":284.4083135965285,"trial":39,"RT":795,"MT":120,"sideResp":1,"stimulus":"img/500/equaldotanddens/L/8_Ratio_500_L_8_R_4.png","xmouse":[814,814,814,814,814,814,814,814,814,814,814,814,814,814,814,814,814,814,814,814,814,814,814,814,814,814,814,814,814,815,815,815,815,816,817,817,817,817,799,761,723,675,622,569,498,475],"ymouse":[640,640,640,640,640,640,640,640,640,640,640,640,640,640,640,640,640,640,640,640,640,640,640,640,640,640,640,640,640,640,640,640,640,640,640,639,635,627,587,516,449,364,278,205,117,90],"timestamp_mouse":[16,41,56,76,95,115,135,154,175,196,216,235,255,275,295,315,335,354,376,396,416,436,455,476,496,515,536,556,575,595,615,634,654,676,696,715,735,755,775,795,815,836,855,875,894,915],"xSR":741.5,"ySR":573.95,"xT1":424.9,"yT1":0,"xT2":1058.1,"yT2":0,"toosoon":0,"cond_shown":"equaldotanddens","ratio_trial":500,"smaller_num":"4","larger_num":"8","correct_side":1,"subjID":"TalianaVigoya24","gender":"1","age":"9","school":"4"},{"start_time":1552328100530,"click_time":1552328101905,"finger_time":1552328101224,"fix_duration":524.8909445564661,"trial":40,"RT":694,"MT":681,"sideResp":2,"stimulus":"img/900/equaldotanddens/R/12_Ratio_900_L_18_R_20.png","xmouse":[790,790,790,790,790,790,790,790,790,790,790,790,790,790,790,790,790,790,790,790,790,790,790,790,790,790,790,790,790,790,790,790,790,795,812,824,837,852,859,875,889,901,911,926,934,940,945,951,959,969,972,976,977,981,984,986,988,991,994,1003,1007,1012,1016,1019,1028,1037,1047,1059,1077],"ymouse":[599,599,599,599,599,599,599,599,599,599,599,599,599,599,599,599,599,599,599,599,599,599,599,599,599,599,599,599,599,599,599,599,599,593,569,548,526,488,456,388,351,324,305,276,261,251,239,227,209,185,177,170,166,157,153,148,144,140,136,131,129,127,126,125,122,117,109,100,85],"timestamp_mouse":[18,43,55,76,95,115,135,156,175,196,216,235,254,274,296,315,336,355,374,394,416,436,456,475,494,515,535,556,576,596,615,634,654,675,694,716,735,755,775,796,815,835,855,876,894,915,934,954,974,994,1014,1034,1054,1076,1095,1114,1134,1155,1175,1195,1214,1234,1254,1275,1295,1315,1335,1355,1375],"xSR":741.5,"ySR":573.95,"xT1":424.9,"yT1":0,"xT2":1058.1,"yT2":0,"toosoon":0,"cond_shown":"equaldotanddens","ratio_trial":900,"smaller_num":"18","larger_num":"20","correct_side":2,"subjID":"TalianaVigoya24","gender":"1","age":"9","school":"4"},{"start_time":1552328103965,"click_time":1552328105424,"finger_time":1552328104624,"fix_duration":1139.3640642742669,"trial":41,"RT":659,"MT":800,"sideResp":2,"stimulus":"img/500/equaldotsize/R/14_Ratio_500_L_5_R_10.png","xmouse":[794,794,794,794,794,794,794,794,794,794,794,794,794,794,794,794,794,794,794,794,794,794,794,794,794,794,794,793,794,799,803,806,812,828,841,866,883,903,945,961,971,981,989,1005,1012,1020,1023,1027,1030,1032,1035,1037,1038,1040,1042,1044,1048,1050,1052,1052,1053,1053,1054,1055,1055,1055,1055,1055,1055,1057,1060,1065,1075,1100],"ymouse":[636,636,636,636,636,636,636,636,636,636,636,636,636,636,636,636,636,636,636,636,636,636,636,636,636,636,636,637,635,628,620,611,599,562,537,494,467,439,386,363,343,319,298,262,246,225,211,200,184,176,170,165,163,157,155,152,149,147,146,146,145,144,143,142,142,142,142,142,142,139,136,132,117,84],"timestamp_mouse":[10,20,40,59,80,100,121,140,161,180,201,220,241,259,281,301,320,340,359,380,400,421,440,459,481,501,521,539,560,579,599,619,640,659,680,700,719,741,759,780,799,820,840,859,880,900,921,940,959,979,999,1019,1039,1059,1079,1100,1120,1139,1160,1181,1200,1220,1240,1260,1280,1300,1320,1341,1360,1379,1400,1419,1440,1459],"xSR":741.5,"ySR":573.95,"xT1":424.9,"yT1":0,"xT2":1058.1,"yT2":0,"toosoon":0,"cond_shown":"equaldotsize","ratio_trial":500,"smaller_num":"5","larger_num":"10","correct_side":2,"subjID":"TalianaVigoya24","gender":"1","age":"9","school":"4"},{"start_time":1552328107069,"click_time":1552328108225,"finger_time":1552328107625,"fix_duration":723.3563442119984,"trial":42,"RT":556,"MT":600,"sideResp":2,"stimulus":"img/250/equaldotanddens/R/12_Ratio_250_L_5_R_20.png","xmouse":[798,798,798,798,798,798,798,798,798,798,798,798,798,798,798,798,798,798,799,801,802,803,808,812,819,825,835,863,888,907,924,938,958,965,973,981,989,996,1012,1023,1031,1038,1050,1054,1055,1055,1055,1055,1055,1055,1055,1055,1055,1055,1055,1055,1055,1069],"ymouse":[643,643,643,643,643,643,643,643,643,643,643,643,643,643,643,643,643,643,636,630,628,624,616,613,605,597,585,547,512,478,446,419,367,342,316,288,259,236,171,136,110,85,49,41,39,39,39,39,39,39,39,39,39,39,39,39,39,39],"timestamp_mouse":[20,42,57,76,97,117,136,155,176,196,215,237,255,276,296,317,337,355,376,395,416,435,456,475,495,516,535,556,576,596,615,636,657,675,695,716,736,756,777,796,817,836,857,876,896,916,936,956,977,997,1017,1035,1056,1075,1096,1117,1136,1156],"xSR":741.5,"ySR":573.95,"xT1":424.9,"yT1":0,"xT2":1058.1,"yT2":0,"toosoon":0,"cond_shown":"equaldotanddens","ratio_trial":250,"smaller_num":"5","larger_num":"20","correct_side":2,"subjID":"TalianaVigoya24","gender":"1","age":"9","school":"4"},{"start_time":1552328110814,"click_time":1552328111845,"finger_time":1552328111365,"fix_duration":1467.6121944598378,"trial":43,"RT":551,"MT":480,"sideResp":2,"stimulus":"img/500/equaldotsize/R/2_Ratio_500_L_3_R_6.png","xmouse":[812,812,812,812,812,812,812,812,812,812,812,812,812,812,812,812,812,812,812,812,812,812,812,812,813,816,826,836,848,873,894,935,949,960,977,991,1013,1018,1022,1023,1023,1024,1026,1028,1032,1041,1044,1047,1050,1051,1054,1061],"ymouse":[617,617,617,617,617,617,617,617,617,616,615,613,611,611,611,610,610,610,610,610,609,606,605,603,599,595,577,561,542,498,450,331,282,246,208,181,143,131,121,118,116,115,113,112,110,103,100,97,94,93,92,87],"timestamp_mouse":[10,41,51,72,90,110,131,152,171,192,211,230,251,271,290,311,332,350,372,392,410,430,450,471,491,511,530,551,571,591,611,630,651,671,691,710,730,751,771,790,811,830,851,870,891,912,931,952,971,992,1011,1030],"xSR":741.5,"ySR":573.95,"xT1":424.9,"yT1":0,"xT2":1058.1,"yT2":0,"toosoon":0,"cond_shown":"equaldotsize","ratio_trial":500,"smaller_num":"3","larger_num":"6","correct_side":2,"subjID":"TalianaVigoya24","gender":"1","age":"9","school":"4"},{"start_time":1552328113662,"click_time":1552328114664,"finger_time":1552328114224,"fix_duration":1015.2696084512231,"trial":44,"RT":562,"MT":440,"sideResp":2,"stimulus":"img/750/equaldotanddens/R/4_Ratio_750_L_15_R_20.png","xmouse":[772,772,772,772,772,772,772,772,772,772,772,772,772,772,772,774,777,780,784,786,786,787,787,789,794,801,820,835,851,890,908,922,937,948,973,989,1000,1010,1012,1013,1014,1017,1025,1034,1050,1057,1061,1067,1074,1096,1110],"ymouse":[651,651,651,651,651,651,651,651,651,651,651,651,651,651,651,650,647,644,641,638,638,637,636,634,628,621,600,577,553,482,446,413,385,363,318,290,270,253,248,245,243,239,229,217,192,184,177,166,155,121,97],"timestamp_mouse":[12,28,42,62,83,103,123,142,163,184,204,224,242,263,284,302,322,342,363,384,403,422,442,463,483,504,522,542,562,583,602,623,643,662,683,702,723,742,762,783,802,823,843,864,883,902,922,943,962,983,1002],"xSR":741.5,"ySR":573.95,"xT1":424.9,"yT1":0,"xT2":1058.1,"yT2":0,"toosoon":0,"cond_shown":"equaldotanddens","ratio_trial":750,"smaller_num":"15","larger_num":"20","correct_side":2,"subjID":"TalianaVigoya24","gender":"1","age":"9","school":"4"},{"start_time":1552328117084,"click_time":1552328119125,"finger_time":1552328117864,"fix_duration":1336.5200221134262,"trial":45,"RT":780,"MT":1261,"sideResp":2,"stimulus":"img/500/randomdotsizeEA/R/14_Ratio_500_L_5_R_10.png","xmouse":[797,797,797,797,797,797,797,797,797,797,797,797,797,797,797,797,797,797,797,797,797,797,797,797,797,797,797,797,797,797,797,797,797,797,797,797,798,798,798,797,795,790,782,760,745,720,696,673,639,626,615,597,592,574,553,546,543,541,541,541,541,541,541,541,541,541,543,560,616,645,666,686,710,722,746,756,768,783,815,831,844,853,868,894,907,918,932,944,964,975,985,993,994,995,1000,1006,1011,1014,1020,1033,1041,1049,1065],"ymouse":[607,607,607,607,607,607,607,607,607,607,607,607,607,607,607,607,607,607,607,607,607,607,607,607,607,607,607,607,607,607,607,607,607,607,607,605,602,597,589,566,553,542,524,486,460,417,373,337,285,264,244,213,205,172,135,122,113,110,108,108,108,108,108,108,108,108,108,109,118,123,125,125,125,125,115,109,104,98,92,90,88,87,84,80,77,75,75,75,75,75,75,76,77,77,77,77,77,77,77,77,77,77,77],"timestamp_mouse":[10,20,44,60,81,101,121,141,161,182,201,221,240,261,282,301,322,341,362,381,402,422,441,460,482,502,521,542,560,580,600,622,642,661,682,700,720,741,761,780,801,821,840,862,881,900,922,941,961,981,1001,1020,1041,1061,1081,1100,1120,1141,1160,1181,1200,1220,1241,1262,1281,1301,1321,1340,1362,1380,1401,1421,1442,1461,1482,1500,1521,1541,1562,1580,1601,1621,1641,1662,1680,1701,1720,1741,1762,1781,1801,1821,1840,1860,1881,1900,1921,1941,1961,1980,2000,2021,2041],"xSR":741.5,"ySR":573.95,"xT1":424.9,"yT1":0,"xT2":1058.1,"yT2":0,"toosoon":0,"cond_shown":"randomdotsizeEA","ratio_trial":500,"smaller_num":"5","larger_num":"10","correct_side":2,"subjID":"TalianaVigoya24","gender":"1","age":"9","school":"4"},{"start_time":1552328122661,"click_time":1552328123484,"finger_time":1552328123286,"fix_duration":954.5465182865665,"trial":46,"RT":625,"MT":198,"sideResp":2,"stimulus":"img/750/equaldotanddens/R/11_Ratio_750_L_12_R_16.png","xmouse":[783,783,783,783,783,783,783,783,783,783,783,783,783,783,783,783,783,783,783,783,783,783,783,783,783,783,783,783,783,784,796,862,905,946,984,1034,1048,1055,1059,1066,1071,1076],"ymouse":[613,613,613,613,613,613,613,613,613,613,613,613,613,613,613,613,613,613,613,613,613,613,613,613,613,613,613,613,612,609,600,524,461,399,337,240,208,182,158,136,102,78],"timestamp_mouse":[12,35,45,65,85,104,123,143,164,185,205,223,245,265,284,304,325,345,364,385,405,423,444,464,485,504,525,543,563,583,604,625,643,664,684,704,723,744,764,784,804,823],"xSR":741.5,"ySR":573.95,"xT1":424.9,"yT1":0,"xT2":1058.1,"yT2":0,"toosoon":0,"cond_shown":"equaldotanddens","ratio_trial":750,"smaller_num":"12","larger_num":"16","correct_side":2,"subjID":"TalianaVigoya24","gender":"1","age":"9","school":"4"},{"start_time":1552328126056,"click_time":1552328127166,"finger_time":1552328126685,"fix_duration":1249.9627289814798,"trial":47,"RT":629,"MT":481,"sideResp":2,"stimulus":"img/500/equaldotsize/R/9_Ratio_500_L_2_R_4.png","xmouse":[788,788,788,788,788,788,788,788,788,788,788,788,788,788,788,788,788,788,788,788,788,788,788,788,792,804,811,815,818,821,827,830,833,839,846,855,878,903,932,991,1113,1227,1236,1236,1236,1236,1236,1236,1236,1236,1236,1236,1221,1198,1177,1156],"ymouse":[638,638,638,638,638,638,638,638,638,638,638,638,638,638,638,638,638,638,638,638,638,638,638,638,631,620,613,607,603,596,578,567,555,538,522,503,460,422,376,299,181,90,82,82,82,82,82,82,82,82,82,82,81,81,81,81],"timestamp_mouse":[9,42,49,68,88,109,128,150,170,188,210,230,249,269,289,309,329,349,368,390,410,430,448,469,488,510,528,548,569,589,609,629,649,669,689,709,728,749,769,790,809,829,848,869,889,909,929,948,969,989,1010,1030,1048,1069,1089,1110],"xSR":741.5,"ySR":573.95,"xT1":424.9,"yT1":0,"xT2":1058.1,"yT2":0,"toosoon":0,"cond_shown":"equaldotsize","ratio_trial":500,"smaller_num":"2","larger_num":"4","correct_side":2,"subjID":"TalianaVigoya24","gender":"1","age":"9","school":"4"},{"start_time":1552328129214,"click_time":1552328130865,"finger_time":1552328130084,"fix_duration":848.0524246134022,"trial":48,"RT":870,"MT":781,"sideResp":1,"stimulus":"img/500/equaldotanddens/L/10_Ratio_500_L_4_R_2.png","xmouse":[758,758,758,758,758,758,758,758,758,758,758,758,758,758,758,758,758,758,758,758,758,758,758,758,758,758,758,758,758,758,758,758,758,758,758,758,758,758,758,758,758,755,751,736,726,716,704,693,674,665,654,645,638,623,618,614,608,602,587,577,571,562,555,542,539,538,537,536,535,534,531,524,521,513,512,511,511,511,511,511,511,510,510],"ymouse":[633,633,633,633,633,633,633,633,633,633,633,633,633,633,633,633,633,633,633,633,633,633,633,633,633,633,633,633,633,633,633,633,633,633,633,633,633,633,633,633,633,624,615,591,577,563,551,540,521,513,495,476,454,407,386,369,350,330,290,261,244,225,210,187,182,178,177,176,173,169,164,153,146,134,130,129,127,125,117,112,104,102,98],"timestamp_mouse":[10,36,51,70,91,112,131,152,171,191,212,232,251,271,291,310,332,350,371,390,412,432,451,471,492,511,530,550,571,592,612,631,651,670,691,710,732,752,771,792,810,831,851,870,890,912,931,950,970,992,1012,1031,1051,1070,1090,1111,1131,1152,1170,1190,1211,1231,1250,1270,1290,1312,1331,1352,1370,1391,1411,1431,1451,1471,1490,1512,1531,1551,1570,1590,1611,1632,1651],"xSR":741.5,"ySR":573.95,"xT1":424.9,"yT1":0,"xT2":1058.1,"yT2":0,"toosoon":0,"cond_shown":"equaldotanddens","ratio_trial":500,"smaller_num":"2","larger_num":"4","correct_side":1,"subjID":"TalianaVigoya24","gender":"1","age":"9","school":"4"},{"start_time":1552328133698,"click_time":1552328134926,"finger_time":1552328134425,"fix_duration":250,"trial":49,"RT":727,"MT":501,"sideResp":2,"stimulus":"img/500/equaldotsize/R/2_Ratio_500_L_3_R_6.png","xmouse":[796,796,796,796,796,796,796,796,796,796,796,796,796,796,796,796,796,796,796,796,796,796,796,796,796,796,796,796,796,797,799,800,802,803,813,830,845,865,892,917,948,956,961,964,973,977,981,984,987,990,994,995,995,995,996,1001,1006,1016,1028,1051,1060,1071],"ymouse":[624,624,624,624,624,624,624,624,624,624,624,624,624,624,624,624,624,624,624,624,624,624,624,624,624,624,624,624,623,622,616,613,611,609,596,582,565,540,501,461,408,389,368,352,294,269,242,216,194,176,155,154,153,153,151,149,146,140,133,115,107,97],"timestamp_mouse":[14,27,47,67,88,106,128,147,167,188,208,227,246,267,288,307,327,348,368,388,407,428,447,468,487,508,528,547,566,587,607,627,648,667,687,708,727,748,768,787,807,826,847,867,888,907,927,947,967,987,1007,1026,1047,1067,1087,1107,1127,1147,1168,1188,1206,1227],"xSR":741.5,"ySR":573.95,"xT1":424.9,"yT1":0,"xT2":1058.1,"yT2":0,"toosoon":0,"cond_shown":"equaldotsize","ratio_trial":500,"smaller_num":"3","larger_num":"6","correct_side":2,"subjID":"TalianaVigoya24","gender":"1","age":"9","school":"4"},{"start_time":1552328137338,"click_time":1552328138705,"finger_time":1552328138085,"fix_duration":1452.163354684186,"trial":50,"RT":747,"MT":620,"sideResp":1,"stimulus":"img/500/randomdotsizeEA/L/8_Ratio_500_L_8_R_4.png","xmouse":[775,775,775,775,775,775,775,775,775,775,775,775,775,775,775,775,775,775,775,775,775,775,775,775,775,775,775,775,775,775,775,775,775,772,767,761,751,739,703,682,653,637,624,609,607,606,605,603,599,595,593,580,570,537,526,518,512,502,499,496,495,495,495,495,495,495,495,494,491],"ymouse":[641,641,641,641,641,641,641,641,641,641,641,641,641,641,641,641,641,641,641,641,641,641,641,641,641,641,641,641,641,641,641,641,639,628,617,603,585,565,519,492,461,439,419,388,375,367,358,347,317,290,279,241,218,172,156,145,137,121,116,114,112,112,112,112,112,112,110,106,97],"timestamp_mouse":[12,35,47,68,88,107,127,147,168,188,206,228,247,267,288,307,326,348,368,387,407,426,448,468,488,508,528,548,567,586,607,627,646,667,686,707,727,747,766,788,807,828,848,866,887,907,927,948,967,986,1008,1027,1048,1067,1087,1108,1127,1149,1167,1186,1207,1227,1247,1267,1287,1307,1326,1348,1366],"xSR":741.5,"ySR":573.95,"xT1":424.9,"yT1":0,"xT2":1058.1,"yT2":0,"toosoon":0,"cond_shown":"randomdotsizeEA","ratio_trial":500,"smaller_num":"4","larger_num":"8","correct_side":1,"subjID":"TalianaVigoya24","gender":"1","age":"9","school":"4"},{"start_time":1552328140901,"click_time":1552328142325,"finger_time":1552328141705,"fix_duration":1314.2210943042744,"trial":51,"RT":804,"MT":620,"sideResp":1,"stimulus":"img/750/equaldotanddens/L/9_Ratio_750_L_4_R_3.png","xmouse":[761,761,761,761,761,761,761,761,761,761,761,761,761,761,761,761,761,761,761,761,761,761,761,761,761,761,761,761,761,761,761,761,762,762,764,768,773,782,800,818,857,883,895,899,901,902,902,902,902,900,886,864,845,825,801,779,729,706,683,659,636,614,602,593,582,567,562,559,555,547,530,507],"ymouse":[645,645,645,645,645,645,645,645,645,645,645,645,645,645,645,645,645,645,645,645,645,645,645,645,645,645,645,645,645,645,645,645,645,642,640,633,628,621,609,595,549,502,475,457,444,426,417,413,408,402,383,360,342,324,303,281,233,214,198,180,162,146,140,135,130,124,122,120,117,112,102,93],"timestamp_mouse":[26,36,44,65,83,104,125,144,164,184,205,223,245,264,283,304,325,343,365,384,403,424,444,464,484,503,524,544,565,583,605,625,643,664,683,704,723,744,764,785,804,825,845,864,884,904,924,944,964,984,1004,1024,1044,1064,1084,1104,1123,1144,1164,1185,1204,1223,1244,1265,1284,1304,1323,1344,1364,1383,1404,1424],"xSR":741.5,"ySR":573.95,"xT1":424.9,"yT1":0,"xT2":1058.1,"yT2":0,"toosoon":0,"cond_shown":"equaldotanddens","ratio_trial":750,"smaller_num":"3","larger_num":"4","correct_side":1,"subjID":"TalianaVigoya24","gender":"1","age":"9","school":"4"},{"start_time":1552328143798,"click_time":1552328144824,"finger_time":1552328144485,"fix_duration":671.996246924753,"trial":52,"RT":687,"MT":339,"sideResp":1,"stimulus":"img/750/equaldotanddens/L/10_Ratio_750_L_4_R_3.png","xmouse":[779,779,779,779,779,779,779,779,779,779,779,779,779,779,779,779,779,779,779,779,779,779,779,779,779,779,779,779,779,779,779,779,777,771,761,753,729,717,703,689,654,632,608,580,546,524,494,483,474,468,457,452],"ymouse":[617,617,617,617,617,617,617,617,617,617,617,617,617,617,617,617,617,617,617,617,617,617,617,617,617,617,617,617,617,617,617,616,604,586,553,526,426,344,234,126,0,0,0,0,0,0,0,0,0,0,0,5],"timestamp_mouse":[12,39,47,68,87,107,127,148,167,187,207,228,248,267,286,307,328,348,368,387,407,427,448,467,486,508,528,546,568,588,607,626,647,667,687,707,728,747,767,786,808,827,848,867,888,907,927,947,968,987,1007,1026],"xSR":741.5,"ySR":573.95,"xT1":424.9,"yT1":0,"xT2":1058.1,"yT2":0,"toosoon":0,"cond_shown":"equaldotanddens","ratio_trial":750,"smaller_num":"3","larger_num":"4","correct_side":1,"subjID":"TalianaVigoya24","gender":"1","age":"9","school":"4"},{"start_time":1552328146258,"click_time":1552328147445,"finger_time":1552328147225,"fix_duration":470.80345643160604,"trial":53,"RT":967,"MT":220,"sideResp":1,"stimulus":"img/750/randomdotsizeEA/L/9_Ratio_750_L_4_R_3.png","xmouse":[790,790,790,790,790,790,790,790,790,790,790,790,790,790,790,790,790,790,790,790,790,790,790,790,790,790,790,790,790,790,790,790,790,790,790,790,790,790,790,790,790,790,790,790,790,787,782,774,761,752,750,745,741,727,710,676,631,582,519,508],"ymouse":[634,634,634,634,634,634,634,634,634,634,634,634,634,634,634,634,634,634,634,634,634,634,634,634,634,634,634,634,634,634,634,634,634,634,634,634,634,634,634,634,634,634,634,634,633,620,601,579,536,514,509,497,490,458,419,353,278,203,117,98],"timestamp_mouse":[18,42,48,68,87,108,127,148,168,186,208,227,248,267,287,307,327,347,367,388,407,428,448,467,487,508,528,548,567,588,608,628,647,667,687,707,728,747,767,786,807,828,847,867,886,907,926,948,967,986,1008,1028,1047,1067,1087,1107,1127,1147,1167,1187],"xSR":741.5,"ySR":573.95,"xT1":424.9,"yT1":0,"xT2":1058.1,"yT2":0,"toosoon":0,"cond_shown":"randomdotsizeEA","ratio_trial":750,"smaller_num":"3","larger_num":"4","correct_side":1,"subjID":"TalianaVigoya24","gender":"1","age":"9","school":"4"},{"start_time":1552328149545,"click_time":1552328151125,"finger_time":1552328150225,"fix_duration":1259.6948063293473,"trial":54,"RT":680,"MT":900,"sideResp":1,"stimulus":"img/750/randomdotsizeEA/R/5_Ratio_750_L_15_R_20.png","xmouse":[785,785,785,785,785,785,785,785,785,785,785,785,785,785,785,785,785,785,785,785,785,785,785,785,785,785,785,785,785,785,785,785,781,777,759,747,734,720,709,684,673,662,652,642,623,610,603,592,582,563,551,541,533,525,513,510,509,508,507,507,507,507,507,505,497,494,491,488,487,485,484,483,483,483,482,482,481,481,480,479],"ymouse":[648,648,648,648,648,648,648,648,648,648,648,648,648,648,648,648,648,648,648,648,648,648,648,648,648,648,648,648,648,639,628,616,603,588,545,529,513,497,480,440,421,398,380,363,329,303,286,268,251,218,203,191,183,178,170,169,168,168,167,167,167,167,166,165,150,144,136,131,126,120,117,116,114,113,111,111,109,108,104,98],"timestamp_mouse":[1,20,41,59,81,99,121,141,160,181,200,221,239,260,280,301,321,340,360,379,400,421,441,460,479,499,521,541,559,580,599,620,640,660,680,699,720,741,760,780,800,820,841,860,880,901,920,940,960,980,1000,1020,1040,1060,1080,1101,1120,1140,1160,1180,1200,1220,1239,1261,1280,1300,1320,1341,1361,1380,1400,1421,1441,1460,1480,1499,1521,1541,1560,1580],"xSR":741.5,"ySR":573.95,"xT1":424.9,"yT1":0,"xT2":1058.1,"yT2":0,"toosoon":0,"cond_shown":"randomdotsizeEA","ratio_trial":750,"smaller_num":"15","larger_num":"20","correct_side":2,"subjID":"TalianaVigoya24","gender":"1","age":"9","school":"4"},{"start_time":1552328153366,"click_time":1552328154845,"finger_time":1552328154285,"fix_duration":1197.0062779266568,"trial":55,"RT":919,"MT":560,"sideResp":2,"stimulus":"img/900/equaldotsize/R/9_Ratio_900_L_18_R_20.png","xmouse":[802,802,802,802,802,802,802,802,802,802,802,802,802,802,802,802,802,802,802,802,802,802,802,802,802,802,802,802,802,802,802,802,802,802,802,802,802,802,802,802,802,802,802,802,807,812,819,827,833,844,849,864,882,932,1039,1066,1076,1080,1081,1081,1082,1082,1082,1083,1083,1083,1083,1083,1083,1083,1084,1084,1085,1085,1085],"ymouse":[622,622,622,622,622,622,622,622,622,622,622,622,622,622,622,622,622,622,622,622,622,622,622,622,622,622,622,622,622,622,622,622,622,622,622,622,622,622,622,622,622,622,622,622,601,578,553,528,505,468,447,415,389,341,249,221,201,187,176,165,162,160,159,157,157,157,157,157,157,155,148,146,133,121,92],"timestamp_mouse":[1,19,45,59,80,100,120,138,159,180,200,219,240,258,280,299,319,339,359,379,399,419,439,459,479,499,519,538,559,580,598,618,640,660,679,699,719,740,760,779,799,818,839,859,879,898,919,939,959,979,999,1019,1038,1060,1079,1099,1119,1139,1160,1178,1199,1219,1240,1258,1279,1299,1319,1339,1359,1379,1399,1419,1438,1459,1479],"xSR":741.5,"ySR":573.95,"xT1":424.9,"yT1":0,"xT2":1058.1,"yT2":0,"toosoon":0,"cond_shown":"equaldotsize","ratio_trial":900,"smaller_num":"18","larger_num":"20","correct_side":2,"subjID":"TalianaVigoya24","gender":"1","age":"9","school":"4"},{"start_time":1552328156861,"click_time":1552328158025,"finger_time":1552328157544,"fix_duration":793.9291506453524,"trial":56,"RT":683,"MT":481,"sideResp":1,"stimulus":"img/250/equaldotsize/L/5_Ratio_250_L_24_R_6.png","xmouse":[806,806,806,805,804,804,804,804,804,803,802,802,802,802,802,802,802,802,802,802,802,802,802,802,802,802,802,802,802,802,802,799,791,782,753,730,716,707,698,679,671,663,657,650,632,625,614,611,607,587,574,564,555,547,538,531,521,512,504],"ymouse":[625,625,625,624,622,622,622,621,621,621,620,620,620,620,620,620,620,620,620,620,620,620,620,620,620,620,620,620,620,620,620,617,604,588,547,513,492,473,453,410,389,372,358,343,318,310,300,296,291,264,248,234,218,201,172,155,130,110,91],"timestamp_mouse":[9,33,44,64,84,104,125,144,165,184,205,224,245,264,283,304,325,344,364,385,404,424,445,465,484,503,525,545,564,585,603,623,645,665,683,704,724,744,763,784,803,825,844,864,884,904,924,944,964,985,1004,1024,1043,1065,1084,1105,1124,1145,1164],"xSR":741.5,"ySR":573.95,"xT1":424.9,"yT1":0,"xT2":1058.1,"yT2":0,"toosoon":0,"cond_shown":"equaldotsize","ratio_trial":250,"smaller_num":"6","larger_num":"24","correct_side":1,"subjID":"TalianaVigoya24","gender":"1","age":"9","school":"4"},{"start_time":1552328159057,"click_time":1552328160345,"finger_time":1552328159745,"fix_duration":250,"trial":57,"RT":688,"MT":600,"sideResp":2,"stimulus":"img/750/equaldotsize/R/7_Ratio_750_L_3_R_4.png","xmouse":[815,815,815,815,815,815,815,815,815,815,815,815,815,815,815,815,815,815,815,815,815,815,815,815,815,815,815,815,815,815,815,815,819,824,880,910,942,971,987,1007,1014,1019,1022,1024,1024,1024,1024,1024,1024,1026,1027,1028,1029,1030,1033,1034,1036,1037,1038,1041,1043,1046,1049,1054,1061],"ymouse":[611,611,611,611,611,611,611,611,611,611,611,611,611,611,611,611,611,611,611,611,611,611,611,611,611,611,611,611,611,611,611,611,603,594,513,469,422,381,352,314,294,269,244,217,151,132,118,105,96,80,73,67,60,56,46,44,41,38,37,33,31,30,28,26,25],"timestamp_mouse":[19,46,49,68,87,109,129,148,169,188,208,229,248,269,289,309,328,349,369,388,408,429,448,468,488,509,529,549,568,588,609,628,647,668,688,708,728,748,767,789,807,829,848,868,888,908,928,949,968,988,1008,1027,1048,1068,1088,1108,1128,1148,1168,1189,1208,1228,1248,1269,1288],"xSR":741.5,"ySR":573.95,"xT1":424.9,"yT1":0,"xT2":1058.1,"yT2":0,"toosoon":0,"cond_shown":"equaldotsize","ratio_trial":750,"smaller_num":"3","larger_num":"4","correct_side":2,"subjID":"TalianaVigoya24","gender":"1","age":"9","school":"4"},{"start_time":1552328163482,"click_time":1552328164266,"finger_time":1552328164025,"fix_duration":615.2558941154083,"trial":58,"RT":543,"MT":241,"sideResp":1,"stimulus":"img/250/equaldotsize/L/2_Ratio_250_L_16_R_4.png","xmouse":[796,796,796,796,796,796,796,796,796,796,796,796,796,796,796,796,796,796,796,796,796,796,796,796,796,796,796,796,790,760,738,695,662,627,570,553,542,533,527,520],"ymouse":[585,585,585,585,585,585,585,585,585,585,585,585,585,585,585,585,585,585,585,585,585,585,585,585,585,585,578,563,540,456,402,311,253,192,100,73,51,33,18,4],"timestamp_mouse":[14,37,42,64,84,102,124,144,163,183,203,222,243,263,283,303,322,344,364,383,404,423,443,462,483,502,523,543,564,582,604,623,642,664,683,703,723,743,763,783],"xSR":741.5,"ySR":573.95,"xT1":424.9,"yT1":0,"xT2":1058.1,"yT2":0,"toosoon":0,"cond_shown":"equaldotsize","ratio_trial":250,"smaller_num":"4","larger_num":"16","correct_side":1,"subjID":"TalianaVigoya24","gender":"1","age":"9","school":"4"},{"start_time":1552328165616,"click_time":1552328166685,"finger_time":1552328166345,"fix_duration":250,"trial":59,"RT":729,"MT":340,"sideResp":1,"stimulus":"img/900/randomdotsizeEA/R/5_Ratio_900_L_9_R_10.png","xmouse":[815,815,815,815,815,815,815,815,815,815,815,815,815,815,815,815,815,815,815,815,815,815,815,815,815,815,815,815,815,815,815,815,815,815,814,803,787,729,694,666,637,614,584,575,570,567,562,546,537,527,520,516,506,500],"ymouse":[631,630,630,630,630,630,630,630,630,630,630,630,630,630,630,630,630,630,630,630,630,630,630,630,630,630,630,630,630,630,630,630,630,629,621,602,573,468,409,361,313,275,233,221,214,208,199,170,153,138,128,121,104,94],"timestamp_mouse":[10,37,49,69,89,109,130,149,170,189,210,230,249,270,289,310,330,350,368,390,409,430,450,469,489,509,529,550,570,589,609,629,649,670,688,710,729,749,769,789,809,829,849,869,889,909,929,949,969,990,1009,1029,1049,1068],"xSR":741.5,"ySR":573.95,"xT1":424.9,"yT1":0,"xT2":1058.1,"yT2":0,"toosoon":0,"cond_shown":"randomdotsizeEA","ratio_trial":900,"smaller_num":"9","larger_num":"10","correct_side":2,"subjID":"TalianaVigoya24","gender":"1","age":"9","school":"4"},{"start_time":1552328168616,"click_time":1552328169505,"finger_time":1552328169265,"fix_duration":1010.8573124005063,"trial":60,"RT":649,"MT":240,"sideResp":1,"stimulus":"img/900/randomdotsizeEA/R/9_Ratio_900_L_18_R_20.png","xmouse":[770,770,770,770,770,770,770,770,770,770,770,770,770,770,770,770,770,770,770,770,770,770,770,770,770,770,770,770,770,770,768,761,751,708,686,658,626,593,539,520,504,489,469,446,434],"ymouse":[602,602,602,602,602,602,602,602,602,602,602,602,602,602,602,602,602,602,602,602,602,602,602,602,602,602,602,602,602,598,595,581,564,504,471,432,388,334,255,227,207,185,155,113,93],"timestamp_mouse":[10,36,49,69,89,109,130,148,169,190,209,230,250,269,290,309,329,349,369,389,410,430,449,469,490,509,529,549,570,589,609,629,649,670,689,709,729,749,768,789,809,829,849,870,889],"xSR":741.5,"ySR":573.95,"xT1":424.9,"yT1":0,"xT2":1058.1,"yT2":0,"toosoon":0,"cond_shown":"randomdotsizeEA","ratio_trial":900,"smaller_num":"18","larger_num":"20","correct_side":2,"subjID":"TalianaVigoya24","gender":"1","age":"9","school":"4"},{"start_time":1552328171732,"click_time":1552328173085,"finger_time":1552328172304,"fix_duration":1345.0940919579682,"trial":61,"RT":572,"MT":781,"sideResp":2,"stimulus":"img/750/equaldotsize/R/7_Ratio_750_L_3_R_4.png","xmouse":[829,829,829,829,829,829,829,829,829,829,829,829,829,829,829,829,829,829,829,829,829,829,829,829,829,829,829,837,844,853,863,885,895,906,919,923,934,951,958,963,965,968,975,980,985,988,994,1003,1007,1011,1017,1025,1038,1044,1047,1050,1050,1053,1054,1055,1055,1055,1056,1057,1057,1058,1058,1060],"ymouse":[623,623,623,623,623,623,623,623,623,623,623,623,623,623,623,623,623,623,623,623,623,623,623,623,623,623,621,607,595,579,562,523,504,485,460,454,441,420,406,391,377,364,339,325,304,291,274,247,237,225,211,195,161,146,136,126,120,113,110,109,107,106,103,102,101,101,100,98],"timestamp_mouse":[13,37,52,74,93,114,133,153,173,194,214,233,253,273,293,313,333,353,374,394,414,432,454,474,493,514,532,553,572,594,613,634,654,673,693,714,733,753,773,793,813,832,852,874,893,914,933,954,973,993,1013,1034,1052,1074,1093,1113,1133,1152,1173,1192,1212,1234,1253,1272,1293,1313,1332,1353],"xSR":741.5,"ySR":573.95,"xT1":424.9,"yT1":0,"xT2":1058.1,"yT2":0,"toosoon":0,"cond_shown":"equaldotsize","ratio_trial":750,"smaller_num":"3","larger_num":"4","correct_side":2,"subjID":"TalianaVigoya24","gender":"1","age":"9","school":"4"},{"start_time":1552328174676,"click_time":1552328175925,"finger_time":1552328175345,"fix_duration":489.52336978632184,"trial":62,"RT":669,"MT":580,"sideResp":1,"stimulus":"img/250/randomdotsizeEA/L/3_Ratio_250_L_8_R_2.png","xmouse":[806,806,806,806,806,806,806,806,806,806,806,806,806,806,806,806,806,806,806,806,806,806,806,806,806,806,806,806,806,806,800,787,774,757,740,715,665,626,609,596,581,579,576,574,572,570,567,565,562,559,554,553,552,551,550,542,537,536,535,533,528,525,519],"ymouse":[626,626,626,626,626,626,626,626,626,626,626,626,626,626,626,626,626,626,626,626,626,626,626,626,626,626,626,626,626,626,619,599,582,562,539,508,436,369,329,285,228,210,194,180,169,156,136,129,124,118,110,109,107,106,105,101,99,99,97,95,89,86,82],"timestamp_mouse":[12,36,49,70,89,108,129,150,170,189,208,229,250,270,290,309,329,350,369,390,410,430,449,469,490,509,530,550,569,588,609,628,650,669,689,709,729,749,769,789,809,828,848,869,889,909,929,950,969,989,1009,1029,1050,1068,1091,1108,1128,1149,1169,1189,1209,1229,1249],"xSR":741.5,"ySR":573.95,"xT1":424.9,"yT1":0,"xT2":1058.1,"yT2":0,"toosoon":0,"cond_shown":"randomdotsizeEA","ratio_trial":250,"smaller_num":"2","larger_num":"8","correct_side":1,"subjID":"TalianaVigoya24","gender":"1","age":"9","school":"4"},{"start_time":1552328177037,"click_time":1552328177945,"finger_time":1552328177585,"fix_duration":250,"trial":63,"RT":548,"MT":360,"sideResp":1,"stimulus":"img/750/randomdotsizeEA/R/4_Ratio_750_L_15_R_20.png","xmouse":[766,766,766,766,766,766,766,766,766,766,766,766,766,766,766,766,766,766,766,766,766,766,766,766,766,766,766,763,758,751,742,732,713,704,696,686,672,659,623,613,603,593,565,549,534,520],"ymouse":[602,602,602,602,602,602,602,602,602,602,602,602,602,602,602,602,603,603,603,603,603,603,603,603,603,602,599,570,556,543,529,517,493,479,464,444,413,367,266,241,219,198,151,127,105,86],"timestamp_mouse":[13,37,48,68,88,108,128,148,168,189,209,229,248,268,289,309,328,347,367,389,409,428,448,469,489,507,528,548,568,588,608,628,648,667,688,708,728,747,768,788,808,828,849,868,888,908],"xSR":741.5,"ySR":573.95,"xT1":424.9,"yT1":0,"xT2":1058.1,"yT2":0,"toosoon":0,"cond_shown":"randomdotsizeEA","ratio_trial":750,"smaller_num":"15","larger_num":"20","correct_side":2,"subjID":"TalianaVigoya24","gender":"1","age":"9","school":"4"},{"start_time":1552328180295,"click_time":1552328181307,"finger_time":1552328180824,"fix_duration":1387.9307984049333,"trial":64,"RT":529,"MT":483,"sideResp":1,"stimulus":"img/900/randomdotsizeEA/L/10_Ratio_900_L_20_R_18.png","xmouse":[797,797,797,797,797,797,797,797,797,797,797,797,797,797,797,797,797,797,797,797,799,801,802,805,806,807,807,807,807,806,795,776,766,727,692,627,607,589,577,563,540,528,517,505,498,487,486,486,485,485,485],"ymouse":[605,605,605,605,605,605,605,605,605,605,605,605,605,605,605,605,605,605,605,605,605,603,601,594,590,578,571,562,554,543,515,485,472,427,396,342,325,308,295,277,242,222,203,176,159,127,119,113,106,100,95],"timestamp_mouse":[12,39,51,69,91,111,129,150,170,190,211,231,249,271,291,310,330,351,371,390,410,431,450,470,490,510,529,550,570,590,610,630,650,670,690,710,730,751,770,791,809,831,850,870,889,910,930,950,970,990,1012],"xSR":741.5,"ySR":573.95,"xT1":424.9,"yT1":0,"xT2":1058.1,"yT2":0,"toosoon":0,"cond_shown":"randomdotsizeEA","ratio_trial":900,"smaller_num":"18","larger_num":"20","correct_side":1,"subjID":"TalianaVigoya24","gender":"1","age":"9","school":"4"},{"start_time":1552328183937,"click_time":1552328185145,"finger_time":1552328184525,"fix_duration":250,"trial":65,"RT":588,"MT":620,"sideResp":2,"stimulus":"img/900/equaldotsize/L/8_Ratio_900_L_20_R_18.png","xmouse":[802,803,803,803,803,803,803,803,803,803,803,803,803,803,803,803,803,803,803,803,803,803,803,803,803,803,803,809,833,848,861,875,887,907,914,922,930,936,952,958,960,961,961,964,966,972,980,991,1008,1012,1016,1021,1026,1038,1049,1058,1067,1074,1079,1088,1089],"ymouse":[642,643,643,643,643,643,643,643,643,643,643,643,643,643,643,643,643,643,643,643,643,643,643,643,643,643,643,636,602,582,561,535,510,461,437,409,383,358,308,281,270,265,264,256,250,239,229,216,196,192,190,187,184,176,168,160,153,141,129,103,98],"timestamp_mouse":[14,30,48,69,87,109,128,149,167,188,208,229,249,268,288,308,329,349,369,389,409,428,448,468,489,509,527,549,568,588,608,629,648,668,687,709,728,747,768,788,808,828,848,868,888,908,928,949,968,989,1009,1028,1049,1068,1087,1108,1128,1149,1168,1189,1208],"xSR":741.5,"ySR":573.95,"xT1":424.9,"yT1":0,"xT2":1058.1,"yT2":0,"toosoon":0,"cond_shown":"equaldotsize","ratio_trial":900,"smaller_num":"18","larger_num":"20","correct_side":1,"subjID":"TalianaVigoya24","gender":"1","age":"9","school":"4"},{"start_time":1552328187660,"click_time":1552328189845,"finger_time":1552328189385,"fix_duration":1494.6860966451418,"trial":66,"RT":1725,"MT":460,"sideResp":2,"stimulus":"img/500/randomdotsizeEA/R/14_Ratio_500_L_5_R_10.png","xmouse":[766,766,766,766,766,766,766,766,766,766,766,766,766,766,766,766,766,766,766,766,766,766,766,766,766,766,766,766,766,766,766,766,766,766,766,766,766,766,766,766,766,766,766,766,766,766,766,766,766,766,766,766,766,766,766,766,766,766,766,766,766,766,766,766,766,766,766,766,766,766,766,766,766,766,766,766,766,766,766,766,766,766,766,773,782,795,811,829,882,910,916,940,956,984,996,1006,1013,1017,1023,1024,1026,1026,1026,1029,1033,1037,1040,1042,1052,1059],"ymouse":[601,601,601,601,601,601,601,601,601,601,601,601,601,601,601,601,601,601,601,601,601,601,601,601,601,601,601,601,601,601,601,601,601,601,601,601,601,601,601,601,601,601,601,601,601,601,601,601,601,601,601,601,601,601,601,601,601,601,601,601,601,601,601,601,601,601,601,601,601,601,601,601,601,601,601,601,601,601,601,601,601,601,601,598,589,576,553,521,421,350,326,254,216,154,127,103,81,67,48,44,43,43,43,42,42,42,41,41,41,41],"timestamp_mouse":[5,24,45,66,85,105,126,145,166,184,205,226,244,265,285,305,325,346,365,385,406,426,444,466,485,506,525,546,565,585,606,624,645,666,684,706,726,746,765,786,806,826,845,866,886,906,925,945,966,985,1006,1026,1045,1065,1086,1106,1125,1145,1165,1185,1206,1225,1245,1265,1286,1305,1326,1346,1364,1386,1406,1425,1445,1466,1485,1505,1526,1546,1565,1586,1605,1626,1644,1666,1684,1705,1725,1746,1765,1785,1805,1824,1846,1865,1885,1905,1925,1946,1965,1985,2005,2025,2045,2065,2085,2105,2125,2145,2165,2185],"xSR":741.5,"ySR":573.95,"xT1":424.9,"yT1":0,"xT2":1058.1,"yT2":0,"toosoon":0,"cond_shown":"rando