[{"start_time":1552314301010,"click_time":1552314305036,"finger_time":1552314301017,"fix_duration":690.6852010885925,"trial":0,"RT":7,"MT":4019,"sideResp":2,"stimulus":"img/900/randomdotsizeEA/R/15_Ratio_900_L_9_R_10.png","xmouse":[801,801,801,801,801,801,802,802,802,802,802,802,802,802,802,802,802,802,802,803,803,803,803,803,803,803,802,801,801,801,801,801,801,801,801,801,801,801,799,796,795,795,795,795,795,795,795,795,795,794,793,788,786,784,783,783,783,783,783,783,783,783,783,784,784,784,785,785,786,786,786,787,788,788,788,788,788,788,788,789,789,789,789,789,789,789,789,789,789,789,789,789,789,789,789,789,789,789,789,789,789,789,789,789,789,789,789,789,789,789,789,789,789,789,789,789,789,789,789,789,789,789,789,789,789,789,789,789,789,789,789,789,789,789,789,789,789,789,789,789,789,789,789,789,789,789,789,789,789,789,789,789,789,789,789,789,789,789,789,789,789,789,789,789,789,789,790,793,800,816,831,875,903,931,957,978,1016,1028,1040,1055,1064,1083,1091,1095,1100,1104,1115,1127,1131,1146,1159,1179,1185,1185,1185,1185,1184,1182,1179,1175,1170,1148],"ymouse":[496,496,496,497,498,499,499,499,499,499,499,499,499,499,499,499,499,499,499,500,500,500,500,500,501,501,502,503,503,503,503,504,504,505,507,516,523,533,542,550,553,554,554,554,554,554,554,554,554,556,560,574,584,588,592,593,595,596,596,596,596,597,598,599,600,602,605,606,607,607,607,609,610,612,612,612,612,612,612,612,614,614,614,614,614,614,614,614,614,614,614,614,614,614,614,614,614,614,614,614,614,614,614,614,614,614,614,614,614,614,614,614,614,614,614,614,614,614,614,614,614,614,614,614,614,614,614,614,614,614,614,614,614,614,614,614,614,614,614,614,614,614,614,614,614,614,614,614,614,614,614,614,614,614,614,614,614,614,614,614,614,614,614,614,614,614,615,615,613,607,599,567,541,509,479,456,424,413,399,376,359,316,290,257,230,205,163,136,126,103,90,72,65,64,63,63,62,61,59,57,54,46],"timestamp_mouse":[6,26,46,67,86,106,127,146,167,186,208,227,247,267,287,306,327,347,368,387,407,427,447,467,487,506,526,548,567,587,607,626,646,666,686,707,727,747,768,788,807,827,847,866,887,907,926,947,967,987,1006,1027,1046,1067,1086,1106,1127,1146,1167,1187,1207,1226,1246,1267,1287,1307,1326,1347,1367,1387,1407,1426,1446,1467,1487,1507,1526,1546,1566,1587,1606,1626,1648,1667,1686,1706,1726,1746,1766,1786,1807,1828,1846,1866,1887,1906,1926,1946,1966,1986,2006,2026,2047,2068,2087,2107,2126,2146,2166,2187,2207,2227,2247,2267,2287,2307,2327,2346,2367,2386,2406,2426,2447,2468,2487,2507,2526,2546,2566,2586,2606,2627,2646,2666,2687,2706,2726,2746,2766,2787,2806,2826,2846,2866,2888,2907,2927,2947,2967,2987,3007,3026,3046,3067,3086,3107,3127,3147,3167,3187,3207,3226,3246,3267,3287,3307,3326,3348,3368,3386,3407,3426,3446,3466,3486,3506,3526,3546,3566,3586,3606,3626,3646,3667,3687,3706,3726,3746,3766,3786,3806,3826,3847,3867,3887,3907,3926,3946,3967,3986,4006,4026],"xSR":741.5,"ySR":469.95,"xT1":424.9,"yT1":0,"xT2":1058.1,"yT2":0,"toosoon":0,"cond_shown":"randomdotsizeEA","ratio_trial":900,"smaller_num":"9","larger_num":"10","correct_side":2,"subjID":"angel gabriel polania amaya 9","gender":"0","age":"8","school":"4","test":{"fix_dur":[250,1500],"timestim":300,"targets_dim":[100,100],"targets_relative_coord":[0.3,0.7],"size_stim":[880,420],"start_dim":[100,100],"size_start":[300,300],"size_fix":60,"samplingrate":20,"img_types":["equaldotsize","equaldotanddens","randomdotsizeEA"],"ratios":[250,500,750,900],"rep_conds":9,"nTrials":120,"trials_to_rest":500,"Trials_order":[95,109,34,50,39,14,81,110,75,51,89,28,30,68,82,25,38,88,96,61,53,84,0,55,69,93,31,46,1,107,73,113,43,91,32,65,58,62,117,54,78,15,112,90,83,12,4,9,60,22,87,64,57,36,99,70,26,6,49,17,80,63,79,19,45,119,56,116,104,48,67,20,77,74,7,44,106,97,37,8,3,35,66,115,13,100,24,76,33,21,2,40,114,94,59,71,42,111,27,18,92,108,29,98,105,11,101,86,47,72,10,5,23,41,102,52,103,85,16,118],"cond_shown":["randomdotsizeEA","equaldotanddens","equaldotanddens","randomdotsizeEA","equaldotsize","randomdotsizeEA","equaldotsize","randomdotsizeEA","equaldotsize","equaldotsize","randomdotsizeEA","equaldotanddens","equaldotsize","randomdotsizeEA","equaldotanddens","equaldotanddens","randomdotsizeEA","equaldotanddens","equaldotsize","equaldotanddens","randomdotsizeEA","equaldotsize","equaldotsize","equaldotanddens","equaldotsize","equaldotsize","equaldotanddens","equaldotanddens","equaldotanddens","randomdotsizeEA","equaldotanddens","randomdotsizeEA","equaldotanddens","equaldotanddens","randomdotsizeEA","randomdotsizeEA","equaldotanddens","randomdotsizeEA","equaldotsize","equaldotsize","equaldotsize","equaldotsize","equaldotanddens","equaldotsize","randomdotsizeEA","equaldotsize","equaldotanddens","equaldotsize","equaldotsize","equaldotanddens","equaldotsize","equaldotanddens","equaldotsize","equaldotsize","equaldotsize","equaldotanddens","randomdotsizeEA","equaldotsize","equaldotanddens","randomdotsizeEA","randomdotsizeEA","equaldotsize","equaldotanddens","equaldotanddens","equaldotsize","randomdotsizeEA","randomdotsizeEA","randomdotsizeEA","randomdotsizeEA","equaldotsize","equaldotanddens","randomdotsizeEA","randomdotsizeEA","randomdotsizeEA","equaldotanddens","randomdotsizeEA","equaldotanddens","equaldotanddens","equaldotanddens","randomdotsizeEA","equaldotsize","randomdotsizeEA","equaldotsize","equaldotanddens","equaldotanddens","equaldotanddens","equaldotsize","equaldotanddens","equaldotsize","equaldotsize","randomdotsizeEA","equaldotanddens","equaldotsize","equaldotanddens","randomdotsizeEA","randomdotsizeEA","equaldotsize","equaldotsize","equaldotsize","equaldotsize","randomdotsizeEA","equaldotsize","randomdotsizeEA","randomdotsizeEA","equaldotsize","randomdotsizeEA","randomdotsizeEA","randomdotsizeEA","randomdotsizeEA","equaldotsize","equaldotanddens","randomdotsizeEA","randomdotsizeEA","randomdotsizeEA","equaldotsize","equaldotanddens","equaldotanddens","equaldotanddens","equaldotanddens","equaldotanddens"],"ratio_trial":[900,250,900,250,500,250,900,250,500,500,500,500,750,750,900,250,250,500,250,250,500,250,250,750,900,900,750,900,250,900,250,500,750,750,750,500,900,250,900,750,750,500,500,750,900,250,500,900,250,900,500,500,900,250,500,900,250,750,250,500,750,500,750,750,900,900,750,750,750,250,750,750,500,250,750,750,900,250,250,750,500,900,750,750,250,500,250,500,900,900,250,500,750,900,900,900,750,500,500,750,750,250,500,250,900,900,500,250,900,250,900,500,900,500,750,500,750,250,500,900],"smaller_num":["9","2","18","2","9","3","18","2","4","6","1","9","9","3","9","2","3","3","3","4","6","2","3","18","18","9","12","18","3","9","3","9","15","3","6","6","9","1","9","3","18","5","2","3","18","2","10","18","6","18","10","6","18","2","1","18","3","15","4","6","6","1","6","15","18","18","6","15","12","2","18","3","2","3","12","3","18","6","3","3","5","18","9","3","3","2","2","5","18","18","2","1","15","18","9","18","3","1","10","3","18","6","5","6","18","18","9","3","18","3","9","6","9","6","18","9","12","3","5","18"],"larger_num":["10","8","20","8","18","12","20","8","8","12","2","18","12","4","10","8","12","6","12","16","12","8","12","24","20","10","16","20","12","10","12","18","20","4","8","12","10","4","10","4","24","10","4","4","20","8","20","20","24","20","20","12","20","8","2","20","12","20","16","12","8","2","8","20","20","20","8","20","16","8","24","4","4","12","16","4","20","24","12","4","10","20","12","4","12","4","8","10","20","20","8","2","20","20","10","20","4","2","20","4","24","24","10","24","20","20","18","12","20","12","10","12","10","12","24","18","16","12","10","20"],"correct_side":[2,1,2,1,2,1,1,1,1,1,2,1,2,2,2,1,1,2,2,1,1,1,1,1,1,1,2,2,2,2,1,1,2,1,2,1,2,2,2,1,1,2,1,1,2,2,2,1,2,2,2,1,1,1,2,1,1,1,1,1,1,2,1,2,1,1,1,2,2,1,1,2,1,1,2,1,1,2,1,1,2,1,2,1,1,1,1,1,1,2,1,2,2,1,2,1,1,2,2,1,1,1,1,2,2,2,2,1,1,2,2,1,2,1,1,2,2,1,2,1],"img_shown":["img/900/randomdotsizeEA/R/15_Ratio_900_L_9_R_10.png","img/250/equaldotanddens/L/3_Ratio_250_L_8_R_2.png","img/900/equaldotanddens/R/9_Ratio_900_L_18_R_20.png","img/250/randomdotsizeEA/L/7_Ratio_250_L_8_R_2.png","img/500/equaldotsize/R/1_Ratio_500_L_9_R_18.png","img/250/randomdotsizeEA/L/15_Ratio_250_L_12_R_3.png","img/900/equaldotsize/L/8_Ratio_900_L_20_R_18.png","img/250/randomdotsizeEA/L/7_Ratio_250_L_8_R_2.png","img/500/equaldotsize/L/8_Ratio_500_L_8_R_4.png","img/500/equaldotsize/L/13_Ratio_500_L_12_R_6.png","img/500/randomdotsizeEA/R/12_Ratio_500_L_1_R_2.png","img/500/equaldotanddens/L/4_Ratio_500_L_18_R_9.png","img/750/equaldotsize/R/15_Ratio_750_L_9_R_12.png","img/750/randomdotsizeEA/R/7_Ratio_750_L_3_R_4.png","img/900/equaldotanddens/R/5_Ratio_900_L_9_R_10.png","img/250/equaldotanddens/L/7_Ratio_250_L_8_R_2.png","img/250/randomdotsizeEA/L/15_Ratio_250_L_12_R_3.png","img/500/equaldotanddens/R/2_Ratio_500_L_3_R_6.png","img/250/equaldotsize/R/4_Ratio_250_L_3_R_12.png","img/250/equaldotanddens/L/2_Ratio_250_L_16_R_4.png","img/500/randomdotsizeEA/L/13_Ratio_500_L_12_R_6.png","img/250/equaldotsize/L/7_Ratio_250_L_8_R_2.png","img/250/equaldotsize/L/15_Ratio_250_L_12_R_3.png","img/750/equaldotanddens/L/6_Ratio_750_L_24_R_18.png","img/900/equaldotsize/L/2_Ratio_900_L_20_R_18.png","img/900/equaldotsize/L/1_Ratio_900_L_10_R_9.png","img/750/equaldotanddens/R/11_Ratio_750_L_12_R_16.png","img/900/equaldotanddens/R/9_Ratio_900_L_18_R_20.png","img/250/equaldotanddens/R/11_Ratio_250_L_3_R_12.png","img/900/randomdotsizeEA/R/6_Ratio_900_L_9_R_10.png","img/250/equaldotanddens/L/14_Ratio_250_L_12_R_3.png","img/500/randomdotsizeEA/L/4_Ratio_500_L_18_R_9.png","img/750/equaldotanddens/R/5_Ratio_750_L_15_R_20.png","img/750/equaldotanddens/L/10_Ratio_750_L_4_R_3.png","img/750/randomdotsizeEA/R/2_Ratio_750_L_6_R_8.png","img/500/randomdotsizeEA/L/11_Ratio_500_L_12_R_6.png","img/900/equaldotanddens/R/15_Ratio_900_L_9_R_10.png","img/250/randomdotsizeEA/R/8_Ratio_250_L_1_R_4.png","img/900/equaldotsize/R/3_Ratio_900_L_9_R_10.png","img/750/equaldotsize/L/10_Ratio_750_L_4_R_3.png","img/750/equaldotsize/L/6_Ratio_750_L_24_R_18.png","img/500/equaldotsize/R/14_Ratio_500_L_5_R_10.png","img/500/equaldotanddens/L/5_Ratio_500_L_4_R_2.png","img/750/equaldotsize/L/9_Ratio_750_L_4_R_3.png","img/900/randomdotsizeEA/R/12_Ratio_900_L_18_R_20.png","img/250/equaldotsize/R/13_Ratio_250_L_2_R_8.png","img/500/equaldotanddens/R/3_Ratio_500_L_10_R_20.png","img/900/equaldotsize/L/8_Ratio_900_L_20_R_18.png","img/250/equaldotsize/R/6_Ratio_250_L_6_R_24.png","img/900/equaldotanddens/R/9_Ratio_900_L_18_R_20.png","img/500/equaldotsize/R/3_Ratio_500_L_10_R_20.png","img/500/equaldotanddens/L/13_Ratio_500_L_12_R_6.png","img/900/equaldotsize/L/4_Ratio_900_L_20_R_18.png","img/250/equaldotsize/L/3_Ratio_250_L_8_R_2.png","img/500/equaldotsize/R/15_Ratio_500_L_1_R_2.png","img/900/equaldotanddens/L/10_Ratio_900_L_20_R_18.png","img/250/randomdotsizeEA/L/15_Ratio_250_L_12_R_3.png","img/750/equaldotsize/L/1_Ratio_750_L_20_R_15.png","img/250/equaldotanddens/L/2_Ratio_250_L_16_R_4.png","img/500/randomdotsizeEA/L/11_Ratio_500_L_12_R_6.png","img/750/randomdotsizeEA/L/13_Ratio_750_L_8_R_6.png","img/500/equaldotsize/R/15_Ratio_500_L_1_R_2.png","img/750/equaldotanddens/L/13_Ratio_750_L_8_R_6.png","img/750/equaldotanddens/R/5_Ratio_750_L_15_R_20.png","img/900/equaldotsize/L/4_Ratio_900_L_20_R_18.png","img/900/randomdotsizeEA/L/8_Ratio_900_L_20_R_18.png","img/750/randomdotsizeEA/L/13_Ratio_750_L_8_R_6.png","img/750/randomdotsizeEA/R/4_Ratio_750_L_15_R_20.png","img/750/randomdotsizeEA/R/11_Ratio_750_L_12_R_16.png","img/250/equaldotsize/L/1_Ratio_250_L_8_R_2.png","img/750/equaldotanddens/L/6_Ratio_750_L_24_R_18.png","img/750/randomdotsizeEA/R/7_Ratio_750_L_3_R_4.png","img/500/randomdotsizeEA/L/5_Ratio_500_L_4_R_2.png","img/250/randomdotsizeEA/L/14_Ratio_250_L_12_R_3.png","img/750/equaldotanddens/R/11_Ratio_750_L_12_R_16.png","img/750/randomdotsizeEA/L/10_Ratio_750_L_4_R_3.png","img/900/equaldotanddens/L/8_Ratio_900_L_20_R_18.png","img/250/equaldotanddens/R/6_Ratio_250_L_6_R_24.png","img/250/equaldotanddens/L/15_Ratio_250_L_12_R_3.png","img/750/randomdotsizeEA/L/10_Ratio_750_L_4_R_3.png","img/500/equaldotsize/R/14_Ratio_500_L_5_R_10.png","img/900/randomdotsizeEA/L/10_Ratio_900_L_20_R_18.png","img/750/equaldotsize/R/15_Ratio_750_L_9_R_12.png","img/750/equaldotanddens/L/8_Ratio_750_L_4_R_3.png","img/250/equaldotanddens/L/14_Ratio_250_L_12_R_3.png","img/500/equaldotanddens/L/10_Ratio_500_L_4_R_2.png","img/250/equaldotsize/L/1_Ratio_250_L_8_R_2.png","img/500/equaldotanddens/L/7_Ratio_500_L_10_R_5.png","img/900/equaldotsize/L/4_Ratio_900_L_20_R_18.png","img/900/equaldotsize/R/11_Ratio_900_L_18_R_20.png","img/250/randomdotsizeEA/L/1_Ratio_250_L_8_R_2.png","img/500/equaldotanddens/R/15_Ratio_500_L_1_R_2.png","img/750/equaldotsize/R/3_Ratio_750_L_15_R_20.png","img/900/equaldotanddens/L/10_Ratio_900_L_20_R_18.png","img/900/randomdotsizeEA/R/3_Ratio_900_L_9_R_10.png","img/900/randomdotsizeEA/L/8_Ratio_900_L_20_R_18.png","img/750/equaldotsize/L/10_Ratio_750_L_4_R_3.png","img/500/equaldotsize/R/12_Ratio_500_L_1_R_2.png","img/500/equaldotsize/R/3_Ratio_500_L_10_R_20.png","img/750/equaldotsize/L/8_Ratio_750_L_4_R_3.png","img/750/randomdotsizeEA/L/6_Ratio_750_L_24_R_18.png","img/250/equaldotsize/L/5_Ratio_250_L_24_R_6.png","img/500/randomdotsizeEA/L/7_Ratio_500_L_10_R_5.png","img/250/randomdotsizeEA/R/6_Ratio_250_L_6_R_24.png","img/900/equaldotsize/R/9_Ratio_900_L_18_R_20.png","img/900/randomdotsizeEA/R/13_Ratio_900_L_18_R_20.png","img/500/randomdotsizeEA/R/1_Ratio_500_L_9_R_18.png","img/250/randomdotsizeEA/L/15_Ratio_250_L_12_R_3.png","img/900/randomdotsizeEA/L/10_Ratio_900_L_20_R_18.png","img/250/equaldotsize/R/4_Ratio_250_L_3_R_12.png","img/900/equaldotanddens/R/3_Ratio_900_L_9_R_10.png","img/500/randomdotsizeEA/L/13_Ratio_500_L_12_R_6.png","img/900/randomdotsizeEA/R/3_Ratio_900_L_9_R_10.png","img/500/randomdotsizeEA/L/13_Ratio_500_L_12_R_6.png","img/750/equaldotsize/L/6_Ratio_750_L_24_R_18.png","img/500/equaldotanddens/R/1_Ratio_500_L_9_R_18.png","img/750/equaldotanddens/R/11_Ratio_750_L_12_R_16.png","img/250/equaldotanddens/L/14_Ratio_250_L_12_R_3.png","img/500/equaldotanddens/R/14_Ratio_500_L_5_R_10.png","img/900/equaldotanddens/L/4_Ratio_900_L_20_R_18.png"],"Rat0":[["12_Ratio_0_L_9_R_0.png","13_Ratio_0_L_6_R_0.png","5_Ratio_0_L_2_R_0.png","6_Ratio_0_L_4_R_0.png","8_Ratio_0_L_6_R_0.png"],["1_Ratio_0_L_0_R_17.png","10_Ratio_0_L_0_R_22.png","11_Ratio_0_L_0_R_1.png","14_Ratio_0_L_0_R_24.png","15_Ratio_0_L_0_R_4.png","2_Ratio_0_L_0_R_5.png","3_Ratio_0_L_0_R_17.png","4_Ratio_0_L_0_R_7.png","7_Ratio_0_L_0_R_19.png","9_Ratio_0_L_0_R_15.png"]],"Rat250":[["1_Ratio_250_L_8_R_2.png","14_Ratio_250_L_12_R_3.png","15_Ratio_250_L_12_R_3.png","2_Ratio_250_L_16_R_4.png","3_Ratio_250_L_8_R_2.png","5_Ratio_250_L_24_R_6.png","7_Ratio_250_L_8_R_2.png"],["10_Ratio_250_L_4_R_16.png","11_Ratio_250_L_3_R_12.png","12_Ratio_250_L_5_R_20.png","13_Ratio_250_L_2_R_8.png","4_Ratio_250_L_3_R_12.png","6_Ratio_250_L_6_R_24.png","8_Ratio_250_L_1_R_4.png","9_Ratio_250_L_3_R_12.png"]],"Rat500":[["10_Ratio_500_L_4_R_2.png","11_Ratio_500_L_12_R_6.png","13_Ratio_500_L_12_R_6.png","4_Ratio_500_L_18_R_9.png","5_Ratio_500_L_4_R_2.png","7_Ratio_500_L_10_R_5.png","8_Ratio_500_L_8_R_4.png"],["1_Ratio_500_L_9_R_18.png","12_Ratio_500_L_1_R_2.png","14_Ratio_500_L_5_R_10.png","15_Ratio_500_L_1_R_2.png","2_Ratio_500_L_3_R_6.png","3_Ratio_500_L_10_R_20.png","6_Ratio_500_L_9_R_18.png","9_Ratio_500_L_2_R_4.png"]],"Rat750":[["1_Ratio_750_L_20_R_15.png","10_Ratio_750_L_4_R_3.png","13_Ratio_750_L_8_R_6.png","14_Ratio_750_L_8_R_6.png","6_Ratio_750_L_24_R_18.png","8_Ratio_750_L_4_R_3.png","9_Ratio_750_L_4_R_3.png"],["11_Ratio_750_L_12_R_16.png","12_Ratio_750_L_3_R_4.png","15_Ratio_750_L_9_R_12.png","2_Ratio_750_L_6_R_8.png","3_Ratio_750_L_15_R_20.png","4_Ratio_750_L_15_R_20.png","5_Ratio_750_L_15_R_20.png","7_Ratio_750_L_3_R_4.png"]],"Rat900":[["1_Ratio_900_L_10_R_9.png","10_Ratio_900_L_20_R_18.png","2_Ratio_900_L_20_R_18.png","4_Ratio_900_L_20_R_18.png","8_Ratio_900_L_20_R_18.png"],["11_Ratio_900_L_18_R_20.png","12_Ratio_900_L_18_R_20.png","13_Ratio_900_L_18_R_20.png","14_Ratio_900_L_18_R_20.png","15_Ratio_900_L_9_R_10.png","3_Ratio_900_L_9_R_10.png","5_Ratio_900_L_9_R_10.png","6_Ratio_900_L_9_R_10.png","7_Ratio_900_L_9_R_10.png","9_Ratio_900_L_18_R_20.png"]],"Rat1000":[["10_Ratio_1000_L_16_R_16.png","11_Ratio_1000_L_6_R_6.png","12_Ratio_1000_L_14_R_14.png","13_Ratio_1000_L_20_R_20.png","15_Ratio_1000_L_15_R_15.png","2_Ratio_1000_L_17_R_17.png","4_Ratio_1000_L_9_R_9.png","5_Ratio_1000_L_6_R_6.png","6_Ratio_1000_L_19_R_19.png","8_Ratio_1000_L_14_R_14.png","9_Ratio_1000_L_25_R_25.png"],["1_Ratio_1000_L_1_R_1.png","14_Ratio_1000_L_17_R_17.png","3_Ratio_1000_L_17_R_17.png","7_Ratio_1000_L_6_R_6.png"]]}},{"start_time":1552314307045,"click_time":1552314308657,"finger_time":1552314307957,"fix_duration":265.1628056252786,"trial":1,"RT":912,"MT":700,"sideResp":1,"stimulus":"img/250/equaldotanddens/L/3_Ratio_250_L_8_R_2.png","xmouse":[784,785,786,786,786,786,786,786,786,786,786,786,786,786,786,786,786,786,786,786,786,786,786,786,786,786,786,786,786,786,786,786,786,786,786,786,786,786,786,786,786,786,786,786,790,792,792,792,792,791,769,750,733,719,705,704,700,692,682,654,642,630,624,622,610,606,604,603,601,598,590,580,566,554,540,537,535,533,531,525,522],"ymouse":[634,633,633,633,633,633,633,633,633,633,633,633,633,633,633,633,633,633,633,633,633,633,633,633,633,633,633,633,633,633,633,633,633,633,633,633,633,633,633,633,633,633,633,631,608,533,460,373,278,177,0,0,0,0,0,0,0,0,1,1,1,3,4,5,7,8,9,10,10,11,13,15,16,17,19,21,22,23,24,26,26],"timestamp_mouse":[13,31,51,71,91,111,131,152,172,191,212,231,251,271,292,311,331,351,372,392,412,432,452,472,491,512,532,552,572,591,611,631,651,672,691,712,732,753,772,792,813,832,851,872,891,912,932,951,971,991,1011,1031,1051,1072,1092,1111,1132,1152,1171,1191,1211,1231,1252,1271,1292,1311,1331,1351,1371,1391,1411,1431,1452,1471,1492,1511,1531,1552,1572,1591,1611],"xSR":741.5,"ySR":573.95,"xT1":424.9,"yT1":0,"xT2":1058.1,"yT2":0,"toosoon":0,"cond_shown":"equaldotanddens","ratio_trial":250,"smaller_num":"2","larger_num":"8","correct_side":1,"subjID":"angel gabriel polania amaya 9","gender":"0","age":"8","school":"4"},{"start_time":1552314310296,"click_time":1552314312156,"finger_time":1552314311237,"fix_duration":336.28792439548226,"trial":2,"RT":941,"MT":919,"sideResp":2,"stimulus":"img/900/equaldotanddens/R/9_Ratio_900_L_18_R_20.png","xmouse":[785,785,785,785,785,785,785,785,785,785,785,785,785,785,785,785,785,785,785,785,786,786,786,786,786,786,786,786,786,786,786,786,786,786,786,786,786,786,786,786,787,787,787,787,788,790,796,823,839,859,890,927,966,1062,1098,1136,1183,1220,1260,1270,1277,1283,1287,1289,1289,1289,1289,1289,1279,1273,1263,1248,1237,1216,1210,1205,1203,1203,1201,1197,1190,1190,1185,1177,1173,1171,1169,1168,1164,1163,1163,1163,1159,1148],"ymouse":[591,591,591,591,591,591,591,591,591,591,591,591,591,591,591,591,591,591,591,591,591,591,591,591,591,591,591,591,591,591,591,591,591,591,591,591,591,591,591,591,591,592,592,592,592,591,586,565,549,530,503,467,425,326,292,260,227,195,150,131,111,91,60,22,11,7,7,6,6,7,10,14,17,24,26,27,27,27,27,28,31,31,33,33,33,33,33,34,34,35,35,35,35,35],"timestamp_mouse":[10,21,40,60,81,101,120,142,161,182,200,221,240,262,281,301,320,341,360,381,401,421,441,460,481,501,520,542,560,581,601,620,641,660,681,702,721,741,760,780,801,822,841,861,880,901,921,941,960,981,1001,1020,1040,1060,1081,1100,1120,1141,1160,1180,1201,1220,1242,1260,1280,1300,1320,1340,1360,1382,1401,1421,1440,1460,1481,1500,1521,1541,1560,1580,1600,1620,1640,1662,1680,1700,1720,1740,1760,1780,1801,1821,1841,1860],"xSR":741.5,"ySR":573.95,"xT1":424.9,"yT1":0,"xT2":1058.1,"yT2":0,"toosoon":0,"cond_shown":"equaldotanddens","ratio_trial":900,"smaller_num":"18","larger_num":"20","correct_side":2,"subjID":"angel gabriel polania amaya 9","gender":"0","age":"8","school":"4"},{"start_time":1552314314830,"click_time":1552314316476,"finger_time":1552314316037,"fix_duration":911.9665433005366,"trial":3,"RT":1207,"MT":439,"sideResp":1,"stimulus":"img/250/randomdotsizeEA/L/7_Ratio_250_L_8_R_2.png","xmouse":[795,795,795,795,795,795,795,795,795,795,795,795,795,795,795,795,795,795,795,795,795,795,795,795,795,795,795,795,795,797,797,799,800,802,805,807,812,812,812,812,812,813,813,813,813,813,813,813,813,813,813,813,813,813,813,812,810,809,807,804,800,790,759,725,707,698,682,669,655,638,624,612,586,573,556,534,499,494,493,493,493,494,495],"ymouse":[628,628,628,628,628,628,628,628,628,628,628,628,628,628,628,628,628,628,628,628,628,628,628,628,628,628,628,628,628,627,626,623,621,618,615,614,611,611,611,611,611,610,610,610,610,610,610,610,610,610,610,610,610,610,610,610,607,602,596,582,558,528,441,385,359,343,313,294,277,260,244,231,209,202,192,180,154,145,137,128,117,104,99],"timestamp_mouse":[9,26,48,66,87,106,127,146,167,186,207,227,246,266,287,307,327,346,367,386,408,426,447,467,488,507,527,547,568,586,607,626,647,666,688,707,726,747,766,788,807,827,847,866,887,908,927,946,967,986,1006,1026,1047,1067,1087,1106,1126,1146,1167,1187,1207,1226,1246,1267,1286,1306,1326,1346,1367,1387,1407,1427,1448,1467,1487,1506,1526,1546,1566,1587,1606,1626,1646],"xSR":741.5,"ySR":573.95,"xT1":424.9,"yT1":0,"xT2":1058.1,"yT2":0,"toosoon":0,"cond_shown":"randomdotsizeEA","ratio_trial":250,"smaller_num":"2","larger_num":"8","correct_side":1,"subjID":"angel gabriel polania amaya 9","gender":"0","age":"8","school":"4"},{"start_time":1552314318174,"click_time":1552314319736,"finger_time":1552314319038,"fix_duration":454.4856431758637,"trial":4,"RT":864,"MT":698,"sideResp":2,"stimulus":"img/500/equaldotsize/R/1_Ratio_500_L_9_R_18.png","xmouse":[803,803,803,802,799,795,792,790,789,788,788,787,787,787,787,787,787,787,787,786,786,785,784,783,781,780,780,780,780,780,780,780,780,779,779,779,779,779,779,779,784,798,818,846,867,926,953,980,1014,1052,1126,1144,1164,1184,1203,1239,1247,1249,1249,1246,1232,1230,1224,1220,1207,1193,1188,1184,1180,1178,1173,1170,1167,1167,1167,1167,1163,1159,1153],"ymouse":[655,655,655,655,655,655,655,655,655,655,655,655,655,655,655,655,655,655,655,655,655,655,655,655,655,655,655,655,655,655,655,655,655,655,655,655,655,655,655,655,646,628,599,555,509,410,371,335,297,264,211,195,177,154,127,71,52,33,13,0,0,0,0,0,6,13,17,21,24,27,37,41,44,44,44,44,45,45,45],"timestamp_mouse":[12,33,43,63,83,102,122,143,162,183,202,222,243,262,282,302,323,342,363,383,403,423,442,464,483,503,522,543,563,582,604,622,643,663,684,703,723,742,763,782,802,823,842,864,882,903,922,943,962,983,1002,1022,1042,1062,1082,1103,1122,1142,1162,1182,1203,1222,1243,1262,1283,1302,1323,1342,1362,1383,1402,1422,1443,1463,1483,1502,1522,1543,1562],"xSR":741.5,"ySR":573.95,"xT1":424.9,"yT1":0,"xT2":1058.1,"yT2":0,"toosoon":0,"cond_shown":"equaldotsize","ratio_trial":500,"smaller_num":"9","larger_num":"18","correct_side":2,"subjID":"angel gabriel polania amaya 9","gender":"0","age":"8","school":"4"},{"start_time":1552314324323,"click_time":1552314326056,"finger_time":1552314324836,"fix_duration":1466.8940616029456,"trial":5,"RT":513,"MT":1220,"sideResp":1,"stimulus":"img/250/randomdotsizeEA/L/15_Ratio_250_L_12_R_3.png","xmouse":[823,823,823,823,823,823,823,823,823,823,823,823,823,823,823,823,823,823,823,823,823,823,823,824,833,844,858,893,911,925,933,938,940,941,942,942,942,938,935,933,933,932,925,913,819,754,587,407,90,0,0,0,0,0,0,0,0,0,0,1,2,8,33,52,70,86,101,122,138,168,222,282,346,346,346,346,346,346,346,347,347,346,345,350,381,420,443],"ymouse":[615,615,615,615,615,615,615,615,615,615,615,615,615,615,615,615,615,615,615,615,615,615,615,611,599,585,564,517,492,473,460,451,446,444,443,443,443,443,443,443,443,443,439,424,348,303,192,71,0,0,0,0,0,0,0,0,0,0,0,0,2,5,8,12,14,17,19,21,21,21,21,14,0,0,0,0,0,1,3,7,10,11,11,13,22,33,38],"timestamp_mouse":[13,34,53,73,93,113,133,153,173,193,213,233,254,280,293,313,333,353,374,395,415,435,453,474,493,513,533,553,573,593,613,633,653,673,693,713,733,753,773,794,814,834,853,874,896,913,933,954,973,994,1013,1033,1054,1073,1093,1113,1134,1154,1174,1194,1213,1234,1255,1273,1293,1313,1333,1355,1373,1393,1413,1434,1453,1474,1494,1513,1533,1554,1573,1594,1613,1633,1654,1674,1694,1714,1733],"xSR":741.5,"ySR":573.95,"xT1":424.9,"yT1":0,"xT2":1058.1,"yT2":0,"toosoon":0,"cond_shown":"randomdotsizeEA","ratio_trial":250,"smaller_num":"3","larger_num":"12","correct_side":1,"subjID":"angel gabriel polania amaya 9","gender":"0","age":"8","school":"4"},{"start_time":1552314329938,"click_time":1552314331757,"finger_time":1552314330657,"fix_duration":700.4118050635511,"trial":6,"RT":719,"MT":1100,"sideResp":2,"stimulus":"img/900/equaldotsize/L/8_Ratio_900_L_20_R_18.png","xmouse":[797,797,797,797,797,796,796,799,800,800,800,800,800,800,800,800,800,800,800,800,800,799,799,799,799,799,799,799,798,797,795,794,791,787,783,778,774,763,755,740,727,713,684,677,674,674,674,674,674,674,674,687,800,900,1009,1115,1220,1361,1402,1414,1420,1425,1433,1433,1433,1433,1433,1412,1384,1300,1239,1177,1084,1062,1045,1034,1033,1032,1032,1032,1032,1032,1032,1032,1033,1036,1039,1044,1049,1058,1061],"ymouse":[633,633,633,633,633,633,631,627,627,627,626,626,626,626,626,626,626,626,626,626,626,626,626,626,626,626,626,626,626,624,622,620,613,598,575,548,522,472,449,414,394,377,349,343,342,342,342,340,335,324,316,309,306,306,306,304,291,240,192,159,137,125,116,116,116,116,116,110,101,68,43,19,0,0,0,0,0,0,0,0,0,0,0,0,0,0,0,0,2,6,8],"timestamp_mouse":[18,38,59,78,98,118,138,158,178,198,218,238,259,280,298,319,339,358,378,398,419,438,459,479,498,519,539,559,579,598,618,638,658,678,698,719,737,758,779,798,818,838,858,878,899,917,939,958,978,998,1018,1038,1058,1079,1098,1118,1137,1158,1177,1198,1218,1238,1258,1279,1299,1318,1338,1358,1379,1398,1419,1438,1459,1478,1498,1518,1539,1558,1578,1599,1618,1638,1658,1678,1699,1717,1737,1759,1778,1798,1819],"xSR":741.5,"ySR":573.95,"xT1":424.9,"yT1":0,"xT2":1058.1,"yT2":0,"toosoon":0,"cond_shown":"equaldotsize","ratio_trial":900,"smaller_num":"18","larger_num":"20","correct_side":1,"subjID":"angel gabriel polania amaya 9","gender":"0","age":"8","school":"4"},{"start_time":1552314335428,"click_time":1552314336737,"finger_time":1552314335557,"fix_duration":250,"trial":7,"RT":129,"MT":1180,"sideResp":1,"stimulus":"img/250/randomdotsizeEA/L/7_Ratio_250_L_8_R_2.png","xmouse":[755,755,755,753,748,746,744,742,738,734,731,727,723,718,708,700,696,692,686,684,684,684,684,684,684,684,684,684,684,683,681,678,673,662,649,644,643,642,642,641,639,639,639,638,635,632,625,618,612,598,592,587,580,579,576,575,574,573,567,563,559,555,547,544,526,511],"ymouse":[593,593,593,588,580,575,572,570,564,552,542,529,515,497,463,448,437,426,409,402,398,397,396,396,396,396,395,395,393,385,372,350,317,239,141,110,92,84,83,83,83,83,83,83,83,83,81,79,78,77,77,77,77,77,77,77,77,77,76,76,76,74,73,71,67,64],"timestamp_mouse":[13,34,48,67,87,108,129,148,169,188,209,228,247,269,289,308,328,348,369,388,409,427,448,469,489,509,528,548,568,587,608,629,648,668,688,708,728,748,768,787,808,829,849,868,888,908,929,948,968,987,1008,1028,1049,1068,1089,1108,1127,1149,1169,1188,1209,1228,1249,1268,1289,1308],"xSR":741.5,"ySR":573.95,"xT1":424.9,"yT1":0,"xT2":1058.1,"yT2":0,"toosoon":0,"cond_shown":"randomdotsizeEA","ratio_trial":250,"smaller_num":"2","larger_num":"8","correct_side":1,"subjID":"angel gabriel polania amaya 9","gender":"0","age":"8","school":"4"},{"start_time":1552314339087,"click_time":1552314340816,"finger_time":1552314340136,"fix_duration":1169.4877563849527,"trial":8,"RT":1049,"MT":680,"sideResp":1,"stimulus":"img/500/equaldotsize/L/8_Ratio_500_L_8_R_4.png","xmouse":[774,774,774,774,774,774,774,774,774,774,774,774,775,775,775,775,775,775,775,775,775,775,775,775,775,775,775,775,775,775,775,775,775,775,775,775,775,775,775,775,775,775,775,775,775,775,775,775,774,768,765,754,749,742,737,732,706,678,671,655,652,652,652,652,652,651,642,631,618,591,571,531,515,503,495,492,489,489,489,488,488,488,488,488,490,490,490],"ymouse":[613,613,613,613,613,613,613,613,613,613,613,613,613,613,613,613,613,613,613,613,613,613,613,613,613,613,613,613,613,613,613,613,613,613,613,613,613,613,613,613,613,613,613,613,613,612,612,611,611,608,605,581,555,519,480,442,357,293,276,240,233,230,230,230,229,227,213,204,196,184,174,150,139,129,121,117,115,115,115,115,115,115,115,113,110,107,95],"timestamp_mouse":[14,28,49,70,89,109,129,150,170,188,210,229,249,270,290,310,328,350,369,390,410,429,450,469,488,510,530,549,568,590,610,629,650,670,690,708,730,750,768,790,810,829,850,870,890,909,929,950,969,989,1010,1029,1049,1069,1090,1109,1129,1149,1169,1190,1210,1229,1249,1268,1288,1310,1328,1349,1369,1389,1409,1429,1449,1469,1489,1509,1530,1549,1570,1589,1609,1629,1649,1670,1689,1709,1729],"xSR":741.5,"ySR":573.95,"xT1":424.9,"yT1":0,"xT2":1058.1,"yT2":0,"toosoon":0,"cond_shown":"equaldotsize","ratio_trial":500,"smaller_num":"4","larger_num":"8","correct_side":1,"subjID":"angel gabriel polania amaya 9","gender":"0","age":"8","school":"4"},{"start_time":1552314344017,"click_time":1552314345617,"finger_time":1552314344877,"fix_duration":1139.9715811407564,"trial":9,"RT":860,"MT":740,"sideResp":2,"stimulus":"img/500/equaldotsize/L/13_Ratio_500_L_12_R_6.png","xmouse":[781,783,783,783,784,785,786,787,789,790,790,790,790,790,790,790,790,790,790,790,790,790,790,790,790,790,790,790,790,790,790,790,790,790,790,790,790,790,790,791,789,782,774,760,729,706,684,663,652,649,649,649,650,654,659,672,681,697,718,746,830,869,913,950,983,1009,1009,1009,1009,1009,1010,1012,1016,1020,1029,1050,1062,1074,1085,1102],"ymouse":[594,594,594,594,594,594,593,593,593,593,593,593,593,593,593,593,593,593,593,593,593,593,593,593,593,593,593,593,593,593,593,593,593,593,593,593,593,593,593,592,585,574,559,536,445,364,283,212,164,137,136,135,135,135,135,132,129,127,126,125,125,135,148,158,168,173,173,173,173,173,173,173,170,165,152,134,123,116,109,96],"timestamp_mouse":[19,48,58,80,99,119,139,159,180,200,219,240,259,279,299,320,339,360,379,399,419,440,460,480,498,520,540,560,579,600,618,640,660,679,699,719,739,758,779,799,818,839,860,879,899,919,939,959,980,999,1019,1039,1059,1079,1099,1119,1139,1159,1179,1198,1219,1240,1260,1280,1300,1319,1340,1359,1379,1400,1419,1440,1458,1479,1499,1519,1539,1558,1579,1600],"xSR":741.5,"ySR":573.95,"xT1":424.9,"yT1":0,"xT2":1058.1,"yT2":0,"toosoon":0,"cond_shown":"equaldotsize","ratio_trial":500,"smaller_num":"6","larger_num":"12","correct_side":1,"subjID":"angel gabriel polania amaya 9","gender":"0","age":"8","school":"4"},{"start_time":1552314348764,"click_time":1552314352676,"finger_time":1552314351836,"fix_duration":1147.797306294681,"trial":10,"RT":3072,"MT":840,"sideResp":1,"stimulus":"img/500/randomdotsizeEA/R/12_Ratio_500_L_1_R_2.png","xmouse":[814,814,814,814,817,821,825,826,826,826,826,826,826,827,827,827,827,827,827,827,827,827,827,827,827,827,827,827,827,827,827,827,827,827,827,827,827,827,827,827,827,827,827,827,827,827,827,827,827,827,827,827,827,827,827,827,827,827,827,827,827,827,827,827,827,827,826,826,826,826,826,826,826,826,826,826,826,826,826,826,826,826,826,826,826,826,826,826,826,826,826,826,826,826,826,826,826,826,826,826,826,826,826,826,826,826,826,826,826,826,826,826,826,826,826,825,824,823,822,822,822,822,822,820,819,818,816,816,816,816,816,816,816,816,816,816,816,816,816,816,816,815,815,812,810,807,805,802,800,798,791,771,755,718,697,680,661,647,630,626,625,625,624,622,620,617,613,613,613,613,613,607,603,594,593,592,592,592,588,588,586,584,581,571,565,561,557,553,551,550,549,547,544,539,527,524],"ymouse":[605,606,606,606,605,602,600,600,600,600,600,600,600,600,600,600,600,600,600,600,600,600,600,600,600,600,600,600,600,600,600,600,600,600,600,601,601,601,601,601,601,601,601,601,601,601,601,601,601,601,601,601,601,601,601,601,601,601,601,601,601,601,601,601,601,601,602,602,602,603,604,604,605,605,605,605,605,605,605,605,605,605,605,605,605,605,605,605,605,605,605,605,605,605,605,605,605,605,605,605,605,605,605,607,607,607,607,607,607,607,607,607,607,607,607,607,608,608,608,608,608,608,608,608,608,609,610,610,610,610,610,610,610,610,610,610,610,610,610,610,610,612,613,615,616,616,616,616,617,617,611,594,577,545,530,517,502,486,460,453,448,443,434,410,393,370,331,268,124,35,13,0,0,0,0,0,0,0,0,0,0,0,0,4,6,8,9,9,10,10,10,10,11,13,17,18],"timestamp_mouse":[12,32,52,73,92,112,131,153,173,191,212,233,253,272,292,312,333,352,372,391,413,432,452,473,492,513,533,551,573,593,612,632,652,673,693,713,733,753,773,791,812,833,852,872,892,911,931,953,973,992,1014,1033,1053,1072,1092,1113,1133,1151,1173,1192,1212,1233,1252,1272,1292,1313,1333,1352,1373,1392,1412,1433,1453,1471,1493,1512,1532,1553,1573,1592,1613,1632,1653,1671,1691,1713,1732,1752,1773,1793,1812,1832,1853,1872,1893,1912,1932,1953,1972,1992,2012,2033,2052,2072,2092,2112,2133,2153,2173,2191,2213,2233,2252,2272,2293,2313,2332,2353,2372,2393,2413,2432,2452,2473,2492,2512,2533,2552,2572,2592,2611,2633,2652,2671,2691,2712,2732,2752,2772,2792,2813,2832,2853,2872,2891,2912,2932,2951,2972,2993,3012,3032,3052,3072,3092,3112,3132,3152,3172,3193,3212,3233,3252,3271,3292,3313,3333,3353,3372,3392,3413,3432,3453,3472,3491,3512,3533,3552,3573,3592,3612,3633,3653,3672,3693,3711,3731,3751,3773,3793,3813,3833,3852,3873,3892,3912],"xSR":741.5,"ySR":573.95,"xT1":424.9,"yT1":0,"xT2":1058.1,"yT2":0,"toosoon":0,"cond_shown":"randomdotsizeEA","ratio_trial":500,"smaller_num":"1","larger_num":"2","correct_side":2,"subjID":"angel gabriel polania amaya 9","gender":"0","age":"8","school":"4"},{"start_time":1552314355631,"click_time":1552314356856,"finger_time":1552314356456,"fix_duration":1273.640306808811,"trial":11,"RT":825,"MT":400,"sideResp":2,"stimulus":"img/500/equaldotanddens/L/4_Ratio_500_L_18_R_9.png","xmouse":[793,793,793,793,793,793,793,793,794,794,794,794,794,794,794,794,794,795,795,795,795,795,795,795,795,795,795,799,802,803,805,809,809,809,809,809,809,810,811,813,817,832,839,845,850,862,910,933,947,958,971,991,1004,1007,1013,1017,1030,1037,1044,1051,1057,1062],"ymouse":[619,619,619,619,619,619,619,619,619,619,619,619,619,619,619,619,619,619,618,618,618,618,618,618,618,618,618,620,621,621,621,621,621,621,621,621,621,621,618,613,601,554,512,418,351,288,184,146,120,102,86,71,69,68,68,67,66,66,66,65,65,63],"timestamp_mouse":[10,30,44,66,85,106,126,146,166,184,206,225,245,265,286,305,325,345,365,385,406,424,444,465,485,504,525,544,565,585,604,625,646,664,686,705,726,745,765,785,806,825,845,865,885,904,925,945,965,985,1005,1025,1044,1065,1085,1104,1125,1145,1165,1185,1206,1225],"xSR":741.5,"ySR":573.95,"xT1":424.9,"yT1":0,"xT2":1058.1,"yT2":0,"toosoon":0,"cond_shown":"equaldotanddens","ratio_trial":500,"smaller_num":"9","larger_num":"18","correct_side":1,"subjID":"angel gabriel polania amaya 9","gender":"0","age":"8","school":"4"},{"start_time":1552314358708,"click_time":1552314361556,"finger_time":1552314360396,"fix_duration":250,"trial":12,"RT":1688,"MT":1160,"sideResp":2,"stimulus":"img/750/equaldotsize/R/15_Ratio_750_L_9_R_12.png","xmouse":[769,769,769,769,769,769,769,769,769,769,769,769,769,769,769,769,769,769,769,769,769,769,769,769,769,769,769,769,769,769,769,769,769,769,769,769,769,769,769,769,769,769,769,769,769,769,769,769,769,769,769,769,769,769,769,769,769,769,769,771,771,771,771,771,771,771,771,771,771,771,771,771,771,771,771,771,771,771,771,772,773,774,775,775,776,777,777,778,779,782,783,787,792,796,800,806,821,868,910,979,1047,1110,1185,1206,1219,1231,1242,1248,1250,1250,1250,1250,1250,1250,1249,1241,1229,1210,1199,1196,1194,1190,1188,1185,1184,1182,1181,1177,1172,1169,1165,1163,1161,1161,1161,1161,1161,1161,1160,1160,1159,1159,1158],"ymouse":[600,600,600,600,600,600,600,600,600,600,600,600,600,600,600,600,600,600,600,600,600,600,600,600,600,600,600,600,600,600,600,600,600,600,600,600,600,600,600,600,600,600,600,600,600,600,600,600,600,600,600,600,600,600,600,600,600,600,600,599,598,596,595,589,588,586,586,586,586,586,586,585,585,584,584,584,584,583,581,580,579,578,576,575,573,572,570,568,565,561,558,552,536,526,508,485,436,345,297,245,195,150,91,64,41,24,8,0,0,0,0,0,0,0,0,4,9,19,27,29,31,34,35,37,39,41,42,45,48,48,49,50,50,50,50,50,50,50,51,51,52,52,53],"timestamp_mouse":[9,33,49,68,89,108,129,149,168,188,207,228,249,268,288,307,328,349,368,387,409,429,449,468,488,509,529,549,569,589,609,629,648,668,688,708,728,748,768,788,808,828,848,868,889,909,928,948,968,989,1008,1028,1048,1068,1088,1108,1129,1148,1168,1188,1209,1228,1248,1269,1287,1308,1327,1347,1367,1387,1407,1427,1448,1468,1487,1507,1527,1547,1567,1587,1607,1627,1648,1668,1688,1707,1729,1748,1768,1788,1809,1829,1848,1869,1888,1909,1929,1948,1968,1988,2009,2028,2047,2067,2089,2109,2128,2149,2168,2188,2208,2228,2248,2268,2289,2308,2329,2349,2368,2388,2408,2427,2451,2468,2489,2508,2528,2548,2568,2587,2607,2627,2648,2668,2688,2709,2728,2749,2769,2788,2808,2828,2847],"xSR":741.5,"ySR":573.95,"xT1":424.9,"yT1":0,"xT2":1058.1,"yT2":0,"toosoon":0,"cond_shown":"equaldotsize","ratio_trial":750,"smaller_num":"9","larger_num":"12","correct_side":2,"subjID":"angel gabriel polania amaya 9","gender":"0","age":"8","school":"4"},{"start_time":1552314364744,"click_time":1552314365976,"finger_time":1552314365496,"fix_duration":1404.8300521403305,"trial":13,"RT":752,"MT":480,"sideResp":2,"stimulus":"img/750/randomdotsizeEA/R/7_Ratio_750_L_3_R_4.png","xmouse":[776,776,776,776,776,776,776,776,776,776,776,776,776,776,776,776,776,776,776,776,776,776,776,776,776,776,776,776,776,776,776,776,776,776,776,778,804,843,897,956,1016,1118,1131,1159,1172,1181,1190,1191,1193,1197,1202,1211,1214,1214,1214,1214,1214,1212,1203,1190,1178,1142],"ymouse":[616,616,616,616,616,616,616,616,616,616,616,616,616,616,616,616,616,616,616,616,616,616,616,616,616,616,616,616,616,616,616,616,616,616,616,615,597,563,501,431,361,211,190,153,140,133,129,129,128,126,123,119,118,118,118,118,110,104,95,89,85,81],"timestamp_mouse":[17,31,55,71,91,112,131,151,173,193,211,232,252,273,293,312,331,352,373,393,413,431,453,473,491,512,533,552,572,593,611,633,653,672,692,712,732,752,772,793,812,839,852,872,893,912,932,952,972,991,1012,1032,1053,1073,1092,1112,1132,1152,1172,1192,1212,1232],"xSR":741.5,"ySR":573.95,"xT1":424.9,"yT1":0,"xT2":1058.1,"yT2":0,"toosoon":0,"cond_shown":"randomdotsizeEA","ratio_trial":750,"smaller_num":"3","larger_num":"4","correct_side":2,"subjID":"angel gabriel polania amaya 9","gender":"0","age":"8","school":"4"},{"start_time":1552314374854,"click_time":1552314376175,"finger_time":1552314375955,"fix_duration":856.3752193341729,"trial":14,"RT":1101,"MT":220,"sideResp":2,"stimulus":"img/900/equaldotanddens/R/5_Ratio_900_L_9_R_10.png","xmouse":[787,787,787,787,787,787,787,787,787,787,787,787,787,787,787,787,787,788,788,788,788,788,788,788,788,788,788,788,788,788,788,788,788,788,788,788,788,788,789,789,789,790,791,792,792,792,792,792,792,792,792,792,793,793,795,801,821,880,911,943,983,1032,1071,1131,1137,1140,1144],"ymouse":[637,637,637,637,637,637,637,637,637,637,637,637,637,637,636,636,636,635,635,635,635,635,635,635,635,635,635,635,635,635,635,635,634,634,634,634,634,634,633,633,633,633,630,627,626,623,622,617,615,612,608,607,603,596,578,532,456,243,124,16,0,0,0,0,0,0,4],"timestamp_mouse":[9,22,43,63,82,102,123,143,163,181,203,223,243,263,283,301,322,343,363,381,403,422,442,462,483,503,523,543,563,583,602,623,643,663,681,702,723,742,763,781,803,822,841,862,882,903,923,942,962,983,1002,1022,1041,1061,1082,1101,1123,1142,1162,1183,1202,1222,1242,1263,1282,1303,1321],"xSR":741.5,"ySR":573.95,"xT1":424.9,"yT1":0,"xT2":1058.1,"yT2":0,"toosoon":0,"cond_shown":"equaldotanddens","ratio_trial":900,"smaller_num":"9","larger_num":"10","correct_side":2,"subjID":"angel gabriel polania amaya 9","gender":"0","age":"8","school":"4"},{"start_time":1552314378566,"click_time":1552314385156,"finger_time":1552314380016,"fix_duration":1328.2643477466338,"trial":15,"RT":1450,"MT":5140,"sideResp":1,"stimulus":"img/250/equaldotanddens/L/7_Ratio_250_L_8_R_2.png","xmouse":[762,762,762,762,762,762,762,762,762,762,762,762,762,762,762,762,763,767,767,767,767,768,768,768,768,768,768,768,768,768,768,768,768,768,768,768,768,768,768,768,768,768,768,768,768,768,768,768,768,766,765,764,763,763,763,762,762,762,762,762,762,762,762,762,762,762,762,762,762,760,758,751,723,654,564,460,441,454,475,493,503,509,510,510,510,510,510,510,510,510,510,510,510,510,510,510,510,510,510,510,510,510,510,510,510,510,510,510,510,510,510,510,510,510,510,510,510,510,510,510,510,510,510,510,510,510,510,510,510,510,510,510,510,510,510,510,510,510,510,510,510,510,510,510,510,510,510,510,510,510,510,510,510,510,510,510,510,510,510,510,510,510,510,510,510,510,510,510,510,510,510,510,510,510,510,510,510,510,510,510,510,510,510,510,510,510,510,510,510,510,510,510,510,510,510,510,510,510,510,510,510,510,510,510,510,510,510,510,510,510,507,503,503,503,503,503,503,503,503,503,503,503,503,503,503,503,503,503,503,503,503,505,513,520,521,521,521,521,521,521,521,522,523,523,523,523,523,523,523,523,524,514,507,507,509,510,511,513,515,521,537,575,713,789,866,892,906,910,910,910,910,910,910,909,904,893,875,843,832,823,817,813,811,810,809,809,809,810,811,812,812,812,812,813,813,813,808,800,778,769,769,769,774,764,734,700,658,567,525,479,439,403,375,346,345,345,345,344,343,343,343,343,343,346,351,365,388,423,424,425],"ymouse":[654,654,654,654,654,654,654,654,654,654,654,654,654,654,654,654,653,647,647,647,647,647,647,647,647,647,648,651,651,651,651,651,651,651,651,651,651,652,652,652,652,652,652,652,652,652,652,652,652,652,652,651,649,649,649,648,648,648,648,648,648,648,648,648,648,648,648,648,648,649,650,653,657,654,639,608,587,567,558,554,553,553,553,553,553,553,553,553,553,553,553,553,553,553,553,553,553,553,553,553,553,553,553,553,553,553,553,553,553,553,553,553,553,553,553,553,553,553,553,553,553,553,553,553,553,553,553,553,553,553,553,553,553,553,553,553,553,553,553,553,553,553,553,553,553,553,553,553,553,553,553,553,553,553,553,553,553,553,553,553,553,553,553,553,553,553,553,553,553,553,553,553,553,553,553,553,553,553,553,553,553,553,553,553,553,553,553,553,553,553,553,553,553,553,553,553,553,553,553,553,553,553,553,553,553,553,553,553,553,549,518,488,463,463,463,463,463,463,463,463,463,463,463,463,463,463,463,463,463,463,463,463,459,454,449,449,449,449,449,449,449,449,449,449,449,449,449,449,449,449,442,423,409,407,405,405,404,404,404,404,412,433,494,531,575,586,590,591,591,591,591,591,591,591,593,594,594,594,593,591,590,589,588,588,588,590,592,593,595,595,595,595,595,595,593,588,578,566,535,515,492,463,383,330,254,191,131,9,0,0,0,0,0,0,0,0,0,3,13,18,22,24,25,25,25,27,32,35,35,35],"timestamp_mouse":[11,37,49,69,90,110,131,150,171,190,210,231,251,271,291,310,331,351,370,390,410,430,450,470,491,511,530,551,570,591,611,631,649,669,691,711,730,751,770,791,810,831,851,871,891,911,930,950,970,990,1009,1030,1049,1069,1089,1109,1129,1151,1170,1190,1211,1231,1251,1270,1291,1311,1330,1350,1370,1391,1410,1431,1450,1470,1491,1511,1530,1550,1570,1591,1611,1631,1651,1671,1691,1710,1730,1751,1771,1790,1811,1831,1849,1870,1890,1910,1930,1951,1970,1990,2010,2031,2050,2070,2090,2111,2130,2150,2170,2191,2211,2231,2250,2270,2291,2310,2330,2351,2370,2390,2410,2430,2449,2470,2489,2509,2529,2550,2569,2589,2609,2630,2651,2671,2690,2710,2731,2750,2770,2790,2811,2831,2850,2870,2890,2909,2931,2949,2970,2991,3010,3030,3050,3070,3090,3110,3130,3150,3170,3191,3210,3230,3250,3270,3291,3311,3331,3349,3370,3391,3411,3430,3449,3469,3490,3510,3530,3550,3571,3589,3611,3631,3650,3670,3689,3711,3730,3750,3771,3790,3811,3830,3851,3871,3889,3910,3930,3950,3971,3991,4011,4031,4050,4070,4091,4111,4131,4151,4171,4190,4211,4230,4250,4270,4290,4311,4331,4349,4370,4391,4410,4430,4450,4470,4490,4510,4530,4549,4570,4591,4610,4630,4649,4671,4691,4710,4730,4751,4771,4791,4810,4830,4850,4871,4890,4910,4930,4951,4970,4991,5010,5030,5049,5070,5090,5110,5130,5149,5170,5191,5210,5230,5249,5270,5290,5310,5331,5350,5370,5391,5409,5431,5451,5471,5490,5511,5530,5550,5570,5591,5611,5631,5650,5670,5689,5711,5730,5749,5769,5790,5810,5831,5851,5870,5890,5910,5929,5949,5969,5990,6010,6030,6050,6069,6090,6110,6130,6149,6171,6190,6210,6230,6250,6270,6291,6310,6330,6350,6370,6390,6410,6430,6450,6470,6490,6510,6529,6550,6571,6590],"xSR":741.5,"ySR":573.95,"xT1":424.9,"yT1":0,"xT2":1058.1,"yT2":0,"toosoon":0,"cond_shown":"equaldotanddens","ratio_trial":250,"smaller_num":"2","larger_num":"8","correct_side":1,"subjID":"angel gabriel polania amaya 9","gender":"0","age":"8","school":"4"},{"start_time":1552314386761,"click_time":1552314387917,"finger_time":1552314387157,"fix_duration":682.5419102710904,"trial":16,"RT":396,"MT":760,"sideResp":1,"stimulus":"img/250/randomdotsizeEA/L/15_Ratio_250_L_12_R_3.png","xmouse":[821,821,821,821,821,821,821,821,820,819,819,818,817,817,816,816,815,815,815,822,828,839,860,873,880,888,895,902,903,903,903,905,913,925,936,949,963,988,998,1005,1012,1019,1019,1019,1019,1019,1019,1011,954,891,822,752,655,552,519,496,474,438],"ymouse":[621,621,621,621,621,621,621,621,621,621,621,621,620,616,614,612,609,601,590,571,550,525,477,448,434,422,411,399,398,397,395,392,381,365,349,331,312,270,250,236,224,212,207,201,200,200,200,200,191,183,171,161,148,128,119,111,102,95],"timestamp_mouse":[14,34,54,75,96,115,136,154,175,195,216,235,255,275,295,315,336,356,375,396,415,435,455,474,495,516,536,561,574,595,615,634,655,675,695,714,735,756,775,795,816,834,855,875,895,916,935,955,975,995,1014,1036,1055,1076,1095,1115,1134,1156],"xSR":741.5,"ySR":573.95,"xT1":424.9,"yT1":0,"xT2":1058.1,"yT2":0,"toosoon":0,"cond_shown":"randomdotsizeEA","ratio_trial":250,"smaller_num":"3","larger_num":"12","correct_side":1,"subjID":"angel gabriel polania amaya 9","gender":"0","age":"8","school":"4"},{"start_time":1552314389528,"click_time":1552314391235,"finger_time":1552314390376,"fix_duration":250,"trial":17,"RT":848,"MT":859,"sideResp":1,"stimulus":"img/500/equaldotanddens/R/2_Ratio_500_L_3_R_6.png","xmouse":[758,758,758,758,758,758,758,758,758,758,758,758,758,758,757,757,757,757,757,757,757,757,757,757,756,755,753,752,750,750,750,750,750,750,750,749,748,748,747,746,743,742,739,732,725,706,697,686,677,667,643,630,618,612,606,602,602,601,598,593,574,562,556,555,555,556,556,556,556,556,556,556,556,556,556,556,556,556,556,556,556,554,547,538,529,518],"ymouse":[625,625,625,625,625,625,625,625,625,625,625,625,625,625,626,628,628,630,631,631,631,631,631,631,631,631,631,631,631,631,631,631,631,631,631,631,630,627,625,620,609,603,591,566,542,484,459,433,411,387,353,340,330,324,320,317,317,314,305,290,229,183,135,63,25,0,0,0,0,0,6,11,16,17,17,17,17,17,17,18,18,20,24,29,32,34],"timestamp_mouse":[12,39,48,68,87,109,129,147,167,189,208,229,248,269,288,308,328,348,369,389,408,427,448,468,488,509,529,548,568,589,609,628,649,669,688,709,728,747,769,787,808,829,848,868,888,909,927,947,967,989,1007,1029,1048,1067,1088,1107,1128,1147,1168,1189,1208,1228,1248,1267,1288,1307,1328,1348,1369,1389,1408,1428,1448,1467,1488,1509,1527,1548,1567,1587,1608,1627,1647,1668,1687,1707],"xSR":741.5,"ySR":573.95,"xT1":424.9,"yT1":0,"xT2":1058.1,"yT2":0,"toosoon":0,"cond_shown":"equaldotanddens","ratio_trial":500,"smaller_num":"3","larger_num":"6","correct_side":2,"subjID":"angel gabriel polania amaya 9","gender":"0","age":"8","school":"4"},{"start_time":1552314392727,"click_time":1552314393595,"finger_time":1552314392836,"fix_duration":250,"trial":18,"RT":109,"MT":759,"sideResp":2,"stimulus":"img/250/equaldotsize/R/4_Ratio_250_L_3_R_12.png","xmouse":[780,780,796,804,813,832,841,846,848,848,844,842,839,838,836,835,835,837,840,842,845,851,865,890,916,949,959,969,981,993,1032,1051,1071,1082,1086,1086,1085,1085,1085,1085,1085,1092,1097,1098],"ymouse":[611,611,598,591,581,546,525,508,495,485,474,469,464,454,443,410,390,371,351,335,317,312,306,299,291,270,259,248,234,222,191,173,147,132,121,111,110,110,110,110,109,105,100,94],"timestamp_mouse":[20,31,48,68,88,109,128,149,169,189,208,229,249,268,289,309,328,348,370,389,409,428,449,468,488,509,528,549,569,589,609,630,649,669,688,708,729,748,770,789,809,829,849,868],"xSR":741.5,"ySR":573.95,"xT1":424.9,"yT1":0,"xT2":1058.1,"yT2":0,"toosoon":0,"cond_shown":"equaldotsize","ratio_trial":250,"smaller_num":"3","larger_num":"12","correct_side":2,"subjID":"angel gabriel polania amaya 9","gender":"0","age":"8","school":"4"},{"start_time":1552314397508,"click_time":1552314398196,"finger_time":1552314397735,"fix_duration":250,"trial":19,"RT":227,"MT":461,"sideResp":2,"stimulus":"img/250/equaldotanddens/L/2_Ratio_250_L_16_R_4.png","xmouse":[792,793,794,794,794,795,796,798,801,811,821,847,859,871,888,921,934,945,955,966,985,1009,1015,1019,1020,1020,1020,1020,1021,1022,1023,1027,1036,1078],"ymouse":[635,632,631,631,631,629,628,623,617,594,557,434,366,294,224,110,66,28,0,0,0,0,0,0,0,0,0,0,0,0,1,6,14,30],"timestamp_mouse":[21,48,67,89,108,129,147,167,187,208,227,248,268,288,308,329,348,369,390,409,428,448,469,489,508,527,548,567,587,607,627,648,668,688],"xSR":741.5,"ySR":573.95,"xT1":424.9,"yT1":0,"xT2":1058.1,"yT2":0,"toosoon":0,"cond_shown":"equaldotanddens","ratio_trial":250,"smaller_num":"4","larger_num":"16","correct_side":1,"subjID":"angel gabriel polania amaya 9","gender":"0","age":"8","school":"4"},{"start_time":1552314400961,"click_time":1552314402077,"finger_time":1552314401775,"fix_duration":944.4970840424198,"trial":20,"RT":814,"MT":302,"sideResp":1,"stimulus":"img/500/randomdotsizeEA/L/13_Ratio_500_L_12_R_6.png","xmouse":[794,794,794,794,794,795,795,797,797,798,798,799,799,799,799,799,799,799,799,800,801,801,801,801,801,801,801,801,801,801,801,801,801,801,801,801,801,801,801,801,793,786,782,777,777,774,765,753,735,685,666,647,621,598,537,516],"ymouse":[595,595,594,594,594,594,593,592,591,590,590,590,590,590,590,590,590,589,589,589,588,588,588,588,588,588,588,588,588,588,588,588,588,588,588,588,588,586,584,575,559,540,516,490,437,399,371,343,307,231,204,179,149,115,41,16],"timestamp_mouse":[33,35,54,76,94,115,134,154,174,195,214,235,255,275,294,315,334,354,374,396,415,435,454,476,495,515,534,554,574,596,614,634,654,676,695,714,734,756,774,794,814,834,855,875,894,914,934,955,975,994,1014,1035,1055,1075,1094,1116],"xSR":741.5,"ySR":573.95,"xT1":424.9,"yT1":0,"xT2":1058.1,"yT2":0,"toosoon":0,"cond_shown":"randomdotsizeEA","ratio_trial":500,"smaller_num":"6","larger_num":"12","correct_side":1,"subjID":"angel gabriel polania amaya 9","gender":"0","age":"8","school":"4"},{"start_time":1552314403573,"click_time":1552314404756,"finger_time":1552314404476,"fix_duration":415.54227563222844,"trial":21,"RT":903,"MT":280,"sideResp":1,"stimulus":"img/250/equaldotsize/L/7_Ratio_250_L_8_R_2.png","xmouse":[784,784,784,784,784,784,784,784,784,784,784,784,784,784,784,784,784,784,784,784,784,784,784,784,784,784,784,784,784,784,784,784,784,784,784,783,781,780,779,778,778,778,778,777,776,768,759,745,723,638,581,536,515,502,498,498,496,491,484,472],"ymouse":[619,619,619,619,619,619,619,619,619,619,619,619,619,619,619,619,619,619,619,619,619,619,618,618,618,618,618,618,618,618,618,618,618,617,615,605,598,590,585,581,579,579,579,578,576,564,552,538,519,458,420,387,364,341,289,264,237,207,168,98],"timestamp_mouse":[12,37,43,63,83,104,124,142,164,184,203,224,243,263,284,303,322,343,363,383,403,423,443,462,484,502,522,544,562,583,603,622,642,662,683,703,722,743,763,784,804,823,843,862,883,903,923,942,962,983,1003,1022,1042,1063,1083,1103,1123,1144,1163,1183],"xSR":741.5,"ySR":573.95,"xT1":424.9,"yT1":0,"xT2":1058.1,"yT2":0,"toosoon":0,"cond_shown":"equaldotsize","ratio_trial":250,"smaller_num":"2","larger_num":"8","correct_side":1,"subjID":"angel gabriel polania amaya 9","gender":"0","age":"8","school":"4"},{"start_time":1552314406627,"click_time":1552314407636,"finger_time":1552314407236,"fix_duration":509.67942035652413,"trial":22,"RT":609,"MT":400,"sideResp":1,"stimulus":"img/250/equaldotsize/L/15_Ratio_250_L_12_R_3.png","xmouse":[749,749,749,749,749,749,749,749,752,753,754,757,757,757,757,757,757,757,760,761,761,761,761,761,761,761,762,762,760,752,693,631,541,513,497,487,481,474,473,473,473,473,473,474,476,478,479,482,482,482,482],"ymouse":[659,659,659,659,659,659,659,659,657,656,655,654,653,653,653,653,653,653,653,652,652,652,652,652,652,652,651,650,646,636,583,526,390,326,274,235,212,194,193,193,193,192,184,181,178,175,169,142,114,103,70],"timestamp_mouse":[11,28,49,70,88,109,130,148,169,189,209,228,249,269,289,310,328,348,369,389,409,429,448,469,488,510,528,548,569,588,609,629,649,669,689,708,728,749,769,789,809,829,849,869,889,909,928,948,968,988,1009],"xSR":741.5,"ySR":573.95,"xT1":424.9,"yT1":0,"xT2":1058.1,"yT2":0,"toosoon":0,"cond_shown":"equaldotsize","ratio_trial":250,"smaller_num":"3","larger_num":"12","correct_side":1,"subjID":"angel gabriel polania amaya 9","gender":"0","age":"8","school":"4"},{"start_time":1552314409877,"click_time":1552314410836,"finger_time":1552314410636,"fix_duration":859.1706473713363,"trial":23,"RT":759,"MT":200,"sideResp":1,"stimulus":"img/750/equaldotanddens/L/6_Ratio_750_L_24_R_18.png","xmouse":[753,753,753,753,753,753,753,753,753,753,753,753,753,753,753,753,753,753,753,753,753,753,753,753,753,753,753,753,753,753,753,753,753,753,753,752,751,749,742,729,708,654,631,616,606,584,577,541,524],"ymouse":[598,598,598,598,598,598,598,598,598,598,598,598,598,598,598,598,598,598,598,598,598,598,598,598,598,598,598,598,598,598,598,598,597,597,597,596,592,586,568,547,515,420,363,316,263,132,113,40,13],"timestamp_mouse":[1,19,42,59,78,99,118,140,160,179,199,219,239,260,279,300,320,340,358,378,399,420,438,460,480,498,519,540,558,579,598,618,639,660,679,698,719,738,759,778,798,818,838,859,878,899,919,938,959],"xSR":741.5,"ySR":573.95,"xT1":424.9,"yT1":0,"xT2":1058.1,"yT2":0,"toosoon":0,"cond_shown":"equaldotanddens","ratio_trial":750,"smaller_num":"18","larger_num":"24","correct_side":1,"subjID":"angel gabriel polania amaya 9","gender":"0","age":"8","school":"4"},{"start_time":1552314413065,"click_time":1552314413775,"finger_time":1552314413336,"fix_duration":807.9801148655745,"trial":24,"RT":271,"MT":439,"sideResp":1,"stimulus":"img/900/equaldotsize/L/2_Ratio_900_L_20_R_18.png","xmouse":[766,766,766,766,766,765,765,765,763,762,757,746,743,739,737,727,686,643,588,539,494,485,481,480,479,479,479,479,479,479,475,475,475,475,478,489],"ymouse":[596,596,596,596,596,596,596,596,594,593,590,582,579,575,568,541,473,429,385,353,322,314,310,306,303,302,298,292,280,264,217,189,160,129,102,65],"timestamp_mouse":[14,37,51,72,91,110,131,150,171,191,210,230,250,271,291,310,331,351,372,391,411,431,451,471,491,511,530,551,570,590,612,630,651,670,691,710],"xSR":741.5,"ySR":573.95,"xT1":424.9,"yT1":0,"xT2":1058.1,"yT2":0,"toosoon":0,"cond_shown":"equaldotsize","ratio_trial":900,"smaller_num":"18","larger_num":"20","correct_side":1,"subjID":"angel gabriel polania amaya 9","gender":"0","age":"8","school":"4"},{"start_time":1552314415462,"click_time":1552314416616,"finger_time":1552314416135,"fix_duration":424.79133459323805,"trial":25,"RT":673,"MT":481,"sideResp":1,"stimulus":"img/900/equaldotsize/L/1_Ratio_900_L_10_R_9.png","xmouse":[795,795,795,795,795,795,795,795,795,795,795,795,795,795,795,795,795,795,795,795,795,795,795,795,795,795,795,795,795,795,795,791,786,780,779,772,755,734,700,647,595,539,523,504,500,481,456,445,438,436,436,436,436,436,437,438,442,444],"ymouse":[649,649,649,649,649,649,649,649,649,649,649,649,649,649,649,649,649,649,649,649,649,649,649,649,649,649,649,649,649,647,646,626,606,571,558,507,431,384,328,279,240,208,197,182,179,166,153,148,142,141,139,137,136,133,127,121,103,97],"timestamp_mouse":[15,35,55,74,95,115,135,154,175,194,213,234,253,275,295,313,334,353,373,393,413,435,454,475,493,515,534,553,575,593,613,633,654,673,695,714,733,754,773,794,814,833,855,874,893,913,933,954,973,993,1013,1033,1055,1074,1094,1113,1133,1154],"xSR":741.5,"ySR":573.95,"xT1":424.9,"yT1":0,"xT2":1058.1,"yT2":0,"toosoon":0,"cond_shown":"equaldotsize","ratio_trial":900,"smaller_num":"9","larger_num":"10","correct_side":1,"subjID":"angel gabriel polania amaya 9","gender":"0","age":"8","school":"4"},{"start_time":1552314418089,"click_time":1552314419176,"finger_time":1552314418615,"fix_duration":250,"trial":26,"RT":526,"MT":561,"sideResp":2,"stimulus":"img/750/equaldotanddens/R/11_Ratio_750_L_12_R_16.png","xmouse":[766,766,766,766,766,766,766,766,766,766,766,766,766,766,766,766,766,766,765,765,764,764,764,764,763,762,760,758,755,746,744,742,741,741,741,741,741,741,742,758,778,785,812,833,894,928,953,971,984,1000,1008,1029,1047,1059],"ymouse":[577,577,577,577,577,577,577,577,577,577,577,577,577,577,577,577,577,576,576,575,575,575,575,575,574,573,571,569,566,560,558,553,549,548,546,544,544,543,540,523,475,449,351,280,157,117,90,79,76,76,76,78,78,78],"timestamp_mouse":[21,47,67,87,108,127,146,167,188,207,227,247,268,287,307,327,347,366,387,407,428,448,467,486,507,526,547,567,586,607,626,647,667,686,706,727,747,767,786,807,827,847,867,886,906,926,948,967,987,1006,1026,1046,1067,1087],"xSR":741.5,"ySR":573.95,"xT1":424.9,"yT1":0,"xT2":1058.1,"yT2":0,"toosoon":0,"cond_shown":"equaldotanddens","ratio_trial":750,"smaller_num":"12","larger_num":"16","correct_side":2,"subjID":"angel gabriel polania amaya 9","gender":"0","age":"8","school":"4"},{"start_time":1552314422685,"click_time":1552314424716,"finger_time":1552314423355,"fix_duration":988.984484877479,"trial":27,"RT":670,"MT":1361,"sideResp":2,"stimulus":"img/900/equaldotanddens/R/9_Ratio_900_L_18_R_20.png","xmouse":[783,783,783,783,783,783,783,783,783,783,783,783,782,782,782,782,782,782,782,782,782,782,782,782,782,782,782,782,782,783,787,801,806,811,817,835,847,856,862,876,895,904,910,915,919,932,938,946,950,953,956,961,964,967,967,968,969,970,970,972,973,976,979,983,986,989,991,991,991,991,991,991,991,991,991,991,991,992,993,993,994,998,1000,1001,1003,1005,1008,1010,1016,1022,1038,1043,1046,1047,1047,1047,1048,1048,1049,1050,1053,1063],"ymouse":[635,634,634,634,634,634,634,633,633,632,631,631,630,630,630,630,630,630,630,630,630,630,630,630,630,630,630,630,630,626,621,601,588,570,548,503,477,454,431,395,355,339,326,314,308,290,282,273,268,266,265,265,264,264,264,264,262,262,261,259,258,252,247,240,234,227,220,220,220,220,220,220,220,220,220,220,220,219,219,219,218,218,216,215,212,208,190,173,155,135,82,65,55,52,52,52,52,52,52,52,54,56],"timestamp_mouse":[11,37,51,70,91,112,130,151,171,192,211,232,250,271,290,312,331,351,370,392,411,430,451,470,492,511,530,551,571,592,611,630,650,670,691,712,731,750,771,791,811,831,851,871,892,911,930,951,970,990,1010,1031,1051,1070,1091,1111,1130,1150,1170,1191,1210,1231,1250,1271,1290,1310,1331,1350,1370,1390,1412,1432,1452,1471,1492,1512,1530,1552,1571,1591,1610,1631,1651,1671,1691,1711,1730,1750,1770,1791,1812,1831,1851,1870,1890,1911,1930,1951,1971,1992,2011,2031],"xSR":741.5,"ySR":573.95,"xT1":424.9,"yT1":0,"xT2":1058.1,"yT2":0,"toosoon":0,"cond_shown":"equaldotanddens","ratio_trial":900,"smaller_num":"18","larger_num":"20","correct_side":2,"subjID":"angel gabriel polania amaya 9","gender":"0","age":"8","school":"4"},{"start_time":1552314427197,"click_time":1552314428116,"finger_time":1552314427935,"fix_duration":1439.451419041324,"trial":28,"RT":738,"MT":181,"sideResp":2,"stimulus":"img/250/equaldotanddens/R/11_Ratio_250_L_3_R_12.png","xmouse":[786,786,786,786,786,786,786,786,786,786,786,786,786,786,786,786,786,786,786,786,787,787,788,789,789,790,791,792,792,793,793,794,797,799,800,803,804,809,819,833,853,933,979,1020,1056,1093],"ymouse":[633,633,633,633,633,633,633,633,633,633,633,633,633,633,633,633,633,633,633,633,633,631,629,629,627,625,624,623,621,620,619,616,610,604,599,584,573,555,533,499,453,286,206,144,96,57],"timestamp_mouse":[18,38,59,80,98,118,138,160,178,198,218,239,259,278,300,319,339,358,380,400,418,439,458,480,498,519,538,558,579,598,618,639,658,678,699,718,738,759,779,798,818,838,859,878,898,919],"xSR":741.5,"ySR":573.95,"xT1":424.9,"yT1":0,"xT2":1058.1,"yT2":0,"toosoon":0,"cond_shown":"equaldotanddens","ratio_trial":250,"smaller_num":"3","larger_num":"12","correct_side":2,"subjID":"angel gabriel polania amaya 9","gender":"0","age":"8","school":"4"},{"start_time":1552314431736,"click_time":1552314432956,"finger_time":1552314432077,"fix_duration":1138.611565940061,"trial":29,"RT":341,"MT":879,"sideResp":2,"stimulus":"img/900/randomdotsizeEA/R/6_Ratio_900_L_9_R_10.png","xmouse":[805,805,805,805,805,805,805,805,805,805,805,805,805,805,807,812,818,829,852,929,952,963,970,975,984,986,986,986,986,986,987,987,987,987,987,987,988,989,993,999,1003,1004,1007,1015,1040,1044,1046,1047,1048,1048,1051,1054,1056,1058,1059,1060,1061,1062,1065,1072,1075,1077],"ymouse":[609,611,611,611,611,611,611,611,611,611,611,611,611,611,604,595,585,570,536,419,363,310,258,227,199,192,192,192,191,186,184,184,184,184,184,184,183,182,179,174,172,172,171,170,157,152,148,144,142,141,140,138,135,131,128,127,125,124,119,108,102,96],"timestamp_mouse":[2,33,41,59,80,101,119,139,161,181,199,221,239,260,280,299,320,341,360,381,399,420,439,460,479,500,519,540,560,580,599,619,639,660,680,700,720,740,760,780,800,819,840,861,880,899,920,939,959,979,1000,1020,1040,1061,1080,1099,1119,1140,1159,1181,1200,1219],"xSR":741.5,"ySR":573.95,"xT1":424.9,"yT1":0,"xT2":1058.1,"yT2":0,"toosoon":0,"cond_shown":"randomdotsizeEA","ratio_trial":900,"smaller_num":"9","larger_num":"10","correct_side":2,"subjID":"angel gabriel polania amaya 9","gender":"0","age":"8","school":"4"},{"start_time":1552314441328,"click_time":1552314444935,"finger_time":1552314444855,"fix_duration":690.8453236022618,"trial":30,"RT":3527,"MT":80,"sideResp":1,"stimulus":"img/250/equaldotanddens/L/14_Ratio_250_L_12_R_3.png","xmouse":[770,770,770,770,770,770,770,770,770,770,770,770,770,770,770,770,770,770,770,770,770,770,770,770,770,770,770,770,770,770,770,770,770,770,770,770,770,770,770,770,770,770,770,770,770,770,770,770,770,770,770,770,770,770,770,770,770,770,770,770,770,770,770,770,770,770,770,770,770,770,770,770,770,770,770,770,770,770,770,770,770,770,770,770,770,770,770,770,770,770,770,770,770,770,770,770,770,770,770,770,770,770,770,770,770,770,770,770,770,770,770,770,770,770,770,770,770,770,770,770,770,770,770,770,770,770,770,770,770,770,770,770,770,770,770,770,770,770,770,770,770,770,770,770,770,770,770,770,770,770,770,770,770,770,770,770,770,770,770,770,770,770,770,770,770,770,770,770,770,770,770,770,770,770,770,759,705,629,571,522,491],"ymouse":[656,656,656,656,656,656,656,656,656,656,656,656,656,656,656,656,656,656,656,656,656,656,656,656,656,656,656,656,656,656,656,656,656,656,656,656,656,656,656,656,656,656,656,656,656,656,656,656,656,656,656,656,656,656,656,656,656,656,656,656,656,656,656,656,656,656,656,656,656,656,656,656,656,656,656,656,656,656,656,656,656,656,656,656,656,656,656,656,656,656,656,656,656,656,656,656,656,656,656,656,656,656,656,656,656,656,656,656,656,656,656,656,656,656,656,656,656,656,656,656,656,656,656,656,656,656,656,656,656,656,656,656,656,656,656,656,656,656,656,656,656,656,656,656,656,656,656,656,656,656,656,656,656,656,656,656,656,656,656,656,656,656,656,656,656,656,656,656,656,656,656,656,656,656,656,590,399,245,166,111,82],"timestamp_mouse":[10,40,47,68,89,107,128,149,168,187,208,229,249,267,288,307,328,348,367,389,407,428,447,468,487,508,529,547,568,589,609,628,647,667,688,709,728,747,768,788,809,827,848,869,889,908,928,948,968,987,1009,1028,1048,1069,1087,1108,1128,1148,1167,1188,1208,1227,1247,1269,1287,1308,1328,1347,1368,1388,1409,1428,1448,1468,1489,1509,1529,1547,1568,1589,1609,1627,1647,1667,1689,1708,1729,1748,1767,1788,1809,1827,1848,1869,1888,1907,1929,1948,1967,1988,2007,2028,2048,2067,2087,2109,2128,2148,2169,2188,2208,2228,2249,2267,2288,2309,2328,2348,2368,2388,2409,2428,2449,2468,2487,2508,2529,2548,2568,2588,2609,2628,2647,2667,2689,2707,2729,2747,2768,2789,2807,2827,2847,2869,2888,2908,2929,2948,2968,2988,3007,3029,3047,3067,3087,3108,3127,3149,3168,3187,3207,3228,3249,3268,3289,3307,3328,3348,3369,3388,3407,3429,3447,3468,3487,3508,3527,3548,3567,3587,3607],"xSR":741.5,"ySR":573.95,"xT1":424.9,"yT1":0,"xT2":1058.1,"yT2":0,"toosoon":0,"cond_shown":"equaldotanddens","ratio_trial":250,"smaller_num":"3","larger_num":"12","correct_side":1,"subjID":"angel gabriel polania amaya 9","gender":"0","age":"8","school":"4"},{"start_time":1552314446816,"click_time":1552314447596,"finger_time":1552314447175,"fix_duration":558.1322831308944,"trial":31,"RT":359,"MT":421,"sideResp":2,"stimulus":"img/500/randomdotsizeEA/L/4_Ratio_500_L_18_R_9.png","xmouse":[798,798,798,798,798,798,798,798,798,798,798,798,800,802,803,807,812,818,838,853,866,888,952,974,991,1002,1011,1026,1032,1036,1043,1047,1050,1051,1051,1051,1051,1052,1054,1062],"ymouse":[630,630,630,630,630,630,630,630,630,630,630,631,631,626,623,617,602,584,544,518,494,445,298,237,187,149,119,78,64,54,44,39,33,33,33,33,33,33,35,36],"timestamp_mouse":[1,19,39,60,81,100,119,140,160,180,200,221,240,259,279,301,320,340,359,379,400,420,440,459,480,500,520,540,560,580,600,620,640,659,679,699,721,740,759,780],"xSR":741.5,"ySR":573.95,"xT1":424.9,"yT1":0,"xT2":1058.1,"yT2":0,"toosoon":0,"cond_shown":"randomdotsizeEA","ratio_trial":500,"smaller_num":"9","larger_num":"18","correct_side":1,"subjID":"angel gabriel polania amaya 9","gender":"0","age":"8","school":"4"},{"start_time":1552314452537,"click_time":1552314453956,"finger_time":1552314453515,"fix_duration":1499.5866819187609,"trial":32,"RT":978,"MT":441,"sideResp":2,"stimulus":"img/750/equaldotanddens/R/5_Ratio_750_L_15_R_20.png","xmouse":[818,818,818,816,816,816,816,816,816,816,815,815,815,815,815,815,815,815,815,815,815,815,814,813,813,813,813,813,813,812,812,812,812,812,812,812,812,812,812,812,811,811,810,809,809,809,809,809,809,809,809,815,822,832,837,841,849,853,858,862,869,902,920,951,968,986,1012,1029,1044,1056,1064],"ymouse":[616,616,616,616,616,616,616,616,616,616,616,616,616,616,616,616,616,616,616,616,616,616,616,616,616,616,616,616,616,616,616,616,616,616,616,616,616,616,616,616,616,616,615,615,613,611,597,581,559,536,520,505,503,501,500,500,496,492,483,469,446,366,321,249,205,169,110,91,76,64,56],"timestamp_mouse":[19,40,60,78,99,119,139,159,178,198,218,238,259,278,300,318,338,359,379,399,419,438,460,478,499,518,539,559,578,599,618,638,658,679,699,719,738,758,779,798,818,839,858,878,898,918,940,958,978,998,1018,1038,1059,1078,1100,1118,1138,1159,1180,1198,1218,1238,1258,1279,1300,1319,1338,1358,1379,1399,1419],"xSR":741.5,"ySR":573.95,"xT1":424.9,"yT1":0,"xT2":1058.1,"yT2":0,"toosoon":0,"cond_shown":"equaldotanddens","ratio_trial":750,"smaller_num":"15","larger_num":"20","correct_side":2,"subjID":"angel gabriel polania amaya 9","gender":"0","age":"8","school":"4"},{"start_time":1552314457822,"click_time":1552314459817,"finger_time":1552314458375,"fix_duration":1306.8837426988496,"trial":33,"RT":553,"MT":1442,"sideResp":1,"stimulus":"img/750/equaldotanddens/L/10_Ratio_750_L_4_R_3.png","xmouse":[758,758,758,758,758,758,758,758,758,758,758,758,758,758,758,760,763,772,777,778,778,778,778,778,778,779,779,780,780,780,780,780,781,781,781,782,782,783,783,784,786,790,795,805,808,811,814,819,823,828,835,845,868,876,882,885,885,878,876,874,874,872,868,866,861,855,848,841,790,739,689,634,535,490,441,396,356,336,313,313,313,313,313,313,314,317,328,338,360,369,383,393,404,405,405,406,406,410,421,429],"ymouse":[632,632,632,632,632,632,632,632,632,632,632,632,632,632,631,630,626,615,608,605,602,598,594,587,583,580,576,573,572,571,570,569,567,567,566,565,565,563,563,562,559,555,550,540,537,532,528,521,517,510,498,481,425,400,381,366,356,334,329,324,320,316,304,296,288,279,272,266,250,244,235,219,178,153,120,92,70,57,39,36,34,31,29,28,27,27,27,27,21,20,18,13,5,3,2,1,1,1,1,1],"timestamp_mouse":[13,35,54,74,93,114,133,153,173,193,214,234,253,273,295,313,333,353,373,393,413,434,453,473,493,513,534,553,573,593,615,633,653,673,694,714,734,754,773,793,813,834,853,873,893,913,934,954,973,994,1014,1034,1054,1073,1093,1113,1133,1154,1173,1193,1213,1233,1254,1273,1293,1313,1334,1353,1374,1393,1414,1433,1454,1473,1494,1514,1533,1553,1574,1594,1614,1633,1653,1673,1693,1713,1733,1753,1774,1793,1814,1833,1853,1874,1893,1913,1933,1953,1974,1994],"xSR":741.5,"ySR":573.95,"xT1":424.9,"yT1":0,"xT2":1058.1,"yT2":0,"toosoon":0,"cond_shown":"equaldotanddens","ratio_trial":750,"smaller_num":"3","larger_num":"4","correct_side":1,"subjID":"angel gabriel polania amaya 9","gender":"0","age":"8","school":"4"},{"start_time":1552314461697,"click_time":1552314462995,"finger_time":1552314462756,"fix_duration":580.0099981407557,"trial":34,"RT":1059,"MT":239,"sideResp":1,"stimulus":"img/750/randomdotsizeEA/R/2_Ratio_750_L_6_R_8.png","xmouse":[757,757,757,757,759,760,760,760,760,761,762,762,762,762,762,762,762,762,762,762,764,768,771,775,776,776,776,776,776,776,776,777,777,778,778,778,778,778,778,778,778,778,778,778,778,778,778,779,779,775,770,765,753,736,684,655,626,591,553,504,491,488,487,487,478],"ymouse":[640,640,640,640,640,640,640,640,640,640,639,639,639,639,639,639,639,639,639,639,638,635,633,631,630,630,630,630,630,630,630,630,630,630,630,630,630,630,630,630,630,630,630,630,630,630,630,629,628,614,600,580,547,506,399,344,291,230,185,124,108,105,103,102,81],"timestamp_mouse":[19,38,59,78,98,120,139,158,179,198,218,238,259,278,299,319,338,359,378,398,419,438,459,478,498,520,540,558,579,599,619,638,658,678,699,718,738,758,778,799,819,839,859,878,899,919,938,958,978,999,1019,1038,1059,1079,1098,1118,1139,1158,1178,1198,1231,1239,1258,1279,1298],"xSR":741.5,"ySR":573.95,"xT1":424.9,"yT1":0,"xT2":1058.1,"yT2":0,"toosoon":0,"cond_shown":"randomdotsizeEA","ratio_trial":750,"smaller_num":"6","larger_num":"8","correct_side":2,"subjID":"angel gabriel polania amaya 9","gender":"0","age":"8","school":"4"},{"start_time":1552314469873,"click_time":1552314471215,"finger_time":1552314470675,"fix_duration":1436.8951415929762,"trial":35,"RT":802,"MT":540,"sideResp":2,"stimulus":"img/500/randomdotsizeEA/L/11_Ratio_500_L_12_R_6.png","xmouse":[752,751,751,750,750,750,750,749,749,749,749,749,749,749,749,749,749,749,749,749,749,749,749,749,749,749,749,749,749,749,749,749,749,749,749,749,749,749,749,751,758,767,787,803,821,838,846,869,886,926,943,956,970,971,975,977,980,989,993,996,1001,1004,1026,1040,1050,1057,1067,1080],"ymouse":[621,618,616,614,614,614,613,613,611,609,607,607,607,607,607,607,607,607,607,607,607,607,607,607,607,607,607,607,607,607,607,607,607,607,607,607,606,602,595,586,570,551,505,465,422,375,335,279,250,209,191,175,149,140,134,132,130,127,125,123,123,122,119,117,115,113,106,92],"timestamp_mouse":[2,22,46,63,83,102,122,142,162,182,203,223,243,263,283,303,322,343,364,383,402,422,442,463,483,502,524,543,563,583,604,622,643,663,682,703,723,742,763,782,802,823,842,862,883,903,924,942,963,983,1002,1022,1043,1063,1082,1102,1122,1142,1162,1182,1203,1222,1242,1262,1283,1303,1322,1342],"xSR":741.5,"ySR":573.95,"xT1":424.9,"yT1":0,"xT2":1058.1,"yT2":0,"toosoon":0,"cond_shown":"randomdotsizeEA","ratio_trial":500,"smaller_num":"6","larger_num":"12","correct_side":1,"subjID":"angel gabriel polania amaya 9","gender":"0","age":"8","school":"4"},{"start_time":1552314472868,"click_time":1552314473655,"finger_time":1552314473155,"fix_duration":351.34695251844914,"trial":36,"RT":287,"MT":500,"sideResp":2,"stimulus":"img/900/equaldotanddens/R/15_Ratio_900_L_9_R_10.png","xmouse":[773,773,773,770,769,769,769,767,766,765,765,765,765,765,770,779,795,856,874,881,892,903,921,926,930,934,936,938,940,941,944,944,944,945,947,954,965,1019,1052,1082],"ymouse":[594,594,594,594,594,594,594,594,593,592,591,590,585,578,568,550,524,430,394,362,326,285,205,169,139,111,89,52,44,39,36,35,35,35,35,37,45,71,77,81],"timestamp_mouse":[10,37,47,67,87,107,128,147,167,188,208,227,248,267,287,307,328,348,368,387,407,428,447,468,487,507,528,547,568,588,608,627,649,667,687,707,728,747,767,787],"xSR":741.5,"ySR":573.95,"xT1":424.9,"yT1":0,"xT2":1058.1,"yT2":0,"toosoon":0,"cond_shown":"equaldotanddens","ratio_trial":900,"smaller_num":"9","larger_num":"10","correct_side":2,"subjID":"angel gabriel polania amaya 9","gender":"0","age":"8","school":"4"},{"start_time":1552314475616,"click_time":1552314476156,"finger_time":1552314475876,"fix_duration":778.9727371940893,"trial":37,"RT":260,"MT":280,"sideResp":2,"stimulus":"img/250/randomdotsizeEA/R/8_Ratio_250_L_1_R_4.png","xmouse":[820,820,820,820,820,821,821,821,823,823,824,827,834,842,852,861,879,888,895,903,915,939,952,964,987,1034,1057,1074],"ymouse":[619,619,617,616,615,613,613,612,611,610,609,604,597,589,579,568,542,528,511,491,472,412,366,320,256,160,120,89],"timestamp_mouse":[1,19,41,59,81,99,119,139,159,181,199,219,239,260,279,299,319,339,360,380,399,420,439,459,480,500,519,540],"xSR":741.5,"ySR":573.95,"xT1":424.9,"yT1":0,"xT2":1058.1,"yT2":0,"toosoon":0,"cond_shown":"randomdotsizeEA","ratio_trial":250,"smaller_num":"1","larger_num":"4","correct_side":2,"subjID":"angel gabriel polania amaya 9","gender":"0","age":"8","school":"4"},{"start_time":1552314478292,"click_time":1552314479355,"finger_time":1552314478916,"fix_duration":756.0480670485078,"trial":38,"RT":624,"MT":439,"sideResp":2,"stimulus":"img/900/equaldotsize/R/3_Ratio_900_L_9_R_10.png","xmouse":[763,763,763,763,763,763,763,763,763,763,763,763,763,763,763,763,763,764,765,765,765,765,765,765,765,765,765,765,765,765,769,773,791,806,814,837,855,884,901,926,958,983,1002,1009,1022,1032,1040,1047,1060,1065,1071,1075,1083,1088],"ymouse":[590,590,590,590,590,590,590,590,590,590,590,590,590,590,590,590,590,589,589,588,588,588,587,587,587,587,587,587,586,583,576,566,530,500,487,450,423,374,351,322,289,261,225,209,190,179,168,159,145,137,129,121,103,92],"timestamp_mouse":[9,24,43,64,83,104,123,143,164,183,204,223,243,263,283,303,324,344,363,383,404,423,444,463,484,503,524,544,563,583,604,624,643,664,683,703,723,743,763,783,803,824,843,863,883,903,923,943,963,983,1004,1023,1043,1063],"xSR":741.5,"ySR":573.95,"xT1":424.9,"yT1":0,"xT2":1058.1,"yT2":0,"toosoon":0,"cond_shown":"equaldotsize","ratio_trial":900,"smaller_num":"9","larger_num":"10","correct_side":2,"subjID":"angel gabriel polania amaya 9","gender":"0","age":"8","school":"4"},{"start_time":1552314480724,"click_time":1552314481636,"finger_time":1552314481076,"fix_duration":307.66425012886936,"trial":39,"RT":352,"MT":560,"sideResp":1,"stimulus":"img/750/equaldotsize/L/10_Ratio_750_L_4_R_3.png","xmouse":[822,822,822,822,822,822,822,822,822,822,822,822,822,822,823,830,840,846,848,851,856,859,859,860,861,864,872,878,883,888,903,907,911,911,911,911,911,898,870,835,766,739,707,662,610,494],"ymouse":[609,609,609,609,609,609,609,609,609,609,609,609,609,607,607,596,587,583,580,578,573,569,567,566,563,556,533,513,491,465,406,387,376,372,372,371,371,370,366,361,336,312,279,233,184,96],"timestamp_mouse":[11,45,51,72,91,112,131,152,172,191,212,233,251,271,291,312,331,352,371,391,412,432,451,472,491,511,531,552,571,592,612,632,652,672,692,712,731,751,771,792,812,831,852,873,892,912],"xSR":741.5,"ySR":573.95,"xT1":424.9,"yT1":0,"xT2":1058.1,"yT2":0,"toosoon":0,"cond_shown":"equaldotsize","ratio_trial":750,"smaller_num":"3","larger_num":"4","correct_side":1,"subjID":"angel gabriel polania amaya 9","gender":"0","age":"8","school":"4"},{"start_time":1552314484229,"click_time":1552314485135,"finger_time":1552314484516,"fix_duration":1471.306140462356,"trial":40,"RT":287,"MT":619,"sideResp":1,"stimulus":"img/750/equaldotsize/L/6_Ratio_750_L_24_R_18.png","xmouse":[779,779,779,779,779,779,779,779,779,779,779,779,773,752,714,676,641,637,636,636,636,636,636,636,636,636,636,636,636,636,636,636,635,632,626,622,615,608,601,591,572,502,470,448,435,425],"ymouse":[599,599,599,599,599,599,599,599,599,599,598,597,592,583,570,559,542,539,536,536,536,536,533,532,526,522,520,519,517,516,511,506,500,490,471,457,434,420,403,378,343,230,184,144,120,97],"timestamp_mouse":[10,27,47,67,87,107,127,147,166,186,206,226,246,266,287,306,326,346,367,386,406,426,446,466,486,507,526,546,566,586,607,626,647,666,687,706,726,746,767,787,806,826,846,866,887,906],"xSR":741.5,"ySR":573.95,"xT1":424.9,"yT1":0,"xT2":1058.1,"yT2":0,"toosoon":0,"cond_shown":"equaldotsize","ratio_trial":750,"smaller_num":"18","larger_num":"24","correct_side":1,"subjID":"angel gabriel polania amaya 9","gender":"0","age":"8","school":"4"},{"start_time":1552314487106,"click_time":1552314488116,"finger_time":1552314487357,"fix_duration":650.5264569656036,"trial":41,"RT":251,"MT":759,"sideResp":2,"stimulus":"img/500/equaldotsize/R/14_Ratio_500_L_5_R_10.png","xmouse":[775,775,775,775,775,775,775,775,775,775,775,771,729,676,630,612,605,594,591,579,565,556,554,554,554,553,550,540,529,524,521,520,514,511,510,510,510,535,553,572,589,612,665,690,721,773,841,1050,1106,1131,1137],"ymouse":[612,612,612,612,612,612,612,612,612,612,611,607,558,496,445,424,409,383,376,362,354,351,343,334,325,311,296,260,230,212,197,184,150,138,133,133,133,133,133,128,125,122,115,112,110,110,110,110,103,100,98],"timestamp_mouse":[12,35,49,69,89,110,129,149,170,190,210,230,251,269,289,309,329,349,370,390,410,429,449,469,490,509,530,550,570,589,609,629,649,669,689,709,730,749,770,789,810,829,849,869,890,909,930,949,969,989,1010],"xSR":741.5,"ySR":573.95,"xT1":424.9,"yT1":0,"xT2":1058.1,"yT2":0,"toosoon":0,"cond_shown":"equaldotsize","ratio_trial":500,"smaller_num":"5","larger_num":"10","correct_side":2,"subjID":"angel gabriel polania amaya 9","gender":"0","age":"8","school":"4"},{"start_time":1552314490327,"click_time":1552314491715,"finger_time":1552314490955,"fix_duration":769.8124215195734,"trial":42,"RT":628,"MT":760,"sideResp":1,"stimulus":"img/500/equaldotanddens/L/5_Ratio_500_L_4_R_2.png","xmouse":[817,817,817,817,817,817,817,817,817,817,817,817,817,817,817,817,817,817,817,817,817,817,817,817,817,816,816,814,813,810,801,740,675,595,509,407,223,108,46,18,0,0,0,0,1,3,10,11,11,13,16,32,48,71,96,118,121,121,121,123,132,160,297,360,395,408,408,412,423,438],"ymouse":[616,616,616,616,616,616,616,616,616,616,616,615,615,615,615,615,615,615,615,615,615,615,615,615,613,612,610,604,601,596,587,555,527,498,457,400,250,117,40,7,0,0,0,0,0,0,0,0,0,0,0,0,0,0,0,3,4,5,5,7,12,15,19,21,21,21,21,21,21,21],"timestamp_mouse":[12,28,48,68,88,108,129,148,169,188,208,229,248,269,289,309,329,348,369,389,409,429,448,468,488,508,528,548,568,588,609,628,648,669,689,709,728,748,768,789,808,829,849,869,888,909,929,948,968,988,1008,1031,1048,1068,1088,1108,1129,1148,1168,1189,1209,1228,1248,1268,1288,1309,1329,1348,1368,1388],"xSR":741.5,"ySR":573.95,"xT1":424.9,"yT1":0,"xT2":1058.1,"yT2":0,"toosoon":0,"cond_shown":"equaldotanddens","ratio_trial":500,"smaller_num":"2","larger_num":"4","correct_side":1,"subjID":"angel gabriel polania amaya 9","gender":"0","age":"8","school":"4"},{"start_time":1552314494202,"click_time":1552314494896,"finger_time":1552314494475,"fix_duration":1165.3881965919036,"trial":43,"RT":273,"MT":421,"sideResp":1,"stimulus":"img/750/equaldotsize/L/9_Ratio_750_L_4_R_3.png","xmouse":[747,746,746,746,746,746,746,746,746,746,746,745,742,726,701,656,603,561,484,454,436,423,420,416,413,411,410,410,410,411,413,414,417,424,425],"ymouse":[594,594,594,594,594,594,594,594,593,593,593,591,587,562,529,483,430,381,279,235,203,177,167,151,144,136,129,124,117,113,107,102,92,64,49],"timestamp_mouse":[13,34,54,74,94,114,134,153,173,194,213,233,253,273,293,314,333,353,373,394,414,433,453,473,493,514,534,554,573,593,613,633,653,674,694],"xSR":741.5,"ySR":573.95,"xT1":424.9,"yT1":0,"xT2":1058.1,"yT2":0,"toosoon":0,"cond_shown":"equaldotsize","ratio_trial":750,"smaller_num":"3","larger_num":"4","correct_side":1,"subjID":"angel gabriel polania amaya 9","gender":"0","age":"8","school":"4"},{"start_time":1552314496227,"click_time":1552314497336,"finger_time":1552314496615,"fix_duration":250,"trial":44,"RT":388,"MT":721,"sideResp":1,"stimulus":"img/900/randomdotsizeEA/R/12_Ratio_900_L_18_R_20.png","xmouse":[800,800,800,800,800,800,800,800,801,802,802,802,802,802,802,802,802,785,770,697,668,657,651,651,651,651,651,651,651,651,651,651,650,650,648,647,645,639,636,631,622,605,555,535,528,527,527,527,527,527,525,522,513,480,461,449],"ymouse":[633,633,633,633,633,633,633,632,630,629,629,629,629,629,629,629,628,601,586,542,527,519,516,516,516,516,516,516,516,516,516,516,515,512,507,503,496,478,456,432,385,312,131,45,0,0,0,0,0,0,0,0,0,0,0,1],"timestamp_mouse":[11,35,49,68,88,110,129,148,168,188,209,229,248,268,289,308,328,349,369,388,408,429,448,468,488,509,528,550,569,588,609,628,648,668,688,708,728,748,768,788,809,829,848,868,888,908,929,949,968,989,1009,1028,1048,1068,1088,1109],"xSR":741.5,"ySR":573.95,"xT1":424.9,"yT1":0,"xT2":1058.1,"yT2":0,"toosoon":0,"cond_shown":"randomdotsizeEA","ratio_trial":900,"smaller_num":"18","larger_num":"20","correct_side":2,"subjID":"angel gabriel polania amaya 9","gender":"0","age":"8","school":"4"},{"start_time":1552314499321,"click_time":1552314500077,"finger_time":1552314499575,"fix_duration":1004.2452433386889,"trial":45,"RT":254,"MT":502,"sideResp":2,"stimulus":"img/250/equaldotsize/R/13_Ratio_250_L_2_R_8.png","xmouse":[826,826,826,826,826,826,826,826,826,827,827,827,827,829,836,850,876,911,986,1009,1021,1034,1041,1043,1044,1047,1048,1049,1049,1049,1049,1049,1049,1049,1050,1052,1055,1061],"ymouse":[596,596,596,596,596,596,596,596,594,590,585,579,555,541,521,479,420,339,196,147,109,70,39,30,21,9,2,0,0,0,0,0,3,7,10,12,13,13],"timestamp_mouse":[14,43,55,75,95,114,135,154,174,194,214,235,254,274,294,315,334,354,374,395,414,434,455,474,494,515,535,556,574,594,614,635,654,674,694,715,734,755],"xSR":741.5,"ySR":573.95,"xT1":424.9,"yT1":0,"xT2":1058.1,"yT2":0,"toosoon":0,"cond_shown":"equaldotsize","ratio_trial":250,"smaller_num":"2","larger_num":"8","correct_side":2,"subjID":"angel gabriel polania amaya 9","gender":"0","age":"8","school":"4"},{"start_time":1552314501775,"click_time":1552314502716,"finger_time":1552314502476,"fix_duration":538.9632425073739,"trial":46,"RT":701,"MT":240,"sideResp":2,"stimulus":"img/500/equaldotanddens/R/3_Ratio_500_L_10_R_20.png","xmouse":[803,803,803,803,803,803,803,803,804,806,806,806,806,806,807,807,807,807,807,807,807,807,807,807,807,807,807,807,807,807,807,807,807,808,812,823,857,878,906,944,990,1105,1150,1175,1184,1186,1160,1126],"ymouse":[593,593,593,593,593,593,593,592,592,591,591,591,591,591,590,590,588,588,588,588,588,588,588,588,588,588,588,588,588,588,588,588,588,585,581,570,540,516,480,439,394,286,233,195,160,132,82,63],"timestamp_mouse":[1,20,41,61,80,100,121,140,160,180,201,220,241,261,280,301,320,341,360,381,401,421,441,460,481,501,521,541,560,581,600,620,640,661,680,701,720,740,760,780,800,820,840,860,880,902,920,940],"xSR":741.5,"ySR":573.95,"xT1":424.9,"yT1":0,"xT2":1058.1,"yT2":0,"toosoon":0,"cond_shown":"equaldotanddens","ratio_trial":500,"smaller_num":"10","larger_num":"20","correct_side":2,"subjID":"angel gabriel polania amaya 9","gender":"0","age":"8","school":"4"},{"start_time":1552314504249,"click_time":1552314505095,"finger_time":1552314504676,"fix_duration":250,"trial":47,"RT":427,"MT":419,"sideResp":2,"stimulus":"img/900/equaldotsize/L/8_Ratio_900_L_20_R_18.png","xmouse":[808,808,808,807,807,807,807,807,807,807,807,807,807,807,807,807,807,817,822,829,837,844,850,851,853,854,855,858,860,864,867,873,883,910,924,934,946,984,1008,1037,1066,1097,1135],"ymouse":[621,621,621,620,620,620,620,620,620,620,620,620,620,620,620,620,618,611,608,604,597,592,585,582,575,571,567,558,552,544,535,522,506,457,433,411,382,291,244,193,152,108,50],"timestamp_mouse":[12,26,46,67,86,107,128,146,166,187,206,226,246,266,287,307,327,346,366,386,406,427,446,466,486,507,527,546,566,586,606,626,646,666,686,706,727,746,766,787,807,826,846],"xSR":741.5,"ySR":573.95,"xT1":424.9,"yT1":0,"xT2":1058.1,"yT2":0,"toosoon":0,"cond_shown":"equaldotsize","ratio_trial":900,"smaller_num":"18","larger_num":"20","correct_side":1,"subjID":"angel gabriel polania amaya 9","gender":"0","age":"8","school":"4"},{"start_time":1552314510273,"click_time":1552314511276,"finger_time":1552314510516,"fix_duration":914.3521652307892,"trial":48,"RT":243,"MT":760,"sideResp":2,"stimulus":"img/250/equaldotsize/R/6_Ratio_250_L_6_R_24.png","xmouse":[761,761,759,759,759,759,759,759,758,757,753,747,731,716,702,689,667,652,631,608,597,583,574,571,569,569,569,571,571,571,572,595,750,848,924,956,979,980,983,986,991,998,1000,1001,1002,1004,1012,1021,1033,1045,1068],"ymouse":[632,632,632,632,632,632,632,632,632,632,629,621,602,586,571,548,478,421,368,324,296,265,236,219,204,194,184,175,174,174,174,174,174,174,174,174,171,170,169,168,163,158,157,156,155,153,139,130,116,101,75],"timestamp_mouse":[12,22,42,64,82,102,123,143,163,183,203,222,243,262,283,302,323,342,363,383,402,422,442,462,482,502,522,542,563,583,602,623,643,662,683,702,723,742,762,782,803,823,842,862,883,903,923,942,964,982,1003],"xSR":741.5,"ySR":573.95,"xT1":424.9,"yT1":0,"xT2":1058.1,"yT2":0,"toosoon":0,"cond_shown":"equaldotsize","ratio_trial":250,"smaller_num":"6","larger_num":"24","correct_side":2,"subjID":"angel gabriel polania amaya 9","gender":"0","age":"8","school":"4"},{"start_time":1552314518272,"click_time":1552314519455,"finger_time":1552314519015,"fix_duration":1136.509820203793,"trial":49,"RT":743,"MT":440,"sideResp":2,"stimulus":"img/900/equaldotanddens/R/9_Ratio_900_L_18_R_20.png","xmouse":[822,822,822,822,822,822,822,822,822,822,822,822,822,822,822,822,822,822,822,822,822,822,822,822,822,822,822,822,822,822,822,822,822,822,825,829,835,843,845,844,839,831,826,824,826,838,850,863,881,893,909,928,953,967,980,993,1002,1019,1058,1079],"ymouse":[627,627,627,627,627,627,627,627,627,627,627,627,627,627,627,627,627,627,627,627,624,624,624,624,624,624,624,624,624,624,624,624,622,617,611,607,599,583,552,527,497,470,451,420,405,383,369,354,331,320,313,303,278,262,244,220,196,160,101,73],"timestamp_mouse":[13,23,43,63,83,102,122,142,164,184,204,224,243,264,284,303,323,343,363,382,403,424,444,463,484,503,524,544,563,584,603,622,644,662,683,702,723,743,763,783,803,823,844,862,883,903,924,942,963,983,1003,1023,1044,1063,1083,1102,1123,1142,1163,1183],"xSR":741.5,"ySR":573.95,"xT1":424.9,"yT1":0,"xT2":1058.1,"yT2":0,"toosoon":0,"cond_shown":"equaldotanddens","ratio_trial":900,"smaller_num":"18","larger_num":"20","correct_side":2,"subjID":"angel gabriel polania amaya 9","gender":"0","age":"8","school":"4"},{"start_time":1552314521705,"click_time":1552314522835,"finger_time":1552314522415,"fix_duration":1228.2705767654159,"trial":50,"RT":710,"MT":420,"sideResp":2,"stimulus":"img/500/equaldotsize/R/3_Ratio_500_L_10_R_20.png","xmouse":[815,815,815,815,815,815,815,815,815,815,815,815,815,815,815,815,815,815,815,815,815,815,815,815,815,815,815,815,815,815,815,815,817,820,840,850,865,867,872,875,879,896,906,911,913,915,919,920,920,921,922,928,940,969,993,1020,1061],"ymouse":[606,606,606,606,606,606,606,606,606,606,606,606,606,606,606,606,606,606,606,606,606,605,605,604,603,602,602,602,602,602,602,602,599,598,583,571,536,507,469,419,378,321,292,277,271,264,257,255,254,253,252,246,236,208,172,134,54],"timestamp_mouse":[12,43,50,71,90,111,129,150,169,189,211,231,251,270,290,310,330,351,370,390,411,429,451,469,491,510,529,550,571,590,611,631,650,670,691,710,729,749,771,790,810,829,851,869,890,910,930,950,970,990,1010,1029,1050,1070,1090,1111,1130],"xSR":741.5,"ySR":573.95,"xT1":424.9,"yT1":0,"xT2":1058.1,"yT2":0,"toosoon":0,"cond_shown":"equaldotsize","ratio_trial":500,"smaller_num":"10","larger_num":"20","correct_side":2,"subjID":"angel gabriel polania amaya 9","gender":"0","age":"8","school":"4"},{"start_time":1552314527447,"click_time":1552314528415,"finger_time":1552314528254,"fix_duration":1130.8356827443324,"trial":51,"RT":807,"MT":161,"sideResp":2,"stimulus":"img/500/equaldotanddens/L/13_Ratio_500_L_12_R_6.png","xmouse":[796,796,796,796,796,796,796,796,796,796,796,796,793,792,790,789,789,788,788,788,788,787,787,787,786,786,786,786,786,784,782,782,782,782,782,782,782,782,782,785,817,844,871,909,930,981,1010,1039,1061],"ymouse":[598,598,598,598,598,598,598,598,598,598,598,598,598,598,596,595,595,594,594,594,593,593,593,591,590,589,589,589,589,588,588,589,589,589,589,589,589,589,583,577,518,473,425,359,320,230,179,134,94],"timestamp_mouse":[16,30,49,68,89,109,127,149,169,187,207,228,247,267,288,308,327,347,369,388,407,429,447,469,488,508,529,547,567,589,608,628,648,669,688,708,729,747,767,788,807,828,848,867,887,907,928,948,968],"xSR":741.5,"ySR":573.95,"xT1":424.9,"yT1":0,"xT2":1058.1,"yT2":0,"toosoon":0,"cond_shown":"equaldotanddens","ratio_trial":500,"smaller_num":"6","larger_num":"12","correct_side":1,"subjID":"angel gabriel polania amaya 9","gender":"0","age":"8","school":"4"},{"start_time":1552314530314,"click_time":1552314531095,"finger_time":1552314530636,"fix_duration":537.247188598199,"trial":52,"RT":322,"MT":459,"sideResp":1,"stimulus":"img/900/equaldotsize/L/4_Ratio_900_L_20_R_18.png","xmouse":[783,783,783,783,783,783,783,782,782,782,782,782,782,782,782,782,782,784,786,788,788,787,783,779,775,772,767,751,737,709,684,661,630,623,615,603,590,548,526,507],"ymouse":[591,591,591,591,591,591,591,591,593,593,593,593,593,593,593,592,571,556,544,533,521,516,507,501,497,494,488,471,455,422,395,368,314,288,254,220,192,137,113,99],"timestamp_mouse":[1,22,41,62,80,100,122,141,161,180,202,222,242,261,282,301,322,341,361,380,401,421,442,461,481,501,521,541,562,581,602,621,642,661,682,701,721,740,760,781],"xSR":741.5,"ySR":573.95,"xT1":424.9,"yT1":0,"xT2":1058.1,"yT2":0,"toosoon":0,"cond_shown":"equaldotsize","ratio_trial":900,"smaller_num":"18","larger_num":"20","correct_side":1,"subjID":"angel gabriel polania amaya 9","gender":"0","age":"8","school":"4"},{"start_time":1552314533661,"click_time":1552314534696,"finger_time":1552314534255,"fix_duration":1184.863385842924,"trial":53,"RT":594,"MT":441,"sideResp":1,"stimulus":"img/250/equaldotsize/L/3_Ratio_250_L_8_R_2.png","xmouse":[808,808,808,808,808,808,808,808,808,808,808,808,808,808,808,808,808,808,808,808,808,807,805,804,802,800,797,792,785,737,703,680,665,653,641,639,637,634,632,618,611,605,604,602,592,587,580,571,559,533,527,524],"ymouse":[601,601,601,601,601,601,601,601,601,601,601,601,601,601,601,601,601,601,601,601,601,600,598,597,596,596,596,596,596,584,579,572,565,555,526,509,492,467,428,300,256,219,193,170,130,117,104,93,81,64,62,62],"timestamp_mouse":[15,39,55,74,94,113,135,154,174,194,213,235,254,274,295,315,334,354,373,394,414,433,455,473,493,513,534,554,574,594,613,633,653,673,694,713,735,754,775,794,814,834,854,874,894,913,934,954,974,994,1014,1035],"xSR":741.5,"ySR":573.95,"xT1":424.9,"yT1":0,"xT2":1058.1,"yT2":0,"toosoon":0,"cond_shown":"equaldotsize","ratio_trial":250,"smaller_num":"2","larger_num":"8","correct_side":1,"subjID":"angel gabriel polania amaya 9","gender":"0","age":"8","school":"4"},{"start_time":1552314539704,"click_time":1552314540977,"finger_time":1552314540414,"fix_duration":1428.8360850505262,"trial":54,"RT":710,"MT":563,"sideResp":2,"stimulus":"img/500/equaldotsize/R/15_Ratio_500_L_1_R_2.png","xmouse":[797,797,797,797,797,797,797,797,797,797,797,797,797,797,796,796,795,794,792,790,789,789,789,789,789,789,789,789,789,789,789,789,789,788,788,788,788,788,788,788,788,790,796,810,815,820,825,835,867,892,912,929,950,1000,1021,1029,1035,1035,1036,1044,1048,1052,1058,1073],"ymouse":[574,574,574,574,574,574,574,574,574,574,574,574,574,574,575,575,576,576,577,578,579,579,579,579,579,579,579,579,579,579,579,579,579,578,576,573,572,572,572,570,567,565,559,535,524,507,486,458,381,336,299,259,205,77,9,0,0,0,0,1,2,3,4,5],"timestamp_mouse":[10,30,51,72,91,111,132,151,172,190,210,232,252,271,292,311,332,351,370,390,412,431,451,470,492,512,532,551,571,590,612,631,652,670,691,710,731,752,771,790,810,830,851,871,892,911,931,951,971,990,1011,1031,1051,1071,1090,1111,1131,1150,1171,1191,1212,1231,1252,1272],"xSR":741.5,"ySR":573.95,"xT1":424.9,"yT1":0,"xT2":1058.1,"yT2":0,"toosoon":0,"cond_shown":"equaldotsize","ratio_trial":500,"smaller_num":"1","larger_num":"2","correct_side":2,"subjID":"angel gabriel polania amaya 9","gender":"0","age":"8","school":"4"},{"start_time":1552314553674,"click_time":1552314555155,"finger_time":1552314554694,"fix_duration":817.6278902955406,"trial":55,"RT":1020,"MT":461,"sideResp":2,"stimulus":"img/900/equaldotanddens/L/10_Ratio_900_L_20_R_18.png","xmouse":[772,772,772,772,772,772,772,772,772,772,772,772,772,772,772,772,772,772,772,772,772,774,775,775,775,775,775,775,775,775,775,775,775,775,775,775,775,775,775,775,775,775,775,776,780,784,786,792,796,802,824,841,891,909,921,930,933,944,952,961,973,982,988,988,988,989,992,1002,1012,1019,1028,1029,1038,1053,1066],"ymouse":[616,616,616,616,616,616,616,616,613,613,613,613,613,613,613,613,613,613,613,611,610,609,608,608,608,608,608,608,608,608,608,608,608,608,608,608,608,608,608,608,608,608,608,608,608,608,608,608,606,600,574,554,500,478,462,445,432,392,371,348,325,282,220,192,165,146,131,106,96,91,89,89,89,94,97],"timestamp_mouse":[10,38,42,62,82,101,122,140,160,182,202,221,242,262,280,302,321,342,361,381,401,420,441,461,481,501,521,540,562,580,600,621,642,661,682,702,721,741,760,782,802,821,840,860,881,901,921,940,960,980,1001,1020,1041,1061,1081,1100,1121,1141,1161,1181,1202,1221,1241,1260,1281,1301,1322,1340,1360,1381,1402,1421,1441,1460,1480],"xSR":741.5,"ySR":573.95,"xT1":424.9,"yT1":0,"xT2":1058.1,"yT2":0,"toosoon":0,"cond_shown":"equaldotanddens","ratio_trial":900,"smaller_num":"18","larger_num":"20","correct_side":1,"subjID":"angel gabriel polania amaya 9","gender":"0","age":"8","school":"4"},{"start_time":1552314561439,"click_time":1552314563015,"finger_time":1552314562974,"fix_duration":821.0120855297428,"trial":56,"RT":1535,"MT":41,"sideResp":1,"stimulus":"img/250/randomdotsizeEA/L/15_Ratio_250_L_12_R_3.png","xmouse":[779,779,779,779,779,779,779,779,779,779,779,779,779,779,779,779,779,779,779,779,779,779,779,779,779,779,779,779,779,779,779,779,779,779,779,779,779,779,779,779,779,779,779,779,779,779,779,779,779,779,779,779,779,779,779,779,779,779,779,779,779,779,779,779,779,779,779,779,779,779,779,779,779,779,779,759,718,626,492],"ymouse":[643,643,643,643,643,643,643,643,643,643,643,643,643,643,643,643,643,643,643,643,643,643,643,643,643,643,643,643,643,643,643,643,643,643,643,643,643,643,643,643,643,643,643,643,643,643,643,643,643,643,643,643,643,643,643,643,643,643,643,643,643,643,643,643,643,643,643,643,643,643,643,643,643,643,643,590,500,290,69],"timestamp_mouse":[16,39,56,77,96,116,137,155,177,196,215,237,255,276,296,316,335,357,377,395,416,437,456,475,497,515,537,557,577,595,617,636,655,677,696,717,735,755,775,795,817,836,857,875,897,917,937,956,976,996,1015,1037,1057,1077,1096,1115,1137,1157,1177,1195,1216,1236,1257,1276,1296,1317,1335,1357,1377,1397,1417,1436,1457,1476,1496,1516,1535,1556,1576],"xSR":741.5,"ySR":573.95,"xT1":424.9,"yT1":0,"xT2":1058.1,"yT2":0,"toosoon":0,"cond_shown":"randomdotsizeEA","ratio_trial":250,"smaller_num":"3","larger_num":"12","correct_side":1,"subjID":"angel gabriel polania amaya 9","gender":"0","age":"8","school":"4"},{"start_time":1552314566351,"click_time":1552314567815,"finger_time":1552314567156,"fix_duration":293.0767378468519,"trial":57,"RT":805,"MT":659,"sideResp":2,"stimulus":"img/750/equaldotsize/L/1_Ratio_750_L_20_R_15.png","xmouse":[803,803,803,799,792,789,788,787,787,787,787,787,787,787,787,787,787,787,787,787,787,787,787,787,787,787,787,787,787,787,787,787,787,787,787,787,787,787,787,787,783,779,772,765,760,760,764,769,773,785,792,800,808,812,815,821,848,908,953,969,972,972,974,975,979,979,979,979,979,988,1028,1071,1104,1129],"ymouse":[640,640,640,639,637,637,637,637,637,636,636,636,636,636,636,636,636,636,636,636,636,636,636,636,636,636,636,636,636,636,636,636,636,636,636,636,636,634,629,607,569,545,517,490,440,418,392,365,340,286,264,243,226,216,211,211,211,209,200,183,167,157,148,146,141,141,139,139,138,133,120,110,100,93],"timestamp_mouse":[12,39,45,63,84,104,123,145,164,183,205,224,244,264,285,304,324,343,363,385,405,424,445,465,484,505,525,545,565,585,605,623,645,665,683,704,724,744,763,784,805,824,844,864,884,903,924,944,965,984,1005,1025,1044,1064,1084,1103,1124,1144,1163,1183,1203,1224,1245,1264,1284,1304,1324,1344,1365,1384,1404,1424,1444,1464],"xSR":741.5,"ySR":573.95,"xT1":424.9,"yT1":0,"xT2":1058.1,"yT2":0,"toosoon":0,"cond_shown":"equaldotsize","ratio_trial":750,"smaller_num":"15","larger_num":"20","correct_side":1,"subjID":"angel gabriel polania amaya 9","gender":"0","age":"8","school":"4"},{"start_time":1552314573158,"click_time":1552314574575,"finger_time":1552314573915,"fix_duration":541.5134133164759,"trial":58,"RT":757,"MT":660,"sideResp":1,"stimulus":"img/250/equaldotanddens/L/2_Ratio_250_L_16_R_4.png","xmouse":[800,800,800,800,800,800,800,800,800,800,800,800,800,800,800,800,800,800,800,800,800,800,800,800,800,800,800,800,800,800,800,800,800,800,785,779,762,717,664,588,567,550,538,527,523,523,523,522,521,520,518,517,517,517,517,515,507,484,470,446,442,440,438,437,436,436,436,436,436,436,437],"ymouse":[649,649,649,649,649,649,649,649,649,649,649,649,649,649,649,649,649,649,648,648,648,648,648,648,648,648,648,648,648,648,648,646,645,643,619,611,594,552,509,433,409,389,376,370,369,369,369,368,367,358,348,336,321,306,264,240,210,167,146,116,110,108,107,104,101,101,101,101,101,101,99],"timestamp_mouse":[34,38,56,76,97,118,136,158,178,197,216,238,256,278,297,318,337,357,378,397,416,438,458,476,498,518,537,557,576,596,617,638,657,676,697,717,737,757,777,797,816,837,856,877,896,918,937,958,977,998,1017,1038,1057,1078,1097,1117,1136,1157,1177,1197,1217,1238,1258,1277,1298,1317,1338,1358,1378,1398,1416],"xSR":741.5,"ySR":573.95,"xT1":424.9,"yT1":0,"xT2":1058.1,"yT2":0,"toosoon":0,"cond_shown":"equaldotanddens","ratio_trial":250,"smaller_num":"4","larger_num":"16","correct_side":1,"subjID":"angel gabriel polania amaya 9","gender":"0","age":"8","school":"4"},{"start_time":1552314577603,"click_time":1552314578614,"finger_time":1552314578275,"fix_duration":326.10382426421603,"trial":59,"RT":672,"MT":339,"sideResp":1,"stimulus":"img/500/randomdotsizeEA/L/11_Ratio_500_L_12_R_6.png","xmouse":[811,811,811,811,811,811,811,811,811,811,811,811,811,811,811,810,810,810,810,809,809,808,806,805,805,805,805,805,803,801,797,791,784,753,726,686,643,566,532,501,481,466,446,446,446,447,448,448,448,448,450],"ymouse":[641,641,641,641,641,641,641,641,640,640,640,640,640,640,639,636,630,612,609,608,607,607,605,603,603,603,603,602,600,599,595,590,585,557,528,475,415,305,258,216,188,172,153,151,150,146,142,131,122,111,92],"timestamp_mouse":[19,43,51,72,91,111,131,153,172,191,211,231,251,273,291,311,331,352,372,392,411,431,452,472,491,513,531,551,572,591,612,631,651,672,692,711,732,752,771,791,811,832,852,871,891,911,932,952,971,991,1011],"xSR":741.5,"ySR":573.95,"xT1":424.9,"yT1":0,"xT2":1058.1,"yT2":0,"toosoon":0,"cond_shown":"randomdotsizeEA","ratio_trial":500,"smaller_num":"6","larger_num":"12","correct_side":1,"subjID":"angel gabriel polania amaya 9","gender":"0","age":"8","school":"4"},{"start_time":1552314580109,"click_time":1552314580935,"finger_time":1552314580475,"fix_duration":293.60115510574536,"trial":60,"RT":366,"MT":460,"sideResp":1,"stimulus":"img/750/randomdotsizeEA/L/13_Ratio_750_L_8_R_6.png","xmouse":[812,812,812,812,811,810,810,810,809,809,809,809,809,809,809,808,806,788,752,721,676,640,599,540,524,512,509,508,508,508,508,508,505,504,504,504,505,518,522,522,522,513],"ymouse":[625,624,623,622,620,618,617,615,615,615,615,615,615,615,614,612,609,594,553,518,476,429,374,295,269,243,236,230,229,229,226,224,214,209,203,201,189,162,145,133,118,96],"timestamp_mouse":[5,32,46,66,86,106,127,147,166,186,206,225,247,266,286,305,326,346,366,386,406,425,445,465,485,506,526,546,565,585,605,625,646,665,686,705,727,746,765,785,805,826],"xSR":741.5,"ySR":573.95,"xT1":424.9,"yT1":0,"xT2":1058.1,"yT2":0,"toosoon":0,"cond_shown":"randomdotsizeEA","ratio_trial":750,"smaller_num":"6","larger_num":"8","correct_side":1,"subjID":"angel gabriel polania amaya 9","gender":"0","age":"8","school":"4"},{"start_time":1552314582206,"click_time":1552314583454,"finger_time":1552314582935,"fix_duration":250,"trial":61,"RT":729,"MT":519,"sideResp":2,"stimulus":"img/500/equaldotsize/R/15_Ratio_500_L_1_R_2.png","xmouse":[824,824,824,824,824,824,824,824,824,824,824,824,824,824,824,824,824,824,824,824,824,824,824,824,824,824,824,824,824,824,824,824,822,820,820,822,832,836,829,826,822,817,817,830,846,872,898,919,926,926,926,929,930,934,934,934,934,934,934,940,975,1042,1121],"ymouse":[644,644,644,644,644,644,644,644,644,644,644,644,644,644,644,644,644,644,644,644,644,644,644,644,644,644,644,644