[{"start_time":1552313006950,"click_time":1552313067051,"finger_time":1552313006960,"fix_duration":1016.4060107750673,"trial":0,"RT":10,"MT":60091,"sideResp":2,"stimulus":[],"xmouse":[798,798,798,798,798,798,798,798,798,798,798,798,798,798,798,798,798,798,798,798,798,798,798,798,798,798,798,798,798,798,798,798,798,798,798,798,798,798,798,798,798,798,798,798,798,798,798,798,798,798,798,798,798,798,798,798,798,798,798,798,798,798,798,798,798,798,798,798,798,798,798,798,798,798,798,798,798,798,798,798,798,798,798,798,798,798,798,798,798,798,798,798,798,798,798,798,798,798,798,798,798,798,798,798,798,798,798,798,798,798,798,798,798,798,798,798,798,798,798,798,798,798,798,798,798,798,798,798,798,798,798,798,798,798,798,798,798,798,798,798,798,798,798,798,798,798,798,798,798,798,798,798,798,798,798,798,798,798,798,798,798,798,798,798,798,798,798,798,798,798,798,798,798,798,798,798,798,798,798,798,798,798,798,798,798,798,798,798,798,798,798,798,798,798,798,798,798,798,798,798,798,798,798,798,798,798,798,798,798,798,798,798,798,798,798,798,798,798,798,798,798,798,797,794,789,789,795,860,945,1032,1190,1228,1245,1247,1247,1247,1247,1248,1248,1243,1176,1060,1032,1028,1026,1023,1020,1017,1012,1005,999,1003,1012,1014,1011,989,981,969,938,879,751,673,629,600,589,589,591,600,604,607,610,615,616,622,631,651,654,656,657,658,671,696,728,740,747,758,763,768,773,777,781,782,782,783,785,793,798,804,808,811,816,817,817,817,817,808,795,776,756,732,718,719,732,745,753,755,755,755,756,757,757,758,758,759,760,761,762,762,764,768,775,776,776,776,777,777,777,777,777,777,777,777,777,777,777,777,777,777,777,777,777,777,777,777,777,777,777,777,777,777,777,777,777,777,777,777,777,777,777,777,777,777,777,777,777,777,777,777,777,777,777,777,777,777,777,777,777,777,777,777,777,777,777,777,777,777,777,777,777,777,777,777,777,777,777,777,777,777,777,777,777,777,777,777,777,777,777,777,778,778,778,778,778,778,778,778,779,779,780,780,780,780,780,780,780,780,780,780,780,780,780,780,780,780,780,780,780,780,780,780,780,780,780,780,780,781,785,788,790,790,790,790,791,791,791,791,790,790,789,787,786,784,783,781,779,773,769,766,760,757,749,748,753,761,777,802,808,810,811,812,816,821,826,827,827,828,828,828,828,828,829,829,829,829,829,829,829,829,829,829,829,829,829,828,828,827,827,827,827,827,825,817,816,816,816,816,812,808,800,796,796,796,798,800,800,800,800,800,800,800,800,800,800,800,800,800,800,800,800,800,800,800,800,800,800,774,713,662,637,617,602,592,592,592,592,592,592,592,592,592,592,592,592,592,592,592,592,592,592,592,592,592,592,592,592,592,592,592,592,592,592,592,592,592,592,592,592,592,592,592,592,592,592,592,592,592,592,592,592,592,592,592,592,592,592,592,592,592,592,592,592,592,592,592,592,592,592,592,592,592,592,592,592,592,592,592,592,592,592,592,592,592,592,592,592,592,592,592,592,592,592,592,592,592,592,592,592,592,592,592,592,592,592,592,592,592,592,592,592,592,592,592,592,592,592,592,592,592,592,592,592,592,592,592,592,592,592,592,592,592,592,592,592,592,592,592,592,592,592,592,592,592,592,592,592,592,592,592,592,592,592,592,592,591,591,591,591,591,591,591,591,591,591,591,591,591,658,755,888,958,1005,1063,1083,1097,1103,1104,1104,1104,1104,1104,1104,1104,1104,1104,1104,1104,1104,1104,1108,1113,1108,1098,1088,1079,1065,1046,1003,993,990,987,979,949,935,917,895,882,866,861,856,852,844,842,840,839,839,838,828,824,821,819,817,802,794,788,786,785,785,785,784,784,784,784,784,783,773,764,746,739,728,723,720,720,720,720,720,720,720,724,729,733,738,747,748,750,756,763,773,775,776,778,779,784,791,805,815,820,825,826,827,827,827,827,827,827,827,827,826,821,821,821,821,821,821,821,821,821,821,821,821,821,821,818,813,811,811,811,811,811,811,811,811,811,811,811,811,811,810,809,809,809,807,796,792,788,785,778,772,770,770,770,770,768,766,763,763,762,762,762,762,762,762,761,760,759,759,759,758,758,758,758,758,758,758,759,764,771,788,791,792,794,794,794,794,794,794,794,793,792,792,792,792,792,792,792,792,792,791,791,790,789,789,788,787,787,787,784,780,779,778,778,778,777,776,773,770,768,766,765,764,763,760,757,757,757,757,757,757,757,756,756,757,767,767,767,767,767,767,767,767,767,767,769,772,774,776,777,778,778,778,780,781,782,782,783,783,783,783,783,783,784,785,789,791,792,794,796,797,797,797,797,797,797,797,797,797,797,797,797,797,797,797,797,797,797,797,797,797,797,797,797,797,797,797,797,797,797,797,797,797,797,797,797,797,797,797,797,797,797,797,797,797,797,797,797,797,797,797,797,797,797,797,797,797,797,797,797,797,797,797,797,797,797,797,797,797,797,797,797,797,797,797,797,797,797,797,797,797,797,797,797,797,797,797,797,797,797,797,797,797,797,797,797,797,797,797,797,797,797,797,797,797,797,797,797,797,797,797,797,797,797,797,797,797,797,797,797,797,797,797,797,797,797,797,797,797,797,797,797,797,797,797,797,797,797,797,797,797,797,797,797,797,797,797,797,797,797,797,797,797,797,797,797,797,797,797,797,797,797,797,797,797,797,797,797,797,797,797,797,797,797,797,797,797,797,797,797,797,797,797,797,797,797,797,797,797,797,797,797,797,797,797,797,797,797,797,797,797,797,797,797,797,797,797,797,797,797,797,797,797,797,797,797,797,797,797,797,797,797,797,797,797,797,797,797,797,797,797,797,797,797,797,797,797,797,797,797,797,797,797,797,797,797,797,797,797,797,797,797,797,797,797,797,797,797,797,797,797,797,797,797,797,797,797,797,797,797,797,797,797,797,797,797,797,797,797,797,797,797,797,797,797,797,797,797,797,797,797,797,797,797,797,797,797,797,797,797,797,797,797,797,797,797,797,797,797,797,797,797,797,797,797,797,797,797,797,797,797,797,797,797,797,797,797,797,797,797,797,797,797,797,797,797,797,797,797,797,797,796,795,795,795,794,792,792,791,791,791,790,790,789,788,788,788,788,788,787,786,784,783,783,783,783,783,783,783,783,783,783,783,783,783,783,783,783,783,783,783,783,783,783,783,783,783,783,783,783,783,783,783,783,783,783,783,783,783,783,783,783,783,783,783,783,783,783,783,783,783,783,783,783,783,783,783,783,783,783,783,783,783,783,783,783,783,783,783,783,783,783,783,783,783,783,783,783,783,783,783,783,783,783,783,783,783,783,783,783,783,783,783,783,783,783,783,783,783,783,783,783,783,783,783,783,783,783,783,783,783,783,783,783,783,783,783,783,783,783,783,783,783,783,783,783,783,783,783,783,783,783,783,783,783,783,783,783,783,783,783,783,783,783,783,783,783,783,783,783,783,783,783,783,783,783,783,783,783,783,783,783,783,783,783,783,783,783,783,783,783,783,783,783,783,783,783,783,783,783,783,783,783,783,783,783,783,783,783,783,783,783,783,783,783,783,783,783,783,783,783,783,783,783,783,783,783,783,783,783,783,783,783,783,783,783,783,783,783,783,783,783,783,783,783,783,783,783,783,783,783,783,783,783,783,783,783,783,783,783,783,783,783,783,783,783,783,783,783,783,783,783,783,783,783,783,783,783,783,783,783,783,783,783,783,783,783,783,783,783,783,783,783,783,783,783,783,783,783,783,783,783,783,783,783,783,783,783,783,783,783,783,783,783,783,783,783,783,783,783,783,783,783,783,783,783,783,783,783,783,783,783,783,783,783,783,783,783,783,783,783,783,783,783,783,783,783,783,783,783,783,783,783,783,783,783,783,783,783,783,783,783,783,783,783,783,783,783,783,783,783,783,783,783,783,783,783,783,783,783,783,783,783,783,783,783,783,783,783,783,783,783,783,783,783,783,783,783,783,783,783,783,783,783,783,783,783,783,783,783,783,783,783,783,783,783,783,783,783,783,783,783,783,783,783,783,783,783,783,783,783,783,783,783,783,783,783,783,783,783,783,783,783,783,783,783,783,783,783,783,783,783,783,783,783,783,783,783,783,783,783,783,783,783,783,783,783,783,783,783,783,783,783,783,783,783,783,783,783,783,783,783,783,783,783,783,783,783,783,783,783,783,783,783,783,783,783,783,783,783,783,783,783,783,783,783,783,783,783,783,783,783,783,783,783,783,783,783,783,783,783,783,783,783,783,783,783,783,783,783,783,783,783,783,783,783,783,783,783,783,783,783,783,783,783,783,783,783,783,783,783,783,783,783,783,783,783,783,783,783,783,783,783,783,783,783,783,783,783,783,783,783,783,783,783,783,783,783,783,783,783,783,783,783,783,783,783,783,783,783,783,783,783,783,783,783,783,783,783,783,783,783,783,783,783,783,783,783,783,783,783,783,783,783,783,783,783,783,783,783,783,783,783,783,783,783,783,783,783,783,783,783,783,783,783,783,783,783,783,783,783,783,783,783,783,783,783,783,783,783,783,783,783,783,783,783,783,783,783,783,783,783,783,783,783,783,783,783,783,783,783,783,783,783,783,783,783,783,783,783,783,783,783,783,783,783,783,783,783,783,783,783,783,783,783,783,783,783,783,783,783,783,783,783,783,783,783,783,783,783,783,783,783,783,783,783,783,783,783,783,783,783,783,783,783,783,783,783,783,783,783,783,783,783,783,783,783,783,783,783,783,783,783,783,783,783,783,783,783,783,783,783,783,783,783,783,783,783,783,783,783,783,783,783,783,783,783,783,783,783,783,783,783,783,783,783,783,783,783,783,783,783,783,783,783,783,783,783,783,783,783,783,783,783,783,783,783,783,783,783,783,783,783,783,783,783,783,783,783,783,783,783,783,783,783,783,783,783,783,783,783,783,783,783,783,783,783,783,783,783,783,783,783,783,783,783,783,783,783,783,783,783,783,783,783,783,783,783,783,783,783,783,783,783,783,783,783,783,783,783,783,783,783,783,783,783,783,783,783,783,783,783,783,783,783,783,783,783,783,783,783,783,783,783,783,783,783,783,783,783,783,783,783,783,783,783,783,783,783,783,783,783,783,783,783,783,783,783,783,783,783,783,783,783,783,783,783,783,783,783,783,783,783,783,783,783,783,783,783,783,783,783,783,783,783,783,783,783,783,783,783,783,783,783,783,783,783,783,783,783,783,783,783,783,783,783,783,783,783,783,783,783,783,783,783,783,783,783,783,783,783,783,783,783,783,783,783,783,783,783,783,783,783,783,783,783,783,783,783,783,783,783,783,783,783,783,783,783,783,783,783,783,783,783,783,783,783,783,783,783,783,783,783,783,783,783,783,783,783,783,783,783,783,783,783,783,783,783,783,783,783,783,783,783,783,783,783,783,783,783,783,783,783,783,783,783,783,783,783,783,783,783,783,783,783,783,783,783,783,783,783,783,783,783,783,783,783,783,783,783,783,783,783,783,783,783,783,783,783,783,783,783,783,783,783,783,783,783,783,783,783,783,783,783,783,783,783,783,783,783,783,783,783,783,783,783,783,783,783,783,783,783,783,783,783,783,783,783,783,783,783,783,783,783,783,783,783,783,783,783,783,783,783,783,783,783,783,783,783,783,783,783,783,783,783,783,783,783,783,783,783,783,783,783,783,783,783,783,783,783,783,783,783,783,783,783,783,783,783,783,783,783,783,783,783,783,783,783,783,783,783,783,783,783,783,783,783,783,783,783,783,783,783,783,783,783,783,783,783,783,783,783,783,783,783,783,783,783,783,783,783,783,783,783,783,783,783,783,783,783,783,783,783,783,783,783,783,783,783,783,783,783,783,783,783,783,783,783,783,783,783,783,783,783,783,783,783,783,783,783,783,783,783,783,783,783,783,783,783,783,783,783,783,783,783,783,783,783,783,783,783,783,783,783,783,783,783,783,783,783,783,783,783,783,783,783,783,783,783,783,783,783,783,783,783,783,783,783,783,783,783,783,783,783,783,783,783,783,783,783,783,783,783,783,783,783,783,783,783,783,783,783,783,783,783,783,783,783,783,783,783,783,783,783,783,783,783,783,783,783,783,783,783,783,783,783,783,783,783,783,783,783,783,783,783,783,783,783,783,783,783,783,783,783,783,783,783,783,783,783,783,783,783,783,783,783,783,783,783,783,783,783,783,783,783,783,783,783,783,783,783,783,783,783,783,783,783,783,783,783,783,783,783,783,783,783,783,783,783,783,783,783,783,783,783,783,783,783,783,783,783,783,783,783,783,783,783,783,783,783,783,783,783,783,783,783,783,783,783,783,783,783,783,783,783,783,783,783,783,783,783,783,783,783,783,783,783,783,783,783,783,783,783,783,783,783,783,783,783,783,783,783,783,783,783,783,783,783,783,783,783,783,783,783,783,783,783,783,783,783,783,783,783,783,783,783,783,783,783,783,783,783,783,783,783,783,783,783,783,783,783,783,783,783,783,783,783,783,783,783,783,783,783,783,783,783,783,783,783,783,783,783,783,783,783,783,783,783,783,783,783,783,783,783,783,783,783,783,783,783,783,783,783,783,783,783,783,783,783,783,783,783,783,783,783,783,783,783,783,783,783,783,783,783,783,783,783,783,783,783,783,783,783,783,783,783,783,783,783,783,783,783,783,783,783,783,783,783,783,783,783,783,783,783,783,783,783,783,783,783,783,783,783,783,783,783,783,783,783,783,783,783,783,783,783,783,783,783,783,783,783,783,783,783,783,783,783,783,783,783,783,783,783,783,801,829,841,846,862,874,895,904,924,944,966,1007,1022,1031,1039,1045,1064,1080,1092,1098,1100,1100,1100,1100,1100,1100],"ymouse":[527,527,527,527,527,527,527,527,527,527,527,527,527,527,527,527,527,527,527,527,527,527,527,527,527,527,527,527,527,527,527,527,527,527,527,527,527,527,527,527,527,527,527,527,527,527,527,527,527,527,527,527,527,527,527,527,527,527,527,527,527,527,527,527,527,527,527,527,527,527,527,527,527,527,527,527,527,527,527,527,527,527,527,527,527,527,527,527,527,527,527,527,527,527,527,527,527,527,527,527,527,527,527,527,527,527,527,527,527,527,527,527,527,527,527,527,527,527,527,527,527,527,527,527,527,527,527,527,527,527,527,527,527,527,527,527,527,527,527,527,527,527,527,527,527,527,527,527,527,527,527,527,527,527,527,527,527,527,527,527,527,527,527,527,527,527,527,527,527,527,527,527,527,527,527,527,527,527,527,527,527,527,527,527,527,527,527,527,527,527,527,527,527,527,527,527,527,527,527,527,527,527,527,527,527,527,527,527,527,527,527,527,527,527,527,527,527,527,527,527,526,526,526,532,565,574,578,570,554,541,489,474,467,467,467,467,467,466,466,465,465,472,478,478,479,479,479,480,481,482,482,485,491,500,506,521,525,528,532,532,532,528,523,519,519,519,522,526,529,534,545,561,573,595,614,659,678,690,696,699,705,705,705,703,702,696,693,689,686,683,679,677,677,675,673,665,660,656,652,649,643,643,642,642,642,634,627,617,606,593,584,582,582,582,582,582,582,582,582,584,587,588,588,589,590,590,591,591,594,596,599,599,600,601,601,602,602,602,603,603,603,604,605,606,606,606,606,606,606,606,606,606,606,606,606,606,606,606,606,606,606,606,606,606,606,606,606,606,606,607,607,610,612,612,612,613,613,613,613,613,613,613,616,618,619,620,620,620,620,621,621,621,621,621,621,621,621,621,621,621,621,621,621,621,621,621,621,621,621,621,621,621,621,621,621,621,621,621,621,621,621,621,621,621,621,621,622,622,622,622,622,622,622,622,622,622,622,622,622,622,622,622,622,622,622,622,622,622,622,622,622,622,622,622,622,622,622,622,622,622,622,622,623,623,623,625,625,626,626,627,629,630,632,632,633,634,635,636,638,639,640,640,640,640,640,640,640,640,640,640,640,639,637,637,636,636,636,636,636,633,629,628,628,628,627,626,624,623,622,622,622,622,621,620,619,619,619,619,619,619,619,619,619,619,619,619,619,619,619,619,619,619,619,619,619,619,619,619,619,619,619,619,619,619,619,619,619,619,619,619,619,619,619,619,619,611,599,594,594,597,599,601,601,601,601,601,601,601,601,601,601,601,601,601,601,601,601,601,601,601,601,601,601,601,601,601,601,601,601,601,601,601,601,601,601,601,601,601,601,601,601,601,601,601,601,601,601,601,601,601,601,601,601,601,601,601,601,601,601,601,601,601,601,601,601,601,601,601,601,601,601,601,601,601,601,601,601,601,601,601,601,601,601,601,601,601,601,601,601,601,601,601,601,601,601,601,601,601,601,601,601,601,601,601,601,601,601,601,601,601,601,601,601,601,601,601,601,601,601,601,601,601,601,601,601,601,601,601,601,601,601,601,601,601,601,601,601,601,601,601,601,601,601,601,601,601,601,601,601,601,601,601,601,601,601,601,601,601,601,601,601,601,601,601,601,601,573,534,492,472,459,430,415,403,399,399,399,399,399,399,399,399,399,399,399,399,399,399,399,392,361,351,344,337,328,313,294,290,290,290,294,305,310,315,323,332,348,357,375,387,412,418,420,422,423,427,453,467,473,475,477,491,505,514,518,520,520,520,520,520,520,520,522,525,538,560,620,647,681,693,699,700,700,700,700,700,700,698,694,691,689,687,687,687,686,685,680,677,676,674,672,667,662,654,647,642,636,635,635,635,635,634,632,631,631,631,629,626,626,626,626,626,626,626,626,626,626,626,626,626,626,624,622,621,620,620,620,620,620,620,620,620,620,620,620,620,620,620,620,620,618,593,567,547,529,511,499,498,498,498,498,497,496,496,496,496,496,496,496,496,496,496,500,507,512,516,524,526,530,532,535,542,544,545,546,547,550,550,550,550,550,550,550,550,550,550,550,550,550,550,550,550,550,550,550,550,550,550,550,551,552,552,553,553,553,554,557,558,559,559,559,559,559,561,563,567,572,573,575,578,582,586,586,586,586,586,586,590,600,618,642,675,676,676,676,676,676,676,676,676,677,676,671,669,665,662,658,656,654,651,648,641,639,638,637,636,636,636,635,633,632,627,624,622,619,617,615,615,615,615,615,615,615,615,615,615,615,615,615,614,614,614,614,614,614,614,614,614,614,614,614,614,614,614,614,614,614,614,614,614,614,614,614,614,614,614,614,614,614,614,614,614,614,614,614,614,614,614,614,614,614,614,614,614,614,614,614,614,614,614,614,614,614,614,614,614,614,614,614,614,614,614,614,614,614,614,614,614,614,614,614,614,614,614,614,614,614,614,614,614,614,614,614,614,614,614,614,614,614,614,614,614,614,614,614,614,614,614,614,614,614,614,614,614,614,614,614,614,614,614,614,614,614,614,614,614,614,614,614,614,614,614,614,614,614,614,614,614,614,614,614,614,614,614,614,614,614,614,614,614,614,614,614,614,614,614,614,614,614,614,614,614,614,614,614,614,614,614,614,614,614,614,614,614,614,614,614,614,614,614,614,614,614,614,614,614,614,614,614,614,614,614,614,614,614,614,614,614,614,614,614,614,614,614,614,614,614,614,614,614,614,614,614,614,614,614,614,614,614,614,614,614,614,614,614,614,614,614,614,614,614,614,614,614,614,614,614,614,614,614,614,614,614,614,614,614,614,614,614,614,614,614,614,614,614,614,614,614,614,614,614,614,614,614,614,614,614,614,614,614,614,614,614,614,614,614,614,614,614,614,614,614,614,614,614,614,614,614,614,614,614,614,614,614,614,614,614,614,614,614,614,614,614,614,614,614,614,614,614,614,614,614,614,614,614,614,614,614,614,614,614,614,614,614,614,614,614,614,614,614,614,614,614,614,614,614,614,613,611,610,607,606,604,604,603,603,603,603,603,603,603,603,603,603,604,604,605,608,609,609,609,609,609,609,609,609,609,609,609,609,609,609,609,609,609,609,609,609,609,609,609,609,609,609,609,609,609,609,609,609,609,609,609,609,609,609,609,609,609,609,609,609,609,609,609,609,609,609,609,609,609,609,609,609,609,609,609,609,609,609,609,609,609,609,609,609,609,609,609,609,609,609,609,609,609,609,609,609,609,609,609,609,609,609,609,609,609,609,609,609,609,609,609,609,609,609,609,609,609,609,609,609,609,609,609,609,609,609,609,609,609,609,609,609,609,609,609,609,609,609,609,609,609,609,609,609,609,609,609,609,609,609,609,609,609,609,609,609,609,609,609,609,609,609,609,609,609,609,609,609,609,609,609,609,609,609,609,609,609,609,609,609,609,609,609,609,609,609,609,609,609,609,609,609,609,609,609,609,609,609,609,609,609,609,609,609,609,609,609,609,609,609,609,609,609,609,609,609,609,609,609,609,609,609,609,609,609,609,609,609,609,609,609,609,609,609,609,609,609,609,609,609,609,609,609,609,609,609,609,609,609,609,609,609,609,609,609,609,609,609,609,609,609,609,609,609,609,609,609,609,609,609,609,609,609,609,609,609,609,609,609,609,609,609,609,609,609,609,609,609,609,609,609,609,609,609,609,609,609,609,609,609,609,609,609,609,609,609,609,609,609,609,609,609,609,609,609,609,609,609,609,609,609,609,609,609,609,609,609,609,609,609,609,609,609,609,609,609,609,609,609,609,609,609,609,609,609,609,609,609,609,609,609,609,609,609,609,609,609,609,609,609,609,609,609,609,609,609,609,609,609,609,609,609,609,609,609,609,609,609,609,609,609,609,609,609,609,609,609,609,609,609,609,609,609,609,609,609,609,609,609,609,609,609,609,609,609,609,609,609,609,609,609,609,609,609,609,609,609,609,609,609,609,609,609,609,609,609,609,609,609,609,609,609,609,609,609,609,609,609,609,609,609,609,609,609,609,609,609,609,609,609,609,609,609,609,609,609,609,609,609,609,609,609,609,609,609,609,609,609,609,609,609,609,609,609,609,609,609,609,609,609,609,609,609,609,609,609,609,609,609,609,609,609,609,609,609,609,609,609,609,609,609,609,609,609,609,609,609,609,609,609,609,609,609,609,609,609,609,609,609,609,609,609,609,609,609,609,609,609,609,609,609,609,609,609,609,609,609,609,609,609,609,609,609,609,609,609,609,609,609,609,609,609,609,609,609,609,609,609,609,609,609,609,609,609,609,609,609,609,609,609,609,609,609,609,609,609,609,609,609,609,609,609,609,609,609,609,609,609,609,609,609,609,609,609,609,609,609,609,609,609,609,609,609,609,609,609,609,609,609,609,609,609,609,609,609,609,609,609,609,609,609,609,609,609,609,609,609,609,609,609,609,609,609,609,609,609,609,609,609,609,609,609,609,609,609,609,609,609,609,609,609,609,609,609,609,609,609,609,609,609,609,609,609,609,609,609,609,609,609,609,609,609,609,609,609,609,609,609,609,609,609,609,609,609,609,609,609,609,609,609,609,609,609,609,609,609,609,609,609,609,609,609,609,609,609,609,609,609,609,609,609,609,609,609,609,609,609,609,609,609,609,609,609,609,609,609,609,609,609,609,609,609,609,609,609,609,609,609,609,609,609,609,609,609,609,609,609,609,609,609,609,609,609,609,609,609,609,609,609,609,609,609,609,609,609,609,609,609,609,609,609,609,609,609,609,609,609,609,609,609,609,609,609,609,609,609,609,609,609,609,609,609,609,609,609,609,609,609,609,609,609,609,609,609,609,609,609,609,609,609,609,609,609,609,609,609,609,609,609,609,609,609,609,609,609,609,609,609,609,609,609,609,609,609,609,609,609,609,609,609,609,609,609,609,609,609,609,609,609,609,609,609,609,609,609,609,609,609,609,609,609,609,609,609,609,609,609,609,609,609,609,609,609,609,609,609,609,609,609,609,609,609,609,609,609,609,609,609,609,609,609,609,609,609,609,609,609,609,609,609,609,609,609,609,609,609,609,609,609,609,609,609,609,609,609,609,609,609,609,609,609,609,609,609,609,609,609,609,609,609,609,609,609,609,609,609,609,609,609,609,609,609,609,609,609,609,609,609,609,609,609,609,609,609,609,609,609,609,609,609,609,609,609,609,609,609,609,609,609,609,609,609,609,609,609,609,609,609,609,609,609,609,609,609,609,609,609,609,609,609,609,609,609,609,609,609,609,609,609,609,609,609,609,609,609,609,609,609,609,609,609,609,609,609,609,609,609,609,609,609,609,609,609,609,609,609,609,609,609,609,609,609,609,609,609,609,609,609,609,609,609,609,609,609,609,609,609,609,609,609,609,609,609,609,609,609,609,609,609,609,609,609,609,609,609,609,609,609,609,609,609,609,609,609,609,609,609,609,609,609,609,609,609,609,609,609,609,609,609,609,609,609,609,609,609,609,609,609,609,609,609,609,609,609,609,609,609,609,609,609,609,609,609,609,609,609,609,609,609,609,609,609,609,609,609,609,609,609,609,609,609,609,609,609,609,609,609,609,609,609,609,609,609,609,609,609,609,609,609,609,609,609,609,609,609,609,609,609,609,609,609,609,609,609,609,609,609,609,609,609,609,609,609,609,609,609,609,609,609,609,609,609,609,609,609,609,609,609,609,609,609,609,609,609,609,609,609,609,609,609,609,609,609,609,609,609,609,609,609,609,609,609,609,609,609,609,609,609,609,609,609,609,609,609,609,609,609,609,609,609,609,609,609,609,609,609,609,609,609,609,609,609,609,609,609,609,609,609,609,609,609,609,609,609,609,609,609,609,609,609,609,609,609,609,609,609,609,609,609,609,609,609,609,609,609,609,609,609,609,609,609,609,609,609,609,609,609,609,609,609,609,609,609,609,609,609,609,609,609,609,609,609,609,609,609,609,609,609,609,609,609,609,609,609,609,609,609,609,609,609,609,609,609,609,609,609,609,609,609,609,609,609,609,609,609,609,609,609,609,609,609,609,609,609,609,609,609,609,609,609,609,609,609,609,609,609,609,609,609,609,609,609,609,609,609,609,609,609,609,609,609,609,609,609,609,609,609,609,609,609,609,609,609,609,609,609,609,609,609,609,609,609,609,609,609,609,609,609,609,609,609,609,609,609,609,609,609,609,609,609,609,609,609,609,609,609,609,609,609,609,609,609,609,609,609,609,609,609,609,609,609,609,609,609,609,609,609,609,609,609,609,609,609,609,609,609,609,609,609,609,609,609,609,609,609,609,609,609,609,609,609,609,609,609,609,609,609,609,609,609,609,609,609,609,609,609,609,609,609,609,609,609,609,609,609,609,609,609,609,609,609,609,609,609,609,609,609,609,609,609,609,609,609,609,609,609,609,609,609,609,609,609,609,609,609,609,609,609,609,609,609,609,609,609,609,609,609,609,609,609,609,609,609,609,609,609,609,609,609,609,609,609,609,609,609,609,609,609,609,609,609,609,609,609,609,609,609,609,609,609,609,609,609,609,609,609,609,609,609,609,609,609,609,609,609,609,609,609,609,609,609,609,609,609,609,609,609,609,609,609,609,609,609,609,609,609,609,609,609,609,609,609,609,609,609,609,609,609,609,609,609,609,609,609,609,609,609,609,609,609,609,609,609,609,609,609,609,609,609,609,609,609,609,609,609,609,609,609,596,506,401,313,258,237,218,217,215,213,210,194,184,179,173,168,156,139,127,117,112,110,110,108,104,97],"timestamp_mouse":[9,18,40,59,78,98,118,139,158,179,198,219,239,258,280,299,320,339,360,378,399,418,438,458,479,499,519,539,558,579,598,619,638,659,679,698,718,739,759,779,800,819,839,860,879,899,919,939,958,979,998,1019,1039,1058,1079,1099,1118,1139,1158,1179,1198,1220,1239,1259,1279,1299,1319,1339,1359,1379,1398,1419,1438,1459,1479,1499,1519,1539,1560,1579,1598,1618,1639,1659,1679,1699,1719,1739,1759,1779,1799,1820,1839,1859,1879,1898,1919,1938,1960,1979,2000,2019,2039,2058,2079,2099,2118,2139,2159,2180,2200,2219,2239,2259,2279,2298,2319,2340,2360,2379,2399,2419,2439,2459,2480,2499,2519,2539,2559,2579,2598,2620,2640,2659,2679,2698,2718,2738,2758,2780,2799,2818,2838,2858,2879,2898,2920,2940,2959,2979,2999,3019,3038,3059,3079,3098,3120,3140,3160,3179,3199,3219,3239,3259,3280,3299,3318,3338,3360,3378,3398,3420,3438,3459,3479,3498,3519,3539,3559,3579,3599,3619,3638,3659,3678,3698,3718,3739,3758,3778,3799,3820,3840,3859,3879,3899,3918,3939,3959,3979,3999,4019,4039,4059,4079,4099,4118,4139,4159,4179,4198,4220,4240,4259,4279,4298,4320,4340,4359,4379,4398,4418,4438,4459,4479,4499,4519,4539,4559,4579,4599,4618,4638,4659,4679,4699,4720,4739,4758,4779,4798,4818,4838,4858,4879,4898,4918,4938,4958,4979,5000,5019,5039,5058,5079,5100,5119,5139,5159,5179,5199,5219,5239,5259,5279,5298,5318,5338,5358,5379,5399,5419,5440,5460,5478,5498,5518,5538,5558,5579,5598,5619,5638,5660,5680,5700,5719,5739,5758,5779,5798,5818,5839,5858,5879,5898,5918,5938,5958,5980,6000,6020,6039,6058,6079,6098,6118,6140,6158,6178,6198,6219,6238,6259,6279,6300,6319,6339,6359,6378,6398,6419,6438,6460,6478,6498,6520,6539,6558,6579,6598,6618,6638,6660,6678,6698,6718,6740,6759,6778,6800,6819,6838,6859,6878,6898,6920,6938,6959,6980,6999,7018,7039,7058,7079,7100,7118,7138,7159,7179,7198,7220,7238,7259,7279,7299,7318,7339,7358,7379,7399,7418,7438,7460,7479,7499,7519,7540,7560,7579,7598,7619,7638,7659,7678,7699,7719,7739,7759,7780,7798,7819,7840,7859,7879,7899,7918,7940,7959,7979,7999,8019,8039,8058,8079,8098,8118,8139,8159,8180,8200,8219,8240,8259,8278,8299,8318,8338,8359,8378,8398,8420,8440,8459,8480,8498,8519,8539,8560,8578,8599,8620,8639,8660,8680,8699,8718,8739,8759,8779,8799,8819,8839,8858,8879,8899,8919,8939,8959,8979,8999,9018,9038,9059,9080,9098,9118,9138,9159,9180,9199,9219,9239,9258,9279,9298,9319,9339,9360,9379,9398,9418,9439,9460,9479,9498,9518,9539,9558,9580,9598,9618,9638,9659,9678,9698,9719,9739,9758,9779,9798,9818,9838,9859,9879,9899,9919,9938,9958,9979,9999,10019,10038,10059,10080,10099,10118,10138,10159,10179,10199,10220,10238,10259,10279,10299,10320,10338,10359,10379,10398,10420,10438,10459,10479,10499,10518,10539,10558,10580,10600,10619,10639,10659,10678,10699,10718,10739,10759,10779,10799,10818,10839,10859,10879,10899,10918,10939,10960,10979,10998,11018,11039,11059,11078,11099,11118,11139,11159,11179,11198,11218,11239,11259,11279,11298,11319,11338,11358,11378,11399,11420,11440,11459,11480,11499,11519,11539,11559,11580,11600,11619,11639,11660,11680,11699,11719,11739,11759,11779,11799,11819,11839,11860,11880,11899,11919,11939,11960,11980,11999,12019,12039,12060,12080,12100,12118,12139,12158,12180,12199,12219,12239,12259,12279,12299,12319,12339,12359,12380,12400,12419,12439,12459,12478,12499,12518,12539,12560,12579,12599,12618,12638,12658,12680,12699,12719,12739,12759,12778,12800,12818,12838,12858,12878,12899,12919,12939,12959,12979,12999,13018,13039,13060,13079,13099,13119,13139,13159,13179,13199,13219,13240,13259,13279,13298,13318,13338,13359,13379,13398,13419,13438,13459,13479,13500,13518,13539,13558,13579,13599,13619,13639,13660,13680,13700,13719,13739,13759,13778,13798,13818,13840,13860,13879,13899,13919,13939,13959,13978,13999,14018,14040,14059,14079,14099,14119,14139,14158,14179,14199,14218,14238,14258,14278,14299,14318,14339,14360,14379,14400,14418,14438,14459,14478,14499,14519,14538,14558,14579,14598,14619,14639,14659,14679,14698,14719,14739,14759,14779,14799,14818,14839,14859,14879,14899,14919,14939,14958,14979,14999,15019,15038,15059,15079,15098,15118,15139,15159,15178,15198,15218,15238,15259,15278,15298,15318,15339,15358,15378,15399,15418,15440,15459,15479,15498,15518,15538,15558,15580,15599,15620,15638,15658,15678,15699,15719,15738,15759,15780,15799,15819,15839,15859,15878,15898,15918,15939,15958,15979,15999,16019,16039,16058,16078,16100,16119,16139,16158,16178,16200,16218,16238,16258,16278,16299,16318,16339,16358,16379,16398,16418,16439,16458,16478,16500,16520,16539,16559,16579,16599,16619,16638,16659,16678,16699,16718,16738,16758,16780,16798,16819,16840,16858,16879,16900,16918,16939,16960,16980,16999,17019,17038,17059,17079,17100,17119,17138,17158,17179,17198,17218,17238,17260,17279,17299,17318,17339,17359,17379,17398,17418,17438,17460,17479,17499,17519,17538,17559,17578,17599,17618,17638,17658,17678,17698,17719,17738,17758,17778,17799,17818,17839,17859,17880,17899,17919,17939,17959,17978,17998,18019,18038,18059,18079,18099,18118,18140,18158,18180,18199,18219,18239,18258,18279,18300,18319,18338,18358,18378,18398,18419,18440,18460,18479,18498,18518,18538,18559,18578,18600,18619,18639,18659,18680,18698,18718,18738,18758,18778,18799,18818,18840,18860,18880,18898,18918,18938,18958,18978,18999,19018,19038,19059,19080,19098,19119,19138,19158,19179,19198,19218,19239,19259,19279,19300,19319,19340,19359,19379,19399,19419,19438,19458,19479,19499,19519,19538,19558,19578,19599,19619,19638,19659,19679,19699,19719,19739,19759,19779,19798,19819,19839,19858,19878,19900,19918,19938,19960,19980,19999,20019,20038,20059,20080,20099,20118,20138,20159,20178,20198,20218,20238,20258,20279,20299,20319,20339,20358,20379,20400,20419,20439,20458,20480,20499,20518,20539,20558,20580,20599,20619,20638,20660,20679,20699,20719,20739,20760,20779,20799,20820,20839,20859,20879,20900,20919,20938,20959,20980,20999,21020,21038,21059,21080,21098,21119,21139,21159,21178,21199,21220,21238,21258,21279,21298,21320,21338,21358,21379,21398,21419,21438,21458,21480,21500,21519,21539,21559,21578,21598,21620,21638,21660,21678,21700,21718,21739,21759,21780,21799,21819,21840,21858,21879,21900,21920,21939,21959,21979,22000,22019,22039,22060,22079,22099,22119,22138,22158,22180,22200,22218,22238,22260,22278,22299,22320,22340,22359,22378,22399,22420,22438,22459,22480,22500,22519,22540,22560,22578,22600,22619,22640,22658,22678,22698,22720,22738,22759,22780,22798,22818,22840,22858,22879,22899,22918,22939,22960,22979,22999,23018,23039,23058,23078,23099,23120,23139,23159,23179,23198,23220,23238,23259,23279,23299,23319,23338,23359,23379,23400,23419,23438,23459,23480,23499,23519,23538,23559,23580,23598,23619,23640,23658,23679,23699,23720,23738,23759,23778,23798,23819,23840,23858,23878,23899,23918,23938,23960,23978,23998,24019,24039,24058,24078,24099,24119,24140,24160,24178,24200,24219,24239,24260,24278,24299,24319,24339,24360,24379,24399,24419,24438,24458,24479,24500,24518,24538,24559,24578,24598,24618,24639,24659,24678,24699,24718,24738,24760,24778,24800,24819,24839,24858,24880,24899,24920,24939,24959,24980,24999,25019,25040,25059,25079,25098,25118,25139,25159,25178,25200,25220,25239,25259,25279,25298,25319,25340,25359,25379,25400,25419,25438,25459,25478,25499,25520,25540,25559,25579,25598,25619,25639,25659,25678,25699,25719,25738,25758,25779,25800,25819,25839,25859,25880,25900,25919,25939,25959,25979,25998,26019,26039,26059,26080,26099,26118,26138,26159,26179,26199,26220,26239,26258,26280,26299,26320,26340,26358,26379,26400,26419,26439,26459,26480,26498,26518,26538,26560,26578,26599,26619,26640,26658,26679,26699,26719,26739,26758,26779,26798,26819,26839,26860,26879,26899,26919,26939,26959,26978,26998,27019,27039,27060,27078,27099,27118,27138,27159,27180,27199,27219,27238,27259,27280,27299,27319,27338,27360,27378,27399,27419,27439,27460,27479,27499,27519,27540,27560,27580,27598,27618,27638,27658,27678,27698,27720,27739,27760,27780,27800,27819,27839,27858,27879,27898,27919,27945,27960,27980,27999,28019,28039,28058,28078,28099,28118,28140,28158,28178,28199,28219,28240,28258,28279,28298,28320,28340,28359,28379,28399,28420,28438,28458,28478,28499,28519,28539,28559,28578,28599,28619,28639,28658,28678,28699,28718,28738,28759,28778,28799,28820,28838,28858,28879,28898,28919,28938,28959,28978,28999,29020,29039,29059,29080,29099,29119,29139,29159,29178,29199,29220,29239,29260,29279,29298,29318,29338,29358,29379,29398,29420,29440,29460,29480,29499,29519,29538,29559,29579,29600,29620,29640,29659,29679,29699,29720,29739,29759,29779,29799,29819,29839,29859,29879,29899,29918,29939,29958,29980,29999,30020,30039,30059,30078,30098,30119,30140,30158,30178,30198,30220,30239,30258,30278,30298,30319,30339,30360,30379,30399,30419,30439,30458,30480,30500,30519,30540,30559,30578,30599,30620,30639,30659,30678,30700,30719,30739,30759,30779,30799,30818,30839,30858,30878,30900,30920,30939,30959,30979,30998,31020,31038,31058,31080,31099,31119,31139,31158,31178,31199,31218,31239,31258,31280,31299,31319,31340,31359,31379,31400,31419,31438,31459,31479,31498,31519,31540,31558,31579,31600,31618,31639,31658,31678,31699,31720,31739,31760,31778,31798,31818,31839,31860,31880,31899,31919,31938,31958,31978,32000,32020,32039,32058,32080,32098,32118,32139,32159,32179,32198,32219,32239,32260,32279,32300,32319,32339,32359,32380,32400,32419,32439,32460,32480,32498,32519,32539,32559,32578,32600,32620,32639,32659,32678,32699,32720,32739,32759,32780,32800,32818,32839,32858,32880,32898,32919,32939,32959,32979,32999,33019,33038,33059,33078,33100,33120,33140,33159,33178,33199,33220,33240,33259,33280,33299,33320,33339,33359,33379,33400,33420,33438,33460,33479,33499,33518,33540,33559,33579,33598,33619,33639,33659,33679,33700,33719,33739,33759,33779,33798,33820,33839,33858,33878,33900,33919,33939,33959,33979,33999,34018,34040,34059,34079,34098,34118,34139,34160,34178,34199,34219,34239,34259,34279,34300,34318,34338,34360,34378,34399,34418,34438,34460,34480,34499,34519,34539,34558,34579,34599,34618,34639,34659,34678,34700,34719,34739,34759,34780,34800,34819,34839,34860,34880,34898,34919,34940,34959,34978,34999,35018,35039,35058,35080,35100,35119,35139,35158,35178,35198,35219,35240,35260,35278,35298,35320,35338,35359,35379,35398,35420,35438,35458,35480,35500,35519,35539,35559,35579,35599,35618,35639,35659,35679,35698,35718,35740,35758,35779,35799,35818,35839,35859,35878,35898,35919,35940,35959,35980,35998,36018,36039,36059,36080,36100,36119,36140,36158,36178,36198,36219,36240,36258,36279,36298,36318,36338,36359,36380,36399,36418,36440,36460,36478,36499,36519,36540,36558,36578,36599,36618,36639,36658,36678,36699,36718,36738,36759,36779,36800,36818,36838,36859,36879,36899,36919,36939,36960,36979,36998,37019,37039,37058,37078,37098,37118,37140,37158,37178,37199,37219,37238,37259,37278,37298,37319,37338,37360,37378,37399,37419,37438,37458,37479,37499,37519,37538,37558,37578,37600,37620,37639,37659,37678,37698,37719,37738,37759,37779,37799,37818,37839,37860,37878,37898,37919,37939,37960,37979,37999,38020,38038,38058,38078,38098,38119,38140,38159,38179,38198,38219,38240,38259,38278,38299,38319,38338,38358,38378,38400,38418,38439,38458,38480,38499,38518,38539,38558,38580,38598,38618,38638,38660,38679,38700,38719,38740,38759,38779,38798,38819,38840,38859,38878,38899,38918,38939,38958,38979,38999,39018,39040,39059,39080,39098,39118,39139,39158,39179,39200,39220,39240,39259,39278,39298,39319,39338,39358,39380,39400,39418,39439,39458,39480,39500,39519,39540,39559,39579,39599,39618,39638,39660,39680,39699,39719,39740,39759,39779,39799,39820,39839,39859,39880,39900,39918,39939,39960,39978,39998,40018,40039,40059,40079,40098,40118,40139,40160,40178,40199,40218,40238,40258,40279,40299,40319,40338,40358,40380,40398,40418,40438,40458,40480,40498,40519,40539,40560,40579,40600,40620,40639,40660,40679,40699,40718,40738,40759,40780,40799,40818,40839,40859,40878,40899,40920,40939,40958,40978,40999,41019,41038,41058,41079,41100,41120,41138,41158,41180,41199,41218,41239,41260,41278,41299,41319,41340,41360,41378,41399,41420,41438,41458,41478,41499,41520,41540,41558,41579,41599,41619,41639,41658,41679,41699,41719,41740,41759,41779,41799,41819,41840,41859,41879,41898,41919,41940,41959,41979,41999,42020,42038,42059,42078,42098,42119,42140,42158,42179,42200,42220,42239,42259,42278,42299,42318,42340,42359,42378,42398,42418,42440,42460,42479,42500,42520,42538,42559,42579,42600,42619,42639,42660,42679,42699,42719,42739,42758,42778,42799,42820,42839,42858,42879,42899,42919,42938,42959,42979,43000,43020,43039,43058,43080,43099,43120,43139,43158,43179,43200,43219,43240,43259,43279,43298,43319,43338,43358,43380,43398,43418,43439,43458,43480,43500,43519,43539,43559,43578,43599,43618,43639,43660,43679,43700,43720,43740,43759,43778,43799,43819,43838,43860,43879,43899,43918,43939,43958,43979,44000,44019,44040,44059,44079,44099,44118,44140,44160,44180,44198,44218,44239,44259,44279,44298,44320,44340,44360,44379,44398,44419,44438,44459,44479,44498,44519,44539,44558,44580,44598,44619,44639,44660,44680,44700,44718,44738,44759,44780,44798,44819,44840,44858,44878,44899,44918,44939,44959,44978,44998,45019,45038,45060,45078,45099,45118,45139,45158,45178,45199,45219,45238,45259,45278,45298,45319,45339,45358,45380,45399,45419,45439,45458,45479,45500,45519,45538,45558,45579,45598,45619,45640,45658,45679,45700,45719,45739,45759,45778,45798,45820,45839,45859,45880,45898,45919,45940,45960,45978,45999,46019,46040,46059,46079,46099,46118,46138,46158,46178,46198,46220,46240,46260,46278,46298,46320,46340,46359,46380,46399,46418,46438,46458,46480,46499,46519,46539,46558,46580,46598,46620,46638,46658,46678,46700,46718,46739,46758,46779,46799,46820,46840,46859,46879,46898,46920,46939,46958,46979,46998,47018,47039,47058,47078,47100,47119,47139,47159,47178,47200,47218,47238,47258,47280,47299,47318,47339,47358,47380,47398,47418,47440,47460,47479,47499,47520,47538,47559,47578,47600,47619,47640,47660,47679,47699,47719,47739,47760,47778,47798,47819,47840,47860,47879,47898,47919,47939,47958,47978,47999,48018,48039,48059,48080,48098,48118,48139,48160,48178,48199,48218,48238,48259,48280,48299,48318,48338,48358,48379,48398,48420,48438,48458,48480,48499,48518,48539,48558,48579,48600,48619,48640,48660,48678,48699,48720,48739,48758,48779,48799,48820,48838,48859,48878,48898,48920,48938,48959,48979,49000,49019,49039,49058,49079,49100,49118,49139,49159,49179,49199,49219,49239,49259,49279,49299,49318,49338,49359,49380,49399,49419,49439,49458,49480,49500,49520,49539,49559,49579,49599,49620,49639,49658,49679,49699,49719,49740,49759,49779,49799,49818,49839,49858,49879,49898,49919,49940,49959,49980,50000,50018,50039,50059,50078,50099,50118,50138,50158,50178,50200,50218,50239,50259,50279,50298,50319,50340,50359,50380,50399,50420,50438,50458,50479,50499,50519,50539,50559,50579,50600,50620,50639,50659,50678,50698,50719,50738,50760,50778,50799,50819,50838,50860,50879,50898,50919,50940,50958,50979,50998,51020,51039,51058,51079,51100,51119,51139,51159,51178,51199,51220,51238,51260,51279,51299,51319,51339,51359,51379,51398,51419,51438,51458,51480,51499,51519,51540,51559,51580,51598,51620,51639,51659,51678,51699,51720,51739,51759,51779,51800,51820,51839,51859,51879,51898,51920,51939,51959,51979,52000,52019,52039,52060,52079,52099,52120,52138,52160,52179,52198,52218,52239,52259,52279,52300,52318,52338,52359,52380,52399,52420,52439,52460,52479,52498,52520,52539,52559,52580,52598,52618,52639,52658,52679,52699,52718,52740,52759,52778,52800,52818,52838,52858,52880,52898,52918,52939,52960,52980,53000,53019,53039,53059,53078,53099,53118,53139,53160,53179,53200,53218,53238,53259,53278,53299,53318,53339,53360,53378,53398,53418,53439,53458,53480,53500,53519,53540,53560,53580,53599,53618,53638,53659,53678,53700,53720,53738,53759,53778,53798,53818,53839,53860,53880,53898,53918,53939,53958,53980,54000,54019,54039,54059,54078,54099,54120,54140,54159,54178,54199,54218,54240,54259,54279,54299,54320,54339,54359,54379,54398,54418,54439,54460,54479,54499,54518,54540,54558,54580,54598,54618,54640,54658,54678,54699,54719,54738,54759,54778,54799,54819,54838,54858,54878,54898,54919,54940,54958,54979,54999,55020,55039,55059,55078,55099,55119,55139,55159,55178,55200,55219,55238,55259,55280,55298,55318,55339,55360,55378,55399,55418,55440,55458,55479,55499,55520,55538,55559,55579,55599,55619,55638,55659,55678,55698,55719,55740,55759,55779,55798,55820,55839,55860,55878,55900,55918,55940,55960,55978,55999,56019,56039,56059,56079,56100,56120,56140,56159,56178,56199,56219,56239,56260,56278,56299,56320,56339,56359,56378,56400,56419,56438,56459,56478,56500,56520,56538,56559,56579,56598,56618,56639,56658,56678,56698,56718,56738,56759,56779,56799,56820,56839,56858,56878,56900,56920,56939,56959,56979,57000,57020,57039,57061,57080,57100,57120,57140,57161,57180,57201,57220,57240,57260,57281,57301,57320,57340,57361,57380,57400,57420,57439,57459,57481,57500,57521,57541,57561,57581,57601,57621,57639,57660,57680,57700,57721,57740,57761,57781,57801,57819,57839,57860,57880,57901,57920,57940,57961,57981,58000,58020,58041,58059,58079,58099,58121,58141,58159,58181,58201,58220,58239,58260,58281,58299,58320,58341,58361,58379,58400,58420,58440,58460,58480,58501,58521,58540,58560,58580,58601,58620,58640,58659,58679,58700,58719,58739,58761,58781,58800,58821,58840,58861,58880,58901,58921,58941,58959,58981,59000,59021,59039,59060,59079,59100,59121,59141,59159,59181,59201,59221,59240,59261,59280,59300,59320,59341,59360,59380,59401,59420,59440,59459,59481,59500,59520,59541,59561,59581,59600,59621,59640,59660,59680,59700,59719,59740,59759,59780,59800,59820,59841,59860,59881,59901,59920,59940,59959,59981,60001,60020,60040,60060,60080,60100],"xSR":741.5,"ySR":469.95,"xT1":424.9,"yT1":0,"xT2":1058.1,"yT2":0,"toosoon":0,"cond_shown":"Congruent","ratio_trial":100,"L_num":4,"L_den":8,"R_num":6,"R_den":10,"correct_side":2,"subjID":"angel gabriel polania amaya","gender":"0","age":"8","school":"4","test":{"fix_dur":[250,1500],"timestim":1000,"targets_dim":[100,100],"targets_relative_coord":[0.3,0.7],"size_stim":[880,420],"start_dim":[100,100],"size_start":[300,300],"size_fix":60,"samplingrate":20,"img_types":["Congruent","Incongruent"],"ratios":[100,200,300],"rep_conds":19,"nTrials":120,"trials_to_rest":500,"Trials_order":[114,75,89,40,98,82,21,26,105,41,61,1,78,55,107,32,58,19,74,85,77,88,66,3,24,20,27,101,62,43,83,5,45,117,116,67,22,14,4,73,10,34,13,35,2,86,65,8,72,76,103,80,93,29,96,31,81,46,68,115,90,102,119,48,84,11,109,92,15,36,47,110,16,18,87,100,53,95,0,39,113,106,23,57,63,52,91,64,60,42,104,56,33,94,112,118,51,25,108,6,49,30,54,9,71,12,28,69,111,50,97,44,37,17,99,70,59,7,38,79],"cond_shown":["Congruent","Incongruent","Incongruent","Congruent","Congruent","Congruent","Incongruent","Congruent","Incongruent","Incongruent","Incongruent","Incongruent","Congruent","Incongruent","Incongruent","Congruent","Congruent","Incongruent","Congruent","Incongruent","Incongruent","Congruent","Congruent","Incongruent","Congruent","Congruent","Incongruent","Incongruent","Congruent","Incongruent","Incongruent","Incongruent","Incongruent","Incongruent","Congruent","Incongruent","Congruent","Congruent","Congruent","Incongruent","Congruent","Congruent","Incongruent","Incongruent","Congruent","Congruent","Incongruent","Congruent","Congruent","Congruent","Incongruent","Congruent","Incongruent","Incongruent","Congruent","Incongruent","Incongruent","Congruent","Congruent","Incongruent","Congruent","Congruent","Incongruent","Congruent","Congruent","Incongruent","Incongruent","Congruent","Incongruent","Congruent","Incongruent","Congruent","Congruent","Congruent","Incongruent","Congruent","Incongruent","Incongruent","Congruent","Incongruent","Incongruent","Congruent","Incongruent","Incongruent","Incongruent","Congruent","Incongruent","Congruent","Congruent","Congruent","Congruent","Congruent","Incongruent","Congruent","Congruent","Congruent","Incongruent","Incongruent","Congruent","Congruent","Incongruent","Congruent","Congruent","Incongruent","Incongruent","Congruent","Congruent","Incongruent","Incongruent","Congruent","Incongruent","Congruent","Incongruent","Incongruent","Incongruent","Congruent","Incongruent","Incongruent","Congruent","Incongruent"],"ratio_trial":[100,200,300,300,200,300,200,200,200,300,100,100,100,100,300,200,300,100,200,100,300,300,100,200,100,200,200,300,200,100,300,300,200,200,200,100,300,200,300,100,300,300,100,300,200,200,300,200,100,300,100,200,200,300,100,100,200,300,200,100,100,100,300,100,100,300,100,200,200,100,300,200,300,100,200,300,300,300,100,200,300,300,300,200,200,300,100,300,100,100,200,200,200,300,300,300,200,100,100,100,100,100,100,200,300,100,300,200,200,200,100,200,100,300,200,300,300,100,200,100],"left_num":[4,14,4,9,15,3,4,1,7,13,6,4,7,2,4,3,1,11,3,10,3,11,4,11,3,5,7,7,6,11,7,4,7,4,5,2,1,12,2,8,24,11,9,4,4,14,7,1,8,20,9,3,7,1,3,17,3,2,7,17,6,9,4,10,6,4,6,3,6,10,8,3,1,7,6,1,4,2,9,9,4,4,4,7,14,3,10,1,7,3,9,5,7,2,3,5,6,8,8,2,6,15,6,14,4,11,3,7,3,9,10,13,9,4,3,4,2,2,3,17],"right_num":[6,12,2,3,4,2,1,21,8,12,13,8,9,8,2,9,19,9,11,9,4,4,6,3,2,14,8,8,11,9,8,8,4,14,14,6,11,6,12,6,2,2,13,2,3,6,8,21,2,9,13,14,14,2,4,10,1,12,2,10,15,8,2,3,15,2,13,14,3,3,14,14,19,9,3,11,2,6,8,8,6,2,2,6,6,11,8,19,9,2,4,14,6,12,4,6,3,1,2,11,3,13,15,6,2,4,4,8,1,4,9,14,13,2,11,1,6,8,14,10],"left_den":[8,30,20,10,25,6,30,2,10,26,10,8,14,4,20,12,3,22,10,25,6,22,8,20,6,10,10,10,20,22,10,5,15,6,10,4,5,15,10,16,30,22,15,20,10,28,10,2,16,25,15,6,10,2,20,30,10,10,21,30,12,15,20,25,12,20,10,6,20,25,10,10,3,14,20,5,20,4,15,15,5,5,20,15,30,12,25,3,14,6,20,10,15,10,6,25,20,20,16,5,12,25,12,30,20,22,6,10,10,20,25,26,15,20,4,10,4,4,6,30],"right_den":[10,18,4,5,10,10,3,30,16,15,26,20,15,20,4,20,30,15,22,18,20,20,10,4,5,20,16,20,22,15,20,16,6,30,20,15,22,10,24,10,4,10,26,4,15,20,20,30,5,18,26,20,28,10,16,15,2,24,15,15,25,16,4,10,25,4,26,20,6,10,28,28,30,15,6,22,4,30,16,10,12,4,4,9,9,20,16,30,15,5,16,20,9,24,5,12,6,2,5,22,5,26,25,9,4,10,5,16,2,16,18,20,26,4,20,10,30,20,20,15],"correct_side":[2,2,2,1,1,1,2,2,1,2,1,1,2,1,2,2,2,2,2,2,1,1,2,2,1,2,1,1,2,2,1,1,2,1,2,1,2,1,2,2,1,1,1,2,1,1,1,2,1,1,1,2,1,1,2,2,2,2,1,2,2,1,2,1,2,2,1,2,2,1,1,2,2,2,2,2,2,1,1,2,1,1,2,2,2,2,2,2,2,1,1,2,2,2,2,2,2,2,1,2,2,1,2,2,2,1,2,1,2,1,2,2,1,2,1,1,1,1,2,2],"img_shown":["img2/100/Congruent/R/C_Dist_100_LN_4_LD_8_RN_6_RD_10_1.png","img2/200/Incongruent/R/I_Dist_200_LN_14_LD_30_RN_12_RD_18_1.png","img2/300/Incongruent/R/I_Dist_300_LN_4_LD_20_RN_2_RD_4_1.png","img2/300/Congruent/L/C_Dist_300_LN_9_LD_10_RN_3_RD_5_0.png","img2/200/Congruent/L/C_Dist_200_LN_15_LD_25_RN_4_RD_10_0.png","img2/300/Congruent/L/C_Dist_300_LN_3_LD_6_RN_2_RD_10_0.png","img2/200/Incongruent/R/I_Dist_200_LN_4_LD_30_RN_1_RD_3_1.png","img2/200/Congruent/R/C_Dist_200_LN_1_LD_2_RN_21_RD_30_1.png","img2/200/Incongruent/L/I_Dist_200_LN_7_LD_10_RN_8_RD_16_0.png","img2/300/Incongruent/R/I_Dist_300_LN_13_LD_26_RN_12_RD_15_1.png","img2/100/Incongruent/L/I_Dist_100_LN_6_LD_10_RN_13_RD_26_0.png","img2/100/Incongruent/L/I_Dist_100_LN_4_LD_8_RN_8_RD_20_0.png","img2/100/Congruent/R/C_Dist_100_LN_7_LD_14_RN_9_RD_15_1.png","img2/100/Incongruent/L/I_Dist_100_LN_2_LD_4_RN_8_RD_20_0.png","img2/300/Incongruent/R/I_Dist_300_LN_4_LD_20_RN_2_RD_4_1.png","img2/200/Congruent/R/C_Dist_200_LN_3_LD_12_RN_9_RD_20_1.png","img2/300/Congruent/R/C_Dist_300_LN_1_LD_3_RN_19_RD_30_1.png","img2/100/Incongruent/R/I_Dist_100_LN_11_LD_22_RN_9_RD_15_1.png","img2/200/Congruent/R/C_Dist_200_LN_3_LD_10_RN_11_RD_22_1.png","img2/100/Incongruent/R/I_Dist_100_LN_10_LD_25_RN_9_RD_18_1.png","img2/300/Incongruent/L/I_Dist_300_LN_3_LD_6_RN_4_RD_20_0.png","img2/300/Congruent/L/C_Dist_300_LN_11_LD_22_RN_4_RD_20_0.png","img2/100/Congruent/R/C_Dist_100_LN_4_LD_8_RN_6_RD_10_1.png","img2/200/Incongruent/R/I_Dist_200_LN_11_LD_20_RN_3_RD_4_1.png","img2/100/Congruent/L/C_Dist_100_LN_3_LD_6_RN_2_RD_5_0.png","img2/200/Congruent/R/C_Dist_200_LN_5_LD_10_RN_14_RD_20_1.png","img2/200/Incongruent/L/I_Dist_200_LN_7_LD_10_RN_8_RD_16_0.png","img2/300/Incongruent/L/I_Dist_300_LN_7_LD_10_RN_8_RD_20_0.png","img2/200/Congruent/R/C_Dist_200_LN_6_LD_20_RN_11_RD_22_1.png","img2/100/Incongruent/R/I_Dist_100_LN_11_LD_22_RN_9_RD_15_1.png","img2/300/Incongruent/L/I_Dist_300_LN_7_LD_10_RN_8_RD_20_0.png","img2/300/Incongruent/L/I_Dist_300_LN_4_LD_5_RN_8_RD_16_0.png","img2/200/Incongruent/R/I_Dist_200_LN_7_LD_15_RN_4_RD_6_1.png","img2/200/Incongruent/L/I_Dist_200_LN_4_LD_6_RN_14_RD_30_0.png","img2/200/Congruent/R/C_Dist_200_LN_5_LD_10_RN_14_RD_20_1.png","img2/100/Incongruent/L/I_Dist_100_LN_2_LD_4_RN_6_RD_15_0.png","img2/300/Congruent/R/C_Dist_300_LN_1_LD_5_RN_11_RD_22_1.png","img2/200/Congruent/L/C_Dist_200_LN_12_LD_15_RN_6_RD_10_0.png","img2/300/Congruent/R/C_Dist_300_LN_2_LD_10_RN_12_RD_24_1.png","img2/100/Incongruent/R/I_Dist_100_LN_8_LD_16_RN_6_RD_10_1.png","img2/300/Congruent/L/C_Dist_300_LN_24_LD_30_RN_2_RD_4_0.png","img2/300/Congruent/L/C_Dist_300_LN_11_LD_22_RN_2_RD_10_0.png","img2/100/Incongruent/L/I_Dist_100_LN_9_LD_15_RN_13_RD_26_0.png","img2/300/Incongruent/R/I_Dist_300_LN_4_LD_20_RN_2_RD_4_1.png","img2/200/Congruent/L/C_Dist_200_LN_4_LD_10_RN_3_RD_15_0.png","img2/200/Congruent/L/C_Dist_200_LN_14_LD_28_RN_6_RD_20_0.png","img2/300/Incongruent/L/I_Dist_300_LN_7_LD_10_RN_8_RD_20_0.png","img2/200/Congruent/R/C_Dist_200_LN_1_LD_2_RN_21_RD_30_1.png","img2/100/Congruent/L/C_Dist_100_LN_8_LD_16_RN_2_RD_5_0.png","img2/300/Congruent/L/C_Dist_300_LN_20_LD_25_RN_9_RD_18_0.png","img2/100/Incongruent/L/I_Dist_100_LN_9_LD_15_RN_13_RD_26_0.png","img2/200/Congruent/R/C_Dist_200_LN_3_LD_6_RN_14_RD_20_1.png","img2/200/Incongruent/L/I_Dist_200_LN_7_LD_10_RN_14_RD_28_0.png","img2/300/Incongruent/L/I_Dist_300_LN_1_LD_2_RN_2_RD_10_0.png","img2/100/Congruent/R/C_Dist_100_LN_3_LD_20_RN_4_RD_16_1.png","img2/100/Incongruent/R/I_Dist_100_LN_17_LD_30_RN_10_RD_15_1.png","img2/200/Incongruent/R/I_Dist_200_LN_3_LD_10_RN_1_RD_2_1.png","img2/300/Congruent/R/C_Dist_300_LN_2_LD_10_RN_12_RD_24_1.png","img2/200/Congruent/L/C_Dist_200_LN_7_LD_21_RN_2_RD_15_0.png","img2/100/Incongruent/R/I_Dist_100_LN_17_LD_30_RN_10_RD_15_1.png","img2/100/Congruent/R/C_Dist_100_LN_6_LD_12_RN_15_RD_25_1.png","img2/100/Congruent/L/C_Dist_100_LN_9_LD_15_RN_8_RD_16_0.png","img2/300/Incongruent/R/I_Dist_300_LN_4_LD_20_RN_2_RD_4_1.png","img2/100/Congruent/L/C_Dist_100_LN_10_LD_25_RN_3_RD_10_0.png","img2/100/Congruent/R/C_Dist_100_LN_6_LD_12_RN_15_RD_25_1.png","img2/300/Incongruent/R/I_Dist_300_LN_4_LD_20_RN_2_RD_4_1.png","img2/100/Incongruent/L/I_Dist_100_LN_6_LD_10_RN_13_RD_26_0.png","img2/200/Congruent/R/C_Dist_200_LN_3_LD_6_RN_14_RD_20_1.png","img2/200/Incongruent/R/I_Dist_200_LN_6_LD_20_RN_3_RD_6_1.png","img2/100/Congruent/L/C_Dist_100_LN_10_LD_25_RN_3_RD_10_0.png","img2/300/Incongruent/L/I_Dist_300_LN_8_LD_10_RN_14_RD_28_0.png","img2/200/Congruent/R/C_Dist_200_LN_3_LD_10_RN_14_RD_28_1.png","img2/300/Congruent/R/C_Dist_300_LN_1_LD_3_RN_19_RD_30_1.png","img2/100/Congruent/R/C_Dist_100_LN_7_LD_14_RN_9_RD_15_1.png","img2/200/Incongruent/R/I_Dist_200_LN_6_LD_20_RN_3_RD_6_1.png","img2/300/Congruent/R/C_Dist_300_LN_1_LD_5_RN_11_RD_22_1.png","img2/300/Incongruent/R/I_Dist_300_LN_4_LD_20_RN_2_RD_4_1.png","img2/300/Incongruent/L/I_Dist_300_LN_2_LD_4_RN_6_RD_30_0.png","img2/100/Congruent/L/C_Dist_100_LN_9_LD_15_RN_8_RD_16_0.png","img2/200/Incongruent/R/I_Dist_200_LN_9_LD_15_RN_8_RD_10_1.png","img2/300/Incongruent/L/I_Dist_300_LN_4_LD_5_RN_6_RD_12_0.png","img2/300/Congruent/L/C_Dist_300_LN_4_LD_5_RN_2_RD_4_0.png","img2/300/Incongruent/R/I_Dist_300_LN_4_LD_20_RN_2_RD_4_1.png","img2/200/Incongruent/R/I_Dist_200_LN_7_LD_15_RN_6_RD_9_1.png","img2/200/Incongruent/R/I_Dist_200_LN_14_LD_30_RN_6_RD_9_1.png","img2/300/Congruent/R/C_Dist_300_LN_3_LD_12_RN_11_RD_20_1.png","img2/100/Incongruent/R/I_Dist_100_LN_10_LD_25_RN_8_RD_16_1.png","img2/300/Congruent/R/C_Dist_300_LN_1_LD_3_RN_19_RD_30_1.png","img2/100/Congruent/R/C_Dist_100_LN_7_LD_14_RN_9_RD_15_1.png","img2/100/Congruent/L/C_Dist_100_LN_3_LD_6_RN_2_RD_5_0.png","img2/200/Congruent/L/C_Dist_200_LN_9_LD_20_RN_4_RD_16_0.png","img2/200/Congruent/R/C_Dist_200_LN_5_LD_10_RN_14_RD_20_1.png","img2/200/Incongruent/R/I_Dist_200_LN_7_LD_15_RN_6_RD_9_1.png","img2/300/Congruent/R/C_Dist_300_LN_2_LD_10_RN_12_RD_24_1.png","img2/300/Congruent/R/C_Dist_300_LN_3_LD_6_RN_4_RD_5_1.png","img2/300/Congruent/R/C_Dist_300_LN_5_LD_25_RN_6_RD_12_1.png","img2/200/Incongruent/R/I_Dist_200_LN_6_LD_20_RN_3_RD_6_1.png","img2/100/Incongruent/R/I_Dist_100_LN_8_LD_20_RN_1_RD_2_1.png","img2/100/Congruent/L/C_Dist_100_LN_8_LD_16_RN_2_RD_5_0.png","img2/100/Congruent/R/C_Dist_100_LN_2_LD_5_RN_11_RD_22_1.png","img2/100/Incongruent/R/I_Dist_100_LN_6_LD_12_RN_3_RD_5_1.png","img2/100/Congruent/L/C_Dist_100_LN_15_LD_25_RN_13_RD_26_0.png","img2/100/Congruent/R/C_Dist_100_LN_6_LD_12_RN_15_RD_25_1.png","img2/200/Incongruent/R/I_Dist_200_LN_14_LD_30_RN_6_RD_9_1.png","img2/300/Incongruent/R/I_Dist_300_LN_4_LD_20_RN_2_RD_4_1.png","img2/100/Congruent/L/C_Dist_100_LN_11_LD_22_RN_4_RD_10_0.png","img2/300/Congruent/R/C_Dist_300_LN_3_LD_6_RN_4_RD_5_1.png","img2/200/Incongruent/L/I_Dist_200_LN_7_LD_10_RN_8_RD_16_0.png","img2/200/Incongruent/R/I_Dist_200_LN_3_LD_10_RN_1_RD_2_1.png","img2/200/Congruent/L/C_Dist_200_LN_9_LD_20_RN_4_RD_16_0.png","img2/100/Incongruent/R/I_Dist_100_LN_10_LD_25_RN_9_RD_18_1.png","img2/200/Congruent/R/C_Dist_200_LN_13_LD_26_RN_14_RD_20_1.png","img2/100/Incongruent/L/I_Dist_100_LN_9_LD_15_RN_13_RD_26_0.png","img2/300/Incongruent/R/I_Dist_300_LN_4_LD_20_RN_2_RD_4_1.png","img2/200/Incongruent/L/I_Dist_200_LN_3_LD_4_RN_11_RD_20_0.png","img2/300/Congruent/L/C_Dist_300_LN_4_LD_10_RN_1_RD_10_0.png","img2/300/Incongruent/L/I_Dist_300_LN_2_LD_4_RN_6_RD_30_0.png","img2/100/Incongruent/L/I_Dist_100_LN_2_LD_4_RN_8_RD_20_0.png","img2/200/Congruent/R/C_Dist_200_LN_3_LD_6_RN_14_RD_20_1.png","img2/100/Incongruent/R/I_Dist_100_LN_17_LD_30_RN_10_RD_15_1.png"],"dist100_C":[["C_Dist_100_LN_10_LD_25_RN_3_RD_10_0.png","C_Dist_100_LN_11_LD_22_RN_4_RD_10_0.png","C_Dist_100_LN_11_LD_22_RN_6_RD_15_0.png","C_Dist_100_LN_15_LD_25_RN_13_RD_26_0.png","C_Dist_100_LN_3_LD_6_RN_2_RD_5_0.png","C_Dist_100_LN_6_LD_20_RN_5_RD_25_0.png","C_Dist_100_LN_8_LD_16_RN_2_RD_5_0.png","C_Dist_100_LN_9_LD_15_RN_8_RD_16_0.png"],["C_Dist_100_LN_1_LD_2_RN_18_RD_30_1.png","C_Dist_100_LN_1_LD_2_RN_3_RD_5_1.png","C_Dist_100_LN_12_LD_30_RN_13_RD_26_1.png","C_Dist_100_LN_2_LD_5_RN_11_RD_22_1.png","C_Dist_100_LN_2_LD_5_RN_6_RD_12_1.png","C_Dist_100_LN_3_LD_20_RN_4_RD_16_1.png","C_Dist_100_LN_4_LD_10_RN_15_RD_30_1.png","C_Dist_100_LN_4_LD_8_RN_6_RD_10_1.png","C_Dist_100_LN_6_LD_12_RN_15_RD_25_1.png","C_Dist_100_LN_7_LD_14_RN_15_RD_25_1.png","C_Dist_100_LN_7_LD_14_RN_9_RD_15_1.png"]],"dist100_I":[["I_Dist_100_LN_1_LD_2_RN_8_RD_20_0.png","I_Dist_100_LN_2_LD_4_RN_6_RD_15_0.png","I_Dist_100_LN_2_LD_4_RN_8_RD_20_0.png","I_Dist_100_LN_3_LD_5_RN_11_RD_22_0.png","I_Dist_100_LN_3_LD_5_RN_8_RD_16_0.png","I_Dist_100_LN_3_LD_6_RN_4_RD_10_0.png","I_Dist_100_LN_3_LD_9_RN_7_RD_30_0.png","I_Dist_100_LN_4_LD_8_RN_8_RD_20_0.png","I_Dist_100_LN_6_LD_10_RN_11_RD_22_0.png","I_Dist_100_LN_6_LD_10_RN_13_RD_26_0.png","I_Dist_100_LN_6_LD_10_RN_7_RD_14_0.png","I_Dist_100_LN_9_LD_10_RN_20_RD_25_0.png","I_Dist_100_LN_9_LD_15_RN_13_RD_26_0.png","I_Dist_100_LN_9_LD_15_RN_14_RD_28_0.png"],["I_Dist_100_LN_10_LD_25_RN_8_RD_16_1.png","I_Dist_100_LN_10_LD_25_RN_9_RD_18_1.png","I_Dist_100_LN_11_LD_22_RN_9_RD_15_1.png","I_Dist_100_LN_12_LD_24_RN_9_RD_15_1.png","I_Dist_100_LN_12_LD_30_RN_2_RD_4_1.png","I_Dist_100_LN_13_LD_26_RN_12_RD_20_1.png","I_Dist_100_LN_13_LD_26_RN_6_RD_10_1.png","I_Dist_100_LN_17_LD_30_RN_10_RD_15_1.png","I_Dist_100_LN_6_LD_12_RN_3_RD_5_1.png","I_Dist_100_LN_8_LD_16_RN_6_RD_10_1.png","I_Dist_100_LN_8_LD_20_RN_1_RD_2_1.png","I_Dist_100_LN_9_LD_18_RN_6_RD_10_1.png"]],"dist100_S":[["E_Dist_100_LN_2_LD_12_RN_2_RD_30_0.png","E_Dist_100_LN_6_LD_10_RN_6_RD_12_0.png"],["E_Dist_100_LN_6_LD_12_RN_6_RD_10_1.png"]],"dist200_C":[["C_Dist_200_LN_11_LD_22_RN_3_RD_10_0.png","C_Dist_200_LN_12_LD_15_RN_6_RD_10_0.png","C_Dist_200_LN_12_LD_20_RN_6_RD_15_0.png","C_Dist_200_LN_14_LD_28_RN_6_RD_20_0.png","C_Dist_200_LN_15_LD_25_RN_4_RD_10_0.png","C_Dist_200_LN_16_LD_20_RN_12_RD_20_0.png","C_Dist_200_LN_16_LD_30_RN_9_RD_27_0.png","C_Dist_200_LN_20_LD_25_RN_9_RD_15_0.png","C_Dist_200_LN_21_LD_30_RN_2_RD_4_0.png","C_Dist_200_LN_4_LD_10_RN_3_RD_15_0.png","C_Dist_200_LN_4_LD_8_RN_3_RD_10_0.png","C_Dist_200_LN_6_LD_15_RN_3_RD_15_0.png","C_Dist_200_LN_7_LD_21_RN_2_RD_15_0.png","C_Dist_200_LN_8_LD_15_RN_2_RD_6_0.png","C_Dist_200_LN_8_LD_15_RN_3_RD_9_0.png","C_Dist_200_LN_8_LD_15_RN_7_RD_21_0.png","C_Dist_200_LN_9_LD_20_RN_4_RD_16_0.png"],["C_Dist_200_LN_1_LD_2_RN_21_RD_30_1.png","C_Dist_200_LN_13_LD_26_RN_14_RD_20_1.png","C_Dist_200_LN_3_LD_10_RN_11_RD_22_1.png","C_Dist_200_LN_3_LD_10_RN_14_RD_28_1.png","C_Dist_200_LN_3_LD_10_RN_7_RD_14_1.png","C_Dist_200_LN_3_LD_12_RN_9_RD_20_1.png","C_Dist_200_LN_3_LD_6_RN_14_RD_20_1.png","C_Dist_200_LN_5_LD_10_RN_14_RD_20_1.png","C_Dist_200_LN_6_LD_12_RN_7_RD_10_1.png","C_Dist_200_LN_6_LD_20_RN_11_RD_22_1.png","C_Dist_200_LN_7_LD_15_RN_18_RD_27_1.png","C_Dist_200_LN_9_LD_30_RN_13_RD_26_1.png"]],"dist200_I":[["I_Dist_200_LN_1_LD_2_RN_3_RD_10_0.png","I_Dist_200_LN_1_LD_3_RN_2_RD_15_0.png","I_Dist_200_LN_3_LD_4_RN_11_RD_20_0.png","I_Dist_200_LN_4_LD_5_RN_6_RD_10_0.png","I_Dist_200_LN_4_LD_6_RN_14_RD_30_0.png","I_Dist_200_LN_7_LD_10_RN_12_RD_24_0.png","I_Dist_200_LN_7_LD_10_RN_14_RD_28_0.png","I_Dist_200_LN_7_LD_10_RN_8_RD_16_0.png"],["I_Dist_200_LN_11_LD_20_RN_3_RD_4_1.png","I_Dist_200_LN_14_LD_30_RN_12_RD_18_1.png","I_Dist_200_LN_14_LD_30_RN_6_RD_9_1.png","I_Dist_200_LN_3_LD_10_RN_1_RD_2_1.png","I_Dist_200_LN_4_LD_30_RN_1_RD_3_1.png","I_Dist_200_LN_6_LD_20_RN_3_RD_6_1.png","I_Dist_200_LN_7_LD_15_RN_4_RD_6_1.png","I_Dist_200_LN_7_LD_15_RN_6_RD_9_1.png","I_Dist_200_LN_9_LD_15_RN_8_RD_10_1.png"]],"dist200_S":[["E_Dist_200_LN_3_LD_6_RN_3_RD_10_0.png"],["E_Dist_200_LN_3_LD_10_RN_3_RD_6_1.png"]],"dist300_C":[["C_Dist_300_LN_11_LD_22_RN_1_RD_5_0.png","C_Dist_300_LN_11_LD_22_RN_2_RD_10_0.png","C_Dist_300_LN_11_LD_22_RN_4_RD_20_0.png","C_Dist_300_LN_12_LD_24_RN_2_RD_10_0.png","C_Dist_300_LN_18_LD_20_RN_9_RD_15_0.png","C_Dist_300_LN_20_LD_25_RN_13_RD_26_0.png","C_Dist_300_LN_20_LD_25_RN_14_RD_28_0.png","C_Dist_300_LN_20_LD_25_RN_5_RD_10_0.png","C_Dist_300_LN_20_LD_25_RN_8_RD_16_0.png","C_Dist_300_LN_20_LD_25_RN_9_RD_18_0.png","C_Dist_300_LN_24_LD_30_RN_2_RD_4_0.png","C_Dist_300_LN_24_LD_30_RN_8_RD_16_0.png","C_Dist_300_LN_3_LD_6_RN_2_RD_10_0.png","C_Dist_300_LN_4_LD_10_RN_1_RD_10_0.png","C_Dist_300_LN_4_LD_5_RN_2_RD_4_0.png","C_Dist_300_LN_8_LD_16_RN_1_RD_5_0.png","C_Dist_300_LN_9_LD_10_RN_3_RD_5_0.png"],["C_Dist_300_LN_1_LD_20_RN_7_RD_20_1.png","C_Dist_300_LN_1_LD_3_RN_19_RD_30_1.png","C_Dist_300_LN_1_LD_30_RN_8_RD_24_1.png","C_Dist_300_LN_1_LD_5_RN_11_RD_22_1.png","C_Dist_300_LN_1_LD_5_RN_3_RD_6_1.png","C_Dist_300_LN_1_LD_5_RN_6_RD_12_1.png","C_Dist_300_LN_2_LD_10_RN_12_RD_24_1.png","C_Dist_300_LN_2_LD_20_RN_10_RD_25_1.png","C_Dist_300_LN_3_LD_12_RN_11_RD_20_1.png","C_Dist_300_LN_3_LD_6_RN_4_RD_5_1.png","C_Dist_300_LN_4_LD_20_RN_13_RD_26_1.png","C_Dist_300_LN_5_LD_25_RN_6_RD_12_1.png","C_Dist_300_LN_5_LD_25_RN_7_RD_14_1.png","C_Dist_300_LN_7_LD_14_RN_20_RD_25_1.png","C_Dist_300_LN_8_LD_15_RN_10_RD_12_1.png"]],"dist300_I":[["I_Dist_300_LN_1_LD_2_RN_2_RD_10_0.png","I_Dist_300_LN_1_LD_2_RN_3_RD_15_0.png","I_Dist_300_LN_2_LD_4_RN_6_RD_30_0.png","I_Dist_300_LN_3_LD_6_RN_4_RD_20_0.png","I_Dist_300_LN_4_LD_5_RN_6_RD_12_0.png","I_Dist_300_LN_4_LD_5_RN_8_RD_16_0.png","I_Dist_300_LN_7_LD_10_RN_8_RD_20_0.png","I_Dist_300_LN_8_LD_10_RN_14_RD_28_0.png","I_Dist_300_LN_8_LD_10_RN_9_RD_18_0.png"],["I_Dist_300_LN_13_LD_26_RN_12_RD_15_1.png","I_Dist_300_LN_4_LD_20_RN_2_RD_4_1.png"]],"dist300_S":[["E_Dist_300_LN_9_LD_12_RN_9_RD_20_0.png"],["E_Dist_300_LN_18_LD_30_RN_18_RD_20_1.png","E_Dist_300_LN_3_LD_10_RN_3_RD_5_1.png","E_Dist_300_LN_9_LD_20_RN_9_RD_12_1.png"]],"dist500_C":[["C_Dist_500_LN_10_LD_13_RN_7_RD_26_0.png","C_Dist_500_LN_10_LD_15_RN_4_RD_24_0.png","C_Dist_500_LN_12_LD_16_RN_3_RD_12_0.png","C_Dist_500_LN_12_LD_18_RN_4_RD_24_0.png","C_Dist_500_LN_15_LD_18_RN_5_RD_15_0.png","C_Dist_500_LN_15_LD_20_RN_1_RD_4_0.png","C_Dist_500_LN_18_LD_27_RN_1_RD_6_0.png","C_Dist_500_LN_20_LD_24_RN_1_RD_3_0.png","C_Dist_500_LN_20_LD_24_RN_3_RD_9_0.png","C_Dist_500_LN_20_LD_24_RN_7_RD_21_0.png","C_Dist_500_LN_20_LD_28_RN_3_RD_14_0.png","C_Dist_500_LN_21_LD_28_RN_6_RD_24_0.png","C_Dist_500_LN_22_LD_28_RN_2_RD_7_0.png","C_Dist_500_LN_25_LD_30_RN_9_RD_27_0.png","C_Dist_500_LN_4_LD_6_RN_1_RD_6_0.png","C_Dist_500_LN_5_LD_6_RN_2_RD_6_0.png","C_Dist_500_LN_6_LD_9_RN_1_RD_6_0.png","C_Dist_500_LN_7_LD_10_RN_1_RD_5_0.png","C_Dist_500_LN_8_LD_12_RN_1_RD_6_0.png","C_Dist_500_LN_8_LD_12_RN_4_RD_24_0.png"],["C_Dist_500_LN_1_LD_4_RN_12_RD_16_1.png","C_Dist_500_LN_1_LD_4_RN_9_RD_12_1.png","C_Dist_500_LN_1_LD_9_RN_11_RD_18_1.png","C_Dist_500_LN_10_LD_24_RN_22_RD_24_1.png","C_Dist_500_LN_2_LD_12_RN_10_RD_15_1.png","C_Dist_500_LN_2_LD_12_RN_12_RD_18_1.png","C_Dist_500_LN_2_LD_12_RN_4_RD_6_1.png","C_Dist_500_LN_2_LD_24_RN_7_RD_12_1.png","C_Dist_500_LN_2_LD_5_RN_18_RD_20_1.png","C_Dist_500_LN_2_LD_5_RN_9_RD_10_1.png","C_Dist_500_LN_2_LD_8_RN_12_RD_16_1.png","C_Dist_500_LN_2_LD_8_RN_21_RD_28_1.png","C_Dist_500_LN_3_LD_10_RN_4_RD_5_1.png","C_Dist_500_LN_3_LD_12_RN_15_RD_20_1.png","C_Dist_500_LN_3_LD_30_RN_6_RD_10_1.png","C_Dist_500_LN_3_LD_8_RN_14_RD_16_1.png","C_Dist_500_LN_4_LD_16_RN_15_RD_20_1.png","C_Dist_500_LN_4_LD_24_RN_12_RD_18_1.png","C_Dist_500_LN_5_LD_14_RN_6_RD_7_1.png","C_Dist_500_LN_7_LD_21_RN_20_RD_24_1.png","C_Dist_500_LN_7_LD_28_RN_12_RD_16_1.png","C_Dist_500_LN_7_LD_28_RN_9_RD_12_1.png","C_Dist_500_LN_9_LD_27_RN_20_RD_24_1.png"]],"dist500_I":[["I_Dist_500_LN_2_LD_3_RN_4_RD_24_0.png","I_Dist_500_LN_5_LD_6_RN_6_RD_18_0.png","I_Dist_500_LN_7_LD_8_RN_9_RD_24_0.png"],["I_Dist_500_LN_7_LD_21_RN_5_RD_6_1.png"]],"dist500_S":[["E_Dist_500_LN_6_LD_8_RN_6_RD_24_0.png"],["E_Dist_500_LN_2_LD_12_RN_2_RD_3_1.png","E_Dist_500_LN_6_LD_24_RN_6_RD_8_1.png"]]}},{"start_time":1552313069334,"click_time":1552313072132,"finger_time":1552313071310,"fix_duration":661.2910297189782,"trial":1,"RT":1976,"MT":822,"sideResp":1,"stimulus":[],"xmouse":[794,794,794,794,794,794,794,794,794,794,794,794,794,794,794,794,794,794,794,794,794,794,794,794,794,794,794,794,794,794,794,794,794,794,794,794,794,794,794,794,794,794,794,794,794,795,796,796,796,796,796,796,796,796,796,796,796,796,796,796,796,796,796,796,796,796,796,796,796,796,796,796,796,796,796,796,796,796,796,796,796,796,796,796,796,796,796,796,796,796,796,796,796,796,796,796,796,796,796,793,773,737,736,737,738,732,730,730,728,724,720,720,717,713,712,712,710,690,670,650,633,622,610,604,595,586,576,557,552,551,550,550,550,550,549,549,544,535,531,522],"ymouse":[597,597,597,597,597,597,597,597,597,597,597,597,597,597,597,597,597,597,597,597,597,597,597,597,597,597,597,597,597,597,597,597,597,597,597,597,597,597,597,597,597,597,598,598,598,597,596,596,596,596,596,596,596,596,596,596,596,596,596,596,596,596,596,596,596,596,596,596,596,596,596,596,596,596,596,596,596,596,596,596,596,596,596,596,596,596,596,596,596,596,596,596,596,596,596,596,596,596,561,463,251,0,0,0,0,0,0,0,0,0,0,0,0,0,0,0,0,0,0,0,0,0,0,3,8,11,14,16,16,16,16,16,16,16,16,16,18,19,20,22],"timestamp_mouse":[16,40,55,76,97,117,136,156,177,197,215,237,256,276,296,317,336,356,377,396,415,435,456,477,497,517,535,556,577,597,616,636,656,675,697,715,735,757,777,797,817,836,856,876,896,916,937,956,975,997,1017,1036,1057,1077,1096,1116,1137,1156,1177,1195,1215,1236,1256,1277,1297,1315,1337,1356,1377,1397,1416,1437,1456,1477,1495,1517,1537,1556,1577,1597,1617,1637,1656,1677,1696,1717,1737,1755,1776,1797,1817,1837,1856,1877,1897,1916,1937,1956,1976,1996,2016,2036,2056,2076,2095,2115,2136,2157,2176,2196,2217,2236,2257,2275,2295,2316,2337,2356,2376,2395,2416,2436,2455,2476,2495,2515,2535,2556,2576,2596,2616,2637,2656,2677,2695,2716,2735,2757,2776,2797],"xSR":741.5,"ySR":573.95,"xT1":424.9,"yT1":0,"xT2":1058.1,"yT2":0,"toosoon":0,"cond_shown":"Incongruent","ratio_trial":200,"L_num":14,"L_den":30,"R_num":12,"R_den":18,"correct_side":2,"subjID":"angel gabriel polania amaya","gender":"0","school":"4","age":"8"},{"start_time":1552313074582,"click_time":1552313076750,"finger_time":1552313076110,"fix_duration":390.6363167335817,"trial":2,"RT":1528,"MT":640,"sideResp":2,"stimulus":[],"xmouse":[803,803,803,803,803,803,803,803,803,803,803,803,803,803,803,803,803,803,803,803,803,803,803,803,803,803,803,803,803,803,803,803,803,803,803,803,803,803,803,803,803,803,803,803,803,803,803,803,803,803,803,803,803,803,803,803,803,803,803,803,803,803,803,803,803,803,803,803,803,803,802,804,806,815,836,846,856,863,867,873,876,878,880,884,889,902,910,924,934,953,959,967,972,977,981,981,981,984,986,1018,1034,1046,1053,1056,1059,1075,1094,1127],"ymouse":[632,632,632,632,632,632,632,632,632,632,632,632,632,632,632,632,632,632,632,632,632,632,632,632,632,632,632,632,632,632,632,632,632,632,632,632,632,632,632,632,632,632,632,632,632,632,632,632,632,632,632,632,632,632,632,632,632,632,632,632,632,632,632,632,632,632,632,632,632,632,631,627,625,616,600,592,585,580,575,568,561,558,550,540,528,497,479,447,423,379,364,348,338,331,326,326,326,326,326,307,294,280,266,252,238,176,128,53],"timestamp_mouse":[29,48,68,89,109,129,149,169,188,209,228,247,267,289,309,328,348,368,389,409,427,448,469,488,509,527,549,568,589,608,629,649,669,687,709,728,749,768,788,807,827,849,869,888,909,928,948,969,987,1007,1029,1048,1068,1089,1109,1129,1149,1168,1188,1209,1229,1247,1269,1289,1307,1328,1348,1368,1389,1408,1427,1447,1468,1488,1509,1528,1549,1567,1588,1608,1629,1647,1667,1687,1708,1728,1748,1767,1787,1808,1828,1848,1867,1887,1908,1928,1948,1969,1988,2008,2028,2048,2068,2089,2108,2129,2147,2167],"xSR":741.5,"ySR":573.95,"xT1":424.9,"yT1":0,"xT2":1058.1,"yT2":0,"toosoon":0,"cond_shown":"Incongruent","ratio_trial":300,"L_num":4,"L_den":20,"R_num":2,"R_den":4,"correct_side":2,"subjID":"angel gabriel polania amaya","gender":"0","school":"4","age":"8"},{"start_time":1552313079921,"click_time":1552313081170,"finger_time":1552313080410,"fix_duration":1168.5097141488934,"trial":3,"RT":489,"MT":760,"sideResp":1,"stimulus":[],"xmouse":[798,798,798,797,797,797,797,797,797,797,796,795,794,794,794,794,794,794,794,793,793,792,791,791,789,787,783,780,777,770,761,730,694,663,627,614,593,564,534,484,480,478,478,478,478,478,478,479,486,496,499,504,510,517,532,535,535,535,535,535,533,527,524],"ymouse":[619,621,621,623,623,623,623,623,623,623,623,623,623,623,623,623,623,623,623,623,623,621,611,602,571,552,535,523,514,501,490,465,447,422,391,373,347,314,275,192,171,156,147,142,142,142,142,141,140,134,132,126,119,108,65,32,0,0,0,0,1,4,5],"timestamp_mouse":[14,39,49,69,89,108,128,150,169,189,210,228,249,269,288,308,329,349,368,389,409,429,450,469,489,510,529,548,568,589,610,628,649,669,688,708,729,749,770,789,808,829,848,870,889,909,929,958,969,989,1008,1029,1050,1070,1089,1108,1129,1148,1168,1189,1209,1229,1249],"xSR":741.5,"ySR":573.95,"xT1":424.9,"yT1":0,"xT2":1058.1,"yT2":0,"toosoon":0,"cond_shown":"Congruent","ratio_trial":300,"L_num":9,"L_den":10,"R_num":3,"R_den":5,"correct_side":1,"subjID":"angel gabriel polania amaya","gender":"0","school":"4","age":"8"},{"start_time":1552313086363,"click_time":1552313088189,"finger_time":1552313087350,"fix_duration":1071.093888672099,"trial":4,"RT":987,"MT":839,"sideResp":1,"stimulus":[],"xmouse":[809,809,809,809,809,809,809,809,809,809,809,809,809,809,809,809,809,809,809,809,809,809,809,809,809,809,809,809,809,809,809,809,809,809,809,809,809,809,809,809,809,809,809,809,809,809,809,778,760,740,724,711,692,686,685,682,678,674,670,669,668,667,665,650,637,619,610,602,587,573,557,538,516,513,513,513,512,512,512,512,512,512,512,512,512,508,490,470,459,462,468,473],"ymouse":[653,653,653,653,653,653,653,653,654,654,654,654,654,654,654,654,654,654,654,654,654,654,654,654,654,654,654,654,654,654,654,654,654,654,654,654,654,654,654,654,654,654,654,654,654,654,652,628,611,588,563,538,493,474,471,463,460,457,452,450,448,446,439,417,402,375,359,342,306,286,265,245,218,207,204,197,191,189,188,188,188,187,187,185,184,177,168,154,128,116,103,96],"timestamp_mouse":[12,35,48,67,87,107,127,147,166,188,208,227,247,267,287,306,327,348,366,388,408,428,448,468,487,507,527,547,567,588,608,628,648,667,687,708,726,746,767,788,807,827,847,866,886,906,927,948,966,987,1008,1028,1048,1068,1086,1106,1127,1146,1166,1188,1207,1227,1246,1267,1288,1306,1328,1346,1366,1387,1407,1428,1448,1467,1486,1506,1526,1547,1567,1587,1608,1627,1647,1666,1687,1708,1726,1746,1766,1787,1808,1826],"xSR":741.5,"ySR":573.95,"xT1":424.9,"yT1":0,"xT2":1058.1,"yT2":0,"toosoon":0,"cond_shown":"Congruent","ratio_trial":200,"L_num":15,"L_den":25,"R_num":4,"R_den":10,"correct_side":1,"subjID":"angel gabriel polania amaya","gender":"0","school":"4","age":"8"},{"start_time":1552313092047,"click_time":1552313093629,"finger_time":1552313092891,"fix_duration":1234.5081967294552,"trial":5,"RT":844,"MT":738,"sideResp":2,"stimulus":[],"xmouse":[782,783,783,783,783,783,783,783,783,783,783,783,783,783,783,783,783,783,783,783,783,783,783,783,783,783,783,783,783,783,783,783,783,783,783,783,783,783,783,783,783,784,787,792,817,842,864,883,903,940,951,958,964,968,970,971,972,976,981,988,988,988,988,988,998,1021,1046,1063,1072,1082,1086,1087,1087,1087,1087,1089,1093,1099,1108,1116],"ymouse":[597,596,595,595,595,595,595,595,595,595,595,595,595,595,595,595,595,595,595,595,595,595,595,595,595,595,595,595,595,595,595,595,595,595,595,595,595,595,595,591,585,578,564,547,494,444,398,355,311,232,213,200,191,186,184,183,180,172,160,147,145,145,145,145,145,145,145,145,143,141,139,139,139,139,138,135,130,120,107,95],"timestamp_mouse":[10,23,49,62,82,102,124,144,164,183,203,224,244,262,284,304,323,344,363,384,403,423,443,462,484,503,523,543,562,582,602,624,642,664,683,704,724,743,762,782,804,823,844,863,883,903,923,943,964,983,1003,1023,1043,1062,1082,1102,1123,1144,1162,1182,1202,1223,1243,1264,1283,1302,1323,1344,1363,1382,1402,1422,1442,1463,1483,1502,1523,1543,1563,1582],"xSR":741.5,"ySR":573.95,"xT1":424.9,"yT1":0,"xT2":1058.1,"yT2":0,"toosoon":0,"cond_shown":"Congruent","ratio_trial":300,"L_num":3,"L_den":6,"R_num":2,"R_den":10,"correct_side":1,"subjID":"angel gabriel polania amaya","gender":"0","school":"4","age":"8"},{"start_time":1552313097442,"click_time":1552313099252,"finger_time":1552313098649,"fix_duration":250,"trial":6,"RT":1207,"MT":603,"sideResp":1,"stimulus":[],"xmouse":[785,785,785,786,786,786,786,786,786,786,786,786,786,786,786,786,786,786,786,786,786,786,786,786,786,786,786,786,786,786,786,786,786,786,786,786,786,786,786,786,786,786,786,786,786,786,786,786,786,787,787,787,787,787,787,787,787,787,785,782,742,688,635,587,553,538,538,538,538,538,538,538,538,541,552,570,571,571,571,568,547,531,516,503,481,455,450,447,447,447,447],"ymouse":[603,604,604,604,604,604,604,604,604,604,604,604,604,604,604,604,604,604,604,604,604,604,604,604,604,604,604,604,604,604,604,604,604,604,604,604,604,604,604,604,604,604,604,604,604,604,604,604,604,604,604,604,604,604,604,604,602,601,598,592,542,495,450,411,381,353,348,346,346,345,344,338,324,304,279,221,180,153,127,100,31,0,0,0,0,0,0,0,0,0,3],"timestamp_mouse":[16,41,48,67,87,109,129,148,168,188,208,229,248,269,288,308,328,348,367,389,408,429,449,468,489,509,528,548,568,588,608,628,648,668,688,709,729,749,769,789,809,827,848,867,889,908,929,949,968,988,1008,1029,1048,1069,1089,1109,1129,1149,1168,1187,1207,1227,1247,1268,1288,1307,1329,1348,1368,1388,1407,1429,1447,1467,1489,1508,1528,1548,1568,1587,1607,1628,1649,1668,1688,1708,1728,1747,1768,1788,1809],"xSR":741.5,"ySR":573.95,"xT1":424.9,"yT1":0,"xT2":1058.1,"yT2":0,"toosoon":0,"cond_shown":"Incongruent","ratio_trial":200,"L_num":4,"L_den":30,"R_num":1,"R_den":3,"correct_side":2,"subjID":"angel gabriel polania amaya","gender":"0","school":"4","age":"8"},{"start_time":1552313104515,"click_time":1552313105790,"finger_time":1552313105229,"fix_duration":363.5548424130155,"trial":7,"RT":714,"MT":561,"sideResp":2,"stimulus":[],"xmouse":[798,798,798,798,798,798,798,798,798,798,798,797,797,797,796,796,796,796,796,796,796,796,796,796,796,796,796,796,796,796,796,796,804,818,835,851,913,946,995,1010,1038,1047,1052,1052,1052,1052,1052,1051,1050,1050,1049,1049,1049,1048,1047,1047,1047,1047,1047,1047,1050,1059,1066,1069],"ymouse":[618,618,618,618,618,618,618,618,618,618,618,618,619,619,621,621,621,621,621,621,621,621,621,621,621,621,621,621,621,621,621,622,614,601,577,551,442,381,287,260,199,176,157,154,152,151,151,149,148,148,148,148,148,148,148,148,148,148,147,142,137,125,107,99],"timestamp_mouse":[20,40,56,76,94,115,136,154,174,195,214,234,254,274,295,316,335,355,375,396,415,434,455,476,496,516,535,556,576,596,615,634,655,675,695,714,736,754,775,795,815,834,854,876,895,915,935,954,975,994,1015,1035,1056,1075,1095,1115,1136,1155,1175,1194,1215,1235,1254,1275],"xSR":741.5,"ySR":573.95,"xT1":424.9,"yT1":0,"xT2":1058.1,"yT2":0,"toosoon":0,"cond_shown":"Congruent","ratio_trial":200,"L_num":1,"L_den":2,"R_num":21,"R_den":30,"correct_side":2,"subjID":"angel gabriel polania amaya","gender":"0","school":"4","age":"8"},{"start_time":1552313110112,"click_time":1552313111171,"finger_time":1552313110270,"fix_duration":1080.0740666595261,"trial":8,"RT":158,"MT":901,"sideResp":2,"stimulus":[],"xmouse":[789,789,789,787,786,785,783,780,778,778,777,776,773,770,767,765,765,764,762,760,755,750,748,742,739,737,736,735,733,733,733,733,734,741,761,802,865,1065,1129,1163,1179,1184,1187,1187,1187,1187,1187,1187,1180,1174,1167,1162,1155],"ymouse":[590,589,586,583,582,579,577,572,569,569,566,562,552,546,539,534,526,507,495,485,473,458,442,403,385,373,363,353,346,344,341,341,336,329,320,304,285,203,175,156,145,140,131,128,124,119,112,99,77,63,49,36,8],"timestamp_mouse":[18,38,58,78,98,117,138,158,177,198,219,239,257,278,298,317,338,358,379,397,417,437,458,478,499,517,538,557,578,598,617,637,657,677,697,719,737,758,777,797,817,837,858,878,899,918,937,957,977,998,1018,1038,1058],"xSR":741.5,"ySR":573.95,"xT1":424.9,"yT1":0,"xT2":1058.1,"yT2":0,"toosoon":0,"cond_shown":"Incongruent","ratio_trial":200,"L_num":7,"L_den":10,"R_num":8,"R_den":16,"correct_side":1,"subjID":"angel gabriel polania amaya","gender":"0","school":"4","age":"8"},{"start_time":1552313116640,"click_time":1552313117389,"finger_time":1552313116930,"fix_duration":1467.9156822696636,"trial":9,"RT":290,"MT":459,"sideResp":1,"stimulus":[],"xmouse":[786,786,786,786,786,786,786,786,786,785,784,781,771,763,755,745,737,725,724,724,724,724,724,723,723,722,722,715,697,678,658,638,601,584,566,552,540,517],"ymouse":[631,631,631,631,631,631,631,628,626,621,617,610,589,574,560,545,531,487,464,440,416,400,389,380,380,379,379,370,348,324,298,270,207,176,146,122,101,70],"timestamp_mouse":[12,34,50,69,89,111,129,150,170,189,210,229,249,269,290,309,330,350,370,389,410,429,449,470,491,509,530,550,570,590,610,630,650,669,689,709,730,749],"xSR":741.5,"ySR":573.95,"xT1":424.9,"yT1":0,"xT2":1058.1,"yT2":0,"toosoon":0,"cond_shown":"Incongruent","ratio_trial":300,"L_num":13,"L_den":26,"R_num":12,"R_den":15,"correct_side":2,"subjID":"angel gabriel polania amaya","gender":"0","school":"4","age":"8"},{"start_time":1552313123788,"click_time":1552313125870,"finger_time":1552313124310,"fix_duration":657.0115130245237,"trial":10,"RT":522,"MT":1560,"sideResp":2,"stimulus":[],"xmouse":[793,793,793,793,793,793,793,793,793,793,793,793,793,793,793,793,793,793,793,793,793,793,792,785,782,772,761,760,760,760,760,760,760,761,762,764,764,765,765,766,766,767,768,770,772,773,773,773,773,773,773,773,773,773,773,774,776,786,792,796,798,802,806,809,813,819,825,830,839,848,857,877,888,902,915,925,942,944,944,949,954,971,977,979,980,982,999,1002,1003,1005,1013,1031,1042,1046,1047,1047,1047,1047,1048,1049,1049,1050,1050,1053,1059],"ymouse":[638,638,638,638,638,638,638,638,638,638,638,638,638,638,638,638,638,638,638,638,638,638,638,642,647,659,682,685,686,686,686,686,686,686,687,687,687,687,687,687,687,687,686,681,678,675,675,675,675,675,675,675,675,675,675,673,671,660,652,641,634,621,615,609,604,595,578,564,546,525,503,456,430,398,368,332,241,202,166,132,108,71,66,63,63,62,62,62,62,62,63,65,66,67,67,67,67,67,67,67,67,67,67,67,67],"timestamp_mouse":[9,22,41,62,82,102,122,143,163,181,202,223,244,262,283,303,323,344,363,383,402,424,444,463,482,504,522,543,563,584,603,624,643,663,684,704,724,743,762,783,803,822,842,862,883,904,923,943,963,983,1002,1024,1043,1064,1083,1103,1122,1142,1163,1183,1202,1222,1243,1262,1282,1304,1324,1343,1363,1383,1403,1423,1442,1463,1484,1502,1523,1543,1562,1582,1602,1622,1643,1663,1683,1702,1722,1742,1762,1783,1802,1822,1844,1863,1883,1903,1923,1944,1964,1984,2004,2022,2042,2063,2082],"xSR":741.5,"ySR":573.95,"xT1":424.9,"yT1":0,"xT2":1058.1,"yT2":0,"toosoon":0,"cond_shown":"Incongruent","ratio_trial":100,"L_num":6,"L_den":10,"R_num":13,"R_den":26,"correct_side":1,"subjID":"angel gabriel polania amaya","gender":"0","school":"4","age":"8"},{"start_time":1552313129676,"click_time":1552313130891,"finger_time":1552313129751,"fix_duration":1282.900673081819,"trial":11,"RT":75,"MT":1140,"sideResp":1,"stimulus":[],"xmouse":[748,747,742,738,733,727,723,722,722,722,722,719,712,708,706,705,705,705,705,704,704,703,702,702,702,702,702,702,702,702,702,702,701,698,696,690,682,641,610,591,580,572,568,564,560,553,546,531,530,530,530,529,527,527,527,527,527,526,526,525,523],"ymouse":[608,607,601,596,590,583,575,574,574,573,572,564,550,542,539,538,537,537,537,536,533,530,524,523,523,523,523,523,523,522,521,520,514,501,477,435,377,249,193,166,150,135,124,117,106,98,92,86,85,85,85,85,85,85,85,85,85,85,85,85,85],"timestamp_mouse":[22,46,56,75,95,114,135,154,174,194,216,236,256,275,296,314,334,354,375,394,415,434,454,475,496,514,536,555,575,596,615,634,654,675,695,715,734,754,775,794,814,834,855,875,896,915,934,954,975,995,1016,1035,1055,1075,1094,1116,1136,1154,1175,1195,1215],"xSR":741.5,"ySR":573.95,"xT1":424.9,"yT1":0,"xT2":1058.1,"yT2":0,"toosoon":0,"cond_shown":"Incongruent","ratio_trial":100,"L_num":4,"L_den":8,"R_num":8,"R_den":20,"correct_side":1,"subjID":"angel gabriel polania amaya","gender":"0","school":"4","age":"8"},{"start_time":1552313138783,"click_time":1552313140372,"finger_time":1552313140270,"fix_duration":250,"trial":12,"RT":1487,"MT":102,"sideResp":2,"stimulus":[],"xmouse":[810,809,808,808,808,807,806,805,803,802,801,801,801,801,801,801,801,801,801,801,801,801,801,801,801,799,799,799,799,799,799,799,799,799,799,799,799,799,799,799,799,799,799,799,799,799,799,799,799,799,799,799,799,799,799,799,799,799,799,799,799,799,799,799,799,799,799,799,799,799,799,799,799,801,814,845,898,956,1063,1085],"ymouse":[620,620,620,620,620,620,620,620,620,620,620,620,620,620,620,620,620,620,620,620,620,620,620,620,620,621,621,621,621,621,621,621,621,621,621,621,621,621,621,621,621,621,621,621,621,621,621,621,621,621,621,621,621,621,621,621,621,621,621,621,621,621,621,621,621,621,621,621,621,621,621,619,611,583,540,462,376,282,100,69],"timestamp_mouse":[7,27,49,67,88,109,128,147,168,189,207,228,249,269,288,309,328,347,369,388,408,427,448,467,489,508,527,549,579,589,608,628,649,669,689,709,728,747,767,789,809,827,847,868,889,908,929,948,967,987,1008,1028,1049,1067,1088,1108,1128,1148,1168,1187,1207,1229,1249,1267,1289,1309,1328,1348,1368,1389,1408,1429,1447,1468,1487,1507,1528,1549,1567,1588],"xSR":741.5,"ySR":573.95,"xT1":424.9,"yT1":0,"xT2":1058.1,"yT2":0,"toosoon":0,"cond_shown":"Congruent","ratio_trial":100,"L_num":7,"L_den":14,"R_num":9,"R_den":15,"correct_side":2,"subjID":"angel gabriel polania amaya","gender":"0","school":"4","age":"8"},{"start_time":1552313144517,"click_time":1552313145350,"finger_time":1552313145151,"fix_duration":1005.4347193611516,"trial":13,"RT":634,"MT":199,"sideResp":2,"stimulus":[],"xmouse":[800,800,800,800,800,800,800,800,800,800,800,800,800,800,800,800,800,800,801,802,806,809,809,811,813,816,820,823,825,829,835,851,863,877,898,925,988,1022,1045,1072,1091,1127],"ymouse":[618,618,618,618,618,618,618,618,618,618,618,618,618,618,618,618,618,618,616,615,614,611,611,608,605,602,598,596,592,587,580,563,543,520,483,435,324,265,211,164,123,59],"timestamp_mouse":[14,46,54,75,94,114,134,154,174,194,214,234,255,273,293,315,333,354,375,395,415,434,455,473,493,514,534,554,573,594,614,634,654,673,693,714,734,753,773,794,815,833],"xSR":741.5,"ySR":573.95,"xT1":424.9,"yT1":0,"xT2":1058.1,"yT2":0,"toosoon":0,"cond_shown":"Incongruent","ratio_trial":100,"L_num":2,"L_den":4,"R_num":8,"R_den":20,"correct_side":1,"subjID":"angel gabriel polania amaya","gender":"0","school":"4","age":"8"},{"start_time":1552313147516,"click_time":1552313148131,"finger_time":1552313147892,"fix_duration":364.5625582906735,"trial":14,"RT":376,"MT":239,"sideResp":1,"stimulus":[],"xmouse":[777,777,777,777,777,777,777,777,777,777,777,778,778,778,777,776,772,761,739,689,625,514,503,501,500,496,484,480,476,474,474],"ymouse":[633,633,633,633,633,633,633,633,633,633,633,633,631,629,625,621,601,583,558,522,471,310,255,218,190,170,138,123,112,102,94],"timestamp_mouse":[14,35,54,74,94,116,134,154,175,195,215,235,254,275,296,314,334,354,376,394,415,435,454,474,496,515,534,555,576,594,615],"xSR":741.5,"ySR":573.95,"xT1":424.9,"yT1":0,"xT2":1058.1,"yT2":0,"toosoon":0,"cond_shown":"Incongruent","ratio_trial":300,"L_num":4,"L_den":20,"R_num":2,"R_den":4,"correct_side":2,"subjID":"angel gabriel polania amaya","gender":"0","school":"4","age":"8"},{"start_time":1552313152390,"click_time":1552313155271,"finger_time":1552313154312,"fix_duration":937.6886814038234,"trial":15,"RT":1922,"MT":959,"sideResp":2,"stimulus":[],"xmouse":[770,770,770,770,770,770,770,770,770,770,770,770,770,770,770,770,770,770,770,770,770,770,770,770,770,770,770,770,770,770,770,770,770,770,770,770,770,770,770,770,770,770,770,770,770,770,770,770,770,770,770,770,770,770,770,770,770,770,770,770,770,770,770,770,770,770,770,770,770,770,770,770,770,770,770,770,770,770,770,770,770,770,770,770,770,770,770,770,773,775,776,780,786,794,806,813,820,827,836,850,854,859,866,867,875,882,884,887,891,895,896,897,898,898,908,912,917,922,925,932,936,942,954,965,979,1015,1030,1038,1041,1043,1044,1044,1044,1044,1044,1045,1046,1048,1049,1049,1052,1055,1058,1060,1060],"ymouse":[635,635,635,635,635,635,635,635,635,635,635,635,635,635,635,635,635,635,635,635,635,635,635,635,635,635,635,635,635,635,635,635,635,635,635,635,635,635,635,635,635,635,635,635,635,635,635,635,635,635,635,635,635,635,635,635,635,635,635,635,635,635,635,635,635,635,635,635,635,635,635,635,635,635,635,635,635,635,635,635,635,635,635,635,635,635,635,635,635,633,631,627,620,612,594,584,573,563,551,536,529,522,511,507,487,463,448,437,425,411,408,406,406,406,400,397,394,390,388,382,378,370,348,331,311,272,251,235,224,217,215,215,215,215,213,212,208,202,192,169,152,135,111,101,98],"timestamp_mouse":[3,24,42,62,80,101,122,141,161,181,202,221,242,261,281,301,320,342,361,381,401,420,442,460,480,500,520,540,561,580,600,622,640,661,682,701,720,742,761,781,802,821,842,860,880,902,922,942,961,980,1001,1020,1041,1061,1080,1100,1121,1141,1162,1181,1200,1222,1242,1262,1281,1300,1322,1342,1361,1381,1400,1421,1440,1461,1482,1502,1521,1540,1560,1580,1601,1620,1641,1662,1681,1702,1721,1742,1761,1781,1801,1821,1840,1862,1882,1901,1922,1941,1962,1981,2000,2021,2041,2061,2082,2102,2121,2141,2162,2181,2200,2220,2241,2260,2281,2301,2321,2341,2361,2381,2401,2421,2440,2461,2482,2502,2521,2541,2561,2580,2600,2622,2642,2661,2681,2700,2721,2741,2760,2781,2801,2821,2841,2861,2881],"xSR":741.5,"ySR":573.95,"xT1":424.9,"yT1":0,"xT2":1058.1,"yT2":0,"toosoon":0,"cond_shown":"Congruent","ratio_trial":200,"L_num":3,"L_den":12,"R_num":9,"R_den":20,"correct_side":2,"subjID":"angel gabriel polania amaya","gender":"0","school":"4","age":"8"},{"start_time":1552313159236,"click_time":1552313162350,"finger_time":1552313160712,"fix_duration":284.1198327663346,"trial":16,"RT":1476,"MT":1638,"sideResp":1,"stimulus":[],"xmouse":[791,791,791,791,791,791,790,790,789,788,788,788,788,788,788,788,788,788,788,788,788,788,788,788,788,788,788,788,788,788,788,788,788,788,788,788,788,788,788,788,788,788,788,788,788,788,788,788,788,788,788,788,788,788,788,788,789,792,793,794,794,794,794,794,794,794,794,794,794,794,794,797,805,822,861,911,967,1069,1092,1113,1125,1135,1144,1146,1147,1148,1148,1148,1148,1148,1148,1148,1148,1148,1148,1148,1145,1031,905,828,590,455,312,304,304,304,304,303,300,295,278,255,217,105,50,9,0,0,0,0,0,0,0,6,26,52,112,245,286,307,309,309,310,317,328,342,347,347,347,347,347,348,368,387,396,397,397,398,402,407,412,412,412,416,418,428],"ymouse":[602,602,602,602,602,602,602,602,603,603,603,603,603,603,603,603,603,603,603,603,603,603,603,603,603,603,603,603,603,603,603,603,603,603,603,603,603,603,603,603,603,603,603,603,603,603,603,603,603,603,603,603,603,603,603,602,601,596,595,594,594,594,594,594,594,594,594,594,594,594,594,591,583,562,519,469,422,323,292,261,239,219,194,187,184,180,179,179,179,179,179,179,179,178,175,174,168,115,65,34,0,0,0,0,0,0,0,0,0,1,6,9,10,10,8,3,0,0,0,0,0,0,0,0,0,0,0,19,25,28,28,28,28,26,22,16,11,9,9,9,9,8,8,11,11,11,11,11,12,12,13,14,14,16,19,32],"timestamp_mouse":[14,35,55,74,95,115,135,156,176,195,215,235,254,274,296,314,334,356,374,396,416,435,454,474,496,514,534,555,575,596,615,634,656,675,696,714,736,755,775,795,816,834,855,875,894,916,936,956,975,995,1016,1034,1055,1076,1095,1116,1135,1154,1176,1194,1216,1234,1256,1281,1296,1315,1336,1356,1375,1396,1415,1435,1454,1476,1495,1515,1535,1554,1575,1594,1614,1634,1655,1674,1694,1714,1734,1754,1775,1795,1816,1835,1855,1875,1898,1915,1935,1954,1974,1995,2015,2036,2057,2074,2095,2115,2134,2155,2175,2194,2216,2235,2255,2274,2294,2316,2336,2355,2375,2396,2415,2435,2456,2474,2495,2515,2536,2556,2574,2595,2615,2635,2656,2675,2696,2715,2735,2755,2775,2796,2816,2835,2856,2874,2894,2915,2935,2956,2975,2995,3016,3036,3054,3074,3094,3114],"xSR":741.5,"ySR":573.95,"xT1":424.9,"yT1":0,"xT2":1058.1,"yT2":0,"toosoon":0,"cond_shown":"Congruent","ratio_trial":300,"L_num":1,"L_den":3,"R_num":19,"R_den":30,"correct_side":2,"subjID":"angel gabriel polania amaya","gender":"0","school":"4","age":"8"},{"start_time":1552313168422,"click_time":1552313170452,"finger_time":1552313170010,"fix_duration":1090.3542933902488,"trial":17,"RT":1588,"MT":442,"sideResp":2,"stimulus":[],"xmouse":[832,832,832,832,832,832,832,832,832,832,832,832,832,832,832,832,832,832,832,832,832,832,832,832,832,832,832,832,832,832,832,832,832,832,832,832,832,832,832,832,832,832,832,832,832,832,832,833,833,835,836,836,836,836,836,836,836,836,836,836,836,836,836,836,836,836,836,836,836,836,836,836,836,836,836,836,836,837,840,850,857,864,871,882,915,929,946,963,977,986,1006,1017,1031,1045,1064,1066,1066,1066,1066,1068,1068,1068],"ymouse":[616,616,616,616,616,616,615,615,615,615,615,615,615,615,615,615,615,615,615,615,615,615,615,615,615,615,615,615,615,615,615,615,615,615,615,615,615,615,615,615,615,615,615,615,615,615,615,612,611,608,607,607,607,607,607,607,607,607,607,607,607,607,607,607,607,607,607,607,607,607,607,607,607,607,607,607,606,604,597,576,560,541,519,494,440,428,417,405,394,380,352,336,318,294,236,212,188,164,145,108,100,98],"timestamp_mouse":[13,35,49,69,90,108,130,149,170,190,209,230,250,269,289,308,330,349,368,389,409,429,449,468,490,510,528,548,569,589,608,628,648,668,688,708,729,748,769,790,809,828,848,869,890,908,930,949,968,989,1008,1029,1049,1070,1089,1109,1129,1150,1168,1190,1210,1228,1250,1269,1288,1308,1330,1350,1369,1390,1408,1429,1449,1469,1488,1509,1528,1548,1568,1588,1608,1629,1649,1668,1688,1708,1728,1750,1770,1789,1808,1828,1848,1869,1889,1908,1929,1949,1969,1989,2008,2030],"xSR":741.5,"ySR":573.95,"xT1":424.9,"yT1":0,"xT2":1058.1,"yT2":0,"toosoon":0,"cond_shown":"Incongruent","ratio_trial":100,"L_num":11,"L_den":22,"R_num":9,"R_den":15,"correct_side":2,"subjID":"angel gabriel polania amaya","gender":"0","school":"4","age":"8"},{"start_time":1552313181404,"click_time":1552313183171,"finger_time":1552313182310,"fix_duration":671.0263858772745,"trial":18,"RT":906,"MT":861,"sideResp":2,"stimulus":[],"xmouse":[767,767,767,767,767,767,768,768,768,768,768,768,768,768,768,768,770,775,777,779,780,782,782,782,782,782,782,782,782,782,782,782,782,782,782,783,783,783,783,783,783,784,791,799,817,850,920,1029,1053,1057,1062,1066,1070,1072,1074,1076,1076,1076,1076,1074,1069,1066,1060,1060,1060,1060,1061,1061,1061,1061,1060,1058,1058,1058,1056,1044,1023,967,935,928,928,928,928,931,934,950,1043,1111,1142],"ymouse":[609,609,609,609,609,609,609,609,609,609,609,609,609,609,609,609,610,616,622,626,628,629,630,630,630,630,630,630,630,630,630,630,630,630,630,630,630,629,629,629,628,627,619,615,607,593,574,542,532,528,523,509,497,479,463,444,421,417,408,393,366,340,293,276,261,252,246,244,244,243,243,242,241,241,241,242,247,265,274,276,276,276,276,276,272,259,187,112,67],"timestamp_mouse":[10,27,47,67,87,108,126,147,168,188,207,228,246,267,287,308,326,346,367,388,406,428,446,466,486,506,526,546,566,586,606,628,646,666,686,707,728,748,766,786,808,827,847,868,888,906,927,946,968,987,1007,1028,1047,1068,1087,1107,1128,1147,1167,1188,1206,1227,1248,1267,1287,1308,1328,1347,1367,1387,1407,1426,1447,1467,1487,1507,1527,1546,1566,1586,1606,1627,1647,1667,1688,1707,1728,1747,1767],"xSR":741.5,"ySR":573.95,"xT1":424.9,"yT1":0,"xT2":1058.1,"yT2":0,"toosoon":0,"cond_shown":"Congruent","ratio_trial":200,"L_num":3,"L_den":10,"R_num":11,"R_den":22,"correct_side":2,"subjID":"angel gabriel polania amaya","gender":"0","school":"4","age":"8"},{"start_time":1552313186046,"click_time":1552313189711,"finger_time":1552313189051,"fix_duration":994.9265600819888,"trial":19,"RT":3005,"MT":660,"sideResp":2,"stimulus":[],"xmouse":[792,793,793,797,797,798,798,798,799,799,800,800,800,800,800,800,800,800,800,800,800,800,798,795,786,780,780,780,780,780,780,780,780,780,780,780,780,780,780,780,780,780,780,780,780,780,780,780,780,780,780,780,780,780,780,780,780,780,780,780,780,780,780,780,780,780,780,780,780,780,780,780,780,780,780,780,780,780,780,780,780,780,780,780,780,780,780,780,780,780,780,780,780,780,780,780,780,780,780,780,780,780,780,780,780,780,780,780,780,780,780,780,780,780,780,780,780,785,795,804,809,809,809,809,809,809,809,809,809,809,809,809,809,809,809,809,809,809,809,809,809,809,809,809,810,818,820,823,826,833,867,908,961,1040,1094,1141,1214,1250,1272,1269,1213,1192,1192,1196,1196,1196,1198,1198,1190,1178,1169,1162,1162,1162,1162,1162,1162,1162,1162,1162,1162,1162,1160,1157],"ymouse":[640,637,637,633,632,632,632,632,633,636,642,645,645,645,645,645,645,645,645,645,645,645,648,650,658,660,660,660,660,660,660,660,660,660,660,660,660,660,660,660,660,660,660,660,660,660,660,660,660,660,660,660,660,660,660,660,660,660,660,660,660,660,660,660,660,660,660,660,660,660,660,660,660,660,660,660,660,660,659,657,655,654,654,654,654,654,654,654,654,654,654,654,654,654,654,654,654,654,654,656,656,657,657,657,657,657,657,657,657,657,657,657,657,657,657,657,657,651,640,631,627,627,627,627,627,627,627,627,627,627,627,627,627,627,628,629,630,632,636,639,640,640,640,640,640,640,640,640,640,636,605,567,503,364,253,143,0,0,0,0,0,0,0,0,0,0,9,22,37,55,67,78,78,78,78,78,78,78,78,78,78,78,74,68],"timestamp_mouse":[5,44,44,65,86,104,125,146,165,186,204,225,245,265,286,304,326,346,365,384,405,426,445,465,485,504,524,546,565,586,604,624,645,665,686,704,724,745,766,785,806,825,846,866,885,905,924,945,965,984,1004,1025,1044,1065,1086,1104,1126,1146,1164,1184,1205,1226,1246,1265,1286,1306,1325,1345,1364,1385,1404,1425,1446,1465,1485,1504,1525,1546,1565,1586,1605,1624,1645,1666,1684,1705,1726,1746,1764,1786,1806,1826,1845,1864,1885,1905,1926,1944,1964,1984,2004,2025,2046,2066,2085,2104,2126,2145,2164,2186,2204,2226,2245,2265,2286,2306,2326,2344,2365,2386,2405,2425,2446,2466,2485,2504,2526,2546,2565,2586,2605,2625,2645,2664,2686,2705,2725,2744,2765,2785,2805,2826,2844,2866,2885,2906,2924,2945,2966,2986,3005,3025,3044,3064,3084,3104,3124,3144,3165,3184,3205,3225,3244,3265,3286,3306,3325,3344,3364,3385,3406,3426,3445,3465,3484,3504,3526,3545,3566,3586,3606,3626,3645,3665],"xSR":741.5,"ySR":573.95,"xT1":424.9,"yT1":0,"xT2":1058.1,"yT2":0,"toosoon":0,"cond_shown":"Incongruent","ratio_trial":100,"L_num":10,"L_den":25,"R_num":9,"R_den":18,"correct_side":2,"subjID":"angel gabriel polania amaya","gender":"0","school":"4","age":"8"},{"start_time":1552313192486,"click_time":1552313193931,"finger_time":1552313193011,"fix_duration":1095.2076997854342,"trial":20,"RT":525,"MT":920,"sideResp":2,"stimulus":[],"xmouse":[807,807,807,807,807,807,807,807,807,807,807,807,807,807,807,807,807,807,807,807,807,807,807,807,806,804,800,798,798,798,798,798,798,798,798,799,800,802,803,806,810,814,819,822,829,831,834,838,842,855,863,869,872,875,882,884,885,885,885,886,887,889,893,897,911,923,940,961,987,1061,1085,1098,1104],"ymouse":[661,661,661,661,661,661,661,661,661,661,661,662,662,662,662,663,663,663,663,663,663,663,663,663,665,673,684,691,693,693,693,693,693,693,692,692,689,685,681,672,661,653,643,632,617,608,599,586,570,522,464,418,370,332,284,271,265,264,264,263,263,262,260,259,252,246,236,223,205,146,120,103,95],"timestamp_mouse":[20,28,44,64,85,105,125,146,166,185,205,225,244,265,286,304,325,345,364,384,405,424,444,466,484,504,525,546,565,585,605,625,645,664,685,706,725,745,765,784,804,825,845,865,884,905,924,944,966,985,1004,1025,1045,1064,1084,1104,1124,1145,1165,1184,1206,1225,1245,1266,1285,1305,1324,1345,1366,1385,1404,1424,1445],"xSR":741.5,"ySR":573.95,"xT1":424.9,"yT1":0,"xT2":1058.1,"yT2":0,"toosoon":0,"cond_shown":"Incongruent","ratio_trial":300,"L_num":3,"L_den":6,"R_num":4,"R_den":20,"correct_side":1,"subjID":"angel gabriel polania amaya","gender":"0","school":"4","age":"8"},{"start_time":1552313196550,"click_time":1552313198872,"finger_time":1552313197651,"fix_duration":377.5849924485638,"trial":21,"RT":1101,"MT":1221,"sideResp":1,"stimulus":[],"xmouse":[816,816,816,816,816,816,816,816,816,816,816,816,816,816,816,816,815,814,814,814,814,813,812,811,810,809,809,809,809,809,809,809,809,808,808,808,808,808,808,808,808,808,808,808,808,808,808,808,808,808,808,808,808,807,806,801,756,721,678,650,635,633,632,632,632,632,629,625,621,620,619,617,610,595,576,549,540,537,537,537,534,525,521,514,508,504,504,504,504,504,504,504,504,504,504,504,504,504,506,507,508,508,508,508,508,508,508,508,508,508,508,508,508,508,508,508,508],"ymouse":[607,607,607,607,607,607,607,607,607,607,607,607,607,607,607,607,606,606,605,605,605,604,602,601,600,599,599,599,599,599,599,599,599,598,597,594,593,591,591,591,591,591,591,591,591,591,591,591,591,591,591,591,591,590,586,573,498,456,410,377,355,345,341,341,341,341,333,325,320,318,317,313,306,293,276,248,231,218,218,217,209,191,184,175,164,155,152,150,149,148,148,147,147,147,147,146,145,143,140,136,133,126,120,118,116,115,115,115,115,115,114,114,110,107,106,103,99],"timestamp_mouse":[9,21,43,60,81,102,121,140,160,182,202,222,241,260,280,302,321,342,360,382,402,421,441,460,481,502,521,542,562,581,602,621,642,662,682,702,721,741,760,780,800,820,842,860,882,902,921,941,962,982,1001,1021,1042,1061,1080,1101,1121,1141,1162,1181,1202,1221,1240,1261,1281,1301,1321,1341,1361,1382,1402,1422,1440,1461,1481,1501,1520,1540,1560,1581,1601,1621,1641,1661,1682,1702,1721,1740,1761,1781,1801,1821,1840,1861,1882,1900,1921,1940,1962,1981,2002,2021,2041,2061,2082,2101,2121,2140,2162,2181,2200,2222,2242,2261,2280,2301,2322],"xSR":741.5,"ySR":573.95,"xT1":424.9,"yT1":0,"xT2":1058.1,"yT2":0,"toosoon":0,"cond_shown":"Congruent","ratio_trial":300,"L_num":11,"L_den":22,"R_num":4,"R_den":20,"correct_side":1,"subjID":"angel gabriel polania amaya","gender":"0","school":"4","age":"8"},{"start_time":1552313202356,"click_time":1552313203830,"finger_time":1552313203231,"fix_duration":1124.1535432104508,"trial":22,"RT":875,"MT":599,"sideResp":2,"stimulus":[],"xmouse":[764,764,764,764,764,764,764,763,763,762,762,761,761,761,761,761,761,761,761,761,761,761,761,761,761,761,761,761,760,760,760,761,763,763,764,767,769,769,769,769,769,772,776,781,788,798,819,829,836,843,852,860,862,863,863,863,865,868,874,881,890,905,912,916,921,927,939,944,950,958,972,1023,1054,1082],"ymouse":[608,608,608,608,608,608,608,605,604,603,602,602,602,602,602,602,602,602,602,602,602,602,602,602,602,602,602,602,602,600,599,598,597,596,595,593,592,592,592,592,592,587,578,569,559,547,523,516,507,500,489,482,481,481,481,481,479,474,463,448,431,405,391,381,370,358,333,321,305,283,249,134,74,28],"timestamp_mouse":[15,36,55,76,96,115,135,154,176,195,216,236,256,275,296,315,335,355,375,396,416,436,456,475,496,515,536,555,574,596,615,635,656,674,695,715,735,754,774,795,815,835,856,875,895,916,935,956,975,995,1016,1035,1054,1075,1094,1116,1135,1156,1176,1195,1215,1234,1254,1274,1295,1316,1335,1356,1374,1395,1416,1435,1455,1474],"xSR":741.5,"ySR":573.95,"xT1":424.9,"yT1":0,"xT2":1058.1,"yT2":0,"toosoon":0,"cond_shown":"Congruent","ratio_trial":100,"L_num":4,"L_den":8,"R_num":6,"R_den":10,"correct_side":2,"subjID":"angel gabriel polania amaya","gender":"0","school":"4","age":"8"},{"start_time":1552313205954,"click_time":1552313208272,"finger_time":1552313206971,"fix_duration":300.7893206035307,"trial":23,"RT":1017,"MT":1301,"sideResp":1,"stimulus":[],"xmouse":[791,791,791,791,791,791,791,791,791,791,791,791,792,792,792,792,792,792,792,792,792,792,792,792,792,792,792,792,792,792,792,792,792,791,791,791,791,791,791,791,791,791,791,791,791,791,791,791,787,779,772,763,736,721,709,698,692,686,686,683,683,683,683,683,684,685,687,687,687,687,688,689,689,689,687,685,678,673,673,673,673,673,671,669,666,661,657,655,651,651,647,640,634,627,617,604,568,546,530,510,495,468,462,460,460,460,460,460,460,460,460,460,463,466,470,475],"ymouse":[647,647,647,647,646,646,646,646,646,645,645,645,645,645,645,645,645,645,645,645,644,643,643,642,642,642,642,642,642,642,641,640,640,639,639,639,638,635,633,631,631,630,630,629,629,628,625,607,592,576,567,553,522,503,482,464,446,424,414,402,397,393,391,384,377,369,362,358,358,358,357,342,326,307,288,268,219,186,160,135,119,119,119,124,129,133,138,140,144,144,146,147,148,148,148,144,134,127,121,115,109,106,106,106,106,106,106,106,106,106,106,106,106,106,104,99],"timestamp_mouse":[17,38,57,77,97,117,136,158,177,197,218,237,258,277,297,318,336,356,377,396,417,437,456,477,497,516,536,558,576,596,617,636,657,678,696,717,737,757,776,797,817,837,856,878,898,916,936,957,977,997,1017,1038,1058,1077,1097,1117,1137,1157,1177,1196,1218,1237,1257,1277,1296,1317,1337,1356,1377,1396,1417,1438,1457,1477,1498,1518,1538,1556,1577,1597,1616,1637,1657,1677,1697,1717,1738,1756,1778,1797,1818,1838,1857,1877,1897,1916,1937,1957,1977,1997,2017,2038,2057,2077,2096,2117,2136,2157,2177,2196,2217,2238,2256,2276,2298,2318],"xSR":741.5,"ySR":573.95,"xT1":424.9,"yT1":0,"xT2":1058.1,"yT2":0,"toosoon":0,"cond_shown":"Incongruent","ratio_trial":200,"L_num":11,"L_den":20,"R_num":3,"R_den":4,"correct_side":2,"subjID":"angel gabriel polania amaya","gender":"0","school":"4","age":"8"},{"start_time":1552313214758,"click_time":1552313215652,"finger_time":1552313215070,"fix_duration":1346.4469164168008,"trial":24,"RT":312,"MT":582,"sideResp":2,"stimulus":[],"xmouse":[828,829,829,829,829,829,829,829,829,829,829,829,829,832,834,837,848,859,880,884,885,886,890,898,910,923,945,961,983,992,998,1004,1016,1022,1030,1033,1036,1040,1048,1052,1058,1066,1077,1081,1087],"ymouse":[603,602,602,602,602,602,602,602,602,602,602,602,602,591,579,572,546,526,499,494,492,492,486,478,467,452,422,398,358,341,326,313,282,267,248,243,232,217,187,175,158,141,115,105,94],"timestamp_mouse":[15,38,53,74,94,113,133,153,174,193,213,233,252,273,293,312,333,352,374,393,413,432,453,472,493,512,533,552,574,593,613,634,654,672,693,713,732,752,774,792,812,834,853,873,893],"xSR":741.5,"ySR":573.95,"xT1":424.9,"yT1":0,"xT2":1058.1,"yT2":0,"toosoon":0,"cond_shown":"Congruent","ratio_trial":100,"L_num":3,"L_den":6,"R_num":2,"R_den":5,"correct_side":1,"subjID":"angel gabriel polania amaya","gender":"0","school":"4","age":"8"},{"start_time":1552313217765,"click_time":1552313221031,"finge