[{"start_time":1552054149554,"click_time":1552054151211,"finger_time":1552054150828,"fix_duration":801.9209759381757,"trial":0,"RT":1274,"MT":383,"sideResp":1,"stimulus":[],"xmouse":[777,777,777,777,777,777,777,777,777,777,777,777,777,777,777,777,777,777,777,777,777,777,777,777,777,777,777,777,777,777,777,777,777,777,777,777,777,777,777,777,777,777,777,777,777,777,777,777,777,777,777,777,777,777,777,777,777,777,777,777,777,777,774,765,762,739,716,691,651,645,642,639,635,622,604,588,572,551,548,546,546,541,514],"ymouse":[528,528,528,528,528,528,528,528,528,528,528,528,528,528,528,528,528,528,528,528,528,528,528,528,528,528,528,528,528,528,528,528,528,528,528,528,528,528,528,528,528,528,528,528,528,528,528,528,528,528,528,528,528,528,528,528,528,528,528,527,523,516,492,466,456,411,375,331,278,268,263,260,253,233,206,185,162,132,128,126,124,119,88],"timestamp_mouse":[15,33,54,74,94,114,133,153,175,193,215,235,253,275,294,315,334,353,374,395,414,435,454,474,493,515,535,554,575,594,613,635,654,675,694,714,735,754,775,795,814,835,854,875,895,914,934,954,975,994,1015,1034,1054,1074,1095,1113,1135,1154,1175,1194,1213,1234,1254,1274,1294,1313,1334,1353,1373,1394,1415,1434,1455,1475,1493,1514,1535,1554,1573,1594,1614,1634,1656],"xSR":741.5,"ySR":469.95,"xT1":424.9,"yT1":0,"xT2":1058.1,"yT2":0,"toosoon":0,"cond_shown":"Congruent","ratio_trial":200,"L_num":4,"L_den":10,"R_num":3,"R_den":15,"correct_side":1,"subjID":"thomasrojas24","gender":"0","age":"8","school":"4","test":{"fix_dur":[250,1500],"timestim":1000,"targets_dim":[100,100],"targets_relative_coord":[0.3,0.7],"size_stim":[880,420],"start_dim":[100,100],"size_start":[300,300],"size_fix":60,"samplingrate":20,"img_types":["Congruent","Incongruent"],"ratios":[100,200,300],"rep_conds":19,"nTrials":120,"trials_to_rest":500,"Trials_order":[80,118,7,74,119,1,51,73,0,92,16,110,14,20,31,33,63,34,101,4,43,69,104,15,54,65,56,67,91,26,93,5,86,13,42,27,37,32,30,55,97,22,105,107,41,10,71,76,52,46,114,19,11,108,45,25,60,100,99,28,68,109,112,78,82,84,62,116,111,12,70,8,40,9,88,79,6,59,87,58,98,89,36,66,17,18,113,85,38,115,72,96,47,106,103,21,117,39,24,61,50,77,44,81,57,94,95,90,83,35,102,53,49,3,2,64,29,75,48,23],"cond_shown":["Congruent","Congruent","Incongruent","Congruent","Incongruent","Incongruent","Incongruent","Incongruent","Congruent","Congruent","Congruent","Congruent","Congruent","Congruent","Incongruent","Incongruent","Incongruent","Congruent","Incongruent","Congruent","Incongruent","Incongruent","Congruent","Incongruent","Congruent","Incongruent","Congruent","Incongruent","Incongruent","Congruent","Incongruent","Incongruent","Congruent","Incongruent","Congruent","Incongruent","Incongruent","Congruent","Congruent","Incongruent","Incongruent","Congruent","Incongruent","Incongruent","Incongruent","Congruent","Incongruent","Congruent","Congruent","Congruent","Congruent","Incongruent","Incongruent","Congruent","Incongruent","Incongruent","Congruent","Congruent","Incongruent","Congruent","Congruent","Incongruent","Congruent","Congruent","Congruent","Congruent","Congruent","Congruent","Incongruent","Congruent","Congruent","Congruent","Congruent","Incongruent","Congruent","Incongruent","Congruent","Incongruent","Incongruent","Congruent","Congruent","Incongruent","Congruent","Congruent","Incongruent","Congruent","Incongruent","Incongruent","Congruent","Incongruent","Congruent","Congruent","Incongruent","Congruent","Incongruent","Incongruent","Incongruent","Incongruent","Congruent","Incongruent","Congruent","Incongruent","Congruent","Incongruent","Incongruent","Congruent","Incongruent","Congruent","Incongruent","Incongruent","Congruent","Incongruent","Incongruent","Incongruent","Congruent","Congruent","Incongruent","Incongruent","Congruent","Incongruent"],"ratio_trial":[200,300,100,200,300,100,200,100,100,200,300,200,200,200,100,200,200,300,300,300,100,200,200,200,100,300,200,100,100,200,200,300,200,100,100,200,100,200,100,100,100,300,200,300,300,300,300,300,300,300,100,100,300,100,200,100,100,300,200,300,200,100,300,100,300,100,200,200,200,100,300,200,300,200,300,100,100,300,200,300,200,300,100,100,300,100,300,100,200,100,100,100,300,300,100,200,200,200,100,100,200,300,200,200,200,300,300,100,300,300,100,300,100,200,200,300,300,200,100,300],"left_num":[4,2,17,7,13,11,6,6,4,6,7,14,8,13,17,7,7,20,3,1,4,4,6,4,11,7,11,8,12,3,11,3,3,12,3,7,12,4,6,10,10,9,7,8,2,12,4,1,3,1,1,9,13,3,9,13,2,11,6,8,8,6,20,8,8,2,3,9,11,1,8,7,8,3,1,12,11,4,14,5,11,2,2,1,13,7,3,9,15,8,3,3,13,20,12,3,7,3,3,6,3,13,8,7,7,4,8,15,3,13,12,13,9,1,3,20,4,4,4,8],"right_num":[3,12,10,2,12,9,3,11,6,7,20,6,3,14,10,8,4,8,4,11,8,6,11,14,6,8,3,1,2,9,3,4,9,9,4,8,9,3,5,9,8,3,8,14,6,2,2,7,4,11,3,6,12,4,8,6,6,2,3,10,2,11,9,2,1,11,11,13,3,3,1,2,1,11,11,9,6,8,6,6,3,6,11,3,12,9,4,13,4,6,2,2,12,13,9,1,6,11,4,13,9,12,2,12,12,13,14,13,4,12,13,12,20,2,11,5,2,14,15,9],"left_den":[10,10,30,21,26,22,20,10,8,12,14,28,15,26,30,10,15,25,6,5,8,5,20,6,22,10,22,20,30,12,20,6,12,24,20,10,24,8,20,25,25,10,10,10,4,24,20,20,6,5,2,18,26,20,15,26,5,22,20,15,15,10,25,16,16,5,10,30,20,2,16,21,16,4,5,24,22,5,30,25,22,4,5,2,26,14,6,15,25,16,6,6,26,25,24,10,15,4,20,10,12,26,15,10,10,20,10,25,6,26,30,26,10,3,10,25,20,6,10,10],"right_den":[15,24,15,15,15,15,6,22,10,10,25,20,9,20,15,16,6,16,20,22,20,10,22,30,15,20,10,2,4,20,4,20,20,15,16,16,15,10,25,18,16,5,16,28,30,10,4,20,5,22,5,10,15,16,10,10,12,10,6,12,6,22,18,5,5,22,22,26,4,5,5,15,5,20,22,15,15,16,9,12,10,30,22,5,15,15,20,26,10,10,5,5,15,26,15,2,9,20,16,26,20,15,6,24,24,26,28,26,20,15,26,15,25,15,22,10,4,30,30,18],"correct_side":[1,2,2,1,2,2,2,1,2,2,2,1,1,2,2,1,2,1,1,2,1,1,2,1,1,1,1,2,2,2,2,1,2,2,2,1,2,1,1,2,2,1,1,1,1,1,2,2,2,2,2,2,2,2,2,2,2,1,2,2,1,1,1,1,1,2,2,2,2,2,1,1,1,1,2,2,1,1,2,2,1,1,2,2,2,2,1,1,1,2,1,1,2,1,2,2,2,1,2,1,2,2,1,1,1,2,1,1,1,2,2,2,1,1,2,1,2,1,2,1],"img_shown":["img2/200/Congruent/L/C_Dist_200_LN_4_LD_10_RN_3_RD_15_0.png","img2/300/Congruent/R/C_Dist_300_LN_2_LD_10_RN_12_RD_24_1.png","img2/100/Incongruent/R/I_Dist_100_LN_17_LD_30_RN_10_RD_15_1.png","img2/200/Congruent/L/C_Dist_200_LN_7_LD_21_RN_2_RD_15_0.png","img2/300/Incongruent/R/I_Dist_300_LN_13_LD_26_RN_12_RD_15_1.png","img2/100/Incongruent/R/I_Dist_100_LN_11_LD_22_RN_9_RD_15_1.png","img2/200/Incongruent/R/I_Dist_200_LN_6_LD_20_RN_3_RD_6_1.png","img2/100/Incongruent/L/I_Dist_100_LN_6_LD_10_RN_11_RD_22_0.png","img2/100/Congruent/R/C_Dist_100_LN_4_LD_8_RN_6_RD_10_1.png","img2/200/Congruent/R/C_Dist_200_LN_6_LD_12_RN_7_RD_10_1.png","img2/300/Congruent/R/C_Dist_300_LN_7_LD_14_RN_20_RD_25_1.png","img2/200/Congruent/L/C_Dist_200_LN_14_LD_28_RN_6_RD_20_0.png","img2/200/Congruent/L/C_Dist_200_LN_8_LD_15_RN_3_RD_9_0.png","img2/200/Congruent/R/C_Dist_200_LN_13_LD_26_RN_14_RD_20_1.png","img2/100/Incongruent/R/I_Dist_100_LN_17_LD_30_RN_10_RD_15_1.png","img2/200/Incongruent/L/I_Dist_200_LN_7_LD_10_RN_8_RD_16_0.png","img2/200/Incongruent/R/I_Dist_200_LN_7_LD_15_RN_4_RD_6_1.png","img2/300/Congruent/L/C_Dist_300_LN_20_LD_25_RN_8_RD_16_0.png","img2/300/Incongruent/L/I_Dist_300_LN_3_LD_6_RN_4_RD_20_0.png","img2/300/Congruent/R/C_Dist_300_LN_1_LD_5_RN_11_RD_22_1.png","img2/100/Incongruent/L/I_Dist_100_LN_4_LD_8_RN_8_RD_20_0.png","img2/200/Incongruent/L/I_Dist_200_LN_4_LD_5_RN_6_RD_10_0.png","img2/200/Congruent/R/C_Dist_200_LN_6_LD_20_RN_11_RD_22_1.png","img2/200/Incongruent/L/I_Dist_200_LN_4_LD_6_RN_14_RD_30_0.png","img2/100/Congruent/L/C_Dist_100_LN_11_LD_22_RN_6_RD_15_0.png","img2/300/Incongruent/L/I_Dist_300_LN_7_LD_10_RN_8_RD_20_0.png","img2/200/Congruent/L/C_Dist_200_LN_11_LD_22_RN_3_RD_10_0.png","img2/100/Incongruent/R/I_Dist_100_LN_8_LD_20_RN_1_RD_2_1.png","img2/100/Incongruent/R/I_Dist_100_LN_12_LD_30_RN_2_RD_4_1.png","img2/200/Congruent/R/C_Dist_200_LN_3_LD_12_RN_9_RD_20_1.png","img2/200/Incongruent/R/I_Dist_200_LN_11_LD_20_RN_3_RD_4_1.png","img2/300/Incongruent/L/I_Dist_300_LN_3_LD_6_RN_4_RD_20_0.png","img2/200/Congruent/R/C_Dist_200_LN_3_LD_12_RN_9_RD_20_1.png","img2/100/Incongruent/R/I_Dist_100_LN_12_LD_24_RN_9_RD_15_1.png","img2/100/Congruent/R/C_Dist_100_LN_3_LD_20_RN_4_RD_16_1.png","img2/200/Incongruent/L/I_Dist_200_LN_7_LD_10_RN_8_RD_16_0.png","img2/100/Incongruent/R/I_Dist_100_LN_12_LD_24_RN_9_RD_15_1.png","img2/200/Congruent/L/C_Dist_200_LN_4_LD_8_RN_3_RD_10_0.png","img2/100/Congruent/L/C_Dist_100_LN_6_LD_20_RN_5_RD_25_0.png","img2/100/Incongruent/R/I_Dist_100_LN_10_LD_25_RN_9_RD_18_1.png","img2/100/Incongruent/R/I_Dist_100_LN_10_LD_25_RN_8_RD_16_1.png","img2/300/Congruent/L/C_Dist_300_LN_9_LD_10_RN_3_RD_5_0.png","img2/200/Incongruent/L/I_Dist_200_LN_7_LD_10_RN_8_RD_16_0.png","img2/300/Incongruent/L/I_Dist_300_LN_8_LD_10_RN_14_RD_28_0.png","img2/300/Incongruent/L/I_Dist_300_LN_2_LD_4_RN_6_RD_30_0.png","img2/300/Congruent/L/C_Dist_300_LN_12_LD_24_RN_2_RD_10_0.png","img2/300/Incongruent/R/I_Dist_300_LN_4_LD_20_RN_2_RD_4_1.png","img2/300/Congruent/R/C_Dist_300_LN_1_LD_20_RN_7_RD_20_1.png","img2/300/Congruent/R/C_Dist_300_LN_3_LD_6_RN_4_RD_5_1.png","img2/300/Congruent/R/C_Dist_300_LN_1_LD_5_RN_11_RD_22_1.png","img2/100/Congruent/R/C_Dist_100_LN_1_LD_2_RN_3_RD_5_1.png","img2/100/Incongruent/R/I_Dist_100_LN_9_LD_18_RN_6_RD_10_1.png","img2/300/Incongruent/R/I_Dist_300_LN_13_LD_26_RN_12_RD_15_1.png","img2/100/Congruent/R/C_Dist_100_LN_3_LD_20_RN_4_RD_16_1.png","img2/200/Incongruent/R/I_Dist_200_LN_9_LD_15_RN_8_RD_10_1.png","img2/100/Incongruent/R/I_Dist_100_LN_13_LD_26_RN_6_RD_10_1.png","img2/100/Congruent/R/C_Dist_100_LN_2_LD_5_RN_6_RD_12_1.png","img2/300/Congruent/L/C_Dist_300_LN_11_LD_22_RN_2_RD_10_0.png","img2/200/Incongruent/R/I_Dist_200_LN_6_LD_20_RN_3_RD_6_1.png","img2/300/Congruent/R/C_Dist_300_LN_8_LD_15_RN_10_RD_12_1.png","img2/200/Congruent/L/C_Dist_200_LN_8_LD_15_RN_2_RD_6_0.png","img2/100/Incongruent/L/I_Dist_100_LN_6_LD_10_RN_11_RD_22_0.png","img2/300/Congruent/L/C_Dist_300_LN_20_LD_25_RN_9_RD_18_0.png","img2/100/Congruent/L/C_Dist_100_LN_8_LD_16_RN_2_RD_5_0.png","img2/300/Congruent/L/C_Dist_300_LN_8_LD_16_RN_1_RD_5_0.png","img2/100/Congruent/R/C_Dist_100_LN_2_LD_5_RN_11_RD_22_1.png","img2/200/Congruent/R/C_Dist_200_LN_3_LD_10_RN_11_RD_22_1.png","img2/200/Congruent/R/C_Dist_200_LN_9_LD_30_RN_13_RD_26_1.png","img2/200/Incongruent/R/I_Dist_200_LN_11_LD_20_RN_3_RD_4_1.png","img2/100/Congruent/R/C_Dist_100_LN_1_LD_2_RN_3_RD_5_1.png","img2/300/Congruent/L/C_Dist_300_LN_8_LD_16_RN_1_RD_5_0.png","img2/200/Congruent/L/C_Dist_200_LN_7_LD_21_RN_2_RD_15_0.png","img2/300/Congruent/L/C_Dist_300_LN_8_LD_16_RN_1_RD_5_0.png","img2/200/Incongruent/L/I_Dist_200_LN_3_LD_4_RN_11_RD_20_0.png","img2/300/Congruent/R/C_Dist_300_LN_1_LD_5_RN_11_RD_22_1.png","img2/100/Incongruent/R/I_Dist_100_LN_12_LD_24_RN_9_RD_15_1.png","img2/100/Congruent/L/C_Dist_100_LN_11_LD_22_RN_6_RD_15_0.png","img2/300/Incongruent/L/I_Dist_300_LN_4_LD_5_RN_8_RD_16_0.png","img2/200/Incongruent/R/I_Dist_200_LN_14_LD_30_RN_6_RD_9_1.png","img2/300/Congruent/R/C_Dist_300_LN_5_LD_25_RN_6_RD_12_1.png","img2/200/Congruent/L/C_Dist_200_LN_11_LD_22_RN_3_RD_10_0.png","img2/300/Incongruent/L/I_Dist_300_LN_2_LD_4_RN_6_RD_30_0.png","img2/100/Congruent/R/C_Dist_100_LN_2_LD_5_RN_11_RD_22_1.png","img2/100/Congruent/R/C_Dist_100_LN_1_LD_2_RN_3_RD_5_1.png","img2/300/Incongruent/R/I_Dist_300_LN_13_LD_26_RN_12_RD_15_1.png","img2/100/Congruent/R/C_Dist_100_LN_7_LD_14_RN_9_RD_15_1.png","img2/300/Incongruent/L/I_Dist_300_LN_3_LD_6_RN_4_RD_20_0.png","img2/100/Incongruent/L/I_Dist_100_LN_9_LD_15_RN_13_RD_26_0.png","img2/200/Congruent/L/C_Dist_200_LN_15_LD_25_RN_4_RD_10_0.png","img2/100/Incongruent/R/I_Dist_100_LN_8_LD_16_RN_6_RD_10_1.png","img2/100/Congruent/L/C_Dist_100_LN_3_LD_6_RN_2_RD_5_0.png","img2/100/Congruent/L/C_Dist_100_LN_3_LD_6_RN_2_RD_5_0.png","img2/300/Incongruent/R/I_Dist_300_LN_13_LD_26_RN_12_RD_15_1.png","img2/300/Congruent/L/C_Dist_300_LN_20_LD_25_RN_13_RD_26_0.png","img2/100/Incongruent/R/I_Dist_100_LN_12_LD_24_RN_9_RD_15_1.png","img2/200/Incongruent/R/I_Dist_200_LN_3_LD_10_RN_1_RD_2_1.png","img2/200/Incongruent/R/I_Dist_200_LN_7_LD_15_RN_6_RD_9_1.png","img2/200/Incongruent/L/I_Dist_200_LN_3_LD_4_RN_11_RD_20_0.png","img2/100/Congruent/R/C_Dist_100_LN_3_LD_20_RN_4_RD_16_1.png","img2/100/Incongruent/L/I_Dist_100_LN_6_LD_10_RN_13_RD_26_0.png","img2/200/Congruent/R/C_Dist_200_LN_3_LD_12_RN_9_RD_20_1.png","img2/300/Incongruent/R/I_Dist_300_LN_13_LD_26_RN_12_RD_15_1.png","img2/200/Congruent/L/C_Dist_200_LN_8_LD_15_RN_2_RD_6_0.png","img2/200/Incongruent/L/I_Dist_200_LN_7_LD_10_RN_12_RD_24_0.png","img2/200/Incongruent/L/I_Dist_200_LN_7_LD_10_RN_12_RD_24_0.png","img2/300/Congruent/R/C_Dist_300_LN_4_LD_20_RN_13_RD_26_1.png","img2/300/Incongruent/L/I_Dist_300_LN_8_LD_10_RN_14_RD_28_0.png","img2/100/Congruent/L/C_Dist_100_LN_15_LD_25_RN_13_RD_26_0.png","img2/300/Incongruent/L/I_Dist_300_LN_3_LD_6_RN_4_RD_20_0.png","img2/300/Incongruent/R/I_Dist_300_LN_13_LD_26_RN_12_RD_15_1.png","img2/100/Congruent/R/C_Dist_100_LN_12_LD_30_RN_13_RD_26_1.png","img2/300/Incongruent/R/I_Dist_300_LN_13_LD_26_RN_12_RD_15_1.png","img2/100/Incongruent/L/I_Dist_100_LN_9_LD_10_RN_20_RD_25_0.png","img2/200/Incongruent/L/I_Dist_200_LN_1_LD_3_RN_2_RD_15_0.png","img2/200/Congruent/R/C_Dist_200_LN_3_LD_10_RN_11_RD_22_1.png","img2/300/Congruent/L/C_Dist_300_LN_20_LD_25_RN_5_RD_10_0.png","img2/300/Incongruent/R/I_Dist_300_LN_4_LD_20_RN_2_RD_4_1.png","img2/200/Incongruent/L/I_Dist_200_LN_4_LD_6_RN_14_RD_30_0.png","img2/100/Congruent/R/C_Dist_100_LN_4_LD_10_RN_15_RD_30_1.png","img2/300/Incongruent/L/I_Dist_300_LN_8_LD_10_RN_9_RD_18_0.png"],"dist100_C":[["C_Dist_100_LN_10_LD_25_RN_3_RD_10_0.png","C_Dist_100_LN_11_LD_22_RN_4_RD_10_0.png","C_Dist_100_LN_11_LD_22_RN_6_RD_15_0.png","C_Dist_100_LN_15_LD_25_RN_13_RD_26_0.png","C_Dist_100_LN_3_LD_6_RN_2_RD_5_0.png","C_Dist_100_LN_6_LD_20_RN_5_RD_25_0.png","C_Dist_100_LN_8_LD_16_RN_2_RD_5_0.png","C_Dist_100_LN_9_LD_15_RN_8_RD_16_0.png"],["C_Dist_100_LN_1_LD_2_RN_18_RD_30_1.png","C_Dist_100_LN_1_LD_2_RN_3_RD_5_1.png","C_Dist_100_LN_12_LD_30_RN_13_RD_26_1.png","C_Dist_100_LN_2_LD_5_RN_11_RD_22_1.png","C_Dist_100_LN_2_LD_5_RN_6_RD_12_1.png","C_Dist_100_LN_3_LD_20_RN_4_RD_16_1.png","C_Dist_100_LN_4_LD_10_RN_15_RD_30_1.png","C_Dist_100_LN_4_LD_8_RN_6_RD_10_1.png","C_Dist_100_LN_6_LD_12_RN_15_RD_25_1.png","C_Dist_100_LN_7_LD_14_RN_15_RD_25_1.png","C_Dist_100_LN_7_LD_14_RN_9_RD_15_1.png"]],"dist100_I":[["I_Dist_100_LN_1_LD_2_RN_8_RD_20_0.png","I_Dist_100_LN_2_LD_4_RN_6_RD_15_0.png","I_Dist_100_LN_2_LD_4_RN_8_RD_20_0.png","I_Dist_100_LN_3_LD_5_RN_11_RD_22_0.png","I_Dist_100_LN_3_LD_5_RN_8_RD_16_0.png","I_Dist_100_LN_3_LD_6_RN_4_RD_10_0.png","I_Dist_100_LN_3_LD_9_RN_7_RD_30_0.png","I_Dist_100_LN_4_LD_8_RN_8_RD_20_0.png","I_Dist_100_LN_6_LD_10_RN_11_RD_22_0.png","I_Dist_100_LN_6_LD_10_RN_13_RD_26_0.png","I_Dist_100_LN_6_LD_10_RN_7_RD_14_0.png","I_Dist_100_LN_9_LD_10_RN_20_RD_25_0.png","I_Dist_100_LN_9_LD_15_RN_13_RD_26_0.png","I_Dist_100_LN_9_LD_15_RN_14_RD_28_0.png"],["I_Dist_100_LN_10_LD_25_RN_8_RD_16_1.png","I_Dist_100_LN_10_LD_25_RN_9_RD_18_1.png","I_Dist_100_LN_11_LD_22_RN_9_RD_15_1.png","I_Dist_100_LN_12_LD_24_RN_9_RD_15_1.png","I_Dist_100_LN_12_LD_30_RN_2_RD_4_1.png","I_Dist_100_LN_13_LD_26_RN_12_RD_20_1.png","I_Dist_100_LN_13_LD_26_RN_6_RD_10_1.png","I_Dist_100_LN_17_LD_30_RN_10_RD_15_1.png","I_Dist_100_LN_6_LD_12_RN_3_RD_5_1.png","I_Dist_100_LN_8_LD_16_RN_6_RD_10_1.png","I_Dist_100_LN_8_LD_20_RN_1_RD_2_1.png","I_Dist_100_LN_9_LD_18_RN_6_RD_10_1.png"]],"dist100_S":[["E_Dist_100_LN_2_LD_12_RN_2_RD_30_0.png","E_Dist_100_LN_6_LD_10_RN_6_RD_12_0.png"],["E_Dist_100_LN_6_LD_12_RN_6_RD_10_1.png"]],"dist200_C":[["C_Dist_200_LN_11_LD_22_RN_3_RD_10_0.png","C_Dist_200_LN_12_LD_15_RN_6_RD_10_0.png","C_Dist_200_LN_12_LD_20_RN_6_RD_15_0.png","C_Dist_200_LN_14_LD_28_RN_6_RD_20_0.png","C_Dist_200_LN_15_LD_25_RN_4_RD_10_0.png","C_Dist_200_LN_16_LD_20_RN_12_RD_20_0.png","C_Dist_200_LN_16_LD_30_RN_9_RD_27_0.png","C_Dist_200_LN_20_LD_25_RN_9_RD_15_0.png","C_Dist_200_LN_21_LD_30_RN_2_RD_4_0.png","C_Dist_200_LN_4_LD_10_RN_3_RD_15_0.png","C_Dist_200_LN_4_LD_8_RN_3_RD_10_0.png","C_Dist_200_LN_6_LD_15_RN_3_RD_15_0.png","C_Dist_200_LN_7_LD_21_RN_2_RD_15_0.png","C_Dist_200_LN_8_LD_15_RN_2_RD_6_0.png","C_Dist_200_LN_8_LD_15_RN_3_RD_9_0.png","C_Dist_200_LN_8_LD_15_RN_7_RD_21_0.png","C_Dist_200_LN_9_LD_20_RN_4_RD_16_0.png"],["C_Dist_200_LN_1_LD_2_RN_21_RD_30_1.png","C_Dist_200_LN_13_LD_26_RN_14_RD_20_1.png","C_Dist_200_LN_3_LD_10_RN_11_RD_22_1.png","C_Dist_200_LN_3_LD_10_RN_14_RD_28_1.png","C_Dist_200_LN_3_LD_10_RN_7_RD_14_1.png","C_Dist_200_LN_3_LD_12_RN_9_RD_20_1.png","C_Dist_200_LN_3_LD_6_RN_14_RD_20_1.png","C_Dist_200_LN_5_LD_10_RN_14_RD_20_1.png","C_Dist_200_LN_6_LD_12_RN_7_RD_10_1.png","C_Dist_200_LN_6_LD_20_RN_11_RD_22_1.png","C_Dist_200_LN_7_LD_15_RN_18_RD_27_1.png","C_Dist_200_LN_9_LD_30_RN_13_RD_26_1.png"]],"dist200_I":[["I_Dist_200_LN_1_LD_2_RN_3_RD_10_0.png","I_Dist_200_LN_1_LD_3_RN_2_RD_15_0.png","I_Dist_200_LN_3_LD_4_RN_11_RD_20_0.png","I_Dist_200_LN_4_LD_5_RN_6_RD_10_0.png","I_Dist_200_LN_4_LD_6_RN_14_RD_30_0.png","I_Dist_200_LN_7_LD_10_RN_12_RD_24_0.png","I_Dist_200_LN_7_LD_10_RN_14_RD_28_0.png","I_Dist_200_LN_7_LD_10_RN_8_RD_16_0.png"],["I_Dist_200_LN_11_LD_20_RN_3_RD_4_1.png","I_Dist_200_LN_14_LD_30_RN_12_RD_18_1.png","I_Dist_200_LN_14_LD_30_RN_6_RD_9_1.png","I_Dist_200_LN_3_LD_10_RN_1_RD_2_1.png","I_Dist_200_LN_4_LD_30_RN_1_RD_3_1.png","I_Dist_200_LN_6_LD_20_RN_3_RD_6_1.png","I_Dist_200_LN_7_LD_15_RN_4_RD_6_1.png","I_Dist_200_LN_7_LD_15_RN_6_RD_9_1.png","I_Dist_200_LN_9_LD_15_RN_8_RD_10_1.png"]],"dist200_S":[["E_Dist_200_LN_3_LD_6_RN_3_RD_10_0.png"],["E_Dist_200_LN_3_LD_10_RN_3_RD_6_1.png"]],"dist300_C":[["C_Dist_300_LN_11_LD_22_RN_1_RD_5_0.png","C_Dist_300_LN_11_LD_22_RN_2_RD_10_0.png","C_Dist_300_LN_11_LD_22_RN_4_RD_20_0.png","C_Dist_300_LN_12_LD_24_RN_2_RD_10_0.png","C_Dist_300_LN_18_LD_20_RN_9_RD_15_0.png","C_Dist_300_LN_20_LD_25_RN_13_RD_26_0.png","C_Dist_300_LN_20_LD_25_RN_14_RD_28_0.png","C_Dist_300_LN_20_LD_25_RN_5_RD_10_0.png","C_Dist_300_LN_20_LD_25_RN_8_RD_16_0.png","C_Dist_300_LN_20_LD_25_RN_9_RD_18_0.png","C_Dist_300_LN_24_LD_30_RN_2_RD_4_0.png","C_Dist_300_LN_24_LD_30_RN_8_RD_16_0.png","C_Dist_300_LN_3_LD_6_RN_2_RD_10_0.png","C_Dist_300_LN_4_LD_10_RN_1_RD_10_0.png","C_Dist_300_LN_4_LD_5_RN_2_RD_4_0.png","C_Dist_300_LN_8_LD_16_RN_1_RD_5_0.png","C_Dist_300_LN_9_LD_10_RN_3_RD_5_0.png"],["C_Dist_300_LN_1_LD_20_RN_7_RD_20_1.png","C_Dist_300_LN_1_LD_3_RN_19_RD_30_1.png","C_Dist_300_LN_1_LD_30_RN_8_RD_24_1.png","C_Dist_300_LN_1_LD_5_RN_11_RD_22_1.png","C_Dist_300_LN_1_LD_5_RN_3_RD_6_1.png","C_Dist_300_LN_1_LD_5_RN_6_RD_12_1.png","C_Dist_300_LN_2_LD_10_RN_12_RD_24_1.png","C_Dist_300_LN_2_LD_20_RN_10_RD_25_1.png","C_Dist_300_LN_3_LD_12_RN_11_RD_20_1.png","C_Dist_300_LN_3_LD_6_RN_4_RD_5_1.png","C_Dist_300_LN_4_LD_20_RN_13_RD_26_1.png","C_Dist_300_LN_5_LD_25_RN_6_RD_12_1.png","C_Dist_300_LN_5_LD_25_RN_7_RD_14_1.png","C_Dist_300_LN_7_LD_14_RN_20_RD_25_1.png","C_Dist_300_LN_8_LD_15_RN_10_RD_12_1.png"]],"dist300_I":[["I_Dist_300_LN_1_LD_2_RN_2_RD_10_0.png","I_Dist_300_LN_1_LD_2_RN_3_RD_15_0.png","I_Dist_300_LN_2_LD_4_RN_6_RD_30_0.png","I_Dist_300_LN_3_LD_6_RN_4_RD_20_0.png","I_Dist_300_LN_4_LD_5_RN_6_RD_12_0.png","I_Dist_300_LN_4_LD_5_RN_8_RD_16_0.png","I_Dist_300_LN_7_LD_10_RN_8_RD_20_0.png","I_Dist_300_LN_8_LD_10_RN_14_RD_28_0.png","I_Dist_300_LN_8_LD_10_RN_9_RD_18_0.png"],["I_Dist_300_LN_13_LD_26_RN_12_RD_15_1.png","I_Dist_300_LN_4_LD_20_RN_2_RD_4_1.png"]],"dist300_S":[["E_Dist_300_LN_9_LD_12_RN_9_RD_20_0.png"],["E_Dist_300_LN_18_LD_30_RN_18_RD_20_1.png","E_Dist_300_LN_3_LD_10_RN_3_RD_5_1.png","E_Dist_300_LN_9_LD_20_RN_9_RD_12_1.png"]],"dist500_C":[["C_Dist_500_LN_10_LD_13_RN_7_RD_26_0.png","C_Dist_500_LN_10_LD_15_RN_4_RD_24_0.png","C_Dist_500_LN_12_LD_16_RN_3_RD_12_0.png","C_Dist_500_LN_12_LD_18_RN_4_RD_24_0.png","C_Dist_500_LN_15_LD_18_RN_5_RD_15_0.png","C_Dist_500_LN_15_LD_20_RN_1_RD_4_0.png","C_Dist_500_LN_18_LD_27_RN_1_RD_6_0.png","C_Dist_500_LN_20_LD_24_RN_1_RD_3_0.png","C_Dist_500_LN_20_LD_24_RN_3_RD_9_0.png","C_Dist_500_LN_20_LD_24_RN_7_RD_21_0.png","C_Dist_500_LN_20_LD_28_RN_3_RD_14_0.png","C_Dist_500_LN_21_LD_28_RN_6_RD_24_0.png","C_Dist_500_LN_22_LD_28_RN_2_RD_7_0.png","C_Dist_500_LN_25_LD_30_RN_9_RD_27_0.png","C_Dist_500_LN_4_LD_6_RN_1_RD_6_0.png","C_Dist_500_LN_5_LD_6_RN_2_RD_6_0.png","C_Dist_500_LN_6_LD_9_RN_1_RD_6_0.png","C_Dist_500_LN_7_LD_10_RN_1_RD_5_0.png","C_Dist_500_LN_8_LD_12_RN_1_RD_6_0.png","C_Dist_500_LN_8_LD_12_RN_4_RD_24_0.png"],["C_Dist_500_LN_1_LD_4_RN_12_RD_16_1.png","C_Dist_500_LN_1_LD_4_RN_9_RD_12_1.png","C_Dist_500_LN_1_LD_9_RN_11_RD_18_1.png","C_Dist_500_LN_10_LD_24_RN_22_RD_24_1.png","C_Dist_500_LN_2_LD_12_RN_10_RD_15_1.png","C_Dist_500_LN_2_LD_12_RN_12_RD_18_1.png","C_Dist_500_LN_2_LD_12_RN_4_RD_6_1.png","C_Dist_500_LN_2_LD_24_RN_7_RD_12_1.png","C_Dist_500_LN_2_LD_5_RN_18_RD_20_1.png","C_Dist_500_LN_2_LD_5_RN_9_RD_10_1.png","C_Dist_500_LN_2_LD_8_RN_12_RD_16_1.png","C_Dist_500_LN_2_LD_8_RN_21_RD_28_1.png","C_Dist_500_LN_3_LD_10_RN_4_RD_5_1.png","C_Dist_500_LN_3_LD_12_RN_15_RD_20_1.png","C_Dist_500_LN_3_LD_30_RN_6_RD_10_1.png","C_Dist_500_LN_3_LD_8_RN_14_RD_16_1.png","C_Dist_500_LN_4_LD_16_RN_15_RD_20_1.png","C_Dist_500_LN_4_LD_24_RN_12_RD_18_1.png","C_Dist_500_LN_5_LD_14_RN_6_RD_7_1.png","C_Dist_500_LN_7_LD_21_RN_20_RD_24_1.png","C_Dist_500_LN_7_LD_28_RN_12_RD_16_1.png","C_Dist_500_LN_7_LD_28_RN_9_RD_12_1.png","C_Dist_500_LN_9_LD_27_RN_20_RD_24_1.png"]],"dist500_I":[["I_Dist_500_LN_2_LD_3_RN_4_RD_24_0.png","I_Dist_500_LN_5_LD_6_RN_6_RD_18_0.png","I_Dist_500_LN_7_LD_8_RN_9_RD_24_0.png"],["I_Dist_500_LN_7_LD_21_RN_5_RD_6_1.png"]],"dist500_S":[["E_Dist_500_LN_6_LD_8_RN_6_RD_24_0.png"],["E_Dist_500_LN_2_LD_12_RN_2_RD_3_1.png","E_Dist_500_LN_6_LD_24_RN_6_RD_8_1.png"]]}},{"start_time":1552054152576,"click_time":1552054153829,"finger_time":1552054153388,"fix_duration":385.3938501529566,"trial":1,"RT":812,"MT":441,"sideResp":2,"stimulus":[],"xmouse":[789,789,789,789,789,789,789,789,789,789,789,789,789,789,789,789,789,789,789,789,789,789,789,789,789,789,789,789,789,789,789,789,789,789,789,789,789,789,793,808,830,874,994,1071,1112,1144,1161,1173,1179,1184,1189,1193,1197,1197,1197,1193,1187,1183,1183,1183,1179,1167,1113],"ymouse":[507,507,507,507,507,507,507,507,507,507,507,507,507,507,507,507,507,507,507,507,507,507,507,507,507,507,507,507,507,507,507,507,507,507,507,507,507,507,497,476,448,400,289,220,191,174,167,160,156,149,142,134,110,102,93,86,79,76,76,76,76,76,73],"timestamp_mouse":[16,38,51,72,92,113,131,153,171,192,213,233,252,273,292,313,332,353,373,392,411,432,452,472,493,513,533,552,572,591,613,632,653,673,692,712,733,753,771,792,812,833,852,873,891,911,931,952,972,993,1012,1033,1052,1072,1093,1111,1132,1151,1171,1193,1212,1233,1252],"xSR":741.5,"ySR":469.95,"xT1":424.9,"yT1":0,"xT2":1058.1,"yT2":0,"toosoon":0,"cond_shown":"Congruent","ratio_trial":300,"L_num":2,"L_den":10,"R_num":12,"R_den":24,"correct_side":2,"subjID":"thomasrojas24","gender":"0","school":"4","age":"8"},{"start_time":1552054155496,"click_time":1552054156969,"finger_time":1552054156509,"fix_duration":866.1465086858087,"trial":2,"RT":1013,"MT":460,"sideResp":1,"stimulus":[],"xmouse":[771,771,771,771,771,771,771,771,771,771,771,771,771,771,771,771,771,771,771,771,771,771,771,771,771,771,771,771,771,771,771,771,771,771,771,771,771,771,771,771,771,771,771,771,771,771,771,771,771,774,774,733,710,684,658,650,611,592,573,561,548,531,530,530,530,530,530,530,530,530,530,530,525,510],"ymouse":[534,534,534,534,534,534,534,534,534,534,534,534,534,534,534,534,534,534,534,534,534,534,534,534,534,534,534,534,534,534,534,534,534,534,534,534,534,534,534,534,534,534,534,534,534,534,534,534,524,502,467,329,252,191,130,115,63,52,46,42,38,33,33,33,33,33,33,33,33,33,33,33,33,33],"timestamp_mouse":[28,39,51,72,93,112,133,151,173,193,213,233,252,273,291,313,333,353,371,393,411,433,452,472,492,511,532,552,572,591,612,632,653,671,692,711,732,752,772,793,812,831,852,873,893,913,932,952,971,993,1013,1033,1051,1072,1093,1112,1132,1151,1171,1192,1213,1232,1252,1273,1293,1312,1333,1353,1372,1392,1412,1433,1452,1473],"xSR":741.5,"ySR":469.95,"xT1":424.9,"yT1":0,"xT2":1058.1,"yT2":0,"toosoon":0,"cond_shown":"Incongruent","ratio_trial":100,"L_num":17,"L_den":30,"R_num":10,"R_den":15,"correct_side":2,"subjID":"thomasrojas24","gender":"0","school":"4","age":"8"},{"start_time":1552054158724,"click_time":1552054160449,"finger_time":1552054160209,"fix_duration":894.4725916287501,"trial":3,"RT":1485,"MT":240,"sideResp":1,"stimulus":[],"xmouse":[785,785,785,785,785,785,785,785,785,785,785,785,785,785,785,785,785,785,785,785,785,785,785,785,785,785,785,785,785,785,785,785,785,785,785,785,785,785,785,785,785,785,785,785,785,785,785,785,785,785,785,785,785,785,785,785,785,785,785,785,785,785,785,785,785,785,785,785,785,785,785,785,785,776,744,688,618,618,618,618,618,618,618,618,618,618,470],"ymouse":[528,528,528,528,528,528,528,528,528,528,528,528,528,528,528,528,528,528,528,528,528,528,528,528,528,528,528,528,528,528,528,528,528,528,528,528,528,528,528,528,528,528,528,528,528,528,528,528,528,528,528,528,528,528,528,528,528,528,528,528,528,528,528,528,528,528,528,528,528,528,528,528,526,485,372,201,17,17,17,17,17,17,17,17,17,17,16],"timestamp_mouse":[12,40,44,65,85,104,125,145,164,185,204,223,244,264,285,304,325,344,364,384,404,425,444,465,485,504,525,544,564,585,604,625,644,663,685,704,725,744,764,784,804,823,845,865,884,905,924,944,965,984,1003,1023,1044,1065,1083,1104,1124,1145,1165,1184,1204,1224,1244,1263,1283,1304,1325,1343,1363,1385,1404,1424,1444,1463,1485,1503,1523,1543,1563,1584,1604,1625,1644,1665,1684,1706,1724],"xSR":741.5,"ySR":469.95,"xT1":424.9,"yT1":0,"xT2":1058.1,"yT2":0,"toosoon":0,"cond_shown":"Congruent","ratio_trial":200,"L_num":7,"L_den":21,"R_num":2,"R_den":15,"correct_side":1,"subjID":"thomasrojas24","gender":"0","school":"4","age":"8"},{"start_time":1552054162637,"click_time":1552054164129,"finger_time":1552054163529,"fix_duration":1088.4496625918932,"trial":4,"RT":892,"MT":600,"sideResp":2,"stimulus":[],"xmouse":[780,780,780,780,780,780,780,780,780,780,780,780,780,780,780,780,780,780,780,780,780,780,780,780,780,780,780,780,780,780,780,780,780,780,780,780,780,780,780,780,780,784,792,802,816,846,856,867,880,888,895,904,909,913,917,928,934,943,954,971,1006,1013,1014,1014,1014,1014,1020,1031,1045,1054,1055,1055,1055,1057,1061],"ymouse":[519,519,519,519,519,519,519,519,519,519,519,519,519,519,519,519,519,519,519,519,519,519,519,519,519,519,519,519,519,519,519,519,519,519,519,519,519,519,519,519,519,513,498,481,457,392,369,347,304,264,244,212,196,182,166,127,112,96,82,72,61,60,60,60,60,60,60,62,65,66,66,66,66,66,65],"timestamp_mouse":[13,40,52,72,91,111,131,152,171,191,212,232,250,272,291,312,331,352,371,392,411,430,451,472,491,511,532,552,571,590,612,631,650,672,691,712,730,752,771,791,812,831,852,872,891,911,931,951,971,991,1014,1030,1050,1072,1092,1110,1131,1150,1170,1190,1210,1230,1250,1270,1291,1311,1331,1351,1370,1391,1412,1431,1452,1471,1491],"xSR":741.5,"ySR":469.95,"xT1":424.9,"yT1":0,"xT2":1058.1,"yT2":0,"toosoon":0,"cond_shown":"Incongruent","ratio_trial":300,"L_num":13,"L_den":26,"R_num":12,"R_den":15,"correct_side":2,"subjID":"thomasrojas24","gender":"0","school":"4","age":"8"},{"start_time":1552054166428,"click_time":1552054168268,"finger_time":1552054167709,"fix_duration":1379.2193751072436,"trial":5,"RT":1281,"MT":559,"sideResp":1,"stimulus":[],"xmouse":[789,789,789,789,789,789,789,789,789,789,789,789,789,789,789,789,789,789,789,789,789,789,789,789,789,789,789,789,789,789,789,789,789,789,789,789,789,789,789,789,789,789,789,789,789,789,789,789,789,789,789,789,789,789,789,789,789,789,789,789,789,787,783,779,770,765,752,744,732,719,703,686,660,650,643,635,616,609,601,595,587,580,571,569,567,567,560,552,538,524,514,504,498],"ymouse":[503,503,503,503,503,503,503,503,503,503,503,503,503,503,503,503,503,503,503,503,503,503,503,503,503,503,503,503,503,503,503,503,503,503,503,503,503,503,503,503,503,503,503,503,503,503,503,503,503,503,503,503,503,503,503,503,503,503,503,503,503,495,486,477,464,455,432,420,406,391,372,357,335,323,315,300,266,254,241,230,219,210,196,192,189,187,177,165,147,131,119,106,97],"timestamp_mouse":[2,19,40,60,80,99,120,140,160,180,200,220,241,260,281,300,319,340,361,381,399,420,440,461,481,500,520,540,561,579,600,620,640,661,679,701,720,739,759,780,801,820,840,861,880,900,920,940,961,980,1001,1020,1041,1060,1080,1100,1120,1141,1159,1181,1201,1220,1241,1259,1281,1300,1321,1340,1360,1379,1400,1421,1441,1460,1479,1501,1521,1540,1560,1580,1600,1619,1639,1661,1681,1701,1721,1740,1760,1779,1800,1822,1839],"xSR":741.5,"ySR":469.95,"xT1":424.9,"yT1":0,"xT2":1058.1,"yT2":0,"toosoon":0,"cond_shown":"Incongruent","ratio_trial":100,"L_num":11,"L_den":22,"R_num":9,"R_den":15,"correct_side":2,"subjID":"thomasrojas24","gender":"0","school":"4","age":"8"},{"start_time":1552054171787,"click_time":1552054182828,"finger_time":1552054173268,"fix_duration":978.4447361155748,"trial":6,"RT":1481,"MT":9560,"sideResp":2,"stimulus":[],"xmouse":[798,798,798,798,798,798,798,798,798,798,798,798,798,798,798,798,798,798,798,798,798,798,798,798,798,798,798,798,798,798,798,798,798,798,798,798,798,798,798,798,798,798,798,798,798,798,798,798,798,798,798,798,798,798,798,798,798,798,798,798,798,798,798,798,798,798,798,798,798,798,791,785,765,757,737,734,734,734,734,730,725,719,704,698,651,632,616,599,583,548,529,509,509,509,509,509,509,509,509,509,509,509,509,509,509,509,509,509,509,509,509,509,509,509,509,509,509,509,509,509,509,509,509,509,509,509,509,509,509,509,509,509,509,509,509,509,509,509,509,509,509,509,509,509,509,509,509,509,509,509,509,509,509,509,509,509,509,509,509,509,509,509,509,509,509,509,509,509,509,509,509,509,509,509,509,509,509,509,509,509,509,509,509,509,509,509,509,509,509,509,509,509,509,509,509,509,509,509,509,509,509,509,509,509,509,509,509,509,509,509,509,509,509,509,509,509,509,509,509,509,509,509,509,509,509,509,509,509,509,509,509,509,509,509,509,509,509,509,509,509,509,509,509,509,509,509,509,509,509,509,509,509,509,509,509,509,509,509,509,509,509,509,509,509,509,509,509,509,509,509,509,509,509,509,509,509,509,509,509,509,509,509,509,509,509,509,509,509,509,509,509,509,509,509,509,509,509,509,509,509,509,509,509,509,509,509,509,509,509,509,509,509,509,509,509,509,509,509,509,509,448,427,394,350,305,262,262,262,263,278,308,401,485,576,652,729,740,743,745,745,747,747,747,747,753,755,757,759,759,759,759,759,759,759,760,762,764,767,769,770,770,770,770,770,770,770,770,770,770,770,770,770,770,770,770,770,770,770,770,770,771,771,771,771,771,771,771,771,771,771,771,771,771,771,771,771,771,771,771,771,771,771,771,771,771,771,771,771,771,771,771,771,772,775,779,784,786,786,787,787,787,787,787,787,787,787,787,787,787,787,787,787,787,787,787,787,786,786,786,784,781,779,778,777,777,777,777,777,777,777,777,777,777,777,777,777,777,777,777,777,777,777,777,777,777,777,777,777,777,777,777,777,777,777,777,777,777,777,777,777,777,777,777,777,777,777,777,777,777,777,777,777,777,777,777,777,778,778,779,781,781,781,783,783,785,787,788,788,789,790,790,790,790,790,790,790,791,793,796,797,804,807,808,811,814,820,825,828,834,839,847,851,859,872,887,908,968,1014,1067,1125,1207,1207,1207,1207,1207,1207,1207,1207,1207,1207,1207,1207,1067],"ymouse":[504,504,504,504,504,504,504,504,504,504,504,504,504,504,504,504,504,504,504,504,504,504,504,504,504,504,504,504,504,504,504,504,504,504,504,504,504,504,504,504,504,504,504,504,504,504,504,504,504,504,504,504,504,504,504,504,504,504,504,504,504,504,504,504,504,504,504,504,504,504,509,510,523,527,537,539,539,539,539,544,552,559,572,577,608,623,637,650,661,687,703,721,721,721,721,721,721,721,721,721,721,721,721,721,721,721,721,721,721,721,721,721,721,721,721,721,721,721,721,721,721,721,721,721,721,721,721,721,721,721,721,721,721,721,721,721,721,721,721,721,721,721,721,721,721,721,721,721,721,721,721,721,721,721,721,721,721,721,721,721,721,721,721,721,721,721,721,721,721,721,721,721,721,721,721,721,721,721,721,721,721,721,721,721,721,721,721,721,721,721,721,721,721,721,721,721,721,721,721,721,721,721,721,721,721,721,721,721,721,721,721,721,721,721,721,721,721,721,721,721,721,721,721,721,721,721,721,721,721,721,721,721,721,721,721,721,721,721,721,721,721,721,721,721,721,721,721,721,721,721,721,721,721,721,721,721,721,721,721,721,721,721,721,721,721,721,721,721,721,721,721,721,721,721,721,721,721,721,721,721,721,721,721,721,721,721,721,721,721,721,721,721,721,721,721,721,721,721,721,721,721,721,721,721,721,721,721,721,721,721,721,721,721,721,721,721,721,721,721,721,595,542,478,408,346,278,270,268,267,268,287,326,350,371,384,398,403,406,408,415,433,450,464,480,513,525,539,551,556,558,558,558,558,558,558,549,544,540,537,536,536,536,536,536,536,536,536,536,536,536,536,536,536,536,536,536,536,536,536,536,536,534,534,534,534,534,534,534,534,534,534,534,534,534,534,534,534,534,534,534,534,534,534,534,534,534,534,534,534,534,534,534,533,525,511,484,478,476,474,474,474,474,474,474,474,474,474,474,479,483,500,502,506,507,507,507,509,513,515,518,524,527,531,537,541,543,543,543,543,543,543,543,543,543,543,543,543,543,543,543,543,543,543,543,543,543,543,543,543,543,543,543,543,543,543,543,543,543,543,543,543,543,543,543,543,543,543,543,543,543,543,543,543,542,541,539,536,534,533,531,531,531,529,528,526,523,523,522,521,519,519,519,519,519,519,519,518,517,516,516,515,514,514,514,514,514,514,514,514,514,514,514,513,511,506,494,440,375,286,190,43,43,43,43,43,43,43,43,43,43,43,43,5],"timestamp_mouse":[11,22,41,61,82,101,120,142,161,182,202,220,242,262,282,301,322,342,361,382,401,422,440,461,481,501,521,541,560,581,602,622,641,662,682,700,721,742,761,782,802,821,841,862,881,901,921,941,960,982,1001,1021,1042,1061,1081,1101,1122,1142,1160,1181,1201,1222,1242,1262,1280,1301,1322,1341,1361,1382,1402,1422,1442,1461,1480,1501,1521,1542,1561,1581,1602,1622,1641,1660,1681,1702,1721,1742,1761,1782,1800,1821,1840,1862,1881,1901,1922,1941,1961,1982,2001,2021,2040,2061,2081,2101,2121,2141,2161,2181,2200,2221,2241,2261,2281,2302,2322,2341,2361,2381,2402,2422,2442,2462,2480,2500,2522,2542,2562,2582,2601,2621,2642,2660,2681,2702,2721,2741,2761,2782,2802,2822,2842,2862,2881,2901,2922,2941,2962,2982,3002,3021,3042,3062,3080,3101,3121,3142,3161,3181,3202,3221,3242,3261,3282,3301,3322,3342,3361,3381,3401,3420,3442,3462,3481,3501,3522,3542,3561,3580,3600,3621,3642,3661,3682,3701,3721,3741,3761,3782,3802,3820,3841,3862,3880,3901,3921,3940,3961,3981,4000,4021,4040,4061,4082,4102,4122,4142,4162,4181,4201,4221,4241,4260,4281,4302,4321,4341,4361,4381,4401,4422,4441,4462,4481,4501,4522,4541,4561,4581,4600,4621,4641,4661,4681,4702,4722,4741,4762,4782,4800,4820,4841,4861,4882,4901,4921,4940,4961,4981,5001,5021,5041,5060,5081,5102,5121,5141,5162,5182,5201,5222,5241,5261,5280,5300,5321,5341,5362,5382,5401,5422,5440,5460,5482,5500,5521,5540,5561,5581,5601,5621,5640,5660,5682,5701,5722,5741,5761,5782,5801,5821,5841,5861,5882,5901,5921,5942,5961,5981,6002,6021,6042,6061,6081,6101,6121,6140,6162,6182,6201,6221,6241,6261,6281,6301,6322,6342,6361,6381,6402,6421,6441,6460,6481,6501,6522,6540,6560,6581,6600,6621,6641,6661,6680,6701,6721,6742,6760,6782,6800,6822,6841,6862,6882,6900,6921,6941,6960,6981,7000,7022,7041,7062,7080,7100,7120,7140,7160,7180,7200,7222,7241,7260,7282,7301,7320,7342,7360,7382,7401,7421,7440,7462,7480,7502,7521,7542,7562,7580,7600,7621,7640,7661,7682,7701,7722,7740,7760,7781,7802,7822,7841,7860,7882,7901,7922,7941,7961,7980,8002,8021,8040,8060,8081,8102,8122,8141,8161,8181,8202,8221,8241,8260,8280,8300,8321,8342,8361,8381,8401,8420,8441,8462,8481,8502,8520,8541,8561,8581,8601,8621,8641,8661,8680,8700,8721,8741,8760,8780,8801,8821,8842,8860,8880,8900,8921,8942,8960,8980,9002,9021,9042,9062,9082,9102,9121,9141,9162,9181,9201,9220,9240,9260,9281,9302,9321,9342,9361,9381,9401,9421,9442,9460,9481,9502,9522,9542,9561,9581,9601,9622,9641,9661,9680,9702,9722,9740,9762,9781,9800,9822,9841,9862,9880,9901,9921,9941,9961,9982,10002,10021,10040,10061,10081,10100,10121,10141,10161,10180,10201,10221,10241,10260,10282,10302,10321,10341,10361,10381,10401,10421,10441,10461,10482,10501,10521,10540,10561,10580,10601,10622,10641,10661,10681,10700,10720,10740,10760,10780,10801,10822,10841,10861,10882,10901,10921,10941,10960,10982,11001,11021,11041],"xSR":741.5,"ySR":469.95,"xT1":424.9,"yT1":0,"xT2":1058.1,"yT2":0,"toosoon":0,"cond_shown":"Incongruent","ratio_trial":200,"L_num":6,"L_den":20,"R_num":3,"R_den":6,"correct_side":2,"subjID":"thomasrojas24","gender":"0","school":"4","age":"8"},{"start_time":1552054184562,"click_time":1552054185968,"finger_time":1552054185469,"fix_duration":672.5624954666246,"trial":7,"RT":907,"MT":499,"sideResp":1,"stimulus":[],"xmouse":[803,803,803,803,803,803,803,803,803,803,803,803,803,803,803,803,803,803,803,803,803,804,804,804,804,804,804,804,804,804,804,804,804,804,804,804,804,804,804,804,804,804,804,798,788,769,659,582,484,451,442,437,429,424,415,402,380,379,379,381,389,404,406,407,407,409,411,416,419,423,425],"ymouse":[501,501,501,501,501,501,501,501,501,501,501,501,501,501,501,501,501,501,501,501,501,501,502,502,502,502,502,502,502,502,502,502,502,502,502,502,502,502,502,502,502,502,502,499,483,458,360,313,259,238,228,217,195,186,173,154,124,117,115,114,113,107,105,103,101,98,95,92,91,86,82],"timestamp_mouse":[10,26,45,67,86,106,126,147,166,186,207,226,245,265,286,306,326,347,365,386,407,426,446,465,485,506,526,546,567,586,605,626,645,667,687,706,726,746,765,787,806,826,847,865,885,907,927,946,967,986,1007,1026,1046,1065,1087,1106,1127,1145,1165,1186,1207,1227,1246,1266,1286,1306,1327,1346,1366,1385,1406],"xSR":741.5,"ySR":469.95,"xT1":424.9,"yT1":0,"xT2":1058.1,"yT2":0,"toosoon":0,"cond_shown":"Incongruent","ratio_trial":100,"L_num":6,"L_den":10,"R_num":11,"R_den":22,"correct_side":1,"subjID":"thomasrojas24","gender":"0","school":"4","age":"8"},{"start_time":1552054187261,"click_time":1552054188508,"finger_time":1552054188149,"fix_duration":250,"trial":8,"RT":888,"MT":359,"sideResp":2,"stimulus":[],"xmouse":[776,776,776,776,776,776,776,776,776,776,776,776,776,776,776,776,776,776,776,776,776,776,776,776,776,776,776,776,776,776,776,776,776,776,776,776,776,776,776,776,776,776,780,789,802,822,856,925,948,964,974,981,994,1007,1015,1020,1023,1024,1024,1024,1025,1039,1125],"ymouse":[514,514,514,514,514,514,514,514,514,514,514,514,514,514,514,514,514,514,514,514,514,514,514,514,514,514,514,514,514,514,514,514,514,514,514,514,514,514,514,514,514,514,505,485,454,415,356,229,176,133,110,95,73,53,44,36,29,27,27,27,27,34,68],"timestamp_mouse":[13,27,46,68,87,106,128,147,166,188,207,227,248,268,286,308,328,347,368,388,407,428,447,467,487,508,527,547,567,587,607,626,646,666,687,706,728,747,768,787,806,827,846,868,888,908,928,947,968,987,1008,1027,1047,1067,1088,1107,1129,1148,1167,1187,1207,1228,1247],"xSR":741.5,"ySR":469.95,"xT1":424.9,"yT1":0,"xT2":1058.1,"yT2":0,"toosoon":0,"cond_shown":"Congruent","ratio_trial":100,"L_num":4,"L_den":8,"R_num":6,"R_den":10,"correct_side":2,"subjID":"thomasrojas24","gender":"0","school":"4","age":"8"},{"start_time":1552054191001,"click_time":1552054192388,"finger_time":1552054192288,"fix_duration":250,"trial":9,"RT":1287,"MT":100,"sideResp":2,"stimulus":[],"xmouse":[778,778,778,778,778,778,778,778,778,778,778,778,778,778,778,778,778,778,778,778,778,778,778,778,778,778,778,778,778,778,778,778,778,778,778,778,778,778,778,778,778,778,778,778,778,778,778,778,778,778,778,778,778,778,778,778,778,778,778,778,778,779,782,802,836,947,1001,1037,1058,1065],"ymouse":[529,529,529,529,529,529,529,529,529,529,529,529,529,529,529,529,529,529,529,529,529,529,529,529,529,529,529,529,529,529,529,529,529,529,529,529,529,529,529,529,529,529,529,529,529,529,529,529,529,529,529,529,529,529,529,529,529,529,529,529,529,529,524,488,435,277,198,134,93,72],"timestamp_mouse":[10,40,47,67,88,107,127,146,166,187,206,227,248,266,288,307,326,347,367,388,408,427,446,467,488,508,527,547,568,588,608,627,648,666,688,708,728,747,767,788,808,827,847,867,888,907,928,947,966,988,1007,1028,1047,1067,1086,1106,1127,1148,1167,1188,1206,1226,1247,1268,1287,1307,1326,1347,1366,1386],"xSR":741.5,"ySR":469.95,"xT1":424.9,"yT1":0,"xT2":1058.1,"yT2":0,"toosoon":0,"cond_shown":"Congruent","ratio_trial":200,"L_num":6,"L_den":12,"R_num":7,"R_den":10,"correct_side":2,"subjID":"thomasrojas24","gender":"0","school":"4","age":"8"},{"start_time":1552054194756,"click_time":1552054196108,"finger_time":1552054195649,"fix_duration":1347.918541753135,"trial":10,"RT":893,"MT":459,"sideResp":2,"stimulus":[],"xmouse":[788,788,788,788,788,788,788,788,788,788,788,788,788,788,788,788,788,788,788,788,788,788,788,788,788,788,788,788,788,788,788,788,788,788,788,788,788,788,788,788,788,788,788,788,797,809,831,855,907,920,929,938,950,983,1011,1025,1032,1036,1038,1041,1045,1050,1057,1058,1058,1058,1058,1059],"ymouse":[521,521,521,521,521,521,521,521,521,521,521,521,521,521,521,521,521,521,521,521,521,521,521,521,521,521,521,521,521,521,521,521,521,521,521,521,521,521,521,521,521,521,519,499,459,420,371,322,254,239,224,210,195,158,131,112,100,93,87,82,75,67,58,57,57,57,57,57],"timestamp_mouse":[14,38,53,72,92,113,132,152,173,192,212,232,253,272,293,312,332,352,372,393,412,432,453,471,493,513,533,552,572,593,611,633,652,672,691,713,733,753,771,792,813,832,853,872,893,911,931,952,972,992,1012,1031,1052,1072,1091,1112,1133,1152,1171,1191,1212,1233,1254,1271,1291,1312,1332,1352],"xSR":741.5,"ySR":469.95,"xT1":424.9,"yT1":0,"xT2":1058.1,"yT2":0,"toosoon":0,"cond_shown":"Congruent","ratio_trial":300,"L_num":7,"L_den":14,"R_num":20,"R_den":25,"correct_side":2,"subjID":"thomasrojas24","gender":"0","school":"4","age":"8"},{"start_time":1552054200230,"click_time":1552054201648,"finger_time":1552054201088,"fix_duration":1239.1176678023087,"trial":11,"RT":858,"MT":560,"sideResp":1,"stimulus":[],"xmouse":[783,783,783,783,783,783,783,783,783,783,783,783,783,783,783,783,783,783,783,783,783,783,783,783,783,783,783,783,783,783,783,783,783,783,783,783,783,783,783,794,797,798,794,783,746,729,716,696,686,677,673,669,664,657,642,638,635,634,633,625,618,611,605,599,578,563,545,541,537,531,507],"ymouse":[520,520,520,520,520,520,520,520,520,520,520,520,520,520,520,520,520,520,520,520,520,520,520,520,520,520,520,520,520,520,520,520,520,520,520,520,520,520,521,506,494,482,465,449,418,406,395,377,366,355,348,342,326,304,257,241,230,227,224,206,194,182,172,164,139,121,103,98,94,89,66],"timestamp_mouse":[19,38,58,78,98,118,138,158,177,198,219,238,258,279,297,317,337,358,378,398,417,439,458,479,499,517,538,559,578,599,617,638,658,678,699,719,738,758,777,798,818,838,858,878,897,917,938,959,978,998,1018,1039,1058,1078,1098,1118,1138,1158,1178,1198,1218,1238,1259,1279,1298,1318,1338,1358,1378,1398,1418],"xSR":741.5,"ySR":469.95,"xT1":424.9,"yT1":0,"xT2":1058.1,"yT2":0,"toosoon":0,"cond_shown":"Congruent","ratio_trial":200,"L_num":14,"L_den":28,"R_num":6,"R_den":20,"correct_side":1,"subjID":"thomasrojas24","gender":"0","school":"4","age":"8"},{"start_time":1552054204142,"click_time":1552054205707,"finger_time":1552054205248,"fix_duration":250,"trial":12,"RT":1106,"MT":459,"sideResp":1,"stimulus":[],"xmouse":[819,819,819,819,819,819,819,819,819,819,819,819,819,819,819,819,819,819,819,819,819,819,819,819,819,819,819,819,819,819,819,819,819,819,819,819,819,819,819,819,819,819,819,819,819,819,819,819,819,819,819,819,819,818,814,750,709,678,661,645,608,592,575,560,539,532,527,525,525,525,525,525,525,525,524,518,508,498,485],"ymouse":[559,559,559,559,559,559,559,559,559,559,559,559,559,559,559,559,559,559,559,559,559,559,559,559,559,559,559,559,559,559,559,559,559,559,559,559,559,559,559,559,559,559,559,559,559,559,559,559,559,559,559,559,559,559,552,449,386,338,303,277,230,214,199,181,153,144,137,135,135,135,135,135,135,135,134,127,115,103,88],"timestamp_mouse":[15,43,46,66,87,106,125,146,165,187,206,225,247,266,285,305,325,347,367,387,406,427,447,466,487,506,527,546,566,587,606,626,647,665,686,707,727,747,767,786,806,826,846,866,885,905,927,946,965,985,1005,1025,1046,1067,1085,1106,1126,1146,1166,1186,1205,1226,1246,1266,1288,1306,1332,1345,1365,1387,1405,1426,1446,1465,1486,1506,1526,1546,1565],"xSR":741.5,"ySR":469.95,"xT1":424.9,"yT1":0,"xT2":1058.1,"yT2":0,"toosoon":0,"cond_shown":"Congruent","ratio_trial":200,"L_num":8,"L_den":15,"R_num":3,"R_den":9,"correct_side":1,"subjID":"thomasrojas24","gender":"0","school":"4","age":"8"},{"start_time":1552054208006,"click_time":1552054209529,"finger_time":1552054209047,"fix_duration":1374.159768979555,"trial":13,"RT":1041,"MT":482,"sideResp":1,"stimulus":[],"xmouse":[784,784,784,784,784,784,784,784,784,784,784,784,784,784,784,784,784,784,784,784,784,784,784,784,784,784,784,784,784,784,784,784,784,784,784,784,784,784,784,784,784,784,784,784,784,784,784,784,784,784,784,776,729,693,650,560,500,453,418,415,414,413,412,404,390,381,371,371,371,371,371,371,371,375,392,424,450],"ymouse":[519,519,519,519,519,519,519,519,519,519,519,519,519,519,519,519,519,519,519,519,519,519,519,519,519,519,519,519,519,519,519,519,519,519,519,519,519,519,519,519,519,519,519,519,519,519,519,519,519,519,507,491,413,373,334,246,194,160,134,132,130,126,123,100,67,53,35,35,35,35,35,35,35,35,41,53,61],"timestamp_mouse":[10,22,43,62,83,103,122,142,161,183,203,222,241,261,282,302,321,343,363,381,402,421,443,461,483,503,522,543,562,582,602,622,641,663,681,702,723,742,763,783,802,822,843,861,882,902,922,943,962,982,1002,1023,1041,1061,1082,1102,1122,1142,1161,1183,1202,1222,1242,1262,1282,1303,1321,1342,1361,1381,1401,1421,1443,1463,1482,1503,1523],"xSR":741.5,"ySR":469.95,"xT1":424.9,"yT1":0,"xT2":1058.1,"yT2":0,"toosoon":0,"cond_shown":"Congruent","ratio_trial":200,"L_num":13,"L_den":26,"R_num":14,"R_den":20,"correct_side":2,"subjID":"thomasrojas24","gender":"0","school":"4","age":"8"},{"start_time":1552054211468,"click_time":1552054212428,"finger_time":1552054212308,"fix_duration":1138.4460983123581,"trial":14,"RT":840,"MT":120,"sideResp":1,"stimulus":[],"xmouse":[785,785,785,785,785,785,784,784,784,784,784,784,784,784,784,784,784,784,784,784,784,784,784,784,784,784,784,784,784,784,784,784,784,784,784,784,784,784,784,784,784,784,775,752,674,624,578,542,518],"ymouse":[534,534,534,534,534,534,538,538,538,538,538,538,538,538,538,538,538,538,538,538,538,538,538,538,538,538,530,524,521,521,521,521,521,520,518,516,516,516,516,513,505,477,440,374,221,143,82,35,2],"timestamp_mouse":[10,35,40,61,79,99,120,140,160,181,201,221,240,260,280,300,319,341,361,380,400,420,441,461,480,501,521,540,559,581,601,620,640,661,680,699,719,741,760,781,800,821,840,861,880,900,920,941,960],"xSR":741.5,"ySR":469.95,"xT1":424.9,"yT1":0,"xT2":1058.1,"yT2":0,"toosoon":0,"cond_shown":"Incongruent","ratio_trial":100,"L_num":17,"L_den":30,"R_num":10,"R_den":15,"correct_side":2,"subjID":"thomasrojas24","gender":"0","school":"4","age":"8"},{"start_time":1552054213996,"click_time":1552054214489,"finger_time":1552054214368,"fix_duration":366.1183277438559,"trial":15,"RT":372,"MT":121,"sideResp":2,"stimulus":[],"xmouse":[799,799,799,799,799,799,799,799,799,799,799,799,799,799,799,799,799,807,852,892,925,963,995,1056,1069],"ymouse":[514,514,514,514,514,514,514,514,514,514,514,514,514,514,514,514,514,502,436,370,299,230,160,32,6],"timestamp_mouse":[14,33,53,72,92,111,133,151,172,193,213,231,251,272,293,311,332,351,372,393,412,432,452,471,492],"xSR":741.5,"ySR":469.95,"xT1":424.9,"yT1":0,"xT2":1058.1,"yT2":0,"toosoon":0,"cond_shown":"Incongruent","ratio_trial":200,"L_num":7,"L_den":10,"R_num":8,"R_den":16,"correct_side":1,"subjID":"thomasrojas24","gender":"0","school":"4","age":"8"},{"start_time":1552054215822,"click_time":1552054216287,"finger_time":1552054216209,"fix_duration":250,"trial":16,"RT":387,"MT":78,"sideResp":1,"stimulus":[],"xmouse":[792,792,792,792,792,792,792,792,792,792,792,792,792,792,792,792,792,790,770,738,703,661,536,484],"ymouse":[525,525,525,525,525,525,525,525,525,525,525,525,525,525,525,525,525,510,483,439,387,327,152,93],"timestamp_mouse":[6,31,46,65,85,107,126,146,167,185,207,226,247,266,287,305,326,345,365,387,407,427,446,465],"xSR":741.5,"ySR":469.95,"xT1":424.9,"yT1":0,"xT2":1058.1,"yT2":0,"toosoon":0,"cond_shown":"Incongruent","ratio_trial":200,"L_num":7,"L_den":15,"R_num":4,"R_den":6,"correct_side":2,"subjID":"thomasrojas24","gender":"0","school":"4","age":"8"},{"start_time":1552054217918,"click_time":1552054220448,"finger_time":1552054219648,"fix_duration":727.7887930871304,"trial":17,"RT":1730,"MT":800,"sideResp":1,"stimulus":[],"xmouse":[787,787,787,787,787,787,787,787,787,787,787,787,787,787,787,787,787,787,787,787,787,787,787,787,787,787,787,787,787,787,787,787,787,787,787,787,787,787,787,787,787,787,787,787,787,787,787,787,787,787,787,787,787,787,787,787,787,787,787,787,787,787,787,787,787,787,787,787,787,787,787,787,787,787,787,787,787,787,787,787,787,787,787,802,808,835,851,872,875,877,878,878,878,878,878,878,878,878,878,878,875,864,834,686,653,570,535,484,459,431,399,366,307,294,292,292,292,303,319,334,344,352,373,395,402,421,427],"ymouse":[528,528,528,528,528,528,528,528,528,528,528,528,528,528,528,528,528,528,528,528,528,528,528,528,528,528,528,528,528,528,528,528,528,528,528,528,528,528,528,528,528,528,528,528,528,528,528,528,528,528,528,528,528,528,528,528,528,528,528,528,528,528,528,528,528,528,528,528,528,528,528,528,528,528,528,528,528,528,528,528,528,528,529,517,512,496,484,466,461,458,456,456,455,455,455,455,455,455,455,455,451,445,431,373,361,323,301,251,218,181,144,106,48,35,32,32,32,31,31,31,31,30,29,35,38,48,52],"timestamp_mouse":[17,40,50,71,89,109,131,150,170,190,210,230,249,270,291,311,331,351,371,391,410,430,450,471,489,509,529,550,571,590,610,631,649,669,690,710,730,749,769,790,811,831,851,870,890,910,929,950,970,989,1009,1031,1050,1071,1090,1110,1130,1150,1170,1189,1210,1229,1250,1270,1291,1310,1329,1350,1371,1391,1410,1431,1450,1469,1491,1511,1530,1550,1569,1590,1610,1630,1650,1670,1690,1711,1730,1750,1770,1790,1810,1829,1850,1870,1890,1910,1931,1950,1969,1990,2009,2031,2051,2070,2091,2111,2131,2150,2169,2190,2210,2230,2251,2269,2289,2309,2331,2350,2369,2390,2410,2430,2451,2469,2489,2510,2530],"xSR":741.5,"ySR":469.95,"xT1":424.9,"yT1":0,"xT2":1058.1,"yT2":0,"toosoon":0,"cond_shown":"Congruent","ratio_trial":300,"L_num":20,"L_den":25,"R_num":8,"R_den":16,"correct_side":1,"subjID":"thomasrojas24","gender":"0","school":"4","age":"8"},{"start_time":1552054223927,"click_time":1552054225289,"finger_time":1552054225188,"fix_duration":1017.6074903890922,"trial":18,"RT":1261,"MT":101,"sideResp":1,"stimulus":[],"xmouse":[788,788,788,788,788,788,788,788,788,788,788,788,788,788,788,788,788,788,788,788,788,788,788,788,788,788,788,788,788,788,788,788,788,788,788,788,788,788,788,788,788,788,788,788,788,788,788,788,788,788,788,788,788,788,788,788,788,788,788,788,788,788,785,755,720,668,604,552,507],"ymouse":[523,523,523,523,523,523,523,523,523,523,523,523,523,523,523,523,523,523,523,523,523,523,523,523,523,523,523,523,523,523,523,523,523,523,523,523,523,523,523,523,523,523,523,523,523,523,523,523,523,523,523,523,523,523,523,523,523,523,523,523,523,523,518,448,387,316,226,143,50],"timestamp_mouse":[10,20,40,61,81,100,122,141,161,180,202,221,240,262,281,300,320,341,362,380,401,421,441,462,481,501,521,540,562,581,600,621,641,661,681,701,722,742,760,782,801,821,841,862,882,901,922,941,962,980,1002,1022,1042,1060,1081,1102,1121,1141,1162,1180,1202,1222,1242,1261,1281,1300,1322,1342,1362],"xSR":741.5,"ySR":469.95,"xT1":424.9,"yT1":0,"xT2":1058.1,"yT2":0,"toosoon":0,"cond_shown":"Incongruent","ratio_trial":300,"L_num":3,"L_den":6,"R_num":4,"R_den":20,"correct_side":1,"subjID":"thomasrojas24","gender":"0","school":"4","age":"8"},{"start_time":1552054227014,"click_time":1552054228008,"finger_time":1552054227688,"fix_duration":1025.847917408797,"trial":19,"RT":674,"MT":320,"sideResp":2,"stimulus":[],"xmouse":[780,776,774,774,774,774,774,774,774,774,774,774,774,774,774,774,774,774,774,774,774,774,774,774,774,774,774,774,774,776,789,811,833,871,884,893,913,945,1009,1025,1033,1036,1038,1047,1053,1057,1057,1057,1057,1059],"ymouse":[521,520,519,519,519,519,519,519,519,519,519,519,519,519,519,519,519,519,519,519,519,519,519,519,519,519,519,519,519,519,519,508,492,435,379,306,200,139,63,52,46,44,41,35,34,33,33,33,33,35],"timestamp_mouse":[18,38,55,74,95,114,134,154,175,195,214,233,254,274,295,314,334,355,374,394,414,433,453,474,495,515,535,555,574,593,613,634,654,674,694,715,734,754,774,794,814,833,854,875,894,914,935,955,974,994],"xSR":741.5,"ySR":469.95,"xT1":424.9,"yT1":0,"xT2":1058.1,"yT2":0,"toosoon":0,"cond_shown":"Congruent","ratio_trial":300,"L_num":1,"L_den":5,"R_num":11,"R_den":22,"correct_side":2,"subjID":"thomasrojas24","gender":"0","school":"4","age":"8"},{"start_time":1552054230601,"click_time":1552054232188,"finger_time":1552054231888,"fix_duration":250,"trial":20,"RT":1287,"MT":300,"sideResp":1,"stimulus":[],"xmouse":[777,777,777,777,777,777,777,777,777,777,777,777,777,777,777,777,777,777,777,777,777,777,777,777,777,777,777,777,777,777,777,777,777,777,777,777,777,777,777,777,777,777,777,777,777,777,777,777,777,777,777,777,777,777,777,777,777,777,777,777,777,777,771,759,716,645,593,580,577,576,574,570,563,558,554,549,545,538,517,490],"ymouse":[518,518,518,518,518,518,518,518,518,518,518,518,518,518,518,518,518,518,518,518,518,518,518,518,518,518,518,518,518,518,518,518,518,518,518,518,518,518,518,518,518,518,518,518,518,518,518,518,518,518,518,518,518,518,518,518,518,518,518,518,518,514,498,475,419,350,307,295,288,285,273,258,237,221,205,175,162,144,101,63],"timestamp_mouse":[10,29,47,66,87,106,126,147,167,187,208,226,248,266,288,307,328,346,368,388,407,428,446,467,487,507,528,547,568,588,607,626,647,666,687,707,726,746,767,788,807,828,846,866,888,908,926,948,966,987,1007,1028,1046,1067,1088,1108,1127,1146,1167,1188,1207,1227,1247,1267,1287,1307,1328,1347,1368,1387,1407,1427,1448,1468,1487,1506,1526,1546,1568,1587],"xSR":741.5,"ySR":469.95,"xT1":424.9,"yT1":0,"xT2":1058.1,"yT2":0,"toosoon":0,"cond_shown":"Incongruent","ratio_trial":100,"L_num":4,"L_den":8,"R_num":8,"R_den":20,"correct_side":1,"subjID":"thomasrojas24","gender":"0","school":"4","age":"8"},{"start_time":1552054233100,"click_time":1552054234549,"finger_time":1552054234088,"fix_duration":250,"trial":21,"RT":988,"MT":461,"sideResp":1,"stimulus":[],"xmouse":[791,791,787,786,783,778,778,778,778,778,778,778,778,778,778,778,778,778,778,778,778,778,778,778,778,778,778,778,778,778,778,778,778,778,778,778,778,778,778,778,778,778,778,778,778,778,774,762,748,694,590,552,526,511,504,504,504,504,504,503,500,500,500,500,500,502,503,503,503,503,500,497,491],"ymouse":[496,498,503,504,508,512,512,513,513,513,513,513,513,513,513,513,513,513,513,513,513,513,513,513,513,513,513,513,513,513,513,513,513,513,513,513,513,513,513,513,513,513,513,513,513,513,507,489,471,407,288,240,204,181,169,167,167,167,167,164,149,147,144,142,141,135,129,122,118,111,106,100,92],"timestamp_mouse":[8,37,49,68,88,108,128,149,168,188,207,229,248,268,289,309,327,347,368,388,408,428,449,467,488,509,527,548,568,587,609,628,647,667,688,707,729,748,767,787,809,829,849,869,887,908,928,948,969,988,1009,1027,1048,1069,1087,1107,1127,1147,1168,1188,1208,1229,1249,1268,1289,1307,1328,1347,1368,1387,1408,1428,1449],"xSR":741.5,"ySR":469.95,"xT1":424.9,"yT1":0,"xT2":1058.1,"yT2":0,"toosoon":0,"cond_shown":"Incongruent","ratio_trial":200,"L_num":4,"L_den":5,"R_num":6,"R_den":10,"correct_side":1,"subjID":"thomasrojas24","gender":"0","school":"4","age":"8"},{"start_time":1552054236889,"click_time":1552054238808,"finger_time":1552054238448,"fix_duration":1398.1727707065822,"trial":22,"RT":1559,"MT":360,"sideResp":2,"stimulus":[],"xmouse":[777,777,777,777,777,777,777,777,777,777,777,777,777,777,777,777,777,777,777,778,778,778,778,778,778,778,778,778,778,778,778,778,778,778,778,778,778,778,778,778,778,778,778,778,778,778,778,778,778,778,778,778,778,778,778,778,778,778,778,778,778,778,778,778,778,778,778,778,778,778,778,778,778,778,778,778,778,797,831,910,968,1006,1034,1036,1036,1036,1036,1036,1036,1036,1036,1036,1038,1043,1048,1055,1061],"ymouse":[514,514,514,514,514,514,514,514,514,514,514,514,514,514,514,514,514,514,514,514,514,514,514,514,514,514,514,514,514,514,514,514,514,514,514,514,514,514,514,514,514,514,514,514,514,514,514,514,514,514,514,514,514,514,514,514,514,514,514,514,514,514,514,514,514,514,514,514,514,514,514,514,514,514,514,514,512,485,441,350,286,248,219,213,208,201,184,177,166,156,148,137,104,85,65,47,35],"timestamp_mouse":[1,18,38,58,77,98,118,137,158,178,198,218,238,258,278,298,319,339,359,378,398,419,438,459,478,499,518,539,558,578,599,618,638,659,679,699,718,737,759,779,799,818,839,858,879,899,918,938,958,978,998,1018,1039,1059,1079,1098,1118,1139,1157,1179,1198,1217,1238,1259,1278,1298,1319,1339,1359,1378,1399,1419,1438,1459,1479,1499,1518,1539,1559,1578,1598,1618,1639,1659,1679,1697,1719,1738,1758,1779,1798,1817,1839,1858,1878,1899,1918],"xSR":741.5,"ySR":469.95,"xT1":424.9,"yT1":0,"xT2":1058.1,"yT2":0,"toosoon":0,"cond_shown":"Congruent","ratio_trial":200,"L_num":6,"L_den":20,"R_num":11,"R_den":22,"correct_side":2,"subjID":"thomasrojas24","gender":"0","school":"4","age":"8"},{"start_time":1552054240382,"click_time":1552054241967,"finger_time":1552054241328,"fix_duration":811.7681346826564,"trial":23,"RT":946,"MT":639,"sideResp":1,"stimulus":[],"xmouse":[785,785,785,785,785,785,785,785,785,785,785,785,785,785,785,785,785,785,785,785,785,785,785,785,785,785,785,785,785,785,785,785,785,785,785,785,785,785,785,785,784,783,781,780,778,777,771,740,705,673,653,640,622,616,612,608,605,605,605,606,607,608,608,603,598,589,578,561,557,554,550,548,536,530,526,526,526,526,525,520],"ymouse":[518,518,518,518,518,518,518,518,518,518,518,518,518,518,518,518,518,518,518,518,518,518,518,518,518,518,518,518,518,518,518,518,518,518,518,518,518,518,518,518,517,516,513,512,508,504,495,451,413,385,367,352,306,287,270,256,243,227,209,197,191,189,183,175,165,154,145,133,129,127,124,122,107,101,98,98,98,98,97,89],"timestamp_mouse":[11,25,45,65,85,105,125,145,165,186,205,226,244,266,286,305,326,345,366,385,406,425,446,466,486,505,525,549,565,585,605,625,645,665,685,705,725,744,765,786,805,826,845,865,886,905,926,946,966,985,1005,1027,1045,1066,1085,1105,1126,1145,1166,1185,1205,1226,1244,1266,1285,1305,1326,1346,1365,1386,1404,1426,1445,1465,1486,1505,1526,1546,1565,1585],"xSR":741.5,"ySR":469.95,"xT1":424.9,"yT1":0,"xT2":1058.1,"yT2":0,"toosoon":0,"cond_shown":"Incongruent","ratio_trial":200,"L_num":4,"L_den":6,"R_num":14,"R_den":30,"correct_side":1,"subjID":"thomasrojas24","gender":"0","school":"4","age":"8"},{"start_time":1552054243060,"click_time":1552054245188,"finger_time":1552054244627,"fix_duration":250,"trial":24,"RT":1567,"MT":561,"sideResp":2,"stimulus":[],"xmouse":[783,783,783,783,783,783,783,783,783,783,783,783,783,783,783,783,783,783,783,783,783,783,783,783,783,783,783,783,783,783,783,783,783,783,783,783,783,783,783,783,783,783,783,783,783,783,783,783,783,783,783,783,783,783,783,783,783,783,783,783,783,783,783,783,783,783,783,783,783,783,783,783,783,783,783,783,791,826,933,971,990,1000,1004,1007,1009,1011,1013,1017,1021,1023,1024,1028,1031,1039,1040,1040,1041,1041,1041,1041,1042,1043,1045,1045,1045,1050,1064],"ymouse":[505,505,505,505,505,505,505,505,505,505,505,505,505,505,505,505,505,505,505,505,505,505,505,505,505,505,505,505,505,505,505,505,505,505,505,505,505,505,505,505,505,505,505,505,505,505,505,505,505,505,505,505,505,505,505,505,505,505,505,505,505,505,505,505,505,505,505,505,505,505,505,505,505,505,505,505,505,470,364,317,282,263,256,253,250,247,241,232,220,212,201,186,167,119,84,75,61,61,61,61,58,56,55,54,54,52,49],"timestamp_mouse":[10,35,47,68,86,107,127,147,167,187,207,227,248,267,288,307,328,347,368,386,408,428,447,466,488,508,528,547,567,587,608,627,648,667,687,707,728,748,767,787,808,827,846,867,888,907,927,947,968,988,1008,1028,1048,1067,1088,1108,1127,1148,1168,1187,1207,1228,1248,1267,1288,1308,1329,1348,1367,1388,1407,1427,1447,1468,1487,1507,1527,1547,1567,1588,1607,1626,1647,1668,1686,1707,1727,1747,1768,1788,1807,1827,1847,1868,1887,1908,1928,1948,1966,1988,2007,2028,2048,2067,2088,2108,2128],"xSR":741.5,"ySR":469.95,"xT1":424.9,"yT1":0,"xT2":1058.1,"yT2":0,"toosoon":0,"cond_shown":"Congruent","ratio_trial":100,"L_num":11,"L_den":22,"R_num":6,"R_den":15,"correct_side":1,"subjID":"thomasrojas24","gender":"0","school":"4","age":"8"},{"start_time":1552054248975,"click_time":1552054250768,"finger_time":1552054250247,"fix_duration":1086.886403927875,"trial":25,"RT":1272,"MT":521,"sideResp":1,"stimulus":[],"xmouse":[777,777,777,777,777,777,777,777,777,777,777,777,777,777,777,777,777,777,778,778,778,778,778,778,778,778,778,778,778,778,778,778,778,778,778,778,778,778,778,778,778,778,778,778,778,778,778,778,778,778,778,778,780,787,790,793,795,796,796,796,796,796,794,783,769,748,718,675,638,627,620,613,608,608,608,606,598,561,541,541,541,541,541,541,541,541,541,541,541,449],"ymouse":[506,506,506,506,506,506,506,506,506,506,506,506,506,506,506,506,506,506,500,495,492,489,489,489,489,489,489,489,489,489,489,489,489,489,489,489,489,489,489,489,489,489,489,489,489,489,489,489,489,489,489,488,489,498,502,506,510,511,511,511,511,511,496,459,424,371,301,200,113,97,89,79,72,72,72,68,59,20,5,5,5,5,5,5,5,5,5,5,5,3],"timestamp_mouse":[29,39,52,73,93,112,132,153,172,192,213,232,252,272,293,312,332,352,372,392,413,432,452,473,491,512,533,553,573,592,613,632,652,672,693,711,733,752,772,792,812,832,852,873,892,913,932,952,973,993,1013,1032,1052,1072,1092,1113,1132,1152,1173,1191,1213,1232,1253,1272,1292,1313,1332,1352,1372,1394,1412,1432,1452,1472,1493,1512,1532,1552,1573,1593,1612,1632,1653,1673,1692,1712,1732,1753,1771,1793],"xSR":741.5,"ySR":469.95,"xT1":424.9,"yT1":0,"xT2":1058.1,"yT2":0,"toosoon":0,"cond_shown":"Incongruent","ratio_trial":300,"L_num":7,"L_den":10,"R_num":8,"R_den":20,"correct_side":1,"subjID":"thomasrojas24","gender":"0","school":"4","age":"8"},{"start_time":1552054254005,"click_time":1552054255707,"finger_time":1552054255227,"fix_duration":1095.497470731513,"trial":26,"RT":1222,"MT":480,"sideResp":1,"stimulus":[],"xmouse":[774,774,774,774,774,774,774,774,774,774,774,774,774,774,774,774,774,774,774,774,774,774,774,774,774,774,774,774,774,774,774,774,774,774,774,774,774,774,774,774,774,774,774,774,774,774,774,774,774,774,774,774,774,768,756,751,749,748,748,748,748,741,717,687,627,597,576,562,548,544,540,533,518,511,511,505,502,500,495,491,487,482,480,478,474,462],"ymouse":[507,507,507,507,507,507,507,507,507,507,507,507,507,507,507,507,507,507,507,507,507,507,507,507,507,507,507,507,507,507,507,507,507,507,507,507,507,507,507,507,507,507,507,507,507,507,507,507,507,507,507,507,507,496,481,475,472,471,471,471,471,462,440,418,375,354,337,323,308,302,294,279,258,248,247,238,232,226,215,208,201,187,156,134,114,60],"timestamp_mouse":[6,22,42,62,82,102,123,141,162,182,202,222,243,262,283,302,321,342,361,383,402,423,442,462,483,502,523,541,563,583,603,622,643,663,683,702,723,742,763,783,802,823,842,861,883,903,923,941,962,983,1002,1023,1041,1063,1082,1102,1123,1143,1163,1183,1203,1222,1243,1262,1282,1302,1322,1343,1363,1383,1402,1422,1443,1462,1483,1502,1523,1542,1562,1582,1602,1622,1643,1662,1682,1702],"xSR":741.5,"ySR":469.95,"xT1":424.9,"yT1":0,"xT2":1058.1,"yT2":0,"toosoon":0,"cond_shown":"Congruent","ratio_trial":200,"L_num":11,"L_den":22,"R_num":3,"R_den":10,"correct_side":1,"subjID":"thomasrojas24","gender":"0","school":"4","age":"8"},{"start_time":1552054257555,"click_time":1552054259267,"finger_time":1552054258867,"fix_duration":767.2739390464056,"trial":27,"RT":1312,"MT":400,"sideResp":2,"stimulus":[],"xmouse":[798,798,798,798,798,798,798,798,798,798,798,798,798,798,798,798,798,798,798,798,798,798,798,798,798,798,798,798,798,798,798,798,798,798,798,798,798,798,798,798,798,798,798,798,798,798,798,798,798,798,798,798,798,798,798,798,798,798,798,798,798,798,798,798,801,875,938,1004,1056,1086,1099,1099,1101,1105,1107,1117,1118,1118,1118,1118,1118,1117,1116,1115,1115,1112],"ymouse":[532,532,532,532,532,532,532,532,532,532,532,532,532,532,532,532,532,532,532,532,532,532,532,532,532,532,532,532,532,532,532,532,532,532,532,532,532,532,532,532,532,532,532,532,532,532,532,532,532,532,532,532,532,532,532,532,532,532,532,532,532,532,532,532,529,473,428,376,330,291,244,228,213,197,182,142,133,129,128,127,122,117,112,107,103,84],"timestamp_mouse":[15,37,52,73,91,112,133,153,178,193,212,232,252,272,293,313,332,353,372,391,413,432,453,471,492,513,533,552,573,592,612,632,653,672,692,713,733,751,771,792,813,832,853,872,893,912,933,952,973,992,1012,1032,1052,1073,1093,1112,1131,1152,1172,1192,1213,1232,1253,1272,1292,1312,1332,1352,1373,1392,1412,1433,1453,1473,1493,1512,1533,1552,1572,1592,1612,1632,1653,1672,1693,1711],"xSR":741.5,"ySR":469.95,"xT1":424.9,"yT1":0,"xT2":1058.1,"yT2":0,"toosoon":0,"cond_shown":"Incongruent","ratio_trial":100,"L_num":8,"L_den":20,"R_num":1,"R_den":2,"correct_side":2,"subjID":"thomasrojas24","gender":"0","school":"4","age":"8"},{"start_time":1552054261094,"click_time":1552054262908,"finger_time":1552054262587,"fix_duration":765.4058448808576,"trial":28,"RT":1493,"MT":321,"sideResp":2,"stimulus":[],"xmouse":[819,819,819,819,819,819,819,819,819,819,819,819,819,819,819,819,819,819,819,819,819,819,819,819,819,819,819,819,819,819,819,819,819,819,819,819,819,819,819,819,819,819,819,819,819,819,819,819,819,819,819,819,819,819,819,819,819,819,819,819,819,819,819,819,819,819,819,819,819,819,819,819,819,824,840,869,888,902,922,931,942,957,982,1019,1030,1038,1040,1044,1047,1054,1065],"ymouse":[504,504,504,504,504,504,504,504,504,504,504,504,504,504,504,504,504,504,504,504,504,504,504,504,504,504,504,504,504,504,504,504,504,504,504,504,504,504,504,504,504,504,504,504,504,504,504,504,504,504,504,504,504,504,504,504,504,504,504,504,504,504,504,504,504,504,504,504,504,504,504,504,504,491,456,394,363,342,304,285,264,242,207,154,135,118,108,99,92,82,70],"timestamp_mouse":[14,35,53,73,94,114,134,153,174,194,212,234,254,273,294,314,334,353,373,394,414,434,454,473,494,514,533,554,573,594,613,633,653,674,694,713,734,754,774,794,812,834,854,873,894,913,934,953,973,993,1013,1033,1053,1073,1094,1113,1134,1154,1173,1192,1212,1233,1253,1273,1294,1313,1334,1354,1374,1394,1414,1434,1454,1473,1493,1514,1534,1552,1573,1593,1613,1634,1653,1674,1692,1713,1733,1753,1773,1793,1813],"xSR":741.5,"ySR":469.95,"xT1":424.9,"yT1":0,"xT2":1058.1,"yT2":0,"toosoon":0,"cond_shown":"Incongruent","ratio_trial":100,"L_num":12,"L_den":30,"R_num":2,"R_den":4,"correct_side":2,"subjID":"thomasrojas24","gender":"0","school":"4","age":"8"},{"start_time":1552054263860,"click_time":1552054265667,"finger_time":1552054265568,"fix_duration":250,"trial":29,"RT":1708,"MT":99,"sideResp":2,"stimulus":[],"xmouse":[787,787,787,787,787,787,787,787,787,787,787,787,787,787,787,787,787,787,787,787,787,787,787,787,787,787,787,787,787,787,787,787,787,787,787,787,787,787,787,787,787,787,787,787,787,787,787,787,787,787,787,787,787,787,787,787,787,787,787,787,787,787,787,787,787,787,787,787,787,787,787,787,787,787,787,787,787,787,787,787,787,787,787,802,814,852,978,1021,1060,1093,1116],"ymouse":[527,527,527,527,527,527,527,527,527,527,527,527,527,527,527,527,527,527,527,527,527,527,527,527,527,527,527,527,527,527,527,527,527,527,527,527,527,527,527,527,527,527,527,527,527,527,527,527,527,527,527,527,527,527,527,527,527,527,527,527,527,527,527,527,527,527,527,527,527,527,527,527,527,527,527,527,527,527,527,527,527,527,527,508,494,444,283,220,166,117,72],"timestamp_mouse":[7,41,48,68,87,107,128,147,168,188,207,228,246,267,288,307,328,346,368,387,407,426,447,467,487,508,528,547,568,587,607,627,648,667,686,708,728,748,768,786,807,827,847,867,888,907,927,947,968,986,1008,1028,1047,1068,1088,1107,1128,1146,1168,1187,1207,1226,1247,1268,1288,1307,1328,1348,1368,1386,1406,1428,1448,1468,1487,1506,1527,1548,1568,1588,1607,1628,1647,1667,1687,1708,1727,1747,1767,1787,1806],"xSR":741.5,"ySR":469.95,"xT1":424.9,"yT1":0,"xT2":1058.1,"yT2":0,"toosoon":0,"cond_shown":"Congruent","ratio_trial":200,"L_num":3,"L_den":12,"R_num":9,"R_den":20,"correct_side":2,"subjID":"thomasrojas24","gender":"0","school":"4","age":"8"},{"start_time":1552054268133,"click_time":1552054269488,"finger_time":1552054268987,"fix_duration":1284.4851284224774,"trial":30,"RT":854,"MT":501,"sideResp":2,"stimulus":[],"xmouse":[774,774,774,774,774,774,774,774,774,774,774,774,774,774,774,774,774,774,774,774,774,774,774,774,774,774,774,774,774,774,774,774,774,774,774,774,774,774,774,774,784,802,843,858,865,871,875,906,948,1018,1098,1170,1252,1253,1253,1253,1253,1253,1253,1253,1253,1253,1253,1253,1253,1253,1180,1155],"ymouse":[521,521,521,521,521,521,521,521,521,521,521,521,521,521,521,521,521,521,521,521,521,521,521,521,521,521,521,521,521,521,521,521,521,521,521,521,521,521,521,521,513,500,472,462,455,449,445,422,394,344,282,210,70,48,32,20,1,1,1,1,1,1,1,1,1,1,0,25],"timestamp_mouse":[15,39,54,74,94,114,134,154,174,195,214,234,255,275,294,313,335,354,373,394,415,435,454,474,495,514,535,555,575,594,614,634,655,675,693,715,735,755,774,795,814,835,854,875,894,914,935,954,974,995,1015,1034,1054,1075,1094,1115,1135,1155,1175,1195,1215,1235,1254,1275,1294,1315,1333,1354],"xSR":741.5,"ySR":469.95,"xT1":424.9,"yT1":0,"xT2":1058.1,"yT2":0,"toosoon":0,"cond_shown":"Incongruent","ratio_trial":200,"L_num":11,"L_den":20,"R_num":3,"R_den":4,"correct_side":2,"subjID":"thomasrojas24","gender":"0","school":"4","age":"8"},{"start_time":1552054271644,"click_time":1552054273708,"finger_time":1552054272407,"fix_duration":913.8810728719681,"trial":31,"RT":763,"MT":1301,"sideResp":1,"stimulus":[],"xmouse":[774,774,774,774,774,774,774,774,774,774,774,774,774,774,774,774,774,774,774,774,774,774,774,774,774,774,774,774,774,774,774,774,774,774,774,774,774,774,774,774,774,771,766,757,748,739,727,700,686,674,663,653,650,650,650,650,650,650,650,650,650,650,645,633,625,620,617,616,616,616,616,616,616,616,616,615,608,595,593,593,593,593,593,593,590,585,580,574,562,551,541,532,529,512,501,491,481,472,469,469,468,463,459,458],"ymouse":[535,535,535,535,535,535,535,535,535,535,535,535,535,535,535,535,535,535,535,535,535,535,535,535,535,535,535,535,535,535,535,535,535,535,535,536,527,496,406,368,334,307,272,242,218,194,165,103,73,48,27,9,5,5,5,5,5,5,5,5,5,5,31,53,68,77,81,82,82,82,82,82,82,82,82,82,85,94,95,95,95,95,95,95,96,96,97,97,100,103,106,108,110,115,119,122,126,129,129,129,129,121,107,85],"timestamp_mouse":[12,23,43,63,84,103,124,143,164,183,203,224,243,263,284,304,323,343,363,384,404,423,443,463,482,504,522,544,564,584,604,623,643,662,684,703,724,743,763,783,803,823,844,864,884,903,923,944,963,983,1004,1024,1043,1064,1084,1104,1122,1144,1163,1183,1203,1224,1243,1263,1284,1304,1322,1344,1364,1383,1403,1423,1444,1463,1483,1503,1522,1544,1563,1583,1603,1623,1644,1663,1683,1703,1723,1744,1764,1784,1803,1823,1844,1863,1884,1904,1924,1944,1964,1983,2003,2023,2043,2064],"xSR":741.5,"ySR":469.95,"xT1":424.9,"yT1":0,"xT2":1058.1,"yT2":0,"toosoon":0,"cond_shown":"Incongruent","ratio_trial":300,"L_num":3,"L_den":6,"R_num":4,"R_den":20,"correct_side":1,"subjID":"thomasrojas24","gender":"0","school":"4","age":"8"},{"start_time":1552054275823,"click_time":1552054277827,"finger_time":1552054277487,"fix_duration":733.7957457535896,"trial":32,"RT":1664,"MT":340,"sideResp":2,"stimulus":[],"xmouse":[817,817,817,817,817,817,817,817,817,817,817,817,817,817,817,817,817,817,817,819,819,819,819,819,819,819,819,819,819,819,819,819,819,819,819,819,819,819,819,818,815,814,811,810,808,807,807,807,807,807,807,807,807,807,807,804,803,801,800,798,796,795,795,795,795,794,792,790,790,790,790,790,790,793,806,812,815,815,815,815,820,827,840,859,942,994,1047,1100,1137,1176,1179,1179,1179,1180,1180,1180,1180,1180,1180,1165,1153],"ymouse":[528,528,528,528,528,528,528,528,528,528,528,528,528,528,528,528,528,528,531,543,550,556,559,560,560,560,560,560,560,560,560,560,560,560,560,560,560,560,560,560,556,554,550,549,544,542,542,542,542,542,542,542,542,542,541,537,536,535,534,530,529,528,527,527,527,527,526,524,524,524,524,524,524,523,521,520,519,519,519,514,506,496,478,451,337,280,216,161,130,93,88,88,87,86,83,83,83,83,83,82,82],"timestamp_mouse":[4,37,44,64,84,104,124,145,165,185,204,223,245,265,284,305,325,345,365,384,404,425,444,465,485,505,524,545,564,584,604,623,645,664,685,704,725,745,764,785,803,824,845,864,884,905,925,945,964,983,1005,1025,1044,1064,1084,1105,1125,1145,1164,1183,1204,1224,1245,1265,1284,1305,1325,1345,1365,1383,1404,1425,1445,1464,1484,1505,1524,1544,1565,1584,1604,1624,1645,1664,1684,1704,1724,1745,1765,1784,1804,1824,1844,1864,1884,1904,1924,1944,1965,1984,2004],"xSR":741.5,"ySR":469.95,"xT1":424.9,"yT1":0,"xT2":1058.1,"yT2":0,"toosoon":0,"cond_shown":"Congruent","ratio_trial":200,"L_num":3,"L_den":12,"R_num":9,"R_den":20,"correct_side":2,"subjID":"thomasrojas24","gender":"0","school":"4","age":"8"},{"start_time":1552054279249,"click_time":1552054280868,"finger_time":1552054280767,"fix_duration":620.1611564551561,"trial":33,"RT":1518,"MT":101,"sideResp":2,"stimulus":[],"xmouse":[788,788,788,788,788,788,788,788,788,788,788,788,788,788,788,788,788,788,788,788,788,788,788,788,788,788,788,788,788,788,788,788,788,788,788,788,788,788,788,788,788,788,788,788,788,788,788,788,788,788,788,788,788,788,788,788,788,788,788,788,788,788,788,788,788,788,788,788,788,788,788,788,788,799,832,891,966,1070,1102,1130,1146],"ymouse":[518,518,518,518,518,518,518,518,518,518,518,518,518,518,518,518,518,518,518,518,518,518,518,518,518,518,518,518,518,518,518,518,518,518,518,518,518,518,518,518,518,518,518,518,518,518,518,518,518,518,518,518,518,518,518,518,518,518,518,518,518,518,518,518,518,518,518,518,518,518,518,518,518,501,471,421,362,256,205,129,90],"timestamp_mouse":[18,42,58,79,98,118,138,159,179,199,219,238,258,279,299,317,339,358,379,398,417,439,458,479,499,518,539,559,579,599,618,639,658,679,698,719,738,757,779,799,819,839,858,877,899,919,939,958,979,999,1018,1038,1059,1079,1099,1119,1138,1158,1179,1199,1218,1238,1257,1279,1298,1318,1337,1358,1378,1398,1419,1439,1459,1479,1498,1518,1538,1559,1577,1598,1619],"xSR":741.5,"ySR":469.95,"xT1":424.9,"yT1":0,"xT2":1058.1,"yT2":0,"toosoon":0,"cond_shown":"Incongruent","ratio_trial":100,"L_num":12,"L_den":24,"R_num":9,"R_den":15,"correct_side":2,"subjID":"thomasrojas24","gender":"0","school":"4","age":"8"},{"start_time":1552054286679,"click_time":1552054288866,"finger_time":1552054288188,"fix_duration":1469.764036066223,"trial":34,"RT":1509,"MT":678,"sideResp":2,"stimulus":[],"xmouse":[788,788,788,788,788,788,788,788,788,788,788,788,788,788,788,788,788,788,788,788,788,788,788,788,788,788,788,788,788,788,788,788,788,788,788,788,788,788,788,788,788,788,788,788,788,788,788,788,788,788,788,788,788,788,788,788,788,788,788,788,788,788,788,788,788,788,788,788,788,788,788,788,788,795,809,837,865,915,933,950,965,971,977,978,979,979,979,986,997,1011,1024,1038,1053,1057,1058,1058,1058,1058,1058,1058,1058,1058,1058,1058,1058,1058,1058,1058,1058,1061],"ymouse":[520,520,520,520,520,520,520,520,520,520,520,520,520,520,520,520,520,520,520,520,520,520,520,520,520,520,520,520,520,520,520,520,520,520,520,520,520,520,520,520,520,520,520,520,520,520,520,520,520,520,520,520,520,520,520,520,520,520,520,520,520,520,520,520,520,520,520,520,520,520,520,520,520,507,489,452,417,348,318,287,259,237,203,195,195,195,194,176,157,137,121,104,84,80,78,78,78,78,78,78,78,78,78,78,78,78,78,78,78,75],"timestamp_mouse":[14,29,47,68,89,108,128,147,168,188,208,229,247,269,289,307,329,349,368,388,409,428,449,469,488,509,527,549,569,588,608,629,647,669,689,709,729,749,768,788,808,828,848,869,888,909,929,948,969,988,1008,1029,1048,1069,1089,1108,1128,1148,1168,1188,1208,1228,1247,1268,1289,1308,1327,1348,1368,1388,1407,1429,1449,1469,1488,1509,1529,1549,1568,1588,1609,1628,1649,1668,1688,1709,1729,1748,1768,1788,1809,1828,1849,1868,1888,1908,1929,1948,1968,1989,2009,2029,2049,2069,2088,2109,2128,2148,2168,2187],"xSR":741.5,"ySR":469.95,"xT1":424.9,"yT1":0,"xT2":1058.1,"yT2":0,"toosoon":0,"cond_shown":"Congruent","ratio_trial":100,"L_num":3,"L_den":20,"R_num":4,"R_den":16,"correct_side":2,"subjID":"thomasrojas24","gender":"0","school":"4","age":"8"},{"start_time":1552054290516,"click_time":1552054292007,"finger_time":1552054291347,"fix_duration":627.6603740116152,"trial":35,"RT":831,"MT":660,"sideResp":1,"stimulus":[],"xmouse":[770,770,770,770,770,770,770,770,770,770,770,770,770,770,770,770,770,770,770,770,770,770,770,770,770,770,770,770,770,770,770,770,767,765,765,765,765,765,765,765,765,734,686,639,612,598,571,555,539,526,519,506,504,503,503,503,503,502,502,502,501,500,500,500,499,498,497,496,496,496,496,497,499,501,505],"ymouse":[523,523,523,523,523,523,523,523,523,523,523,523,523,523,523,523,523,523,523,523,523,523,523,523,523,523,523,523,523,523,523,523,523,521,521,521,521,521,521,516,508,428,357,303,281,269,243,227,213,201,195,182,179,178,178,178,178,175,171,168,165,163,162,159,157,155,153,148,145,140,137,132,127,114,99],"timestamp_mouse":[13,41,52,71,91,111,130,152,171,191,211,232,251,272,291,311,332,350,370,392,411,431,452,472,491,511,532,552,572,591,611,632,652,670,692,712,731,750,772,791,812,831,852,871,891,912,931,952,971,992,1010,1031,1051,1071,1091,1111,1131,1151,1171,1192,1211,1232,1251,1271,1291,1312,1331,1351,1371,1392,1411,1432,1451,1471,1491],"xSR":741.5,"ySR":469.95,"xT1":424.9,"yT1":0,"xT2":1058.1,"yT2":0,"toosoon":0,"cond_shown":"Incongruent","ratio_trial":200,"L_num":7,"L_den":10,"R_num":8,"R_den":16,"correct_side":1,"subjID":"thomasrojas24","gender":"0","school":"4","age":"8"},{"start_time":1552054294203,"click_time":1552054295847,"finger_time":1552054295146,"fix_duration":894.8387569552335,"trial":36,"RT":943,"MT":701,"sideResp":1,"stimulus":[],"xmouse":[780,780,780,780,780,780,780,780,780,780,780,780,780,780,780,780,780,780,780,780,780,780,780,780,780,780,780,780,780,780,780,780,780,780,780,780,780,780,780,780,780,780,780,780,780,778,775,766,760,753,740,712,655,636,619,604,574,554,554,552,551,551,551,551,551,551,551,551,551,548,547,542,533,524,508,505,503,503,503,502,498,495,493],"ymouse":[509,509,509,509,509,509,509,509,509,509,509,509,509,509,509,509,509,509,509,509,509,509,509,509,509,509,509,509,509,509,509,509,509,509,509,509,509,509,509,509,509,509,509,509,509,504,487,453,435,412,383,335,239,207,187,169,148,138,138,137,136,136,136,136,136,136,136,136,136,133,132,131,131,133,141,142,142,142,142,140,128,117,83],"timestamp_mouse":[12,25,45,64,85,104,124,145,164,185,204,225,245,265,284,303,325,344,365,384,405,424,445,464,485,504,525,544,564,585,605,625,644,663,684,705,724,744,765,784,804,825,845,863,885,905,925,943,964,984,1004,1025,1045,1064,1084,1105,1125,1145,1165,1184,1205,1224,1244,1263,1284,1305,1325,1345,1364,1384,1405,1424,1444,1464,1484,1505,1525,1545,1564,1585,1604,1623,1644],"xSR":741.5,"ySR":469.95,"xT1":424.9,"yT1":0,"xT2":1058.1,"yT2":0,"toosoon":0,"cond_shown":"Incongruent","ratio_trial":100,"L_num":12,"L_den":24,"R_num":9,"R_den":15,"correct_side":2,"subjID":"thomasrojas24","gender":"0","school":"4","age":"8"},{"start_time":1552054297610,"click_time":1552054299066,"finger_time":1552054298866,"fix_duration":720.7531095318682,"trial":37,"RT":1256,"MT":200,"sideResp":2,"stimulus":[],"xmouse":[796,796,796,796,796,796,796,796,796,796,796,796,796,796,796,796,796,796,796,796,796,796,796,796,796,796,796,796,796,796,796,796,796,796,796,796,796,796,796,796,796,796,796,796,796,796,796,796,796,796,796,796,796,796,796,796,796,796,796,796,800,812,846,873,893,915,942,987,1007,1026,1048,1063,1061],"ymouse":[496,496,496,496,496,496,496,496,496,496,496,496,496,496,496,496,496,496,496,496,496,496,496,496,496,496,496,496,496,496,496,496,496,496,496,496,496,496,496,496,496,496,496,496,496,496,496,496,496,496,496,496,496,496,496,496,496,496,496,496,496,496,488,473,458,440,417,363,331,281,220,150,5],"timestamp_mouse":[16,46,56,77,96,116,137,157,176,196,218,237,256,277,296,316,336,356,378,397,417,436,456,477,496,516,537,557,577,597,618,636,656,677,696,716,737,756,777,797,816,837,857,877,898,917,936,957,976,996,1016,1036,1056,1076,1096,1117,1136,1157,1178,1196,1216,1237,1256,1276,1296,1317,1336,1357,1377,1397,1417,1436,1456],"xSR":741.5,"ySR":469.95,"xT1":424.9,"yT1":0,"xT2":1058.1,"yT2":0,"toosoon":0,"cond_shown":"Congruent","ratio_trial":200,"L_num":4,"L_den":8,"R_num":3,"R_den":10,"correct_side":1,"subjID":"thomasrojas24","gender":"0","school":"4","age":"8"},{"start_time":1552054302573,"click_time":1552054304366,"finger_time":1552054304066,"fix_duration":766.1786745071879,"trial":38,"RT":1493,"MT":300,"sideResp":2,"stimulus":[],"xmouse":[782,782,782,782,782,782,782,782,782,782,782,782,782,782,782,782,782,782,782,782,782,782,782,782,782,782,782,782,782,782,782,782,782,782,782,782,782,782,782,782,782,782,782,782,782,782,782,782,782,782,782,782,782,782,782,782,782,782,782,782,782,782,782,782,782,782,782,782,782,782,782,782,782,788,837,866,894,935,976,1016,1026,1028,1028,1028,1028,1037,1044,1051,1056,1064],"ymouse":[508,508,508,508,508,508,508,508,508,508,508,508,508,508,508,508,508,508,508,508,508,508,508,508,508,508,508,508,508,508,508,508,508,508,508,508,508,508,508,508,508,508,508,508,508,508,508,508,508,508,508,508,508,508,508,508,508,508,508,508,508,508,508,508,508,508,508,508,508,508,508,508,508,505,461,424,381,306,235,165,149,144,144,144,144,123,111,99,91,80],"timestamp_mouse":[15,40,53,73,93,113,134,153,173,194,213,235,254,273,294,313,334,354,373,394,413,434,454,474,495,513,533,553,573,595,613,633,653,673,693,714,734,754,773,793,814,833,854,873,893,913,933,953,974,993,1013,1035,1054,1074,1094,1114,1133,1153,1173,1193,1213,1233,1253,1273,1293,1313,1333,1353,1373,1393,1413,1433,1453,1473,1493,1514,1534,1553,1573,1594,1614,1633,1653,1674,1693,1713,1733,1753,1773,1793],"xSR":741.5,"ySR":469.95,"xT1":424.9,"yT1":0,"xT2":1058.1,"yT2":0,"toosoon":0,"cond_shown":"Congruent","ratio_trial":100,"L_num":6,"L_den":20,"R_num":5,"R_den":25,"correct_side":1,"subjID":"thomasrojas24","gender":"0","school":"4","age":"8"},{"start_time":1552054307826,"click_time":1552054309606,"finger_time":1552054309266,"fix_duration":858.0160942538254,"trial":39,"RT":1440,"MT":340,"sideResp":1,"stimulus":[],"xmouse":[784,784,784,784,784,784,784,784,784,784,784,784,784,784,784,784,784,784,784,784,784,784,784,784,784,784,784,784,784,784,784,784,784,784,784,784,784,784,784,784,784,784,784,784,784,784,784,784,784,784,784,784,784,784,784,784,784,784,784,784,784,784,784,784,784,784,784,784,784,784,783,778,770,727,683,638,620,620,620,620,620,620,620,620,620,620,620,620,620,510],"ymouse":[498,498,498,498,498,498,498,498,498,498,498,498,498,498,498,498,498,498,498,498,498,498,498,498,498,498,498,498,498,498,498,498,498,498,498,498,498,498,498,498,498,498,498,498,498,498,498,498,498,498,498,498,498,498,498,498,498,498,498,498,498,498,498,498,498,498,498,498,498,498,495,474,448,324,222,91,27,27,27,27,27,27,27,27,27,27,27,27,27,84],"timestamp_mouse":[12,21,40,61,81,101,121,140,161,181,200,221,242,260,281,301,321,342,362,386,401,421,441,462,481,500,521,540,560,580,600,621,641,661,681,701,721,740,761,780,801,821,840,861,881,901,921,940,961,980,1000,1021,1041,1061,1080,1101,1120,1140,1161,1180,1200,1220,1240,1260,1280,1300,1320,1340,1360,1380,1401,1421,1440,1461,1481,1501,1521,1541,1561,1581,1601,1621,1641,1660,1680,1701,1722,1742,1760,1780],"xSR":741.5,"ySR":469.95,"xT1":424.9,"yT1":0,"xT2":1058.1,"yT2":0,"toosoon":0,"cond_shown":"Incongruent","ratio_trial":100,"L_num":10,"L_den":25,"R_num":9,"R_den":18,"correct_side":2,"subjID":"thomasrojas24","gender":"0","school":"4","age":"8"},{"start_time":1552054311447,"click_time":1552054312286,"finger_time":1552054311786,"fix_duration":797.8713086313658,"trial":40,"RT":339,"MT":500,"sideResp":2,"stimulus":[],"xmouse":[807,807,807,807,807,807,807,807,807,807,807,807,807,807,807,807,809,841,872,908,944,981,1045,1059,1069,1071,1072,1073,1073,1073,1072,1066,1055,1048,1045,1042,1042,1042,1042,1044,1053,1064,1079],"ymouse":[489,489,489,489,489,489,489,489,489,489,489,489,489,489,489,489,487,464,438,404,367,325,241,216,196,186,181,171,167,162,158,149,134,125,121,117,115,114,112,110,106,102,96],"timestamp_mouse":[1,20,39,60,80,100,119,140,159,179,199,219,240,261,279,299,320,339,360,379,399,419,439,460,480,500,521,539,559,579,599,620,640,660,680,700,720,739,760,779,800,819,839],"xSR":741.5,"ySR":469.95,"xT1":424.9,"yT1":0,"xT2":1058.1,"yT2":0,"toosoon":0,"cond_shown":"Incongruent","ratio_trial":100,"L_num":10,"L_den":25,"R_num":8,"R_den":16,"correct_side":2,"subjID":"thomasrojas24","gender":"0","school":"4","age":"8"},{"start_time":1552054315539,"click_time":1552054316988,"finger_time":1552054316427,"fix_duration":550.4675868919884,"trial":41,"RT":888,"MT":561,"sideResp":1,"stimulus":[],"xmouse":[786,786,786,786,786,786,786,786,786,786,786,786,786,786,786,786,786,786,786,786,786,786,786,786,786,786,786,786,786,786,786,786,786,786,786,786,786,786,786,786,786,786,786,786,776,755,735,724,719,710,701,692,687,687,687,687,687,684,601,525,449,400,376,375,375,373,373,372,372,376,405,442,490],"ymouse":[508,508,508,508,508,508,508,508,508,508,508,508,508,508,508,508,508,508,508,508,508,508,508,508,508,508,508,508,508,508,508,508,508,508,508,508,508,508,508,508,508,508,508,485,412,338,292,267,256,238,225,215,210,210,210,210,210,210,192,170,149,133,126,125,125,123,120,120,120,118,113,105,87],"timestamp_mouse":[29,30,47,67,88,108,127,147,167,187,209,227,247,267,289,307,328,347,367,388,408,427,447,468,487,507,528,548,568,588,609,628,648,668,689,708,728,747,768,789,808,828,847,868,888,908,927,948,967,988,1008,1028,1048,1068,1087,1108,1128,1147,1167,1187,1207,1228,1248,1267,1288,1307,1327,1348,1368,1387,1408,1428,1449],"xSR":741.5,"ySR":469.95,"xT1":424.9,"yT1":0,"xT2":1058.1,"yT2":0,"toosoon":0,"cond_shown":"Congruent","ratio_trial":300,"L_num":9,"L_den":10,"R_num":3,"R_den":5,"correct_side":1,"subjID":"thomasrojas24","gender":"0","school":"4","age":"8"},{"start_time":1552054318339,"click_time":1552054319707,"finger_time":1552054319546,"fix_duration":250,"trial":42,"RT":1207,"MT":161,"sideResp":1,"stimulus":[],"xmouse":[783,783,783,783,783,783,783,783,783,783,783,783,783,783,783,783,783,783,783,783,783,783,783,783,783,783,783,783,783,783,783,783,783,783,783,783,783,783,783,783,783,783,783,783,783,783,783,783,783,783,783,783,783,783,783,783,783,783,777,768,755,734,707,645,614,588,558,530,462],"ymouse":[507,507,507,507,507,507,507,507,507,507,507,507,507,507,507,507,507,507,507,507,507,507,507,507,507,507,507,507,507,507,507,507,507,507,507,507,507,507,507,507,507,507,507,507,507,507,507,507,507,507,507,507,507,507,507,507,507,507,494,474,451,422,383,282,233,194,157,129,82],"timestamp_mouse":[12,36,49,68,87,108,127,148,167,187,207,228,248,268,287,307,327,347,367,388,408,427,447,467,487,507,528,548,568,587,608,627,648,668,688,709,727,749,767,788,807,827,847,868,887,908,929,947,968,988,1007,1027,1047,1068,1088,1107,1127,1147,1167,1187,1207,1228,1248,1267,1287,1308,1328,1347,1368],"xSR":741.5,"ySR":469.95,"xT1":424.9,"yT1":0,"xT2":1058.1,"yT2":0,"toosoon":0,"cond_shown":"Incongruent","ratio_trial":200,"L_num":7,"L_den":10,"R_num":8,"R_den":16,"correct_side":1,"subjID":"thomasrojas24","gender":"0","school":"4","age":"8"},{"start_time":1552054321673,"click_time":1552054323207,"finger_time":1552054322647,"fix_duration":1125.5751674887276,"trial":43,"RT":974,"MT":560,"sideResp":1,"stimulus":[],"xmouse":[764,764,764,764,764,764,764,764,764,764,764,764,764,764,764,764,764,764,764,764,764,764,764,764,764,764,764,764,764,764,764,764,764,764,764,764,764,764,764,764,764,764,764,764,763,760,752,746,734,725,714,696,689,685,683,682,677,667,642,630,586,520,491,463,441,432,431,431,431,431,431,441,450,457,462,464,464],"ymouse":[523,523,523,523,523,523,523,523,523,523,523,523,523,523,523,523,523,523,523,523,523,523,523,523,523,523,523,523,523,523,523,523,523,523,523,523,523,523,523,523,523,523,523,523,520,514,495,485,468,455,440,414,405,399,396,396,389,377,348,331,279,219,195,175,159,152,147,143,140,139,139,136,131,126,120,112,81],"timestamp_mouse":[13,39,54,73,93,114,134,153,174,194,214,234,254,274,295,313,333,354,373,394,414,433,454,474,495,514,534,553,574,594,614,633,653,674,695,715,733,753,773,793,814,833,853,874,894,914,933,953,974,994,1014,1034,1053,1073,1093,1113,1134,1153,1174,1193,1214,1233,1254,1273,1293,1313,1334,1353,1373,1393,1413,1434,1453,1473,1494,1514,1534],"xSR":741.5,"ySR":469.95,"xT1":424.9,"yT1":0,"xT2":1058.1,"yT2":0,"toosoon":0,"cond_shown":"Incongruent","ratio_trial":300,"L_num":8,"L_den":10,"R_num":14,"R_den":28,"correct_side":1,"subjID":"thomasrojas24","gender":"0","school":"4","age":"8"},{"start_time":1552054324248,"click_time":1552054326187,"finger_time":1552054325626,"fix_duration":339.21181443895074,"trial":44,"RT":1378,"MT":561,"sideResp":1,"stimulus":[],"xmouse":[807,807,807,807,807,807,807,807,807,807,807,807,807,807,807,807,807,807,807,807,807,807,807,807,804,802,798,794,793,793,793,793,793,793,793,793,793,793,793,793,793,793,793,793,793,793,793,793,793,793,793,793,793,793,793,793,793,793,793,793,793,793,793,793,793,793,791,786,752,723,705,686,661,616,600,587,570,534,515,492,484,482,482,482,481,479,479,478,480,481,482,482,482,480,479,479,479],"ymouse":[552,552,552,552,552,552,552,552,552,552,552,552,552,552,552,552,552,552,552,552,552,552,552,552,547,541,532,522,520,520,520,520,520,520,520,520,520,520,520,520,520,520,520,520,520,520,520,520,520,520,520,520,520,520,520,520,520,520,520,520,520,520,520,520,520,520,513,504,437,387,358,330,301,260,247,238,227,209,201,194,192,190,190,189,185,180,174,168,146,137,130,124,121,112,108,103,99],"timestamp_mouse":[19,39,59,79,99,118,139,158,178,198,218,238,258,279,298,318,340,358,378,398,419,438,458,479,498,518,539,558,579,599,618,639,659,679,699,719,739,758,779,799,819,840,859,879,898,920,938,959,979,999,1019,1039,1059,1078,1098,1119,1139,1158,1178,1199,1218,1238,1259,1279,1299,1318,1338,1358,1378,1398,1418,1439,1459,1479,1499,1519,1538,1560,1578,1600,1618,1638,1659,1679,1698,1720,1740,1758,1778,1798,1819,1838,1858,1879,1898,1919,1939],"xSR":741.5,"ySR":469.95,"xT1":424.9,"yT1":0,"xT2":1058.1,"yT2":0,"toosoon":0,"cond_shown":"Incongruent","ratio_trial":300,"L_num":2,"L_den":4,"R_num":6,"R_den":30,"correct_side":1,"subjID":"thomasrojas24","gender":"0","school":"4","age":"8"},{"start_time":1552054327960,"click_time":1552054329846,"finger_time":1552054328868,"fix_duration":812.1724338599795,"trial":45,"RT":908,"MT":978,"sideResp":1,"stimulus":[],"xmouse":[790,790,790,790,790,790,790,790,790,790,790,790,790,790,790,790,790,790,790,790,790,790,790,790,790,790,790,790,790,790,790,790,790,790,790,790,790,790,790,790,790,790,790,790,790,790,784,775,734,699,666,639,620,620,620,620,619,618,613,613,613,612,610,609,608,608,608,608,608,604,598,590,586,579,576,571,563,556,530,505,471,427,405,375,369,367,367,366,366,366,367,373,383,416,437],"ymouse":[539,539,539,539,539,539,539,539,539,539,539,539,539,539,539,539,539,539,539,539,539,539,539,539,539,539,539,539,539,539,539,539,539,539,539,539,539,539,539,539,539,539,539,518,485,452,417,388,317,270,234,204,183,183,183,183,182,178,158,156,150,140,133,123,120,119,119,119,119,120,124,127,127,129,131,135,143,152,160,160,156,155,164,174,174,174,174,175,175,175,174,167,155,117,89],"timestamp_mouse":[13,37,47,67,86,107,126,146,167,186,206,226,247,267,286,306,326,346,366,387,406,428,447,466,486,507,526,547,566,587,607,627,646,667,686,707,727,746,767,787,808,827,847,866,887,908,927,947,966,988,1007,1026,1047,1066,1086,1106,1126,1146,1166,1186,1207,1226,1247,1266,1286,1307,1327,1347,1366,1386,1406,1427,1447,1466,1486,1507,1527,1546,1566,1586,1608,1628,1647,1668,1687,1707,1726,1747,1766,1787,1807,1826,1847,1867,1886],"xSR":741.5,"ySR":469.95,"xT1":424.9,"yT1":0,"xT2":1058.1,"yT2":0,"toosoon":0,"cond_shown":"Congruent","ratio_trial":300,"L_num":12,"L_den":24,"R_num":2,"R_den":10,"correct_side":1,"subjID":"thomasrojas24","gender":"0","school":"4","age":"8"},{"start_time":1552054334378,"click_time":1552054335748,"finger_time":1552054335467,"fix_duration":1448.6428635977388,"trial":46,"RT":1089,"MT":281,"sideResp":2,"stimulus":[],"xmouse":[785,785,785,785,785,785,785,785,785,785,785,785,785,785,785,785,785,785,785,785,785,785,785,785,785,785,785,785,785,785,785,785,785,785,785,785,785,785,785,785,785,785,785,785,785,785,785,785,785,785,785,785,785,810,855,915,975,1065,1089,1095,1099,1106,1113,1130,1132,1131,1123,1117,1110],"ymouse":[520,520,520,520,520,520,520,520,520,520,520,520,520,520,520,520,520,520,520,520,520,520,520,520,520,520,520,520,520,520,520,520,520,520,520,520,520,520,520,520,520,520,520,520,520,520,520,520,520,520,520,520,520,505,471,431,388,335,321,315,311,300,287,248,224,193,169,147,91],"timestamp_mouse":[13,35,49,68,88,108,128,149,169,189,209,229,249,269,289,310,329,349,368,388,408,429,449,469,489,508,529,549,568,589,608,629,649,669,689,708,728,748,769,788,809,828,848,869,890,909,929,949,969,988,1008,1029,1049,1069,1089,1109,1129,1150,1168,1190,1209,1229,1248,1268,1289,1308,1329,1349,1370],"xSR":741.5,"ySR":469.95,"xT1":424.9,"yT1":0,"xT2":1058.1,"yT2":0,"toosoon":0,"cond_shown":"Incongruent","ratio_trial":300,"L_num":4,"L_den":20,"R_num":2,"R_den":4,"correct_side":2,"subjID":"thomasrojas24","gender":"0","school":"4","age":"8"},{"start_time":1552054337134,"click_time":1552054339127,"finger_time":1552054338746,"fix_duration":447.77670506639424,"trial":47,"RT":1612,"MT":381,"sideResp":2,"stimulus":[],"xmouse":[759,759,759,759,759,759,759,759,759,759,759,759,759,759,759,759,759,759,759,759,759,759,759,759,759,759,759,759,759,759,759,759,759,759,759,759,759,759,759,759,759,759,759,759,759,759,759,759,759,759,759,759,759,759,759,759,759,759,759,759,759,759,759,759,759,759,759,759,759,759,759,759,759,759,759,759,762,765,780,789,888,927,949,956,959,962,962,967,976,993,1013,1027,1048,1066,1082,1095,1099,1107,1109,1117],"ymouse":[540,540,540,540,540,540,540,540,540,540,540,540,540,540,540,540,540,540,540,540,540,540,540,540,540,540,540,540,540,540,540,540,540,540,540,540,540,540,540,540,540,540,540,540,540,540,540,540,540,540,540,540,540,540,540,540,540,540,540,540,540,540,540,540,540,540,540,540,540,540,540,540,540,540,540,540,537,535,529,526,470,440,416,398,382,348,323,292,260,216,180,169,159,149,141,130,126,114,110,91],"timestamp_mouse":[14,42,52,72,93,113,133,153,173,192,212,233,252,272,292,312,333,354,373,393,412,432,453,473,493,512,533,552,572,593,613,632,653,673,692,712,733,753,772,792,813,832,852,873,892,913,932,953,972,992,1013,1033,1052,1072,1092,1112,1132,1153,1172,1193,1213,1232,1253,1272,1293,1314,1333,1352,1373,1392,1412,1432,1453,1473,1493,1512,1533,1552,1572,1593,1612,1632,1652,1672,1692,1712,1732,1752,1772,1793,1812,1833,1852,1873,1892,1912,1933,1953,1972,1993],"xSR":741.5,"ySR":469.95,"xT1":424.9,"yT1":0,"xT2":1058.1,"yT2":0,"toosoon":0,"cond_shown":"Congruent","ratio_trial":300,"L_num":1,"L_den":20,"R_num":7,"R_den":20,"correct_side":2,"subjID":"thomasrojas24","gender":"0","school":"4","age":"8"},{"start_time":1552054340174,"click_time":1552054341747,"finger_time":1552054341286,"fix_duration":406.76718827001446,"trial":48,"RT":1112,"MT":461,"sideResp":2,"stimulus":[],"xmouse":[782,782,782,782,782,782,782,782,782,782,782,782,782,782,782,782,782,782,782,782,782,782,782,782,782,782,782,782,782,782,782,782,782,782,782,782,782,782,782,782,782,782,782,782,782,786,788,788,788,788,788,788,788,789,803,820,879,925,987,999,1007,1012,1016,1026,1032,1038,1047,1052,1055,1058,1058,1058,1056,1054,1054,1054,1054,1054,1068],"ymouse":[517,517,517,517,517,517,517,517,517,517,517,517,517,517,517,517,517,517,517,517,517,517,517,517,517,517,517,517,517,517,517,517,517,517,517,517,517,517,517,517,517,517,517,513,508,498,495,493,493,493,493,493,493,492,470,451,397,358,294,275,258,244,231,200,184,166,135,118,102,85,78,70,59,48,46,46,46,46,43],"timestamp_mouse":[14,32,52,72,93,113,133,154,172,193,213,234,253,272,292,312,332,353,372,392,412,433,453,472,493,513,534,553,572,592,613,633,654,673,693,712,732,752,773,792,813,832,853,872,893,913,932,953,974,993,1014,1032,1053,1072,1092,1112,1132,1152,1174,1192,1212,1233,1252,1272,1292,1312,1332,1352,1372,1392,1412,1432,1453,1473,1494,1512,1533,1552,1573],"xSR":741.5,"ySR":469.95,"xT1":424.9,"yT1":0,"xT2":1058.1,"yT2":0,"toosoon":0,"cond_shown":"Congruent","ratio_trial":300,"L_num":3,"L_den":6,"R_num":4,"R_den":5,"correct_side":2,"subjID":"thomasrojas24","gender":"0","school":"4","age":"8"},{"start_time":1552054344738,"click_time":1552054346547,"finger_time":1552054346266,"fix_duration":491.3999984018862,"trial":49,"RT":1528,"MT":281,"sideResp":2,"stimulus":[],"xmouse":[800,800,800,800,800,800,800,800,800,800,800,800,800,800,800,800,800,800,800,800,800,800,800,800,800,800,800,800,800,800,800,800,800,800,800,800,800,800,800,800,793,786,782,780,780,780,780,780,780,780,780,780,780,780,780,780,780,780,780,780,780,780,780,780,780,780,780,780,780,780,780,780,780,780,780,780,782,790,797,807,830,843,856,871,880,912,940,983,1041,1100],"ymouse":[513,513,513,513,513,513,513,513,513,513,513,513,513,513,513,513,513,513,513,513,513,513,513,513,513,513,513,513,513,513,513,513,513,513,513,513,513,513,513,513,506,502,500,499,499,499,499,499,499,499,499,499,499,499,499,499,499,499,499,499,499,499,499,499,499,499,499,499,499,499,499,499,499,499,481,459,433,407,384,364,325,306,293,267,250,200,164,117,75,52],"timestamp_mouse":[13,49,69,89,109,128,149,168,188,208,228,248,268,289,310,329,348,369,388,408,429,449,468,488,508,529,549,568,589,608,628,648,670,689,709,730,749,769,788,809,829,849,869,889,909,929,949,968,989,1008,1029,1048,1069,1090,1108,1128,1148,1168,1188,1208,1228,1248,1268,1288,1308,1330,1348,1368,1388,1408,1429,1448,1468,1489,1510,1528,1548,1569,1589,1609,1629,1648,1669,1689,1709,1728,1749,1768,1788,1808],"xSR":741.5,"ySR":469.95,"xT1":424.9,"yT1":0,"xT2":1058.1,"yT2":0,"toosoon":0,"cond_shown":"Congruent","ratio_trial":300,"L_num":1,"L_den":5,"R_num":11,"R_den":22,"correct_side":2,"subjID":"thomasrojas24","gender":"0","school":"4","age":"8"},{"start_time":1552054348088,"click_time":1552054349967,"finger_time":1552054349646,"fix_duration":660.8959083102168,"trial":50,"RT":1558,"MT":321,"sideResp":2,"stimulus":[],"xmouse":[793,793,793,793,793,793,793,793,793,793,793,793,793,793,793,793,793,793,793,793,793,793,793,793,793,793,793,793,793,793,793,793,793,793,793,793,793,793,793,793,793,793,793,793,793,793,793,793,793,793,793,793,793,793,793,793,793,793,793,793,793,793,793,793,793,793,793,793,793,793,793,793,793,793,794,800,813,825,865,875,881,881,880,873,872,872,878,889,909,919,938,970,1029,1140],"ymouse":[503,503,503,503,503,503,503,503,503,503,503,503,503,503,503,503,503,503,503,503,503,503,503,503,503,503,503,503,503,503,503,503,503,503,503,503,503,503,503,503,503,503,503,503,503,503,503,503,503,503,503,503,503,503,503,503,503,503,503,503,503,503,503,503,503,503,503,503,503,503,503,503,503,503,503,495,480,464,406,380,357,333,312,285,273,245,222,200,173,165,154,139,114,66],"timestamp_mouse":[19,39,58,78,98,118,138,158,178,198,218,239,258,279,298,319,339,358,379,399,419,439,459,479,499,519,538,559,579,599,618,639,659,678,698,719,739,759,780,799,819,840,859,879,898,918,939,960,979,999,1018,1038,1059,1079,1099,1118,1138,1159,1179,1200,1219,1239,1258,1280,1298,1319,1339,1358,1378,1398,1418,1439,1459,1480,1498,1519,1539,1558,1578,1598,1618,1638,1658,1678,1698,1718,1738,1759,1778,1799,1818,1839,1858,1879],"xSR":741.5,"ySR":469.95,"xT1":424.9,"yT1":0,"xT2":1058.1,"yT2":0,"toosoon":0,"cond_shown":"Congruent","ratio_trial":100,"L_num":1,"L_den":2,"R_num":3,"R_den":5,"correct_side":2,"subjID":"thomasrojas24","gender":"0","school":"4","age":"8"},{"start_time":1552054351272,"click_time":1552054352986,"finger_time":1552054352767,"fix_duration":682.1766510722396,"trial":51,"RT":1495,"MT":219,"sideResp":1,"stimulus":[],"xmouse":[760,760,760,760,760,760,760,760,760,760,760,760,760,760,760,760,760,760,760,760,760,760,760,760,760,760,760,760,760,760,760,760,760,760,760,760,760,760,760,760,760,760,760,760,760,760,760,760,760,760,760,760,760,760,760,760,760,760,760,760,760,760,760,760,760,760,760,760,760,760,760,760,760,758,732,697,638,603,584,574,565,558,547,531,505,492],"ymouse":[539,539,539,539,539,539,539,539,539,539,539,539,539,539,539,539,539,539,539,539,539,539,539,539,539,539,539,539,539,539,539,539,539,539,539,539,539,539,539,539,539,539,539,539,539,539,539,539,539,539,539,539,539,539,539,539,539,539,539,539,539,539,539,539,539,539,539,539,539,539,539,539,5