[{"start_time":1552054780294,"click_time":1552054781699,"finger_time":1552054781218,"fix_duration":250,"trial":0,"RT":924,"MT":481,"sideResp":1,"stimulus":"img/900/equaldotsize/L/10_Ratio_900_L_20_R_18.png","xmouse":[790,790,790,790,790,790,790,790,790,790,790,790,790,790,790,790,790,790,790,790,790,790,790,790,790,790,790,790,790,790,790,790,790,790,790,790,790,790,790,790,790,790,794,803,832,888,894,895,895,893,876,867,857,843,806,734,699,677,659,644,615,600,585,570,570,570,570,570,529,520],"ymouse":[524,524,524,524,524,524,524,524,524,524,524,524,524,524,524,524,524,524,524,524,524,524,524,524,524,524,524,524,524,524,524,524,524,524,524,524,524,524,524,524,524,524,524,522,518,494,488,484,480,471,444,432,419,401,355,254,202,160,120,89,43,26,13,2,2,2,2,2,1,8],"timestamp_mouse":[11,47,64,85,105,124,144,165,184,205,223,244,265,284,304,324,344,365,384,404,424,445,465,484,505,524,543,564,584,604,624,645,664,685,703,723,744,765,784,805,825,844,864,884,905,924,945,964,985,1005,1024,1044,1064,1084,1104,1124,1144,1165,1185,1204,1224,1244,1265,1284,1305,1324,1344,1364,1384,1404],"xSR":741.5,"ySR":501.8,"xT1":424.9,"yT1":0,"xT2":1058.1,"yT2":0,"toosoon":0,"cond_shown":"equaldotsize","ratio_trial":900,"smaller_num":"18","larger_num":"20","correct_side":1,"subjID":"thomasrojas24","gender":"0","age":"8","school":"4","test":{"fix_dur":[250,1500],"timestim":300,"targets_dim":[100,100],"targets_relative_coord":[0.3,0.7],"size_stim":[880,420],"start_dim":[100,100],"size_start":[300,300],"size_fix":60,"samplingrate":20,"img_types":["equaldotsize","equaldotanddens","randomdotsizeEA"],"ratios":[250,500,750,900],"rep_conds":9,"nTrials":120,"trials_to_rest":500,"Trials_order":[81,0,74,34,73,83,46,109,52,86,24,111,112,99,64,88,28,38,8,91,56,102,105,118,115,25,87,35,1,113,66,79,57,17,21,90,89,18,76,70,62,23,33,30,5,68,11,10,61,26,49,117,69,100,106,119,40,101,96,75,14,51,27,67,97,9,44,43,59,63,12,71,19,2,80,55,107,110,116,58,94,3,39,95,7,37,31,15,32,60,47,78,54,36,85,50,20,29,84,48,72,4,114,13,22,103,42,104,65,6,77,93,92,82,16,45,98,53,41,108],"cond_shown":["equaldotsize","equaldotsize","randomdotsizeEA","equaldotanddens","equaldotanddens","randomdotsizeEA","equaldotanddens","equaldotanddens","equaldotanddens","randomdotsizeEA","equaldotsize","equaldotsize","equaldotanddens","equaldotsize","equaldotanddens","equaldotanddens","equaldotanddens","randomdotsizeEA","randomdotsizeEA","equaldotanddens","randomdotsizeEA","equaldotsize","equaldotsize","equaldotanddens","equaldotanddens","equaldotanddens","equaldotsize","randomdotsizeEA","equaldotanddens","randomdotsizeEA","equaldotsize","equaldotanddens","equaldotsize","randomdotsizeEA","equaldotsize","equaldotsize","randomdotsizeEA","equaldotsize","equaldotanddens","equaldotanddens","randomdotsizeEA","randomdotsizeEA","equaldotsize","equaldotsize","randomdotsizeEA","randomdotsizeEA","randomdotsizeEA","equaldotanddens","equaldotanddens","randomdotsizeEA","equaldotanddens","equaldotsize","equaldotsize","equaldotanddens","equaldotanddens","randomdotsizeEA","equaldotanddens","randomdotsizeEA","equaldotsize","equaldotsize","randomdotsizeEA","equaldotsize","equaldotsize","equaldotanddens","equaldotanddens","equaldotsize","randomdotsizeEA","equaldotanddens","randomdotsizeEA","equaldotsize","equaldotsize","randomdotsizeEA","equaldotanddens","randomdotsizeEA","randomdotsizeEA","equaldotanddens","randomdotsizeEA","randomdotsizeEA","randomdotsizeEA","equaldotanddens","equaldotanddens","equaldotsize","equaldotsize","randomdotsizeEA","equaldotanddens","equaldotanddens","equaldotanddens","equaldotsize","randomdotsizeEA","equaldotsize","randomdotsizeEA","equaldotsize","equaldotsize","equaldotsize","equaldotanddens","randomdotsizeEA","randomdotsizeEA","randomdotsizeEA","equaldotsize","equaldotsize","equaldotsize","equaldotanddens","equaldotsize","equaldotanddens","equaldotanddens","equaldotanddens","equaldotsize","randomdotsizeEA","randomdotsizeEA","equaldotsize","randomdotsizeEA","equaldotsize","randomdotsizeEA","equaldotanddens","equaldotanddens","equaldotsize","randomdotsizeEA","randomdotsizeEA","randomdotsizeEA","equaldotsize"],"ratio_trial":[900,250,250,900,250,900,900,250,500,250,250,500,500,500,500,500,500,250,750,750,750,750,900,900,750,250,500,900,250,500,750,750,900,500,900,750,500,750,500,900,250,900,900,750,500,750,900,900,250,250,250,900,900,500,900,900,500,500,250,500,250,500,500,750,250,900,750,750,900,500,250,900,750,250,750,750,900,250,750,900,900,500,500,900,750,250,750,500,750,250,900,750,750,250,250,250,750,500,250,250,250,500,750,250,900,750,750,750,500,750,500,900,750,900,500,900,250,500,500,250],"smaller_num":["18","3","3","9","3","18","18","4","1","3","2","9","4","10","1","5","3","3","6","15","3","3","9","9","6","1","9","18","5","5","3","15","18","5","18","6","9","6","4","9","4","18","9","6","6","3","18","9","5","3","4","18","18","5","18","9","1","2","2","9","2","9","2","3","2","18","3","15","9","9","2","18","15","2","3","6","18","2","12","18","18","1","2","9","15","2","15","2","3","6","9","6","18","2","2","5","6","2","5","3","3","4","15","6","18","12","6","18","5","12","1","18","12","9","6","18","2","4","9","3"],"larger_num":["20","12","12","10","12","20","20","16","2","12","8","18","8","20","2","10","6","12","8","20","4","4","10","10","8","4","18","20","20","10","4","20","20","10","20","8","18","8","8","10","16","20","10","8","12","4","20","10","20","12","16","20","20","10","20","10","2","4","8","18","8","18","4","4","8","20","4","20","10","18","8","20","20","8","4","8","20","8","16","20","20","2","4","10","20","8","20","4","4","24","10","8","24","8","8","20","8","4","20","12","12","8","20","24","20","16","8","24","10","16","2","20","16","10","12","20","8","8","18","12"],"correct_side":[1,2,1,2,2,1,1,1,2,1,1,1,1,2,2,2,2,1,1,2,2,1,2,2,1,2,2,1,2,2,1,1,1,2,2,1,2,1,1,2,1,1,2,2,1,1,1,2,2,2,2,2,1,2,1,2,2,1,2,2,1,1,2,1,2,1,1,2,2,2,1,1,1,1,1,1,1,1,2,2,1,2,2,1,2,1,1,1,2,1,1,1,1,1,1,2,2,2,2,2,2,1,2,1,1,2,1,1,1,2,2,1,2,2,1,2,1,1,2,1],"img_shown":["img/900/equaldotsize/L/10_Ratio_900_L_20_R_18.png","img/250/equaldotsize/R/9_Ratio_250_L_3_R_12.png","img/250/randomdotsizeEA/L/15_Ratio_250_L_12_R_3.png","img/900/equaldotanddens/R/3_Ratio_900_L_9_R_10.png","img/250/equaldotanddens/R/4_Ratio_250_L_3_R_12.png","img/900/randomdotsizeEA/L/4_Ratio_900_L_20_R_18.png","img/900/equaldotanddens/L/10_Ratio_900_L_20_R_18.png","img/250/equaldotanddens/L/2_Ratio_250_L_16_R_4.png","img/500/equaldotanddens/R/12_Ratio_500_L_1_R_2.png","img/250/randomdotsizeEA/L/14_Ratio_250_L_12_R_3.png","img/250/equaldotsize/L/1_Ratio_250_L_8_R_2.png","img/500/equaldotsize/L/4_Ratio_500_L_18_R_9.png","img/500/equaldotanddens/L/8_Ratio_500_L_8_R_4.png","img/500/equaldotsize/R/3_Ratio_500_L_10_R_20.png","img/500/equaldotanddens/R/12_Ratio_500_L_1_R_2.png","img/500/equaldotanddens/R/14_Ratio_500_L_5_R_10.png","img/500/equaldotanddens/R/2_Ratio_500_L_3_R_6.png","img/250/randomdotsizeEA/L/15_Ratio_250_L_12_R_3.png","img/750/randomdotsizeEA/L/14_Ratio_750_L_8_R_6.png","img/750/equaldotanddens/R/4_Ratio_750_L_15_R_20.png","img/750/randomdotsizeEA/R/7_Ratio_750_L_3_R_4.png","img/750/equaldotsize/L/10_Ratio_750_L_4_R_3.png","img/900/equaldotsize/R/7_Ratio_900_L_9_R_10.png","img/900/equaldotanddens/R/3_Ratio_900_L_9_R_10.png","img/750/equaldotanddens/L/13_Ratio_750_L_8_R_6.png","img/250/equaldotanddens/R/8_Ratio_250_L_1_R_4.png","img/500/equaldotsize/R/6_Ratio_500_L_9_R_18.png","img/900/randomdotsizeEA/L/4_Ratio_900_L_20_R_18.png","img/250/equaldotanddens/R/12_Ratio_250_L_5_R_20.png","img/500/randomdotsizeEA/R/14_Ratio_500_L_5_R_10.png","img/750/equaldotsize/L/10_Ratio_750_L_4_R_3.png","img/750/equaldotanddens/L/1_Ratio_750_L_20_R_15.png","img/900/equaldotsize/L/2_Ratio_900_L_20_R_18.png","img/500/randomdotsizeEA/R/14_Ratio_500_L_5_R_10.png","img/900/equaldotsize/R/12_Ratio_900_L_18_R_20.png","img/750/equaldotsize/L/14_Ratio_750_L_8_R_6.png","img/500/randomdotsizeEA/R/1_Ratio_500_L_9_R_18.png","img/750/equaldotsize/L/14_Ratio_750_L_8_R_6.png","img/500/equaldotanddens/L/8_Ratio_500_L_8_R_4.png","img/900/equaldotanddens/R/5_Ratio_900_L_9_R_10.png","img/250/randomdotsizeEA/L/2_Ratio_250_L_16_R_4.png","img/900/randomdotsizeEA/L/10_Ratio_900_L_20_R_18.png","img/900/equaldotsize/R/5_Ratio_900_L_9_R_10.png","img/750/equaldotsize/R/2_Ratio_750_L_6_R_8.png","img/500/randomdotsizeEA/L/13_Ratio_500_L_12_R_6.png","img/750/randomdotsizeEA/L/9_Ratio_750_L_4_R_3.png","img/900/randomdotsizeEA/L/10_Ratio_900_L_20_R_18.png","img/900/equaldotanddens/R/15_Ratio_900_L_9_R_10.png","img/250/equaldotanddens/R/12_Ratio_250_L_5_R_20.png","img/250/randomdotsizeEA/R/11_Ratio_250_L_3_R_12.png","img/250/equaldotanddens/R/10_Ratio_250_L_4_R_16.png","img/900/equaldotsize/R/12_Ratio_900_L_18_R_20.png","img/900/equaldotsize/L/10_Ratio_900_L_20_R_18.png","img/500/equaldotanddens/R/14_Ratio_500_L_5_R_10.png","img/900/equaldotanddens/L/2_Ratio_900_L_20_R_18.png","img/900/randomdotsizeEA/R/5_Ratio_900_L_9_R_10.png","img/500/equaldotanddens/R/15_Ratio_500_L_1_R_2.png","img/500/randomdotsizeEA/L/10_Ratio_500_L_4_R_2.png","img/250/equaldotsize/R/13_Ratio_250_L_2_R_8.png","img/500/equaldotsize/R/1_Ratio_500_L_9_R_18.png","img/250/randomdotsizeEA/L/7_Ratio_250_L_8_R_2.png","img/500/equaldotsize/L/4_Ratio_500_L_18_R_9.png","img/500/equaldotsize/R/9_Ratio_500_L_2_R_4.png","img/750/equaldotanddens/L/8_Ratio_750_L_4_R_3.png","img/250/equaldotanddens/R/13_Ratio_250_L_2_R_8.png","img/900/equaldotsize/L/2_Ratio_900_L_20_R_18.png","img/750/randomdotsizeEA/L/9_Ratio_750_L_4_R_3.png","img/750/equaldotanddens/R/3_Ratio_750_L_15_R_20.png","img/900/randomdotsizeEA/R/6_Ratio_900_L_9_R_10.png","img/500/equaldotsize/R/6_Ratio_500_L_9_R_18.png","img/250/equaldotsize/L/7_Ratio_250_L_8_R_2.png","img/900/randomdotsizeEA/L/10_Ratio_900_L_20_R_18.png","img/750/equaldotanddens/L/1_Ratio_750_L_20_R_15.png","img/250/randomdotsizeEA/L/7_Ratio_250_L_8_R_2.png","img/750/randomdotsizeEA/L/8_Ratio_750_L_4_R_3.png","img/750/equaldotanddens/L/14_Ratio_750_L_8_R_6.png","img/900/randomdotsizeEA/L/4_Ratio_900_L_20_R_18.png","img/250/randomdotsizeEA/L/1_Ratio_250_L_8_R_2.png","img/750/randomdotsizeEA/R/11_Ratio_750_L_12_R_16.png","img/900/equaldotanddens/R/13_Ratio_900_L_18_R_20.png","img/900/equaldotanddens/L/10_Ratio_900_L_20_R_18.png","img/500/equaldotsize/R/12_Ratio_500_L_1_R_2.png","img/500/equaldotsize/R/9_Ratio_500_L_2_R_4.png","img/900/randomdotsizeEA/L/1_Ratio_900_L_10_R_9.png","img/750/equaldotanddens/R/5_Ratio_750_L_15_R_20.png","img/250/equaldotanddens/L/7_Ratio_250_L_8_R_2.png","img/750/equaldotanddens/L/1_Ratio_750_L_20_R_15.png","img/500/equaldotsize/L/10_Ratio_500_L_4_R_2.png","img/750/randomdotsizeEA/R/7_Ratio_750_L_3_R_4.png","img/250/equaldotsize/L/5_Ratio_250_L_24_R_6.png","img/900/randomdotsizeEA/L/1_Ratio_900_L_10_R_9.png","img/750/equaldotsize/L/14_Ratio_750_L_8_R_6.png","img/750/equaldotsize/L/6_Ratio_750_L_24_R_18.png","img/250/equaldotsize/L/7_Ratio_250_L_8_R_2.png","img/250/equaldotanddens/L/7_Ratio_250_L_8_R_2.png","img/250/randomdotsizeEA/R/12_Ratio_250_L_5_R_20.png","img/750/randomdotsizeEA/R/2_Ratio_750_L_6_R_8.png","img/500/randomdotsizeEA/R/9_Ratio_500_L_2_R_4.png","img/250/equaldotsize/R/12_Ratio_250_L_5_R_20.png","img/250/equaldotsize/R/4_Ratio_250_L_3_R_12.png","img/250/equaldotsize/R/4_Ratio_250_L_3_R_12.png","img/500/equaldotanddens/L/8_Ratio_500_L_8_R_4.png","img/750/equaldotsize/R/4_Ratio_750_L_15_R_20.png","img/250/equaldotanddens/L/5_Ratio_250_L_24_R_6.png","img/900/equaldotanddens/L/10_Ratio_900_L_20_R_18.png","img/750/equaldotanddens/R/11_Ratio_750_L_12_R_16.png","img/750/equaldotsize/L/13_Ratio_750_L_8_R_6.png","img/750/randomdotsizeEA/L/6_Ratio_750_L_24_R_18.png","img/500/randomdotsizeEA/L/7_Ratio_500_L_10_R_5.png","img/750/equaldotsize/R/11_Ratio_750_L_12_R_16.png","img/500/randomdotsizeEA/R/15_Ratio_500_L_1_R_2.png","img/900/equaldotsize/L/2_Ratio_900_L_20_R_18.png","img/750/randomdotsizeEA/R/11_Ratio_750_L_12_R_16.png","img/900/equaldotanddens/R/7_Ratio_900_L_9_R_10.png","img/500/equaldotanddens/L/11_Ratio_500_L_12_R_6.png","img/900/equaldotsize/R/12_Ratio_900_L_18_R_20.png","img/250/randomdotsizeEA/L/3_Ratio_250_L_8_R_2.png","img/500/randomdotsizeEA/L/8_Ratio_500_L_8_R_4.png","img/500/randomdotsizeEA/R/1_Ratio_500_L_9_R_18.png","img/250/equaldotsize/L/14_Ratio_250_L_12_R_3.png"],"Rat0":[["12_Ratio_0_L_9_R_0.png","13_Ratio_0_L_6_R_0.png","5_Ratio_0_L_2_R_0.png","6_Ratio_0_L_4_R_0.png","8_Ratio_0_L_6_R_0.png"],["1_Ratio_0_L_0_R_17.png","10_Ratio_0_L_0_R_22.png","11_Ratio_0_L_0_R_1.png","14_Ratio_0_L_0_R_24.png","15_Ratio_0_L_0_R_4.png","2_Ratio_0_L_0_R_5.png","3_Ratio_0_L_0_R_17.png","4_Ratio_0_L_0_R_7.png","7_Ratio_0_L_0_R_19.png","9_Ratio_0_L_0_R_15.png"]],"Rat250":[["1_Ratio_250_L_8_R_2.png","14_Ratio_250_L_12_R_3.png","15_Ratio_250_L_12_R_3.png","2_Ratio_250_L_16_R_4.png","3_Ratio_250_L_8_R_2.png","5_Ratio_250_L_24_R_6.png","7_Ratio_250_L_8_R_2.png"],["10_Ratio_250_L_4_R_16.png","11_Ratio_250_L_3_R_12.png","12_Ratio_250_L_5_R_20.png","13_Ratio_250_L_2_R_8.png","4_Ratio_250_L_3_R_12.png","6_Ratio_250_L_6_R_24.png","8_Ratio_250_L_1_R_4.png","9_Ratio_250_L_3_R_12.png"]],"Rat500":[["10_Ratio_500_L_4_R_2.png","11_Ratio_500_L_12_R_6.png","13_Ratio_500_L_12_R_6.png","4_Ratio_500_L_18_R_9.png","5_Ratio_500_L_4_R_2.png","7_Ratio_500_L_10_R_5.png","8_Ratio_500_L_8_R_4.png"],["1_Ratio_500_L_9_R_18.png","12_Ratio_500_L_1_R_2.png","14_Ratio_500_L_5_R_10.png","15_Ratio_500_L_1_R_2.png","2_Ratio_500_L_3_R_6.png","3_Ratio_500_L_10_R_20.png","6_Ratio_500_L_9_R_18.png","9_Ratio_500_L_2_R_4.png"]],"Rat750":[["1_Ratio_750_L_20_R_15.png","10_Ratio_750_L_4_R_3.png","13_Ratio_750_L_8_R_6.png","14_Ratio_750_L_8_R_6.png","6_Ratio_750_L_24_R_18.png","8_Ratio_750_L_4_R_3.png","9_Ratio_750_L_4_R_3.png"],["11_Ratio_750_L_12_R_16.png","12_Ratio_750_L_3_R_4.png","15_Ratio_750_L_9_R_12.png","2_Ratio_750_L_6_R_8.png","3_Ratio_750_L_15_R_20.png","4_Ratio_750_L_15_R_20.png","5_Ratio_750_L_15_R_20.png","7_Ratio_750_L_3_R_4.png"]],"Rat900":[["1_Ratio_900_L_10_R_9.png","10_Ratio_900_L_20_R_18.png","2_Ratio_900_L_20_R_18.png","4_Ratio_900_L_20_R_18.png","8_Ratio_900_L_20_R_18.png"],["11_Ratio_900_L_18_R_20.png","12_Ratio_900_L_18_R_20.png","13_Ratio_900_L_18_R_20.png","14_Ratio_900_L_18_R_20.png","15_Ratio_900_L_9_R_10.png","3_Ratio_900_L_9_R_10.png","5_Ratio_900_L_9_R_10.png","6_Ratio_900_L_9_R_10.png","7_Ratio_900_L_9_R_10.png","9_Ratio_900_L_18_R_20.png"]],"Rat1000":[["10_Ratio_1000_L_16_R_16.png","11_Ratio_1000_L_6_R_6.png","12_Ratio_1000_L_14_R_14.png","13_Ratio_1000_L_20_R_20.png","15_Ratio_1000_L_15_R_15.png","2_Ratio_1000_L_17_R_17.png","4_Ratio_1000_L_9_R_9.png","5_Ratio_1000_L_6_R_6.png","6_Ratio_1000_L_19_R_19.png","8_Ratio_1000_L_14_R_14.png","9_Ratio_1000_L_25_R_25.png"],["1_Ratio_1000_L_1_R_1.png","14_Ratio_1000_L_17_R_17.png","3_Ratio_1000_L_17_R_17.png","7_Ratio_1000_L_6_R_6.png"]]}},{"start_time":1552054783759,"click_time":1552054785019,"finger_time":1552054784658,"fix_duration":639.2432537169567,"trial":1,"RT":899,"MT":361,"sideResp":2,"stimulus":"img/250/equaldotsize/R/9_Ratio_250_L_3_R_12.png","xmouse":[796,796,796,796,796,796,796,796,796,796,796,796,796,796,796,796,796,796,796,796,796,796,796,796,796,796,796,796,796,796,796,796,796,796,796,796,796,796,796,796,796,796,796,797,811,855,935,1041,1248,1306,1330,1341,1346,1349,1353,1353,1353,1353,1353,1351,1346,1297,1224,1133],"ymouse":[528,528,528,528,528,528,528,528,528,528,528,528,528,528,528,528,528,528,528,528,528,528,528,528,528,528,528,528,528,528,528,528,528,528,528,528,528,528,528,528,528,528,528,526,519,496,455,398,269,215,175,127,99,81,72,70,68,65,61,51,50,56,76,84],"timestamp_mouse":[2,20,39,59,79,100,119,139,159,179,200,220,239,258,279,300,319,339,359,380,400,418,440,459,479,498,519,540,559,580,599,620,639,659,680,699,719,739,758,778,800,820,840,859,880,899,920,939,960,979,999,1019,1039,1059,1079,1099,1119,1139,1159,1180,1199,1220,1240,1259],"xSR":741.5,"ySR":469.95,"xT1":424.9,"yT1":0,"xT2":1058.1,"yT2":0,"toosoon":0,"cond_shown":"equaldotsize","ratio_trial":250,"smaller_num":"3","larger_num":"12","correct_side":2,"subjID":"thomasrojas24","gender":"0","age":"8","school":"4"},{"start_time":1552054786112,"click_time":1552054787079,"finger_time":1552054786999,"fix_duration":250,"trial":2,"RT":887,"MT":80,"sideResp":1,"stimulus":"img/250/randomdotsizeEA/L/15_Ratio_250_L_12_R_3.png","xmouse":[764,764,764,764,764,764,764,764,764,764,764,764,764,764,764,764,764,764,764,764,764,764,764,764,764,764,764,764,764,764,764,764,764,764,764,764,764,764,764,764,764,764,760,743,711,625,569,527,503],"ymouse":[525,525,525,525,525,525,525,525,525,525,525,525,525,525,525,525,525,525,525,525,525,525,525,525,525,525,525,525,525,525,525,525,525,525,525,525,525,525,525,525,525,525,511,479,423,266,187,127,94],"timestamp_mouse":[19,45,45,66,86,106,127,147,166,186,206,226,247,266,286,306,326,346,366,386,406,426,445,467,486,505,526,546,566,587,606,627,646,667,685,706,727,747,766,786,807,827,846,867,887,908,926,946,967],"xSR":741.5,"ySR":469.95,"xT1":424.9,"yT1":0,"xT2":1058.1,"yT2":0,"toosoon":0,"cond_shown":"randomdotsizeEA","ratio_trial":250,"smaller_num":"3","larger_num":"12","correct_side":1,"subjID":"thomasrojas24","gender":"0","age":"8","school":"4"},{"start_time":1552054788576,"click_time":1552054789538,"finger_time":1552054789239,"fix_duration":437.4134191072252,"trial":3,"RT":663,"MT":299,"sideResp":2,"stimulus":"img/900/equaldotanddens/R/3_Ratio_900_L_9_R_10.png","xmouse":[774,774,774,774,774,774,774,774,774,774,774,774,774,774,774,774,774,774,774,774,774,774,774,774,774,774,774,774,774,774,774,776,783,827,858,889,916,935,985,997,1007,1015,1023,1036,1040,1043,1047,1057,1066],"ymouse":[521,521,521,521,521,521,521,521,521,521,521,521,521,521,521,521,521,521,521,521,521,521,521,521,521,521,521,521,521,521,521,522,515,465,426,384,343,313,241,223,212,203,198,192,190,187,181,151,89],"timestamp_mouse":[4,22,43,62,83,103,122,143,163,182,202,221,243,262,283,302,322,342,362,382,403,423,443,463,483,503,522,542,563,582,603,621,643,663,682,702,722,743,762,783,802,822,842,862,882,902,922,942,962],"xSR":741.5,"ySR":469.95,"xT1":424.9,"yT1":0,"xT2":1058.1,"yT2":0,"toosoon":0,"cond_shown":"equaldotanddens","ratio_trial":900,"smaller_num":"9","larger_num":"10","correct_side":2,"subjID":"thomasrojas24","gender":"0","age":"8","school":"4"},{"start_time":1552054790690,"click_time":1552054791738,"finger_time":1552054791359,"fix_duration":250,"trial":4,"RT":669,"MT":379,"sideResp":2,"stimulus":"img/250/equaldotanddens/R/4_Ratio_250_L_3_R_12.png","xmouse":[777,777,777,777,777,777,777,777,777,777,777,777,777,777,777,777,777,777,777,777,777,777,777,777,777,777,777,777,777,777,777,780,826,870,916,955,988,1019,1031,1046,1058,1081,1088,1094,1094,1094,1096,1098,1098,1098,1098,1098,1099],"ymouse":[486,486,486,486,486,486,486,486,486,486,486,486,486,486,486,486,486,486,486,486,486,486,486,486,486,486,486,486,486,486,486,487,470,448,420,388,358,319,301,280,257,213,192,158,141,129,119,110,109,108,107,106,97],"timestamp_mouse":[12,39,49,68,89,109,127,149,169,188,208,229,247,269,288,309,328,348,367,389,408,428,448,469,488,509,529,548,569,589,608,628,648,669,688,708,729,749,769,789,809,828,848,868,888,908,929,949,969,989,1008,1028,1048],"xSR":741.5,"ySR":469.95,"xT1":424.9,"yT1":0,"xT2":1058.1,"yT2":0,"toosoon":0,"cond_shown":"equaldotanddens","ratio_trial":250,"smaller_num":"3","larger_num":"12","correct_side":2,"subjID":"thomasrojas24","gender":"0","age":"8","school":"4"},{"start_time":1552054792991,"click_time":1552054794659,"finger_time":1552054793918,"fix_duration":250,"trial":5,"RT":927,"MT":741,"sideResp":1,"stimulus":"img/900/randomdotsizeEA/L/4_Ratio_900_L_20_R_18.png","xmouse":[800,800,800,800,800,800,800,800,800,800,800,800,800,800,800,800,800,800,800,800,800,800,800,800,800,800,800,800,800,800,800,800,800,800,800,800,800,800,800,799,799,798,796,795,793,780,760,712,691,674,653,626,604,580,577,577,577,577,577,577,571,564,544,537,530,527,527,527,527,527,527,527,527,527,527,527,527,527,527,527,527,527,527,521],"ymouse":[527,527,527,527,527,527,527,527,527,527,527,527,527,527,527,527,527,527,527,527,527,527,527,527,527,527,527,527,527,527,527,527,527,527,527,527,527,527,527,525,521,516,510,507,500,474,438,353,312,271,230,191,160,135,134,134,134,134,134,133,127,123,111,107,103,100,100,100,100,100,100,100,100,100,100,100,100,100,100,100,100,100,100,93],"timestamp_mouse":[10,35,47,67,87,107,127,148,167,188,208,227,247,268,287,307,328,348,367,387,407,428,447,468,488,507,528,547,568,588,607,627,647,667,687,708,728,747,767,787,808,827,846,868,887,907,927,947,967,987,1008,1027,1048,1066,1087,1108,1127,1147,1168,1188,1207,1227,1248,1268,1287,1307,1326,1348,1368,1388,1407,1428,1448,1468,1487,1507,1528,1547,1567,1588,1608,1628,1648,1668],"xSR":741.5,"ySR":469.95,"xT1":424.9,"yT1":0,"xT2":1058.1,"yT2":0,"toosoon":0,"cond_shown":"randomdotsizeEA","ratio_trial":900,"smaller_num":"18","larger_num":"20","correct_side":1,"subjID":"thomasrojas24","gender":"0","age":"8","school":"4"},{"start_time":1552054796011,"click_time":1552054797099,"finger_time":1552054796758,"fix_duration":250.04055561971995,"trial":6,"RT":747,"MT":341,"sideResp":1,"stimulus":"img/900/equaldotanddens/L/10_Ratio_900_L_20_R_18.png","xmouse":[762,762,762,762,762,762,762,762,762,762,762,762,762,762,762,762,762,762,762,762,762,762,762,762,762,762,762,762,762,762,762,762,762,762,762,762,756,733,719,701,673,628,613,609,605,600,586,575,564,551,544,540,540,534,520],"ymouse":[502,502,502,502,502,502,502,502,502,502,502,502,502,502,502,502,502,502,502,502,502,502,502,502,502,502,502,502,502,502,502,502,502,502,502,502,490,448,420,389,348,282,263,257,252,243,217,194,173,151,138,131,129,115,89],"timestamp_mouse":[11,28,47,66,87,107,127,147,168,187,206,227,246,267,287,307,328,348,368,386,408,427,446,467,488,508,528,548,568,587,608,627,648,668,688,708,727,747,767,788,807,829,847,867,887,908,929,947,967,987,1007,1028,1046,1067,1088],"xSR":741.5,"ySR":469.95,"xT1":424.9,"yT1":0,"xT2":1058.1,"yT2":0,"toosoon":0,"cond_shown":"equaldotanddens","ratio_trial":900,"smaller_num":"18","larger_num":"20","correct_side":1,"subjID":"thomasrojas24","gender":"0","age":"8","school":"4"},{"start_time":1552054800460,"click_time":1552054801878,"finger_time":1552054801298,"fix_duration":760.8406612483818,"trial":7,"RT":838,"MT":580,"sideResp":1,"stimulus":"img/250/equaldotanddens/L/2_Ratio_250_L_16_R_4.png","xmouse":[799,799,799,799,799,799,799,799,799,799,799,799,799,799,799,799,799,799,799,799,799,799,799,799,799,799,799,799,799,799,799,799,799,799,799,799,799,799,799,795,778,738,688,632,567,548,538,534,529,526,525,525,525,525,525,525,525,525,525,525,525,525,525,525,525,525,525,525,525,525,520],"ymouse":[551,551,551,551,551,551,551,551,551,551,551,551,551,551,551,551,551,551,551,551,551,551,551,551,551,551,551,551,551,551,551,551,551,551,551,551,551,551,551,544,507,435,357,278,187,155,132,117,101,89,85,85,85,85,85,85,85,85,85,85,85,85,85,85,85,85,85,85,85,85,76],"timestamp_mouse":[19,45,58,78,98,119,137,159,178,199,219,239,259,278,299,318,338,359,379,399,418,439,457,478,499,519,539,558,579,599,617,639,658,678,698,718,737,758,779,798,819,838,857,878,899,918,938,959,978,998,1017,1039,1059,1079,1099,1119,1138,1158,1178,1198,1218,1238,1258,1277,1299,1319,1338,1358,1379,1398,1418],"xSR":741.5,"ySR":469.95,"xT1":424.9,"yT1":0,"xT2":1058.1,"yT2":0,"toosoon":0,"cond_shown":"equaldotanddens","ratio_trial":250,"smaller_num":"4","larger_num":"16","correct_side":1,"subjID":"thomasrojas24","gender":"0","age":"8","school":"4"},{"start_time":1552054805634,"click_time":1552054807299,"finger_time":1552054806798,"fix_duration":1295.691419794968,"trial":8,"RT":1164,"MT":501,"sideResp":2,"stimulus":"img/500/equaldotanddens/R/12_Ratio_500_L_1_R_2.png","xmouse":[778,778,778,778,778,778,778,778,778,778,778,778,778,778,778,778,778,778,778,778,778,778,778,778,778,778,778,778,778,778,778,778,778,778,778,778,778,778,778,778,778,778,778,778,778,778,778,778,778,778,778,778,778,778,778,778,778,783,790,793,793,793,793,793,793,793,799,815,822,830,839,850,875,892,912,934,958,1045,1077,1092,1097,1098,1097,1095],"ymouse":[515,515,515,515,515,515,515,515,515,515,515,515,515,515,515,515,515,515,515,515,515,515,515,515,515,515,515,515,515,515,515,515,515,515,515,515,515,515,515,515,515,515,515,515,515,515,515,515,515,515,515,515,515,515,515,515,515,495,459,419,395,384,373,367,360,343,295,257,239,228,219,214,201,195,192,190,190,182,173,166,159,146,109,87],"timestamp_mouse":[14,25,44,64,84,105,125,144,165,183,205,225,244,263,285,304,325,344,365,384,404,425,443,465,488,504,525,544,564,585,605,624,644,664,684,704,725,744,764,785,805,824,845,863,885,903,924,944,964,985,1003,1025,1045,1065,1085,1103,1124,1144,1164,1184,1205,1224,1243,1264,1284,1304,1326,1344,1365,1384,1405,1424,1445,1464,1484,1504,1525,1544,1564,1584,1604,1624,1644,1665],"xSR":741.5,"ySR":469.95,"xT1":424.9,"yT1":0,"xT2":1058.1,"yT2":0,"toosoon":0,"cond_shown":"equaldotanddens","ratio_trial":500,"smaller_num":"1","larger_num":"2","correct_side":2,"subjID":"thomasrojas24","gender":"0","age":"8","school":"4"},{"start_time":1552054808671,"click_time":1552054809738,"finger_time":1552054809438,"fix_duration":250,"trial":9,"RT":767,"MT":300,"sideResp":1,"stimulus":"img/250/randomdotsizeEA/L/14_Ratio_250_L_12_R_3.png","xmouse":[793,793,793,793,793,793,793,793,793,793,793,793,793,793,793,793,793,793,793,793,793,793,793,793,793,793,793,793,793,793,793,793,793,793,793,793,787,758,708,659,597,583,567,554,531,513,512,512,512,512,512,512,512,510],"ymouse":[507,507,507,507,507,507,507,507,507,507,507,507,507,507,507,507,507,507,507,507,507,507,507,507,507,507,507,507,507,507,507,507,507,507,507,507,505,473,407,341,237,205,174,153,124,102,101,101,101,101,101,101,101,98],"timestamp_mouse":[12,36,47,68,88,108,127,147,168,187,208,227,247,268,287,306,328,347,367,387,408,428,447,467,487,507,527,548,567,587,608,627,648,667,687,708,728,747,767,787,807,827,848,867,887,907,928,947,967,988,1007,1026,1047,1067],"xSR":741.5,"ySR":469.95,"xT1":424.9,"yT1":0,"xT2":1058.1,"yT2":0,"toosoon":0,"cond_shown":"randomdotsizeEA","ratio_trial":250,"smaller_num":"3","larger_num":"12","correct_side":1,"subjID":"thomasrojas24","gender":"0","age":"8","school":"4"},{"start_time":1552054812060,"click_time":1552054813379,"finger_time":1552054812860,"fix_duration":1437.7778010655675,"trial":10,"RT":800,"MT":519,"sideResp":1,"stimulus":"img/250/equaldotsize/L/1_Ratio_250_L_8_R_2.png","xmouse":[776,776,776,776,776,776,776,776,776,776,776,776,776,776,776,776,776,776,776,776,776,776,776,776,776,776,776,776,776,776,776,776,776,776,776,776,776,776,774,768,740,615,533,448,432,428,420,417,413,412,412,412,412,412,412,412,412,411,410,410,410,415,418,421,422,424,425],"ymouse":[522,522,522,522,522,522,522,522,522,522,522,522,522,522,522,522,522,522,522,522,522,522,522,522,522,522,522,522,522,522,522,522,522,522,522,522,522,522,522,515,474,339,271,215,202,196,163,141,127,124,124,124,124,124,124,124,122,112,110,110,108,99,84,71,58,54,53],"timestamp_mouse":[10,39,39,61,80,99,119,139,159,180,201,220,240,259,279,299,320,340,360,380,400,420,439,459,480,500,520,541,559,579,600,619,640,660,679,700,719,739,759,781,800,821,839,859,880,901,920,939,959,980,1000,1021,1039,1059,1079,1099,1119,1140,1159,1180,1200,1221,1239,1260,1280,1300,1319],"xSR":741.5,"ySR":469.95,"xT1":424.9,"yT1":0,"xT2":1058.1,"yT2":0,"toosoon":0,"cond_shown":"equaldotsize","ratio_trial":250,"smaller_num":"2","larger_num":"8","correct_side":1,"subjID":"thomasrojas24","gender":"0","age":"8","school":"4"},{"start_time":1552054815490,"click_time":1552054816700,"finger_time":1552054816401,"fix_duration":1409.454180519631,"trial":11,"RT":911,"MT":299,"sideResp":1,"stimulus":"img/500/equaldotsize/L/4_Ratio_500_L_18_R_9.png","xmouse":[805,805,805,805,805,805,805,805,805,805,805,805,805,805,805,805,805,805,805,805,805,805,805,805,805,805,805,805,805,805,805,805,805,805,805,805,805,805,805,805,805,805,805,805,805,774,741,700,660,611,579,575,574,573,571,565,564,562,558,547,522],"ymouse":[527,527,527,527,527,527,527,527,527,527,527,527,527,527,527,527,527,527,527,527,527,527,527,527,527,527,527,527,527,527,527,527,527,527,527,527,527,527,527,527,527,527,513,500,473,403,352,302,258,212,177,171,168,164,160,151,149,145,140,118,73],"timestamp_mouse":[15,38,49,70,89,110,131,151,170,189,210,229,249,270,289,309,329,350,371,391,409,430,449,469,490,510,529,549,570,589,610,630,649,670,690,710,729,750,770,791,810,830,850,870,889,911,931,950,971,989,1009,1030,1050,1070,1090,1109,1129,1150,1170,1190,1210],"xSR":741.5,"ySR":469.95,"xT1":424.9,"yT1":0,"xT2":1058.1,"yT2":0,"toosoon":0,"cond_shown":"equaldotsize","ratio_trial":500,"smaller_num":"9","larger_num":"18","correct_side":1,"subjID":"thomasrojas24","gender":"0","age":"8","school":"4"},{"start_time":1552054819457,"click_time":1552054820759,"finger_time":1552054820060,"fix_duration":454.3531215160442,"trial":12,"RT":603,"MT":699,"sideResp":1,"stimulus":"img/500/equaldotanddens/L/8_Ratio_500_L_8_R_4.png","xmouse":[770,770,770,770,770,770,770,770,770,770,770,770,770,770,770,770,770,770,770,770,770,770,770,770,770,770,770,770,770,772,799,825,847,848,848,848,848,801,754,716,682,652,631,631,631,631,631,631,631,631,631,631,631,631,631,296,322,383,398,399,399,399,404,409,420,433],"ymouse":[504,504,504,504,504,504,504,504,504,504,504,504,504,504,504,504,504,504,504,504,504,504,504,504,504,504,504,504,501,489,393,285,149,140,140,140,139,148,141,116,73,29,8,8,8,8,8,8,8,8,8,8,8,8,8,6,35,70,72,72,72,72,72,67,60,51],"timestamp_mouse":[14,24,42,63,83,104,123,142,163,183,202,222,242,263,282,303,322,343,363,382,403,423,443,462,482,502,523,542,562,583,603,623,643,662,683,703,722,743,762,782,802,822,843,862,883,903,923,943,964,983,1003,1022,1042,1063,1082,1103,1123,1143,1162,1182,1202,1223,1243,1262,1282,1302],"xSR":741.5,"ySR":469.95,"xT1":424.9,"yT1":0,"xT2":1058.1,"yT2":0,"toosoon":0,"cond_shown":"equaldotanddens","ratio_trial":500,"smaller_num":"4","larger_num":"8","correct_side":1,"subjID":"thomasrojas24","gender":"0","age":"8","school":"4"},{"start_time":1552054822804,"click_time":1552054824820,"finger_time":1552054824460,"fix_duration":1162.522834976607,"trial":13,"RT":1656,"MT":360,"sideResp":1,"stimulus":"img/500/equaldotsize/R/3_Ratio_500_L_10_R_20.png","xmouse":[794,794,794,794,794,794,794,794,794,794,794,794,794,794,794,794,794,794,794,794,794,794,794,794,794,794,794,794,794,794,794,794,794,794,794,794,794,794,794,794,794,794,794,794,794,794,794,794,794,794,794,794,794,794,794,794,794,794,794,794,794,794,794,794,794,794,794,794,794,794,794,794,794,794,794,794,794,794,794,794,794,775,712,617,518,362,344,344,344,344,344,344,344,344,344,344,344,344,344,379,442],"ymouse":[530,530,530,530,530,530,530,530,530,530,530,530,530,530,530,530,530,530,530,530,530,530,530,530,530,530,530,530,530,530,530,530,530,530,530,530,530,530,530,530,530,530,530,530,530,530,530,530,530,530,530,530,530,530,530,530,530,530,530,530,530,530,530,530,530,530,530,530,530,530,530,530,530,530,530,530,530,530,530,530,530,505,420,297,177,20,4,4,4,4,4,4,4,4,4,4,4,4,4,5,30],"timestamp_mouse":[15,35,56,75,95,117,136,156,176,195,215,236,255,275,295,315,335,357,376,397,416,435,455,475,495,517,537,556,575,595,616,637,656,675,696,716,736,756,775,796,816,837,856,877,896,916,936,955,976,996,1016,1036,1056,1077,1095,1115,1136,1156,1175,1196,1215,1236,1256,1276,1297,1317,1336,1355,1376,1396,1416,1437,1456,1476,1496,1517,1537,1555,1576,1595,1616,1636,1656,1676,1696,1715,1735,1755,1775,1796,1815,1837,1856,1875,1895,1916,1935,1956,1976,1997,2015],"xSR":741.5,"ySR":469.95,"xT1":424.9,"yT1":0,"xT2":1058.1,"yT2":0,"toosoon":0,"cond_shown":"equaldotsize","ratio_trial":500,"smaller_num":"10","larger_num":"20","correct_side":2,"subjID":"thomasrojas24","gender":"0","age":"8","school":"4"},{"start_time":1552054827176,"click_time":1552054828001,"finger_time":1552054827840,"fix_duration":1356.1905784982084,"trial":14,"RT":664,"MT":161,"sideResp":2,"stimulus":"img/500/equaldotanddens/R/12_Ratio_500_L_1_R_2.png","xmouse":[803,803,803,803,803,803,803,803,803,803,803,803,803,803,803,803,803,803,803,803,803,803,803,803,803,803,803,803,803,803,807,809,822,843,898,977,1059,1121,1123,1123,1123,1123],"ymouse":[509,509,509,509,509,509,509,509,509,509,509,509,509,509,509,509,509,509,509,509,509,509,509,509,509,509,509,509,509,509,503,499,484,462,409,336,254,153,131,120,109,86],"timestamp_mouse":[13,24,43,65,83,104,125,143,164,185,203,223,243,263,285,304,325,344,363,383,404,424,444,464,484,503,523,544,563,584,603,624,643,664,684,704,723,744,764,784,804,825],"xSR":741.5,"ySR":469.95,"xT1":424.9,"yT1":0,"xT2":1058.1,"yT2":0,"toosoon":0,"cond_shown":"equaldotanddens","ratio_trial":500,"smaller_num":"1","larger_num":"2","correct_side":2,"subjID":"thomasrojas24","gender":"0","age":"8","school":"4"},{"start_time":1552054829480,"click_time":1552054830400,"finger_time":1552054830179,"fix_duration":457.3109926120452,"trial":15,"RT":699,"MT":221,"sideResp":2,"stimulus":"img/500/equaldotanddens/R/14_Ratio_500_L_5_R_10.png","xmouse":[768,768,768,768,768,768,768,768,768,768,768,768,768,768,768,768,768,768,768,768,768,768,768,768,768,768,768,768,768,768,768,768,768,770,805,883,962,1037,1111,1120,1123,1125,1128,1135,1141,1147,1150],"ymouse":[522,522,522,522,522,522,522,522,522,522,522,522,522,522,522,522,522,522,522,522,522,522,522,522,522,522,522,522,522,522,522,522,522,522,509,460,404,340,241,221,203,188,158,137,124,109,99],"timestamp_mouse":[9,20,40,59,79,100,119,139,160,181,200,221,239,260,279,300,319,340,360,380,399,419,439,459,480,499,520,539,560,579,601,620,641,661,680,699,720,740,760,779,801,819,841,859,879,899,919],"xSR":741.5,"ySR":469.95,"xT1":424.9,"yT1":0,"xT2":1058.1,"yT2":0,"toosoon":0,"cond_shown":"equaldotanddens","ratio_trial":500,"smaller_num":"5","larger_num":"10","correct_side":2,"subjID":"thomasrojas24","gender":"0","age":"8","school":"4"},{"start_time":1552054834671,"click_time":1552054836799,"finger_time":1552054834680,"fix_duration":250,"trial":16,"RT":9,"MT":2119,"sideResp":2,"stimulus":"img/500/equaldotanddens/R/2_Ratio_500_L_3_R_6.png","xmouse":[705,694,694,694,694,694,694,694,694,694,694,694,694,694,694,694,694,694,694,694,699,708,711,729,743,757,777,799,832,836,837,837,837,837,837,837,837,837,833,833,833,833,833,828,823,817,815,812,808,806,805,804,804,804,804,804,804,804,804,804,804,804,804,805,816,835,865,900,996,1070,1161,1259,1344,1344,1344,1344,1344,1344,1344,1344,1344,1344,1344,1344,1344,1344,1344,1325,1322,1321,1321,1321,1321,1291,1266,1234,1209,1192,1188,1188,1188,1188,1188,1183,1173,1163,1151],"ymouse":[585,589,589,589,589,589,589,589,589,589,589,589,589,589,589,589,589,589,589,588,585,581,581,586,591,595,595,587,568,564,563,563,563,563,563,563,562,561,553,553,553,553,553,548,542,533,529,525,514,510,506,506,506,505,504,504,504,504,504,504,504,504,504,502,496,484,462,431,340,266,182,87,4,4,4,4,4,4,4,4,4,4,4,4,4,4,4,1,4,4,4,4,4,9,12,21,25,30,31,31,31,31,31,32,34,35,36],"timestamp_mouse":[9,29,49,69,90,109,128,148,169,188,209,229,249,269,290,309,329,349,369,388,409,428,449,468,489,510,529,549,568,590,610,628,648,668,688,709,728,749,769,789,808,829,848,868,889,909,928,948,969,989,1008,1029,1050,1068,1089,1109,1129,1149,1169,1190,1208,1230,1249,1268,1289,1309,1328,1348,1368,1390,1408,1429,1450,1469,1488,1509,1528,1549,1568,1588,1610,1629,1649,1669,1689,1709,1728,1749,1770,1789,1808,1828,1849,1869,1889,1909,1929,1948,1969,1989,2009,2029,2048,2068,2089,2108,2128],"xSR":741.5,"ySR":469.95,"xT1":424.9,"yT1":0,"xT2":1058.1,"yT2":0,"toosoon":0,"cond_shown":"equaldotanddens","ratio_trial":500,"smaller_num":"3","larger_num":"6","correct_side":2,"subjID":"thomasrojas24","gender":"0","age":"8","school":"4"},{"start_time":1552054839617,"click_time":1552054840700,"finger_time":1552054840340,"fix_duration":1176.0421631500744,"trial":17,"RT":723,"MT":360,"sideResp":1,"stimulus":"img/250/randomdotsizeEA/L/15_Ratio_250_L_12_R_3.png","xmouse":[776,776,776,776,776,776,776,776,776,776,776,776,776,776,776,776,776,776,776,776,768,760,746,746,746,746,746,746,746,746,746,746,746,746,746,745,740,690,651,610,572,543,542,542,542,541,533,530,529,529,529,529,529,527,524],"ymouse":[504,504,504,504,504,504,504,504,504,504,504,504,504,504,504,504,504,504,504,504,506,510,519,519,519,519,519,519,519,519,519,519,519,519,519,519,515,417,345,274,214,170,155,140,128,116,88,76,75,75,75,75,73,63,55],"timestamp_mouse":[12,35,43,62,83,104,122,142,162,182,203,223,242,264,282,302,323,343,362,383,402,423,443,462,483,502,524,542,562,583,603,623,643,662,683,702,723,742,762,783,803,825,842,863,883,903,923,943,962,982,1002,1023,1042,1062,1082],"xSR":741.5,"ySR":469.95,"xT1":424.9,"yT1":0,"xT2":1058.1,"yT2":0,"toosoon":0,"cond_shown":"randomdotsizeEA","ratio_trial":250,"smaller_num":"3","larger_num":"12","correct_side":1,"subjID":"thomasrojas24","gender":"0","age":"8","school":"4"},{"start_time":1552054844134,"click_time":1552054848419,"finger_time":1552054847799,"fix_duration":1192.4763619544206,"trial":18,"RT":3665,"MT":620,"sideResp":2,"stimulus":"img/750/randomdotsizeEA/L/14_Ratio_750_L_8_R_6.png","xmouse":[763,763,763,763,763,763,763,763,763,763,763,763,763,763,763,763,763,763,763,763,763,763,763,763,763,763,763,763,763,763,763,763,763,763,763,763,763,763,763,763,763,763,763,763,763,763,763,763,763,763,763,763,763,763,763,763,763,763,763,763,763,763,763,763,763,763,763,763,763,763,763,763,763,763,763,763,763,763,763,763,763,763,763,763,763,763,763,763,763,763,763,763,763,763,763,763,763,763,763,763,763,763,763,763,763,763,763,763,763,763,763,763,763,763,763,763,763,763,763,763,763,763,763,763,763,763,763,763,763,763,763,763,763,763,763,763,763,763,763,763,763,763,763,763,763,763,763,763,763,763,763,763,763,763,763,763,763,763,763,763,763,763,763,763,763,763,763,763,763,763,763,763,763,763,763,763,763,765,765,765,765,781,803,859,908,952,985,991,998,1006,1017,1037,1046,1045,1026,1008,984,984,984,984,985,991,996,1000,1005,1015,1039,1042,1044,1047,1050,1051,1051,1054,1063],"ymouse":[525,525,525,525,525,525,525,525,525,525,525,525,525,525,525,525,525,525,525,525,525,525,525,525,525,525,525,525,525,525,525,525,525,525,525,525,525,525,525,525,525,525,525,525,525,525,525,525,525,525,525,525,525,525,525,525,525,525,525,525,525,525,525,525,525,525,525,525,525,525,525,525,525,525,525,525,525,525,525,525,525,525,525,525,525,525,525,525,525,525,525,525,525,525,525,525,525,525,525,525,525,525,525,525,525,525,525,525,525,525,525,525,525,525,525,525,525,525,525,525,525,525,525,525,525,525,525,525,525,525,525,525,525,525,525,525,525,525,525,525,525,525,525,525,525,525,525,525,525,525,525,525,525,525,525,525,525,525,525,525,525,525,525,525,525,525,525,525,525,525,525,525,525,525,525,525,525,518,511,509,508,496,490,482,475,468,446,436,425,412,397,345,270,210,166,141,123,123,123,123,123,123,123,115,109,104,97,96,94,91,84,82,82,82,82],"timestamp_mouse":[14,39,45,66,87,105,126,145,166,187,206,227,247,265,286,305,326,345,365,385,406,426,445,466,487,505,525,545,567,586,605,625,645,666,686,706,725,745,765,785,807,825,845,866,885,906,925,946,966,987,1005,1026,1045,1065,1086,1107,1127,1146,1166,1186,1205,1225,1246,1266,1286,1306,1326,1345,1365,1387,1406,1425,1447,1467,1485,1506,1527,1545,1566,1585,1606,1627,1647,1667,1685,1706,1726,1747,1765,1785,1806,1826,1846,1866,1886,1906,1925,1945,1967,1987,2006,2025,2045,2065,2087,2106,2125,2146,2165,2186,2205,2225,2245,2266,2286,2306,2325,2345,2366,2386,2406,2425,2446,2465,2485,2506,2526,2547,2566,2586,2606,2626,2646,2666,2686,2706,2726,2747,2765,2786,2806,2826,2847,2866,2885,2907,2925,2945,2966,2985,3006,3025,3045,3066,3085,3106,3125,3146,3167,3186,3206,3225,3247,3265,3286,3306,3325,3347,3365,3387,3406,3426,3445,3466,3485,3505,3525,3546,3566,3586,3605,3626,3646,3665,3686,3706,3726,3746,3766,3785,3805,3826,3845,3865,3886,3906,3927,3945,3966,3986,4006,4026,4046,4065,4086,4105,4127,4145,4166,4187,4206,4226,4245,4266,4285],"xSR":741.5,"ySR":469.95,"xT1":424.9,"yT1":0,"xT2":1058.1,"yT2":0,"toosoon":0,"cond_shown":"randomdotsizeEA","ratio_trial":750,"smaller_num":"6","larger_num":"8","correct_side":1,"subjID":"thomasrojas24","gender":"0","age":"8","school":"4"},{"start_time":1552054849788,"click_time":1552054851361,"finger_time":1552054850379,"fix_duration":586.5877495447994,"trial":19,"RT":591,"MT":982,"sideResp":2,"stimulus":"img/750/equaldotanddens/R/4_Ratio_750_L_15_R_20.png","xmouse":[778,775,775,755,755,755,755,755,755,755,755,755,755,755,755,755,755,755,755,755,755,755,755,755,755,755,755,755,750,713,698,685,670,629,602,585,580,579,579,579,579,579,579,576,565,560,559,559,559,559,559,562,595,661,840,916,988,1034,1057,1075,1082,1095,1119,1147,1185,1186,1186,1182,1167,1146,1143,1141,1140,1140,1137,1136,1135,1135,1135],"ymouse":[509,509,509,514,514,514,514,514,514,514,514,514,514,514,514,514,514,514,514,514,514,514,514,514,514,510,507,495,476,394,359,325,283,193,152,129,121,119,119,119,119,119,119,116,103,98,96,96,96,96,96,100,125,161,228,248,253,253,253,243,239,234,225,213,192,189,184,174,154,119,115,113,112,112,107,106,102,100,99],"timestamp_mouse":[17,44,51,72,93,113,132,151,173,192,212,231,251,271,293,311,331,352,373,392,411,431,451,471,492,513,533,551,572,591,613,631,651,673,692,712,732,751,772,791,812,833,851,872,892,912,931,951,973,992,1012,1031,1052,1071,1092,1112,1132,1151,1172,1191,1212,1231,1252,1271,1291,1312,1332,1351,1371,1392,1412,1432,1451,1471,1491,1511,1531,1552,1572],"xSR":741.5,"ySR":469.95,"xT1":424.9,"yT1":0,"xT2":1058.1,"yT2":0,"toosoon":0,"cond_shown":"equaldotanddens","ratio_trial":750,"smaller_num":"15","larger_num":"20","correct_side":2,"subjID":"thomasrojas24","gender":"0","age":"8","school":"4"},{"start_time":1552054854691,"click_time":1552054855979,"finger_time":1552054855840,"fix_duration":988.4135494995558,"trial":20,"RT":1149,"MT":139,"sideResp":2,"stimulus":"img/750/randomdotsizeEA/R/7_Ratio_750_L_3_R_4.png","xmouse":[795,795,795,795,795,795,795,795,795,795,795,795,795,795,795,795,795,795,795,795,795,795,795,795,795,795,795,795,795,795,795,795,795,795,795,795,795,795,795,795,795,795,795,795,795,795,795,795,795,795,795,795,795,795,795,794,794,806,822,856,883,939,990,1048,1143],"ymouse":[508,508,508,508,508,508,508,508,508,508,508,508,508,508,508,508,508,508,508,508,508,508,508,508,508,508,508,508,508,508,508,508,508,508,508,508,508,508,508,508,508,508,508,508,508,508,508,508,508,508,508,508,508,508,508,501,479,448,421,356,296,230,197,151,60],"timestamp_mouse":[18,28,48,68,89,109,128,149,168,188,208,228,249,270,288,308,328,349,370,388,409,430,450,469,488,508,530,550,568,588,609,628,650,670,689,708,729,748,769,789,809,829,849,868,889,908,928,948,970,989,1009,1029,1050,1070,1089,1109,1128,1149,1169,1190,1208,1228,1248,1268,1288],"xSR":741.5,"ySR":469.95,"xT1":424.9,"yT1":0,"xT2":1058.1,"yT2":0,"toosoon":0,"cond_shown":"randomdotsizeEA","ratio_trial":750,"smaller_num":"3","larger_num":"4","correct_side":2,"subjID":"thomasrojas24","gender":"0","age":"8","school":"4"},{"start_time":1552054859379,"click_time":1552054860500,"finger_time":1552054860119,"fix_duration":776.7647689065285,"trial":21,"RT":740,"MT":381,"sideResp":1,"stimulus":"img/750/equaldotsize/L/10_Ratio_750_L_4_R_3.png","xmouse":[802,802,802,802,802,802,802,802,802,802,802,802,802,802,802,802,802,802,802,802,802,802,802,802,802,802,802,802,802,802,802,802,802,802,802,802,800,798,794,787,777,742,725,715,708,702,682,671,654,634,615,589,583,580,569,563,515],"ymouse":[495,495,495,495,495,495,495,495,495,495,495,495,495,495,495,495,495,495,495,495,495,495,495,495,495,495,495,495,495,495,495,495,495,495,495,495,481,455,429,401,375,318,298,283,274,264,241,233,223,211,196,174,160,148,129,121,87],"timestamp_mouse":[10,38,41,60,81,100,122,141,161,180,202,221,241,261,280,300,321,342,361,381,400,422,442,460,481,501,520,541,560,580,601,620,640,661,681,701,720,740,760,780,800,820,842,860,880,902,921,942,961,980,1000,1020,1041,1061,1081,1101,1120],"xSR":741.5,"ySR":469.95,"xT1":424.9,"yT1":0,"xT2":1058.1,"yT2":0,"toosoon":0,"cond_shown":"equaldotsize","ratio_trial":750,"smaller_num":"3","larger_num":"4","correct_side":1,"subjID":"thomasrojas24","gender":"0","age":"8","school":"4"},{"start_time":1552054861853,"click_time":1552054863140,"finger_time":1552054862600,"fix_duration":250,"trial":22,"RT":747,"MT":540,"sideResp":2,"stimulus":"img/900/equaldotsize/R/7_Ratio_900_L_9_R_10.png","xmouse":[770,770,767,767,767,767,767,767,767,767,767,767,767,767,767,767,767,767,767,767,767,767,767,767,767,767,767,767,767,767,767,767,767,767,767,770,782,866,910,986,1018,1095,1127,1130,1130,1131,1132,1142,1148,1156,1160,1164,1168,1168,1168,1168,1168,1168,1168,1168,1168,1168,1167,1159,1140],"ymouse":[496,496,496,496,496,496,496,496,496,496,496,496,496,496,496,496,496,496,496,496,496,496,496,496,496,496,496,496,496,496,496,496,496,496,496,491,486,444,416,365,347,301,278,275,274,273,269,238,210,153,118,94,62,52,46,44,43,43,43,43,43,43,43,43,43],"timestamp_mouse":[19,26,46,67,87,107,126,146,166,188,207,226,246,266,286,306,327,346,367,387,407,426,447,467,487,508,527,546,567,588,607,627,646,668,686,707,726,747,766,786,806,827,846,866,886,907,927,946,966,987,1008,1028,1047,1067,1086,1107,1127,1147,1167,1187,1206,1227,1247,1267,1286],"xSR":741.5,"ySR":469.95,"xT1":424.9,"yT1":0,"xT2":1058.1,"yT2":0,"toosoon":0,"cond_shown":"equaldotsize","ratio_trial":900,"smaller_num":"9","larger_num":"10","correct_side":2,"subjID":"thomasrojas24","gender":"0","age":"8","school":"4"},{"start_time":1552054864553,"click_time":1552054865719,"finger_time":1552054865320,"fix_duration":470.75163373138065,"trial":23,"RT":767,"MT":399,"sideResp":2,"stimulus":"img/900/equaldotanddens/R/3_Ratio_900_L_9_R_10.png","xmouse":[765,765,765,765,765,765,765,765,765,765,765,765,765,765,765,765,765,765,765,765,765,765,765,765,765,765,765,765,765,765,765,765,765,765,765,770,791,816,896,942,972,991,1007,1010,1013,1013,1014,1014,1015,1015,1015,1016,1020,1030,1040,1048,1051,1058,1060],"ymouse":[511,511,511,511,511,511,511,511,511,511,511,511,511,511,511,511,511,511,511,511,511,511,511,511,511,511,511,511,511,511,511,511,511,511,511,510,500,482,390,338,305,286,254,236,220,218,214,209,188,174,161,150,133,122,111,101,95,84,81],"timestamp_mouse":[12,38,46,66,86,106,126,146,166,187,207,226,246,267,286,306,326,346,367,388,406,427,446,467,486,506,526,547,567,588,606,627,646,667,686,707,727,746,767,787,807,827,848,866,887,907,926,948,966,987,1007,1026,1048,1066,1087,1106,1127,1148,1166],"xSR":741.5,"ySR":469.95,"xT1":424.9,"yT1":0,"xT2":1058.1,"yT2":0,"toosoon":0,"cond_shown":"equaldotanddens","ratio_trial":900,"smaller_num":"9","larger_num":"10","correct_side":2,"subjID":"thomasrojas24","gender":"0","age":"8","school":"4"},{"start_time":1552054867816,"click_time":1552054868839,"finger_time":1552054868519,"fix_duration":1114.5591946797724,"trial":24,"RT":703,"MT":320,"sideResp":1,"stimulus":"img/750/equaldotanddens/L/13_Ratio_750_L_8_R_6.png","xmouse":[760,760,760,760,760,760,760,760,760,760,760,760,760,760,760,760,760,760,760,760,760,760,760,760,760,760,760,760,760,760,760,760,760,760,760,741,711,676,635,575,551,547,546,545,544,543,543,543,543,541,526,515],"ymouse":[525,525,525,525,525,525,525,525,525,525,525,525,525,525,525,525,525,525,525,525,525,525,525,525,525,525,525,525,525,525,525,525,525,525,520,488,435,374,319,229,187,172,163,154,145,139,137,134,129,123,101,90],"timestamp_mouse":[11,34,44,64,84,103,124,144,164,185,205,223,243,265,283,303,324,345,363,383,404,424,443,465,483,504,523,543,564,584,605,623,644,664,685,703,724,744,763,785,803,824,843,863,883,904,924,943,963,984,1003,1023],"xSR":741.5,"ySR":469.95,"xT1":424.9,"yT1":0,"xT2":1058.1,"yT2":0,"toosoon":0,"cond_shown":"equaldotanddens","ratio_trial":750,"smaller_num":"6","larger_num":"8","correct_side":1,"subjID":"thomasrojas24","gender":"0","age":"8","school":"4"},{"start_time":1552054870835,"click_time":1552054880659,"finger_time":1552054880380,"fix_duration":1213.5272259920507,"trial":25,"RT":9545,"MT":279,"sideResp":2,"stimulus":"img/250/equaldotanddens/R/8_Ratio_250_L_1_R_4.png","xmouse":[796,796,796,796,796,796,796,796,796,796,796,796,796,796,796,796,796,796,796,796,796,796,796,796,796,796,796,796,796,796,796,796,796,796,796,796,796,796,796,796,796,796,796,796,796,796,796,796,796,796,796,796,796,796,796,796,796,796,796,796,796,796,796,796,796,796,796,796,796,796,796,796,796,796,796,796,796,796,796,796,796,796,796,796,796,796,796,796,796,796,796,796,796,796,796,796,796,796,796,796,796,796,796,796,796,796,796,796,796,796,796,796,796,796,796,796,796,796,796,796,796,796,796,796,796,796,796,796,796,796,796,796,796,796,796,796,796,796,796,796,796,796,796,796,796,796,796,796,796,796,796,796,796,796,796,796,796,796,796,796,796,796,796,796,796,796,796,796,796,796,796,796,796,796,796,796,796,796,796,796,796,796,796,796,796,796,796,796,796,796,796,796,796,796,796,796,796,796,796,796,796,796,796,796,796,796,796,796,796,796,796,796,796,796,796,796,796,796,796,796,796,796,796,796,796,796,796,796,796,796,796,796,796,796,796,796,796,796,796,796,796,796,796,796,796,796,796,796,796,796,796,796,796,796,796,796,796,796,796,796,796,796,796,796,796,796,796,796,796,796,796,796,796,796,796,796,796,796,796,796,796,796,796,796,796,796,796,796,796,796,796,796,796,796,796,796,796,796,796,796,796,796,796,796,796,796,796,796,796,796,796,796,796,796,796,796,796,796,796,796,796,796,796,796,796,796,796,796,796,796,796,796,796,796,796,796,796,796,796,796,796,796,796,796,796,796,796,796,796,796,796,796,796,796,796,796,796,796,796,796,796,796,796,796,796,796,796,796,796,796,796,796,796,796,796,796,796,796,796,796,796,796,796,796,796,796,796,796,796,796,796,796,796,796,796,796,796,796,796,796,796,796,796,796,796,796,796,796,796,796,796,796,796,796,796,796,796,796,796,796,796,796,796,796,796,796,796,796,796,796,796,796,796,796,796,796,796,796,796,796,796,796,796,796,796,796,796,796,796,796,796,796,796,796,796,796,796,796,796,796,796,796,796,796,796,796,796,796,796,796,796,796,796,796,796,796,799,806,815,833,857,928,959,987,994,1012,1025,1050,1074,1097,1129,1138],"ymouse":[523,523,523,523,523,523,523,523,523,523,523,523,523,523,523,523,523,523,523,523,523,523,523,523,523,523,523,523,523,523,523,523,523,523,523,523,523,523,523,523,523,523,523,523,523,523,523,523,523,523,523,523,523,523,523,523,523,523,523,523,523,523,523,523,523,523,523,523,523,523,523,523,523,523,523,523,523,523,523,523,523,523,523,523,523,523,523,523,523,523,523,523,523,523,523,523,523,523,523,523,523,523,523,523,523,523,523,523,523,523,523,523,523,523,523,523,523,523,523,523,523,523,523,523,523,523,523,523,523,523,523,523,523,523,523,523,523,523,523,523,523,523,523,523,523,523,523,523,523,523,523,523,523,523,523,523,523,523,523,523,523,523,523,523,523,523,523,523,523,523,523,523,523,523,523,523,523,523,523,523,523,523,523,523,523,523,523,523,523,523,523,523,523,523,523,523,523,523,523,523,523,523,523,523,523,523,523,523,523,523,523,523,523,523,523,523,523,523,523,523,523,523,523,523,523,523,523,523,523,523,523,523,523,523,523,523,523,523,523,523,523,523,523,523,523,523,523,523,523,523,523,523,523,523,523,523,523,523,523,523,523,523,523,523,523,523,523,523,523,523,523,523,523,523,523,523,523,523,523,523,523,523,523,523,523,523,523,523,523,523,523,523,523,523,523,523,523,523,523,523,523,523,523,523,523,523,523,523,523,523,523,523,523,523,523,523,523,523,523,523,523,523,523,523,523,523,523,523,523,523,523,523,523,523,523,523,523,523,523,523,523,523,523,523,523,523,523,523,523,523,523,523,523,523,523,523,523,523,523,523,523,523,523,523,523,523,523,523,523,523,523,523,523,523,523,523,523,523,523,523,523,523,523,523,523,523,523,523,523,523,523,523,523,523,523,523,523,523,523,523,523,523,523,523,523,523,523,523,523,523,523,523,523,523,523,523,523,523,523,523,523,523,523,523,523,523,523,523,523,523,523,523,523,523,523,523,523,523,523,523,523,523,523,523,523,523,523,523,523,523,523,523,523,523,523,523,523,523,523,523,523,523,523,523,523,523,523,523,523,523,523,523,523,523,523,523,497,427,380,348,325,290,280,270,264,242,224,196,168,144,105,90],"timestamp_mouse":[11,40,44,65,84,105,126,144,164,186,204,224,246,264,285,305,324,345,366,384,405,425,444,465,486,505,525,545,564,584,605,624,644,666,686,705,724,744,764,785,806,826,844,866,884,904,925,946,965,984,1006,1024,1045,1065,1084,1104,1124,1146,1165,1186,1204,1225,1246,1264,1286,1304,1324,1346,1366,1384,1405,1426,1444,1464,1485,1505,1525,1545,1564,1584,1606,1624,1644,1665,1685,1705,1724,1744,1765,1786,1804,1824,1844,1866,1884,1905,1924,1945,1965,1984,2004,2025,2045,2064,2085,2104,2126,2144,2165,2185,2205,2225,2244,2265,2284,2305,2325,2346,2365,2384,2406,2426,2445,2465,2485,2504,2525,2544,2566,2584,2604,2625,2646,2665,2684,2704,2724,2746,2765,2784,2805,2825,2845,2865,2885,2904,2924,2944,2966,2985,3005,3025,3045,3064,3085,3106,3125,3145,3166,3185,3204,3224,3246,3265,3285,3304,3325,3344,3366,3385,3404,3426,3444,3465,3485,3505,3526,3545,3566,3585,3605,3625,3644,3665,3684,3704,3725,3745,3765,3786,3804,3826,3846,3864,3884,3906,3924,3944,3966,3985,4005,4025,4044,4065,4085,4104,4124,4144,4165,4185,4204,4226,4245,4264,4285,4306,4324,4345,4365,4384,4404,4426,4444,4464,4484,4505,4524,4545,4564,4585,4605,4625,4644,4666,4685,4704,4724,4745,4766,4785,4804,4824,4845,4865,4885,4916,4924,4944,4966,4985,5004,5024,5044,5065,5084,5105,5126,5144,5165,5185,5204,5226,5244,5264,5284,5305,5325,5345,5365,5385,5404,5426,5444,5465,5486,5504,5524,5545,5564,5584,5604,5625,5644,5664,5685,5705,5726,5744,5765,5784,5805,5824,5845,5865,5884,5904,5925,5945,5964,5985,6004,6025,6046,6064,6084,6106,6128,6145,6165,6184,6205,6224,6245,6265,6284,6306,6325,6344,6365,6385,6404,6424,6446,6464,6485,6506,6524,6545,6564,6585,6604,6624,6644,6665,6684,6706,6724,6745,6764,6786,6804,6824,6844,6865,6884,6905,6924,6944,6964,6984,7005,7025,7045,7064,7085,7104,7125,7144,7165,7186,7205,7225,7244,7266,7284,7305,7326,7344,7365,7385,7404,7425,7446,7464,7485,7506,7524,7544,7564,7585,7604,7624,7645,7665,7685,7705,7724,7744,7765,7784,7806,7825,7845,7865,7884,7905,7925,7946,7965,7984,8005,8025,8046,8064,8084,8106,8124,8145,8165,8185,8205,8225,8244,8266,8284,8305,8325,8346,8366,8384,8405,8424,8446,8465,8485,8505,8525,8545,8564,8585,8606,8624,8644,8664,8685,8706,8724,8745,8766,8784,8805,8826,8845,8866,8884,8905,8924,8944,8964,8986,9004,9025,9044,9064,9084,9105,9124,9144,9165,9186,9206,9225,9245,9264,9284,9305,9326,9344,9366,9384,9404,9424,9444,9465,9485,9504,9525,9545,9565,9584,9605,9624,9644,9665,9684,9704,9724,9744,9765,9784,9806,9824],"xSR":741.5,"ySR":469.95,"xT1":424.9,"yT1":0,"xT2":1058.1,"yT2":0,"toosoon":0,"cond_shown":"equaldotanddens","ratio_trial":250,"smaller_num":"1","larger_num":"4","correct_side":2,"subjID":"thomasrojas24","gender":"0","age":"8","school":"4"},{"start_time":1552054883472,"click_time":1552054884441,"finger_time":1552054884059,"fix_duration":1331.846339428427,"trial":26,"RT":587,"MT":382,"sideResp":2,"stimulus":"img/500/equaldotsize/R/6_Ratio_500_L_9_R_18.png","xmouse":[810,810,810,810,810,810,810,810,810,810,810,810,810,810,810,810,810,810,810,810,810,810,810,810,810,810,808,823,836,974,1032,1065,1088,1098,1106,1107,1109,1113,1118,1125,1127,1127,1124,1119,1113,1111,1109,1108,1104],"ymouse":[508,508,508,508,508,508,508,508,508,508,508,508,508,508,508,508,508,508,508,508,508,508,508,508,508,508,508,502,497,441,411,387,368,350,329,318,305,291,279,252,237,222,205,183,140,123,114,105,93],"timestamp_mouse":[13,34,48,67,88,107,127,148,168,187,207,228,248,267,288,308,328,347,367,389,408,427,447,468,488,509,528,547,569,587,607,627,648,667,687,707,728,749,768,787,808,827,847,868,887,908,928,949,969],"xSR":741.5,"ySR":469.95,"xT1":424.9,"yT1":0,"xT2":1058.1,"yT2":0,"toosoon":0,"cond_shown":"equaldotsize","ratio_trial":500,"smaller_num":"9","larger_num":"18","correct_side":2,"subjID":"thomasrojas24","gender":"0","age":"8","school":"4"},{"start_time":1552054887945,"click_time":1552054889820,"finger_time":1552054889459,"fix_duration":1062.2039180840047,"trial":27,"RT":1514,"MT":361,"sideResp":2,"stimulus":"img/900/randomdotsizeEA/L/4_Ratio_900_L_20_R_18.png","xmouse":[787,787,787,787,787,787,787,787,787,787,787,787,787,787,787,787,787,787,787,787,787,787,787,787,787,787,787,787,787,787,787,787,787,787,787,787,787,787,787,787,787,787,787,787,787,787,787,787,787,787,787,787,787,787,787,787,787,787,787,787,787,787,787,787,787,787,787,787,787,787,787,786,783,784,801,893,937,965,985,997,1014,1022,1022,1022,1022,1022,1022,1022,1022,1022,1022,1022,1022,1115],"ymouse":[527,527,527,527,527,527,527,527,527,527,527,527,527,527,527,527,527,527,527,527,527,527,527,527,527,527,527,527,527,527,527,527,527,527,527,527,527,527,527,527,527,527,527,527,527,527,527,527,527,527,527,527,527,527,527,527,527,527,527,527,527,527,527,527,527,527,527,527,527,527,527,528,528,523,504,387,320,257,194,139,44,17,17,17,17,17,17,17,17,17,17,17,17,4],"timestamp_mouse":[19,40,56,74,95,114,134,154,174,195,214,234,254,274,294,314,334,354,375,395,414,435,454,476,495,515,535,554,574,594,614,634,654,675,695,714,736,754,775,795,815,834,855,875,894,916,935,955,974,995,1014,1036,1054,1074,1094,1115,1135,1154,1176,1194,1214,1235,1255,1276,1295,1315,1336,1354,1375,1395,1415,1435,1455,1475,1494,1514,1535,1554,1575,1594,1615,1634,1654,1675,1695,1715,1735,1755,1775,1796,1815,1835,1855,1875],"xSR":741.5,"ySR":469.95,"xT1":424.9,"yT1":0,"xT2":1058.1,"yT2":0,"toosoon":0,"cond_shown":"randomdotsizeEA","ratio_trial":900,"smaller_num":"18","larger_num":"20","correct_side":1,"subjID":"thomasrojas24","gender":"0","age":"8","school":"4"},{"start_time":1552054894453,"click_time":1552054895600,"finger_time":1552054895200,"fix_duration":711.3174982702227,"trial":28,"RT":747,"MT":400,"sideResp":2,"stimulus":"img/250/equaldotanddens/R/12_Ratio_250_L_5_R_20.png","xmouse":[793,793,793,793,793,793,793,793,793,793,793,793,793,793,793,793,793,793,793,793,793,793,793,793,793,793,793,793,793,793,793,793,793,793,793,793,808,842,890,937,962,979,981,983,987,990,997,998,998,998,998,1008,1015,1027,1045,1075,1105,1115],"ymouse":[518,518,518,518,518,518,518,518,518,518,518,518,518,518,518,518,518,518,518,518,518,518,518,518,518,518,518,518,518,518,518,518,518,518,518,518,509,488,459,425,405,383,377,368,356,345,310,301,292,284,276,246,224,202,178,146,112,99],"timestamp_mouse":[14,37,46,67,87,106,126,147,168,187,206,227,246,267,288,308,326,346,366,386,406,427,446,466,488,506,527,547,567,587,606,626,646,666,688,706,726,747,766,787,806,826,846,867,887,907,927,947,967,987,1007,1027,1046,1067,1086,1106,1126,1147],"xSR":741.5,"ySR":469.95,"xT1":424.9,"yT1":0,"xT2":1058.1,"yT2":0,"toosoon":0,"cond_shown":"equaldotanddens","ratio_trial":250,"smaller_num":"5","larger_num":"20","correct_side":2,"subjID":"thomasrojas24","gender":"0","age":"8","school":"4"},{"start_time":1552054896972,"click_time":1552054897899,"finger_time":1552054897700,"fix_duration":490.0911102683625,"trial":29,"RT":728,"MT":199,"sideResp":1,"stimulus":"img/500/randomdotsizeEA/R/14_Ratio_500_L_5_R_10.png","xmouse":[832,832,832,832,832,832,832,832,832,832,832,832,832,832,832,832,832,832,832,832,832,832,832,832,832,832,832,832,832,832,832,832,832,832,832,822,777,756,684,645,580,558,543,534,528,524,520],"ymouse":[479,479,479,479,479,479,479,479,479,479,479,479,479,479,479,479,479,479,479,479,479,479,479,479,479,479,479,479,479,479,479,479,479,479,479,472,446,434,372,319,210,170,147,132,120,108,91],"timestamp_mouse":[10,38,48,68,87,107,128,147,167,189,207,227,248,267,288,308,327,348,368,387,408,428,448,468,487,507,529,547,568,588,607,627,648,667,688,707,728,748,767,788,808,828,847,868,889,908,927],"xSR":741.5,"ySR":469.95,"xT1":424.9,"yT1":0,"xT2":1058.1,"yT2":0,"toosoon":0,"cond_shown":"randomdotsizeEA","ratio_trial":500,"smaller_num":"5","larger_num":"10","correct_side":2,"subjID":"thomasrojas24","gender":"0","age":"8","school":"4"},{"start_time":1552054899049,"click_time":1552054899959,"finger_time":1552054899439,"fix_duration":286.4994589311664,"trial":30,"RT":390,"MT":520,"sideResp":2,"stimulus":"img/750/equaldotsize/L/10_Ratio_750_L_4_R_3.png","xmouse":[772,772,772,772,772,772,772,772,772,772,772,772,772,772,775,779,804,820,835,849,857,871,875,885,892,898,906,917,922,930,940,967,982,988,992,996,1005,1011,1017,1020,1023,1025,1031,1039,1049,1059],"ymouse":[535,535,535,535,535,535,535,535,535,535,535,535,535,535,533,531,516,504,488,469,450,413,398,374,357,340,323,298,285,270,258,235,224,218,209,199,172,159,147,138,130,121,109,97,84,71],"timestamp_mouse":[12,32,51,70,91,110,130,150,171,191,211,230,252,270,291,310,331,351,370,390,410,432,450,470,491,511,531,551,570,591,611,631,650,671,691,712,731,750,770,791,811,832,850,870,890,910],"xSR":741.5,"ySR":469.95,"xT1":424.9,"yT1":0,"xT2":1058.1,"yT2":0,"toosoon":0,"cond_shown":"equaldotsize","ratio_trial":750,"smaller_num":"3","larger_num":"4","correct_side":1,"subjID":"thomasrojas24","gender":"0","age":"8","school":"4"},{"start_time":1552054901095,"click_time":1552054901939,"finger_time":1552054901639,"fix_duration":413.78262304201985,"trial":31,"RT":544,"MT":300,"sideResp":1,"stimulus":"img/750/equaldotanddens/L/1_Ratio_750_L_20_R_15.png","xmouse":[746,746,746,746,746,746,750,752,753,753,753,753,753,753,753,753,753,753,753,753,753,753,753,753,753,753,743,716,682,642,555,539,526,518,505,503,502,502,500,496,494,492,490],"ymouse":[522,522,522,522,522,523,523,523,523,523,523,523,523,523,523,523,523,523,523,523,523,523,523,523,523,523,500,457,410,360,256,234,217,203,183,180,176,173,168,144,128,112,98],"timestamp_mouse":[16,38,45,64,85,105,125,144,166,186,205,225,244,266,285,305,325,344,364,385,404,425,445,464,485,505,525,544,565,585,604,625,645,664,686,704,725,744,764,786,804,825,844],"xSR":741.5,"ySR":469.95,"xT1":424.9,"yT1":0,"xT2":1058.1,"yT2":0,"toosoon":0,"cond_shown":"equaldotanddens","ratio_trial":750,"smaller_num":"15","larger_num":"20","correct_side":1,"subjID":"thomasrojas24","gender":"0","age":"8","school":"4"},{"start_time":1552054903163,"click_time":1552054904379,"finger_time":1552054903820,"fix_duration":262.71492616014893,"trial":32,"RT":657,"MT":559,"sideResp":2,"stimulus":"img/900/equaldotsize/L/2_Ratio_900_L_20_R_18.png","xmouse":[771,771,771,771,771,771,771,771,771,771,771,771,771,771,771,771,771,771,771,771,771,771,771,771,771,771,771,771,771,771,772,803,838,871,903,927,939,942,946,953,959,974,981,988,994,1004,1021,1030,1039,1045,1045,1045,1045,1045,1045,1045,1045,1045,1048,1054,1060],"ymouse":[522,522,522,522,522,522,522,522,522,522,522,522,522,522,522,522,522,522,522,522,522,522,522,522,522,522,522,522,522,522,522,482,421,363,316,281,256,244,227,204,181,142,129,117,108,94,83,79,76,75,75,74,74,74,74,74,74,74,74,74,73],"timestamp_mouse":[17,37,57,76,96,116,137,156,177,196,217,236,257,276,297,316,337,356,377,396,416,436,457,476,497,518,537,557,576,597,618,636,657,677,697,718,737,756,776,797,816,836,856,877,897,916,936,957,977,998,1018,1037,1056,1076,1097,1117,1136,1156,1176,1197,1216],"xSR":741.5,"ySR":469.95,"xT1":424.9,"yT1":0,"xT2":1058.1,"yT2":0,"toosoon":0,"cond_shown":"equaldotsize","ratio_trial":900,"smaller_num":"18","larger_num":"20","correct_side":1,"subjID":"thomasrojas24","gender":"0","age":"8","school":"4"},{"start_time":1552054906112,"click_time":1552054907120,"finger_time":1552054906819,"fix_duration":831.9187590624334,"trial":33,"RT":707,"MT":301,"sideResp":2,"stimulus":"img/500/randomdotsizeEA/R/14_Ratio_500_L_5_R_10.png","xmouse":[807,807,807,807,807,807,807,807,807,807,807,807,807,807,807,807,807,807,807,807,807,807,807,807,807,807,807,807,807,807,807,807,807,807,820,842,911,964,998,1013,1015,1018,1023,1034,1060,1077,1097,1099,1099,1090,1083],"ymouse":[539,539,539,539,539,539,539,539,539,539,539,539,539,539,539,539,539,539,539,539,539,539,539,539,539,539,539,539,539,539,539,539,539,536,518,495,456,433,417,401,396,385,370,347,285,238,179,159,147,115,89],"timestamp_mouse":[12,38,48,68,88,107,128,149,167,187,207,228,247,268,287,307,328,347,369,388,408,428,447,469,488,508,528,547,569,588,607,628,649,668,687,707,727,747,768,788,808,828,848,867,888,908,928,947,967,987,1008],"xSR":741.5,"ySR":469.95,"xT1":424.9,"yT1":0,"xT2":1058.1,"yT2":0,"toosoon":0,"cond_shown":"randomdotsizeEA","ratio_trial":500,"smaller_num":"5","larger_num":"10","correct_side":2,"subjID":"thomasrojas24","gender":"0","age":"8","school":"4"},{"start_time":1552054908191,"click_time":1552054909640,"finger_time":1552054909080,"fix_duration":250,"trial":34,"RT":889,"MT":560,"sideResp":1,"stimulus":"img/900/equaldotsize/R/12_Ratio_900_L_18_R_20.png","xmouse":[813,813,813,813,813,813,813,813,813,813,813,813,813,813,813,813,813,813,813,813,813,813,813,813,813,813,813,813,813,813,813,813,813,813,813,813,813,813,813,813,813,813,808,788,742,656,632,621,618,615,600,579,565,555,546,538,529,522,516,512,508,505,505,505,505,505,505,505,505,505,505,504,503],"ymouse":[528,528,528,528,528,528,528,528,528,528,528,528,528,528,528,528,528,528,528,528,528,528,528,528,528,528,528,528,528,528,528,528,528,528,528,528,528,528,528,528,528,528,522,494,439,350,330,321,317,313,292,263,243,226,209,195,172,157,144,133,121,112,111,111,111,111,111,111,110,109,107,103,98],"timestamp_mouse":[13,38,48,69,88,108,130,149,169,188,208,228,248,270,289,309,330,349,368,388,408,428,449,469,489,508,530,548,569,590,609,628,649,670,689,709,729,748,769,789,809,829,849,870,889,909,928,949,969,990,1009,1028,1049,1070,1089,1109,1128,1148,1169,1190,1208,1229,1249,1269,1289,1309,1328,1349,1368,1388,1409,1429,1449],"xSR":741.5,"ySR":469.95,"xT1":424.9,"yT1":0,"xT2":1058.1,"yT2":0,"toosoon":0,"cond_shown":"equaldotsize","ratio_trial":900,"smaller_num":"18","larger_num":"20","correct_side":2,"subjID":"thomasrojas24","gender":"0","age":"8","school":"4"},{"start_time":1552054910833,"click_time":1552054912119,"finger_time":1552054911859,"fix_duration":250,"trial":35,"RT":1026,"MT":260,"sideResp":1,"stimulus":"img/750/equaldotsize/L/14_Ratio_750_L_8_R_6.png","xmouse":[771,771,771,772,778,784,790,793,798,798,798,798,798,798,798,798,798,798,798,798,798,798,798,798,798,798,798,798,798,798,798,798,798,798,798,798,798,798,798,798,798,801,803,809,824,826,827,828,826,822,816,805,788,770,714,681,659,635,617,603,590,576,560,544,520],"ymouse":[554,554,554,554,550,546,541,538,534,534,534,534,534,534,534,534,534,534,534,534,534,534,534,534,534,534,534,534,534,534,534,534,534,534,534,534,534,534,534,534,534,527,525,516,502,498,494,493,484,480,473,462,445,424,345,296,254,196,136,116,96,81,66,55,43],"timestamp_mouse":[10,36,48,67,86,107,126,146,167,188,206,227,248,266,287,306,327,348,366,386,407,428,446,466,486,506,528,546,566,587,608,626,647,668,687,708,726,747,767,786,807,827,847,866,887,908,926,947,967,987,1007,1026,1046,1067,1087,1106,1126,1147,1169,1186,1206,1227,1247,1266,1286],"xSR":741.5,"ySR":469.95,"xT1":424.9,"yT1":0,"xT2":1058.1,"yT2":0,"toosoon":0,"cond_shown":"equaldotsize","ratio_trial":750,"smaller_num":"6","larger_num":"8","correct_side":1,"subjID":"thomasrojas24","gender":"0","age":"8","school":"4"},{"start_time":1552054912991,"click_time":1552054914419,"finger_time":1552054914040,"fix_duration":250,"trial":36,"RT":1049,"MT":379,"sideResp":2,"stimulus":"img/500/randomdotsizeEA/R/1_Ratio_500_L_9_R_18.png","xmouse":[793,793,793,793,793,793,793,793,793,793,793,793,793,793,793,793,793,793,793,793,793,793,793,793,793,793,793,793,793,793,793,793,793,793,793,793,793,793,793,793,793,793,793,793,794,795,796,798,802,804,811,833,848,866,883,900,927,941,961,967,974,992,1004,1016,1027,1035,1042,1042,1045,1049,1054,1061],"ymouse":[543,543,543,543,543,543,543,543,543,543,543,543,543,543,543,543,543,543,543,543,543,543,543,543,543,543,543,543,543,543,543,543,543,543,543,543,543,543,543,543,543,543,543,540,538,537,535,533,531,529,524,502,484,455,417,381,321,301,279,268,255,216,193,172,152,136,121,119,113,107,100,91],"timestamp_mouse":[24,38,49,68,88,109,129,148,168,190,209,230,248,268,289,309,329,349,370,388,409,429,449,469,488,509,529,549,568,589,608,630,649,669,689,708,728,750,769,788,808,829,849,869,890,909,929,949,969,989,1009,1028,1049,1068,1089,1108,1128,1149,1169,1190,1209,1228,1249,1268,1288,1308,1328,1349,1368,1388,1409,1428],"xSR":741.5,"ySR":469.95,"xT1":424.9,"yT1":0,"xT2":1058.1,"yT2":0,"toosoon":0,"cond_shown":"randomdotsizeEA","ratio_trial":500,"smaller_num":"9","larger_num":"18","correct_side":2,"subjID":"thomasrojas24","gender":"0","age":"8","school":"4"},{"start_time":1552054916565,"click_time":1552054917600,"finger_time":1552054917160,"fix_duration":1222.0074530800641,"trial":37,"RT":595,"MT":440,"sideResp":1,"stimulus":"img/750/equaldotsize/L/14_Ratio_750_L_8_R_6.png","xmouse":[796,796,796,796,796,796,796,796,796,796,796,796,796,796,796,796,796,796,796,796,796,796,796,796,796,796,796,796,785,771,765,760,749,738,725,710,691,674,641,602,572,547,516,507,500,495,488,475,470,467,467,467],"ymouse":[505,505,505,505,505,505,505,505,505,505,505,505,505,505,505,505,505,505,505,505,505,505,505,505,505,505,504,499,473,445,434,426,410,397,381,366,351,337,311,282,263,246,220,209,199,187,170,131,116,104,100,99],"timestamp_mouse":[15,40,54,75,94,114,134,155,174,195,215,235,254,275,296,315,334,354,375,396,414,434,454,474,496,515,536,555,575,595,615,635,655,674,695,715,734,754,776,794,815,835,855,874,895,916,935,956,974,994,1014,1034],"xSR":741.5,"ySR":469.95,"xT1":424.9,"yT1":0,"xT2":1058.1,"yT2":0,"toosoon":0,"cond_shown":"equaldotsize","ratio_trial":750,"smaller_num":"6","larger_num":"8","correct_side":1,"subjID":"thomasrojas24","gender":"0","age":"8","school":"4"},{"start_time":1552054919669,"click_time":1552054920780,"finger_time":1552054920340,"fix_duration":1307.1212802330579,"trial":38,"RT":671,"MT":440,"sideResp":1,"stimulus":"img/500/equaldotanddens/L/8_Ratio_500_L_8_R_4.png","xmouse":[792,792,792,792,792,792,792,792,792,792,792,792,792,792,792,792,792,792,792,792,792,792,792,792,792,792,792,792,792,792,792,792,781,770,761,751,747,745,738,721,687,606,523,510,509,509,509,503,482,478,476,476,476,476,477,478],"ymouse":[522,522,522,522,522,522,522,522,522,522,522,522,522,522,522,522,522,522,522,522,522,522,522,522,522,522,522,522,522,522,522,517,483,465,453,442,438,437,419,388,327,239,168,160,159,159,159,151,125,118,116,116,116,114,108,98],"timestamp_mouse":[13,34,51,70,90,111,131,151,171,191,210,230,251,272,290,310,331,350,371,390,410,430,451,471,490,511,530,552,570,591,611,631,652,671,691,711,731,751,771,791,811,830,853,870,890,910,931,951,970,991,1011,1032,1052,1071,1092,1111],"xSR":741.5,"ySR":469.95,"xT1":424.9,"yT1":0,"xT2":1058.1,"yT2":0,"toosoon":0,"cond_shown":"equaldotanddens","ratio_trial":500,"smaller_num":"4","larger_num":"8","correct_side":1,"subjID":"thomasrojas24","gender":"0","age":"8","school":"4"},{"start_time":1552054921952,"click_time":1552054923700,"finger_time":1552054923440,"fix_duration":250,"trial":39,"RT":1488,"MT":260,"sideResp":2,"stimulus":"img/900/equaldotanddens/R/5_Ratio_900_L_9_R_10.png","xmouse":[779,779,779,779,779,779,779,779,779,779,779,779,779,779,779,779,779,779,779,779,779,779,779,779,779,779,779,779,779,779,779,779,779,779,779,779,779,779,779,779,779,779,779,779,779,779,779,779,779,779,779,779,779,779,779,779,779,779,779,779,779,779,779,779,779,779,779,779,779,779,779,794,809,838,908,946,961,968,982,998,1009,1018,1031,1045,1074,1087,1097,1113],"ymouse":[532,532,532,532,532,532,532,532,532,532,532,532,532,532,532,532,532,532,532,532,532,532,532,532,532,532,532,532,532,532,532,532,532,532,532,532,532,532,532,532,532,532,532,532,532,532,532,532,532,532,532,532,532,532,532,532,532,532,532,532,532,532,532,532,532,532,532,532,532,532,532,520,500,470,415,383,362,349,314,277,260,245,230,216,180,157,133,97],"timestamp_mouse":[10,38,48,67,88,109,129,147,168,188,208,228,248,268,287,308,327,349,367,388,407,427,447,467,488,509,527,548,567,587,607,628,649,667,688,709,727,748,767,788,809,827,848,868,888,908,928,948,967,987,1008,1027,1048,1067,1088,1108,1128,1149,1167,1188,1209,1229,1247,1267,1288,1307,1327,1347,1367,1389,1408,1428,1447,1468,1488,1507,1528,1548,1568,1587,1608,1628,1648,1668,1688,1708,1728,1748],"xSR":741.5,"ySR":469.95,"xT1":424.9,"yT1":0,"xT2":1058.1,"yT2":0,"toosoon":0,"cond_shown":"equaldotanddens","ratio_trial":900,"smaller_num":"9","larger_num":"10","correct_side":2,"subjID":"thomasrojas24","gender":"0","age":"8","school":"4"},{"start_time":1552054927133,"click_time":1552054928600,"finger_time":1552054927981,"fix_duration":790.4254282309461,"trial":40,"RT":848,"MT":619,"sideResp":1,"stimulus":"img/250/randomdotsizeEA/L/2_Ratio_250_L_16_R_4.png","xmouse":[762,762,762,762,762,762,762,762,762,762,762,762,762,762,762,762,762,762,762,762,762,762,762,762,762,762,762,762,762,762,762,762,762,762,762,762,762,762,762,762,760,745,727,706,687,653,627,595,541,469,383,247,247,247,247,247,247,247,247,247,247,247,247,247,247,247,247,247,247,247,310,372,413,458],"ymouse":[514,514,514,514,514,514,514,514,514,514,514,514,514,514,514,514,514,514,514,514,514,514,514,514,514,514,514,514,514,514,514,514,514,514,514,514,514,514,514,514,504,482,465,440,410,345,307,265,208,151,94,5,5,5,5,5,5,5,5,5,5,5,5,5,5,5,5,5,5,5,0,16,27,45],"timestamp_mouse":[11,38,47,66,87,107,127,146,166,186,207,228,246,266,288,307,326,346,366,387,406,426,446,466,487,507,526,547,566,586,607,627,646,666,687,707,726,747,767,788,806,827,848,868,886,908,926,946,967,988,1006,1027,1047,1067,1087,1107,1127,1147,1167,1186,1207,1226,1247,1267,1287,1308,1327,1346,1367,1387,1406,1426,1446,1467],"xSR":741.5,"ySR":469.95,"xT1":424.9,"yT1":0,"xT2":1058.1,"yT2":0,"toosoon":0,"cond_shown":"randomdotsizeEA","ratio_trial":250,"smaller_num":"4","larger_num":"16","correct_side":1,"subjID":"thomasrojas24","gender":"0","age":"8","school":"4"},{"start_time":1552054931396,"click_time":1552054933139,"finger_time":1552054932319,"fix_duration":634.7235670103556,"trial":41,"RT":923,"MT":820,"sideResp":1,"stimulus":"img/900/randomdotsizeEA/L/10_Ratio_900_L_20_R_18.png","xmouse":[787,787,787,787,787,787,787,787,787,787,787,787,787,787,787,787,787,787,787,787,787,787,787,787,787,787,787,787,787,787,787,787,787,787,787,787,787,787,787,787,787,787,788,802,813,824,833,840,855,861,868,872,875,876,876,876,876,876,840,790,710,570,474,311,282,282,282,282,282,282,282,282,282,282,282,282,282,418,547,567,569,569,569,569,569,568,536,498],"ymouse":[511,511,511,511,511,511,511,511,511,511,511,511,511,511,511,511,511,511,511,511,511,511,511,511,511,511,511,511,511,511,511,511,511,511,511,511,511,511,511,511,511,510,509,500,491,479,463,447,416,400,379,364,353,346,346,346,346,346,327,309,279,208,154,37,9,9,9,9,9,9,9,9,9,9,9,9,9,13,56,63,64,64,64,64,64,64,56,45],"timestamp_mouse":[14,23,46,63,83,105,124,144,163,184,203,223,244,264,284,304,324,344,365,383,403,425,444,464,483,503,524,544,564,585,605,624,644,664,684,703,723,744,764,783,803,824,843,863,884,903,923,943,964,983,1003,1024,1044,1063,1084,1104,1125,1144,1163,1184,1204,1223,1243,1264,1283,1303,1323,1343,1364,1383,1404,1423,1444,1464,1484,1504,1523,1543,1564,1584,1604,1623,1645,1664,1683,1703,1724,1743],"xSR":741.5,"ySR":469.95,"xT1":424.9,"yT1":0,"xT2":1058.1,"yT2":0,"toosoon":0,"cond_shown":"randomdotsizeEA","ratio_trial":900,"smaller_num":"18","larger_num":"20","correct_side":1,"subjID":"thomasrojas24","gender":"0","age":"8","school":"4"},{"start_time":1552054934673,"click_time":1552054936059,"finger_time":1552054935640,"fix_duration":711.5134365657646,"trial":42,"RT":967,"MT":419,"sideResp":2,"stimulus":"img/900/equaldotsize/R/5_Ratio_900_L_9_R_10.png","xmouse":[814,814,814,814,814,814,814,814,814,814,814,814,814,814,814,814,814,814,814,814,814,814,814,814,814,814,814,814,814,814,814,814,814,814,814,814,814,814,814,814,814,814,814,814,814,814,814,825,860,935,1129,1210,1252,1263,1264,1266,1271,1280,1285,1293,1293,1292,1291,1290,1268,1231,1201,1178,1164,1155],"ymouse":[496,496,496,496,496,496,496,496,496,496,496,496,496,496,496,496,496,496,496,496,496,496,496,496,496,496,496,496,496,496,496,496,496,496,496,496,496,496,496,496,496,496,496,496,496,496,496,494,484,467,384,328,273,237,215,173,150,120,91,39,24,19,17,17,16,26,36,45,51,55],"timestamp_mouse":[13,35,46,68,87,106,127,147,166,186,208,226,246,267,286,307,327,347,367,386,406,428,447,466,486,506,526,546,566,586,606,626,647,667,687,707,727,746,767,786,806,826,846,867,886,907,927,947,967,987,1006,1026,1046,1067,1087,1106,1126,1147,1167,1187,1206,1227,1246,1266,1287,1306,1327,1346,1366,1386],"xSR":741.5,"ySR":469.95,"xT1":424.9,"yT1":0,"xT2":1058.1,"yT2":0,"toosoon":0,"cond_shown":"equaldotsize","ratio_trial":900,"smaller_num":"9","larger_num":"10","correct_side":2,"subjID":"thomasrojas24","gender":"0","age":"8","school":"4"},{"start_time":1552054938445,"click_time":1552054939840,"finger_time":1552054939300,"fix_duration":1462.037788275914,"trial":43,"RT":855,"MT":540,"sideResp":2,"stimulus":"img/750/equaldotsize/R/2_Ratio_750_L_6_R_8.png","xmouse":[785,785,785,785,785,785,785,785,785,785,785,785,785,785,785,785,785,785,785,785,785,785,785,785,785,785,785,785,785,785,785,785,785,785,785,785,785,785,785,785,786,796,815,841,863,883,900,906,909,914,919,937,958,976,997,1011,1023,1023,1023,1026,1031,1043,1044,1045,1045,1045,1050,1058,1066,1077],"ymouse":[497,497,497,497,497,497,497,497,497,497,497,497,497,497,497,497,497,497,497,497,497,497,497,497,497,497,497,497,497,497,497,497,497,497,497,497,497,497,497,498,498,489,463,427,398,370,334,321,314,307,297,270,241,218,194,178,162,162,162,159,154,142,139,136,135,134,126,115,102,82],"timestamp_mouse":[14,39,54,76,95,114,135,154,174,195,214,236,255,274,294,315,334,355,375,396,415,435,454,474,495,514,535,555,574,594,614,635,654,675,694,714,735,754,775,795,815,834,855,875,895,915,935,955,974,996,1015,1035,1054,1074,1094,1115,1134,1155,1174,1195,1215,1235,1256,1275,1295,1315,1334,1355,1375,1394],"xSR":741.5,"ySR":469.95,"xT1":424.9,"yT1":0,"xT2":1058.1,"yT2":0,"toosoon":0,"cond_shown":"equaldotsize","ratio_trial":750,"smaller_num":"6","larger_num":"8","correct_side":2,"subjID":"thomasrojas24","gender":"0","age":"8","school":"4"},{"start_time":1552054942195,"click_time":1552054943720,"finger_time":1552054943340,"fix_duration":1314.622052515726,"trial":44,"RT":1145,"MT":380,"sideResp":2,"stimulus":"img/500/randomdotsizeEA/L/13_Ratio_500_L_12_R_6.png","xmouse":[776,776,776,776,776,776,776,776,776,776,776,776,776,776,776,776,776,776,776,776,776,776,776,776,776,776,776,776,776,776,776,776,776,776,776,776,776,776,776,776,776,776,776,776,776,776,776,776,776,776,776,776,776,776,780,807,832,846,858,868,888,898,907,916,940,954,976,990,1002,1018,1028,1036,1045,1055,1072,1084,1087],"ymouse":[509,509,509,509,509,509,509,509,509,509,509,509,509,509,509,509,509,509,509,509,509,509,509,509,509,509,509,509,509,509,509,509,509,509,509,509,509,509,509,509,509,509,509,509,509,509,509,509,509,509,509,509,509,509,504,488,475,468,462,456,438,427,417,406,378,361,333,314,294,259,237,215,194,173,134,108,94],"timestamp_mouse":[10,29,44,65,84,105,125,145,164,184,204,224,246,265,284,305,324,344,365,386,405,424,445,466,485,505,524,545,564,584,604,624,645,665,685,705,725,744,765,785,805,825,844,864,884,905,925,945,964,985,1005,1024,1044,1066,1084,1105,1125,1145,1164,1185,1204,1225,1244,1265,1286,1304,1324,1345,1364,1385,1404,1424,1444,1464,1485,1504,1525],"xSR":741.5,"ySR":469.95,"xT1":424.9,"yT1":0,"xT2":1058.1,"yT2":0,"toosoon":0,"cond_shown":"randomdotsizeEA","ratio_trial":500,"smaller_num":"6","larger_num":"12","correct_side":1,"subjID":"thomasrojas24","gender":"0","age":"8","school":"4"},{"start_time":1552054947352,"click_time":1552054948980,"finger_time":1552054948560,"fix_duration":1330.2436166699558,"trial":45,"RT":1208,"MT":420,"sideResp":1,"stimulus":"img/750/randomdotsizeEA/L/9_Ratio_750_L_4_R_3.png","xmouse":[782,782,782,782,782,782,782,782,782,782,782,782,782,782,782,782,782,782,782,782,782,782,782,782,782,782,782,782,782,782,782,782,782,782,782,782,782,782,782,782,782,782,782,782,782,782,782,782,782,782,782,782,782,782,782,782,782,780,769,752,719,683,637,633,631,631,631,630,630,630,630,627,601,548,479,416,408,407,409,412,417,426],"ymouse":[512,512,512,512,512,512,512,512,512,512,512,512,512,512,512,512,512,512,512,512,512,512,512,512,512,512,512,512,512,512,512,512,512,512,512,512,512,512,512,512,512,512,512,512,512,512,512,512,512,512,512,512,512,512,512,512,512,512,502,479,441,393,303,275,227,203,192,186,186,186,186,182,166,143,120,105,101,98,93,87,82,72],"timestamp_mouse":[13,27,47,67,88,107,127,148,167,187,208,228,248,267,287,308,327,349,368,387,408,428,449,467,488,507,527,548,567,587,608,627,648,668,688,707,727,748,767,787,807,827,848,867,887,907,928,947,967,987,1007,1027,1047,1067,1088,1107,1127,1148,1167,1187,1208,1227,1248,1268,1288,1307,1327,1347,1368,1387,1408,1427,1447,1467,1487,1508,1527,1547,1568,1588,1607,1628],"xSR":741.5,"ySR":469.95,"xT1":424.9,"yT1":0,"xT2":1058.1,"yT2":0,"toosoon":0,"cond_shown":"randomdotsizeEA","ratio_trial":750,"smaller_num":"3","larger_num":"4","correct_side":1,"subjID":"thomasrojas24","gender":"0","age":"8","school":"4"},{"start_time":1552054952498,"click_time":1552054954020,"finger_time":1552054953519,"fix_duration":1457.5815527591988,"trial":46,"RT":1021,"MT":501,"sideResp":1,"stimulus":"img/900/randomdotsizeEA/L/10_Ratio_900_L_20_R_18.png","xmouse":[782,782,782,782,782,782,782,782,782,782,782,782,782,782,782,782,782,782,782,782,782,782,782,782,782,782,782,782,782,782,782,782,782,782,782,782,782,782,782,782,782,782,782,782,782,782,782,782,782,770,757,702,682,665,656,650,650,650,650,650,649,645,634,617,597,559,537,525,520,519,519,517,515,512,512,512,520],"ymouse":[501,501,501,501,501,501,501,501,501,501,501,501,501,501,501,501,501,501,501,501,501,501,501,501,501,501,501,501,501,501,501,501,501,501,501,501,501,501,501,501,501,501,501,501,501,501,501,501,501,488,479,441,428,414,397,355,335,327,321,315,296,278,261,241,217,181,165,158,156,155,155,154,147,134,122,109,79],"timestamp_mouse":[10,38,42,61,81,101,121,142,161,181,201,222,241,262,281,301,322,341,361,381,401,422,441,461,482,501,522,542,562,582,601,623,641,662,682,702,722,742,762,781,802,821,842,863,882,901,921,943,962,982,1001,1021,1041,1062,1081,1103,1121,1141,1161,1181,1203,1222,1241,1262,1282,1303,1321,1341,1362,1381,1402,1421,1441,1462,1482,1502,1522],"xSR":741.5,"ySR":469.95,"xT1":424.9,"yT1":0,"xT2":1058.1,"yT2":0,"toosoon":0,"cond_shown":"randomdotsizeEA","ratio_trial":900,"smaller_num":"18","larger_num":"20","correct_side":1,"subjID":"thomasrojas24","gender":"0","age":"8","school":"4"},{"start_time":1552054956117,"click_time":1552054957539,"finger_time":1552054957160,"fix_duration":1214.6803661449383,"trial":47,"RT":1043,"MT":379,"sideResp":2,"stimulus":"img/900/equaldotanddens/R/15_Ratio_900_L_9_R_10.png","xmouse":[776,776,776,776,776,776,776,776,776,776,776,776,776,776,776,776,776,776,776,776,776,776,776,776,776,776,776,776,776,776,776,776,776,776,776,776,776,776,776,776,776,776,776,776,776,776,776,776,776,776,785,819,865,934,958,987,1006,1024,1041,1055,1067,1070,1073,1077,1085,1094,1096,1097,1097,1097,1097,1097],"ymouse":[519,519,519,519,519,519,519,519,519,519,519,519,519,519,519,519,519,519,519,519,519,519,519,519,519,519,519,519,519,519,519,519,519,519,519,519,519,519,519,519,519,519,519,519,519,519,519,519,519,519,515,501,481,450,436,394,362,330,307,293,269,266,259,249,226,193,178,168,157,141,111,91],"timestamp_mouse":[13,39,44,63,84,103,123,143,162,182,203,223,243,262,282,302,323,342,363,383,403,422,443,462,484,503,523,543,562,582,603,622,643,663,683,703,723,743,762,782,803,823,843,863,883,902,923,943,962,983,1003,1023,1043,1063,1083,1102,1122,1142,1162,1182,1203,1223,1244,1262,1283,1302,1322,1342,1362,1382,1403,1422],"xSR":741.5,"ySR":469.95,"xT1":424.9,"yT1":0,"xT2":1058.1,"yT2":0,"toosoon":0,"cond_shown":"equaldotanddens","ratio_trial":900,"smaller_num":"9","larger_num":"10","correct_side":2,"subjID":"thomasrojas24","gender":"0","age":"8","school":"4"},{"start_time":1552054958790,"click_time":1552054959940,"finger_time":1552054959540,"fix_duration":250,"trial":48,"RT":750,"MT":400,"sideResp":2,"stimulus":"img/250/equaldotanddens/R/12_Ratio_250_L_5_R_20.png","xmouse":[791,791,791,791,791,791,791,791,791,791,791,791,791,791,791,791,791,791,791,791,791,791,791,791,791,791,791,791,791,791,791,791,791,791,791,791,796,831,873,922,959,977,978,979,980,984,991,1037,1064,1075,1080,1089,1092,1096,1098,1100,1101,1101],"ymouse":[487,487,487,487,487,487,487,487,487,487,487,487,487,487,487,487,487,487,487,487,487,487,487,487,487,487,487,487,487,487,487,487,487,487,487,487,483,451,409,357,312,274,269,266,261,255,242,198,174,163,155,140,135,127,121,113,106,94],"timestamp_mouse":[12,43,49,71,90,109,130,149,171,189,209,229,249,270,290,310,329,350,369,389,410,431,450,470,490,510,530,549,569,590,609,631,650,670,689,709,730,750,770,790,809,830,850,870,889,909,930,949,969,989,1009,1030,1049,1069,1090,1109,1129,1150],"xSR":741.5,"ySR":469.95,"xT1":424.9,"yT1":0,"xT2":1058.1,"yT2":0,"toosoon":0,"cond_shown":"equaldotanddens","ratio_trial":250,"smaller_num":"5","larger_num":"20","correct_side":2,"subjID":"thomasrojas24","gender":"0","age":"8","school":"4"},{"start_time":1552054961677,"click_time":1552054962739,"finger_time":1552054962439,"fix_duration":735.4278382715172,"trial":49,"RT":762,"MT":300,"sideResp":2,"stimulus":"img/250/randomdotsizeEA/R/11_Ratio_250_L_3_R_12.png","xmouse":[805,805,805,805,805,805,805,805,805,805,805,805,805,805,805,805,805,805,805,805,805,805,805,805,805,805,805,805,805,805,805,805,805,805,805,806,838,868,909,960,1017,1104,1112,1117,1118,1118,1118,1118,1118,1118,1121,1121,1121],"ymouse":[524,524,524,524,524,524,524,524,524,524,524,524,524,524,524,524,524,524,524,524,524,524,524,524,524,524,524,524,524,524,524,524,524,524,524,520,505,485,458,429,389,314,296,277,259,240,227,200,185,165,148,120,90],"timestamp_mouse":[17,43,63,83,102,122,142,162,182,202,222,243,262,282,302,322,342,362,383,403,422,442,462,483,502,522,543,562,582,602,622,643,662,683,702,723,743,762,782,803,822,844,862,883,902,922,943,962,983,1003,1022,1042,1062],"xSR":741.5,"ySR":469.95,"xT1":424.9,"yT1":0,"xT2":1058.1,"yT2":0,"toosoon":0,"cond_shown":"randomdotsizeEA","ratio_trial":250,"smaller_num":"3","larger_num":"12","correct_side":2,"subjID":"thomasrojas24","gender":"0","age":"8","school":"4"},{"start_time":1552054964377,"click_time":1552054965521,"finger_time":1552054965059,"fix_duration":794.0155587219733,"trial":50,"RT":682,"MT":462,"sideResp":2,"stimulus":"img/250/equaldotanddens/R/10_Ratio_250_L_4_R_16.png","xmouse":[814,814,814,814,814,814,814,814,814,814,814,814,814,814,814,814,814,814,814,814,814,814,814,814,814,814,814,814,814,814,814,814,827,841,851,863,876,900,938,960,992,1025,1047,1064,1065,1066,1067,1070,1078,1080,1080,1080,1082,1089,1091,1091,1093,1094],"ymouse":[522,522,522,522,522,522,522,522,522,522,522,522,522,522,522,522,522,522,522,522,522,522,522,522,522,522,522,522,522,522,522,522,509,494,483,470,456,435,398,377,349,313,281,247,240,237,233,223,191,176,162,146,134,116,111,107,100,90],"timestamp_mouse":[13,23,42,63,83,103,123,143,162,183,203,223,243,263,282,302,323,342,363,383,403,423,442,463,483,503,522,542,563,582,603,623,644,662,682,702,723,743,763,783,802,822,842,862,882,903,922,944,962,983,1002,1023,1043,1062,1084,1103,1122,1143],"xSR":741.5,"ySR":469.95,"xT1":424.9,"yT1":0,"xT2":1058.1,"yT2":0,"toosoon":0,"cond_shown":"equaldotanddens","ratio_trial":250,"smaller_num":"4","larger_num":"16","correct_side":2,"subjID":"thomasrojas24","gender":"0","age":"8","school":"4"},{"start_time":1552054968073,"click_time":1552054970460,"finger_time":1552054969679,"fix_duration":250,"trial":51,"RT":1606,"MT":781,"sideResp":2,"stimulus":"img/900/equaldotsize/R/12_Ratio_900_L_18_R_20.png","xmouse":[773,773,773,773,773,773,773,773,773,773,773,773,773,773,773,773,773,773,773,773,773,773,773,773,773,773,773,773,773,773,773,773,773,773,773,773,773,773,773,773,773,773,773,773,773,773,773,773,773,773,773,773,773,773,773,773,773,773,773,773,773,773,773,773,773,773,773,773,773,773,773,773,773,773,773,773,773,772,802,808,810,813,818,836,852,873,889,897,899,908,913,920,926,933,936,938,938,942,951,960,963,966,976,1006,1013,1017,1018,1018,1020,1032,1039,1042,1043,1043,1043,1043,1043,1046,1056,1059],"ymouse":[527,527,527,527,527,527,527,527,527,527,527,527,527,527,527,527,527,527,527,527,527,527,527,527,527,527,527,527,527,527,527,527,527,527,527,527,527,527,527,527,527,527,527,527,527,527,527,527,527,527,527,527,527,527,527,527,527,527,527,527,527,527,527,527,527,527,527,527,527,527,527,527,526,525,522,522,522,520,486,470,465,456,444,414,392,364,346,331,323,294,281,269,258,241,231,229,227,223,217,211,205,200,190,166,146,125,106,90,67,37,29,25,25,25,25,25,25,27,42,46],"timestamp_mouse":[17,38,46,66,87,106,127,146,167,186,208,227,247,268,286,306,326,348,366,386,407,427,447,466,487,507,526,547,566,586,607,626,647,666,686,706,727,746,766,787,806,826,847,866,887,906,926,946,966,987,1007,1026,1046,1067,1087,1107,1126,1146,1166,1187,1207,1228,1246,1266,1287,1306,1326,1346,1366,1387,1406,1427,1447,1466,1487,1506,1527,1547,1567,1587,1606,1627,1647,1666,1687,1706,1726,1746,1767,1786,1807,1827,1846,1868,1886,1907,1927,1946,1967,1987,2006,2027,2047,2067,2086,2106,2126,2146,2167,2186,2206,2226,2247,2267,2286,2307,2326,2347,2368,2386],"xSR":741.5,"ySR":469.95,"xT1":424.9,"yT1":0,"xT2":1058.1,"yT2":0,"toosoon":0,"cond_shown":"equaldotsize","ratio_trial":900,"smaller_num":"18","larger_num":"20","correct_side":2,"subjID":"thomasrojas24","gender":"0","age":"8","school":"4"},{"start_time":1552054971571,"click_time":1552054972459,"finger_time":1552054972319,"fix_duration":250,"trial":52,"RT":748,"MT":140,"sideResp":1,"stimulus":"img/900/equaldotsize/L/10_Ratio_900_L_20_R_18.png","xmouse":[793,793,793,793,793,793,793,793,793,793,793,793,793,793,793,793,793,793,793,793,793,793,793,793,793,793,793,793,793,793,793,793,793,793,793,792,782,767,710,674,628,589,554,503,480],"ymouse":[515,515,515,515,515,515,515,515,515,515,515,515,515,515,515,515,515,515,515,515,515,515,515,515,515,515,515,515,515,515,515,515,515,515,515,508,490,467,389,342,281,228,186,123,89],"timestamp_mouse":[11,39,48,69,89,108,128,149,168,188,209,228,249,268,289,308,328,349,368,389,408,428,449,469,488,508,528,549,569,589,609,628,649,668,689,708,729,748,769,788,808,828,849,868,888],"xSR":741.5,"ySR":469.95,"xT1":424.9,"yT1":0,"xT2":1058.1,"yT2":0,"toosoon":0,"cond_shown":"equaldotsize","ratio_trial":900,"smaller_num":"18","larger_num":"20","correct_side":1,"subjID":"thomasrojas24","gender":"0","age":"8","school":"4"},{"start_time":1552054973473,"click_time":1552054974359,"finger_time":1552054974039,"fix_duration":250,"trial":53,"RT":566,"MT":320,"sideResp":2,"stimulus":"img/500/equaldotanddens/R/14_Ratio_500_L_5_R_10.png","xmouse":[760,760,760,760,760,760,760,760,760,760,760,760,760,760,760,760,760,760,760,760,760,760,760,760,760,760,770,816,840,928,952,959,961,961,960,957,957,958,959,963,967,977,1012,1025,1069],"ymouse":[509,509,509,509,509,509,509,509,509,509,509,509,509,509,509,509,509,509,509,509,509,509,509,509,509,509,503,478,465,402,381,365,347,326,279,255,230,186,176,142,132,121,109,105,93],"timestamp_mouse":[9,34,47,68,86,106,128,147,167,186,207,226,246,266,287,307,327,347,368,386,407,427,446,466,487,506,527,547,566,586,606,627,646,666,686,708,727,747,766,786,807,828,847,867,886],"xSR":741.5,"ySR":469.95,"xT1":424.9,"yT1":0,"xT2":1058.1,"yT2":0,"toosoon":0,"cond_shown":"equaldotanddens","ratio_trial":500,"smaller_num":"5","larger_num":"10","correct_side":2,"subjID":"thomasrojas24","gender":"0","age":"8","school":"4"},{"start_time":1552054975961,"click_time":1552054977160,"finger_time":1552054976679,"fix_duration":620.1752285942883,"trial":54,"RT":718,"MT":481,"sideResp":1,"stimulus":"img/900/equaldotanddens/L/2_Ratio_900_L_20_R_18.png","xmouse":[810,810,810,810,810,810,810,810,810,810,810,810,810,810,810,810,810,810,810,810,810,810,810,810,810,810,810,810,810,810,810,809,799,785,748,728,714,702,694,674,662,641,626,610,584,571,560,548,539,521,510,503,499,496,493,492,491,489,488,486],"ymouse":[524,524,524,524,524,524,524,524,524,524,524,524,524,524,524,524,524,524,524,524,524,524,524,524,524,524,524,524,524,524,524,524,515,503,474,453,434,417,401,367,346,319,304,289,260,244,229,213,200,177,162,154,148,144,134,130,124,117,110,98],"timestamp_mouse":[18,39,58,80,98,119,138,158,179,198,218,238,258,279,300,319,339,359,379,398,419,438,458,478,498,519,538,558,579,600,619,638,658,678,698,718,738,760,778,798,819,838,858,878,900,918,938,959,979,999,1018,1039,1058,1078,1098,1119,1139,1158,1178,1199],"xSR":741.5,"ySR":469.95,"xT1":424.9,"yT1":0,"xT2":1058.1,"yT2":0,"toosoon":0,"cond_shown":"equaldotanddens","ratio_trial":900,"smaller_num":"18","larger_num":"20","correct_side":1,"subjID":"thomasrojas24","gender":"0","age":"8","school":"4"},{"start_time":1552054980869,"click_time":1552054982161,"finger_time":1552054981759,"fix_duration":1088.024765801354,"trial":55,"RT":890,"MT":402,"sideResp":2,"stimulus":"img/900/randomdotsizeEA/R/5_Ratio_900_L_9_R_10.png","xmouse":[791,791,791,791,791,791,791,791,791,791,791,791,791,791,791,791,791,791,791,791,791,791,791,791,791,791,791,791,791,791,791,791,791,791,791,791,791,791,791,791,791,791,805,826,892,925,940,952,965,980,1021,1055,1072,1079,1080,1071,1069,1068,1068,1068,1068,1068,1068,1069,1077],"ymouse":[530,530,530,530,530,530,530,530,530,530,530,530,530,530,530,530,530,530,530,530,530,530,530,530,530,530,530,530,530,530,530,530,530,530,530,530,530,530,530,530,530,530,512,489,435,407,394,381,368,351,316,289,268,246,211,172,163,159,158,156,146,138,132,126,96],"timestamp_mouse":[14,43,51,71,91,110,130,151,171,190,211,230,251,270,291,310,331,351,370,391,410,431,450,470,490,511,530,551,571,590,611,630,652,671,691,711,730,751,770,790,810,832,850,870,890,910,931,951,970,991,1010,1031,1050,1072,1091,1110,1131,1151,1170,1191,1210,1231,1250,1270,1292],"xSR":741.5,"ySR":469.95,"xT1":424.9,"yT1":0,"xT2":1058.1,"yT2":0,"toosoon":0,"cond_shown":"randomdotsizeEA","ratio_trial":900,"smaller_num":"9","larger_num":"10","correct_side":2,"subjID":"thomasrojas24","gender":"0","age":"8","school":"4"},{"start_time":1552054984094,"click_time":1552054985360,"finger_time":1552054984819,"fix_duration":813.7134414307701,"trial":56,"RT":725,"MT":541,"sideResp":2,"stimulus":"img/500/equaldotanddens/R/15_Ratio_500_L_1_R_2.png","xmouse":[775,775,775,775,775,775,775,775,775,775,775,775,775,775,775,775,775,775,775,775,775,775,775,775,775,775,775,775,775,775,775,775,775,775,791,810,829,844,858,875,885,900,909,919,941,956,975,1002,1027,1059,1068,1076,1077,1079,1083,1083,1084,1084,1084,1084,1084,1084,1084,1084],"ymouse":[495,495,495,495,495,495,495,495,495,495,495,495,495,495,495,495,495,495,495,495,495,495,495,495,495,495,495,495,495,495,495,495,495,495,490,480,468,454,439,412,397,372,355,339,308,290,266,232,200,156,140,121,117,113,107,103,101,100,100,100,100,100,100,98],"timestamp_mouse":[10,35,46,66,85,106,125,146,165,186,206,226,246,266,287,305,326,345,365,387,405,426,445,465,486,505,527,545,566,586,606,626,646,666,685,705,725,746,766,786,805,826,846,865,885,905,925,945,966,985,1005,1025,1046,1066,1085,1105,1125,1145,1167,1186,1206,1227,1247,1265],"xSR":741.5,"ySR":469.95,"xT1":424.9,"yT1":0,"xT2":1058.1,"yT2":0,"toosoon":0,"cond_shown":"equaldotanddens","ratio_trial":500,"smaller_num":"1","larger_num":"2","correct_side":2,"subjID":"thomasrojas24","gender":"0","age":"8","school":"4"},{"start_time":1552054987299,"click_time":1552054988920,"finger_time":1552054988240,"fix_duration":1077.0557853933697,"trial":57,"RT":941,"MT":680,"sideResp":1,"stimulus":"img/500/randomdotsizeEA/L/10_Ratio_500_L_4_R_2.png","xmouse":[791,791,791,791,791,791,791,791,791,791,791,791,791,791,791,791,791,791,791,791,791,791,791,791,791,791,791,791,791,791,791,791,791,791,791,791,791,791,791,791,791,791,791,791,790,789,786,780,771,748,739,735,731,724,698,680,664,654,644,639,620,603,583,568,561,561,561,561,561,550,544,543,543,543,543,542,538,534,534,534,534,521],"ymouse":[536,536,536,536,536,536,536,536,536,536,536,536,536,536,536,536,536,536,536,536,536,536,536,536,536,536,536,536,536,536,536,536,536,536,536,536,536,536,536,536,536,536,536,536,532,504,486,462,432,380,356,345,333,314,265,237,217,202,189,180,152,132,113,100,94,94,94,94,94,79,71,70,70,70,70,68,64,61,61,60,60,60],"timestamp_mouse":[10,20,40,60,80,100,121,140,160,181,201,221,240,261,280,300,321,340,361,381,401,420,441,461,481,502,521,540,561,581,601,621,640,661,681,701,722,741,761,780,800,820,841,860,881,900,920,941,960,982,1000,1020,1040,1060,1082,1100,1120,1140,1160,1180,1201,1220,1240,1260,1282,1301,1320,1341,1360,1381,1400,1421,1440,1461,1481,1500,1521,1542,1560,1582,1600,1620],"xSR":741.5,"ySR":469.95,"xT1":424.9,"yT1":0,"xT2":1058.1,"yT2":0,"toosoon":0,"cond_shown":"randomdotsizeEA","ratio_trial":500,"smaller_num":"2","larger_num":"4","correct_side":1,"subjID":"thomasrojas24","gender":"0","age":"8","school":"4"},{"start_time":1552054990614,"click_time":1552054991499,"finger_time":1552054991300,"fix_duration":933.4970058695488,"trial":58,"RT":686,"MT":199,"sideResp":2,"stimulus":"img/250/equaldotsize/R/13_Ratio_250_L_2_R_8.png","xmouse":[774,774,774,774,774,774,774,774,774,774,774,774,774,774,774,774,774,774,774,774,774,774,774,774,774,774,774,774,774,774,774,777,786,829,939,995,1032,1051,1062,1065,1072,1080,1089,1109,1120],"ymouse":[516,516,516,516,516,516,516,516,516,516,516,516,516,516,516,516,516,516,516,516,516,516,516,516,516,516,516,516,516,516,515,512,505,480,411,367,330,303,262,244,221,193,163,118,74],"timestamp_mouse":[10,36,46,65,85,106,125,146,165,185,205,225,246,266,286,305,325,347,365,385,406,427,446,466,485,506,526,545,566,586,605,625,646,665,686,706,725,745,767,785,805,826,845,865,885],"xSR":741.5,"ySR":469.95,"xT1":424.9,"yT1":0,"xT2":1058.1,"yT2":0,"toosoon":0,"cond_shown":"equaldotsize","ratio_trial":250,"smaller_num":"2","larger_num":"8","correct_side":2,"subjID":"thomasrojas24","gender":"0","age":"8","school":"4"},{"start_time":1552054992951,"click_time":1552054994019,"finger_time":1552054993719,"fix_duration":668.5571111282505,"trial":59,"RT":768,"MT":300,"sideResp":2,"stimulus":"img/500/equaldotsize/R/1_Ratio_500_L_9_R_18.png","xmouse":[796,796,796,796,796,796,796,796,796,796,796,796,796,796,796,796,796,796,796,796,796,796,796,796,796,796,796,796,796,796,796,796,796,796,796,796,797,839,899,958,1001,1019,1027,1028,1028,1028,1027,1027,1033,1038,1045,1054,1075,1084],"ymouse":[499,499,499,499,499,499,499,499,499,499,499,499,499,499,499,499,499,499,499,499,499,499,499,499,499,499,499,499,499,499,499,499,499,499,499,499,499,481,450,411,378,356,334,269,240,213,193,172,162,150,138,127,107,94],"timestamp_mouse":[11,28,49,67,89,108,128,149,168,187,208,228,249,269,288,309,328,347,369,389,407,427,448,469,487,509,527,547,569,589,608,628,649,668,688,709,728,748,768,788,808,828,848,867,888,909,929,948,969,988,1008,1029,1047,1067],"xSR":741.5,"ySR":469.95,"xT1":424.9,"yT1":0,"xT2":1058.1,"yT2":0,"toosoon":0,"cond_shown":"equaldotsize","ratio_trial":500,"smaller_num":"9","larger_num":"18","correct_side":2,"subjID":"thomasrojas24","gender":"0","age":"8","school":"4"},{"start_time":1552054996517,"click_time":1552054997860,"finger_time":1552054997319,"fix_duration":355.6629264912575,"trial":60,"RT":802,"MT":541,"sideResp":1,"stimulus":"img/250/randomdotsizeEA/L/7_Ratio_250_L_8_R_2.png","xmouse":[791,791,791,791,791,791,791,791,791,791,791,791,791,791,791,791,791,791,791,791,791,791,791,791,791,791,791,791,791,791,791,791,791,791,791,791,791,791,791,789,738,670,594,530,435,423,416,413,410,404,399,393,389,388,386,389,394,399,400,402,402,404,407,411,415,417,423,435],"ymouse":[519,519,519,519,519,519,519,519,519,519,519,519,519,519,519,519,519,519,519,519,519,519,519,519,519,519,519,519,519,519,519,519,519,519,519,519,519,519,519,514,476,430,381,330,232,214,204,198,193,174,157,138,119,104,94,81,73,66,61,57,55,53,52,51,51,51,53,56],"timestamp_mouse":[16,22,42,61,81,102,123,143,161,181,203,223,243,261,281,301,322,343,362,382,401,423,443,462,482,503,522,543,561,583,603,621,641,662,683,702,721,742,763,782,802,822,842,863,884,901,922,943,962,982,1002,1022,1042,1062,1082,1103,1122,1142,1162,1181,1201,1222,1242,1262,1284,1301,1322,1343],"xSR":741.5,"ySR":469.95,"xT1":424.9,"yT1":0,"xT2":1058.1,"yT2":0,"toosoon":0,"cond_shown":"randomdotsizeEA","ratio_trial":250,"smaller_num":"2","larger_num":"8","correct_side":1,"subjID":"thomasrojas24","gender":"0","age":"8","school":"4"},{"start_time":1552055000212,"click_time":1552055000999,"finger_time":1552055000799,"fix_duration":1411.587728503981,"trial":61,"RT":587,"MT":200,"sideResp":1,"stimulus