[{"start_time":1552073360090,"click_time":1552073361212,"finger_time":1552073360103,"fix_duration":1373.3227261477955,"trial":0,"RT":13,"MT":1109,"sideResp":1,"stimulus":[],"xmouse":[817,817,817,817,817,817,817,817,817,817,817,817,817,817,817,817,817,817,817,817,817,817,817,817,817,817,817,817,817,817,817,817,817,817,817,817,817,817,817,817,817,817,817,817,817,817,817,817,812,783,664,609,580,561,530,518],"ymouse":[549,549,549,549,549,549,549,549,549,549,549,549,549,549,549,549,549,549,549,549,549,549,549,549,549,549,549,549,549,549,549,549,549,549,549,549,549,549,549,549,549,549,549,549,549,549,549,549,533,440,224,160,131,112,80,70],"timestamp_mouse":[13,44,62,82,103,123,143,162,182,202,222,243,262,282,303,323,342,363,382,403,422,442,463,483,503,522,542,563,583,602,622,642,662,683,703,723,743,762,783,803,822,842,863,882,902,923,942,963,983,1002,1023,1042,1063,1082,1104,1122],"xSR":741.5,"ySR":500.5,"xT1":424.9,"yT1":0,"xT2":1058.1,"yT2":0,"toosoon":0,"cond_shown":"Incongruent","ratio_trial":300,"L_num":4,"L_den":5,"R_num":6,"R_den":12,"correct_side":1,"subjID":"thomassantana7","gender":"0","age":"9","school":"4","test":{"fix_dur":[250,1500],"timestim":1000,"targets_dim":[100,100],"targets_relative_coord":[0.3,0.7],"size_stim":[880,420],"start_dim":[100,100],"size_start":[300,300],"size_fix":60,"samplingrate":20,"img_types":["Congruent","Incongruent"],"ratios":[100,200,300],"rep_conds":19,"nTrials":120,"trials_to_rest":500,"Trials_order":[29,118,21,49,81,46,110,53,42,87,74,44,6,93,112,63,27,119,106,11,12,17,96,5,3,10,18,50,1,70,100,45,107,14,72,30,33,117,75,41,104,64,97,57,89,84,16,20,105,98,92,35,22,65,101,79,109,73,60,68,113,102,88,66,58,38,24,76,32,78,61,80,115,23,91,55,51,2,83,31,52,9,116,36,19,82,37,43,0,34,7,85,28,8,26,15,48,4,108,95,54,39,86,111,40,114,47,25,13,77,59,90,94,56,103,62,71,67,69,99],"cond_shown":["Incongruent","Congruent","Incongruent","Incongruent","Incongruent","Congruent","Congruent","Incongruent","Congruent","Incongruent","Congruent","Congruent","Congruent","Incongruent","Congruent","Incongruent","Incongruent","Incongruent","Congruent","Incongruent","Congruent","Incongruent","Congruent","Incongruent","Incongruent","Congruent","Congruent","Congruent","Incongruent","Congruent","Congruent","Incongruent","Incongruent","Congruent","Congruent","Congruent","Incongruent","Incongruent","Incongruent","Incongruent","Congruent","Congruent","Incongruent","Incongruent","Incongruent","Congruent","Congruent","Congruent","Incongruent","Congruent","Congruent","Incongruent","Congruent","Incongruent","Incongruent","Incongruent","Incongruent","Incongruent","Congruent","Congruent","Incongruent","Congruent","Congruent","Congruent","Congruent","Congruent","Congruent","Congruent","Congruent","Congruent","Incongruent","Congruent","Incongruent","Incongruent","Incongruent","Incongruent","Incongruent","Congruent","Incongruent","Incongruent","Congruent","Incongruent","Congruent","Congruent","Incongruent","Congruent","Incongruent","Incongruent","Congruent","Congruent","Incongruent","Incongruent","Congruent","Congruent","Congruent","Incongruent","Congruent","Congruent","Congruent","Incongruent","Congruent","Incongruent","Congruent","Incongruent","Congruent","Congruent","Incongruent","Incongruent","Incongruent","Incongruent","Incongruent","Congruent","Congruent","Congruent","Incongruent","Congruent","Incongruent","Incongruent","Incongruent","Incongruent"],"ratio_trial":[300,300,200,100,200,300,200,300,100,200,200,200,100,200,300,200,200,300,300,300,100,300,100,300,200,300,100,200,100,300,300,200,300,200,100,100,200,200,200,300,200,300,100,200,300,100,300,200,200,200,200,300,300,300,300,100,100,100,100,200,300,100,300,100,300,200,100,300,200,100,100,200,100,300,100,100,200,200,300,100,300,200,200,100,100,300,100,100,100,300,100,100,300,200,200,200,100,300,100,300,100,200,200,200,300,100,300,100,100,300,300,100,300,200,100,200,300,100,200,200],"left_num":[4,9,4,3,7,20,6,13,2,6,8,7,1,14,5,4,14,13,5,1,7,3,12,4,9,4,3,3,3,8,1,3,4,8,8,11,7,9,7,4,12,11,8,1,13,1,4,20,7,4,12,4,1,4,4,10,9,13,6,3,4,7,1,4,3,1,9,1,14,2,17,5,17,4,13,3,7,16,13,8,1,7,7,15,3,20,6,8,7,8,3,6,12,20,14,7,6,4,7,2,3,14,7,14,20,1,4,8,9,1,4,1,24,9,13,6,7,8,4,7],"right_num":[6,3,1,11,4,8,11,12,6,3,2,18,3,12,6,1,12,12,7,2,9,4,13,2,8,2,4,14,4,1,11,11,8,2,2,6,12,8,12,6,6,1,6,2,12,3,13,9,6,3,6,2,7,8,2,9,13,6,15,14,8,9,3,15,4,21,8,3,6,11,10,14,10,6,6,11,12,12,12,1,19,4,2,13,7,9,3,1,9,1,7,11,2,9,6,6,15,2,15,6,4,12,2,6,14,18,2,1,20,2,2,18,8,4,6,3,8,1,14,8],"left_den":[5,10,30,5,15,25,20,26,5,20,15,15,2,30,25,30,30,26,25,2,14,6,30,20,15,5,20,10,6,16,5,4,5,15,16,22,10,15,10,5,15,22,16,3,26,2,20,25,15,10,20,20,20,5,20,25,15,26,12,10,5,14,5,10,6,2,15,5,28,5,30,10,30,5,26,5,10,20,26,20,3,15,21,25,9,25,12,20,14,16,9,10,24,25,28,15,12,5,14,4,20,30,21,30,25,2,20,20,10,2,20,2,30,20,26,15,10,20,6,10],"right_den":[12,5,3,22,6,16,22,15,12,6,6,27,5,18,12,3,18,15,14,10,15,20,26,4,10,4,16,28,10,5,22,20,16,6,5,15,24,10,24,12,10,5,10,15,15,5,26,15,9,15,15,4,20,16,4,18,26,10,25,28,16,15,6,30,5,30,16,6,20,22,15,20,15,12,10,22,24,20,15,2,30,6,15,26,30,18,5,2,15,5,30,22,10,15,20,9,25,4,25,30,16,18,15,9,28,30,4,2,25,10,4,30,16,16,10,15,20,2,30,16],"correct_side":[1,1,2,1,2,1,2,2,2,2,1,2,2,2,2,2,2,2,2,1,2,1,2,2,2,1,2,2,1,1,2,1,1,1,1,1,1,2,1,1,1,1,2,1,2,2,2,1,2,1,1,2,2,1,2,2,1,2,2,2,1,2,2,2,2,2,1,2,1,2,2,2,2,1,2,1,1,1,2,2,2,2,1,1,1,1,2,2,2,1,1,1,1,1,1,2,2,1,2,1,2,2,1,2,1,2,2,2,1,1,2,2,1,1,2,1,1,2,1,1],"img_shown":["img2/300/Incongruent/L/I_Dist_300_LN_4_LD_5_RN_6_RD_12_0.png","img2/300/Congruent/L/C_Dist_300_LN_9_LD_10_RN_3_RD_5_0.png","img2/200/Incongruent/R/I_Dist_200_LN_4_LD_30_RN_1_RD_3_1.png","img2/100/Incongruent/L/I_Dist_100_LN_3_LD_5_RN_11_RD_22_0.png","img2/200/Incongruent/R/I_Dist_200_LN_7_LD_15_RN_4_RD_6_1.png","img2/300/Congruent/L/C_Dist_300_LN_20_LD_25_RN_8_RD_16_0.png","img2/200/Congruent/R/C_Dist_200_LN_6_LD_20_RN_11_RD_22_1.png","img2/300/Incongruent/R/I_Dist_300_LN_13_LD_26_RN_12_RD_15_1.png","img2/100/Congruent/R/C_Dist_100_LN_2_LD_5_RN_6_RD_12_1.png","img2/200/Incongruent/R/I_Dist_200_LN_6_LD_20_RN_3_RD_6_1.png","img2/200/Congruent/L/C_Dist_200_LN_8_LD_15_RN_2_RD_6_0.png","img2/200/Congruent/R/C_Dist_200_LN_7_LD_15_RN_18_RD_27_1.png","img2/100/Congruent/R/C_Dist_100_LN_1_LD_2_RN_3_RD_5_1.png","img2/200/Incongruent/R/I_Dist_200_LN_14_LD_30_RN_12_RD_18_1.png","img2/300/Congruent/R/C_Dist_300_LN_5_LD_25_RN_6_RD_12_1.png","img2/200/Incongruent/R/I_Dist_200_LN_4_LD_30_RN_1_RD_3_1.png","img2/200/Incongruent/R/I_Dist_200_LN_14_LD_30_RN_12_RD_18_1.png","img2/300/Incongruent/R/I_Dist_300_LN_13_LD_26_RN_12_RD_15_1.png","img2/300/Congruent/R/C_Dist_300_LN_5_LD_25_RN_7_RD_14_1.png","img2/300/Incongruent/L/I_Dist_300_LN_1_LD_2_RN_2_RD_10_0.png","img2/100/Congruent/R/C_Dist_100_LN_7_LD_14_RN_9_RD_15_1.png","img2/300/Incongruent/L/I_Dist_300_LN_3_LD_6_RN_4_RD_20_0.png","img2/100/Congruent/R/C_Dist_100_LN_12_LD_30_RN_13_RD_26_1.png","img2/300/Incongruent/R/I_Dist_300_LN_4_LD_20_RN_2_RD_4_1.png","img2/200/Incongruent/R/I_Dist_200_LN_9_LD_15_RN_8_RD_10_1.png","img2/300/Congruent/L/C_Dist_300_LN_4_LD_5_RN_2_RD_4_0.png","img2/100/Congruent/R/C_Dist_100_LN_3_LD_20_RN_4_RD_16_1.png","img2/200/Congruent/R/C_Dist_200_LN_3_LD_10_RN_14_RD_28_1.png","img2/100/Incongruent/L/I_Dist_100_LN_3_LD_6_RN_4_RD_10_0.png","img2/300/Congruent/L/C_Dist_300_LN_8_LD_16_RN_1_RD_5_0.png","img2/300/Congruent/R/C_Dist_300_LN_1_LD_5_RN_11_RD_22_1.png","img2/200/Incongruent/L/I_Dist_200_LN_3_LD_4_RN_11_RD_20_0.png","img2/300/Incongruent/L/I_Dist_300_LN_4_LD_5_RN_8_RD_16_0.png","img2/200/Congruent/L/C_Dist_200_LN_8_LD_15_RN_2_RD_6_0.png","img2/100/Congruent/L/C_Dist_100_LN_8_LD_16_RN_2_RD_5_0.png","img2/100/Congruent/L/C_Dist_100_LN_11_LD_22_RN_6_RD_15_0.png","img2/200/Incongruent/L/I_Dist_200_LN_7_LD_10_RN_12_RD_24_0.png","img2/200/Incongruent/R/I_Dist_200_LN_9_LD_15_RN_8_RD_10_1.png","img2/200/Incongruent/L/I_Dist_200_LN_7_LD_10_RN_12_RD_24_0.png","img2/300/Incongruent/L/I_Dist_300_LN_4_LD_5_RN_6_RD_12_0.png","img2/200/Congruent/L/C_Dist_200_LN_12_LD_15_RN_6_RD_10_0.png","img2/300/Congruent/L/C_Dist_300_LN_11_LD_22_RN_1_RD_5_0.png","img2/100/Incongruent/R/I_Dist_100_LN_8_LD_16_RN_6_RD_10_1.png","img2/200/Incongruent/L/I_Dist_200_LN_1_LD_3_RN_2_RD_15_0.png","img2/300/Incongruent/R/I_Dist_300_LN_13_LD_26_RN_12_RD_15_1.png","img2/100/Congruent/R/C_Dist_100_LN_1_LD_2_RN_3_RD_5_1.png","img2/300/Congruent/R/C_Dist_300_LN_4_LD_20_RN_13_RD_26_1.png","img2/200/Congruent/L/C_Dist_200_LN_20_LD_25_RN_9_RD_15_0.png","img2/200/Incongruent/R/I_Dist_200_LN_7_LD_15_RN_6_RD_9_1.png","img2/200/Congruent/L/C_Dist_200_LN_4_LD_10_RN_3_RD_15_0.png","img2/200/Congruent/L/C_Dist_200_LN_12_LD_20_RN_6_RD_15_0.png","img2/300/Incongruent/R/I_Dist_300_LN_4_LD_20_RN_2_RD_4_1.png","img2/300/Congruent/R/C_Dist_300_LN_1_LD_20_RN_7_RD_20_1.png","img2/300/Incongruent/L/I_Dist_300_LN_4_LD_5_RN_8_RD_16_0.png","img2/300/Incongruent/R/I_Dist_300_LN_4_LD_20_RN_2_RD_4_1.png","img2/100/Incongruent/R/I_Dist_100_LN_10_LD_25_RN_9_RD_18_1.png","img2/100/Incongruent/L/I_Dist_100_LN_9_LD_15_RN_13_RD_26_0.png","img2/100/Incongruent/R/I_Dist_100_LN_13_LD_26_RN_6_RD_10_1.png","img2/100/Congruent/R/C_Dist_100_LN_6_LD_12_RN_15_RD_25_1.png","img2/200/Congruent/R/C_Dist_200_LN_3_LD_10_RN_14_RD_28_1.png","img2/300/Incongruent/L/I_Dist_300_LN_4_LD_5_RN_8_RD_16_0.png","img2/100/Congruent/R/C_Dist_100_LN_7_LD_14_RN_9_RD_15_1.png","img2/300/Congruent/R/C_Dist_300_LN_1_LD_5_RN_3_RD_6_1.png","img2/100/Congruent/R/C_Dist_100_LN_4_LD_10_RN_15_RD_30_1.png","img2/300/Congruent/R/C_Dist_300_LN_3_LD_6_RN_4_RD_5_1.png","img2/200/Congruent/R/C_Dist_200_LN_1_LD_2_RN_21_RD_30_1.png","img2/100/Congruent/L/C_Dist_100_LN_9_LD_15_RN_8_RD_16_0.png","img2/300/Congruent/R/C_Dist_300_LN_1_LD_5_RN_3_RD_6_1.png","img2/200/Congruent/L/C_Dist_200_LN_14_LD_28_RN_6_RD_20_0.png","img2/100/Congruent/R/C_Dist_100_LN_2_LD_5_RN_11_RD_22_1.png","img2/100/Incongruent/R/I_Dist_100_LN_17_LD_30_RN_10_RD_15_1.png","img2/200/Congruent/R/C_Dist_200_LN_5_LD_10_RN_14_RD_20_1.png","img2/100/Incongruent/R/I_Dist_100_LN_17_LD_30_RN_10_RD_15_1.png","img2/300/Incongruent/L/I_Dist_300_LN_4_LD_5_RN_6_RD_12_0.png","img2/100/Incongruent/R/I_Dist_100_LN_13_LD_26_RN_6_RD_10_1.png","img2/100/Incongruent/L/I_Dist_100_LN_3_LD_5_RN_11_RD_22_0.png","img2/200/Incongruent/L/I_Dist_200_LN_7_LD_10_RN_12_RD_24_0.png","img2/200/Congruent/L/C_Dist_200_LN_16_LD_20_RN_12_RD_20_0.png","img2/300/Incongruent/R/I_Dist_300_LN_13_LD_26_RN_12_RD_15_1.png","img2/100/Incongruent/R/I_Dist_100_LN_8_LD_20_RN_1_RD_2_1.png","img2/300/Congruent/R/C_Dist_300_LN_1_LD_3_RN_19_RD_30_1.png","img2/200/Incongruent/R/I_Dist_200_LN_7_LD_15_RN_4_RD_6_1.png","img2/200/Congruent/L/C_Dist_200_LN_7_LD_21_RN_2_RD_15_0.png","img2/100/Congruent/L/C_Dist_100_LN_15_LD_25_RN_13_RD_26_0.png","img2/100/Incongruent/L/I_Dist_100_LN_3_LD_9_RN_7_RD_30_0.png","img2/300/Congruent/L/C_Dist_300_LN_20_LD_25_RN_9_RD_18_0.png","img2/100/Incongruent/R/I_Dist_100_LN_6_LD_12_RN_3_RD_5_1.png","img2/100/Incongruent/R/I_Dist_100_LN_8_LD_20_RN_1_RD_2_1.png","img2/100/Congruent/R/C_Dist_100_LN_7_LD_14_RN_9_RD_15_1.png","img2/300/Congruent/L/C_Dist_300_LN_8_LD_16_RN_1_RD_5_0.png","img2/100/Incongruent/L/I_Dist_100_LN_3_LD_9_RN_7_RD_30_0.png","img2/100/Incongruent/L/I_Dist_100_LN_6_LD_10_RN_11_RD_22_0.png","img2/300/Congruent/L/C_Dist_300_LN_12_LD_24_RN_2_RD_10_0.png","img2/200/Congruent/L/C_Dist_200_LN_20_LD_25_RN_9_RD_15_0.png","img2/200/Congruent/L/C_Dist_200_LN_14_LD_28_RN_6_RD_20_0.png","img2/200/Incongruent/R/I_Dist_200_LN_7_LD_15_RN_6_RD_9_1.png","img2/100/Congruent/R/C_Dist_100_LN_6_LD_12_RN_15_RD_25_1.png","img2/300/Congruent/L/C_Dist_300_LN_4_LD_5_RN_2_RD_4_0.png","img2/100/Congruent/R/C_Dist_100_LN_7_LD_14_RN_15_RD_25_1.png","img2/300/Incongruent/L/I_Dist_300_LN_2_LD_4_RN_6_RD_30_0.png","img2/100/Congruent/R/C_Dist_100_LN_3_LD_20_RN_4_RD_16_1.png","img2/200/Incongruent/R/I_Dist_200_LN_14_LD_30_RN_12_RD_18_1.png","img2/200/Congruent/L/C_Dist_200_LN_7_LD_21_RN_2_RD_15_0.png","img2/200/Incongruent/R/I_Dist_200_LN_14_LD_30_RN_6_RD_9_1.png","img2/300/Congruent/L/C_Dist_300_LN_20_LD_25_RN_14_RD_28_0.png","img2/100/Congruent/R/C_Dist_100_LN_1_LD_2_RN_18_RD_30_1.png","img2/300/Incongruent/R/I_Dist_300_LN_4_LD_20_RN_2_RD_4_1.png","img2/100/Incongruent/R/I_Dist_100_LN_8_LD_20_RN_1_RD_2_1.png","img2/100/Incongruent/L/I_Dist_100_LN_9_LD_10_RN_20_RD_25_0.png","img2/300/Incongruent/L/I_Dist_300_LN_1_LD_2_RN_2_RD_10_0.png","img2/300/Incongruent/R/I_Dist_300_LN_4_LD_20_RN_2_RD_4_1.png","img2/100/Congruent/R/C_Dist_100_LN_1_LD_2_RN_18_RD_30_1.png","img2/300/Congruent/L/C_Dist_300_LN_24_LD_30_RN_8_RD_16_0.png","img2/200/Congruent/L/C_Dist_200_LN_9_LD_20_RN_4_RD_16_0.png","img2/100/Incongruent/R/I_Dist_100_LN_13_LD_26_RN_6_RD_10_1.png","img2/200/Congruent/L/C_Dist_200_LN_6_LD_15_RN_3_RD_15_0.png","img2/300/Incongruent/L/I_Dist_300_LN_7_LD_10_RN_8_RD_20_0.png","img2/100/Incongruent/R/I_Dist_100_LN_8_LD_20_RN_1_RD_2_1.png","img2/200/Incongruent/L/I_Dist_200_LN_4_LD_6_RN_14_RD_30_0.png","img2/200/Incongruent/L/I_Dist_200_LN_7_LD_10_RN_8_RD_16_0.png"],"dist100_C":[["C_Dist_100_LN_10_LD_25_RN_3_RD_10_0.png","C_Dist_100_LN_11_LD_22_RN_4_RD_10_0.png","C_Dist_100_LN_11_LD_22_RN_6_RD_15_0.png","C_Dist_100_LN_15_LD_25_RN_13_RD_26_0.png","C_Dist_100_LN_3_LD_6_RN_2_RD_5_0.png","C_Dist_100_LN_6_LD_20_RN_5_RD_25_0.png","C_Dist_100_LN_8_LD_16_RN_2_RD_5_0.png","C_Dist_100_LN_9_LD_15_RN_8_RD_16_0.png"],["C_Dist_100_LN_1_LD_2_RN_18_RD_30_1.png","C_Dist_100_LN_1_LD_2_RN_3_RD_5_1.png","C_Dist_100_LN_12_LD_30_RN_13_RD_26_1.png","C_Dist_100_LN_2_LD_5_RN_11_RD_22_1.png","C_Dist_100_LN_2_LD_5_RN_6_RD_12_1.png","C_Dist_100_LN_3_LD_20_RN_4_RD_16_1.png","C_Dist_100_LN_4_LD_10_RN_15_RD_30_1.png","C_Dist_100_LN_4_LD_8_RN_6_RD_10_1.png","C_Dist_100_LN_6_LD_12_RN_15_RD_25_1.png","C_Dist_100_LN_7_LD_14_RN_15_RD_25_1.png","C_Dist_100_LN_7_LD_14_RN_9_RD_15_1.png"]],"dist100_I":[["I_Dist_100_LN_1_LD_2_RN_8_RD_20_0.png","I_Dist_100_LN_2_LD_4_RN_6_RD_15_0.png","I_Dist_100_LN_2_LD_4_RN_8_RD_20_0.png","I_Dist_100_LN_3_LD_5_RN_11_RD_22_0.png","I_Dist_100_LN_3_LD_5_RN_8_RD_16_0.png","I_Dist_100_LN_3_LD_6_RN_4_RD_10_0.png","I_Dist_100_LN_3_LD_9_RN_7_RD_30_0.png","I_Dist_100_LN_4_LD_8_RN_8_RD_20_0.png","I_Dist_100_LN_6_LD_10_RN_11_RD_22_0.png","I_Dist_100_LN_6_LD_10_RN_13_RD_26_0.png","I_Dist_100_LN_6_LD_10_RN_7_RD_14_0.png","I_Dist_100_LN_9_LD_10_RN_20_RD_25_0.png","I_Dist_100_LN_9_LD_15_RN_13_RD_26_0.png","I_Dist_100_LN_9_LD_15_RN_14_RD_28_0.png"],["I_Dist_100_LN_10_LD_25_RN_8_RD_16_1.png","I_Dist_100_LN_10_LD_25_RN_9_RD_18_1.png","I_Dist_100_LN_11_LD_22_RN_9_RD_15_1.png","I_Dist_100_LN_12_LD_24_RN_9_RD_15_1.png","I_Dist_100_LN_12_LD_30_RN_2_RD_4_1.png","I_Dist_100_LN_13_LD_26_RN_12_RD_20_1.png","I_Dist_100_LN_13_LD_26_RN_6_RD_10_1.png","I_Dist_100_LN_17_LD_30_RN_10_RD_15_1.png","I_Dist_100_LN_6_LD_12_RN_3_RD_5_1.png","I_Dist_100_LN_8_LD_16_RN_6_RD_10_1.png","I_Dist_100_LN_8_LD_20_RN_1_RD_2_1.png","I_Dist_100_LN_9_LD_18_RN_6_RD_10_1.png"]],"dist100_S":[["E_Dist_100_LN_2_LD_12_RN_2_RD_30_0.png","E_Dist_100_LN_6_LD_10_RN_6_RD_12_0.png"],["E_Dist_100_LN_6_LD_12_RN_6_RD_10_1.png"]],"dist200_C":[["C_Dist_200_LN_11_LD_22_RN_3_RD_10_0.png","C_Dist_200_LN_12_LD_15_RN_6_RD_10_0.png","C_Dist_200_LN_12_LD_20_RN_6_RD_15_0.png","C_Dist_200_LN_14_LD_28_RN_6_RD_20_0.png","C_Dist_200_LN_15_LD_25_RN_4_RD_10_0.png","C_Dist_200_LN_16_LD_20_RN_12_RD_20_0.png","C_Dist_200_LN_16_LD_30_RN_9_RD_27_0.png","C_Dist_200_LN_20_LD_25_RN_9_RD_15_0.png","C_Dist_200_LN_21_LD_30_RN_2_RD_4_0.png","C_Dist_200_LN_4_LD_10_RN_3_RD_15_0.png","C_Dist_200_LN_4_LD_8_RN_3_RD_10_0.png","C_Dist_200_LN_6_LD_15_RN_3_RD_15_0.png","C_Dist_200_LN_7_LD_21_RN_2_RD_15_0.png","C_Dist_200_LN_8_LD_15_RN_2_RD_6_0.png","C_Dist_200_LN_8_LD_15_RN_3_RD_9_0.png","C_Dist_200_LN_8_LD_15_RN_7_RD_21_0.png","C_Dist_200_LN_9_LD_20_RN_4_RD_16_0.png"],["C_Dist_200_LN_1_LD_2_RN_21_RD_30_1.png","C_Dist_200_LN_13_LD_26_RN_14_RD_20_1.png","C_Dist_200_LN_3_LD_10_RN_11_RD_22_1.png","C_Dist_200_LN_3_LD_10_RN_14_RD_28_1.png","C_Dist_200_LN_3_LD_10_RN_7_RD_14_1.png","C_Dist_200_LN_3_LD_12_RN_9_RD_20_1.png","C_Dist_200_LN_3_LD_6_RN_14_RD_20_1.png","C_Dist_200_LN_5_LD_10_RN_14_RD_20_1.png","C_Dist_200_LN_6_LD_12_RN_7_RD_10_1.png","C_Dist_200_LN_6_LD_20_RN_11_RD_22_1.png","C_Dist_200_LN_7_LD_15_RN_18_RD_27_1.png","C_Dist_200_LN_9_LD_30_RN_13_RD_26_1.png"]],"dist200_I":[["I_Dist_200_LN_1_LD_2_RN_3_RD_10_0.png","I_Dist_200_LN_1_LD_3_RN_2_RD_15_0.png","I_Dist_200_LN_3_LD_4_RN_11_RD_20_0.png","I_Dist_200_LN_4_LD_5_RN_6_RD_10_0.png","I_Dist_200_LN_4_LD_6_RN_14_RD_30_0.png","I_Dist_200_LN_7_LD_10_RN_12_RD_24_0.png","I_Dist_200_LN_7_LD_10_RN_14_RD_28_0.png","I_Dist_200_LN_7_LD_10_RN_8_RD_16_0.png"],["I_Dist_200_LN_11_LD_20_RN_3_RD_4_1.png","I_Dist_200_LN_14_LD_30_RN_12_RD_18_1.png","I_Dist_200_LN_14_LD_30_RN_6_RD_9_1.png","I_Dist_200_LN_3_LD_10_RN_1_RD_2_1.png","I_Dist_200_LN_4_LD_30_RN_1_RD_3_1.png","I_Dist_200_LN_6_LD_20_RN_3_RD_6_1.png","I_Dist_200_LN_7_LD_15_RN_4_RD_6_1.png","I_Dist_200_LN_7_LD_15_RN_6_RD_9_1.png","I_Dist_200_LN_9_LD_15_RN_8_RD_10_1.png"]],"dist200_S":[["E_Dist_200_LN_3_LD_6_RN_3_RD_10_0.png"],["E_Dist_200_LN_3_LD_10_RN_3_RD_6_1.png"]],"dist300_C":[["C_Dist_300_LN_11_LD_22_RN_1_RD_5_0.png","C_Dist_300_LN_11_LD_22_RN_2_RD_10_0.png","C_Dist_300_LN_11_LD_22_RN_4_RD_20_0.png","C_Dist_300_LN_12_LD_24_RN_2_RD_10_0.png","C_Dist_300_LN_18_LD_20_RN_9_RD_15_0.png","C_Dist_300_LN_20_LD_25_RN_13_RD_26_0.png","C_Dist_300_LN_20_LD_25_RN_14_RD_28_0.png","C_Dist_300_LN_20_LD_25_RN_5_RD_10_0.png","C_Dist_300_LN_20_LD_25_RN_8_RD_16_0.png","C_Dist_300_LN_20_LD_25_RN_9_RD_18_0.png","C_Dist_300_LN_24_LD_30_RN_2_RD_4_0.png","C_Dist_300_LN_24_LD_30_RN_8_RD_16_0.png","C_Dist_300_LN_3_LD_6_RN_2_RD_10_0.png","C_Dist_300_LN_4_LD_10_RN_1_RD_10_0.png","C_Dist_300_LN_4_LD_5_RN_2_RD_4_0.png","C_Dist_300_LN_8_LD_16_RN_1_RD_5_0.png","C_Dist_300_LN_9_LD_10_RN_3_RD_5_0.png"],["C_Dist_300_LN_1_LD_20_RN_7_RD_20_1.png","C_Dist_300_LN_1_LD_3_RN_19_RD_30_1.png","C_Dist_300_LN_1_LD_30_RN_8_RD_24_1.png","C_Dist_300_LN_1_LD_5_RN_11_RD_22_1.png","C_Dist_300_LN_1_LD_5_RN_3_RD_6_1.png","C_Dist_300_LN_1_LD_5_RN_6_RD_12_1.png","C_Dist_300_LN_2_LD_10_RN_12_RD_24_1.png","C_Dist_300_LN_2_LD_20_RN_10_RD_25_1.png","C_Dist_300_LN_3_LD_12_RN_11_RD_20_1.png","C_Dist_300_LN_3_LD_6_RN_4_RD_5_1.png","C_Dist_300_LN_4_LD_20_RN_13_RD_26_1.png","C_Dist_300_LN_5_LD_25_RN_6_RD_12_1.png","C_Dist_300_LN_5_LD_25_RN_7_RD_14_1.png","C_Dist_300_LN_7_LD_14_RN_20_RD_25_1.png","C_Dist_300_LN_8_LD_15_RN_10_RD_12_1.png"]],"dist300_I":[["I_Dist_300_LN_1_LD_2_RN_2_RD_10_0.png","I_Dist_300_LN_1_LD_2_RN_3_RD_15_0.png","I_Dist_300_LN_2_LD_4_RN_6_RD_30_0.png","I_Dist_300_LN_3_LD_6_RN_4_RD_20_0.png","I_Dist_300_LN_4_LD_5_RN_6_RD_12_0.png","I_Dist_300_LN_4_LD_5_RN_8_RD_16_0.png","I_Dist_300_LN_7_LD_10_RN_8_RD_20_0.png","I_Dist_300_LN_8_LD_10_RN_14_RD_28_0.png","I_Dist_300_LN_8_LD_10_RN_9_RD_18_0.png"],["I_Dist_300_LN_13_LD_26_RN_12_RD_15_1.png","I_Dist_300_LN_4_LD_20_RN_2_RD_4_1.png"]],"dist300_S":[["E_Dist_300_LN_9_LD_12_RN_9_RD_20_0.png"],["E_Dist_300_LN_18_LD_30_RN_18_RD_20_1.png","E_Dist_300_LN_3_LD_10_RN_3_RD_5_1.png","E_Dist_300_LN_9_LD_20_RN_9_RD_12_1.png"]],"dist500_C":[["C_Dist_500_LN_10_LD_13_RN_7_RD_26_0.png","C_Dist_500_LN_10_LD_15_RN_4_RD_24_0.png","C_Dist_500_LN_12_LD_16_RN_3_RD_12_0.png","C_Dist_500_LN_12_LD_18_RN_4_RD_24_0.png","C_Dist_500_LN_15_LD_18_RN_5_RD_15_0.png","C_Dist_500_LN_15_LD_20_RN_1_RD_4_0.png","C_Dist_500_LN_18_LD_27_RN_1_RD_6_0.png","C_Dist_500_LN_20_LD_24_RN_1_RD_3_0.png","C_Dist_500_LN_20_LD_24_RN_3_RD_9_0.png","C_Dist_500_LN_20_LD_24_RN_7_RD_21_0.png","C_Dist_500_LN_20_LD_28_RN_3_RD_14_0.png","C_Dist_500_LN_21_LD_28_RN_6_RD_24_0.png","C_Dist_500_LN_22_LD_28_RN_2_RD_7_0.png","C_Dist_500_LN_25_LD_30_RN_9_RD_27_0.png","C_Dist_500_LN_4_LD_6_RN_1_RD_6_0.png","C_Dist_500_LN_5_LD_6_RN_2_RD_6_0.png","C_Dist_500_LN_6_LD_9_RN_1_RD_6_0.png","C_Dist_500_LN_7_LD_10_RN_1_RD_5_0.png","C_Dist_500_LN_8_LD_12_RN_1_RD_6_0.png","C_Dist_500_LN_8_LD_12_RN_4_RD_24_0.png"],["C_Dist_500_LN_1_LD_4_RN_12_RD_16_1.png","C_Dist_500_LN_1_LD_4_RN_9_RD_12_1.png","C_Dist_500_LN_1_LD_9_RN_11_RD_18_1.png","C_Dist_500_LN_10_LD_24_RN_22_RD_24_1.png","C_Dist_500_LN_2_LD_12_RN_10_RD_15_1.png","C_Dist_500_LN_2_LD_12_RN_12_RD_18_1.png","C_Dist_500_LN_2_LD_12_RN_4_RD_6_1.png","C_Dist_500_LN_2_LD_24_RN_7_RD_12_1.png","C_Dist_500_LN_2_LD_5_RN_18_RD_20_1.png","C_Dist_500_LN_2_LD_5_RN_9_RD_10_1.png","C_Dist_500_LN_2_LD_8_RN_12_RD_16_1.png","C_Dist_500_LN_2_LD_8_RN_21_RD_28_1.png","C_Dist_500_LN_3_LD_10_RN_4_RD_5_1.png","C_Dist_500_LN_3_LD_12_RN_15_RD_20_1.png","C_Dist_500_LN_3_LD_30_RN_6_RD_10_1.png","C_Dist_500_LN_3_LD_8_RN_14_RD_16_1.png","C_Dist_500_LN_4_LD_16_RN_15_RD_20_1.png","C_Dist_500_LN_4_LD_24_RN_12_RD_18_1.png","C_Dist_500_LN_5_LD_14_RN_6_RD_7_1.png","C_Dist_500_LN_7_LD_21_RN_20_RD_24_1.png","C_Dist_500_LN_7_LD_28_RN_12_RD_16_1.png","C_Dist_500_LN_7_LD_28_RN_9_RD_12_1.png","C_Dist_500_LN_9_LD_27_RN_20_RD_24_1.png"]],"dist500_I":[["I_Dist_500_LN_2_LD_3_RN_4_RD_24_0.png","I_Dist_500_LN_5_LD_6_RN_6_RD_18_0.png","I_Dist_500_LN_7_LD_8_RN_9_RD_24_0.png"],["I_Dist_500_LN_7_LD_21_RN_5_RD_6_1.png"]],"dist500_S":[["E_Dist_500_LN_6_LD_8_RN_6_RD_24_0.png"],["E_Dist_500_LN_2_LD_12_RN_2_RD_3_1.png","E_Dist_500_LN_6_LD_24_RN_6_RD_8_1.png"]]}},{"start_time":1552073363501,"click_time":1552073364613,"finger_time":1552073364033,"fix_duration":1267.2196569844468,"trial":1,"RT":532,"MT":580,"sideResp":2,"stimulus":[],"xmouse":[778,778,778,778,778,778,778,778,778,778,778,778,778,778,778,778,778,778,778,778,780,786,795,795,795,808,887,960,1000,1075,1098,1100,1102,1105,1109,1116,1119,1120,1120,1120,1109,1104,1102,1099,1096,1086,1086,1091,1097,1098,1098,1098,1096,1094,1090,1076],"ymouse":[634,634,634,634,634,634,634,634,634,634,634,634,634,634,634,634,634,634,634,634,632,628,625,624,624,622,599,575,557,522,503,501,500,498,495,485,479,469,464,457,441,432,419,401,377,313,282,246,229,219,209,206,199,187,161,51],"timestamp_mouse":[11,38,52,71,92,111,132,151,172,192,212,232,253,271,292,312,331,352,372,391,412,431,452,472,491,512,532,551,571,591,612,631,651,671,691,711,731,751,771,791,812,831,852,871,891,911,932,951,972,991,1011,1031,1052,1071,1091,1112],"xSR":741.5,"ySR":573.95,"xT1":424.9,"yT1":0,"xT2":1058.1,"yT2":0,"toosoon":0,"cond_shown":"Congruent","ratio_trial":300,"L_num":9,"L_den":10,"R_num":3,"R_den":5,"correct_side":1,"subjID":"thomassantana7","gender":"0","school":"4","age":"9"},{"start_time":1552073368241,"click_time":1552073369433,"finger_time":1552073368532,"fix_duration":1367.618833180108,"trial":2,"RT":291,"MT":901,"sideResp":1,"stimulus":[],"xmouse":[778,778,778,778,778,778,778,778,778,778,778,778,778,778,778,775,769,761,758,758,752,746,740,725,714,700,675,641,567,540,516,505,493,477,470,466,464,464,464,464,464,464,464,467,468,470,471,475,483,484,485,485,485,485,485,485,485,485,485,481],"ymouse":[625,625,625,625,625,625,625,625,625,625,625,625,621,591,563,531,502,470,426,401,361,338,323,296,276,251,211,166,60,14,0,0,0,0,0,0,0,0,0,0,0,0,0,0,0,0,0,0,0,0,0,0,0,0,0,0,0,0,0,4],"timestamp_mouse":[12,40,52,72,92,111,131,153,172,191,212,231,251,271,291,311,331,352,372,392,411,431,451,471,491,511,531,552,571,591,611,631,652,672,692,712,731,752,771,792,811,832,851,871,892,911,932,951,971,992,1012,1032,1051,1071,1092,1112,1132,1151,1171,1191],"xSR":741.5,"ySR":573.95,"xT1":424.9,"yT1":0,"xT2":1058.1,"yT2":0,"toosoon":0,"cond_shown":"Incongruent","ratio_trial":200,"L_num":4,"L_den":30,"R_num":1,"R_den":3,"correct_side":2,"subjID":"thomassantana7","gender":"0","school":"4","age":"9"},{"start_time":1552073372395,"click_time":1552073373074,"finger_time":1552073372712,"fix_duration":1220.1871059897,"trial":3,"RT":317,"MT":362,"sideResp":2,"stimulus":[],"xmouse":[793,793,793,793,793,793,793,793,793,793,793,793,793,793,798,826,856,888,912,925,936,940,948,969,1002,1014,1022,1029,1037,1046,1067,1081,1084,1085],"ymouse":[595,595,595,595,595,595,595,595,595,595,595,595,595,595,590,556,507,463,427,406,385,378,368,352,325,309,296,282,263,240,169,117,100,90],"timestamp_mouse":[18,37,58,78,97,117,138,158,177,197,217,238,257,278,297,317,337,358,377,397,417,437,457,478,498,517,538,557,577,597,617,638,657,678],"xSR":741.5,"ySR":573.95,"xT1":424.9,"yT1":0,"xT2":1058.1,"yT2":0,"toosoon":0,"cond_shown":"Incongruent","ratio_trial":100,"L_num":3,"L_den":5,"R_num":11,"R_den":22,"correct_side":1,"subjID":"thomassantana7","gender":"0","school":"4","age":"9"},{"start_time":1552073384135,"click_time":1552073385473,"finger_time":1552073384552,"fix_duration":699.5543137669596,"trial":4,"RT":417,"MT":921,"sideResp":1,"stimulus":[],"xmouse":[832,832,832,832,832,832,832,832,832,832,832,832,832,832,832,832,832,832,832,832,802,725,612,327,208,144,142,141,141,141,141,141,143,150,181,201,213,218,224,229,236,243,249,281,307,312,313,315,318,322,328,336,341,345,346,348,353,371,384,398,408,415,417,418,418,423,429],"ymouse":[623,623,623,623,623,623,623,623,623,623,623,623,623,623,623,623,623,623,623,610,535,409,269,22,0,0,0,0,0,0,0,0,0,0,0,0,0,0,0,0,0,0,0,0,4,4,5,5,5,5,5,7,7,8,8,8,9,11,15,17,18,20,20,21,21,23,27],"timestamp_mouse":[17,45,57,78,99,117,137,157,177,197,218,238,257,277,297,319,337,357,378,397,417,437,457,477,498,517,537,558,577,598,617,637,658,677,698,718,737,757,777,797,817,837,858,877,897,918,938,957,977,997,1018,1037,1058,1077,1097,1117,1137,1158,1178,1198,1217,1238,1257,1278,1297,1317,1338],"xSR":741.5,"ySR":573.95,"xT1":424.9,"yT1":0,"xT2":1058.1,"yT2":0,"toosoon":0,"cond_shown":"Incongruent","ratio_trial":200,"L_num":7,"L_den":15,"R_num":4,"R_den":6,"correct_side":2,"subjID":"thomassantana7","gender":"0","school":"4","age":"9"},{"start_time":1552073397895,"click_time":1552073398352,"finger_time":1552073398153,"fix_duration":459.58180207377706,"trial":5,"RT":258,"MT":199,"sideResp":2,"stimulus":[],"xmouse":[765,765,765,765,765,765,765,765,765,765,767,776,789,803,837,856,882,904,942,967,1034,1061,1074],"ymouse":[605,605,605,605,605,605,605,605,605,605,605,591,570,546,491,467,431,402,329,260,142,106,86],"timestamp_mouse":[18,41,57,76,98,117,138,156,178,198,217,238,258,277,298,317,337,356,377,397,417,436,456],"xSR":741.5,"ySR":573.95,"xT1":424.9,"yT1":0,"xT2":1058.1,"yT2":0,"toosoon":0,"cond_shown":"Congruent","ratio_trial":300,"L_num":20,"L_den":25,"R_num":8,"R_den":16,"correct_side":1,"subjID":"thomassantana7","gender":"0","school":"4","age":"9"},{"start_time":1552073400229,"click_time":1552073400693,"finger_time":1552073400592,"fix_duration":534.3313519154989,"trial":6,"RT":363,"MT":101,"sideResp":2,"stimulus":[],"xmouse":[788,788,788,788,788,788,788,788,788,788,788,788,788,788,788,788,788,788,826,898,963,1010,1056,1068],"ymouse":[635,635,635,635,635,635,635,635,635,635,635,635,635,635,635,635,635,630,538,413,277,165,51,9],"timestamp_mouse":[11,23,59,63,83,102,124,144,164,184,204,223,243,262,282,303,324,344,363,382,403,423,444,464],"xSR":741.5,"ySR":573.95,"xT1":424.9,"yT1":0,"xT2":1058.1,"yT2":0,"toosoon":0,"cond_shown":"Congruent","ratio_trial":200,"L_num":6,"L_den":20,"R_num":11,"R_den":22,"correct_side":2,"subjID":"thomassantana7","gender":"0","school":"4","age":"9"},{"start_time":1552073402364,"click_time":1552073403572,"finger_time":1552073402752,"fix_duration":250,"trial":7,"RT":388,"MT":820,"sideResp":2,"stimulus":[],"xmouse":[815,815,815,815,815,815,815,815,815,815,815,815,815,815,815,815,815,816,820,852,898,931,968,972,975,975,976,976,977,979,980,983,986,987,989,990,993,999,1003,1006,1009,1015,1016,1019,1021,1023,1023,1025,1025,1026,1027,1029,1032,1035,1037,1037,1037,1041,1045,1051,1060],"ymouse":[661,661,661,661,661,661,661,661,661,661,661,661,661,661,661,661,661,652,619,508,380,261,170,160,156,155,153,149,146,139,130,104,92,82,75,73,67,58,51,47,43,38,37,37,36,36,36,36,36,36,36,36,36,36,36,37,37,37,38,40,43],"timestamp_mouse":[9,36,48,69,87,109,127,147,168,188,208,228,249,268,289,308,328,348,369,388,408,428,448,468,487,508,529,547,569,589,607,629,647,668,688,709,729,748,768,788,807,828,848,868,887,907,928,949,968,989,1007,1028,1049,1068,1088,1109,1128,1147,1168,1188,1208],"xSR":741.5,"ySR":573.95,"xT1":424.9,"yT1":0,"xT2":1058.1,"yT2":0,"toosoon":0,"cond_shown":"Incongruent","ratio_trial":300,"L_num":13,"L_den":26,"R_num":12,"R_den":15,"correct_side":2,"subjID":"thomassantana7","gender":"0","school":"4","age":"9"},{"start_time":1552073406564,"click_time":1552073408472,"finger_time":1552073407133,"fix_duration":250,"trial":8,"RT":569,"MT":1339,"sideResp":2,"stimulus":[],"xmouse":[799,799,799,799,799,799,799,799,799,799,799,799,799,799,799,799,799,799,799,799,799,798,796,794,794,793,793,793,796,798,801,804,813,823,829,832,834,837,839,840,841,842,843,847,851,857,861,872,876,880,883,888,889,891,893,898,904,921,930,941,953,972,978,988,993,999,1002,1006,1007,1008,1009,1012,1015,1017,1019,1023,1025,1026,1027,1028,1029,1031,1032,1034,1035,1036,1037,1040,1041,1044,1046,1049,1053,1055,1057,1059],"ymouse":[652,652,652,652,652,652,652,652,652,652,652,652,652,652,652,652,652,652,652,652,652,648,636,623,608,599,592,574,557,545,527,504,449,416,403,396,392,386,383,381,379,378,376,371,367,360,355,336,330,323,317,306,301,298,292,284,273,249,237,224,212,190,182,169,162,154,147,138,135,133,132,128,125,122,119,115,113,112,111,110,110,108,107,105,103,102,100,97,96,93,90,88,84,80,77,73],"timestamp_mouse":[10,39,48,69,89,109,129,148,168,188,207,229,248,269,288,308,329,347,369,389,409,428,448,468,488,509,529,548,569,589,609,629,648,667,688,708,728,749,768,789,808,828,848,868,888,907,928,949,969,988,1009,1029,1048,1068,1088,1108,1128,1149,1168,1188,1207,1228,1248,1268,1288,1308,1328,1348,1368,1389,1409,1429,1448,1468,1489,1508,1528,1547,1568,1588,1609,1629,1648,1668,1688,1709,1729,1748,1768,1788,1808,1827,1847,1868,1888,1908],"xSR":741.5,"ySR":573.95,"xT1":424.9,"yT1":0,"xT2":1058.1,"yT2":0,"toosoon":0,"cond_shown":"Congruent","ratio_trial":100,"L_num":2,"L_den":5,"R_num":6,"R_den":12,"correct_side":2,"subjID":"thomassantana7","gender":"0","school":"4","age":"9"},{"start_time":1552073413696,"click_time":1552073414633,"finger_time":1552073414212,"fix_duration":1200.1664056962675,"trial":9,"RT":516,"MT":421,"sideResp":2,"stimulus":[],"xmouse":[760,760,760,760,760,760,760,760,760,760,760,760,760,760,760,760,760,760,760,760,760,760,763,766,774,805,814,836,856,892,908,921,931,940,968,980,993,1006,1015,1022,1032,1038,1042,1046,1053,1058,1059],"ymouse":[607,607,607,607,607,607,607,607,607,607,607,607,607,607,607,607,607,607,607,607,607,607,603,600,590,547,534,497,467,408,385,364,347,328,285,262,240,208,186,166,128,112,98,82,61,46,42],"timestamp_mouse":[16,35,56,76,97,116,135,157,177,197,217,235,255,277,297,316,337,357,375,397,416,437,456,477,495,516,536,556,576,597,615,637,656,677,697,716,735,756,776,796,817,836,856,876,896,915,937],"xSR":741.5,"ySR":573.95,"xT1":424.9,"yT1":0,"xT2":1058.1,"yT2":0,"toosoon":0,"cond_shown":"Incongruent","ratio_trial":200,"L_num":6,"L_den":20,"R_num":3,"R_den":6,"correct_side":2,"subjID":"thomassantana7","gender":"0","school":"4","age":"9"},{"start_time":1552073419926,"click_time":1552073421053,"finger_time":1552073420272,"fix_duration":1012.2995928761202,"trial":10,"RT":346,"MT":781,"sideResp":2,"stimulus":[],"xmouse":[770,770,770,770,770,770,770,770,770,770,770,770,770,770,780,798,804,823,856,883,906,943,982,1027,1146,1219,1326,1374,1388,1390,1390,1390,1390,1390,1390,1390,1390,1390,1389,1354,1339,1315,1296,1258,1235,1221,1212,1208,1208,1208,1208,1208,1208,1203,1185,1163,1136],"ymouse":[631,631,631,631,631,631,631,631,631,631,631,631,631,631,620,594,583,548,475,425,371,298,206,116,0,0,0,0,0,0,0,0,0,0,0,0,0,0,0,8,15,25,35,52,56,57,57,57,57,57,57,57,57,56,51,42,29],"timestamp_mouse":[12,27,47,66,87,106,126,146,167,185,207,227,245,267,285,305,327,346,367,386,406,426,446,466,486,506,526,545,565,587,605,626,645,667,686,706,726,745,767,786,807,826,846,867,885,907,926,947,967,986,1007,1026,1046,1068,1086,1106,1127],"xSR":741.5,"ySR":573.95,"xT1":424.9,"yT1":0,"xT2":1058.1,"yT2":0,"toosoon":0,"cond_shown":"Congruent","ratio_trial":200,"L_num":8,"L_den":15,"R_num":2,"R_den":6,"correct_side":1,"subjID":"thomassantana7","gender":"0","school":"4","age":"9"},{"start_time":1552073433171,"click_time":1552073433652,"finger_time":1552073433531,"fix_duration":1475.8925909044651,"trial":11,"RT":360,"MT":121,"sideResp":2,"stimulus":[],"xmouse":[804,804,804,804,804,804,804,804,804,804,804,804,804,804,804,804,804,809,819,836,856,888,968,1009,1087],"ymouse":[606,606,606,606,606,606,606,606,606,606,606,606,606,606,606,606,606,594,559,514,453,385,237,165,51],"timestamp_mouse":[10,22,45,62,81,102,121,141,160,182,202,222,240,262,281,301,322,341,360,381,401,422,442,461,481],"xSR":741.5,"ySR":573.95,"xT1":424.9,"yT1":0,"xT2":1058.1,"yT2":0,"toosoon":0,"cond_shown":"Congruent","ratio_trial":200,"L_num":7,"L_den":15,"R_num":18,"R_den":27,"correct_side":2,"subjID":"thomassantana7","gender":"0","school":"4","age":"9"},{"start_time":1552073437682,"click_time":1552073438251,"finger_time":1552073438173,"fix_duration":847.1942271716316,"trial":12,"RT":491,"MT":78,"sideResp":2,"stimulus":[],"xmouse":[776,776,776,776,776,776,776,776,776,776,778,778,778,778,778,778,779,781,781,782,784,790,799,814,838,922,976,1029,1088],"ymouse":[615,615,615,615,615,615,615,615,615,615,615,615,615,615,615,615,615,615,615,614,614,608,598,576,538,394,298,187,59],"timestamp_mouse":[10,44,50,71,91,110,130,151,170,191,210,230,251,270,289,310,331,351,371,390,409,430,449,470,491,511,530,550,569],"xSR":741.5,"ySR":573.95,"xT1":424.9,"yT1":0,"xT2":1058.1,"yT2":0,"toosoon":0,"cond_shown":"Congruent","ratio_trial":100,"L_num":1,"L_den":2,"R_num":3,"R_den":5,"correct_side":2,"subjID":"thomassantana7","gender":"0","school":"4","age":"9"},{"start_time":1552073439942,"click_time":1552073440632,"finger_time":1552073440293,"fix_duration":269.68722425811853,"trial":13,"RT":351,"MT":339,"sideResp":2,"stimulus":[],"xmouse":[778,778,778,778,778,778,778,780,781,781,783,787,793,808,821,831,841,864,878,894,913,934,962,1024,1047,1064,1081,1104,1112,1117,1122,1125,1126,1127,1127],"ymouse":[636,636,636,636,636,636,637,637,637,637,637,637,637,632,623,615,604,574,557,540,516,492,456,356,312,271,233,181,159,144,132,120,114,103,99],"timestamp_mouse":[12,38,49,71,91,109,131,149,170,190,211,230,250,270,291,310,330,351,370,390,410,430,450,470,491,510,530,551,570,591,610,631,651,669,690],"xSR":741.5,"ySR":573.95,"xT1":424.9,"yT1":0,"xT2":1058.1,"yT2":0,"toosoon":0,"cond_shown":"Incongruent","ratio_trial":200,"L_num":14,"L_den":30,"R_num":12,"R_den":18,"correct_side":2,"subjID":"thomassantana7","gender":"0","school":"4","age":"9"},{"start_time":1552073444524,"click_time":1552073446753,"finger_time":1552073446013,"fix_duration":250,"trial":14,"RT":1489,"MT":740,"sideResp":1,"stimulus":[],"xmouse":[802,802,802,802,802,802,802,802,802,802,802,802,802,802,802,802,802,802,802,802,802,802,802,802,802,802,802,802,802,802,802,802,802,802,802,802,802,802,802,802,802,802,802,802,802,802,802,802,802,802,802,802,802,802,802,802,802,802,802,802,802,802,802,802,802,802,802,802,802,802,802,802,790,775,754,749,742,739,738,732,726,717,711,688,667,634,592,573,557,555,555,555,555,555,555,555,555,555,555,555,555,555,555,552,551,547,540,536,534,528,526,524],"ymouse":[630,630,630,630,630,630,630,630,630,630,630,630,630,630,630,630,630,630,630,630,630,630,630,630,630,630,630,630,630,630,630,630,630,630,630,630,630,630,630,630,630,630,630,630,630,630,630,630,630,630,630,630,630,630,630,630,630,630,630,630,630,630,630,630,630,630,630,630,630,630,627,622,604,590,549,530,507,497,493,478,462,443,417,334,266,193,97,54,16,12,12,12,12,12,12,12,12,12,12,12,11,11,11,11,11,14,19,22,26,31,33,35],"timestamp_mouse":[10,38,48,68,88,109,128,149,169,188,208,228,247,267,287,307,327,348,369,388,408,429,448,469,488,509,528,548,569,588,609,628,647,669,688,709,729,748,767,789,809,829,848,868,889,908,928,948,968,988,1008,1029,1048,1069,1088,1108,1129,1149,1169,1188,1208,1228,1249,1268,1289,1307,1329,1348,1369,1389,1408,1428,1448,1468,1489,1508,1528,1548,1568,1589,1607,1628,1647,1669,1688,1708,1728,1748,1769,1788,1808,1828,1847,1869,1888,1908,1928,1949,1967,1989,2008,2028,2048,2069,2088,2108,2128,2147,2168,2189,2209,2229],"xSR":741.5,"ySR":573.95,"xT1":424.9,"yT1":0,"xT2":1058.1,"yT2":0,"toosoon":0,"cond_shown":"Congruent","ratio_trial":300,"L_num":5,"L_den":25,"R_num":6,"R_den":12,"correct_side":2,"subjID":"thomassantana7","gender":"0","school":"4","age":"9"},{"start_time":1552073449923,"click_time":1552073451511,"finger_time":1552073450832,"fix_duration":1089.2631615455803,"trial":15,"RT":909,"MT":679,"sideResp":2,"stimulus":[],"xmouse":[806,806,806,806,806,806,806,806,806,806,806,806,806,806,806,806,806,806,806,806,806,806,806,806,806,806,806,806,806,806,806,806,806,806,806,806,806,806,806,806,806,806,808,811,839,862,882,906,929,941,948,956,962,973,977,983,986,988,994,996,999,1004,1011,1018,1032,1040,1045,1049,1051,1054,1054,1055,1057,1060,1063,1066,1066,1070,1073,1077],"ymouse":[596,596,596,596,596,596,596,596,596,596,596,596,596,596,596,596,596,596,596,596,596,596,596,596,596,596,596,596,596,596,596,596,596,596,596,596,596,596,596,596,596,596,596,596,591,583,575,555,516,489,464,437,414,375,359,341,332,323,307,298,288,276,263,246,215,196,185,176,169,159,156,152,147,138,132,123,121,113,109,97],"timestamp_mouse":[15,38,49,69,89,110,129,150,170,190,210,230,249,270,290,310,330,349,370,390,409,430,450,469,489,509,529,549,568,589,609,630,649,694,695,709,729,750,768,788,808,829,849,869,889,909,930,949,970,989,1010,1029,1050,1070,1089,1110,1129,1149,1170,1189,1209,1230,1249,1270,1290,1309,1330,1350,1369,1388,1409,1429,1449,1469,1490,1509,1528,1549,1568,1588],"xSR":741.5,"ySR":573.95,"xT1":424.9,"yT1":0,"xT2":1058.1,"yT2":0,"toosoon":0,"cond_shown":"Incongruent","ratio_trial":200,"L_num":4,"L_den":30,"R_num":1,"R_den":3,"correct_side":2,"subjID":"thomassantana7","gender":"0","school":"4","age":"9"},{"start_time":1552073453162,"click_time":1552073454592,"finger_time":1552073453772,"fix_duration":468.5198543113004,"trial":16,"RT":610,"MT":820,"sideResp":1,"stimulus":[],"xmouse":[771,771,771,771,771,771,771,771,771,771,771,771,771,771,771,771,771,771,771,771,771,771,769,769,769,768,768,766,762,757,748,737,713,703,693,679,659,650,644,639,637,633,631,626,620,609,600,585,577,573,569,561,557,555,555,552,550,544,539,534,527,513,510,507,505,504,503,501,501,501,501,501],"ymouse":[599,599,599,599,599,599,599,599,599,599,599,599,599,599,599,599,599,599,599,599,599,599,599,599,599,599,599,597,589,582,572,562,535,523,509,489,461,449,440,432,427,416,410,401,388,365,345,310,294,281,268,249,241,236,235,225,219,201,189,178,164,143,136,130,122,119,115,109,107,106,103,99],"timestamp_mouse":[20,30,50,71,90,111,131,151,170,190,209,231,250,270,290,311,331,350,370,389,409,431,450,470,490,509,530,551,570,590,610,630,649,670,691,710,731,750,770,790,811,830,851,869,889,911,930,950,970,989,1009,1031,1049,1071,1091,1111,1129,1150,1170,1191,1210,1230,1250,1270,1290,1311,1331,1351,1370,1391,1411,1430],"xSR":741.5,"ySR":573.95,"xT1":424.9,"yT1":0,"xT2":1058.1,"yT2":0,"toosoon":0,"cond_shown":"Incongruent","ratio_trial":200,"L_num":14,"L_den":30,"R_num":12,"R_den":18,"correct_side":2,"subjID":"thomassantana7","gender":"0","school":"4","age":"9"},{"start_time":1552073457839,"click_time":1552073458592,"finger_time":1552073457992,"fix_duration":965.734956851602,"trial":17,"RT":153,"MT":600,"sideResp":2,"stimulus":[],"xmouse":[799,799,799,799,799,799,800,822,843,856,862,865,866,866,867,868,871,882,891,905,919,938,954,959,963,967,970,981,987,1000,1005,1019,1028,1044,1053,1060,1066,1079],"ymouse":[588,588,588,588,588,588,588,543,492,462,441,434,431,430,429,427,423,407,397,381,365,343,325,319,314,310,307,293,283,263,253,230,209,170,149,131,115,85],"timestamp_mouse":[21,46,54,74,94,114,132,153,172,193,212,232,254,272,293,314,333,353,372,393,414,433,453,473,493,514,534,553,573,593,613,633,653,673,693,714,733,753],"xSR":741.5,"ySR":573.95,"xT1":424.9,"yT1":0,"xT2":1058.1,"yT2":0,"toosoon":0,"cond_shown":"Incongruent","ratio_trial":300,"L_num":13,"L_den":26,"R_num":12,"R_den":15,"correct_side":2,"subjID":"thomassantana7","gender":"0","school":"4","age":"9"},{"start_time":1552073460836,"click_time":1552073462512,"finger_time":1552073461693,"fix_duration":422.286922491951,"trial":18,"RT":857,"MT":819,"sideResp":2,"stimulus":[],"xmouse":[795,795,795,795,795,795,795,795,795,795,795,795,795,795,795,795,795,795,795,795,795,795,795,795,795,795,795,795,795,795,795,795,795,795,795,795,795,795,795,800,808,836,872,887,896,906,910,916,925,930,939,943,949,952,955,957,959,964,968,972,978,982,986,987,988,991,993,998,1000,1003,1003,1007,1013,1015,1017,1019,1021,1026,1030,1031,1036,1040,1047,1060],"ymouse":[644,644,644,644,644,644,644,644,644,644,644,644,644,644,644,644,644,644,644,644,644,644,644,644,644,644,644,644,644,644,644,644,644,644,644,644,644,644,644,641,634,614,589,579,570,560,555,545,520,501,469,453,425,411,393,376,358,320,297,265,247,229,198,188,179,173,165,156,150,145,141,134,126,124,121,118,116,112,109,108,104,101,97,89],"timestamp_mouse":[16,41,55,77,96,116,137,156,176,196,216,236,256,276,296,316,336,357,376,397,417,437,456,476,496,515,537,557,576,596,616,636,656,676,697,717,737,756,776,795,815,836,857,876,896,917,937,957,977,996,1015,1036,1057,1076,1096,1116,1137,1156,1177,1197,1217,1237,1257,1276,1295,1316,1336,1356,1376,1396,1416,1435,1456,1475,1495,1515,1537,1557,1576,1597,1617,1636,1656,1676],"xSR":741.5,"ySR":573.95,"xT1":424.9,"yT1":0,"xT2":1058.1,"yT2":0,"toosoon":0,"cond_shown":"Congruent","ratio_trial":300,"L_num":5,"L_den":25,"R_num":7,"R_den":14,"correct_side":2,"subjID":"thomassantana7","gender":"0","school":"4","age":"9"},{"start_time":1552073466863,"click_time":1552073468113,"finger_time":1552073467212,"fix_duration":250,"trial":19,"RT":349,"MT":901,"sideResp":1,"stimulus":[],"xmouse":[821,821,821,821,821,821,821,821,821,821,821,821,821,821,821,820,818,753,730,635,597,475,299,215,137,68,8,0,0,0,0,0,0,0,0,13,63,94,105,141,184,294,353,415,467,496,549,579,590,620,636,648,649,649,644,626,602,547,530,518,512,509,501],"ymouse":[605,605,605,605,605,605,605,605,605,605,605,605,605,604,603,603,592,423,365,151,74,0,0,0,0,0,0,0,0,0,0,0,1,16,59,128,216,240,244,262,278,314,329,337,343,343,343,333,326,297,271,227,198,162,111,59,14,0,0,0,0,0,2],"timestamp_mouse":[12,43,48,69,89,109,129,149,170,188,210,230,250,268,290,308,328,349,369,389,409,431,449,469,490,509,530,549,569,590,610,629,649,669,689,709,731,749,769,790,810,830,849,869,888,908,931,948,969,989,1009,1029,1048,1069,1089,1109,1129,1150,1170,1189,1209,1230,1249],"xSR":741.5,"ySR":573.95,"xT1":424.9,"yT1":0,"xT2":1058.1,"yT2":0,"toosoon":0,"cond_shown":"Incongruent","ratio_trial":300,"L_num":1,"L_den":2,"R_num":2,"R_den":10,"correct_side":1,"subjID":"thomassantana7","gender":"0","school":"4","age":"9"},{"start_time":1552073469883,"click_time":1552073471313,"finger_time":1552073470353,"fix_duration":250,"trial":20,"RT":470,"MT":960,"sideResp":1,"stimulus":[],"xmouse":[795,795,795,795,795,795,795,795,795,795,795,795,795,795,795,795,795,795,795,795,795,795,790,769,731,672,512,420,302,263,256,256,256,256,256,256,256,256,256,256,256,256,256,256,256,256,256,256,274,294,319,371,392,407,413,414,414,414,414,414,414,414,414,414,414,414,414,414,414,414,414,434],"ymouse":[637,637,637,637,637,637,637,637,637,637,637,637,637,637,637,637,637,637,637,637,637,635,618,559,456,306,0,0,0,0,0,0,0,0,0,0,0,0,0,0,0,0,0,0,0,0,0,0,5,6,6,6,6,6,6,6,6,6,6,6,6,6,6,6,6,6,6,6,6,6,6,8],"timestamp_mouse":[10,40,49,69,90,108,129,149,168,190,209,228,249,270,289,309,328,349,370,390,409,429,448,470,490,509,528,548,570,589,610,630,649,670,689,710,729,750,769,788,809,829,850,870,889,908,930,949,969,989,1009,1029,1049,1070,1089,1108,1130,1150,1170,1189,1209,1228,1248,1269,1290,1310,1330,1350,1370,1390,1409,1430],"xSR":741.5,"ySR":573.95,"xT1":424.9,"yT1":0,"xT2":1058.1,"yT2":0,"toosoon":0,"cond_shown":"Congruent","ratio_trial":100,"L_num":7,"L_den":14,"R_num":9,"R_den":15,"correct_side":2,"subjID":"thomassantana7","gender":"0","school":"4","age":"9"},{"start_time":1552073473254,"click_time":1552073474193,"finger_time":1552073473672,"fix_duration":320.5745982813425,"trial":21,"RT":418,"MT":521,"sideResp":2,"stimulus":[],"xmouse":[820,820,820,820,820,820,820,820,820,820,820,820,820,820,820,820,820,821,823,836,851,897,921,939,957,975,1003,1013,1022,1029,1031,1034,1043,1049,1055,1060,1065,1076,1079,1082,1083,1083,1083,1083,1083,1084,1089],"ymouse":[639,639,639,639,639,639,639,639,639,639,639,639,639,639,639,639,639,638,632,599,560,473,442,425,412,400,375,363,349,341,335,329,308,291,271,249,227,173,147,125,123,123,123,122,121,116,99],"timestamp_mouse":[17,37,59,79,98,117,139,158,178,199,217,239,259,278,299,318,337,357,378,399,418,439,458,478,498,518,538,557,577,598,619,638,657,679,698,718,738,757,778,798,818,838,859,878,898,918,939],"xSR":741.5,"ySR":573.95,"xT1":424.9,"yT1":0,"xT2":1058.1,"yT2":0,"toosoon":0,"cond_shown":"Incongruent","ratio_trial":300,"L_num":3,"L_den":6,"R_num":4,"R_den":20,"correct_side":1,"subjID":"thomassantana7","gender":"0","school":"4","age":"9"},{"start_time":1552073476479,"click_time":1552073477312,"finger_time":1552073476812,"fix_duration":865.6671394019569,"trial":22,"RT":333,"MT":500,"sideResp":2,"stimulus":[],"xmouse":[803,803,803,803,803,803,803,803,803,803,803,803,803,803,803,804,827,864,917,973,1019,1061,1067,1073,1076,1079,1086,1090,1096,1102,1110,1125,1129,1132,1132,1132,1132,1132,1132,1132,1132,1134],"ymouse":[602,602,602,602,602,602,602,602,602,602,602,602,602,602,602,602,571,519,442,363,293,236,225,218,213,207,197,192,182,174,160,134,124,116,113,113,113,113,113,112,107,86],"timestamp_mouse":[14,38,54,73,93,114,134,154,173,194,214,232,254,273,292,313,333,353,373,393,413,433,454,474,493,512,532,553,573,593,613,634,653,673,694,713,733,752,774,793,814,833],"xSR":741.5,"ySR":573.95,"xT1":424.9,"yT1":0,"xT2":1058.1,"yT2":0,"toosoon":0,"cond_shown":"Congruent","ratio_trial":100,"L_num":12,"L_den":30,"R_num":13,"R_den":26,"correct_side":2,"subjID":"thomassantana7","gender":"0","school":"4","age":"9"},{"start_time":1552073479155,"click_time":1552073479911,"finger_time":1552073479552,"fix_duration":542.229647868685,"trial":23,"RT":397,"MT":359,"sideResp":2,"stimulus":[],"xmouse":[785,785,785,785,785,785,785,785,785,785,785,785,785,785,785,786,798,816,839,865,899,933,1001,1011,1026,1049,1061,1082,1090,1099,1106,1110,1114,1117,1119,1121,1123,1123],"ymouse":[640,640,640,640,640,640,640,640,640,640,640,640,640,640,640,639,624,604,577,545,507,471,388,376,355,322,302,267,247,226,208,193,167,148,137,127,104,93],"timestamp_mouse":[18,36,58,77,98,116,137,158,177,198,218,238,257,278,297,317,338,357,377,397,417,438,457,477,496,517,536,558,576,597,617,637,657,677,698,718,737,756],"xSR":741.5,"ySR":573.95,"xT1":424.9,"yT1":0,"xT2":1058.1,"yT2":0,"toosoon":0,"cond_shown":"Incongruent","ratio_trial":300,"L_num":4,"L_den":20,"R_num":2,"R_den":4,"correct_side":2,"subjID":"thomassantana7","gender":"0","school":"4","age":"9"},{"start_time":1552073484191,"click_time":1552073487593,"finger_time":1552073486712,"fix_duration":1176.4636854944065,"trial":24,"RT":2521,"MT":881,"sideResp":2,"stimulus":[],"xmouse":[813,813,813,813,813,813,813,813,813,813,813,813,813,813,813,813,813,813,813,813,813,813,813,813,813,813,813,813,813,813,813,813,813,813,813,813,813,813,813,813,813,813,813,813,813,813,813,813,813,813,813,813,813,813,813,813,813,813,813,813,813,813,813,813,813,813,813,813,813,813,813,813,813,813,813,813,813,813,813,813,813,813,813,813,813,813,813,813,813,813,813,813,813,813,813,813,813,813,813,813,813,813,813,813,813,813,813,813,813,813,813,813,813,813,813,813,813,813,813,813,813,813,814,819,827,840,875,891,903,912,922,929,936,944,955,968,974,978,984,989,999,1004,1009,1014,1019,1026,1030,1035,1038,1043,1051,1056,1061,1069,1072,1081,1087,1091,1095,1098,1102,1104,1104,1105,1106,1106,1106,1106,1106,1105,1102],"ymouse":[640,640,640,640,640,640,640,640,640,640,640,640,640,640,640,640,640,640,640,640,640,640,640,640,640,640,640,640,640,640,640,640,640,640,640,640,640,640,640,640,640,640,640,640,640,640,640,640,640,640,640,640,640,640,640,640,640,640,640,640,640,640,640,640,640,640,640,640,640,640,640,640,640,640,640,640,640,640,640,640,640,640,640,640,640,640,640,640,640,640,640,640,640,640,640,640,640,640,640,640,640,640,640,640,640,640,640,640,640,640,640,640,640,640,640,640,640,640,640,640,640,640,640,640,640,636,626,622,618,614,607,602,594,586,571,550,540,531,521,512,490,478,466,456,442,426,417,407,400,389,366,353,341,321,309,278,263,247,231,215,189,178,170,163,151,132,123,117,112,105,93],"timestamp_mouse":[16,29,44,60,80,101,122,141,162,181,202,221,241,260,282,301,322,341,362,382,401,420,442,462,482,502,520,542,562,582,602,621,641,662,682,701,721,741,761,782,801,821,840,862,882,902,922,941,962,980,1001,1022,1041,1061,1082,1101,1121,1142,1162,1182,1202,1221,1242,1262,1281,1301,1322,1341,1362,1381,1402,1422,1440,1461,1481,1502,1521,1541,1560,1582,1600,1620,1641,1662,1681,1701,1721,1742,1762,1781,1801,1821,1841,1860,1881,1901,1921,1941,1960,1981,2002,2020,2041,2061,2081,2101,2121,2141,2160,2182,2201,2221,2240,2262,2281,2301,2322,2342,2361,2381,2401,2420,2442,2461,2482,2500,2521,2541,2561,2582,2601,2620,2641,2661,2681,2701,2721,2741,2762,2781,2801,2820,2841,2862,2880,2901,2921,2942,2960,2981,3001,3021,3040,3061,3081,3102,3121,3141,3162,3182,3202,3221,3241,3261,3281,3301,3320,3341,3360,3381,3402],"xSR":741.5,"ySR":573.95,"xT1":424.9,"yT1":0,"xT2":1058.1,"yT2":0,"toosoon":0,"cond_shown":"Incongruent","ratio_trial":200,"L_num":9,"L_den":15,"R_num":8,"R_den":10,"correct_side":2,"subjID":"thomassantana7","gender":"0","school":"4","age":"9"},{"start_time":1552073511883,"click_time":1552073533472,"finger_time":1552073512513,"fix_duration":250,"trial":25,"RT":630,"MT":20959,"sideResp":2,"stimulus":[],"xmouse":[820,820,820,820,820,820,820,820,821,824,826,827,827,827,826,825,823,821,820,820,820,820,822,823,823,823,823,823,824,824,827,853,856,856,856,856,856,856,856,856,856,856,856,856,856,856,856,856,856,856,856,856,854,850,850,849,844,838,838,838,838,838,838,838,838,838,838,838,838,838,838,838,838,838,838,838,838,837,834,833,826,823,820,815,810,808,803,788,759,743,726,721,717,716,716,716,716,716,716,716,715,715,715,717,719,725,729,734,735,740,743,752,756,760,762,767,770,772,775,777,778,779,779,779,779,779,779,779,779,779,779,779,779,779,779,779,779,779,780,791,847,860,864,869,875,875,875,875,875,875,875,875,875,875,875,875,875,875,875,875,873,867,867,867,867,867,867,867,867,867,867,867,867,867,867,867,867,867,867,867,867,867,867,867,867,867,867,867,867,867,867,867,867,867,867,867,867,867,867,867,867,867,867,867,867,867,867,867,867,867,867,867,867,867,867,867,867,867,867,867,867,867,867,867,867,867,867,867,867,867,867,867,867,867,867,867,867,867,867,867,867,867,867,867,867,867,867,872,876,878,891,894,895,895,895,895,895,896,896,896,896,896,894,883,863,863,863,863,863,863,863,863,863,863,863,863,863,863,863,863,863,863,863,863,863,863,863,863,863,863,863,863,863,863,863,863,863,863,863,863,863,863,863,863,863,863,863,863,863,863,863,863,863,863,865,871,876,876,876,876,876,876,877,879,879,884,885,885,885,885,885,885,885,885,885,885,885,885,885,885,885,885,885,885,885,884,882,877,867,866,866,866,866,866,866,866,866,866,866,866,866,866,866,866,866,866,866,866,866,866,866,866,866,866,866,866,866,866,866,866,866,866,866,866,866,866,866,866,866,866,866,866,866,866,866,866,866,866,866,866,866,866,866,866,866,866,866,866,866,866,866,866,866,866,866,866,866,866,866,866,866,866,866,866,866,866,866,866,866,866,866,866,866,866,866,866,866,866,866,866,866,866,866,866,866,866,866,866,866,866,866,866,865,863,862,858,855,817,744,744,744,744,744,744,744,744,744,744,744,744,744,744,744,744,744,744,744,744,744,744,744,744,744,744,744,744,744,744,744,744,744,744,744,744,744,744,744,744,744,744,744,744,744,744,744,744,744,744,744,744,744,744,744,744,744,744,744,744,744,744,744,744,744,744,744,744,744,744,742,742,740,738,738,736,736,735,731,731,731,731,731,731,731,731,731,731,731,731,731,731,731,731,731,731,731,731,731,731,731,731,731,731,731,731,731,731,731,731,731,731,731,731,731,731,731,731,731,731,731,731,731,731,731,731,731,731,731,731,731,731,731,731,731,731,731,731,731,731,731,731,731,731,731,731,731,731,731,731,731,731,731,731,731,731,731,731,731,731,731,731,731,731,731,731,731,731,731,731,731,731,731,731,731,731,731,748,778,778,778,778,778,778,781,790,800,802,802,802,802,802,802,802,801,786,777,777,747,728,700,687,676,668,668,668,668,668,668,668,668,668,668,668,668,668,668,673,675,678,684,690,693,701,701,701,701,702,702,702,702,702,702,702,702,702,702,702,702,702,702,702,702,702,702,702,702,702,702,702,702,702,702,702,702,702,702,702,702,702,702,702,702,702,702,702,700,648,619,619,619,619,619,619,619,620,786,786,786,786,786,786,786,786,786,786,786,786,786,786,786,786,786,786,786,786,786,786,786,786,786,786,786,786,786,786,786,786,786,786,786,786,786,786,786,786,786,786,786,786,786,786,786,786,786,786,786,786,786,786,786,786,786,786,786,786,799,858,883,894,894,894,894,894,894,894,894,894,894,894,894,894,894,894,894,894,894,894,894,894,894,894,894,894,894,894,894,894,894,894,894,894,894,894,894,894,894,894,894,894,894,894,894,894,894,894,894,894,894,894,894,894,894,894,894,894,894,894,894,894,894,894,894,894,894,894,894,894,894,894,894,894,894,894,883,876,870,866,866,866,842,544,544,544,544,544,544,544,544,544,544,544,544,544,544,544,544,544,544,544,544,544,544,544,580,602,602,602,602,599,599,599,599,599,599,599,599,599,599,599,599,599,599,599,599,599,599,599,599,599,599,599,599,599,599,599,599,599,599,599,599,599,599,599,599,599,599,599,599,599,599,599,599,599,599,579,562,558,558,569,579,588,600,650,664,664,664,664,666,672,682,698,733,838,870,888,895,896,896,896,896,896,895,892,884,875,867,863,861,861,861,860,860,860,860,860,860,860,860,860,860,857,838,778,758,750,748,748,748,748,748,748,748,748,748,748,748,748,748,748,748,748,741,739,736,728,728,728,728,728,728,728,728,728,728,728,728,728,728,728,728,728,728,727,744,779,809,829,849,856,860,865,867,867,867,867,867,869,869,869,869,871,891,902,916,930,942,949,960,964,969,970,970,970,970,970,970,970,973,1001,1061,1143],"ymouse":[639,639,639,639,639,639,639,639,639,639,639,639,639,639,639,639,639,639,639,639,639,639,639,639,639,639,639,639,638,635,633,629,629,629,629,629,629,629,629,629,629,629,629,629,629,629,629,629,629,629,627,627,626,624,624,623,623,623,623,623,623,623,623,623,623,623,623,623,623,623,623,623,623,623,623,623,623,623,624,625,629,629,631,634,636,637,639,647,658,662,668,670,671,671,671,671,671,671,671,671,671,671,671,670,668,666,664,662,661,660,659,654,652,650,650,649,648,647,646,645,645,645,645,645,645,645,645,645,645,645,645,645,645,645,645,645,645,645,644,638,610,599,586,571,561,561,561,561,561,561,561,561,561,561,561,561,561,561,561,561,562,563,563,563,563,563,563,563,563,563,563,563,563,563,563,563,563,563,563,563,563,563,563,563,563,563,563,563,563,563,563,563,563,563,563,563,563,563,563,563,563,563,563,563,563,563,563,563,563,563,563,563,563,563,563,563,563,563,563,563,563,563,563,563,563,563,563,563,563,563,563,563,563,563,563,563,563,563,563,563,563,563,563,563,563,563,563,560,557,556,550,550,550,550,550,550,550,550,550,550,550,551,553,560,572,572,572,572,572,572,572,572,572,572,572,572,572,572,572,572,572,572,572,572,572,572,572,572,572,572,572,572,572,572,572,572,572,572,572,572,572,572,572,572,572,572,572,572,572,572,572,572,572,572,570,565,560,560,559,559,559,559,559,559,559,552,551,551,551,551,551,551,551,551,551,551,551,551,551,551,551,551,551,552,552,562,565,571,582,584,584,584,584,584,584,584,584,584,584,584,584,584,584,584,584,584,584,584,584,584,584,584,584,584,584,584,584,584,584,584,584,584,584,584,584,584,584,584,584,584,584,584,584,584,584,584,584,584,584,584,584,584,584,584,584,584,584,584,584,584,584,584,584,584,584,584,584,584,584,584,584,584,584,584,584,584,584,584,584,584,584,584,584,584,584,584,584,584,584,584,584,584,584,584,584,584,584,584,584,584,584,584,584,584,584,585,586,608,645,645,645,645,645,645,645,645,645,645,645,645,645,645,645,645,645,645,645,645,645,645,645,645,645,645,645,645,645,645,645,645,645,645,645,645,645,645,645,645,645,645,645,645,645,645,645,645,645,645,645,645,645,645,645,645,645,645,645,645,645,645,645,645,645,645,645,645,645,645,645,646,647,648,649,649,649,649,649,649,649,649,649,649,649,649,649,649,649,649,649,649,649,649,649,649,649,649,649,649,649,649,649,649,649,649,649,649,649,649,649,649,649,649,649,649,649,649,649,649,649,649,649,649,649,649,649,649,649,649,649,649,649,649,649,649,649,649,649,649,649,649,649,649,649,649,649,649,649,649,649,649,649,649,649,649,649,649,649,649,649,649,649,649,649,649,649,649,649,649,649,649,649,649,649,649,641,525,295,288,288,288,288,288,281,261,241,239,239,239,239,239,239,240,241,263,277,277,417,484,654,736,810,872,872,872,872,872,872,872,872,872,872,872,872,872,872,868,838,819,746,708,672,628,628,628,628,622,622,622,622,622,622,622,622,622,622,622,622,622,622,622,622,622,622,622,622,622,622,622,622,622,622,622,622,622,622,622,622,622,622,622,622,622,622,622,623,661,686,686,686,686,686,686,686,686,688,688,688,688,688,688,688,688,688,688,688,688,688,688,688,688,688,688,688,688,688,688,688,688,688,688,688,688,688,688,688,688,688,688,688,688,688,688,688,688,688,688,688,688,688,688,688,688,688,688,688,688,688,688,688,688,688,688,688,688,574,240,115,71,71,71,71,71,71,71,71,71,71,71,71,71,71,71,71,71,71,71,71,71,71,71,71,71,71,71,71,71,71,71,71,71,71,71,71,71,71,71,71,71,71,71,71,71,71,71,71,71,71,71,71,71,71,71,71,71,71,71,71,71,71,71,71,71,71,71,71,71,71,71,71,71,71,77,347,404,404,398,398,398,412,583,583,583,583,583,583,583,583,583,583,583,583,583,583,583,583,583,583,583,583,583,575,439,198,40,40,40,49,49,49,49,49,49,49,49,49,49,49,49,49,49,49,49,49,49,49,49,49,49,49,49,49,49,49,49,49,49,49,49,49,49,49,49,49,49,49,49,49,49,49,49,49,49,49,62,84,116,135,168,191,206,217,228,230,230,230,230,230,234,243,256,278,341,371,400,421,446,451,452,452,454,460,467,479,495,510,526,562,583,601,618,620,620,620,620,620,620,620,620,620,621,623,632,637,639,640,640,641,641,641,641,641,641,641,641,641,641,641,641,639,633,624,624,624,624,624,624,624,624,624,624,624,624,624,624,624,624,624,624,624,624,624,622,565,474,404,356,306,286,270,252,237,233,227,218,210,203,202,201,201,197,167,148,116,70,19,0,0,0,0,0,0,0,0,0,0,0,0,0,0,1],"timestamp_mouse":[10,38,49,68,90,110,129,149,170,190,210,229,250,270,288,310,329,350,369,389,408,430,449,469,489,508,529,550,568,590,610,630,649,669,688,710,730,749,770,789,809,829,849,869,889,910,930,950,969,989,1010,1029,1049,1068,1089,1109,1129,1150,1169,1189,1209,1228,1250,1270,1290,1310,1329,1350,1369,1389,1410,1429,1449,1469,1490,1510,1528,1548,1569,1589,1610,1629,1649,1669,1689,1709,1728,1750,1770,1789,1810,1828,1848,1868,1890,1909,1930,1949,1970,1989,2009,2030,2049,2069,2089,2109,2128,2149,2170,2189,2209,2230,2250,2269,2290,2309,2329,2350,2370,2389,2409,2430,2449,2469,2489,2509,2529,2548,2569,2590,2609,2630,2648,2670,2690,2709,2729,2749,2770,2789,2810,2828,2849,2869,2889,2909,2929,2948,2970,2990,3009,3030,3049,3069,3090,3108,3128,3149,3170,3189,3210,3229,3249,3269,3288,3310,3330,3349,3368,3388,3410,3428,3450,3469,3488,3510,3529,3549,3569,3589,3609,3629,3649,3669,3689,3710,3729,3749,3770,3789,3810,3829,3849,3870,3889,3909,3929,3949,3969,3990,4010,4030,4050,4068,4088,4109,4130,4148,4170,4190,4209,4230,4249,4269,4289,4309,4329,4349,4369,4389,4410,4430,4449,4469,4489,4509,4529,4549,4569,4589,4609,4629,4650,4669,4690,4709,4729,4750,4770,4789,4809,4830,4849,4869,4890,4909,4929,4950,4969,4990,5009,5029,5050,5069,5089,5109,5129,5148,5168,5189,5209,5229,5250,5269,5289,5309,5330,5350,5368,5389,5410,5430,5449,5469,5489,5509,5530,5548,5569,5590,5610,5629,5649,5669,5690,5709,5728,5749,5770,5790,5810,5830,5849,5869,5890,5910,5929,5948,5968,5988,6010,6030,6050,6068,6089,6108,6129,6148,6168,6190,6208,6228,6249,6270,6290,6309,6329,6350,6369,6390,6409,6429,6449,6470,6489,6509,6529,6550,6569,6589,6609,6628,6650,6670,6689,6708,6728,6749,6769,6790,6809,6830,6849,6870,6889,6909,6928,6949,6968,6988,7008,7028,7049,7070,7089,7109,7128,7148,7168,7188,7208,7230,7249,7270,7289,7310,7328,7348,7370,7389,7409,7430,7449,7469,7488,7510,7528,7550,7570,7589,7610,7629,7648,7669,7690,7710,7730,7749,7769,7788,7808,7829,7848,7868,7888,7910,7928,7950,7970,7990,8009,8029,8048,8069,8089,8116,8129,8150,8169,8189,8208,8229,8249,8269,8289,8309,8330,8348,8369,8389,8410,8429,8449,8469,8490,8509,8529,8549,8570,8590,8610,8629,8649,8669,8689,8710,8729,8749,8769,8789,8809,8829,8848,8868,8890,8908,8928,8949,8969,8990,9009,9029,9049,9069,9089,9109,9129,9150,9169,9188,9208,9229,9248,9270,9289,9308,9329,9348,9369,9389,9409,9429,9450,9469,9490,9509,9528,9549,9569,9589,9608,9629,9648,9668,9689,9709,9728,9749,9770,9789,9808,9828,9850,9869,9890,9909,9928,9948,9970,9989,10009,10029,10049,10069,10089,10110,10129,10149,10169,10189,10210,10230,10250,10269,10288,10309,10328,10348,10369,10390,10409,10430,10448,10469,10489,10510,10530,10549,10568,10588,10608,10628,10650,10669,10688,10709,10730,10750,10770,10789,10810,10830,10850,10870,10890,10910,10930,10949,10969,10989,11010,11030,11050,11070,11089,11109,11130,11149,11169,11189,11209,11229,11250,11270,11289,11310,11330,11350,11369,11388,11409,11428,11448,11468,11488,11508,11528,11548,11568,11588,11608,11629,11649,11668,11688,11708,11730,11748,11768,11788,11810,11828,11848,11869,11888,11908,11928,11949,11969,11989,12010,12029,12050,12070,12088,12109,12129,12149,12169,12188,12208,12229,12248,12269,12289,12310,12329,12349,12369,12389,12410,12428,12449,12470,12489,12509,12529,12549,12569,12588,12608,12629,12648,12669,12689,12708,12728,12749,12768,12789,12809,12828,12848,12870,12888,12909,12928,12949,12969,12989,13009,13029,13048,13068,13088,13108,13128,13149,13169,13188,13210,13228,13250,13269,13289,13309,13329,13349,13370,13389,13409,13430,13449,13470,13488,13509,13528,13548,13568,13588,13610,13629,13649,13669,13689,13708,13729,13748,13768,13789,13810,13829,13850,13869,13890,13909,13929,13949,13970,13989,14008,14030,14049,14070,14089,14109,14129,14148,14169,14188,14210,14229,14249,14270,14290,14310,14328,14348,14368,14389,14408,14429,14449,14469,14488,14510,14529,14549,14569,14589,14608,14628,14650,14670,14689,14709,14730,14749,14769,14789,14809,14830,14849,14868,14890,14910,14929,14949,14969,14988,15010,15029,15049,15069,15090,15110,15130,15149,15169,15189,15208,15228,15248,15270,15290,15309,15330,15350,15369,15388,15409,15430,15449,15470,15490,15509,15529,15548,15568,15589,15610,15629,15648,15669,15689,15709,15730,15748,15769,15788,15810,15830,15849,15869,15889,15910,15929,15949,15969,15989,16008,16028,16049,16069,16088,16109,16128,16148,16169,16190,16210,16229,16249,16270,16289,16309,16328,16348,16370,16389,16409,16429,16449,16469,16489,16509,16529,16548,16570,16590,16610,16630,16650,16669,16688,16710,16728,16750,16769,16788,16809,16829,16849,16873,16889,16910,16929,16949,16968,16988,17009,17028,17049,17068,17089,17109,17128,17149,17168,17189,17209,17230,17248,17268,17289,17310,17330,17349,17370,17388,17410,17428,17448,17469,17489,17509,17529,17550,17570,17589,17609,17628,17650,17668,17688,17710,17730,17750,17769,17790,17810,17830,17849,17869,17890,17909,17929,17949,17968,17988,18008,18028,18048,18068,18088,18108,18129,18148,18168,18189,18210,18228,18250,18269,18289,18310,18330,18349,18370,18389,18408,18429,18448,18469,18490,18509,18530,18550,18569,18589,18609,18628,18648,18668,18689,18709,18729,18749,18768,18788,18809,18828,18848,18869,18888,18909,18929,18950,18968,18988,19010,19029,19049,19070,19089,19110,19128,19149,19169,19189,19209,19230,19250,19270,19290,19309,19328,19349,19369,19389,19410,19429,19450,19469,19489,19510,19528,19549,19569,19590,19609,19628,19649,19668,19689,19709,19729,19749,19769,19789,19809,19828,19850,19870,19888,19910,19929,19949,19969,19989,20009,20029,20048,20069,20090,20109,20128,20149,20169,20190,20209,20229,20248,20269,20288,20308,20328,20349,20370,20389,20409,20429,20450,20469,20490,20510,20529,20549,20568,20589,20610,20629,20650,20669,20690,20709,20729,20750,20769,20790,20809,20829,20849,20868,20888,20909,20930,20950,20968,20988,21009,21028,21049,21069,21089,21109,21128,21149,21170,21190,21209,21228,21249,21268,21288,21309,21328,21350,21368,21389,21410,21429,21449,21470,21490,21509,21529,21550,21569,21589],"xSR":741.5,"ySR":573.95,"xT1":424.9,"yT1":0,"xT2":1058.1,"yT2":0,"toosoon":0,"cond_shown":"Congruent","ratio_trial":300,"L_num":4,"L_den":5,"R_num":2,"R_den":4,"correct_side":1,"subjID":"thomassantana7","gender":"0","school":"4","age":"9"},{"start_time":1552073535642,"click_time":1552073537793,"finger_time":1552073536031,"fix_duration":549.9443751195442,"trial":26,"RT":389,"MT":1762,"sideResp":2,"stimulus":[],"xmouse":[781,782,782,782,782,782,782,782,782,782,782,782,782,782,782,782,782,782,789,804,837,856,865,874,876,876,876,877,877,877,877,877,877,877,877,877,879,881,882,882,883,884,884,885,886,888,893,897,903,904,905,906,907,908,909,909,910,910,913,914,917,919,922,931,939,945,950,955,957,958,960,961,964,970,975,982,990,1004,1008,1011,1012,1012,1012,1012,1012,1012,1012,1012,1012,1012,1013,1016,1027,1031,1033,1034,1034,1034,1035,1035,1036,1038,1040,1048,1051,1053,1056,1061],"ymouse":[635,634,634,634,634,634,634,634,634,634,634,634,634,634,634,634,634,634,614,569,485,435,411,378,369,365,362,360,358,357,357,357,357,355,348,341,330,314,309,307,303,302,300,299,296,290,282,274,265,263,262,260,259,258,257,257,256,256,253,252,248,245,241,220,205,189,176,156,152,147,143,140,134,119,108,91,77,49,42,39,37,37,37,37,37,37,37,37,37,37,37,37,35,35,33,33,33,33,33,33,33,33,33,31,31,30,30,30],"timestamp_mouse":[11,30,54,70,90,109,131,149,170,190,209,229,250,269,291,309,329,349,370,389,410,431,449,469,490,510,530,550,570,590,609,630,651,671,690,711,730,750,769,791,810,830,850,871,889,910,929,950,969,990,1011,1030,1050,1069,1090,1110,1130,1150,1170,1189,1209,1231,1250,1270,1290,1310,1330,1350,1369,1389,1410,1430,1450,1469,1489,1509,1530,1550,1570,1589,1610,1630,1651,1671,1691,1711,1730,1750,1770,1790,1809,1831,1850,1870,1889,1909,1929,1951,1970,1990,2009,2030,2050,2069,2090,2110,2130,2150],"xSR":741.5,"ySR":573.95,"xT1":424.9,"yT1":0,"xT2":1058.1,"yT2":0,"toosoon":0,"cond_shown":"Congruent","ratio_trial":100,"L_num":3,"L_den":20,"R_num":4,"R_den":16,"correct_side":2,"subjID":"thomassantana7","gender":"0","school":"4","age":"9"},{"start_time":1552073541544,"click_time":1552073546012,"finger_time":1552073545373,"fix_duration":250,"trial":27,"RT":3829,"MT":639,"sideResp":2,"stimulus":[],"xmouse":[828,828,828,828,828,828,828,828,828,828,828,828,828,828,828,828,828,828,828,828,828,828,828,828,828,828,828,828,828,828,828,828,828,828,828,828,828,828,828,828,828,828,828,828,828,828,828,828,828,828,828,828,828,828,828,828,828,828,828,828,828,828,828,828,828,828,828,828,828,828,828,828,828,828,828,828,828,828,828,828,828,828,828,828,828,828,828,828,828,828,828,828,828,828,828,828,828,828,828,828,828,828,828,828,828,828,828,828,828,828,828,828,828,828,828,828,828,828,828,828,828,828,828,828,828,828,828,828,828,828,828,828,828,828,828,828,828,828,828,828,828,828,828,828,828,828,828,828,828,828,828,828,828,828,828,828,828,828,828,828,828,828,828,828,828,828,828,828,828,828,828,828,828,828,828,828,828,828,828,828,828,828,828,828,828,828,828,828,828,828,828,834,897,968,991,1025,1033,1034,1034,1034,1034,1034,1034,1034,1034,1034,1034,1041,1049,1059,1067,1074,1075,1079,1081,1084,1086,1087,1087,1087,1087,1087,1086,1084],"ymouse":[575,575,575,575,575,575,575,575,575,575,575,575,575,575,575,575,575,575,575,575,575,575,575,575,575,575,575,575,575,575,575,575,575,575,575,575,575,575,575,575,575,575,575,575,575,575,575,575,575,575,575,575,575,575,575,575,575,575,575,575,575,575,575,575,575,575,575,575,575,575,575,575,575,575,575,575,575,575,575,575,575,575,575,575,575,575,575,575,575,575,575,575,575,575,575,575,575,575,575,575,575,575,575,575,575,575,575,575,575,575,575,575,575,575,575,575,575,575,575,575,575,575,575,575,575,575,575,575,575,575,575,575,575,575,575,575,575,575,575,575,575,575,575,575,575,575,575,575,575,575,575,575,575,575,575,575,575,575,575,575,575,575,575,575,575,575,575,575,575,575,575,575,575,575,575,575,575,575,575,575,575,575,575,575,575,575,575,575,575,575,575,569,510,414,386,342,333,332,332,332,332,332,332,332,332,332,332,317,298,277,256,240,232,213,199,175,160,130,119,114,111,111,105,99],"timestamp_mouse":[9,28,48,71,87,107,127,147,167,187,208,227,247,267,288,307,327,347,367,387,407,427,447,467,487,507,532,547,567,587,607,627,647,667,688,707,727,747,767,787,807,827,847,869,889,909,929,948,969,988,1009,1029,1048,1068,1088,1108,1128,1148,1168,1188,1209,1228,1249,1269,1288,1309,1327,1347,1369,1388,1409,1428,1448,1468,1488,1508,1528,1547,1569,1588,1609,1629,1648,1667,1688,1708,1728,1748,1769,1788,1808,1827,1848,1868,1889,1908,1929,1948,1969,1987,2008,2027,2049,2069,2090,2108,2127,2148,2168,2189,2208,2228,2247,2269,2288,2308,2329,2348,2368,2389,2408,2428,2447,2469,2487,2507,2527,2548,2569,2589,2609,2628,2647,2668,2689,2709,2728,2748,2769,2788,2808,2829,2848,2869,2887,2908,2928,2948,2969,2987,3009,3029,3049,3068,3088,3107,3128,3147,3168,3188,3208,3229,3248,3268,3288,3308,3329,3348,3367,3388,3409,3428,3449,3469,3487,3507,3528,3548,3569,3588,3609,3628,3649,3668,3687,3709,3729,3747,3767,3787,3808,3829,3849,3867,3888,3907,3928,3948,3968,3989,4008,4029,4048,4068,4089,4108,4128,4148,4167,4187,4208,4228,4248,4268,4288,4308,4327,4348,4367,4387,4408,4429,4448,4468],"xSR":741.5,"ySR":573.95,"xT1":424.9,"yT1":0,"xT2":1058.1,"yT2":0,"toosoon":0,"cond_shown":"Congruent","ratio_trial":200,"L_num":3,"L_den":10,"R_num":14,"R_den":28,"correct_side":2,"subjID":"thomassantana7","gender":"0","school":"4","age":"9"},{"start_time":1552073556020,"click_time":1552073557172,"finger_time":1552073556492,"fix_duration":1385.4037282307218,"trial":28,"RT":472,"MT":680,"sideResp":2,"stimulus":[],"xmouse":[827,827,827,827,827,827,827,827,827,827,827,827,827,827,827,827,827,827,827,827,827,827,827,842,865,891,928,963,1002,1012,1016,1017,1017,1017,1017,1017,1017,1017,1017,1017,1017,1017,1017,1017,1017,1018,1033,1047,1055,1055,1055,1056,1057,1058,1058,1058,1058,1061],"ymouse":[626,626,626,626,626,626,626,626,626,626,626,626,626,626,626,626,626,626,626,626,626,626,626,522,392,276,185,112,33,16,7,6,6,6,6,6,5,5,5,5,5,5,5,5,5,5,5,6,6,6,6,6,6,7,7,7,7,9],"timestamp_mouse":[12,37,52,72,93,112,133,152,172,192,211,233,253,272,291,313,332,353,371,392,411,432,453,472,491,511,531,552,572,592,613,632,651,672,691,712,732,752,773,793,812,833,853,872,892,911,931,951,972,993,1012,1033,1053,1073,1093,1112,1132,1152],"xSR":741.5,"ySR":573.95,"xT1":424.9,"yT1":0,"xT2":1058.1,"yT2":0,"toosoon":0,"cond_shown":"Incongruent","ratio_trial":100,"L_num":3,"L_den":6,"R_num":4,"R_den":10,"correct_side":1,"subjID":"thomassantana7","gender":"0","school":"4","age":"9"},{"start_time":1552073559533,"click_time":1552073564551,"finger_time":1552073563772,"fix_duration":919.1834351791321,"trial":29,"RT":4239,"MT":779,"sideResp":1,"stimulus":[],"xmouse":[816,816,816,816,816,816,816,816,816,816,816,816,816,816,816,816,816,816,816,816,816,816,816,816,816,816,816,816,816,816,816,816,816,816,816,816,816,816,816,816,816,816,816,816,816,816,816,816,816,816,816,816,816,816,816,816,816,816,816,816,816,816,816,816,816,816,816,816,816,816,816,816,816,816,816,816,816,816,816,816,816,816,816,816,816,816,816,816,816,816,816,816,816,816,816,816,816,816,816,816,814,813,813,813,813,813,813,813,813,813,813,813,812,809,809,809,809,809,809,809,809,809,809,809,809,809,809,809,809,809,809,809,809,809,809,809,809,809,809,809,809,809,809,809,809,809,809,809,809,809,809,809,809,809,809,809,809,809,809,809,809,809,809,809,809,809,809,809,809,809,809,809,809,809,809,809,809,809,809,809,809,809,809,809,809,809,809,809,809,809,809,809,809,809,809,809,809,809,809,809,809,809,809,809,809,809,809,809,809,809,809,792,659,483,257,0,0,0,0,0,0,0,2,21,43,71,84,105,110,112,112,112,112,112,112,114,119,187,255,321,381,411,422,422,422,422,422,422,422,423,426],"ymouse":[603,603,603,603,600,598,597,597,597,597,597,597,597,597,597,597,597,597,597,596,593,589,589,589,589,589,589,589,589,589,589,589,589,589,589,589,589,589,589,589,589,589,589,589,589,589,589,589,589,589,589,589,589,589,589,589,589,589,589,589,589,589,589,589,589,589,589,589,589,589,589,589,589,589,589,589,589,589,589,589,589,589,589,589,589,589,589,589,589,589,589,589,588,588,588,588,588,588,588,593,598,601,603,604,604,604,604,604,604,604,604,604,606,610,611,611,611,611,611,611,611,611,611,611,611,611,611,611,611,611,611,611,611,611,611,611,611,611,611,611,611,611,611,611,611,611,611,611,611,611,611,611,611,611,611,611,611,611,611,611,611,611,611,611,611,611,611,611,611,611,611,611,611,611,611,611,611,611,611,611,611,611,611,611,611,611,611,611,611,611,611,611,611,611,611,611,611,611,611,611,611,611,611,611,611,611,611,611,611,611,611,540,285,110,0,0,0,0,0,0,0,0,0,2,9,17,22,32,35,36,36,36,36,36,36,36,37,56,74,87,95,98,98,98,98,98,98,98,98,98,98],"timestamp_mouse":[18,40,62,79,98,119,139,158,179,198,220,239,260,280,300,318,340,358,378,399,419,438,459,480,500,519,540,558,578,600,619,639,659,679,699,718,738,758,779,798,820,839,858,878,900,919,938,960,978,1000,1019,1038,1060,1080,1098,1120,1138,1159,1180,1200,1219,1238,1260,1279,1300,1320,1338,1359,1378,1398,1420,1439,1460,1478,1499,1518,1539,1559,1579,1599,1619,1639,1659,1678,1699,1718,1739,1759,1780,1800,1818,1839,1860,1879,1899,1919,1940,1958,1980,2000,2018,2039,2058,2079,2098,2119,2140,2160,2178,2200,2220,2240,2258,2279,2299,2318,2338,2360,2380,2398,2418,2439,2458,2479,2499,2520,2540,2558,2579,2599,2619,2639,2659,2679,2699,2719,2738,2760,2779,2799,2819,2839,2859,2878,2899,2919,2938,2960,2978,2999,3018,3039,3058,3080,3100,3120,3139,3160,3179,3198,3219,3239,3258,3280,3300,3320,3340,3359,3379,3399,3418,3440,3459,3479,3499,3520,3539,3559,3579,3598,3618,3640,3659,3680,3699,3720,3738,3758,3780,3799,3820,3839,3859,3880,3898,3918,3938,3958,3980,4000,4019,4040,4060,4080,4100,4119,4140,4160,4180,4199,4218,4239,4258,4278,4298,4318,4339,4361,4379,4399,4420,4439,4459,4478,4499,4518,4538,4559,4578,4600,4620,4640,4659,4679,4700,4719,4740,4759,4778,4800,4819,4838,4860,4879,4899,4919,4939,4959,4980,5000,5018],"xSR":741.5,"ySR":573.95,"xT1":424.9,"yT1":0,"xT2":1058.1,"yT2":0,"toosoon":0,"cond_shown":"Congruent","ratio_trial":300,"L_num":8,"L_den":16,"R_num":1,"R_den":5,"correct_side":1,"subjID":"thomassantana7","gender":"0","school":"4","age":"9"},{"start_time":1552073574782,"click_time":1552073583212,"finger_time":1552073579152,"fix_duration":329.5542211516982,"trial":30,"RT":4370,"MT":4060,"sideResp":1,"stimulus":[],"xmouse":[774,774,774,774,774,774,774,774,774,774,774,774,774,774,774,774,774,774,774,774,774,774,774,774,774,774,774,774,774,774,774,774,774,774,774,774,774,774,774,774,774,774,774,774,774,774,774,774,774,774,774,774,774,774,774,774,774,774,774,774,774,774,774,774,774,774,774,774,774,774,774,774,774,774,774,774,774,774,774,774,774,774,774,774,774,774,774,774,774,774,774,774,774,774,774,774,774,774,774,774,774,774,774,774,774,774,774,774,774,774,774,774,774,774,774,774,774,774,774,774,774,774,774,774,774,774,774,774,774,774,774,774,774,774,774,774,774,774,774,774,774,774,774,774,774,774,774,774,774,774,774,774,774,772,771,773,774,774,774,775,775,775,775,774,773,773,773,773,772,770,765,762,759,755,753,751,751,751,751,751,751,751,751,751,751,751,751,751,751,749,747,744,744,744,744,744,744,744,744,744,744,744,744,744,744,744,744,744,744,744,744,744,744,744,744,744,744,744,744,744,744,744,744,744,744,744,744,744,744,744,750,753,754,754,754,754,754,754,754,754,754,754,754,754,754,754,754,754,754,754,754,754,754,754,754,754,754,754,754,754,753,753,753,753,753,753,753,753,753,752,748,744,738,737,736,733,729,724,720,716,713,710,709,709,709,709,709,709,709,709,709,709,709,709,709,709,709,709,709,709,709,709,709,709,709,709,709,709,709,709,709,709,709,709,709,709,709,709,709,709,709,709,709,706,699,692,691,690,689,688,688,688,688,685,684,681,679,679,678,677,675,674,671,669,667,667,667,667,667,665,664,661,661,659,658,654,652,651,645,638,632,619,618,618,618,618,618,618,618,618,618,618,618,618,618,618,618,618,618,618,618,618,618,618,618,618,618,618,618,618,608,601,595,590,589,588,588,587,587,585,577,573,569,566,562,559,556,552,549,546,540,537,537,535,527,524,517,514,512,510,508,506],"ymouse":[648,648,648,648,648,648,648,648,648,648,648,648,648,648,648,648,648,648,648,648,648,648,648,648,648,648,648,648,648,648,648,648,648,648,648,648,648,648,648,648,648,648,648,648,648,648,648,648,648,648,648,648,648,648,648,648,648,648,648,648,648,648,648,648,648,648,648,648,648,648,648,648,648,648,648,648,648,648,648,648,648,648,648,648,648,648,648,648,648,648,648,648,648,648,648,648,648,648,648,648,648,648,648,648,648,648,648,648,648,648,648,648,648,648,648,648,648,648,648,648,648,648,648,648,648,648,648,648,648,648,648,648,648,648,648,648,648,648,648,648,648,648,648,648,648,648,648,648,648,648,648,648,648,648,645,641,640,640,640,640,631,625,619,617,615,615,615,614,613,609,603,598,595,588,584,577,577,577,577,577,577,577,577,577,577,577,577,577,577,578,580,583,583,583,583,583,583,583,583,583,583,583,583,583,583,583,583,583,583,583,583,583,583,583,583,583,583,576,569,564,560,560,560,560,560,560,560,560,560,559,560,562,563,563,563,563,563,563,563,563,563,563,563,563,563,574,582,586,586,586,586,586,586,586,586,586,586,586,587,586,583,583,583,583,583,583,583,583,583,583,578,574,569,568,567,562,556,549,545,539,535,530,529,529,529,529,529,529,529,529,529,529,529,529,529,529,529,529,529,529,529,529,529,529,529,529,529,529,529,529,529,529,529,529,529,529,529,529,529,529,529,529,528,524,516,505,503,501,500,498,498,498,497,490,484,479,475,474,471,470,465,462,458,454,450,447,447,447,447,445,441,437,436,432,430,422,417,411,401,390,380,360,359,359,359,359,359,359,359,359,359,359,359,359,359,359,359,359,359,359,359,359,359,359,359,359,359,359,359,357,345,336,329,321,318,317,316,315,311,303,285,276,268,258,252,246,239,234,228,222,211,205,203,197,183,174,156,146,134,122,107,84],"timestamp_mouse":[10,43,49,71,90,110,130,150,170,190,211,230,250,269,290,311,330,350,370,391,411,430,450,469,489,511,531,549,571,591,609,629,651,670,691,709,730,751,770,791,811,830,849,870,889,910,931,950,970,991,1011,1031,1051,1071,1089,1110,1131,1149,1169,1190,1211,1231,1251,1270,1290,1310,1331,1351,1370,1391,1410,1429,1449,1471,1491,1509,1530,1551,1569,1590,1611,1631,1651,1670,1691,1711,1730,1750,1771,1790,1810,1831,1850,1871,1891,1909,1930,1950,1971,1991,2011,2031,2050,2069,2089,2109,2131,2151,2170,2191,2210,2231,2250,2271,2290,2309,2330,2351,2370,2391,2409,2429,2450,2469,2491,2510,2529,2549,2569,2590,2611,2629,2649,2669,2690,2711,2729,2749,2770,2789,2811,2830,2850,2871,2889,2910,2929,2951,2970,2990,3011,3030,3051,3070,3089,3110,3129,3149,3171,3189,3209,3229,3250,3270,3289,3310,3330,3349,3370,3390,3411,3429,3450,3470,3489,3510,3529,3551,3570,3590,3610,3630,3649,3670,3690,3710,3730,3751,3770,3789,3809,3829,3850,3869,3889,3910,3930,3950,3970,3991,4011,4030,4050,4071,4091,4109,4130,4150,4170,4189,4210,4231,4249,4269,4291,4309,4330,4350,4370,4390,4410,4430,4450,4469,4490,4510,4530,4551,4570,4591,4610,4630,4649,4671,4690,4710,4731,4750,4770,4791,4809,4830,4849,4870,4890,4910,4931,4950,4970,4990,5009,5029,5050,5071,5090,5109,5129,5151,5170,5190,5210,5230,5250,5270,5291,5310,5331,5350,5369,5391,5410,5431,5449,5469,5489,5510,5529,5549,5569,5590,5610,5630,5650,5670,5690,5709,5730,5750,5771,5791,5810,5830,5850,5869,5890,5910,5929,5950,5970,5989,6010,6030,6050,6070,6090,6110,6129,6149,6171,6189,6210,6229,6250,6270,6291,6310,6329,6349,6371,6389,6409,6430,6450,6471,6490,6510,6529,6549,6569,6590,6610,6631,6650,6669,6690,6710,6731,6750,6770,6791,6810,6829,6849,6870,6890,6910,6929,6949,6970,6991,7010,7031,7049,7069,7089,7110,7129,7150,7171,7190,7210,7230,7249,7270,7291,7310,7330,7349,7370,7390,7409,7430,7450,7471,7490,7510,7529,7550,7569,7591,7610,7629,7650,7670,7691,7710,7729,7750,7770,7791,7810,7829,7851,7869,7889,7909,7929,7950,7970,7990,8010,8029,8049,8069,8090,8110,8130,8150,8170,8189,8210,8229,8249,8271,8290,8310,8330,8350,8369,8389,8409,8430],"xSR":741.5,"ySR":573.95,"xT1":424.9,"yT1":0,"xT2":1058.1,"yT2":0,"toosoon":0,"cond_shown":"Congruent","ratio_trial":300,"L_num":1,"L_den":5,"R_num":11,"R_den":22,"correct_side":2,"subjID":"thomassantana7","gender":"0","school":"4","age":"9"},{"start_time":1552073587240,"click_time":1552073590032,"finger_time":1552073588612,"fix_duration":1367.0683700742911,"trial":31,"RT":1372,"MT":1420,"sideResp":1,"stimulus":[],"xmouse":[799,799,799,799,799,799,799,799,799,799,799,799,799,799,799,799,799,799,799,799,799,799,799,799,799,799,799,799,799,799,799,799,799,799,799,799,799,799,799,799,799,799,799,799,799,799,799,799,799,799,799,799,799,799,799,799,799,799,799,799,799,799,799,799,799,802,808,828,865,876,883,885,885,885,887,891,894,896,897,898,902,910,919,935,942,948,952,960,962,967,970,973,977,977,979,981,984,990,991,991,991,991,991,991,991,991,991,982,969,955,926,905,862,844,830,820,812,803,801,799,794,790,773,762,748,729,710,664,651,639,632,629,628,619,611,596,580,546,529,519],"ymouse":[608,608,608,608,608,608,608,608,608,608,608,608,608,608,608,608,608,608,608,608,608,608,608,608,608,608,608,608,608,608,608,608,608,608,608,608,608,608,608,608,608,608,608,608,608,608,608,608,608,608,608,608,608,608,608,608,608,608,608,608,608,608,608,608,608,608,604,589,562,554,549,547,547,547,544,534,522,506,497,481,459,423,399,364,347,336,325,311,304,294,288,282,274,272,270,264,257,246,244,244,244,244,244,244,244,244,243,245,249,253,256,258,258,258,258,258,258,258,258,258,258,258,250,240,229,215,202,174,164,152,148,146,145,141,137,131,124,108,98,92],"timestamp_mouse":[12,41,52,73,91,112,132,152,173,192,213,233,252,273,291,312,333,352,371,392,412,433,451,471,492,513,531,552,571,592,613,632,652,671,693,713,732,752,773,792,812,831,852,873,891,912,933,952,973,992,1011,1032,1052,1073,1091,1113,1132,1151,1173,1192,1211,1232,1252,1271,1291,1312,1333,1352,1372,1392,1412,1431,1452,1471,1492,1511,1531,1551,1571,1591,1612,1632,1652,1671,1692,1712,1731,1752,1771,1791,1812,1832,1852,1871,1892,1913,1933,1952,1972,1992,2011,2031,2052,2072,2093,2113,2131,2151,2172,2191,2211,2231,2251,2271,2292,2311,2332,2352,2372,2393,2413,2431,2452,2471,2491,2511,2532,2552,2572,2592,2611,2632,2652,2672,2692,2713,2731,2751,2772,2792],"xSR":741.5,"ySR":573.95,"xT1":424.9,"yT1":0,"xT2":1058.1,"yT2":0,"toosoon":0,"cond_shown":"Incongruent","ratio_trial":200,"L_num":3,"L_den":4,"R_num":11,"R_den":20,"correct_side":1,"subjID":"thomassantana7","gender":"0","school":"4","age":"9"},{"start_time":1552073591808,"click_time":1552073599253,"finger_time":1552073592092,"fix_duration":553.5853312450763,"trial":32,"RT":284,"MT":7161,"sideResp":2,"stimulus":[],"xmouse":[768,768,768,768,768,768,768,768,768,768,768,768,768,768,769,772,780,789,795,800,799,791,753,695,695,695,695,695,695,312,319,330,345,367,387,445,474,495,499,499,499,499,500,509,522,542,547,559,589,647,678,684,692,697,697,697,697,700,705,744,762,786,792,801,802,802,802,802,802,802,802,802,802,802,801,793,795,799,799,799,799,799,799,799,799,799,799,799,799,799,799,799,801,813,825,839,840,841,841,841,841,841,840,840,839,839,839,839,839,839,839,839,837,834,830,829,829,828,826,825,822,811,809,797,785,782,779,777,775,774,774,774,774,774,774,774,774,774,774,774,774,774,774,774,774,774,774,774,774,774,774,774,774,774,774,774,774,774,774,774,774,774,774,774,774,774,774,774,774,774,774,774,774,774,774,774,774,774,774,774,774,774,774,774,774,774,774,774,774,774,774,774,774,774,774,774,774,774,774,774,774,774,774,774,774,774,774,774,774,774,774,774,774,774,774,774,774,774,774,774,774,774,774,774,774,774,774,774,774,774,774,774,774,774,774,774,774,774,774,774,774,774,774,774,774,774,774,774,774,774,774,774,774,774,774,774,774,774,774,774,774,774,774,774,774,774,774,774,774,774,774,774,774,774,774,774,774,774,774,774,774,774,774,774,774,774,774,774,774,774,774,774,774,774,774,774,774,774,774,774,774,774,774,774,774,774,774,774,774,774,778,784,784,784,784,784,784,784,784,784,784,784,784,784,784,784,777,774,765,760,759,755,745,739,735,734,731,729,729,729,729,728,728,728,727,727,727,730,784,812,874,949,992,1018,1055,1059,1060,1060,1061,1064,1068,1069,1076,1082,1091,1096,1100,1103,1107,1115,1124,1129,1143],"ymouse":[673,673,673,673,673,673,673,673,673,673,673,673,673,673,674,674,677,683,687,695,699,707,750,827,827,827,827,827,827,866,855,841,823,802,786,757,744,737,736,736,736,736,736,763,781,790,790,782,761,720,698,693,684,680,680,680,680,679,677,664,656,645,643,639,638,638,638,638,638,638,638,638,638,638,638,637,632,632,632,632,632,632,632,632,632,632,632,632,632,632,632,632,631,618,600,582,582,582,582,582,584,585,586,587,587,587,587,587,587,587,587,587,587,587,587,587,587,588,590,590,592,595,596,600,608,613,616,618,620,622,622,622,623,625,628,630,630,630,630,630,630,630,630,630,630,630,630,630,631,631,631,631,631,631,631,631,631,631,631,631,631,631,631,631,631,631,631,631,631,631,631,631,631,631,631,631,631,631,631,631,631,631,631,631,631,631,631,631,631,631,631,631,631,631,631,631,631,631,631,631,631,631,631,631,631,631,631,631,631,631,631,631,631,631,631,631,631,631,631,631,631,631,631,631,631,631,631,631,631,631,631,631,631,631,631,631,631,631,631,631,631,631,631,631,631,631,631,631,631,631,631,631,631,631,631,631,631,631,631,631,631,631,631,631,631,631,631,631,631,631,631,631,631,631,631,631,631,631,631,631,631,631,631,631,631,631,631,631,631,631,631,631,631,631,631,631,631,631,631,631,631,631,631,631,631,631,631,631,631,625,625,625,625,625,625,625,625,625,625,625,625,625,625,625,625,625,595,576,558,554,554,554,554,554,554,554,554,554,554,554,554,554,552,549,548,548,548,546,525,517,501,464,440,424,404,402,401,401,400,396,389,386,372,358,322,301,276,252,227,170,121,102,41],"timestamp_mouse":[10,35,43,64,84,104,123,143,165,184,203,223,244,265,284,304,323,345,364,384,404,424,444,464,484,503,524,545,564,584,603,624,645,664,684,705,724,745,765,784,805,823,843,864,884,905,925,943,964,983,1004,1023,1045,1063,1084,1103,1125,1144,1165,1184,1205,1224,1245,1264,1285,1305,1323,1343,1363,1384,1404,1423,1445,1464,1484,1503,1524,1545,1563,1584,1603,1624,1644,1665,1684,1703,1723,1743,1764,1785,1804,1824,1845,1864,1884,1905,1924,1944,1964,1984,2005,2023,2043,2064,2084,2104,2123,2144,2165,2184,2205,2224,2245,2263,2284,2304,2323,2343,2364,2385,2404,2423,2444,2464,2483,2504,2524,2543,2564,2583,2605,2625,2645,2663,2683,2703,2724,2744,2763,2784,2805,2824,2844,2863,2884,2904,2923,2944,2964,2984,3003,3025,3045,3063,3084,3104,3125,3143,3163,3184,3205,3223,3245,3265,3284,3304,3324,3343,3364,3385,3404,3425,3443,3464,3483,3503,3524,3544,3565,3583,3603,3623,3643,3664,3685,3704,3724,3744,3764,3783,3805,3823,3844,3864,3884,3903,3925,3945,3965,3983,4003,4025,4044,4067,4084,4105,4124,4145,4164,4184,4203,4224,4245,4265,4284,4303,4324,4343,4364,4385,4405,4425,4445,4464,4484,4503,4524,4543,4564,4585,4604,4625,4644,4664,4684,4704,4724,4744,4763,4784,4803,4824,4845,4863,4883,4903,4925,4944,4963,4984,5004,5024,5044,5065,5084,5104,5125,5145,5164,5184,5204,5223,5243,5264,5285,5303,5323,5343,5365,5385,5404,5425,5444,5464,5483,5503,5523,5543,5564,5583,5603,5624,5644,5664,5684,5703,5723,5744,5765,5784,5805,5824,5845,5864,5884,5904,5923,5944,5964,5983,6004,6025,6044,6064,6083,6103,6124,6143,6165,6184,6205,6224,6243,6264,6285,6303,6323,6351,6364,6384,6405,6424,6444,6463,6484,6503,6525,6545,6563,6584,6604,6623,6644,6664,6683,6703,6724,6745,6765,6784,6804,6824,6845,6864,6884,6904,6923,6945,6970,6984,7003,7024,7044,7065,7084,7104,7123,7143,7165,7184,7204,7224,7243,7265,7284,7303,7325,7343,7363,7383,7403,7425,7445],"xSR":741.5,"ySR":573.95,"xT1":424.9,"yT1":0,"xT2":1058.1,"yT2":0,"toosoon":0,"cond_shown":"Incongruent","ratio_trial":300,"L_num":4,"L_den":5,"R_num":8,"R_den":16,"correct_side":1,"subjID":"thomassantana7","gender":"0","school":"4","age":"9"},{"start_time":1552073601564,"click_time":1552073602412,"finger_time":1552073601911,"fix_duration":1271.402377522207,"trial":33,"RT":347,"MT":501,"sideResp":1,"stimulus":[],"xmouse":[774,774,774,774,774,774,774,774,774,774,774,774,774,774,774,774,774,741,698,644,590,440,345,225,110,0,0,0,0,0,0,22,29,29,29,31,70,83,107,147,208,357,434],"ymouse":[605,605,605,605,605,605,605,605,605,605,605,605,605,605,605,605,595,457,313,125,0,0,0,0,0,0,0,8,55,117,191,320,346,346,346,340,135,0,0,0,0,0,35],"timestamp_mouse":[12,42,48,68,88,107,129,147,168,188,207,227,248,267,289,309,327,347,368,389,408,428,448,467,487,507,529,547,568,587,609,629,648,667,688,707,727,749,769,787,809,829,848],"xSR":741.5,"ySR":573.95,"xT1":424.9,"yT1":0,"xT2":1058.1,"yT2":0,"toosoon":0,"cond_shown":"Congruent","ratio_trial":200,"L_num":8,"L_den":15,"R_num":2,"R_den":6,"correct_side":1,"subjID":"thomassantana7","gender":"0","school":"4","age":"9"},{"start_time":1552073605031,"click_time":1552073605892,"finger_time":1552073605433,"fix_duration":1198.090784483925,"trial":34,"RT":402,"MT":459,"sideResp":2,"stimulus":[],"xmouse":[791,791,791,791,791,791,791,791,791,791,791,791,791,791,791,791,791,790,791,800,813,829,868,889,915,934,957,988,994,997,998,998,998,998,998,998,998,998,998,998,1023,1050,1074],"ymouse":[626,626,626,626,626,626,626,626,626,626,626,626,626,626,626,626,626,621,605,565,535,511,462,427,384,343,290,191,152,130,115,106,105,105,105,105,105,105,105,104,100,96,91],"timestamp_mouse":[16,43,61,80,101,122,141,160,181,200,220,241,262,281,301,320,341,361,381,402,420,441,461,480,501,521,542,561,580,600,622,641,660,681,700,721,740,761,782,801,821,841,861],"xSR":741.5,"ySR":573.95,"xT1":424.9,"yT1":0,"xT2":1058.1,"yT2":0,"toosoon":0,"cond_shown":"Congruent","ratio_trial":100,"L_num":8,"L_den":16,"R_num":2,"R_den":5,"correct_side":1,"subjID":"thomassantana7","gender":"0","school":"4","age":"9"},{"start_time":1552073607483,"click_time":1552073608292,"finger_time":1552073607891,"fix_duration":250,"trial":35,"RT":408,"MT":401,"sideResp":1,"stimulus":[],"xmouse":[809,809,809,809,809,809,809,809,809,809,809,809,809,809,809,809,809,807,795,777,736,714,692,670,656,643,619,606,598,592,584,569,565,564,564,564,564,563,558,544,508],"ymouse":[623,623,623,623,623,623,623,623,623,623,623,623,623,623,623,623,623,624,613,594,546,511,467,425,401,380,347,323,305,289,267,232,220,214,209,202,176,159,138,106,64],"timestamp_mouse":[11,41,49,69,88,108,129,148,170,188,209,229,249,268,289,309,330,350,370,390,408,428,449,470,489,509,529,548,570,590,609,629,649,670,688,709,729,748,768,789,809],"xSR":741.5,"ySR":573.95,"xT1":424.9,"yT1":0,"xT2":1058.1,"yT2":0,"toosoon":0,"cond_shown":"Congruent","ratio_trial":100,"L_num":11,"L_den":22,"R_num":6,"R_den":15,"correct_side":1,"subjID":"thomassantana7","gender":"0","school":"4","age":"9"},{"start_time":1552073614263,"click_time":1552073617031,"finger_time":1552073615891,"fix_duration":250,"trial":36,"RT":1628,"MT":1140,"sideResp":1,"stimulus":[],"xmouse":[791,791,791,791,791,791,791,791,791,791,791,791,791,791,791,791,791,791,791,791,791,791,791,791,791,791,791,792,792,792,792,792,792,792,792,792,792,792,792,792,792,792,792,792,792,792,792,792,792,792,792,792,792,792,792,792,792,792,792,792,792,792,792,792,792,792,792,792,792,792,792,792,792,792,792,792,792,792,802,818,826,828,828,828,828,828,821,812,802,781,752,635,543,425,300,168,31,0,0,0,0,0,4,22,40,56,66,80,94,102,110,123,133,150,164,183,211,232,246,268,301,417,464,495,514,525,527,527,527,527,527,527,527,527,527,527,527,527,524],"ymouse":[629,629,629,629,629,629,629,629,629,629,629,629,629,629,629,629,629,629,629,629,629,629,629,629,629,629,629,629,629,629,629,629,629,629,629,629,629,629,629,629,629,629,629,629,629,629,629,629,629,629,629,629,629,629,629,629,629,629,629,629,629,629,629,629,629,629,629,629,629,629,629,629,629,629,629,629,629,629,633,646,663,675,680,680,680,680,671,655,638,606,576,466,385,281,166,47,0,0,0,0,0,0,0,0,0,0,0,7,19,26,32,37,39,41,41,41,41,39,35,30,19,0,0,0,0,0,0,0,0,0,0,0,0,0,0,0,0,5,11],"timestamp_mouse":[10,45,48,69,88,110,129,150,170,189,208,229,250,269,289,310,329,349,369,389,410,430,450,469,488,509,530,549,569,588,610,628,650,668,690,709,728,750,768,789,810,829,850,868,890,910,928,948,970,989,1009,1030,1050,1068,1088,1109,1130,1149,1169,1189,1209,1228,1248,1268,1289,1309,1328,1348,1370,1389,1410,1430,1448,1468,1488,1508,1528,1549,1569,1590,1609,1628,1649,1669,1689,1710,1729,1749,1768,1790,1808,1829,1850,1869,1890,1909,1929,1948,1968,1988,2008,2030,2048,2069,2089,2108,2128,2148,2169,2190,2209,2229,2248,2268,2288,2309,2330,2348,2369,2388,2410,2429,2450,2469,2488,2508,2529,2549,2569,2589,2608,2629,2648,2669,2689,2710,2729,2749,2768],"xSR":741.5,"ySR":573.95,"xT1":424.9,"yT1":0,"xT2":1058.1,"yT2":0,"toosoon":0,"cond_shown":"Incongruent","ratio_trial":200,"L_num":7,"L_den":10,"R_num":12,"R_den":24,"correct_side":1,"subjID":"thomassantana7","gender":"0","school":"4","age":"9"},{"start_time":1552073622844,"click_time":1552073623871,"finger_time":1552073622854,"fix_duration":250,"trial":37,"RT":10,"MT":1017,"sideResp":1,"stimulus":[],"xmouse":[788,770,768,768,768,768,768,768,768,768,768,768,768,768,769,770,771,771,771,771,771,770,733,700,667,647,634,617,610,604,597,592,583,578,572,566,559,546,541,532,526,522,516,513,511,508,507,501,497,496,488,484],"ymouse":[571,566,565,565,565,565,565,565,565,565,565,565,565,565,565,565,565,565,565,565,565,565,541,524,508,496,485,465,455,443,431,418,391,372,353,332,311,274,257,233,220,211,196,191,185,178,172,153,135,127,103,92],"timestamp_mouse":[10,28,48,68,87,108,128,148,168,189,208,228,248,268,289,308,328,348,368,387,408,428,447,467,488,508,528,548,567,587,609,629,648,668,688,708,728,748,767,788,809,828,848,867,888,909,928,948,968,989,1008,1027],"xSR":741.5,"ySR":573.95,"xT1":424.9,"yT1":0,"xT2":1058.1,"yT2":0,"toosoon":0,"cond_shown":"Incongruent","ratio_trial":200,"L_num":9,"L_den":15,"R_num":8,"R_den":10,"correct_side":2,"subjID":"thomassantana7","gender":"0","school":"4","age":"9"},{"start_time":1552073636963,"click_time":1552073644532,"finger_time":1552073643931,"fix_duration":808.8374209483609,"trial":38,"RT":6968,"MT":601,"sideResp":2,"stimulus":[],"xmouse":[787,787,787,787,787,787,787,787,787,787,787,787,787,787,787,787,787,787,787,787,787,787,787,787,787,787,787,787,787,787,787,787,787,787,787,787,787,787,787,787,787,787,787,787,787,787,787,787,787,787,787,787,787,787,787,787,787,787,787,787,787,787,787,787,787,787,787,787,787,787,787,787,787,787,787,787,787,787,787,787,787,787,787,787,787,787,787,787,787,787,787,787,787,787,787,787,787,787,787,787,787,787,787,787,787,787,787,787,787,787,787,787,787,787,787,787,787,787,787,787,787,787,787,787,787,787,787,787,787,787,787,787,787,787,787,787,787,787,787,787,787,787,787,787,787,787,787,787,787,787,787,787,787,787,787,787,787,787,787,787,787,787,787,787,787,787,787,787,787,787,787,787,787,787,787,787,787,787,787,787,787,787,787,787,787,787,787,787,787,787,787,787,787,787,787,787,787,787,787,787,787,787,787,787,787,787,787,787,787,787,787,787,787,787,787,787,787,787,787,787,787,787,787,787,787,787,787,787,787,787,787,787,787,787,787,787,787,787,787,787,787,787,787,787,787,787,787,787,787,787,787,787,787,787,787,787,787,787,787,787,787,787,787,787,787,787,787,787,787,787,787,787,787,787,787,787,787,787,787,787,787,787,787,787,787,787,787,787,787,787,787,787,787,787,787,787,787,787,787,787,787,787,787,787,787,787,787,787,787,787,787,787,787,787,787,787,787,787,787,787,787,787,787,787,787,787,787,787,787,787,787,787,787,787,787,787,787,787,787,787,787,787,787,787,788,788,788,791,804,825,848,864,864,862,862,862,862,862,862,862,862,862,864,870,878,883,892,896,899,903,905,908,909,909,910,918,989,1043,1098],"ymouse":[608,608,608,608,608,608,608,608,608,608,608,608,608,608,608,608,608,608,608,608,608,608,608,608,608,608,608,608,608,608,608,608,608,608,608,608,608,608,608,608,608,608,608,608,608,608,608,608,608,608,608,608,608,608,608,608,608,608,608,608,608,608,608,608,608,608,608,608,608,608,608,608,608,608,608,608,608,608,608,608,608,608,608,608,608,608,608,608,608,608,608,608,608,608,608,608,608,608,608,608,608,608,608,608,608,608,608,608,608,608,608,608,608,608,608,608,608,608,608,608,608,608,608,608,608,608,608,608,608,608,608,608,608,608,608,608,608,608,608,608,608,608,608,608,608,608,608,608,608,608,608,608,608,608,608,608,608,608,608,608,608,608,608,608,608,608,608,608,608,608,608,608,608,608,608,608,608,608,608,608,608,608,608,608,608,608,608,608,608,608,608,608,608,608,608,608,608,608,608,608,608,608,608,608,608,608,608,608,608,608,608,608,608,608,608,608,608,608,608,608,608,608,608,608,608,608,608,608,608,608,608,608,608,608,608,608,608,608,608,608,608,608,608,608,608,608,608,608,608,608,608,608,608,608,608,608,608,608,608,608,608,608,608,608,608,608,608,608,608,608,608,608,608,608,608,608,608,608,608,608,608,608,608,608,608,608,608,608,608,608,608,608,608,608,608,608,608,608,608,608,608,608,608,608,608,608,608,608,608,608,608,608,608,608,608,608,608,608,608,608,608,608,608,608,608,608,608,608,608,608,608,608,608,608,608,608,608,608,608,608,608,608,608,608,604,603,600,589,564,511,449,391,384,377,367,359,345,325,301,264,237,183,164,134,104,92,75,69,65,61,58,58,57,57,57,55,35,21,5],"timestamp_mouse":[13,43,49,69,88,109,130,150,168,190,209,228,249,270,289,309,329,348,370,389,409,430,450,470,489,508,529,549,570,588,608,629,650,669,689,709,728,750,769,790,809,829,848,870,888,908,930,949,969,989,1008,1028,1049,1069,1088,1108,1128,1148,1169,1189,1208,1228,1249,1268,1288,1309,1330,1348,1369,1388,1408,1429,1450,1469,1489,1508,1530,1550,1569,1589,1609,1629,1649,1668,1688,1709,1729,1749,1769,1788,1808,1828,1848,1869,1890,1908,1928,1949,1968,1988,2008,2028,2048,2069,2088,2108,2129,2150,2168,2189,2208,2230,2249,2269,2289,2309,2330,2349,2369,2389,2409,2428,2449,2470,2490,2510,2529,2550,2568,2588,2610,2629,2649,2668,2690,2709,2728,2749,2770,2789,2808,2829,2849,2868,2889,2909,2928,2949,2970,2988,3009,3028,3050,3069,3088,3108,3129,3149,3168,3188,3209,3228,3250,3269,3289,3309,3328,3350,3370,3388,3409,3430,3449,3468,3489,3510,3529,3549,3569,3589,3609,3629,3649,3668,3689,3709,3729,3749,3769,3788,3808,3829,3850,3869,3889,3909,3930,3948,3969,3990,4009,4030,4050,4069,4088,4109,4128,4148,4170,4190,4208,4229,4249,4269,4289,4309,4329,4350,4370,4389,4409,4429,4450,4469,4489,4509,4530,4548,4568,4590,4609,4629,4649,4669,4689,4709,4730,4749,4769,4789,4809,4830,4849,4869,4890,4909,4929,4949,4970,4989,5010,5029,5049,5070,5088,5109,5129,5149,5170,5190,5209,5228,5249,5269,5290,5309,5328,5349,5368,5388,5408,5429,5449,5469,5490,5508,5529,5550,5569,5589,5610,5628,5648,5669,5690,5709,5729,5749,5769,5789,5808,5829,5850,5869,5889,5909,5929,5948,5969,5989,6009,6029,6049,6069,6088,6109,6128,6149,6169,6189,6208,6229,6250,6268,6288,6308,6329,6350,6368,6389,6409,6428,6449,6469,6489,6509,6530,6548,6569,6589,6609,6629,6650,6668,6689,6709,6729,6748,6769,6788,6808,6829,6848,6869,6890,6909,6928,6949,6968,6989,7008,7028,7048,7069,7090,7110,7129,7148,7168,7190,7209,7230,7248,7269,7289,7309,7329,7349,7368,7388,7409,7428,7448,7469,7488,7508,7528,7548,7569],"xSR":741.5,"ySR":573.95,"xT1":424.9,"yT1":0,"xT2":1058.1,"yT2":0,"toosoon":0,"cond_shown":"Incongruent","ratio_trial":200,"L_num":7,"L_den":10,"R_num":12,"R_den":24,"correct_side":1,"subjID":"thomassantana7","gender":"0","school":"4","age":"9"},{"start_time":1552073648142,"click_time":1552073664893,"finger_time":1552073664012,"fix_duration":1007.2181450432565,"trial":39,"RT":15870,"MT":881,"sideResp":2,"stimulus":[],"xmouse":[798,798,798,798,798,798,798,798,798,798,798,798,798,798,798,798,798,798,798,798,798,798,798,798,798,798,798,798,798,798,798,798,798,798,798,798,798,798,798,798,798,798,798,798,798,798,798,798,798,798,798,798,798,798,798,798,798,798,798,798,798,798,798,798,798,798,798,798,798,798,798,798,798,798,798,798,798,798,798,798,798,798,798,798,798,798,798,798,798,798,798,798,798,798,798,798,798,798,798,798,798,798,798,798,798,798,798,798,798,798,798,798,798,798,798,798,798,798,798,798,798,798,798,798,798,798,798,798,798,798,798,798,798,798,798,798,798,798,798,798,798,798,798,798,798,798,798,798,798,798,798,798,798,798,798,798,798,798,798,798,798,798,798,798,798,798,798,798,798,798,798,798,798,798,798,798,798,798,798,798,798,798,798,798,798,798,798,798,798,798,798,798,798,798,798,798,798,798,798,798,798,798,798,798,798,798,798,798,798,798,798,798,798,798,798,798,798,798,798,798,798,798,798,798,798,798,798,798,798,798,798,798,798,798,798,798,798,798,798,798,798,798,798,798,798,798,798,798,798,