[{"start_time":1552313889361,"click_time":1552313891826,"finger_time":1552313890446,"fix_duration":250,"trial":0,"RT":1085,"MT":1380,"sideResp":1,"stimulus":"img/500/equaldotsize/L/4_Ratio_500_L_18_R_9.png","xmouse":[762,762,762,762,762,762,762,762,762,762,762,762,762,762,762,762,762,762,762,762,761,761,761,761,761,761,761,761,761,761,761,761,761,761,761,761,761,761,761,761,761,761,761,761,761,761,761,761,761,761,761,761,759,751,733,664,602,536,471,406,293,192,149,130,126,126,126,126,128,132,143,155,163,175,189,206,212,214,216,224,247,254,258,261,266,293,320,337,347,347,347,348,350,352,353,353,353,353,353,353,353,354,368,391,410,415,415,415,415,415,415,415,415,415,415,415,415,415,415,415,415,416,420,428],"ymouse":[552,552,552,552,552,552,552,552,552,552,552,552,552,552,552,552,552,552,552,552,552,552,552,552,552,552,552,552,552,552,552,552,552,552,552,552,552,552,552,552,552,552,552,552,552,552,552,552,552,552,552,552,552,552,550,538,522,497,469,441,369,313,287,270,261,252,233,222,208,193,168,152,144,135,128,117,113,113,111,108,98,94,91,89,84,60,42,29,22,22,22,21,20,19,19,19,19,19,19,19,19,19,19,18,18,18,18,18,18,18,18,18,18,18,18,18,18,18,18,18,18,20,20,22],"timestamp_mouse":[10,44,44,66,86,105,125,145,164,185,204,225,245,266,285,305,324,344,365,385,405,425,446,466,485,506,525,546,565,584,605,625,645,666,686,705,724,745,765,785,806,825,845,865,885,905,925,945,966,984,1005,1025,1045,1064,1085,1105,1125,1145,1165,1185,1205,1224,1245,1265,1285,1305,1325,1345,1365,1385,1405,1424,1444,1465,1486,1506,1525,1545,1565,1585,1606,1625,1645,1665,1685,1706,1725,1745,1766,1785,1806,1825,1845,1865,1885,1904,1924,1944,1966,1986,2005,2024,2045,2066,2085,2105,2124,2146,2165,2186,2205,2225,2245,2265,2285,2305,2325,2346,2366,2386,2405,2425,2445,2465],"xSR":741.5,"ySR":490.1,"xT1":424.9,"yT1":0,"xT2":1058.1,"yT2":0,"toosoon":0,"cond_shown":"equaldotsize","ratio_trial":500,"smaller_num":"9","larger_num":"18","correct_side":1,"subjID":"Tomas Moreno Moreno 12","gender":"0","age":"9","school":"4","test":{"fix_dur":[250,1500],"timestim":300,"targets_dim":[100,100],"targets_relative_coord":[0.3,0.7],"size_stim":[880,420],"start_dim":[100,100],"size_start":[300,300],"size_fix":60,"samplingrate":20,"img_types":["equaldotsize","equaldotanddens","randomdotsizeEA"],"ratios":[250,500,750,900],"rep_conds":9,"nTrials":120,"trials_to_rest":500,"Trials_order":[99,31,7,2,82,54,59,8,83,46,44,100,118,30,20,52,39,9,45,94,93,101,32,11,60,15,77,5,78,62,117,23,112,48,13,28,119,34,12,74,81,85,24,55,41,37,14,4,105,61,17,113,26,107,21,84,88,27,109,0,102,92,36,80,25,1,91,95,116,76,97,96,104,68,89,87,106,3,53,58,72,115,79,114,65,71,98,73,111,42,47,108,66,51,43,49,70,67,6,110,56,10,63,18,103,35,69,16,19,38,40,22,50,90,86,75,64,57,29,33],"cond_shown":["equaldotsize","equaldotanddens","equaldotanddens","randomdotsizeEA","equaldotanddens","equaldotsize","randomdotsizeEA","randomdotsizeEA","randomdotsizeEA","equaldotanddens","randomdotsizeEA","equaldotanddens","equaldotanddens","equaldotsize","randomdotsizeEA","equaldotanddens","equaldotsize","equaldotsize","equaldotsize","equaldotanddens","equaldotsize","randomdotsizeEA","randomdotsizeEA","randomdotsizeEA","equaldotsize","equaldotsize","randomdotsizeEA","randomdotsizeEA","equaldotsize","randomdotsizeEA","equaldotsize","randomdotsizeEA","equaldotanddens","equaldotsize","equaldotanddens","equaldotanddens","randomdotsizeEA","equaldotanddens","equaldotsize","randomdotsizeEA","equaldotsize","equaldotanddens","equaldotsize","equaldotanddens","randomdotsizeEA","equaldotanddens","randomdotsizeEA","equaldotanddens","equaldotsize","equaldotanddens","randomdotsizeEA","randomdotsizeEA","randomdotsizeEA","randomdotsizeEA","equaldotsize","equaldotsize","equaldotanddens","equaldotsize","equaldotanddens","equaldotsize","equaldotsize","randomdotsizeEA","equaldotsize","randomdotsizeEA","equaldotanddens","equaldotanddens","equaldotanddens","randomdotsizeEA","randomdotsizeEA","equaldotanddens","equaldotanddens","equaldotsize","randomdotsizeEA","randomdotsizeEA","randomdotsizeEA","equaldotsize","equaldotanddens","equaldotsize","randomdotsizeEA","equaldotanddens","equaldotsize","equaldotanddens","equaldotanddens","equaldotsize","randomdotsizeEA","randomdotsizeEA","randomdotsizeEA","equaldotanddens","equaldotsize","equaldotsize","randomdotsizeEA","equaldotsize","equaldotsize","equaldotsize","equaldotanddens","equaldotanddens","equaldotanddens","equaldotanddens","equaldotsize","randomdotsizeEA","randomdotsizeEA","equaldotanddens","equaldotsize","equaldotsize","equaldotanddens","randomdotsizeEA","equaldotsize","equaldotanddens","equaldotanddens","randomdotsizeEA","equaldotanddens","equaldotanddens","randomdotsizeEA","equaldotsize","randomdotsizeEA","equaldotsize","equaldotanddens","equaldotsize","randomdotsizeEA","equaldotsize"],"ratio_trial":[500,750,750,250,900,750,900,750,900,900,750,500,900,750,750,500,500,900,900,900,900,500,750,900,250,500,500,500,750,250,900,900,500,250,250,500,900,900,250,250,900,250,250,750,500,250,250,500,900,250,500,500,250,900,900,250,500,500,250,250,750,750,250,750,250,250,750,900,750,500,250,250,750,750,500,500,900,500,500,900,250,750,750,750,500,900,250,250,500,750,900,250,750,500,750,250,900,750,750,250,750,900,500,750,750,900,900,500,750,250,500,900,250,750,250,500,500,900,500,900],"smaller_num":["9","3","3","5","18","6","18","6","18","18","3","4","18","3","3","9","9","18","18","9","9","9","6","18","3","5","6","5","3","2","18","18","9","4","2","1","18","18","2","3","18","2","6","3","6","3","6","1","9","3","2","1","5","18","9","2","2","2","2","3","18","3","3","15","3","3","15","9","15","10","3","3","6","15","2","5","9","4","4","18","2","3","3","6","5","18","6","2","10","3","18","2","3","9","6","5","9","12","3","6","18","18","9","9","6","18","18","5","15","3","3","18","2","15","3","5","2","9","2","18"],"larger_num":["18","4","4","20","20","8","20","8","20","20","4","8","20","4","4","18","18","20","20","10","10","18","8","20","12","10","12","10","4","8","20","20","18","16","8","2","20","20","8","12","20","8","24","4","12","12","24","2","10","12","4","2","20","20","10","8","4","4","8","12","24","4","12","20","12","12","20","10","20","20","12","12","8","20","4","10","10","8","8","20","8","4","4","8","10","20","24","8","20","4","20","8","4","18","8","20","10","16","4","24","24","20","18","12","8","20","20","10","20","12","6","20","8","20","12","10","4","10","4","20"],"correct_side":[1,2,1,2,1,1,1,1,1,2,2,1,2,1,1,1,2,1,1,2,1,1,1,1,1,1,1,2,1,1,1,2,1,2,1,2,1,1,1,1,1,1,1,2,1,1,2,2,1,1,1,2,2,1,2,2,1,1,1,2,1,1,1,2,2,2,2,2,2,2,2,1,2,2,2,1,2,1,1,1,1,2,1,1,2,2,1,1,2,1,1,1,1,1,1,2,2,2,1,1,1,2,2,2,1,2,1,1,2,2,2,1,1,2,2,1,2,2,2,1],"img_shown":["img/500/equaldotsize/L/4_Ratio_500_L_18_R_9.png","img/750/equaldotanddens/R/12_Ratio_750_L_3_R_4.png","img/750/equaldotanddens/L/8_Ratio_750_L_4_R_3.png","img/250/randomdotsizeEA/R/12_Ratio_250_L_5_R_20.png","img/900/equaldotanddens/L/2_Ratio_900_L_20_R_18.png","img/750/equaldotsize/L/13_Ratio_750_L_8_R_6.png","img/900/randomdotsizeEA/L/4_Ratio_900_L_20_R_18.png","img/750/randomdotsizeEA/L/14_Ratio_750_L_8_R_6.png","img/900/randomdotsizeEA/L/2_Ratio_900_L_20_R_18.png","img/900/equaldotanddens/R/9_Ratio_900_L_18_R_20.png","img/750/randomdotsizeEA/R/12_Ratio_750_L_3_R_4.png","img/500/equaldotanddens/L/8_Ratio_500_L_8_R_4.png","img/900/equaldotanddens/R/13_Ratio_900_L_18_R_20.png","img/750/equaldotsize/L/9_Ratio_750_L_4_R_3.png","img/750/randomdotsizeEA/L/8_Ratio_750_L_4_R_3.png","img/500/equaldotanddens/L/4_Ratio_500_L_18_R_9.png","img/500/equaldotsize/R/6_Ratio_500_L_9_R_18.png","img/900/equaldotsize/L/4_Ratio_900_L_20_R_18.png","img/900/equaldotsize/L/10_Ratio_900_L_20_R_18.png","img/900/equaldotanddens/R/15_Ratio_900_L_9_R_10.png","img/900/equaldotsize/L/1_Ratio_900_L_10_R_9.png","img/500/randomdotsizeEA/L/4_Ratio_500_L_18_R_9.png","img/750/randomdotsizeEA/L/14_Ratio_750_L_8_R_6.png","img/900/randomdotsizeEA/L/4_Ratio_900_L_20_R_18.png","img/250/equaldotsize/L/14_Ratio_250_L_12_R_3.png","img/500/equaldotsize/L/7_Ratio_500_L_10_R_5.png","img/500/randomdotsizeEA/L/13_Ratio_500_L_12_R_6.png","img/500/randomdotsizeEA/R/14_Ratio_500_L_5_R_10.png","img/750/equaldotsize/L/9_Ratio_750_L_4_R_3.png","img/250/randomdotsizeEA/L/3_Ratio_250_L_8_R_2.png","img/900/equaldotsize/L/2_Ratio_900_L_20_R_18.png","img/900/randomdotsizeEA/R/13_Ratio_900_L_18_R_20.png","img/500/equaldotanddens/L/4_Ratio_500_L_18_R_9.png","img/250/equaldotsize/R/10_Ratio_250_L_4_R_16.png","img/250/equaldotanddens/L/3_Ratio_250_L_8_R_2.png","img/500/equaldotanddens/R/12_Ratio_500_L_1_R_2.png","img/900/randomdotsizeEA/L/4_Ratio_900_L_20_R_18.png","img/900/equaldotanddens/L/2_Ratio_900_L_20_R_18.png","img/250/equaldotsize/L/1_Ratio_250_L_8_R_2.png","img/250/randomdotsizeEA/L/15_Ratio_250_L_12_R_3.png","img/900/equaldotsize/L/10_Ratio_900_L_20_R_18.png","img/250/equaldotanddens/L/1_Ratio_250_L_8_R_2.png","img/250/equaldotsize/L/5_Ratio_250_L_24_R_6.png","img/750/equaldotanddens/R/12_Ratio_750_L_3_R_4.png","img/500/randomdotsizeEA/L/11_Ratio_500_L_12_R_6.png","img/250/equaldotanddens/L/14_Ratio_250_L_12_R_3.png","img/250/randomdotsizeEA/R/6_Ratio_250_L_6_R_24.png","img/500/equaldotanddens/R/15_Ratio_500_L_1_R_2.png","img/900/equaldotsize/L/1_Ratio_900_L_10_R_9.png","img/250/equaldotanddens/L/15_Ratio_250_L_12_R_3.png","img/500/randomdotsizeEA/L/5_Ratio_500_L_4_R_2.png","img/500/randomdotsizeEA/R/15_Ratio_500_L_1_R_2.png","img/250/randomdotsizeEA/R/12_Ratio_250_L_5_R_20.png","img/900/randomdotsizeEA/L/4_Ratio_900_L_20_R_18.png","img/900/equaldotsize/R/15_Ratio_900_L_9_R_10.png","img/250/equaldotsize/R/13_Ratio_250_L_2_R_8.png","img/500/equaldotanddens/L/10_Ratio_500_L_4_R_2.png","img/500/equaldotsize/L/5_Ratio_500_L_4_R_2.png","img/250/equaldotanddens/L/3_Ratio_250_L_8_R_2.png","img/250/equaldotsize/R/4_Ratio_250_L_3_R_12.png","img/750/equaldotsize/L/6_Ratio_750_L_24_R_18.png","img/750/randomdotsizeEA/L/8_Ratio_750_L_4_R_3.png","img/250/equaldotsize/L/14_Ratio_250_L_12_R_3.png","img/750/randomdotsizeEA/R/4_Ratio_750_L_15_R_20.png","img/250/equaldotanddens/R/9_Ratio_250_L_3_R_12.png","img/250/equaldotanddens/R/11_Ratio_250_L_3_R_12.png","img/750/equaldotanddens/R/5_Ratio_750_L_15_R_20.png","img/900/randomdotsizeEA/R/7_Ratio_900_L_9_R_10.png","img/750/randomdotsizeEA/R/3_Ratio_750_L_15_R_20.png","img/500/equaldotanddens/R/3_Ratio_500_L_10_R_20.png","img/250/equaldotanddens/R/4_Ratio_250_L_3_R_12.png","img/250/equaldotsize/L/15_Ratio_250_L_12_R_3.png","img/750/randomdotsizeEA/R/2_Ratio_750_L_6_R_8.png","img/750/randomdotsizeEA/R/5_Ratio_750_L_15_R_20.png","img/500/randomdotsizeEA/R/9_Ratio_500_L_2_R_4.png","img/500/equaldotsize/L/7_Ratio_500_L_10_R_5.png","img/900/equaldotanddens/R/3_Ratio_900_L_9_R_10.png","img/500/equaldotsize/L/8_Ratio_500_L_8_R_4.png","img/500/randomdotsizeEA/L/8_Ratio_500_L_8_R_4.png","img/900/equaldotanddens/L/8_Ratio_900_L_20_R_18.png","img/250/equaldotsize/L/3_Ratio_250_L_8_R_2.png","img/750/equaldotanddens/R/12_Ratio_750_L_3_R_4.png","img/750/equaldotanddens/L/8_Ratio_750_L_4_R_3.png","img/750/equaldotsize/L/13_Ratio_750_L_8_R_6.png","img/500/randomdotsizeEA/R/14_Ratio_500_L_5_R_10.png","img/900/randomdotsizeEA/R/14_Ratio_900_L_18_R_20.png","img/250/randomdotsizeEA/L/5_Ratio_250_L_24_R_6.png","img/250/equaldotanddens/L/7_Ratio_250_L_8_R_2.png","img/500/equaldotsize/R/3_Ratio_500_L_10_R_20.png","img/750/equaldotsize/L/10_Ratio_750_L_4_R_3.png","img/900/randomdotsizeEA/L/2_Ratio_900_L_20_R_18.png","img/250/equaldotsize/L/3_Ratio_250_L_8_R_2.png","img/750/equaldotsize/L/9_Ratio_750_L_4_R_3.png","img/500/equaldotsize/L/4_Ratio_500_L_18_R_9.png","img/750/equaldotanddens/L/14_Ratio_750_L_8_R_6.png","img/250/equaldotanddens/R/12_Ratio_250_L_5_R_20.png","img/900/equaldotanddens/R/5_Ratio_900_L_9_R_10.png","img/750/equaldotanddens/R/11_Ratio_750_L_12_R_16.png","img/750/equaldotsize/L/10_Ratio_750_L_4_R_3.png","img/250/randomdotsizeEA/L/5_Ratio_250_L_24_R_6.png","img/750/randomdotsizeEA/L/6_Ratio_750_L_24_R_18.png","img/900/equaldotanddens/R/13_Ratio_900_L_18_R_20.png","img/500/equaldotsize/R/1_Ratio_500_L_9_R_18.png","img/750/equaldotsize/R/15_Ratio_750_L_9_R_12.png","img/750/equaldotanddens/L/14_Ratio_750_L_8_R_6.png","img/900/randomdotsizeEA/R/12_Ratio_900_L_18_R_20.png","img/900/equaldotsize/L/8_Ratio_900_L_20_R_18.png","img/500/equaldotanddens/L/7_Ratio_500_L_10_R_5.png","img/750/equaldotanddens/R/5_Ratio_750_L_15_R_20.png","img/250/randomdotsizeEA/R/4_Ratio_250_L_3_R_12.png","img/500/equaldotanddens/R/2_Ratio_500_L_3_R_6.png","img/900/equaldotanddens/L/8_Ratio_900_L_20_R_18.png","img/250/randomdotsizeEA/L/7_Ratio_250_L_8_R_2.png","img/750/equaldotsize/R/3_Ratio_750_L_15_R_20.png","img/250/randomdotsizeEA/R/4_Ratio_250_L_3_R_12.png","img/500/equaldotsize/L/7_Ratio_500_L_10_R_5.png","img/500/equaldotanddens/R/9_Ratio_500_L_2_R_4.png","img/900/equaldotsize/R/6_Ratio_900_L_9_R_10.png","img/500/randomdotsizeEA/R/9_Ratio_500_L_2_R_4.png","img/900/equaldotsize/L/10_Ratio_900_L_20_R_18.png"],"Rat0":[["12_Ratio_0_L_9_R_0.png","13_Ratio_0_L_6_R_0.png","5_Ratio_0_L_2_R_0.png","6_Ratio_0_L_4_R_0.png","8_Ratio_0_L_6_R_0.png"],["1_Ratio_0_L_0_R_17.png","10_Ratio_0_L_0_R_22.png","11_Ratio_0_L_0_R_1.png","14_Ratio_0_L_0_R_24.png","15_Ratio_0_L_0_R_4.png","2_Ratio_0_L_0_R_5.png","3_Ratio_0_L_0_R_17.png","4_Ratio_0_L_0_R_7.png","7_Ratio_0_L_0_R_19.png","9_Ratio_0_L_0_R_15.png"]],"Rat250":[["1_Ratio_250_L_8_R_2.png","14_Ratio_250_L_12_R_3.png","15_Ratio_250_L_12_R_3.png","2_Ratio_250_L_16_R_4.png","3_Ratio_250_L_8_R_2.png","5_Ratio_250_L_24_R_6.png","7_Ratio_250_L_8_R_2.png"],["10_Ratio_250_L_4_R_16.png","11_Ratio_250_L_3_R_12.png","12_Ratio_250_L_5_R_20.png","13_Ratio_250_L_2_R_8.png","4_Ratio_250_L_3_R_12.png","6_Ratio_250_L_6_R_24.png","8_Ratio_250_L_1_R_4.png","9_Ratio_250_L_3_R_12.png"]],"Rat500":[["10_Ratio_500_L_4_R_2.png","11_Ratio_500_L_12_R_6.png","13_Ratio_500_L_12_R_6.png","4_Ratio_500_L_18_R_9.png","5_Ratio_500_L_4_R_2.png","7_Ratio_500_L_10_R_5.png","8_Ratio_500_L_8_R_4.png"],["1_Ratio_500_L_9_R_18.png","12_Ratio_500_L_1_R_2.png","14_Ratio_500_L_5_R_10.png","15_Ratio_500_L_1_R_2.png","2_Ratio_500_L_3_R_6.png","3_Ratio_500_L_10_R_20.png","6_Ratio_500_L_9_R_18.png","9_Ratio_500_L_2_R_4.png"]],"Rat750":[["1_Ratio_750_L_20_R_15.png","10_Ratio_750_L_4_R_3.png","13_Ratio_750_L_8_R_6.png","14_Ratio_750_L_8_R_6.png","6_Ratio_750_L_24_R_18.png","8_Ratio_750_L_4_R_3.png","9_Ratio_750_L_4_R_3.png"],["11_Ratio_750_L_12_R_16.png","12_Ratio_750_L_3_R_4.png","15_Ratio_750_L_9_R_12.png","2_Ratio_750_L_6_R_8.png","3_Ratio_750_L_15_R_20.png","4_Ratio_750_L_15_R_20.png","5_Ratio_750_L_15_R_20.png","7_Ratio_750_L_3_R_4.png"]],"Rat900":[["1_Ratio_900_L_10_R_9.png","10_Ratio_900_L_20_R_18.png","2_Ratio_900_L_20_R_18.png","4_Ratio_900_L_20_R_18.png","8_Ratio_900_L_20_R_18.png"],["11_Ratio_900_L_18_R_20.png","12_Ratio_900_L_18_R_20.png","13_Ratio_900_L_18_R_20.png","14_Ratio_900_L_18_R_20.png","15_Ratio_900_L_9_R_10.png","3_Ratio_900_L_9_R_10.png","5_Ratio_900_L_9_R_10.png","6_Ratio_900_L_9_R_10.png","7_Ratio_900_L_9_R_10.png","9_Ratio_900_L_18_R_20.png"]],"Rat1000":[["10_Ratio_1000_L_16_R_16.png","11_Ratio_1000_L_6_R_6.png","12_Ratio_1000_L_14_R_14.png","13_Ratio_1000_L_20_R_20.png","15_Ratio_1000_L_15_R_15.png","2_Ratio_1000_L_17_R_17.png","4_Ratio_1000_L_9_R_9.png","5_Ratio_1000_L_6_R_6.png","6_Ratio_1000_L_19_R_19.png","8_Ratio_1000_L_14_R_14.png","9_Ratio_1000_L_25_R_25.png"],["1_Ratio_1000_L_1_R_1.png","14_Ratio_1000_L_17_R_17.png","3_Ratio_1000_L_17_R_17.png","7_Ratio_1000_L_6_R_6.png"]]}},{"start_time":1552313900727,"click_time":1552313902067,"finger_time":1552313901666,"fix_duration":1378.289732351157,"trial":1,"RT":939,"MT":401,"sideResp":2,"stimulus":"img/750/equaldotanddens/R/12_Ratio_750_L_3_R_4.png","xmouse":[785,785,785,785,785,785,785,785,785,785,785,785,785,785,785,785,785,785,785,785,785,785,785,785,785,785,785,785,785,785,785,785,785,785,785,785,785,785,785,785,785,785,785,785,786,788,793,816,843,883,924,957,983,990,992,995,997,1002,1003,1004,1009,1016,1030,1036,1037,1043,1050,1078],"ymouse":[520,520,520,520,520,520,520,520,520,520,520,520,520,520,520,520,520,520,520,520,520,520,520,520,520,520,520,520,520,520,520,520,520,520,520,520,520,520,520,520,520,520,520,520,513,496,485,437,399,351,309,273,241,227,221,215,208,190,173,158,143,129,110,103,101,95,88,61],"timestamp_mouse":[2,19,40,59,80,100,119,139,160,180,200,219,239,260,280,298,319,339,360,380,398,418,440,460,479,499,519,539,560,580,598,620,640,660,680,700,720,739,759,780,800,819,840,860,879,900,919,939,958,979,1000,1020,1038,1058,1079,1099,1119,1139,1158,1178,1199,1218,1239,1259,1279,1299,1319,1340],"xSR":741.5,"ySR":458.25,"xT1":424.9,"yT1":0,"xT2":1058.1,"yT2":0,"toosoon":0,"cond_shown":"equaldotanddens","ratio_trial":750,"smaller_num":"3","larger_num":"4","correct_side":2,"subjID":"Tomas Moreno Moreno 12","gender":"0","age":"9","school":"4"},{"start_time":1552313904034,"click_time":1552313905766,"finger_time":1552313904966,"fix_duration":766.5764962391276,"trial":2,"RT":932,"MT":800,"sideResp":1,"stimulus":"img/750/equaldotanddens/L/8_Ratio_750_L_4_R_3.png","xmouse":[799,799,799,799,797,796,792,789,786,785,784,782,781,781,781,781,781,780,779,778,778,777,777,777,777,777,777,777,777,777,777,777,777,777,777,777,777,777,777,777,777,777,777,777,777,776,766,742,728,713,699,671,663,653,634,611,592,591,591,591,589,572,546,514,502,502,502,501,501,501,500,487,480,478,476,474,466,459,457,456,454,454,454,456,457,460,468],"ymouse":[526,526,526,526,526,525,523,521,518,518,517,517,516,516,516,516,516,516,516,515,515,515,515,515,515,515,515,515,515,515,515,515,515,515,515,515,515,515,515,515,515,515,510,497,485,471,444,415,401,389,380,356,344,327,300,269,235,232,230,230,228,215,202,189,184,184,184,184,184,183,180,176,174,173,173,171,165,159,157,152,146,144,138,132,121,107,61],"timestamp_mouse":[12,41,52,73,91,112,132,153,172,191,212,232,252,273,291,312,332,353,372,393,413,431,452,473,492,512,532,553,573,593,612,631,652,671,691,712,733,753,771,793,813,833,851,873,891,913,932,951,971,992,1012,1032,1052,1072,1092,1112,1132,1152,1172,1193,1212,1232,1252,1272,1292,1311,1332,1352,1372,1391,1411,1432,1452,1472,1492,1512,1533,1552,1572,1593,1612,1632,1652,1673,1693,1712,1731],"xSR":741.5,"ySR":458.25,"xT1":424.9,"yT1":0,"xT2":1058.1,"yT2":0,"toosoon":0,"cond_shown":"equaldotanddens","ratio_trial":750,"smaller_num":"3","larger_num":"4","correct_side":1,"subjID":"Tomas Moreno Moreno 12","gender":"0","age":"9","school":"4"},{"start_time":1552313907894,"click_time":1552313909426,"finger_time":1552313908926,"fix_duration":905.562570820981,"trial":3,"RT":1032,"MT":500,"sideResp":2,"stimulus":"img/250/randomdotsizeEA/R/12_Ratio_250_L_5_R_20.png","xmouse":[791,791,791,791,791,791,792,792,793,793,793,793,793,793,793,793,793,793,793,793,793,793,793,793,793,793,793,793,793,793,793,793,793,793,793,792,789,786,779,777,774,771,769,768,768,768,768,768,769,780,796,816,842,870,886,899,913,925,935,939,945,951,957,968,975,978,983,988,1013,1026,1033,1034,1035,1036,1049,1060,1070],"ymouse":[515,515,515,515,515,515,516,516,516,516,516,516,516,516,516,516,516,516,516,516,516,516,516,516,516,516,516,516,516,516,516,516,516,516,516,516,514,512,509,507,504,502,501,501,501,501,501,500,497,489,471,446,405,324,265,235,215,206,198,194,187,181,176,169,167,165,162,159,145,139,136,135,135,134,119,106,95],"timestamp_mouse":[12,45,53,72,92,112,133,152,172,193,212,231,252,272,292,312,332,351,373,392,413,433,453,473,493,512,531,552,572,593,612,632,653,673,692,711,732,752,771,792,813,832,851,873,892,913,931,952,973,992,1012,1032,1052,1072,1091,1112,1132,1151,1172,1192,1212,1232,1252,1272,1291,1311,1333,1351,1372,1392,1412,1433,1453,1472,1492,1512,1532],"xSR":741.5,"ySR":458.25,"xT1":424.9,"yT1":0,"xT2":1058.1,"yT2":0,"toosoon":0,"cond_shown":"randomdotsizeEA","ratio_trial":250,"smaller_num":"5","larger_num":"20","correct_side":2,"subjID":"Tomas Moreno Moreno 12","gender":"0","age":"9","school":"4"},{"start_time":1552313910929,"click_time":1552313913126,"finger_time":1552313911665,"fix_duration":522.7413038478044,"trial":4,"RT":736,"MT":1461,"sideResp":1,"stimulus":"img/900/equaldotanddens/L/2_Ratio_900_L_20_R_18.png","xmouse":[791,791,791,791,791,791,791,791,791,791,791,791,791,791,791,791,791,791,790,790,790,790,790,790,790,790,790,790,790,790,790,789,785,779,769,759,735,724,715,710,707,706,706,706,706,706,709,712,716,724,730,737,737,737,737,738,738,738,739,741,747,751,751,751,751,751,751,751,751,751,751,749,748,747,746,746,746,745,745,745,745,744,744,741,740,739,739,739,739,739,739,739,738,731,716,700,654,636,615,594,581,569,569,568,567,563,539,519,507,502],"ymouse":[529,529,529,529,529,529,529,529,529,529,529,529,529,529,529,529,529,529,529,529,529,529,529,529,529,529,529,529,529,529,529,523,509,499,487,476,451,438,427,422,417,417,417,417,417,416,415,413,412,409,407,405,405,405,405,405,405,405,404,402,394,389,389,389,389,389,389,389,389,389,389,389,389,389,390,390,390,390,390,390,390,390,390,391,391,391,391,391,391,391,391,391,391,387,373,359,322,304,285,262,245,225,222,218,213,202,163,135,116,98],"timestamp_mouse":[17,36,57,77,96,117,137,157,176,198,218,238,256,277,298,317,337,356,376,398,417,438,456,477,497,517,537,557,577,598,618,637,657,677,698,717,736,757,777,797,817,837,857,877,897,916,937,957,977,997,1017,1037,1056,1076,1097,1118,1136,1156,1176,1196,1217,1237,1258,1278,1297,1316,1337,1357,1377,1398,1417,1438,1457,1477,1497,1517,1537,1557,1577,1598,1618,1638,1657,1677,1697,1718,1737,1757,1778,1798,1817,1838,1857,1877,1896,1917,1937,1958,1977,1998,2018,2037,2057,2077,2097,2117,2138,2157,2177,2197],"xSR":741.5,"ySR":458.25,"xT1":424.9,"yT1":0,"xT2":1058.1,"yT2":0,"toosoon":0,"cond_shown":"equaldotanddens","ratio_trial":900,"smaller_num":"18","larger_num":"20","correct_side":1,"subjID":"Tomas Moreno Moreno 12","gender":"0","age":"9","school":"4"},{"start_time":1552313914338,"click_time":1552313916467,"finger_time":1552313916065,"fix_duration":250,"trial":5,"RT":1727,"MT":402,"sideResp":2,"stimulus":"img/750/equaldotsize/L/13_Ratio_750_L_8_R_6.png","xmouse":[780,790,823,829,830,830,830,830,830,830,830,830,830,830,830,830,830,830,830,830,830,830,830,830,830,830,829,829,829,829,829,829,829,829,829,829,826,812,783,762,756,755,755,755,755,755,755,755,755,755,755,755,755,755,755,755,755,755,755,755,755,755,755,755,755,754,754,754,754,754,755,756,756,756,756,756,756,756,756,756,757,760,761,764,772,790,844,872,898,922,943,976,993,1002,1008,1012,1020,1022,1024,1024,1025,1027,1033,1039,1045,1050,1064],"ymouse":[485,496,524,528,529,529,529,529,529,529,529,530,530,530,530,530,530,530,530,530,530,530,530,530,530,530,530,530,530,530,530,530,530,530,530,530,530,520,502,490,487,485,485,485,485,485,485,484,484,484,484,484,484,484,484,484,484,484,484,484,484,484,484,484,484,484,484,485,487,489,490,493,493,494,494,494,494,494,494,494,494,494,494,494,493,486,460,434,395,348,292,203,166,151,138,128,116,114,112,112,111,110,108,106,102,98,90],"timestamp_mouse":[8,28,48,67,89,108,129,149,169,188,209,228,249,268,289,308,327,348,369,388,407,429,448,468,488,508,528,549,568,587,608,629,649,668,688,709,728,748,768,789,809,829,848,867,889,907,929,948,969,989,1007,1028,1049,1069,1088,1109,1129,1148,1169,1188,1208,1229,1248,1268,1288,1308,1329,1348,1368,1389,1409,1428,1448,1468,1489,1509,1527,1547,1569,1587,1609,1628,1648,1668,1689,1708,1727,1747,1767,1788,1808,1828,1848,1868,1888,1909,1928,1948,1969,1988,2008,2028,2048,2068,2087,2109,2128],"xSR":741.5,"ySR":458.25,"xT1":424.9,"yT1":0,"xT2":1058.1,"yT2":0,"toosoon":0,"cond_shown":"equaldotsize","ratio_trial":750,"smaller_num":"6","larger_num":"8","correct_side":1,"subjID":"Tomas Moreno Moreno 12","gender":"0","age":"9","school":"4"},{"start_time":1552313918270,"click_time":1552313919466,"finger_time":1552313919086,"fix_duration":982.4645273740268,"trial":6,"RT":816,"MT":380,"sideResp":1,"stimulus":"img/900/randomdotsizeEA/L/4_Ratio_900_L_20_R_18.png","xmouse":[784,784,784,784,784,784,784,784,784,784,784,784,784,784,784,784,784,784,784,784,784,784,784,784,784,784,784,784,784,784,784,784,784,784,784,784,784,784,784,781,733,657,588,551,532,527,523,521,518,517,517,517,517,508,487,485,485,485,484,453],"ymouse":[508,508,508,508,508,508,508,508,508,508,508,508,508,508,508,508,508,508,508,508,508,508,508,508,508,508,508,508,508,508,508,508,508,508,508,508,508,508,508,507,472,415,365,338,306,294,276,258,242,226,220,209,198,177,139,128,122,120,114,84],"timestamp_mouse":[17,39,56,77,97,116,135,155,177,197,217,235,255,275,297,316,336,357,375,396,417,436,456,475,496,515,535,555,575,596,615,635,656,677,695,716,737,757,777,796,816,836,856,876,897,917,935,955,976,996,1016,1036,1056,1077,1095,1117,1136,1156,1177,1196],"xSR":741.5,"ySR":458.25,"xT1":424.9,"yT1":0,"xT2":1058.1,"yT2":0,"toosoon":0,"cond_shown":"randomdotsizeEA","ratio_trial":900,"smaller_num":"18","larger_num":"20","correct_side":1,"subjID":"Tomas Moreno Moreno 12","gender":"0","age":"9","school":"4"},{"start_time":1552313920660,"click_time":1552313921906,"finger_time":1552313921466,"fix_duration":333.5020670358927,"trial":7,"RT":806,"MT":440,"sideResp":2,"stimulus":"img/750/randomdotsizeEA/L/14_Ratio_750_L_8_R_6.png","xmouse":[785,785,785,785,785,785,785,785,785,784,783,783,781,781,781,781,781,781,781,781,781,781,781,781,781,781,781,781,781,781,781,781,781,781,786,800,807,813,817,821,837,847,857,871,882,913,927,953,972,991,1007,1033,1046,1057,1070,1079,1093,1099,1101,1102,1103,1105,1108],"ymouse":[491,491,491,491,491,491,491,491,491,491,492,492,493,493,493,493,493,493,493,493,493,493,493,493,493,493,493,493,493,493,493,493,493,493,492,485,482,475,472,468,458,454,445,433,422,388,371,345,324,301,277,232,208,187,167,150,126,117,114,112,108,104,99],"timestamp_mouse":[10,25,46,67,86,106,127,146,167,185,207,226,245,267,286,305,327,346,365,385,407,426,445,466,486,507,525,546,566,587,607,627,645,666,686,706,727,746,766,785,806,826,846,866,886,906,925,945,966,985,1006,1025,1046,1065,1086,1106,1126,1145,1166,1187,1207,1225,1246],"xSR":741.5,"ySR":458.25,"xT1":424.9,"yT1":0,"xT2":1058.1,"yT2":0,"toosoon":0,"cond_shown":"randomdotsizeEA","ratio_trial":750,"smaller_num":"6","larger_num":"8","correct_side":1,"subjID":"Tomas Moreno Moreno 12","gender":"0","age":"9","school":"4"},{"start_time":1552313923416,"click_time":1552313924546,"finger_time":1552313924205,"fix_duration":608.7251850269545,"trial":8,"RT":789,"MT":341,"sideResp":1,"stimulus":"img/900/randomdotsizeEA/L/2_Ratio_900_L_20_R_18.png","xmouse":[784,784,784,784,784,784,784,783,782,781,781,781,781,781,781,781,781,781,781,781,781,781,780,780,780,780,780,780,780,780,780,780,780,780,780,780,779,760,743,674,635,611,590,589,586,580,571,548,544,543,542,542,532,523,510,502,499],"ymouse":[520,519,519,519,519,519,519,518,518,518,518,518,518,518,518,518,518,518,518,518,518,518,519,519,519,519,519,519,519,519,519,519,519,519,519,519,517,491,471,392,337,303,266,260,251,239,223,192,180,176,171,165,146,130,114,101,96],"timestamp_mouse":[10,31,50,70,90,110,131,150,170,191,210,229,250,271,291,309,330,349,370,390,410,430,449,469,490,510,529,551,570,590,610,631,649,670,689,710,730,751,770,789,809,830,850,870,890,910,931,950,970,990,1010,1030,1050,1070,1090,1109,1130],"xSR":741.5,"ySR":458.25,"xT1":424.9,"yT1":0,"xT2":1058.1,"yT2":0,"toosoon":0,"cond_shown":"randomdotsizeEA","ratio_trial":900,"smaller_num":"18","larger_num":"20","correct_side":1,"subjID":"Tomas Moreno Moreno 12","gender":"0","age":"9","school":"4"},{"start_time":1552313925978,"click_time":1552313928366,"finger_time":1552313926745,"fix_duration":250,"trial":9,"RT":767,"MT":1621,"sideResp":1,"stimulus":"img/900/equaldotanddens/R/9_Ratio_900_L_18_R_20.png","xmouse":[793,793,793,793,793,793,793,793,793,793,793,793,793,793,793,793,793,793,793,793,793,793,793,793,793,793,793,793,793,793,793,793,794,799,814,821,829,834,840,854,858,861,865,871,878,894,899,902,903,904,904,904,902,894,879,875,869,867,867,866,861,856,854,854,852,852,852,852,852,852,852,852,852,851,850,846,843,843,843,843,842,842,842,842,842,842,842,842,842,842,842,842,842,842,842,842,842,842,842,842,841,840,840,840,840,840,840,840,840,840,833,808,777,756,730,719,704,678,632,510],"ymouse":[506,506,506,506,506,506,506,506,506,506,506,506,506,506,506,506,506,506,506,506,506,506,506,506,506,506,506,506,506,506,506,506,506,505,497,489,479,468,456,436,431,428,424,418,411,387,378,370,367,362,362,362,362,364,369,371,371,372,372,372,370,361,358,356,355,355,354,354,354,354,354,354,354,354,355,357,358,358,358,358,358,358,358,358,358,358,358,358,358,358,358,358,358,358,358,358,358,358,358,358,358,359,359,359,359,359,359,359,359,359,350,322,290,267,238,226,213,193,161,82],"timestamp_mouse":[11,28,49,67,89,108,129,149,168,189,208,228,249,268,287,308,328,347,368,388,409,427,448,468,487,507,528,549,569,588,607,628,649,668,687,707,727,747,767,788,807,827,847,867,887,907,928,948,967,988,1007,1027,1048,1067,1088,1108,1128,1149,1168,1188,1207,1228,1249,1268,1289,1309,1329,1348,1367,1388,1407,1428,1449,1469,1488,1507,1527,1549,1568,1588,1611,1629,1649,1669,1687,1707,1728,1748,1768,1789,1808,1828,1848,1869,1888,1908,1927,1948,1969,1988,2008,2028,2048,2067,2088,2108,2128,2148,2169,2188,2208,2228,2248,2269,2288,2308,2327,2347,2369,2388],"xSR":741.5,"ySR":458.25,"xT1":424.9,"yT1":0,"xT2":1058.1,"yT2":0,"toosoon":0,"cond_shown":"equaldotanddens","ratio_trial":900,"smaller_num":"18","larger_num":"20","correct_side":2,"subjID":"Tomas Moreno Moreno 12","gender":"0","age":"9","school":"4"},{"start_time":1552313930017,"click_time":1552313931467,"finger_time":1552313930806,"fix_duration":250,"trial":10,"RT":789,"MT":661,"sideResp":2,"stimulus":"img/750/randomdotsizeEA/R/12_Ratio_750_L_3_R_4.png","xmouse":[781,781,781,781,781,781,781,781,781,781,781,781,781,781,781,781,781,781,781,781,781,781,781,781,781,781,781,781,781,781,781,781,781,781,785,793,800,806,823,842,855,873,908,922,930,935,939,943,946,948,952,953,954,954,954,954,954,954,954,954,954,954,954,956,959,964,974,999,1013,1036,1047,1056,1067],"ymouse":[510,510,510,510,510,510,510,510,510,510,510,510,510,510,510,510,510,510,510,510,510,510,510,510,510,510,510,510,510,510,510,510,510,510,511,509,505,502,494,463,437,408,341,310,284,261,243,218,213,209,204,203,202,202,202,202,202,202,202,202,202,202,201,200,199,197,191,178,167,142,126,110,91],"timestamp_mouse":[9,41,50,70,89,109,128,149,169,190,208,229,250,268,288,309,329,350,370,389,409,430,450,469,489,509,529,549,569,590,609,630,650,669,689,709,730,749,769,788,809,829,849,869,889,909,928,949,970,988,1009,1029,1049,1068,1088,1110,1130,1149,1169,1188,1209,1230,1249,1268,1289,1308,1328,1349,1369,1389,1410,1429,1449],"xSR":741.5,"ySR":458.25,"xT1":424.9,"yT1":0,"xT2":1058.1,"yT2":0,"toosoon":0,"cond_shown":"randomdotsizeEA","ratio_trial":750,"smaller_num":"3","larger_num":"4","correct_side":2,"subjID":"Tomas Moreno Moreno 12","gender":"0","age":"9","school":"4"},{"start_time":1552313933658,"click_time":1552313934825,"finger_time":1552313934485,"fix_duration":1351.5148348612304,"trial":11,"RT":827,"MT":340,"sideResp":1,"stimulus":"img/500/equaldotanddens/L/8_Ratio_500_L_8_R_4.png","xmouse":[771,771,771,771,771,771,771,771,771,771,771,771,771,771,771,771,771,771,771,771,771,771,771,771,771,771,771,771,771,771,771,771,771,771,771,771,771,771,772,773,765,743,712,679,650,594,581,563,552,538,516,508,503,499,496,485,480,477,476],"ymouse":[502,502,502,502,502,502,502,502,502,502,502,502,502,502,502,502,502,502,502,502,502,502,502,502,502,502,502,502,502,502,502,502,502,502,502,502,502,502,501,500,463,433,400,372,346,293,277,255,238,219,186,175,166,157,148,127,114,101,93],"timestamp_mouse":[9,37,47,68,88,107,128,149,169,188,208,229,248,268,288,308,328,347,369,388,407,428,448,468,487,508,528,548,568,588,609,629,648,667,687,709,728,748,768,788,808,827,848,867,889,909,928,948,968,988,1008,1027,1048,1068,1087,1109,1129,1148,1167],"xSR":741.5,"ySR":458.25,"xT1":424.9,"yT1":0,"xT2":1058.1,"yT2":0,"toosoon":0,"cond_shown":"equaldotanddens","ratio_trial":500,"smaller_num":"4","larger_num":"8","correct_side":1,"subjID":"Tomas Moreno Moreno 12","gender":"0","age":"9","school":"4"},{"start_time":1552313936417,"click_time":1552313938045,"finger_time":1552313937326,"fix_duration":250,"trial":12,"RT":909,"MT":719,"sideResp":2,"stimulus":"img/900/equaldotanddens/R/13_Ratio_900_L_18_R_20.png","xmouse":[775,775,775,775,777,779,780,780,780,780,780,780,780,780,780,780,780,780,780,780,780,780,780,780,780,780,780,780,780,780,780,780,780,780,780,780,780,780,781,781,781,783,794,804,817,833,850,887,900,912,921,928,946,953,961,970,978,996,1002,1006,1012,1015,1021,1023,1028,1032,1036,1040,1040,1040,1040,1040,1043,1048,1049,1049,1051,1053,1056,1057,1058,1061],"ymouse":[498,498,498,498,498,498,498,498,498,498,498,498,498,498,498,498,498,498,498,498,498,498,498,498,498,498,498,498,498,498,498,498,498,498,498,498,498,498,498,498,498,498,494,489,483,450,405,321,284,247,222,201,171,160,148,139,129,109,103,100,98,97,94,93,90,87,83,80,80,80,80,80,78,76,75,75,75,74,72,72,72,71],"timestamp_mouse":[16,29,49,68,88,110,130,149,170,190,210,230,249,270,289,309,328,350,370,389,409,430,449,469,488,509,530,549,570,590,610,629,650,670,688,709,730,749,769,789,809,828,849,868,890,909,930,948,970,989,1008,1028,1049,1068,1089,1109,1129,1149,1169,1190,1209,1228,1248,1269,1288,1308,1329,1349,1370,1388,1410,1429,1449,1468,1489,1510,1530,1549,1569,1589,1609,1628],"xSR":741.5,"ySR":458.25,"xT1":424.9,"yT1":0,"xT2":1058.1,"yT2":0,"toosoon":0,"cond_shown":"equaldotanddens","ratio_trial":900,"smaller_num":"18","larger_num":"20","correct_side":2,"subjID":"Tomas Moreno Moreno 12","gender":"0","age":"9","school":"4"},{"start_time":1552313939398,"click_time":1552313940406,"finger_time":1552313940267,"fix_duration":250,"trial":13,"RT":869,"MT":139,"sideResp":1,"stimulus":"img/750/equaldotsize/L/9_Ratio_750_L_4_R_3.png","xmouse":[794,794,794,794,793,792,792,792,792,792,792,792,792,792,792,792,792,792,792,792,792,792,792,792,792,792,792,792,792,792,792,792,792,792,792,792,792,792,792,792,788,779,763,720,692,655,614,569,471,441,432],"ymouse":[503,503,503,503,502,502,502,502,502,502,502,502,502,502,502,502,502,502,502,502,502,502,502,502,502,502,502,502,502,502,502,502,502,502,502,502,502,502,502,502,500,492,480,440,412,375,329,273,158,111,91],"timestamp_mouse":[9,37,47,69,88,107,128,148,168,188,208,228,249,267,287,307,327,348,367,388,409,427,448,469,488,508,529,548,567,588,609,628,649,668,687,708,728,749,767,787,808,827,849,869,888,908,928,948,967,987,1008],"xSR":741.5,"ySR":458.25,"xT1":424.9,"yT1":0,"xT2":1058.1,"yT2":0,"toosoon":0,"cond_shown":"equaldotsize","ratio_trial":750,"smaller_num":"3","larger_num":"4","correct_side":1,"subjID":"Tomas Moreno Moreno 12","gender":"0","age":"9","school":"4"},{"start_time":1552313942243,"click_time":1552313943507,"finger_time":1552313942986,"fix_duration":414.126334253352,"trial":14,"RT":743,"MT":521,"sideResp":2,"stimulus":"img/750/randomdotsizeEA/L/8_Ratio_750_L_4_R_3.png","xmouse":[771,771,770,769,769,767,764,761,761,760,760,760,760,760,760,760,760,760,760,759,760,783,790,794,795,795,795,796,797,798,799,800,802,803,804,804,805,796,785,776,770,764,762,759,755,750,748,749,754,762,775,793,843,871,889,900,913,922,940,953,978,1016,1039,1061],"ymouse":[505,505,505,505,505,506,507,509,509,509,509,509,509,509,509,509,509,509,509,509,508,499,495,494,493,493,493,493,492,492,492,491,490,490,490,489,487,454,438,426,417,404,397,385,370,355,347,344,342,339,334,325,303,290,276,266,251,239,215,198,163,115,84,52],"timestamp_mouse":[10,23,44,62,82,104,122,142,163,183,202,222,244,263,283,303,323,344,363,382,403,423,443,463,484,502,522,543,563,584,603,623,643,663,683,704,722,743,763,783,803,823,842,862,884,903,924,944,963,982,1002,1023,1043,1063,1082,1104,1123,1143,1162,1183,1202,1223,1242,1263],"xSR":741.5,"ySR":458.25,"xT1":424.9,"yT1":0,"xT2":1058.1,"yT2":0,"toosoon":0,"cond_shown":"randomdotsizeEA","ratio_trial":750,"smaller_num":"3","larger_num":"4","correct_side":1,"subjID":"Tomas Moreno Moreno 12","gender":"0","age":"9","school":"4"},{"start_time":1552313944858,"click_time":1552313945706,"finger_time":1552313945187,"fix_duration":250,"trial":15,"RT":329,"MT":519,"sideResp":1,"stimulus":"img/500/equaldotanddens/L/4_Ratio_500_L_18_R_9.png","xmouse":[815,815,815,815,815,815,813,809,804,798,786,781,778,774,771,765,759,739,715,685,643,629,619,604,585,553,544,544,544,544,543,533,526,520,513,507,507,507,507,507,507,500,478],"ymouse":[548,548,548,548,548,546,540,533,526,519,504,497,492,486,481,468,454,424,396,368,332,318,303,283,260,215,204,202,199,194,187,157,144,134,125,118,117,116,115,115,115,102,67],"timestamp_mouse":[10,28,49,68,88,108,127,147,168,188,208,228,247,268,289,309,329,348,368,388,408,427,447,467,489,509,527,548,569,588,608,627,648,667,687,708,727,748,768,788,808,827,848],"xSR":741.5,"ySR":458.25,"xT1":424.9,"yT1":0,"xT2":1058.1,"yT2":0,"toosoon":0,"cond_shown":"equaldotanddens","ratio_trial":500,"smaller_num":"9","larger_num":"18","correct_side":1,"subjID":"Tomas Moreno Moreno 12","gender":"0","age":"9","school":"4"},{"start_time":1552313947876,"click_time":1552313948567,"finger_time":1552313948365,"fix_duration":947.0788741280265,"trial":16,"RT":489,"MT":202,"sideResp":2,"stimulus":"img/500/equaldotsize/R/6_Ratio_500_L_9_R_18.png","xmouse":[778,778,778,779,782,785,787,787,787,788,788,788,788,788,788,788,788,788,789,790,792,794,796,800,816,828,852,868,885,933,964,999,1040,1074,1127],"ymouse":[477,477,477,477,483,488,490,490,490,491,491,491,491,491,491,491,491,491,491,491,490,486,483,477,455,441,416,396,374,310,265,216,163,121,57],"timestamp_mouse":[9,45,51,70,91,110,130,150,170,190,210,231,250,269,291,310,330,350,370,389,411,430,450,469,489,511,530,550,570,590,609,629,649,669,690],"xSR":741.5,"ySR":458.25,"xT1":424.9,"yT1":0,"xT2":1058.1,"yT2":0,"toosoon":0,"cond_shown":"equaldotsize","ratio_trial":500,"smaller_num":"9","larger_num":"18","correct_side":2,"subjID":"Tomas Moreno Moreno 12","gender":"0","age":"9","school":"4"},{"start_time":1552313950721,"click_time":1552313951886,"finger_time":1552313951567,"fix_duration":293.8096273046631,"trial":17,"RT":846,"MT":319,"sideResp":2,"stimulus":"img/900/equaldotsize/L/4_Ratio_900_L_20_R_18.png","xmouse":[807,807,807,807,807,808,808,808,805,802,797,794,794,794,794,794,794,794,794,794,794,794,794,794,794,794,794,794,794,794,794,794,794,794,794,796,799,803,812,817,824,837,871,877,887,894,900,906,922,930,938,944,968,995,1011,1027,1035,1050,1060],"ymouse":[522,522,522,522,522,523,524,525,528,531,535,538,538,538,538,538,538,538,538,538,538,538,538,538,538,538,538,538,538,538,538,538,538,538,538,538,537,535,531,529,527,521,506,503,499,492,470,457,429,406,378,347,277,214,169,129,87,56,51],"timestamp_mouse":[14,25,44,65,85,106,125,144,165,186,205,224,245,266,285,306,326,345,366,386,405,425,444,466,485,505,525,546,565,584,606,625,645,664,684,704,725,745,765,785,805,825,846,866,885,905,924,945,965,985,1005,1025,1045,1064,1085,1106,1125,1145,1164],"xSR":741.5,"ySR":458.25,"xT1":424.9,"yT1":0,"xT2":1058.1,"yT2":0,"toosoon":0,"cond_shown":"equaldotsize","ratio_trial":900,"smaller_num":"18","larger_num":"20","correct_side":1,"subjID":"Tomas Moreno Moreno 12","gender":"0","age":"9","school":"4"},{"start_time":1552313954884,"click_time":1552313955566,"finger_time":1552313955326,"fix_duration":636.7439668557396,"trial":18,"RT":442,"MT":240,"sideResp":1,"stimulus":"img/900/equaldotsize/L/10_Ratio_900_L_20_R_18.png","xmouse":[788,788,788,788,788,788,788,788,788,788,788,788,788,786,786,785,781,780,779,774,766,749,727,695,669,647,645,645,645,644,641,634,621,599,524],"ymouse":[506,506,506,506,506,506,506,506,506,506,506,506,506,507,507,508,509,509,509,509,508,498,486,467,452,437,430,422,409,369,343,316,277,225,83],"timestamp_mouse":[10,21,41,62,81,102,121,143,162,183,202,222,241,263,282,302,322,342,362,381,402,423,442,462,482,503,522,543,562,582,602,622,642,662,682],"xSR":741.5,"ySR":458.25,"xT1":424.9,"yT1":0,"xT2":1058.1,"yT2":0,"toosoon":0,"cond_shown":"equaldotsize","ratio_trial":900,"smaller_num":"18","larger_num":"20","correct_side":1,"subjID":"Tomas Moreno Moreno 12","gender":"0","age":"9","school":"4"},{"start_time":1552313958010,"click_time":1552313959446,"finger_time":1552313958827,"fix_duration":622.2106240300288,"trial":19,"RT":817,"MT":619,"sideResp":2,"stimulus":"img/900/equaldotanddens/R/15_Ratio_900_L_9_R_10.png","xmouse":[798,800,803,806,808,809,811,812,812,813,814,814,814,814,814,814,814,814,814,814,814,814,814,814,814,814,814,814,814,814,814,814,814,814,814,814,814,815,818,836,851,866,873,882,889,898,909,935,947,954,958,962,977,988,997,1005,1012,1022,1026,1027,1030,1032,1034,1036,1037,1040,1042,1047,1050,1052,1055,1060],"ymouse":[501,501,500,499,498,498,497,497,497,497,496,496,496,496,496,496,496,496,496,496,496,496,496,496,496,496,496,496,496,496,496,496,496,496,496,496,496,496,494,487,479,473,470,466,464,459,454,430,388,362,329,301,238,197,162,131,108,75,55,49,44,42,40,39,39,37,37,35,34,33,33,30],"timestamp_mouse":[15,36,56,76,97,115,136,155,176,195,216,237,256,276,297,316,336,356,377,397,416,435,455,477,497,515,535,556,577,596,616,637,657,675,697,716,735,755,776,796,817,836,856,875,896,916,936,956,977,996,1017,1036,1056,1076,1096,1115,1137,1156,1175,1196,1216,1236,1256,1275,1295,1315,1335,1356,1376,1396,1416,1436],"xSR":741.5,"ySR":458.25,"xT1":424.9,"yT1":0,"xT2":1058.1,"yT2":0,"toosoon":0,"cond_shown":"equaldotanddens","ratio_trial":900,"smaller_num":"9","larger_num":"10","correct_side":2,"subjID":"Tomas Moreno Moreno 12","gender":"0","age":"9","school":"4"},{"start_time":1552313961773,"click_time":1552313963367,"finger_time":1552313962445,"fix_duration":1466.404972275748,"trial":20,"RT":672,"MT":922,"sideResp":1,"stimulus":"img/900/equaldotsize/L/1_Ratio_900_L_10_R_9.png","xmouse":[807,807,807,807,807,807,807,807,807,807,807,807,807,807,807,807,807,807,806,806,806,806,806,806,806,806,806,806,806,806,806,813,826,842,873,881,884,886,889,893,900,906,909,911,911,912,912,912,912,912,912,911,909,908,902,895,884,869,854,837,812,803,790,774,762,746,742,736,731,716,704,694,678,649,614,567,561,558,552,519],"ymouse":[520,520,520,520,520,520,520,520,520,520,520,520,520,520,520,520,520,520,520,520,520,520,520,520,520,520,520,520,520,520,520,518,513,505,492,488,487,486,468,428,412,402,392,385,379,376,376,376,376,376,376,376,377,377,376,371,362,349,334,316,276,259,242,223,213,201,197,193,190,181,172,167,157,141,124,105,101,98,94,78],"timestamp_mouse":[14,44,52,74,92,113,133,153,173,192,213,234,253,274,293,313,333,353,374,393,413,433,453,474,492,514,534,554,572,594,613,633,652,672,693,713,734,753,773,793,813,833,852,872,893,913,933,954,974,992,1013,1032,1053,1073,1093,1112,1133,1153,1173,1193,1213,1233,1253,1273,1293,1312,1334,1354,1373,1393,1413,1433,1454,1473,1493,1513,1533,1553,1572,1593],"xSR":741.5,"ySR":458.25,"xT1":424.9,"yT1":0,"xT2":1058.1,"yT2":0,"toosoon":0,"cond_shown":"equaldotsize","ratio_trial":900,"smaller_num":"9","larger_num":"10","correct_side":1,"subjID":"Tomas Moreno Moreno 12","gender":"0","age":"9","school":"4"},{"start_time":1552313967037,"click_time":1552313969206,"finger_time":1552313968625,"fix_duration":849.3350040905173,"trial":21,"RT":1588,"MT":581,"sideResp":1,"stimulus":"img/500/randomdotsizeEA/L/4_Ratio_500_L_18_R_9.png","xmouse":[804,804,804,804,804,804,804,804,804,804,804,804,804,804,804,804,804,804,804,804,804,804,804,804,804,804,804,804,804,804,804,804,804,804,804,804,804,804,804,804,804,804,807,811,816,821,825,825,825,826,827,830,831,834,834,834,834,834,834,834,834,834,834,834,834,834,834,834,834,835,835,835,835,835,835,836,833,816,790,723,621,476,447,435,432,432,433,442,449,456,456,437,428,425,424,424,424,424,426,431,436,456,467,481,492,503,504,499,480],"ymouse":[530,530,530,530,530,530,530,530,530,530,530,530,530,530,530,530,530,530,530,530,530,530,530,530,530,530,530,530,530,530,530,530,530,530,530,530,530,530,530,530,530,530,530,528,527,525,523,523,523,523,522,521,520,519,519,519,519,519,519,519,519,519,519,519,519,519,519,519,519,519,519,519,519,519,519,518,515,511,505,484,459,424,411,403,401,399,396,393,388,379,364,331,317,309,301,295,283,273,264,253,245,220,209,195,180,163,115,107,84],"timestamp_mouse":[11,36,48,68,89,110,129,150,168,190,209,229,248,268,290,310,328,348,370,389,408,429,448,470,489,509,529,549,570,590,610,629,649,668,690,710,729,748,769,788,810,830,849,869,889,909,929,948,968,989,1009,1029,1049,1070,1089,1110,1129,1150,1170,1189,1210,1228,1248,1270,1288,1309,1329,1350,1370,1390,1409,1428,1450,1469,1490,1508,1528,1550,1569,1588,1608,1629,1648,1668,1689,1710,1729,1749,1769,1788,1808,1829,1848,1869,1889,1909,1929,1948,1968,1988,2009,2028,2048,2069,2088,2108,2130,2150,2169],"xSR":741.5,"ySR":458.25,"xT1":424.9,"yT1":0,"xT2":1058.1,"yT2":0,"toosoon":0,"cond_shown":"randomdotsizeEA","ratio_trial":500,"smaller_num":"9","larger_num":"18","correct_side":1,"subjID":"Tomas Moreno Moreno 12","gender":"0","age":"9","school":"4"},{"start_time":1552313971728,"click_time":1552313973707,"finger_time":1552313973186,"fix_duration":740.0460276943743,"trial":22,"RT":1458,"MT":521,"sideResp":1,"stimulus":"img/750/randomdotsizeEA/L/14_Ratio_750_L_8_R_6.png","xmouse":[774,774,774,774,774,774,774,774,774,774,774,774,774,774,774,774,774,774,774,774,774,774,774,774,774,774,774,774,774,774,774,774,774,774,774,774,774,774,774,774,774,775,775,776,776,776,776,776,776,776,776,776,776,776,776,776,776,776,776,776,776,776,776,776,776,776,776,776,776,776,776,776,760,753,748,725,654,636,628,627,627,625,622,617,606,592,567,562,559,558,557,548,540,537,535,535,532,527,521],"ymouse":[498,498,498,498,498,498,498,498,498,498,498,498,498,498,498,498,498,498,498,498,498,498,498,498,498,498,498,498,498,498,498,498,498,498,498,498,498,498,498,498,498,498,498,497,497,497,497,497,497,497,497,497,497,497,497,497,497,497,497,497,497,497,497,497,497,497,497,497,497,497,497,497,419,404,394,367,321,312,308,308,308,307,302,295,283,267,233,219,207,194,183,154,136,128,122,118,110,102,93],"timestamp_mouse":[18,38,58,77,99,117,138,159,178,198,219,238,258,277,297,319,338,359,378,397,418,437,457,479,497,518,538,559,579,599,619,638,659,679,698,718,738,759,778,797,818,838,858,878,897,919,939,958,977,999,1019,1037,1057,1079,1099,1118,1137,1159,1177,1197,1219,1237,1258,1279,1299,1318,1339,1358,1378,1399,1417,1438,1458,1478,1498,1519,1538,1558,1578,1598,1619,1639,1657,1677,1698,1718,1738,1757,1777,1799,1817,1838,1857,1877,1897,1917,1938,1958,1979],"xSR":741.5,"ySR":458.25,"xT1":424.9,"yT1":0,"xT2":1058.1,"yT2":0,"toosoon":0,"cond_shown":"randomdotsizeEA","ratio_trial":750,"smaller_num":"6","larger_num":"8","correct_side":1,"subjID":"Tomas Moreno Moreno 12","gender":"0","age":"9","school":"4"},{"start_time":1552313975918,"click_time":1552313977245,"finger_time":1552313976867,"fix_duration":1091.4663670106365,"trial":23,"RT":949,"MT":378,"sideResp":1,"stimulus":"img/900/randomdotsizeEA/L/4_Ratio_900_L_20_R_18.png","xmouse":[776,776,776,776,776,776,776,776,776,776,776,776,776,776,776,776,776,776,776,776,776,776,776,776,776,776,776,776,776,776,776,776,776,776,776,776,776,776,776,776,776,776,777,777,777,777,777,762,744,722,700,680,653,640,630,619,609,587,584,582,580,579,568,553,541,529,508],"ymouse":[502,502,502,502,502,502,502,502,502,502,502,502,502,502,502,502,502,502,502,502,502,502,502,502,502,502,502,502,502,502,502,502,502,502,502,502,502,502,502,502,502,502,502,502,502,502,493,421,387,352,323,297,256,231,215,201,193,179,177,176,175,174,156,133,113,92,61],"timestamp_mouse":[12,34,48,69,87,107,128,148,167,187,207,228,249,269,289,307,328,348,368,388,407,429,449,469,488,508,529,547,569,588,609,629,647,668,689,708,728,748,767,787,808,827,847,867,887,908,928,949,967,989,1008,1029,1047,1067,1087,1107,1127,1148,1167,1187,1208,1227,1248,1267,1288,1307,1327],"xSR":741.5,"ySR":458.25,"xT1":424.9,"yT1":0,"xT2":1058.1,"yT2":0,"toosoon":0,"cond_shown":"randomdotsizeEA","ratio_trial":900,"smaller_num":"18","larger_num":"20","correct_side":1,"subjID":"Tomas Moreno Moreno 12","gender":"0","age":"9","school":"4"},{"start_time":1552313981070,"click_time":1552313982585,"finger_time":1552313982085,"fix_duration":1203.4872106646612,"trial":24,"RT":1015,"MT":500,"sideResp":1,"stimulus":"img/250/equaldotsize/L/14_Ratio_250_L_12_R_3.png","xmouse":[790,790,790,790,791,794,796,798,799,801,801,801,801,804,808,809,807,804,802,802,802,802,802,802,802,802,802,802,802,802,802,802,802,802,802,802,802,802,802,802,802,802,802,802,802,802,790,776,759,746,692,671,662,661,661,659,659,653,625,534,509,495,489,480,441,406,367,358,358,358,358,358,364,376,394,425],"ymouse":[500,500,500,502,509,520,527,534,540,548,550,550,550,547,540,531,525,514,510,507,507,507,507,507,507,507,507,507,507,507,507,507,507,507,507,507,507,507,507,507,507,507,507,507,507,507,502,494,486,475,428,409,402,400,399,396,396,390,365,288,265,247,232,213,163,134,102,93,93,93,92,89,84,74,66,50],"timestamp_mouse":[16,41,56,75,96,115,135,156,176,195,215,235,257,277,296,316,335,356,375,395,417,435,457,476,496,517,535,555,575,596,615,636,655,675,695,715,735,755,775,795,815,836,855,875,895,915,935,956,976,995,1015,1035,1055,1077,1096,1115,1136,1155,1175,1196,1215,1236,1256,1277,1296,1316,1336,1357,1376,1395,1415,1436,1455,1475,1496,1515],"xSR":741.5,"ySR":458.25,"xT1":424.9,"yT1":0,"xT2":1058.1,"yT2":0,"toosoon":0,"cond_shown":"equaldotsize","ratio_trial":250,"smaller_num":"3","larger_num":"12","correct_side":1,"subjID":"Tomas Moreno Moreno 12","gender":"0","age":"9","school":"4"},{"start_time":1552313984785,"click_time":1552313986046,"finger_time":1552313985665,"fix_duration":979.4979105657727,"trial":25,"RT":880,"MT":381,"sideResp":1,"stimulus":"img/500/equaldotsize/L/7_Ratio_500_L_10_R_5.png","xmouse":[781,781,781,781,781,781,781,781,781,781,781,781,781,781,781,781,780,780,780,780,780,780,780,780,780,780,780,780,778,778,778,778,778,778,778,778,778,778,778,778,778,776,774,768,748,733,714,693,663,627,571,549,546,542,540,539,535,529,523,512,505,501,495,489],"ymouse":[515,515,515,515,515,515,515,515,515,515,515,515,515,515,515,515,515,515,515,515,515,515,515,515,515,515,515,515,516,516,516,516,516,516,516,516,516,516,516,516,516,516,498,480,447,431,410,384,344,306,243,223,218,213,211,207,198,183,170,144,127,117,103,89],"timestamp_mouse":[9,21,41,61,82,100,121,142,162,180,200,221,240,262,280,300,320,341,360,382,401,421,440,460,482,501,521,540,561,582,601,621,641,660,682,702,721,741,760,781,801,820,840,861,880,900,920,940,961,981,1002,1020,1041,1060,1081,1100,1120,1140,1162,1180,1202,1221,1240,1261],"xSR":741.5,"ySR":458.25,"xT1":424.9,"yT1":0,"xT2":1058.1,"yT2":0,"toosoon":0,"cond_shown":"equaldotsize","ratio_trial":500,"smaller_num":"5","larger_num":"10","correct_side":1,"subjID":"Tomas Moreno Moreno 12","gender":"0","age":"9","school":"4"},{"start_time":1552313994443,"click_time":1552313995906,"finger_time":1552313995425,"fix_duration":1095.2067824174096,"trial":26,"RT":982,"MT":481,"sideResp":1,"stimulus":"img/500/randomdotsizeEA/L/13_Ratio_500_L_12_R_6.png","xmouse":[790,789,789,788,787,787,787,786,786,785,785,785,785,785,784,784,784,783,783,781,781,780,780,779,779,778,778,778,778,778,778,778,778,778,778,778,778,778,778,778,778,778,778,777,777,776,770,763,749,736,723,702,692,686,675,661,596,586,569,557,546,532,527,521,513,506,497,486,486,486,486,486,481,473],"ymouse":[521,522,523,525,526,526,526,527,527,528,528,528,529,529,529,529,529,529,530,531,531,532,532,533,535,536,536,536,536,536,536,537,537,538,538,538,538,538,538,538,538,539,539,539,539,537,530,523,510,497,482,456,444,435,422,405,327,313,286,265,246,216,205,190,173,158,140,118,118,118,118,118,104,90],"timestamp_mouse":[2,22,44,62,82,104,124,142,163,182,202,224,243,263,283,302,323,344,362,382,421,423,442,463,484,504,523,542,563,584,602,622,643,663,682,703,723,743,763,783,802,823,843,863,882,903,922,942,962,982,1003,1023,1042,1063,1082,1103,1124,1144,1163,1183,1202,1222,1242,1262,1283,1303,1323,1343,1363,1384,1403,1422,1442,1463],"xSR":741.5,"ySR":458.25,"xT1":424.9,"yT1":0,"xT2":1058.1,"yT2":0,"toosoon":0,"cond_shown":"randomdotsizeEA","ratio_trial":500,"smaller_num":"6","larger_num":"12","correct_side":1,"subjID":"Tomas Moreno Moreno 12","gender":"0","age":"9","school":"4"},{"start_time":1552313997017,"click_time":1552313999066,"finger_time":1552313998646,"fix_duration":250,"trial":27,"RT":1629,"MT":420,"sideResp":2,"stimulus":"img/500/randomdotsizeEA/R/14_Ratio_500_L_5_R_10.png","xmouse":[813,814,816,817,817,817,817,818,818,818,818,818,818,818,818,819,819,819,819,819,819,820,820,820,821,821,821,821,821,821,821,822,824,824,824,824,824,824,824,824,824,824,824,824,824,824,824,824,824,823,823,823,822,821,821,821,821,821,820,820,820,820,820,820,819,819,819,819,819,819,819,819,819,819,819,819,820,828,832,834,840,847,863,870,878,886,896,916,930,939,944,949,963,974,982,992,999,1013,1023,1032,1042,1054,1075],"ymouse":[553,552,547,546,545,545,545,544,544,543,543,543,543,543,543,542,542,542,542,542,542,542,542,542,542,542,542,542,542,542,542,542,542,542,542,542,542,542,542,542,542,542,542,542,542,542,542,542,542,541,541,540,537,535,535,535,535,535,534,534,534,534,534,534,534,534,534,534,534,534,534,534,534,534,534,534,534,529,515,495,482,474,456,446,436,421,405,373,351,336,320,301,267,249,233,217,202,169,148,136,123,111,86],"timestamp_mouse":[8,29,48,68,89,109,129,148,168,189,209,228,249,269,289,309,330,349,368,388,409,429,449,469,489,508,528,548,570,588,610,628,649,669,688,710,730,748,769,790,808,828,849,870,889,909,929,948,970,990,1009,1028,1049,1070,1088,1109,1128,1149,1169,1189,1209,1230,1250,1268,1289,1309,1330,1348,1369,1389,1409,1430,1449,1468,1488,1508,1528,1548,1570,1588,1609,1629,1649,1668,1688,1708,1730,1749,1779,1789,1809,1828,1849,1868,1888,1909,1928,1949,1968,1988,2009,2029,2049],"xSR":741.5,"ySR":458.25,"xT1":424.9,"yT1":0,"xT2":1058.1,"yT2":0,"toosoon":0,"cond_shown":"randomdotsizeEA","ratio_trial":500,"smaller_num":"5","larger_num":"10","correct_side":2,"subjID":"Tomas Moreno Moreno 12","gender":"0","age":"9","school":"4"},{"start_time":1552314000799,"click_time":1552314002245,"finger_time":1552314001586,"fix_duration":630.3675333564659,"trial":28,"RT":787,"MT":659,"sideResp":1,"stimulus":"img/750/equaldotsize/L/9_Ratio_750_L_4_R_3.png","xmouse":[805,805,805,805,805,805,805,805,805,805,805,805,805,805,805,805,805,805,805,805,805,805,805,805,805,805,805,805,805,805,805,805,805,805,805,808,811,815,827,843,853,858,860,863,864,866,867,869,870,870,870,870,870,862,848,828,800,771,734,709,693,671,633,550,527,511,503,499,498,495,491,484,480],"ymouse":[527,527,527,527,527,527,527,527,527,527,527,527,527,527,527,527,527,527,527,527,527,527,527,527,527,527,527,527,527,527,527,527,527,527,527,527,525,524,519,508,490,478,466,452,448,446,445,444,443,443,443,443,443,431,417,401,381,359,323,293,274,253,223,163,147,136,128,124,123,117,111,104,97],"timestamp_mouse":[12,35,46,66,87,107,127,147,167,186,206,226,246,267,286,306,326,347,366,387,407,427,447,466,488,506,526,546,567,586,607,627,648,667,686,707,726,746,766,787,806,826,846,867,886,907,926,946,967,987,1006,1027,1047,1067,1086,1107,1126,1147,1167,1186,1207,1227,1246,1267,1286,1307,1326,1346,1366,1387,1407,1426,1446],"xSR":741.5,"ySR":458.25,"xT1":424.9,"yT1":0,"xT2":1058.1,"yT2":0,"toosoon":0,"cond_shown":"equaldotsize","ratio_trial":750,"smaller_num":"3","larger_num":"4","correct_side":1,"subjID":"Tomas Moreno Moreno 12","gender":"0","age":"9","school":"4"},{"start_time":1552314004748,"click_time":1552314006066,"finger_time":1552314005586,"fix_duration":1220.9493526385436,"trial":29,"RT":838,"MT":480,"sideResp":1,"stimulus":"img/250/randomdotsizeEA/L/3_Ratio_250_L_8_R_2.png","xmouse":[766,766,766,766,766,766,766,766,766,766,766,766,766,766,766,766,766,766,766,766,766,766,766,766,766,766,766,766,766,766,766,766,766,766,766,766,766,766,766,766,765,736,696,638,595,570,557,556,555,553,539,525,516,512,510,501,494,488,483,480,474,471,470,469,468,467],"ymouse":[495,495,495,495,495,495,495,495,495,495,495,495,495,495,495,495,495,495,495,495,496,496,496,496,496,496,496,496,496,496,496,496,496,496,496,496,496,496,496,496,496,433,361,284,238,208,190,188,187,184,170,159,151,147,145,139,134,130,126,122,112,107,105,104,102,99],"timestamp_mouse":[18,42,57,78,99,119,137,158,177,198,218,238,259,279,299,318,338,358,379,399,418,439,458,478,499,518,538,557,578,598,618,638,659,677,698,717,737,757,778,799,817,838,858,878,898,917,937,957,977,998,1018,1037,1058,1078,1098,1117,1137,1157,1177,1199,1218,1237,1257,1278,1297,1317],"xSR":741.5,"ySR":458.25,"xT1":424.9,"yT1":0,"xT2":1058.1,"yT2":0,"toosoon":0,"cond_shown":"randomdotsizeEA","ratio_trial":250,"smaller_num":"2","larger_num":"8","correct_side":1,"subjID":"Tomas Moreno Moreno 12","gender":"0","age":"9","school":"4"},{"start_time":1552314015709,"click_time":1552314017145,"finger_time":1552314016786,"fix_duration":842.1947129211358,"trial":30,"RT":1077,"MT":359,"sideResp":1,"stimulus":"img/900/equaldotsize/L/2_Ratio_900_L_20_R_18.png","xmouse":[786,786,785,785,784,784,784,784,784,784,784,784,784,784,784,784,784,784,784,784,784,783,783,782,782,782,782,782,782,782,782,782,782,782,782,782,782,782,782,782,782,782,782,782,782,782,782,782,782,782,782,782,777,740,678,604,535,467,461,461,461,460,456,456,456,458,461,464,466,467,467,467],"ymouse":[511,511,512,512,515,515,515,515,515,515,515,515,515,515,515,515,515,515,515,516,516,516,517,518,518,518,518,518,518,518,518,518,518,518,518,518,518,518,518,518,518,518,518,518,518,518,518,518,518,518,518,518,515,467,402,328,257,182,170,166,161,156,141,136,131,129,127,125,124,119,110,97],"timestamp_mouse":[17,37,73,76,96,117,138,157,178,197,217,237,256,278,297,316,337,357,376,397,416,436,457,477,496,517,537,557,576,597,617,638,656,677,696,717,737,758,776,797,816,836,857,877,896,916,938,957,976,997,1017,1038,1056,1077,1096,1117,1136,1157,1176,1197,1216,1236,1257,1278,1296,1317,1337,1357,1376,1397,1417,1436],"xSR":741.5,"ySR":458.25,"xT1":424.9,"yT1":0,"xT2":1058.1,"yT2":0,"toosoon":0,"cond_shown":"equaldotsize","ratio_trial":900,"smaller_num":"18","larger_num":"20","correct_side":1,"subjID":"Tomas Moreno Moreno 12","gender":"0","age":"9","school":"4"},{"start_time":1552314024110,"click_time":1552314025367,"finger_time":1552314025106,"fix_duration":1183.3290314471708,"trial":31,"RT":996,"MT":261,"sideResp":2,"stimulus":"img/900/randomdotsizeEA/R/13_Ratio_900_L_18_R_20.png","xmouse":[782,782,782,780,780,780,780,780,780,780,780,780,780,780,780,780,780,780,780,780,780,780,780,780,780,780,780,780,780,781,781,781,782,785,785,786,786,786,786,786,786,786,786,786,786,789,794,818,840,870,889,905,925,935,943,957,970,985,994,1009,1029,1050,1105],"ymouse":[543,543,543,544,544,544,544,544,544,544,544,544,544,544,544,544,544,544,544,544,544,544,544,544,544,544,544,544,544,544,544,544,544,543,543,542,542,542,542,542,542,542,542,542,542,542,540,530,515,459,411,354,228,178,163,152,147,140,135,125,111,93,42],"timestamp_mouse":[16,43,56,75,97,115,136,156,175,196,216,235,256,277,295,316,335,355,375,395,416,436,457,475,495,516,536,556,577,596,615,636,656,676,696,715,735,755,777,795,815,837,855,876,895,916,936,955,975,996,1015,1036,1056,1075,1095,1116,1136,1155,1175,1195,1215,1235,1257],"xSR":741.5,"ySR":458.25,"xT1":424.9,"yT1":0,"xT2":1058.1,"yT2":0,"toosoon":0,"cond_shown":"randomdotsizeEA","ratio_trial":900,"smaller_num":"18","larger_num":"20","correct_side":2,"subjID":"Tomas Moreno Moreno 12","gender":"0","age":"9","school":"4"},{"start_time":1552314027363,"click_time":1552314028466,"finger_time":1552314028346,"fix_duration":895.1834802703535,"trial":32,"RT":983,"MT":120,"sideResp":1,"stimulus":"img/500/equaldotanddens/L/4_Ratio_500_L_18_R_9.png","xmouse":[786,786,786,786,786,786,786,786,786,786,786,786,786,786,785,785,785,785,784,783,783,783,782,782,782,782,782,782,782,782,782,782,782,782,782,782,782,782,782,782,782,784,788,791,794,794,794,794,793,777,672,568,523,504,494,491],"ymouse":[500,500,500,500,500,500,500,500,500,500,500,500,500,500,500,500,500,500,500,500,500,500,501,501,501,501,501,501,501,501,501,501,501,501,501,501,501,501,501,501,501,501,500,498,497,497,496,495,477,448,306,203,156,130,113,91],"timestamp_mouse":[10,37,42,63,83,103,122,144,162,183,203,223,243,262,282,303,323,343,362,383,403,424,443,462,483,502,523,542,564,583,602,623,644,664,682,703,722,744,763,784,803,823,842,864,884,903,923,943,963,983,1003,1024,1043,1062,1083,1103],"xSR":741.5,"ySR":458.25,"xT1":424.9,"yT1":0,"xT2":1058.1,"yT2":0,"toosoon":0,"cond_shown":"equaldotanddens","ratio_trial":500,"smaller_num":"9","larger_num":"18","correct_side":1,"subjID":"Tomas Moreno Moreno 12","gender":"0","age":"9","school":"4"},{"start_time":1552314034158,"click_time":1552314035485,"finger_time":1552314034885,"fix_duration":250,"trial":33,"RT":727,"MT":600,"sideResp":2,"stimulus":"img/250/equaldotsize/R/10_Ratio_250_L_4_R_16.png","xmouse":[797,801,803,803,803,803,803,803,803,803,803,803,803,803,803,803,803,803,803,803,803,803,803,803,803,803,803,803,803,803,803,803,805,812,818,836,850,866,877,894,922,927,936,945,954,972,986,995,1004,1012,1021,1025,1033,1037,1043,1047,1049,1049,1049,1049,1052,1053,1055,1056,1056,1056,1059],"ymouse":[525,525,526,526,526,526,526,526,526,526,526,526,526,526,526,526,526,526,526,526,526,526,526,526,526,526,526,526,526,526,526,526,526,524,521,512,503,487,465,427,355,334,307,294,283,262,254,245,236,227,201,184,162,149,138,129,129,123,116,109,97,96,96,96,96,96,96],"timestamp_mouse":[10,28,55,67,87,108,128,148,168,187,208,229,247,268,288,308,327,347,367,388,407,429,449,468,488,508,529,549,568,588,608,628,647,668,688,707,727,747,768,788,808,827,847,869,888,907,927,948,968,989,1008,1028,1048,1069,1088,1108,1127,1147,1168,1188,1207,1227,1247,1267,1287,1308,1327],"xSR":741.5,"ySR":458.25,"xT1":424.9,"yT1":0,"xT2":1058.1,"yT2":0,"toosoon":0,"cond_shown":"equaldotsize","ratio_trial":250,"smaller_num":"4","larger_num":"16","correct_side":2,"subjID":"Tomas Moreno Moreno 12","gender":"0","age":"9","school":"4"},{"start_time":1552314036799,"click_time":1552314037885,"finger_time":1552314037526,"fix_duration":532.7739478154452,"trial":34,"RT":727,"MT":359,"sideResp":1,"stimulus":"img/250/equaldotanddens/L/3_Ratio_250_L_8_R_2.png","xmouse":[811,810,810,809,809,809,809,808,808,806,806,806,806,806,806,806,806,805,805,805,805,805,805,804,804,804,804,804,804,804,804,804,804,797,783,764,736,706,636,621,618,617,617,616,616,616,613,607,562,512,498,494,492,490,470],"ymouse":[505,505,505,505,505,505,505,505,506,507,507,507,507,507,508,508,508,509,509,509,509,509,509,511,511,511,511,511,511,511,511,511,511,512,506,493,471,442,366,332,312,293,276,258,255,251,243,232,176,126,114,110,109,107,91],"timestamp_mouse":[7,26,51,67,87,107,127,146,168,186,206,226,248,267,286,306,327,347,367,386,408,428,446,466,488,506,527,548,567,587,607,628,646,666,686,707,727,747,766,786,806,827,846,867,887,906,927,947,967,987,1006,1026,1047,1066,1086],"xSR":741.5,"ySR":458.25,"xT1":424.9,"yT1":0,"xT2":1058.1,"yT2":0,"toosoon":0,"cond_shown":"equaldotanddens","ratio_trial":250,"smaller_num":"2","larger_num":"8","correct_side":1,"subjID":"Tomas Moreno Moreno 12","gender":"0","age":"9","school":"4"},{"start_time":1552314040262,"click_time":1552314041405,"finger_time":1552314041186,"fix_duration":1455.7377836073167,"trial":35,"RT":924,"MT":219,"sideResp":2,"stimulus":"img/500/equaldotanddens/R/12_Ratio_500_L_1_R_2.png","xmouse":[786,786,786,786,786,786,786,786,786,786,786,786,786,786,786,786,786,786,786,786,787,787,787,788,788,788,788,789,789,789,789,789,789,790,790,790,790,790,790,790,790,794,798,802,808,830,876,908,929,938,958,970,983,994,1006,1031,1046,1062],"ymouse":[508,508,508,508,508,508,508,508,508,508,508,508,508,508,508,508,508,508,508,508,508,508,508,508,508,508,508,508,508,508,508,508,508,508,508,508,508,508,508,508,508,508,508,506,503,485,428,360,307,262,213,197,180,165,154,128,113,92],"timestamp_mouse":[9,23,43,64,83,104,123,143,163,183,203,224,244,264,285,303,324,343,364,384,404,423,445,464,483,505,525,543,563,585,604,625,645,664,683,704,725,743,763,785,803,823,845,864,884,903,924,943,963,984,1004,1023,1044,1063,1083,1103,1124,1143],"xSR":741.5,"ySR":458.25,"xT1":424.9,"yT1":0,"xT2":1058.1,"yT2":0,"toosoon":0,"cond_shown":"equaldotanddens","ratio_trial":500,"smaller_num":"1","larger_num":"2","correct_side":2,"subjID":"Tomas Moreno Moreno 12","gender":"0","age":"9","school":"4"},{"start_time":1552314043782,"click_time":1552314045266,"finger_time":1552314044965,"fix_duration":1435.8228460713083,"trial":36,"RT":1183,"MT":301,"sideResp":1,"stimulus":"img/900/randomdotsizeEA/L/4_Ratio_900_L_20_R_18.png","xmouse":[782,782,782,782,782,782,782,782,782,782,782,782,782,782,782,782,782,782,782,782,782,782,782,782,782,782,782,782,782,782,782,782,782,782,782,782,782,782,782,782,782,782,782,782,782,782,782,782,783,790,792,797,797,797,797,797,797,797,789,757,732,722,715,710,686,670,661,651,644,621,580,541,511,496,479],"ymouse":[508,508,508,508,508,508,508,508,508,508,508,508,508,508,508,508,508,508,508,508,508,508,508,508,508,508,508,508,508,508,508,508,508,508,508,508,508,508,508,508,508,508,508,508,508,508,508,508,508,507,506,504,504,504,504,504,502,494,474,441,421,412,404,395,360,339,322,303,288,248,198,160,135,117,88],"timestamp_mouse":[11,36,44,65,83,103,124,144,164,184,203,224,245,264,284,303,323,343,363,383,404,423,443,463,484,504,523,543,563,584,604,625,643,664,683,705,725,744,764,785,804,824,843,865,884,903,925,943,963,984,1004,1023,1043,1065,1084,1103,1123,1144,1164,1183,1203,1223,1244,1263,1284,1303,1324,1344,1365,1384,1403,1423,1443,1464,1484],"xSR":741.5,"ySR":458.25,"xT1":424.9,"yT1":0,"xT2":1058.1,"yT2":0,"toosoon":0,"cond_shown":"randomdotsizeEA","ratio_trial":900,"smaller_num":"18","larger_num":"20","correct_side":1,"subjID":"Tomas Moreno Moreno 12","gender":"0","age":"9","school":"4"},{"start_time":1552314046841,"click_time":1552314048306,"finger_time":1552314047766,"fix_duration":493.8058284258902,"trial":37,"RT":925,"MT":540,"sideResp":1,"stimulus":"img/900/equaldotanddens/L/2_Ratio_900_L_20_R_18.png","xmouse":[807,807,807,807,807,807,807,807,807,807,807,807,807,807,807,807,807,807,807,807,807,807,807,807,807,807,807,807,807,807,807,807,807,807,807,807,807,807,807,807,807,807,803,796,787,776,753,748,747,746,743,729,719,710,705,701,692,671,641,620,610,608,607,601,590,576,544,533,533,533,533,533,531,524],"ymouse":[497,497,497,497,497,497,497,497,497,497,497,497,497,497,497,497,497,497,497,497,497,497,497,497,497,497,497,497,497,497,497,497,497,497,497,497,497,497,497,497,497,498,494,485,477,464,435,425,423,416,407,369,351,332,318,304,275,237,197,173,163,161,158,152,142,132,109,101,101,101,101,99,94,80],"timestamp_mouse":[12,24,45,65,84,104,126,144,164,184,205,226,245,264,285,304,325,344,365,385,406,424,444,465,485,504,525,545,564,586,606,626,644,664,685,704,724,744,766,785,806,825,844,864,884,904,925,946,965,984,1004,1025,1044,1064,1085,1105,1125,1144,1164,1184,1204,1225,1244,1265,1284,1304,1326,1345,1365,1386,1405,1425,1444,1465],"xSR":741.5,"ySR":458.25,"xT1":424.9,"yT1":0,"xT2":1058.1,"yT2":0,"toosoon":0,"cond_shown":"equaldotanddens","ratio_trial":900,"smaller_num":"18","larger_num":"20","correct_side":1,"subjID":"Tomas Moreno Moreno 12","gender":"0","age":"9","school":"4"},{"start_time":1552314050015,"click_time":1552314051066,"finger_time":1552314050765,"fix_duration":587.7810305238546,"trial":38,"RT":750,"MT":301,"sideResp":1,"stimulus":"img/250/equaldotsize/L/1_Ratio_250_L_8_R_2.png","xmouse":[810,810,810,810,810,810,810,810,810,810,810,810,810,810,810,810,810,810,810,810,810,810,810,810,810,811,811,811,811,811,811,813,815,817,817,817,812,793,783,774,761,751,735,726,713,690,659,625,619,613,604,581,518],"ymouse":[492,492,492,492,492,492,492,492,492,492,492,492,492,492,492,492,492,492,492,492,492,492,492,492,492,492,492,492,492,492,492,492,491,488,484,476,463,428,409,394,372,355,323,303,281,248,213,168,155,143,130,107,62],"timestamp_mouse":[11,37,52,71,90,112,130,150,172,191,211,232,250,270,290,310,330,351,370,391,410,432,451,470,490,511,531,551,571,592,610,632,650,670,691,710,731,750,770,790,811,831,851,870,890,911,932,950,970,991,1010,1031,1050],"xSR":741.5,"ySR":458.25,"xT1":424.9,"yT1":0,"xT2":1058.1,"yT2":0,"toosoon":0,"cond_shown":"equaldotsize","ratio_trial":250,"smaller_num":"2","larger_num":"8","correct_side":1,"subjID":"Tomas Moreno Moreno 12","gender":"0","age":"9","school":"4"},{"start_time":1552314052610,"click_time":1552314053645,"finger_time":1552314053405,"fix_duration":324.67514800204134,"trial":39,"RT":795,"MT":240,"sideResp":2,"stimulus":"img/250/randomdotsizeEA/L/15_Ratio_250_L_12_R_3.png","xmouse":[811,811,811,811,811,811,811,811,811,811,811,811,811,811,811,811,811,811,811,811,811,811,811,811,811,811,811,811,811,811,811,811,811,811,815,819,828,833,841,857,875,898,939,958,972,983,994,1021,1039,1052,1058,1060],"ymouse":[483,483,483,483,483,483,483,483,483,483,483,483,484,484,484,484,484,484,484,484,484,484,484,484,484,484,484,484,484,484,484,484,484,484,485,483,479,476,473,456,429,382,288,254,233,219,202,158,123,102,88,82],"timestamp_mouse":[16,38,56,77,96,115,136,155,175,195,217,235,256,276,297,316,335,355,376,396,416,435,457,475,495,515,535,555,577,596,617,637,656,675,696,715,736,755,776,795,815,836,855,875,895,915,935,956,975,995,1016,1035],"xSR":741.5,"ySR":458.25,"xT1":424.9,"yT1":0,"xT2":1058.1,"yT2":0,"toosoon":0,"cond_shown":"randomdotsizeEA","ratio_trial":250,"smaller_num":"3","larger_num":"12","correct_side":1,"subjID":"Tomas Moreno Moreno 12","gender":"0","age":"9","school":"4"},{"start_time":1552314055464,"click_time":1552314056566,"finger_time":1552314056145,"fix_duration":777.5067404368526,"trial":40,"RT":681,"MT":421,"sideResp":1,"stimulus":"img/900/equaldotsize/L/10_Ratio_900_L_20_R_18.png","xmouse":[787,787,787,787,787,787,787,787,787,787,787,787,787,787,787,787,787,787,787,787,787,787,787,787,787,787,787,788,788,788,788,788,788,788,774,754,742,742,742,742,741,734,721,709,699,680,671,652,633,615,589,577,568,554,539,516],"ymouse":[487,487,487,487,487,487,487,487,487,487,487,487,487,487,487,487,487,487,487,487,487,487,487,487,487,487,487,487,487,487,487,487,475,462,432,405,386,385,385,385,383,372,352,334,315,273,251,211,179,154,118,104,90,75,60,42],"timestamp_mouse":[9,33,43,62,83,101,121,143,161,183,201,221,242,263,283,302,322,342,362,383,402,422,443,461,483,501,521,541,563,581,601,621,641,661,681,702,722,742,761,781,802,821,841,861,883,901,922,942,962,982,1002,1021,1042,1062,1082,1102],"xSR":741.5,"ySR":458.25,"xT1":424.9,"yT1":0,"xT2":1058.1,"yT2":0,"toosoon":0,"cond_shown":"equaldotsize","ratio_trial":900,"smaller_num":"18","larger_num":"20","correct_side":1,"subjID":"Tomas Moreno Moreno 12","gender":"0","age":"9","school":"4"},{"start_time":1552314058764,"click_time":1552314059926,"finger_time":1552314059605,"fix_duration":1156.5392846637633,"trial":41,"RT":841,"MT":321,"sideResp":1,"stimulus":"img/250/equaldotanddens/L/1_Ratio_250_L_8_R_2.png","xmouse":[800,800,800,800,800,800,800,800,800,800,800,800,800,800,800,800,800,800,800,800,800,800,800,800,800,800,800,800,800,800,800,800,800,800,800,800,800,800,800,800,799,781,738,729,722,706,690,672,659,651,622,603,600,600,597,565,518,463,437],"ymouse":[504,504,504,504,504,504,504,504,504,504,504,504,504,504,504,504,504,504,504,504,504,504,504,504,504,504,504,504,504,504,504,504,504,504,504,504,504,504,504,504,504,478,424,408,398,376,358,338,321,309,274,251,246,244,238,199,152,108,90],"timestamp_mouse":[9,32,42,61,82,101,122,141,162,181,202,223,241,262,283,301,321,341,362,383,401,422,442,462,483,503,523,542,561,582,602,622,642,661,683,702,722,741,761,783,801,823,841,862,881,902,922,941,961,981,1002,1021,1041,1062,1082,1102,1121,1142,1162],"xSR":741.5,"ySR":458.25,"xT1":424.9,"yT1":0,"xT2":1058.1,"yT2":0,"toosoon":0,"cond_shown":"equaldotanddens","ratio_trial":250,"smaller_num":"2","larger_num":"8","correct_side":1,"subjID":"Tomas Moreno Moreno 12","gender":"0","age":"9","school":"4"},{"start_time":1552314062548,"click_time":1552314063685,"finger_time":1552314063346,"fix_duration":1461.0911108650864,"trial":42,"RT":798,"MT":339,"sideResp":1,"stimulus":"img/250/equaldotsize/L/5_Ratio_250_L_24_R_6.png","xmouse":[784,784,784,784,784,784,784,784,784,784,784,784,784,784,784,784,784,784,784,784,784,784,784,784,784,784,784,784,784,784,784,784,784,784,784,784,784,784,784,783,650,630,626,625,625,625,625,616,583,553,544,544,544,543,537,517,503],"ymouse":[487,487,487,487,487,487,487,487,487,487,487,487,487,487,487,487,487,487,487,487,487,487,487,487,487,487,487,487,487,487,487,487,487,487,487,487,487,487,476,452,247,221,214,214,214,214,212,198,167,142,132,132,132,131,125,100,84],"timestamp_mouse":[19,38,57,78,98,119,138,158,177,197,219,237,257,277,299,318,338,359,377,398,418,439,457,477,498,519,539,557,578,597,618,638,657,677,698,718,738,759,778,798,818,839,859,878,897,918,937,957,977,997,1018,1037,1057,1077,1097,1118,1137],"xSR":741.5,"ySR":458.25,"xT1":424.9,"yT1":0,"xT2":1058.1,"yT2":0,"toosoon":0,"cond_shown":"equaldotsize","ratio_trial":250,"smaller_num":"6","larger_num":"24","correct_side":1,"subjID":"Tomas Moreno Moreno 12","gender":"0","age":"9","school":"4"},{"start_time":1552314067249,"click_time":1552314068326,"finger_time":1552314067926,"fix_duration":1463.5555338891727,"trial":43,"RT":677,"MT":400,"sideResp":2,"stimulus":"img/750/equaldotanddens/R/12_Ratio_750_L_3_R_4.png","xmouse":[815,815,815,815,815,815,815,815,815,815,815,815,815,815,815,815,815,815,815,815,815,815,815,815,815,815,815,815,815,815,815,822,838,853,864,884,903,916,937,966,1015,1029,1037,1046,1053,1070,1083,1090,1098,1103,1111,1114,1117,1122],"ymouse":[511,511,511,511,511,511,511,511,511,511,511,511,511,511,511,511,511,511,511,511,511,511,511,511,511,511,511,511,511,511,511,509,497,484,473,445,411,388,356,317,248,225,210,201,193,178,163,151,135,123,112,107,103,93],"timestamp_mouse":[17,38,57,77,98,118,138,156,177,198,217,238,257,276,297,317,337,356,377,398,416,437,457,478,498,516,536,557,576,598,616,636,658,677,696,717,736,756,777,796,817,836,857,876,896,917,938,956,978,997,1017,1036,1056,1076],"xSR":741.5,"ySR":458.25,"xT1":424.9,"yT1":0,"xT2":1058.1,"yT2":0,"toosoon":0,"cond_shown":"equaldotanddens","ratio_trial":750,"smaller_num":"3","larger_num":"4","correct_side":2,"subjID":"Tomas Moreno Moreno 12","gender":"0","age":"9","school":"4"},{"start_time":1552314070125,"click_time":1552314072085,"finger_time":1552314071205,"fix_duration":717.2850037052193,"trial":44,"RT":1080,"MT":880,"sideResp":1,"stimulus":"img/500/randomdotsizeEA/L/11_Ratio_500_L_12_R_6.png","xmouse":[784,784,784,784,784,783,783,783,783,783,784,784,784,784,784,784,784,784,784,784,784,784,784,784,784,784,784,784,784,784,784,784,784,784,784,784,784,784,784,784,784,784,784,784,784,784,784,784,787,789,794,803,820,827,836,843,857,910,934,948,959,967,975,976,977,977,978,980,981,981,981,981,969,964,963,963,962,959,957,956,956,956,955,946,926,909,894,853,833,816,801,781,708,667,645,632,620,578,520],"ymouse":[495,495,495,495,495,495,495,495,495,495,494,494,494,494,494,494,494,494,494,494,494,494,494,494,494,494,494,494,494,494,494,494,494,494,494,494,494,494,494,494,494,494,494,494,494,494,494,494,494,493,492,487,480,477,448,425,405,372,358,348,338,329,312,307,303,302,301,299,297,297,297,297,301,302,303,303,303,304,305,305,305,305,305,300,288,279,271,252,245,237,230,221,195,177,167,161,154,129,98],"timestamp_mouse":[2,20,43,60,80,101,122,140,160,181,200,222,240,261,280,300,321,341,362,380,401,421,440,462,480,500,521,541,560,582,600,621,641,660,680,702,722,741,760,780,800,820,840,861,881,902,920,940,960,980,1001,1021,1040,1060,1080,1101,1120,1140,1160,1180,1200,1220,1241,1261,1282,1301,1321,1340,1360,1382,1400,1421,1441,1460,1480,1500,1520,1541,1560,1581,1600,1620,1640,1661,1680,1701,1721,1741,1760,1780,1801,1822,1840,1862,1881,1902,1921,1940,1960],"xSR":741.5,"ySR":458.25,"xT1":424.9,"yT1":0,"xT2":1058.1,"yT2":0,"toosoon":0,"cond_shown":"randomdotsizeEA","ratio_trial":500,"smaller_num":"6","larger_num":"12","correct_side":1,"subjID":"Tomas Moreno Moreno 12","gender":"0","age":"9","school":"4"},{"start_time":1552314075787,"click_time":1552314077187,"finger_time":1552314076645,"fix_duration":879.8018130842784,"trial":45,"RT":858,"MT":542,"sideResp":1,"stimulus":"img/250/equaldotanddens/L/14_Ratio_250_L_12_R_3.png","xmouse":[781,781,781,781,781,781,781,781,781,781,781,781,781,781,781,781,781,781,781,781,781,781,781,781,781,781,781,781,781,781,781,781,781,781,781,781,781,781,780,768,763,761,758,752,725,715,709,706,704,687,679,672,668,661,631,607,590,581,580,579,575,565,550,538,533,533,533,530,525,499,493],"ymouse":[507,507,507,507,507,507,507,507,507,507,507,507,507,507,507,507,507,507,507,507,507,507,507,507,507,507,507,507,507,507,507,507,507,507,507,507,507,507,503,480,472,468,463,453,422,410,402,396,391,371,361,352,344,332,292,260,242,229,226,223,215,202,187,176,170,166,161,153,139,103,96],"timestamp_mouse":[1,20,42,58,79,99,119,140,159,178,199,218,238,259,280,300,319,338,358,379,398,418,439,460,480,499,518,539,559,579,599,619,639,659,680,700,720,739,760,780,799,818,838,858,878,898,919,938,959,979,999,1019,1038,1059,1078,1098,1118,1139,1158,1179,1198,1218,1240,1259,1279,1298,1318,1338,1359,1378,1400],"xSR":741.5,"ySR":458.25,"xT1":424.9,"yT1":0,"xT2":1058.1,"yT2":0,"toosoon":0,"cond_shown":"equaldotanddens","ratio_trial":250,"smaller_num":"3","larger_num":"12","correct_side":1,"subjID":"Tomas Moreno Moreno 12","gender":"0","age":"9","school":"4"},{"start_time":1552314078957,"click_time":1552314080566,"finger_time":1552314080106,"fix_duration":250,"trial":46,"RT":1149,"MT":460,"sideResp":2,"stimulus":"img/250/randomdotsizeEA/R/6_Ratio_250_L_6_R_24.png","xmouse":[789,789,789,788,788,787,787,786,784,781,777,777,777,777,777,777,777,777,777,777,777,777,777,777,777,777,777,777,777,777,777,777,777,777,777,777,777,777,777,777,777,777,777,777,777,777,777,777,777,777,777,778,781,788,800,826,839,856,883,912,964,983,1007,1016,1018,1022,1023,1023,1023,1024,1032,1041,1045,1049,1053,1070,1082,1090,1099,1104,1109],"ymouse":[523,523,523,522,521,520,520,517,514,508,504,504,504,504,504,504,504,504,504,504,504,504,504,504,504,504,504,504,504,504,504,504,504,504,504,504,504,504,504,504,504,504,504,504,504,504,504,504,504,504,504,504,503,500,495,485,479,472,453,429,389,366,312,280,262,254,253,253,253,252,240,231,225,220,213,189,172,157,138,123,97],"timestamp_mouse":[9,42,50,68,89,109,128,148,169,189,210,229,248,268,290,309,329,349,368,388,410,429,448,469,490,508,529,549,570,589,610,628,648,668,688,709,728,749,770,790,808,829,848,869,888,910,928,949,969,989,1008,1028,1048,1070,1089,1108,1128,1149,1168,1189,1209,1228,1254,1269,1288,1309,1329,1349,1368,1388,1409,1428,1448,1469,1488,1509,1528,1548,1569,1589,1609],"xSR":741.5,"ySR":458.25,"xT1":424.9,"yT1":0,"xT2":1058.1,"yT2":0,"toosoon":0,"cond_shown":"randomdotsizeEA","ratio_trial":250,"smaller_num":"6","larger_num":"24","correct_side":2,"subjID":"Tomas Moreno Moreno 12","gender":"0","age":"9","school":"4"},{"start_time":1552314082576,"click_time":1552314083666,"finger_time":1552314083285,"fix_duration":808.5338550911031,"trial":47,"RT":709,"MT":381,"sideResp":2,"stimulus":"img/500/equaldotanddens/R/15_Ratio_500_L_1_R_2.png","xmouse":[795,795,795,795,795,795,795,795,795,795,795,795,795,796,797,797,797,797,797,797,797,797,797,797,797,797,797,797,797,797,797,797,800,805,828,842,849,854,859,879,899,916,932,945,982,992,1000,1004,1009,1013,1022,1032,1037,1046,1059],"ymouse":[504,504,504,504,504,504,504,504,504,504,504,504,504,504,503,503,503,503,503,503,503,503,503,503,503,503,503,503,503,503,503,503,502,499,489,483,479,476,474,459,426,403,377,351,264,235,215,201,182,162,139,127,120,110,81],"timestamp_mouse":[9,37,51,71,90,109,130,150,171,190,209,230,251,270,289,310,330,349,370,391,410,431,449,469,490,509,531,551,570,590,610,629,650,669,689,709,730,750,770,790,809,829,849,870,889,909,930,949,969,989,1010,1029,1049,1070,1090],"xSR":741.5,"ySR":458.25,"xT1":424.9,"yT1":0,"xT2":1058.1,"yT2":0,"toosoon":0,"cond_shown":"equaldotanddens","ratio_trial":500,"smaller_num":"1","larger_num":"2","correct_side":2,"subjID":"Tomas Moreno Moreno 12","gender":"0","age":"9","school":"4"},{"start_time":1552314084910,"click_time":1552314086226,"finger_time":1552314085785,"fix_duration":343.59359528556365,"trial":48,"RT":875,"MT":441,"sideResp":1,"stimulus":"img/900/equaldotsize/L/1_Ratio_900_L_10_R_9.png","xmouse":[771,771,771,772,772,772,773,773,773,773,773,773,773,773,773,773,773,773,773,773,773,773,773,773,773,773,773,774,775,778,781,785,790,790,792,792,792,793,793,793,791,786,749,740,736,734,731,711,689,656,626,609,603,600,596,590,579,550,543,541,541,541,530,516,502,491],"ymouse":[538,538,537,537,537,537,537,537,537,537,537,537,537,537,537,537,537,537,537,537,537,537,537,537,537,537,537,537,535,534,533,529,521,519,517,516,515,514,514,514,508,504,475,469,466,464,460,435,409,381,360,346,336,325,316,303,284,241,227,216,203,187,150,124,108,93],"timestamp_mouse":[15,40,56,76,95,116,136,157,177,195,215,236,255,276,296,316,336,357,376,396,415,437,456,477,496,516,535,556,575,595,615,637,655,676,695,716,736,756,775,795,815,837,856,875,895,916,936,956,975,996,1016,1036,1056,1075,1095,1116,1135,1156,1175,1195,1215,1236,1255,1275,1295,1316],"xSR":741.5,"ySR":458.25,"xT1":424.9,"yT1":0,"xT2":1058.1,"yT2":0,"toosoon":0,"cond_shown":"equaldotsize","ratio_trial":900,"smaller_num":"9","larger_num":"10","correct_side":1,"subjID":"Tomas Moreno Moreno 12","gender":"0","age":"9","school":"4"},{"start_time":1552314088267,"click_time":1552314089666,"finger_time":1552314089186,"fix_duration":900.5027117277534,"trial":49,"RT":919,"MT":480,"sideResp":1,"stimulus":"img/250/equaldotanddens/L/15_Ratio_250_L_12_R_3.png","xmouse":[769,769,769,769,769,769,769,769,769,769,769,769,769,769,769,769,769,769,769,769,769,769,769,769,769,769,769,769,769,769,769,769,769,769,769,769,769,769,769,769,769,769,769,767,747,722,713,705,695,669,650,639,629,623,621,621,618,606,590,563,555,548,543,533,498,476,475,475,479,485],"ymouse":[510,510,510,510,510,510,510,510,510,510,510,510,510,510,510,510,510,510,510,510,510,510,510,510,510,510,510,510,510,510,510,510,510,510,510,510,510,510,510,510,510,510,510,509,493,476,466,453,432,371,330,308,290,278,272,270,265,251,232,199,189,180,174,163,132,113,110,107,103,93],"timestamp_mouse":[18,41,59,80,99,119,138,160,180,198,219,239,259,278,298,319,338,359,380,399,418,439,460,478,499,518,540,559,578,599,619,640,658,678,700,720,739,759,780,798,819,839,858,879,898,919,938,959,978,999,1018,1039,1059,1080,1100,1118,1138,1159,1179,1198,1219,1239,1258,1278,1299,1318,1338,1358,1378,1398],"xSR":741.5,"ySR":458.25,"xT1":424.9,"yT1":0,"xT2":1058.1,"yT2":0,"toosoon":0,"cond_shown":"equaldotanddens","ratio_trial":250,"smaller_num":"3","larger_num":"12","correct_side":1,"subjID":"Tomas Moreno Moreno 12","gender":"0","age":"9","school":"4"},{"start_time":1552314090800,"click_time":1552314092005,"finger_time":1552314091726,"fix_duration":352.0876088447853,"trial":50,"RT":926,"MT":279,"sideResp":1,"stimulus":"img/500/randomdotsizeEA/L/5_Ratio_500_L_4_R_2.png","xmouse":[785,785,785,785,785,785,785,785,786,787,787,787,787,787,787,787,787,787,787,787,787,787,787,787,787,787,787,787,787,787,787,787,787,787,787,787,787,787,787,787,787,787,787,782,770,757,739,723,708,694,683,671,655,617,606,594,582,566,521,509,492],"ymouse":[523,523,523,523,523,523,523,523,523,523,523,523,523,523,523,523,523,523,523,523,523,523,523,523,523,523,523,523,523,523,523,523,523,523,523,523,523,523,523,523,523,523,523,510,494,478,456,441,428,415,403,390,373,333,317,297,276,248,180,151,91],"timestamp_mouse":[10,36,45,66,85,106,125,145,165,185,205,226,245,267,285,306,327,345,365,385,406,426,446,466,487,505,527,546,566,586,605,625,645,665,685,706,725,746,765,785,805,826,845,866,885,906,926,946,965,986,1006,1026,1046,1066,1085,1105,1125,1146,1166,1187,1205],"xSR":741.5,"ySR":458.25,"xT1":424.9,"yT1":0,"xT2":1058.1,"yT2":0,"toosoon":0,"cond_shown":"randomdotsizeEA","ratio_trial":500,"smaller_num":"2","larger_num":"4","correct_side":1,"subjID":"Tomas Moreno Moreno 12","gender":"0","age":"9","school":"4"},{"start_time":1552314094578,"click_time":1552314097085,"finger_time":1552314095585,"fix_duration":1451.9198516711685,"trial":51,"RT":1007,"MT":1500,"sideResp":2,"stimulus":"img/500/randomdotsizeEA/R/15_Ratio_500_L_1_R_2.png","xmouse":[797,797,797,797,797,797,797,797,797,797,797,797,797,797,797,797,797,797,797,797,797,797,797,797,797,797,797,797,797,797,797,797,797,797,797,797,797,797,797,797,797,797,797,797,797,797,797,797,797,780,738,711,690,677,670,667,662,654,645,635,634,634,634,634,634,634,634,634,634,634,634,634,634,634,634,634,634,637,641,654,662,667,674,683,697,704,711,719,728,755,782,803,827,851,902,923,936,954,969,996,1011,1016,1020,1026,1035,1036,1036,1036,1036,1028,1018,1014,1012,1012,1013,1019,1026,1032,1034,1037,1047,1056,1064,1071,1085,1090],"ymouse":[495,495,495,495,495,495,495,495,495,495,495,495,495,495,495,495,495,495,495,495,495,495,495,495,495,495,495,495,495,495,495,495,495,495,495,495,495,495,495,495,495,495,495,495,495,495,495,495,494,475,437,414,392,377,365,358,343,330,319,307,307,306,306,306,306,306,306,306,306,306,306,306,306,306,306,306,305,304,302,298,295,293,290,286,280,277,273,271,266,255,243,235,223,213,189,177,165,149,136,110,90,81,77,70,60,59,59,59,59,60,64,66,72,80,117,140,157,164,165,165,149,136,129,122,105,97],"timestamp_mouse":[10,27,47,68,89,107,128,148,169,187,207,229,247,269,289,308,328,347,368,388,409,429,448,467,487,509,527,548,568,588,607,628,648,669,687,707,728,747,769,787,808,827,847,869,888,907,928,947,968,987,1007,1027,1047,1067,1087,1108,1127,1147,1167,1187,1208,1227,1248,1267,1287,1307,1327,1348,1367,1387,1407,1429,1449,1469,1489,1509,1528,1548,1569,1587,1608,1629,1649,1669,1688,1707,1727,1747,1767,1787,1809,1827,1847,1867,1887,1907,1927,1948,1967,1988,2007,2027,2048,2067,2087,2107,2128,2148,2168,2188,2208,2228,2249,2269,2287,2307,2327,2347,2368,2388,2407,2427,2448,2467,2487,2507],"xSR":741.5,"ySR":458.25,"xT1":424.9,"yT1":0,"xT2":1058.1,"yT2":0,"toosoon":0,"cond_shown":"randomdotsizeEA","ratio_trial":500,"smaller_num":"1","larger_num":"2","correct_side":2,"subjID":"Tomas Moreno Moreno 12","gender":"0","age":"9","school":"4"},{"start_time":1552314099856,"click_time":1552314101347,"finger_time":1552314100746,"fix_duration":250,"trial":52,"RT":890,"MT":601,"sideResp":2,"stimulus":"img/250/randomdotsizeEA/R/12_Ratio_250_L_5_R_20.png","xmouse":[791,791,791,791,791,791,791,793,793,793,793,793,793,793,793,793,793,793,793,793,793,793,793,793,793,793,793,793,793,793,793,793,793,793,793,793,793,793,796,798,812,822,828,833,847,929,1017,1059,1085,1097,1109,1120,1122,1128,1138,1160,1166,1167,1168,1169,1169,1169,1169,1169,1169,1169,1164,1161,1160,1159,1159,1159,1159,1159,1155],"ymouse":[511,511,511,511,511,510,509,508,508,508,508,508,508,508,508,508,508,508,508,508,508,508,508,508,508,508,508,508,508,508,508,508,508,508,508,508,508,508,507,507,500,497,494,492,485,405,311,269,233,212,198,187,185,180,174,152,140,132,129,128,128,128,126,116,110,93,75,68,67,65,65,65,65,65,59],"timestamp_mouse":[12,40,51,70,89,109,129,150,169,190,209,231,250,269,290,310,331,350,369,391,411,429,449,469,491,510,531,550,569,589,610,631,650,670,689,709,731,749,771,790,809,829,850,870,890,910,929,949,970,989,1009,1029,1050,1069,1089,1110,1130,1149,1170,1189,1210,1229,1251,1269,1291,1309,1329,1349,1369,1390,1410,1429,1449,1469,1491],"xSR":741.5,"ySR":458.25,"xT1":424.9,"yT1":0,"xT2":1058.1,"yT2":0,"toosoon":0,"cond_shown":"randomdotsizeEA","ratio_trial":250,"smaller_num":"5","larger_num":"20","correct_side":2,"subjID":"Tomas Moreno Moreno 12","gender":"0","age":"9","school":"4"},{"start_time":1552314104086,"click_time":1552314107066,"finger_time":1552314105046,"fix_duration":1438.147916038235,"trial":53,"RT":960,"MT":2020,"sideResp":2,"stimulus":"img/900/randomdotsizeEA/L/4_Ratio_900_L_20_R_18.png","xmouse":[807,807,807,807,807,807,807,807,807,807,807,807,807,807,807,805,805,805,805,805,805,805,805,805,805,805,805,805,805,805,805,805,805,805,805,805,805,805,805,805,805,805,805,805,805,811,820,831,845,870,879,892,901,909,926,930,931,931,931,931,931,931,932,936,943,946,954,964,970,982,983,984,985,985,985,985,977,965,952,945,922,905,881,852,829,812,811,810,808,801,799,798,798,798,798,798,798,798,798,796,792,789,783,779,771,768,764,762,757,753,738,729,721,714,704,700,698,698,698,702,709,718,730,747,784,819,839,857,870,892,897,899,899,901,910,916,919,922,924,930,934,943,954,966,995,1007,1015,1027,1045,1093],"ymouse":[495,495,495,495,495,495,495,495,495,495,495,495,495,495,495,496,496,496,496,496,496,496,496,496,496,496,496,497,497,497,497,497,497,497,497,497,497,497,497,497,497,497,497,497,497,494,490,484,471,414,398,377,360,347,320,313,312,312,312,312,312,311,310,307,300,293,279,265,250,226,218,215,214,214,213,208,187,167,150,137,104,84,63,45,36,28,28,27,26,24,23,23,23,23,23,23,23,23,23,23,23,23,25,26,29,30,32,34,37,40,50,56,61,67,87,101,115,121,125,135,144,153,163,175,194,209,214,215,214,198,187,174,161,151,134,122,113,101,92,81,79,77,76,74,68,65,64,64,65,77],"timestamp_mouse":[2,21,40,61,79,100,121,140,159,180,199,221,240,260,279,300,319,339,359,380,400,420,441,460,480,500,519,540,559,581,600,619,639,659,680,699,720,741,760,779,800,819,841,861,879,900,919,940,960,980,999,1020,1040,1059,1080,1100,1119,1140,1160,1180,1199,1219,1239,1260,1280,1300,1320,1340,1360,1379,1399,1420,1440,1460,1479,1499,1519,1540,1560,1579,1600,1619,1640,1660,1679,1700,1719,1739,1761,1780,1799,1821,1839,1860,1879,1900,1919,1940,1960,1980,1999,2020,2040,2061,2080,2100,2120,2139,2159,2179,2199,2220,2239,2259,2279,2301,2320,2340,2360,2380,2399,2420,2441,2460,2480,2499,2519,2540,2560,2580,2599,2620,2640,2660,2680,2699,2720,2740,2760,2779,2799,2819,2840,2860,2880,2899,2919,2940,2959,2980],"xSR":741.5,"ySR":458.25,"xT1":424.9,"yT1":0,"xT2":1058.1,"yT2":0,"toosoon":0,"cond_shown":"randomdotsizeEA","ratio_trial":900,"smaller_num":"18","larger_num":"20","correct_side":1,"subjID":"Tomas Moreno Moreno 12","gender":"0","age":"9","school":"4"},{"start_time":1552314109170,"click_time":1552314110465,"finger_time":1552314110186,"fix_duration":943.1967020526469,"trial":54,"RT":1016,"MT":279,"sideResp":2,"stimulus":"img/900/equaldotsize/R/15_Ratio_900_L_9_R_10.png","xmouse":[788,788,788,788,788,788,788,788,788,788,788,788,788,788,788,788,788,788,788,788,788,788,788,788,788,788,788,788,788,788,788,788,788,788,788,788,788,788,788,788,788,788,788,788,788,790,793,801,810,823,864,908,923,928,931,934,938,945,953,969,982,998,1020,1040,1066],"ymouse":[496,496,496,496,496,496,496,496,496,496,496,496,496,496,496,496,496,496,496,496,496,496,496,496,496,496,496,496,496,496,496,496,496,496,496,496,496,496,496,496,496,496,496,496,496,495,493,486,476,460,402,328,283,250,214,209,203,196,188,167,147,133,119,103,85],"timestamp_mouse":[21,37,56,76,96,117,136,155,176,196,215,235,255,277,296,315,335,357,377,395,415,435,456,476,495,516,535,557,576,597,617,636,657,675,695,716,735,756,776,796,816,836,855,876,896,915,936,955,976,995,1016,1035,1056,1075,1095,1115,1135,1156,1176,1196,1215,1235,1255,1276,1295],"xSR":741.5,"ySR":458.25,"xT1":424.9,"yT1":0,"xT2":1058.1,"yT2":0,"toosoon":0,"cond_shown":"equaldotsize","ratio_trial":900,"smaller_num":"9","larger_num":"10","correct_side":2,"subjID":"Tomas Moreno Moreno 12","gender":"0","age":"9","school":"4"},{"start_time":1552314114089,"click_time":1552314115066,"finger_time":1552314114865,"fix_duration":821.7052658092084,"trial":55,"RT":776,"MT":201,"sideResp":2,"stimulus":"img/250/equaldotsize/R/13_Ratio_250_L_2_R_8.png","xmouse":[778,778,778,778,778,778,778,778,778,778,778,778,778,778,778,778,778,778,778,778,778,778,778,778,778,778,778,778,778,778,778,778,779,782,789,799,815,832,862,875,889,899,905,926,933,944,966,998,1087],"ymouse":[503,503,503,503,503,503,503,503,503,503,503,503,503,503,503,503,503,503,503,503,503,503,503,503,503,503,503,503,503,503,503,503,502,501,498,493,487,480,445,418,376,318,281,237,232,224,195,149,28],"timestamp_mouse":[16,40,56,76,96,116,136,156,177,196,217,236,258,277,296,316,336,356,376,398,416,437,458,476,496,517,537,557,577,597,617,636,657,676,697,716,737,757,776,796,817,836,856,877,896,916,937,957,976],"xSR":741.5,"ySR":458.25,"xT1":424.9,"yT1":0,"xT2":1058.1,"yT2":0,"toosoon":0,"cond_shown":"equaldotsize","ratio_trial":250,"smaller_num":"2","larger_num":"8","correct_side":2,"subjID":"Tomas Moreno Moreno 12","gender":"0","age":"9","school":"4"},{"start_time":1552314117439,"click_time":1552314118865,"finger_time":1552314118565,"fix_duration":851.7341934551528,"trial":56,"RT":1126,"MT":300,"sideResp":1,"stimulus":"img/500/equaldotanddens/L/10_Ratio_500_L_4_R_2.png","xmouse":[772,771,771,771,770,770,770,770,770,770,770,770,770,770,770,770,770,770,770,770,770,770,770,770,770,770,770,770,770,770,770,770,770,770,770,770,770,770,770,770,770,770,770,770,770,770,770,770,770,770,770,770,770,770,770,770,744,683,642,617,606,598,592,584,568,553,526,522,519,514,509,498],"ymouse":[501,501,501,501,502,502,502,502,502,502,502,502,502,502,502,502,502,502,502,502,502,502,502,502,502,502,502,502,502,502,502,502,502,502,502,502,502,502,502,502,502,502,502,502,502,502,502,502,502,502,502,502,502,502,502,494,438,363,310,272,249,220,204,190,170,154,131,126,120,114,104,90],"timestamp_mouse":[11,39,47,68,87,108,127,146,166,187,206,228,248,267,286,306,326,347,366,386,406,427,448,466,486,507,526,548,568,587,607,627,646,666,687,706,726,747,767,787,806,826,846,867,888,907,926,947,966,987,1006,1027,1046,1066,1086,1108,1126,1147,1166,1187,1206,1227,1246,1266,1286,1307,1326,1346,1366,1386,1407,1426],"xSR":741.5,"ySR":458.25,"xT1":424.9,"yT1":0,"xT2":1058.1,"yT2":0,"toosoon":0,"cond_shown":"equaldotanddens","ratio_trial":500,"smaller_num":"2","larger_num":"4","correct_side":1,"subjID":"Tomas Moreno Moreno 12","gender":"0","age":"9","school":"4"},{"start_time":1552314122197,"click_time":1552314123507,"finger_time":1552314123066,"fix_duration":628.2193963252956,"trial":57,"RT":869,"MT":441,"sideResp":1,"stimulus":"img/500/equaldotsize/L/5_Ratio_500_L_4_R_2.png","xmouse":[814,814,814,813,812,812,811,811,810,810,810,810,810,810,809,809,809,809,809,808,808,808,808,806,804,803,803,803,803,803,803,803,803,803,803,803,803,803,799,788,777,764,748,733,728,723,717,704,654,604,582,572,567,555,546,532,516,502,495,493,495,496,496,483,472,463],"ymouse":[540,540,540,540,540,540,540,540,540,540,540,540,540,540,540,540,540,540,540,539,539,539,539,539,538,538,538,538,538,538,538,538,538,538,538,538,538,537,532,521,512,503,491,475,465,453,440,420,368,323,301,285,271,248,236,222,207,193,181,169,163,157,147,116,103,93],"timestamp_mouse":[9,39,48,68,89,110,128,148,169,190,208,229,248,268,289,308,329,349,368,388,408,428,448,468,488,508,529,550,569,589,609,628,649,669,689,709,729,749,768,789,808,829,848,869,888,908,929,949,968,988,1008,1028,1048,1069,1088,1108,1129,1148,1168,1189,1208,1228,1248,1268,1288,1310],"xSR":741.5,"ySR":458.25,"xT1":424.9,"yT1":0,"xT2":1058.1,"yT2":0,"toosoon":0,"cond_shown":"equaldotsize","ratio_trial":500,"smaller_num":"2","larger_num":"4","correct_side":1,"subjID":"Tomas Moreno Moreno 12","gender":"0","age":"9","school":"4"},{"start_time":1552314125313,"click_time":1552314126366,"finger_time":1552314125965,"fix_duration":605.3017014948709,"trial":58,"RT":652,"MT":401,"sideResp":1,"stimulus":"img/250/equaldotanddens/L/3_Ratio_250_L_8_R_2.png","xmouse":[780,780,780,780,780,780,780,780,780,780,780,780,780,780,780,780,780,780,780,780,780,780,780,780,779,779,779,779,779,779,775,768,681,551,491,472,464,453,444,433,426,424,428,432,433,433,433,438,443,447,449,449,449],"ymouse":[517,517,517,517,517,517,517,517,517,517,517,517,517,517,517,517,517,517,517,517,517,517,517,517,517,517,517,517,517,517,511,499,395,293,251,234,224,205,194,182,173,170,165,161,157,151,146,138,135,131,124,113,94],"timestamp_mouse":[19,36,53,72,93,112,134,153,173,194,213,232,254,273,293,312,332,354,373,393,413,433,452,474,493,512,532,553,572,592,612,632,652,674,692,713,732,752,773,794,812,833,852,872,892,913,933,952,972,993,1014,1032,1053],"xSR":741.5,"ySR":458.25,"xT1":424.9,"yT1":0,"xT2":1058.1,"yT2":0,"toosoon":0,"cond_shown":"equaldotanddens","ratio_trial":250,"smaller_num":"2","larger_num":"8","correct_side":1,"subjID":"Tomas Moreno Moreno 12","gender":"0","age":"9","school":"4"},{"start_time":1552314128275,"click_time":1552314129546,"finger_time":1552314129005,"fix_duration":726.0087967986002,"trial":59,"RT":730,"MT":541,"sideResp":2,"stimulus":"img/250/equaldotsize/R/4_Ratio_250_L_3_R_12.png","xmouse":[780,780,780,780,780,780,780,780,780,780,780,780,780,780,780,780,780,780,780,780,780,780,780,780,780,780,780,780,780,786,789,795,800,807,819,827,835,847,864,893,904,913,919,924,939,948,958,963,968,972,974,976,979,981,984,992,999,1003,1009,1025,1035,1045,1054,1060],"ymouse":[497,497,497,497,497,497,497,497,497,497,497,497,497,497,497,497,497,497,497,497,497,497,497,497,497,497,497,497,497,494,493,489,487,484,477,467,458,446,430,392,361,332,309,294,270,250,226,210,194,178,173,172,169,168,166,161,157,153,146,127,117,108,99,90],"timestamp_mouse":[11,35,51,71,91,112,132,150,171,192,211,231,251,270,291,310,330,352,371,391,410,432,451,470,491,510,531,551,570,591,610,631,651,671,691,712,730,750,770,790,810,831,851,871,891,911,930,950,971,990,1011,1030,1050,1072,1091,1111,1130,1151,1171,1190,1210,1230,1250,1271],"xSR":741.5,"ySR":458.25,"xT1":424.9,"yT1":0,"xT2":1058.1,"yT2":0,"toosoon":0,"cond_shown":"equaldotsize","ratio_trial":250,"smaller_num":"3","larger_num":"12","correct_side":2,"subjID":"Tomas Moreno Moreno 12","gender":"0","age":"9","school":"4"},{"start_time":1552314133780,"click_time":1552314134766,"finger_time":1552314134546,"fix_duration":1071.2720252781576,"trial":60,"RT":766,"MT":220,"sideResp":1,"stimulus":"img/750/equaldotsize/L/6_Ratio_750_L_24_R_18.png","xmouse":[812,812,812,812,812,812,812,812,812,812,812,812,812,812,812,812,812,812,812,812,812,812,812,812,812,812,812,812,812,812,812,812,813,814,816,817,813,807,802,791,781,761,744,726,689,675,659,634,600,506],"ymouse":[534,534,534,534,534,534,534,534,534,534,534,534,534,534,534,534,534,534,534,534,534,534,534,534,534,534,534,534,534,534,534,534,533,533,531,521,485,466,448,412,390,354,330,307,263,243,223,194,156,71],"timestamp_mouse":[9,43,46,65,86,107,126,145,167,186,206,225,245,267,286,306,326,346,365,386,406,425,446,466,486,505,527,545,565,586,605,626,646,665,686,705,725,746,766,786,805,825,846,866,885,905,925,946,965,986],"xSR":741.5,"ySR":458.25,"xT1":424.9,"yT1":0,"xT2":1058.1,"yT2":0,"toosoon":0,"cond_shown":"equaldotsize","ratio_trial":750,"smaller_num":"18","larger_num":"24","correct_side":1,"subjID":"Tomas Moreno Moreno 12","gender":"0","age":"9","school":"4"},{"start_time":1552314137788,"click_time":1552314140966,"finger_time":1552314138605,"fix_duration":502.2504767599738,"trial":61,"RT":817,"MT":2361,"sideResp":2,"stimulus":"img/750/randomdotsizeEA/L/8_Ratio_750_L_4_R_3.png","xmouse":[778,778,778,778,778,778,778,778,778,778,778,778,778,778,778,778,779,779,779,779,779,779,779,779,779,779,779,779,779,779,779,779,779,779,779,779,779,778,762,743,733,729,724,700,680,650,630,614,610,610,610,610,610,610,610,612,613,613,613,613,613,613,613,615,616,616,616,616,616,616,616,616,616,616,616,616,616,616,616,616,616,616,616,616,616,616,616,616,616,616,616,616,616,616,616,616,616,616,620,631,640,650,656,667,672,676,678,683,694,706,716,730,742,765,776,788,801,815,838,855,868,881,890,894,898,901,905,908,911,917,921,924,926,934,939,945,950,953,959,960,963,967,969,976,978,980,981,985,992,1000,1007,1014,1020,1028,1030,1035,1041,1050,1084],"ymouse":[518,518,518,518,518,518,518,518,518,518,518,518,518,518,518,518,518,518,518,518,518,518,518,518,518,518,518,518,518,518,518,518,518,518,518,518,518,515,502,491,485,481,476,454,438,416,400,390,385,385,385,385,385,384,384,383,383,383,383,383,383,383,383,383,382,382,382,382,382,382,382,382,382,382,382,382,382,382,382,382,382,382,382,382,382,382,382,382,382,382,382,382,382,382,382,382,382,382,380,375,371,368,365,360,358,357,355,353,347,342,336,322,310,285,269,253,240,227,206,190,182,173,169,166,164,163,162,161,159,157,155,154,153,150,148,145,143,141,139,138,137,135,135,132,131,130,129,128,125,121,118,116,114,112,111,109,107,105,95],"timestamp_mouse":[18,41,58,77,98,118,137,158,179,197,218,237,258,279,298,318,338,357,378,397,418,437,458,478,497,517,537,557,578,598,617,638,658,677,698,718,737,758,777,798,817,838,857,877,897,918,938,957,977,998,101