[{"start_time":1552313102164,"click_time":1552313134649,"finger_time":1552313102174,"fix_duration":250,"trial":0,"RT":10,"MT":32475,"sideResp":2,"stimulus":[],"xmouse":[736,736,737,738,739,741,741,741,743,744,746,746,746,746,746,746,746,749,754,756,756,756,756,756,756,755,755,755,755,755,756,757,759,763,765,773,780,788,792,793,793,793,793,793,793,793,793,793,793,793,793,793,793,793,793,793,793,793,793,793,793,793,793,793,793,793,793,793,793,793,793,793,793,793,793,793,793,793,793,793,793,793,793,793,793,793,793,793,793,793,793,793,793,793,793,793,793,793,793,793,793,793,793,793,793,793,793,793,793,793,793,793,793,793,793,793,793,793,793,793,793,793,793,793,793,793,793,793,793,793,793,793,793,793,793,793,793,793,793,793,793,793,793,793,793,793,793,793,793,793,793,793,793,793,793,793,793,793,793,793,793,793,793,793,793,793,793,793,793,793,793,793,793,793,793,793,793,793,793,793,793,793,793,793,793,793,793,793,793,793,793,793,793,793,793,793,793,793,793,793,793,793,793,793,793,793,793,793,793,793,793,793,793,793,793,793,793,793,793,793,793,793,793,793,793,793,793,793,793,791,787,787,787,787,787,787,787,787,787,787,787,787,787,787,787,787,787,787,787,787,785,784,784,784,784,784,784,785,786,787,788,789,789,789,790,790,790,790,788,786,778,775,772,771,771,776,779,783,791,802,820,820,820,820,820,818,815,811,805,803,802,802,802,802,804,806,808,812,813,815,815,815,814,812,808,806,806,806,806,806,808,810,810,811,811,811,811,811,811,811,809,806,803,801,796,794,794,794,794,794,795,799,800,801,801,801,798,795,790,786,780,777,772,771,771,771,771,771,772,775,776,776,774,771,768,767,766,766,766,766,766,771,784,791,794,795,795,789,785,780,769,766,766,766,766,767,783,793,804,807,809,809,809,808,802,799,804,806,809,812,818,819,820,820,820,818,809,801,800,800,818,834,851,859,861,861,861,861,861,861,861,860,858,854,852,851,851,851,851,851,851,851,851,851,850,849,844,841,839,837,836,836,836,836,833,830,827,826,825,824,824,824,824,824,823,823,823,823,823,823,823,822,822,822,821,819,819,818,815,814,812,810,810,810,810,810,810,809,809,807,803,801,799,796,796,794,792,792,791,790,790,789,789,788,788,788,788,788,788,788,788,788,787,787,787,789,790,790,790,791,790,789,787,787,787,787,787,787,787,785,783,783,782,781,781,778,776,774,773,772,771,771,771,771,771,771,771,771,771,771,771,771,771,771,771,771,771,771,771,771,771,774,784,787,787,787,787,787,787,787,787,787,787,787,787,787,787,787,787,787,787,787,787,787,787,787,787,787,787,787,787,787,787,787,787,787,787,787,787,787,787,787,787,787,787,787,787,787,787,787,787,787,787,787,787,787,787,787,787,787,787,787,787,787,787,787,787,787,787,787,787,787,787,787,787,787,787,787,787,787,787,787,787,787,787,787,787,787,787,787,787,787,787,787,787,787,787,787,787,787,787,787,787,787,787,787,787,787,787,787,787,787,787,787,787,787,787,787,787,787,787,787,787,787,787,787,787,787,787,787,787,787,787,787,787,787,787,787,787,787,787,787,787,787,787,787,787,787,787,787,787,787,787,787,787,787,787,787,787,787,787,787,787,787,787,787,787,787,787,787,787,787,787,787,787,787,787,787,787,787,787,787,787,787,787,787,787,787,787,787,787,787,787,787,787,787,787,787,787,787,787,787,787,787,787,787,787,787,787,787,787,787,787,787,787,787,787,787,787,787,787,787,787,787,787,787,787,787,787,787,787,787,787,787,787,787,787,787,787,787,787,787,787,787,787,787,787,787,787,787,787,787,787,787,787,787,787,787,787,787,787,787,787,787,787,787,787,787,787,787,787,787,787,787,787,787,787,787,787,787,787,787,787,787,787,787,787,787,787,787,787,787,787,787,787,787,787,787,787,787,787,787,787,787,787,787,787,787,787,787,787,787,787,787,787,787,787,787,787,787,787,787,787,787,787,787,787,787,787,787,787,787,787,787,787,787,787,787,787,787,787,787,787,787,787,787,787,787,787,787,787,787,787,787,787,787,787,787,787,787,787,787,787,787,787,787,787,787,787,787,787,787,787,787,787,787,787,787,787,787,787,787,787,787,787,787,787,787,787,787,787,787,787,787,787,787,787,787,787,787,787,787,787,787,787,787,787,787,787,787,787,787,787,787,787,787,787,787,787,787,787,787,787,787,787,787,787,787,787,787,787,787,787,787,787,787,787,787,787,787,787,787,787,787,787,787,787,787,787,787,787,787,787,787,787,787,787,787,787,787,787,787,787,787,787,787,787,787,787,787,787,787,787,787,787,787,787,787,787,787,787,787,787,787,787,787,787,787,787,787,787,787,787,787,787,787,787,787,787,787,787,787,787,787,787,787,787,787,787,787,787,787,787,787,787,787,787,787,787,787,787,787,787,787,787,787,787,787,787,787,787,787,787,787,787,787,787,787,787,787,787,787,787,787,787,787,787,787,787,787,787,787,787,787,787,787,787,787,787,787,787,787,787,787,787,787,787,787,787,787,787,787,787,787,787,787,787,787,787,787,787,787,787,787,787,787,787,787,787,787,787,787,787,787,787,787,787,787,787,787,787,787,787,787,787,787,787,787,787,787,787,787,787,787,787,787,787,787,787,787,787,787,787,787,787,787,787,787,787,787,787,787,787,787,787,787,787,787,787,787,787,787,787,787,787,787,787,787,787,787,787,787,787,787,787,787,787,787,787,787,787,787,787,787,787,787,787,787,787,787,787,787,787,787,787,787,787,787,787,787,787,787,787,787,787,787,787,787,787,787,787,787,787,787,787,787,787,787,787,787,787,787,787,787,787,787,787,787,787,787,787,787,787,787,787,787,787,787,787,787,787,787,787,787,787,787,787,787,787,787,787,787,787,787,787,787,787,787,787,787,787,787,787,787,787,787,787,787,787,787,787,787,787,787,787,787,787,787,787,787,787,787,787,787,787,787,787,787,787,787,787,787,787,787,787,787,787,787,787,787,787,787,787,787,787,787,787,787,787,787,787,787,787,787,787,787,787,787,787,787,787,787,787,787,787,787,787,787,787,787,787,787,787,787,787,787,787,787,787,787,787,787,787,787,787,787,787,787,787,787,787,787,787,787,787,787,787,787,787,787,787,787,787,787,787,787,787,787,787,787,787,787,787,787,787,787,787,787,787,787,787,787,787,787,787,787,787,787,787,787,787,787,787,787,787,787,787,787,787,787,787,787,787,787,787,787,787,787,787,787,787,787,787,787,787,787,787,787,787,787,787,787,787,787,787,787,787,787,787,787,787,787,787,787,787,787,787,787,787,787,787,787,787,787,787,787,787,787,787,787,787,787,787,787,787,787,787,787,787,787,787,787,787,787,787,787,787,787,787,787,787,787,787,787,787,787,787,787,787,787,787,787,787,787,787,787,787,787,787,787,787,787,787,787,787,787,787,787,787,787,787,787,787,787,787,787,787,787,787,787,787,787,787,787,787,787,787,787,787,787,787,787,787,787,787,787,787,787,787,787,787,787,787,787,787,787,787,787,787,787,787,787,787,787,787,787,787,787,787,787,787,787,787,788,785,778,778,778,778,778,778,778,778,778,778,778,780,780,780,781,784,789,796,807,824,867,882,895,909,923,954,970,986,996,1000,1000,1004,1009,1015,1015,1015,1015,1015,1015,1014,1013,1019,1026,1031,1037,1041,1041,1044,1054,1059],"ymouse":[574,574,574,574,574,572,572,572,571,570,569,569,569,569,569,569,569,568,565,565,564,564,564,564,565,566,566,567,567,567,570,571,574,578,581,592,599,604,607,608,608,608,608,608,608,608,608,608,608,608,608,608,608,608,608,608,608,608,608,608,608,608,608,608,608,608,608,608,608,608,608,608,608,608,608,608,608,608,608,608,608,608,608,608,608,608,608,608,608,608,608,608,609,609,609,609,609,609,609,609,609,609,609,609,609,609,609,609,609,609,609,609,609,609,609,609,609,609,609,609,609,609,609,609,609,609,609,609,609,609,609,609,609,609,609,609,609,609,609,609,609,609,609,609,609,609,609,609,609,609,609,609,609,609,609,609,609,609,609,609,609,609,609,609,609,609,609,609,609,609,609,609,609,609,609,609,609,609,609,609,609,609,609,609,609,609,609,609,609,609,609,609,609,609,609,609,609,609,609,609,609,609,609,609,609,609,609,609,609,609,609,609,609,609,609,609,609,609,609,609,609,609,609,609,609,609,609,609,611,612,613,613,613,613,613,613,613,613,613,613,613,613,613,613,613,613,613,613,613,613,615,616,616,616,617,618,619,620,620,620,621,621,621,621,621,621,621,621,621,621,623,624,626,627,628,629,629,629,628,623,612,612,611,611,611,610,611,613,616,618,619,619,620,622,622,622,622,621,620,619,619,619,619,619,621,622,622,622,622,622,622,622,621,621,621,621,621,621,621,621,621,622,623,624,630,640,641,641,641,641,641,638,636,634,633,632,630,630,630,630,633,634,636,637,637,637,637,637,637,635,635,633,633,633,634,636,636,636,636,636,637,636,630,625,619,618,618,618,620,622,627,629,629,629,629,629,624,619,614,613,612,612,612,612,615,629,633,635,635,635,633,631,630,630,630,629,639,660,674,683,706,722,742,753,758,759,760,760,760,760,760,760,760,757,756,756,756,756,756,756,756,756,756,756,756,755,755,755,755,755,755,755,755,755,756,758,760,761,762,764,768,770,773,774,776,776,776,777,777,777,777,778,778,778,778,778,778,778,778,777,775,773,772,772,772,772,772,772,771,770,769,768,767,766,765,764,763,763,763,762,761,761,761,759,759,759,759,759,759,759,759,759,758,758,758,756,756,756,756,755,735,722,715,710,707,707,707,706,705,701,695,693,691,689,686,673,663,653,643,636,624,618,614,612,611,611,611,611,611,611,611,611,611,611,611,611,611,611,611,611,611,608,604,603,602,602,602,602,602,602,602,602,602,602,602,602,602,602,602,602,602,602,602,602,602,602,602,602,602,602,602,602,602,602,602,602,602,602,602,602,602,602,602,602,602,602,602,602,602,602,602,602,602,602,602,602,602,602,602,602,602,602,602,602,602,602,602,602,602,602,602,602,602,602,602,602,602,602,602,602,602,602,602,602,602,602,602,602,602,602,602,602,602,602,602,602,602,602,602,602,602,602,602,602,602,602,602,602,602,602,602,602,602,602,602,602,602,602,602,602,602,602,602,602,602,602,602,602,602,602,602,602,602,602,602,602,602,602,602,602,602,602,602,602,602,602,602,602,602,602,602,602,602,602,602,602,602,602,602,602,602,602,602,602,602,602,602,602,602,602,602,602,602,602,602,602,602,602,602,602,602,602,602,602,602,602,602,602,602,602,602,602,602,602,602,602,602,602,602,602,602,602,602,602,602,602,602,602,602,602,602,602,602,602,602,602,602,602,602,602,602,602,602,602,602,602,602,602,602,602,602,602,602,602,602,602,602,602,602,602,602,602,602,602,602,602,602,602,602,602,602,602,602,602,602,602,602,602,602,602,602,602,602,602,602,602,602,602,602,602,602,602,602,602,602,602,602,602,602,602,602,602,602,602,602,602,602,602,602,602,602,602,602,602,602,602,602,602,602,602,602,602,602,602,602,602,602,602,602,602,602,602,602,602,602,602,602,602,602,602,602,602,602,602,602,602,602,602,602,602,602,602,602,602,602,602,602,602,602,602,602,602,602,602,602,602,602,602,602,602,602,602,602,602,602,602,602,602,602,602,602,602,602,602,602,602,602,602,602,602,602,602,602,602,602,602,602,602,602,602,602,602,602,602,602,602,602,602,602,602,602,602,602,602,602,602,602,602,602,602,602,602,602,602,602,602,602,602,602,602,602,602,602,602,602,602,602,602,602,602,602,602,602,602,602,602,602,602,602,602,602,602,602,602,602,602,602,602,602,602,602,602,602,602,602,602,602,602,602,602,602,602,602,602,602,602,602,602,602,602,602,602,602,602,602,602,602,602,602,602,602,602,602,602,602,602,602,602,602,602,602,602,602,602,602,602,602,602,602,602,602,602,602,602,602,602,602,602,602,602,602,602,602,602,602,602,602,602,602,602,602,602,602,602,602,602,602,602,602,602,602,602,602,602,602,602,602,602,602,602,602,602,602,602,602,602,602,602,602,602,602,602,602,602,602,602,602,602,602,602,602,602,602,602,602,602,602,602,602,602,602,602,602,602,602,602,602,602,602,602,602,602,602,602,602,602,602,602,602,602,602,602,602,602,602,602,602,602,602,602,602,602,602,602,602,602,602,602,602,602,602,602,602,602,602,602,602,602,602,602,602,602,602,602,602,602,602,602,602,602,602,602,602,602,602,602,602,602,602,602,602,602,602,602,602,602,602,602,602,602,602,602,602,602,602,602,602,602,602,602,602,602,602,602,602,602,602,602,602,602,602,602,602,602,602,602,602,602,602,602,602,602,602,602,602,602,602,602,602,602,602,602,602,602,602,602,602,602,602,602,602,602,602,602,602,602,602,602,602,602,602,602,602,602,602,602,602,602,602,602,602,602,602,602,602,602,602,602,602,602,602,602,602,602,602,602,602,602,602,602,602,602,602,602,602,602,602,602,602,602,602,602,602,602,602,602,602,602,602,602,602,602,602,602,602,602,602,602,602,602,602,602,602,602,602,602,602,602,602,602,602,602,602,602,602,602,602,602,602,602,602,602,602,602,602,602,602,602,602,602,602,602,602,602,602,602,602,602,602,602,602,602,602,602,602,602,602,602,602,602,602,602,602,602,602,602,602,602,602,602,602,602,602,602,602,602,602,602,602,602,602,602,602,602,602,602,602,602,602,602,602,602,602,602,602,602,602,602,602,602,602,602,602,602,602,602,602,602,602,602,602,602,602,602,602,602,602,602,602,602,602,602,602,602,602,602,602,602,602,602,602,602,602,602,602,602,602,602,602,602,602,602,602,602,602,602,602,602,602,602,602,602,602,602,602,602,602,602,602,602,602,602,602,602,602,602,602,602,602,602,602,602,602,602,602,602,602,602,602,602,602,602,602,602,602,602,602,602,602,602,602,602,602,602,602,602,602,602,602,602,602,602,602,602,602,602,602,602,602,602,602,602,602,602,602,602,602,602,602,602,602,602,602,602,602,602,602,602,602,602,602,602,602,602,602,602,602,602,602,602,602,602,602,602,602,602,602,602,602,602,602,602,602,602,602,602,602,602,602,602,602,602,602,602,602,602,602,602,602,602,602,602,602,602,602,602,602,602,602,602,602,602,602,602,604,607,607,607,607,607,607,607,607,607,607,607,607,607,607,607,604,592,577,536,479,376,337,295,249,192,98,60,23,0,0,0,0,0,0,0,0,0,0,0,0,4,30,41,49,54,57,57,57,55,53],"timestamp_mouse":[10,23,43,63,84,104,124,143,165,185,203,224,245,265,284,303,324,343,364,384,404,424,444,463,485,505,523,544,564,584,604,624,644,664,684,703,724,744,764,783,803,824,844,865,883,904,924,943,964,984,1004,1023,1043,1064,1085,1104,1125,1143,1163,1185,1205,1223,1243,1265,1285,1303,1323,1343,1364,1384,1404,1425,1444,1464,1483,1504,1525,1545,1563,1584,1605,1625,1643,1664,1683,1705,1724,1745,1764,1785,1805,1825,1844,1865,1884,1905,1923,1945,1964,1983,2005,2023,2044,2064,2083,2103,2125,2144,2165,2185,2204,2223,2245,2263,2283,2303,2323,2344,2364,2383,2404,2424,2445,2463,2484,2503,2523,2545,2563,2584,2603,2625,2644,2664,2684,2705,2723,2743,2764,2784,2804,2825,2845,2863,2883,2905,2925,2944,2964,2984,3004,3024,3044,3065,3083,3104,3123,3145,3163,3184,3205,3224,3243,3263,3284,3303,3323,3344,3365,3384,3405,3425,3445,3463,3483,3504,3523,3544,3565,3583,3603,3623,3644,3663,3684,3704,3724,3745,3763,3784,3804,3823,3845,3865,3885,3904,3923,3943,3964,3984,4004,4023,4045,4064,4084,4105,4125,4145,4163,4184,4204,4224,4244,4265,4285,4304,4323,4345,4365,4384,4404,4425,4443,4465,4485,4504,4525,4543,4564,4583,4603,4625,4643,4664,4685,4704,4723,4745,4763,4783,4805,4825,4844,4864,4884,4903,4923,4943,4963,4985,5004,5025,5043,5064,5085,5103,5123,5144,5164,5184,5203,5223,5243,5263,5284,5305,5325,5344,5365,5384,5404,5425,5445,5463,5484,5504,5523,5544,5565,5585,5604,5623,5644,5664,5683,5703,5725,5744,5765,5783,5804,5823,5845,5864,5884,5904,5924,5944,5965,5984,6004,6023,6044,6063,6084,6105,6125,6143,6164,6185,6204,6223,6245,6264,6285,6304,6323,6344,6363,6384,6404,6425,6445,6463,6484,6504,6523,6543,6564,6584,6604,6625,6644,6663,6684,6705,6724,6744,6765,6784,6804,6825,6845,6863,6883,6904,6924,6943,6963,6984,7005,7025,7044,7064,7084,7103,7124,7145,7163,7184,7204,7224,7245,7264,7285,7303,7324,7344,7364,7384,7404,7424,7444,7463,7483,7504,7525,7544,7565,7584,7604,7625,7645,7664,7684,7704,7725,7744,7764,7785,7804,7824,7844,7864,7883,7904,7925,7944,7963,7984,8003,8023,8044,8065,8085,8104,8124,8143,8163,8184,8204,8224,8245,8265,8284,8304,8324,8343,8364,8385,8404,8425,8444,8463,8484,8504,8525,8544,8564,8585,8604,8624,8643,8664,8683,8703,8725,8744,8764,8784,8804,8825,8844,8865,8884,8904,8924,8943,8964,8984,9003,9025,9045,9063,9084,9103,9125,9144,9164,9184,9204,9224,9244,9265,9284,9304,9324,9345,9364,9385,9403,9424,9444,9464,9484,9503,9524,9544,9563,9583,9603,9624,9644,9663,9683,9703,9723,9743,9763,9783,9803,9824,9844,9864,9884,9903,9923,9943,9964,9984,10004,10024,10044,10063,10083,10105,10125,10145,10165,10185,10204,10223,10245,10264,10283,10303,10323,10345,10364,10384,10403,10425,10444,10463,10483,10505,10525,10543,10564,10584,10604,10623,10644,10665,10684,10703,10724,10745,10763,10784,10803,10824,10844,10863,10883,10905,10924,10945,10964,10985,11003,11024,11043,11064,11085,11104,11125,11144,11163,11183,11205,11223,11243,11265,11284,11304,11324,11344,11365,11384,11404,11425,11443,11464,11485,11505,11523,11543,11565,11585,11603,11623,11645,11664,11684,11704,11723,11744,11764,11785,11804,11825,11844,11863,11884,11904,11924,11945,11965,11984,12004,12024,12044,12063,12085,12104,12123,12144,12163,12184,12204,12225,12244,12263,12285,12304,12323,12344,12365,12384,12404,12423,12444,12464,12483,12503,12524,12545,12564,12583,12604,12624,12643,12664,12684,12704,12724,12744,12763,12785,12803,12823,12843,12863,12883,12905,12925,12944,12963,12983,13004,13025,13044,13065,13085,13105,13124,13144,13165,13183,13204,13225,13245,13264,13284,13305,13325,13344,13364,13384,13404,13425,13445,13465,13485,13504,13525,13543,13564,13583,13604,13625,13644,13665,13683,13705,13725,13745,13763,13783,13804,13825,13845,13865,13884,13904,13923,13944,13963,13984,14004,14023,14044,14065,14085,14103,14123,14145,14165,14184,14204,14223,14243,14264,14285,14304,14323,14344,14364,14383,14403,14423,14443,14465,14485,14504,14523,14543,14564,14584,14604,14623,14644,14664,14684,14704,14725,14744,14764,14784,14805,14825,14844,14864,14885,14904,14923,14945,14964,14985,15005,15023,15044,15064,15085,15104,15124,15143,15164,15184,15204,15225,15245,15265,15284,15304,15324,15344,15364,15384,15404,15423,15444,15463,15484,15504,15523,15544,15564,15584,15605,15625,15644,15664,15685,15704,15725,15744,15764,15784,15805,15823,15845,15865,15885,15903,15923,15944,15964,15983,16004,16025,16045,16064,16085,16104,16124,16144,16165,16184,16204,16223,16245,16264,16284,16304,16324,16344,16363,16384,16403,16423,16445,16465,16484,16504,16525,16545,16565,16585,16603,16625,16644,16664,16684,16705,16725,16744,16764,16783,16805,16824,16845,16864,16884,16905,16925,16944,16963,16984,17005,17025,17043,17064,17083,17103,17125,17144,17165,17184,17204,17225,17244,17264,17284,17305,17324,17345,17365,17385,17405,17423,17444,17464,17484,17504,17524,17545,17563,17585,17603,17625,17644,17664,17683,17704,17725,17745,17764,17784,17804,17824,17844,17864,17883,17905,17925,17944,17963,17985,18004,18023,18045,18065,18085,18104,18124,18144,18164,18185,18205,18224,18243,18264,18285,18305,18324,18343,18364,18384,18405,18425,18445,18465,18484,18505,18524,18543,18565,18584,18603,18625,18644,18663,18684,18705,18723,18743,18764,18785,18803,18823,18844,18864,18883,18904,18924,18945,18965,18984,19004,19024,19045,19064,19084,19104,19124,19145,19165,19184,19205,19225,19244,19263,19284,19305,19325,19345,19365,19384,19404,19425,19445,19464,19484,19504,19525,19545,19563,19584,19603,19624,19643,19664,19684,19705,19724,19745,19764,19785,19803,19823,19844,19864,19884,19905,19925,19943,19963,19983,20005,20024,20045,20064,20083,20104,20125,20145,20164,20184,20203,20223,20245,20263,20283,20304,20323,20345,20364,20384,20405,20424,20445,20464,20484,20503,20525,20544,20565,20584,20605,20625,20643,20665,20685,20703,20723,20743,20764,20785,20803,20824,20844,20865,20884,20905,20924,20943,20964,20983,21005,21023,21043,21065,21084,21105,21123,21143,21165,21183,21203,21223,21243,21265,21285,21304,21325,21344,21365,21384,21404,21424,21443,21463,21485,21504,21524,21543,21563,21585,21603,21625,21643,21665,21683,21704,21725,21745,21763,21784,21804,21825,21844,21864,21885,21905,21923,21944,21963,21985,22005,22023,22045,22064,22083,22105,22125,22143,22165,22184,22203,22223,22244,22263,22284,22303,22325,22344,22364,22384,22404,22424,22443,22464,22485,22504,22523,22545,22563,22584,22604,22623,22645,22663,22683,22704,22724,22745,22764,22783,22805,22823,22843,22863,22883,22904,22923,22945,22964,22983,23004,23023,23043,23063,23083,23105,23125,23144,23164,23183,23204,23224,23243,23265,23285,23305,23324,23344,23365,23385,23404,23424,23443,23464,23484,23505,23525,23545,23564,23584,23605,23625,23645,23663,23685,23705,23723,23743,23764,23784,23803,23825,23844,23863,23884,23904,23925,23945,23963,23983,24004,24023,24044,24064,24083,24104,24124,24144,24164,24184,24204,24223,24244,24264,24284,24305,24325,24344,24365,24383,24405,24424,24444,24464,24483,24503,24525,24545,24564,24584,24605,24625,24643,24663,24685,24705,24723,24743,24763,24785,24803,24823,24844,24865,24884,24904,24925,24945,24964,24984,25003,25024,25045,25064,25083,25104,25125,25145,25163,25184,25204,25225,25245,25264,25285,25304,25323,25343,25365,25384,25404,25425,25444,25464,25485,25504,25525,25545,25563,25584,25605,25624,25643,25664,25685,25704,25724,25744,25763,25784,25803,25825,25845,25865,25884,25904,25923,25944,25965,25985,26003,26025,26044,26063,26084,26103,26125,26143,26163,26184,26204,26224,26245,26264,26284,26305,26325,26345,26363,26383,26404,26423,26444,26464,26505,26505,26523,26544,26563,26584,26605,26623,26643,26664,26684,26703,26723,26744,26764,26783,26805,26824,26845,26864,26883,26903,26925,26944,26965,26984,27003,27025,27044,27064,27085,27105,27124,27144,27165,27185,27203,27224,27243,27265,27284,27303,27323,27343,27364,27384,27405,27423,27444,27463,27485,27503,27524,27543,27565,27585,27603,27624,27645,27665,27683,27704,27725,27743,27765,27784,27805,27824,27844,27863,27883,27904,27924,27945,27965,27985,28004,28025,28045,28063,28083,28104,28124,28145,28164,28184,28204,28224,28244,28265,28284,28304,28323,28344,28363,28385,28404,28423,28444,28463,28484,28504,28525,28545,28564,28585,28604,28623,28644,28663,28685,28705,28723,28743,28764,28784,28804,28823,28844,28863,28885,28904,28923,28944,28963,28984,29005,29023,29045,29064,29085,29104,29123,29144,29163,29184,29205,29223,29243,29264,29284,29305,29323,29344,29364,29383,29405,29425,29444,29463,29484,29504,29523,29543,29563,29584,29605,29625,29643,29664,29685,29705,29725,29745,29764,29784,29804,29825,29845,29865,29885,29903,29923,29944,29963,29985,30005,30023,30043,30064,30084,30105,30125,30143,30164,30185,30204,30223,30245,30264,30285,30304,30324,30344,30365,30383,30404,30425,30445,30464,30484,30505,30524,30544,30563,30583,30603,30625,30643,30665,30683,30704,30725,30744,30765,30783,30803,30825,30844,30864,30884,30905,30924,30943,30964,30984,31003,31025,31044,31065,31084,31105,31124,31144,31163,31183,31205,31225,31245,31263,31285,31304,31324,31345,31363,31384,31403,31424,31445,31464,31484,31504,31523,31543,31565,31584,31604,31624,31643,31665,31685,31704,31725,31744,31764,31784,31803,31823,31845,31864,31885,31903,31925,31943,31963,31984,32005,32024,32044,32064,32084,32105,32124,32143,32164,32185,32205,32223,32244,32263,32284,32304,32324,32345,32365,32384,32404,32424,32445,32464,32484],"xSR":741.5,"ySR":490.1,"xT1":424.9,"yT1":0,"xT2":1058.1,"yT2":0,"toosoon":0,"cond_shown":"Incongruent","ratio_trial":300,"L_num":1,"L_den":2,"R_num":2,"R_den":10,"correct_side":1,"subjID":"Tomas Moreno Moreno  12","gender":"0","age":"9 años","school":"4","test":{"fix_dur":[250,1500],"timestim":1000,"targets_dim":[100,100],"targets_relative_coord":[0.3,0.7],"size_stim":[880,420],"start_dim":[100,100],"size_start":[300,300],"size_fix":60,"samplingrate":20,"img_types":["Congruent","Incongruent"],"ratios":[100,200,300],"rep_conds":19,"nTrials":120,"trials_to_rest":500,"Trials_order":[53,84,70,97,83,17,1,33,20,95,7,89,65,93,22,41,107,88,96,101,86,105,23,106,31,98,0,80,18,66,82,73,113,64,38,40,45,55,68,67,50,81,34,27,43,25,79,58,78,19,94,28,13,57,59,35,9,46,5,11,3,21,61,114,75,119,48,49,2,108,30,51,26,6,47,37,12,115,36,52,109,60,62,100,4,63,85,112,92,90,54,32,44,39,71,74,91,103,15,16,29,110,117,8,10,72,111,76,102,69,104,77,42,56,116,87,118,99,24,14],"cond_shown":["Incongruent","Congruent","Congruent","Incongruent","Incongruent","Incongruent","Incongruent","Incongruent","Congruent","Incongruent","Incongruent","Incongruent","Incongruent","Incongruent","Congruent","Incongruent","Incongruent","Congruent","Congruent","Incongruent","Congruent","Incongruent","Incongruent","Congruent","Incongruent","Congruent","Congruent","Congruent","Congruent","Congruent","Congruent","Incongruent","Incongruent","Congruent","Congruent","Congruent","Incongruent","Incongruent","Congruent","Incongruent","Congruent","Incongruent","Congruent","Incongruent","Incongruent","Incongruent","Incongruent","Congruent","Congruent","Incongruent","Congruent","Congruent","Incongruent","Incongruent","Incongruent","Incongruent","Incongruent","Congruent","Incongruent","Incongruent","Incongruent","Incongruent","Incongruent","Congruent","Incongruent","Incongruent","Congruent","Incongruent","Congruent","Congruent","Congruent","Incongruent","Congruent","Congruent","Incongruent","Incongruent","Congruent","Incongruent","Congruent","Congruent","Incongruent","Congruent","Congruent","Congruent","Congruent","Incongruent","Incongruent","Congruent","Congruent","Congruent","Congruent","Congruent","Congruent","Incongruent","Incongruent","Congruent","Incongruent","Incongruent","Incongruent","Congruent","Incongruent","Congruent","Incongruent","Congruent","Congruent","Congruent","Incongruent","Congruent","Congruent","Incongruent","Congruent","Incongruent","Congruent","Congruent","Congruent","Incongruent","Congruent","Incongruent","Congruent","Congruent"],"ratio_trial":[300,100,300,100,300,300,100,200,200,300,100,300,300,200,300,300,300,300,100,300,200,200,300,300,100,200,100,200,100,100,300,100,300,300,200,300,200,100,200,100,200,200,300,200,100,100,100,300,100,100,300,300,100,200,300,300,200,300,300,300,200,200,100,100,200,300,100,100,200,100,100,200,200,100,300,100,100,100,100,300,100,100,200,300,300,200,100,300,200,100,100,200,200,200,300,200,100,100,200,300,300,200,200,200,300,100,200,300,100,200,200,300,100,200,200,200,300,200,100,200],"left_num":[1,1,3,9,13,1,6,7,6,13,8,1,4,7,1,4,7,11,7,13,13,1,13,1,3,9,8,4,11,3,7,1,13,3,8,2,14,8,3,9,1,4,1,3,12,11,3,4,8,6,20,20,9,7,7,4,7,11,13,4,6,7,9,3,7,13,2,12,3,3,9,4,12,2,4,6,7,12,12,11,10,6,7,12,11,7,9,4,6,10,8,9,3,1,13,12,2,4,3,3,4,12,4,6,24,9,4,4,4,1,3,13,3,6,7,14,20,7,3,21],"right_num":[2,3,4,14,12,2,3,6,3,12,1,2,2,6,19,2,8,1,9,12,14,2,12,8,8,13,2,3,6,2,20,8,12,11,3,10,12,6,7,6,21,6,19,1,9,9,4,13,2,3,13,13,13,8,8,2,14,4,12,8,3,6,14,2,4,12,11,9,14,4,8,14,6,11,6,13,15,9,13,1,8,5,18,2,4,12,6,1,3,3,2,13,14,2,12,6,8,8,1,11,2,6,1,7,8,8,1,1,6,3,7,12,2,3,18,6,9,14,4,2],"left_den":[2,2,6,15,26,2,12,15,15,26,20,2,20,15,3,20,10,22,14,26,26,3,26,30,5,30,16,10,22,6,14,2,26,12,15,20,30,16,10,18,2,5,3,10,24,22,6,20,16,12,25,25,15,10,10,20,10,22,26,5,20,15,15,6,15,26,5,24,6,20,15,6,20,5,5,10,14,24,30,22,25,20,15,24,22,10,18,10,15,25,16,30,10,3,26,20,4,8,10,12,20,20,30,12,30,15,30,10,8,2,10,26,6,15,15,30,25,10,20,30],"right_den":[10,5,5,28,15,10,5,9,15,15,2,10,4,9,30,4,20,5,15,15,20,15,15,24,16,26,5,15,15,5,25,20,15,20,9,25,18,10,14,10,30,10,30,2,15,15,10,26,5,5,26,26,26,16,20,4,28,20,15,16,6,9,28,5,6,15,22,15,20,16,16,30,15,22,12,26,25,15,26,5,16,25,27,10,20,24,10,10,15,10,5,26,28,15,15,15,20,20,2,20,4,15,3,10,16,16,3,10,10,10,14,15,5,15,27,9,18,28,16,4],"correct_side":[1,2,2,1,2,1,2,2,1,2,2,1,2,2,2,2,1,1,2,2,2,1,2,2,1,2,1,1,1,1,2,1,2,2,1,2,2,2,2,2,2,1,2,2,2,2,1,2,1,2,1,1,1,1,1,2,1,1,2,1,2,2,1,1,2,2,2,2,2,2,1,1,1,2,1,1,2,2,2,1,2,1,2,1,1,1,2,1,1,1,1,2,2,1,2,1,1,1,2,2,2,1,2,2,1,1,2,1,2,1,2,2,1,1,2,2,1,1,2,1],"img_shown":["img2/300/Incongruent/L/I_Dist_300_LN_1_LD_2_RN_2_RD_10_0.png","img2/100/Congruent/R/C_Dist_100_LN_1_LD_2_RN_3_RD_5_1.png","img2/300/Congruent/R/C_Dist_300_LN_3_LD_6_RN_4_RD_5_1.png","img2/100/Incongruent/L/I_Dist_100_LN_9_LD_15_RN_14_RD_28_0.png","img2/300/Incongruent/R/I_Dist_300_LN_13_LD_26_RN_12_RD_15_1.png","img2/300/Incongruent/L/I_Dist_300_LN_1_LD_2_RN_2_RD_10_0.png","img2/100/Incongruent/R/I_Dist_100_LN_6_LD_12_RN_3_RD_5_1.png","img2/200/Incongruent/R/I_Dist_200_LN_7_LD_15_RN_6_RD_9_1.png","img2/200/Congruent/L/C_Dist_200_LN_6_LD_15_RN_3_RD_15_0.png","img2/300/Incongruent/R/I_Dist_300_LN_13_LD_26_RN_12_RD_15_1.png","img2/100/Incongruent/R/I_Dist_100_LN_8_LD_20_RN_1_RD_2_1.png","img2/300/Incongruent/L/I_Dist_300_LN_1_LD_2_RN_2_RD_10_0.png","img2/300/Incongruent/R/I_Dist_300_LN_4_LD_20_RN_2_RD_4_1.png","img2/200/Incongruent/R/I_Dist_200_LN_7_LD_15_RN_6_RD_9_1.png","img2/300/Congruent/R/C_Dist_300_LN_1_LD_3_RN_19_RD_30_1.png","img2/300/Incongruent/R/I_Dist_300_LN_4_LD_20_RN_2_RD_4_1.png","img2/300/Incongruent/L/I_Dist_300_LN_7_LD_10_RN_8_RD_20_0.png","img2/300/Congruent/L/C_Dist_300_LN_11_LD_22_RN_1_RD_5_0.png","img2/100/Congruent/R/C_Dist_100_LN_7_LD_14_RN_9_RD_15_1.png","img2/300/Incongruent/R/I_Dist_300_LN_13_LD_26_RN_12_RD_15_1.png","img2/200/Congruent/R/C_Dist_200_LN_13_LD_26_RN_14_RD_20_1.png","img2/200/Incongruent/L/I_Dist_200_LN_1_LD_3_RN_2_RD_15_0.png","img2/300/Incongruent/R/I_Dist_300_LN_13_LD_26_RN_12_RD_15_1.png","img2/300/Congruent/R/C_Dist_300_LN_1_LD_30_RN_8_RD_24_1.png","img2/100/Incongruent/L/I_Dist_100_LN_3_LD_5_RN_8_RD_16_0.png","img2/200/Congruent/R/C_Dist_200_LN_9_LD_30_RN_13_RD_26_1.png","img2/100/Congruent/L/C_Dist_100_LN_8_LD_16_RN_2_RD_5_0.png","img2/200/Congruent/L/C_Dist_200_LN_4_LD_10_RN_3_RD_15_0.png","img2/100/Congruent/L/C_Dist_100_LN_11_LD_22_RN_6_RD_15_0.png","img2/100/Congruent/L/C_Dist_100_LN_3_LD_6_RN_2_RD_5_0.png","img2/300/Congruent/R/C_Dist_300_LN_7_LD_14_RN_20_RD_25_1.png","img2/100/Incongruent/L/I_Dist_100_LN_1_LD_2_RN_8_RD_20_0.png","img2/300/Incongruent/R/I_Dist_300_LN_13_LD_26_RN_12_RD_15_1.png","img2/300/Congruent/R/C_Dist_300_LN_3_LD_12_RN_11_RD_20_1.png","img2/200/Congruent/L/C_Dist_200_LN_8_LD_15_RN_3_RD_9_0.png","img2/300/Congruent/R/C_Dist_300_LN_2_LD_20_RN_10_RD_25_1.png","img2/200/Incongruent/R/I_Dist_200_LN_14_LD_30_RN_12_RD_18_1.png","img2/100/Incongruent/R/I_Dist_100_LN_8_LD_16_RN_6_RD_10_1.png","img2/200/Congruent/R/C_Dist_200_LN_3_LD_10_RN_7_RD_14_1.png","img2/100/Incongruent/R/I_Dist_100_LN_9_LD_18_RN_6_RD_10_1.png","img2/200/Congruent/R/C_Dist_200_LN_1_LD_2_RN_21_RD_30_1.png","img2/200/Incongruent/L/I_Dist_200_LN_4_LD_5_RN_6_RD_10_0.png","img2/300/Congruent/R/C_Dist_300_LN_1_LD_3_RN_19_RD_30_1.png","img2/200/Incongruent/R/I_Dist_200_LN_3_LD_10_RN_1_RD_2_1.png","img2/100/Incongruent/R/I_Dist_100_LN_12_LD_24_RN_9_RD_15_1.png","img2/100/Incongruent/R/I_Dist_100_LN_11_LD_22_RN_9_RD_15_1.png","img2/100/Incongruent/L/I_Dist_100_LN_3_LD_6_RN_4_RD_10_0.png","img2/300/Congruent/R/C_Dist_300_LN_4_LD_20_RN_13_RD_26_1.png","img2/100/Congruent/L/C_Dist_100_LN_8_LD_16_RN_2_RD_5_0.png","img2/100/Incongruent/R/I_Dist_100_LN_6_LD_12_RN_3_RD_5_1.png","img2/300/Congruent/L/C_Dist_300_LN_20_LD_25_RN_13_RD_26_0.png","img2/300/Congruent/L/C_Dist_300_LN_20_LD_25_RN_13_RD_26_0.png","img2/100/Incongruent/L/I_Dist_100_LN_9_LD_15_RN_13_RD_26_0.png","img2/200/Incongruent/L/I_Dist_200_LN_7_LD_10_RN_8_RD_16_0.png","img2/300/Incongruent/L/I_Dist_300_LN_7_LD_10_RN_8_RD_20_0.png","img2/300/Incongruent/R/I_Dist_300_LN_4_LD_20_RN_2_RD_4_1.png","img2/200/Incongruent/L/I_Dist_200_LN_7_LD_10_RN_14_RD_28_0.png","img2/300/Congruent/L/C_Dist_300_LN_11_LD_22_RN_4_RD_20_0.png","img2/300/Incongruent/R/I_Dist_300_LN_13_LD_26_RN_12_RD_15_1.png","img2/300/Incongruent/L/I_Dist_300_LN_4_LD_5_RN_8_RD_16_0.png","img2/200/Incongruent/R/I_Dist_200_LN_6_LD_20_RN_3_RD_6_1.png","img2/200/Incongruent/R/I_Dist_200_LN_7_LD_15_RN_6_RD_9_1.png","img2/100/Incongruent/L/I_Dist_100_LN_9_LD_15_RN_14_RD_28_0.png","img2/100/Congruent/L/C_Dist_100_LN_3_LD_6_RN_2_RD_5_0.png","img2/200/Incongruent/R/I_Dist_200_LN_7_LD_15_RN_4_RD_6_1.png","img2/300/Incongruent/R/I_Dist_300_LN_13_LD_26_RN_12_RD_15_1.png","img2/100/Congruent/R/C_Dist_100_LN_2_LD_5_RN_11_RD_22_1.png","img2/100/Incongruent/R/I_Dist_100_LN_12_LD_24_RN_9_RD_15_1.png","img2/200/Congruent/R/C_Dist_200_LN_3_LD_6_RN_14_RD_20_1.png","img2/100/Congruent/R/C_Dist_100_LN_3_LD_20_RN_4_RD_16_1.png","img2/100/Congruent/L/C_Dist_100_LN_9_LD_15_RN_8_RD_16_0.png","img2/200/Incongruent/L/I_Dist_200_LN_4_LD_6_RN_14_RD_30_0.png","img2/200/Congruent/L/C_Dist_200_LN_12_LD_20_RN_6_RD_15_0.png","img2/100/Congruent/R/C_Dist_100_LN_2_LD_5_RN_11_RD_22_1.png","img2/300/Incongruent/L/I_Dist_300_LN_4_LD_5_RN_6_RD_12_0.png","img2/100/Incongruent/L/I_Dist_100_LN_6_LD_10_RN_13_RD_26_0.png","img2/100/Congruent/R/C_Dist_100_LN_7_LD_14_RN_15_RD_25_1.png","img2/100/Incongruent/R/I_Dist_100_LN_12_LD_24_RN_9_RD_15_1.png","img2/100/Congruent/R/C_Dist_100_LN_12_LD_30_RN_13_RD_26_1.png","img2/300/Congruent/L/C_Dist_300_LN_11_LD_22_RN_1_RD_5_0.png","img2/100/Incongruent/R/I_Dist_100_LN_10_LD_25_RN_8_RD_16_1.png","img2/100/Congruent/L/C_Dist_100_LN_6_LD_20_RN_5_RD_25_0.png","img2/200/Congruent/R/C_Dist_200_LN_7_LD_15_RN_18_RD_27_1.png","img2/300/Congruent/L/C_Dist_300_LN_12_LD_24_RN_2_RD_10_0.png","img2/300/Congruent/L/C_Dist_300_LN_11_LD_22_RN_4_RD_20_0.png","img2/200/Incongruent/L/I_Dist_200_LN_7_LD_10_RN_12_RD_24_0.png","img2/100/Incongruent/R/I_Dist_100_LN_9_LD_18_RN_6_RD_10_1.png","img2/300/Congruent/L/C_Dist_300_LN_4_LD_10_RN_1_RD_10_0.png","img2/200/Congruent/L/C_Dist_200_LN_6_LD_15_RN_3_RD_15_0.png","img2/100/Congruent/L/C_Dist_100_LN_10_LD_25_RN_3_RD_10_0.png","img2/100/Congruent/L/C_Dist_100_LN_8_LD_16_RN_2_RD_5_0.png","img2/200/Congruent/R/C_Dist_200_LN_9_LD_30_RN_13_RD_26_1.png","img2/200/Congruent/R/C_Dist_200_LN_3_LD_10_RN_14_RD_28_1.png","img2/200/Incongruent/L/I_Dist_200_LN_1_LD_3_RN_2_RD_15_0.png","img2/300/Incongruent/R/I_Dist_300_LN_13_LD_26_RN_12_RD_15_1.png","img2/200/Congruent/L/C_Dist_200_LN_12_LD_20_RN_6_RD_15_0.png","img2/100/Incongruent/L/I_Dist_100_LN_2_LD_4_RN_8_RD_20_0.png","img2/100/Incongruent/L/I_Dist_100_LN_4_LD_8_RN_8_RD_20_0.png","img2/200/Incongruent/R/I_Dist_200_LN_3_LD_10_RN_1_RD_2_1.png","img2/300/Congruent/R/C_Dist_300_LN_3_LD_12_RN_11_RD_20_1.png","img2/300/Incongruent/R/I_Dist_300_LN_4_LD_20_RN_2_RD_4_1.png","img2/200/Congruent/L/C_Dist_200_LN_12_LD_20_RN_6_RD_15_0.png","img2/200/Incongruent/R/I_Dist_200_LN_4_LD_30_RN_1_RD_3_1.png","img2/200/Congruent/R/C_Dist_200_LN_6_LD_12_RN_7_RD_10_1.png","img2/300/Congruent/L/C_Dist_300_LN_24_LD_30_RN_8_RD_16_0.png","img2/100/Congruent/L/C_Dist_100_LN_9_LD_15_RN_8_RD_16_0.png","img2/200/Incongruent/R/I_Dist_200_LN_4_LD_30_RN_1_RD_3_1.png","img2/300/Congruent/L/C_Dist_300_LN_4_LD_10_RN_1_RD_10_0.png","img2/100/Congruent/R/C_Dist_100_LN_4_LD_8_RN_6_RD_10_1.png","img2/200/Incongruent/L/I_Dist_200_LN_1_LD_2_RN_3_RD_10_0.png","img2/200/Congruent/R/C_Dist_200_LN_3_LD_10_RN_7_RD_14_1.png","img2/300/Incongruent/R/I_Dist_300_LN_13_LD_26_RN_12_RD_15_1.png","img2/100/Congruent/L/C_Dist_100_LN_3_LD_6_RN_2_RD_5_0.png","img2/200/Congruent/L/C_Dist_200_LN_6_LD_15_RN_3_RD_15_0.png","img2/200/Congruent/R/C_Dist_200_LN_7_LD_15_RN_18_RD_27_1.png","img2/200/Incongruent/R/I_Dist_200_LN_14_LD_30_RN_6_RD_9_1.png","img2/300/Congruent/L/C_Dist_300_LN_20_LD_25_RN_9_RD_18_0.png","img2/200/Incongruent/L/I_Dist_200_LN_7_LD_10_RN_14_RD_28_0.png","img2/100/Congruent/R/C_Dist_100_LN_3_LD_20_RN_4_RD_16_1.png","img2/200/Congruent/L/C_Dist_200_LN_21_LD_30_RN_2_RD_4_0.png"],"dist100_C":[["C_Dist_100_LN_10_LD_25_RN_3_RD_10_0.png","C_Dist_100_LN_11_LD_22_RN_4_RD_10_0.png","C_Dist_100_LN_11_LD_22_RN_6_RD_15_0.png","C_Dist_100_LN_15_LD_25_RN_13_RD_26_0.png","C_Dist_100_LN_3_LD_6_RN_2_RD_5_0.png","C_Dist_100_LN_6_LD_20_RN_5_RD_25_0.png","C_Dist_100_LN_8_LD_16_RN_2_RD_5_0.png","C_Dist_100_LN_9_LD_15_RN_8_RD_16_0.png"],["C_Dist_100_LN_1_LD_2_RN_18_RD_30_1.png","C_Dist_100_LN_1_LD_2_RN_3_RD_5_1.png","C_Dist_100_LN_12_LD_30_RN_13_RD_26_1.png","C_Dist_100_LN_2_LD_5_RN_11_RD_22_1.png","C_Dist_100_LN_2_LD_5_RN_6_RD_12_1.png","C_Dist_100_LN_3_LD_20_RN_4_RD_16_1.png","C_Dist_100_LN_4_LD_10_RN_15_RD_30_1.png","C_Dist_100_LN_4_LD_8_RN_6_RD_10_1.png","C_Dist_100_LN_6_LD_12_RN_15_RD_25_1.png","C_Dist_100_LN_7_LD_14_RN_15_RD_25_1.png","C_Dist_100_LN_7_LD_14_RN_9_RD_15_1.png"]],"dist100_I":[["I_Dist_100_LN_1_LD_2_RN_8_RD_20_0.png","I_Dist_100_LN_2_LD_4_RN_6_RD_15_0.png","I_Dist_100_LN_2_LD_4_RN_8_RD_20_0.png","I_Dist_100_LN_3_LD_5_RN_11_RD_22_0.png","I_Dist_100_LN_3_LD_5_RN_8_RD_16_0.png","I_Dist_100_LN_3_LD_6_RN_4_RD_10_0.png","I_Dist_100_LN_3_LD_9_RN_7_RD_30_0.png","I_Dist_100_LN_4_LD_8_RN_8_RD_20_0.png","I_Dist_100_LN_6_LD_10_RN_11_RD_22_0.png","I_Dist_100_LN_6_LD_10_RN_13_RD_26_0.png","I_Dist_100_LN_6_LD_10_RN_7_RD_14_0.png","I_Dist_100_LN_9_LD_10_RN_20_RD_25_0.png","I_Dist_100_LN_9_LD_15_RN_13_RD_26_0.png","I_Dist_100_LN_9_LD_15_RN_14_RD_28_0.png"],["I_Dist_100_LN_10_LD_25_RN_8_RD_16_1.png","I_Dist_100_LN_10_LD_25_RN_9_RD_18_1.png","I_Dist_100_LN_11_LD_22_RN_9_RD_15_1.png","I_Dist_100_LN_12_LD_24_RN_9_RD_15_1.png","I_Dist_100_LN_12_LD_30_RN_2_RD_4_1.png","I_Dist_100_LN_13_LD_26_RN_12_RD_20_1.png","I_Dist_100_LN_13_LD_26_RN_6_RD_10_1.png","I_Dist_100_LN_17_LD_30_RN_10_RD_15_1.png","I_Dist_100_LN_6_LD_12_RN_3_RD_5_1.png","I_Dist_100_LN_8_LD_16_RN_6_RD_10_1.png","I_Dist_100_LN_8_LD_20_RN_1_RD_2_1.png","I_Dist_100_LN_9_LD_18_RN_6_RD_10_1.png"]],"dist100_S":[["E_Dist_100_LN_2_LD_12_RN_2_RD_30_0.png","E_Dist_100_LN_6_LD_10_RN_6_RD_12_0.png"],["E_Dist_100_LN_6_LD_12_RN_6_RD_10_1.png"]],"dist200_C":[["C_Dist_200_LN_11_LD_22_RN_3_RD_10_0.png","C_Dist_200_LN_12_LD_15_RN_6_RD_10_0.png","C_Dist_200_LN_12_LD_20_RN_6_RD_15_0.png","C_Dist_200_LN_14_LD_28_RN_6_RD_20_0.png","C_Dist_200_LN_15_LD_25_RN_4_RD_10_0.png","C_Dist_200_LN_16_LD_20_RN_12_RD_20_0.png","C_Dist_200_LN_16_LD_30_RN_9_RD_27_0.png","C_Dist_200_LN_20_LD_25_RN_9_RD_15_0.png","C_Dist_200_LN_21_LD_30_RN_2_RD_4_0.png","C_Dist_200_LN_4_LD_10_RN_3_RD_15_0.png","C_Dist_200_LN_4_LD_8_RN_3_RD_10_0.png","C_Dist_200_LN_6_LD_15_RN_3_RD_15_0.png","C_Dist_200_LN_7_LD_21_RN_2_RD_15_0.png","C_Dist_200_LN_8_LD_15_RN_2_RD_6_0.png","C_Dist_200_LN_8_LD_15_RN_3_RD_9_0.png","C_Dist_200_LN_8_LD_15_RN_7_RD_21_0.png","C_Dist_200_LN_9_LD_20_RN_4_RD_16_0.png"],["C_Dist_200_LN_1_LD_2_RN_21_RD_30_1.png","C_Dist_200_LN_13_LD_26_RN_14_RD_20_1.png","C_Dist_200_LN_3_LD_10_RN_11_RD_22_1.png","C_Dist_200_LN_3_LD_10_RN_14_RD_28_1.png","C_Dist_200_LN_3_LD_10_RN_7_RD_14_1.png","C_Dist_200_LN_3_LD_12_RN_9_RD_20_1.png","C_Dist_200_LN_3_LD_6_RN_14_RD_20_1.png","C_Dist_200_LN_5_LD_10_RN_14_RD_20_1.png","C_Dist_200_LN_6_LD_12_RN_7_RD_10_1.png","C_Dist_200_LN_6_LD_20_RN_11_RD_22_1.png","C_Dist_200_LN_7_LD_15_RN_18_RD_27_1.png","C_Dist_200_LN_9_LD_30_RN_13_RD_26_1.png"]],"dist200_I":[["I_Dist_200_LN_1_LD_2_RN_3_RD_10_0.png","I_Dist_200_LN_1_LD_3_RN_2_RD_15_0.png","I_Dist_200_LN_3_LD_4_RN_11_RD_20_0.png","I_Dist_200_LN_4_LD_5_RN_6_RD_10_0.png","I_Dist_200_LN_4_LD_6_RN_14_RD_30_0.png","I_Dist_200_LN_7_LD_10_RN_12_RD_24_0.png","I_Dist_200_LN_7_LD_10_RN_14_RD_28_0.png","I_Dist_200_LN_7_LD_10_RN_8_RD_16_0.png"],["I_Dist_200_LN_11_LD_20_RN_3_RD_4_1.png","I_Dist_200_LN_14_LD_30_RN_12_RD_18_1.png","I_Dist_200_LN_14_LD_30_RN_6_RD_9_1.png","I_Dist_200_LN_3_LD_10_RN_1_RD_2_1.png","I_Dist_200_LN_4_LD_30_RN_1_RD_3_1.png","I_Dist_200_LN_6_LD_20_RN_3_RD_6_1.png","I_Dist_200_LN_7_LD_15_RN_4_RD_6_1.png","I_Dist_200_LN_7_LD_15_RN_6_RD_9_1.png","I_Dist_200_LN_9_LD_15_RN_8_RD_10_1.png"]],"dist200_S":[["E_Dist_200_LN_3_LD_6_RN_3_RD_10_0.png"],["E_Dist_200_LN_3_LD_10_RN_3_RD_6_1.png"]],"dist300_C":[["C_Dist_300_LN_11_LD_22_RN_1_RD_5_0.png","C_Dist_300_LN_11_LD_22_RN_2_RD_10_0.png","C_Dist_300_LN_11_LD_22_RN_4_RD_20_0.png","C_Dist_300_LN_12_LD_24_RN_2_RD_10_0.png","C_Dist_300_LN_18_LD_20_RN_9_RD_15_0.png","C_Dist_300_LN_20_LD_25_RN_13_RD_26_0.png","C_Dist_300_LN_20_LD_25_RN_14_RD_28_0.png","C_Dist_300_LN_20_LD_25_RN_5_RD_10_0.png","C_Dist_300_LN_20_LD_25_RN_8_RD_16_0.png","C_Dist_300_LN_20_LD_25_RN_9_RD_18_0.png","C_Dist_300_LN_24_LD_30_RN_2_RD_4_0.png","C_Dist_300_LN_24_LD_30_RN_8_RD_16_0.png","C_Dist_300_LN_3_LD_6_RN_2_RD_10_0.png","C_Dist_300_LN_4_LD_10_RN_1_RD_10_0.png","C_Dist_300_LN_4_LD_5_RN_2_RD_4_0.png","C_Dist_300_LN_8_LD_16_RN_1_RD_5_0.png","C_Dist_300_LN_9_LD_10_RN_3_RD_5_0.png"],["C_Dist_300_LN_1_LD_20_RN_7_RD_20_1.png","C_Dist_300_LN_1_LD_3_RN_19_RD_30_1.png","C_Dist_300_LN_1_LD_30_RN_8_RD_24_1.png","C_Dist_300_LN_1_LD_5_RN_11_RD_22_1.png","C_Dist_300_LN_1_LD_5_RN_3_RD_6_1.png","C_Dist_300_LN_1_LD_5_RN_6_RD_12_1.png","C_Dist_300_LN_2_LD_10_RN_12_RD_24_1.png","C_Dist_300_LN_2_LD_20_RN_10_RD_25_1.png","C_Dist_300_LN_3_LD_12_RN_11_RD_20_1.png","C_Dist_300_LN_3_LD_6_RN_4_RD_5_1.png","C_Dist_300_LN_4_LD_20_RN_13_RD_26_1.png","C_Dist_300_LN_5_LD_25_RN_6_RD_12_1.png","C_Dist_300_LN_5_LD_25_RN_7_RD_14_1.png","C_Dist_300_LN_7_LD_14_RN_20_RD_25_1.png","C_Dist_300_LN_8_LD_15_RN_10_RD_12_1.png"]],"dist300_I":[["I_Dist_300_LN_1_LD_2_RN_2_RD_10_0.png","I_Dist_300_LN_1_LD_2_RN_3_RD_15_0.png","I_Dist_300_LN_2_LD_4_RN_6_RD_30_0.png","I_Dist_300_LN_3_LD_6_RN_4_RD_20_0.png","I_Dist_300_LN_4_LD_5_RN_6_RD_12_0.png","I_Dist_300_LN_4_LD_5_RN_8_RD_16_0.png","I_Dist_300_LN_7_LD_10_RN_8_RD_20_0.png","I_Dist_300_LN_8_LD_10_RN_14_RD_28_0.png","I_Dist_300_LN_8_LD_10_RN_9_RD_18_0.png"],["I_Dist_300_LN_13_LD_26_RN_12_RD_15_1.png","I_Dist_300_LN_4_LD_20_RN_2_RD_4_1.png"]],"dist300_S":[["E_Dist_300_LN_9_LD_12_RN_9_RD_20_0.png"],["E_Dist_300_LN_18_LD_30_RN_18_RD_20_1.png","E_Dist_300_LN_3_LD_10_RN_3_RD_5_1.png","E_Dist_300_LN_9_LD_20_RN_9_RD_12_1.png"]],"dist500_C":[["C_Dist_500_LN_10_LD_13_RN_7_RD_26_0.png","C_Dist_500_LN_10_LD_15_RN_4_RD_24_0.png","C_Dist_500_LN_12_LD_16_RN_3_RD_12_0.png","C_Dist_500_LN_12_LD_18_RN_4_RD_24_0.png","C_Dist_500_LN_15_LD_18_RN_5_RD_15_0.png","C_Dist_500_LN_15_LD_20_RN_1_RD_4_0.png","C_Dist_500_LN_18_LD_27_RN_1_RD_6_0.png","C_Dist_500_LN_20_LD_24_RN_1_RD_3_0.png","C_Dist_500_LN_20_LD_24_RN_3_RD_9_0.png","C_Dist_500_LN_20_LD_24_RN_7_RD_21_0.png","C_Dist_500_LN_20_LD_28_RN_3_RD_14_0.png","C_Dist_500_LN_21_LD_28_RN_6_RD_24_0.png","C_Dist_500_LN_22_LD_28_RN_2_RD_7_0.png","C_Dist_500_LN_25_LD_30_RN_9_RD_27_0.png","C_Dist_500_LN_4_LD_6_RN_1_RD_6_0.png","C_Dist_500_LN_5_LD_6_RN_2_RD_6_0.png","C_Dist_500_LN_6_LD_9_RN_1_RD_6_0.png","C_Dist_500_LN_7_LD_10_RN_1_RD_5_0.png","C_Dist_500_LN_8_LD_12_RN_1_RD_6_0.png","C_Dist_500_LN_8_LD_12_RN_4_RD_24_0.png"],["C_Dist_500_LN_1_LD_4_RN_12_RD_16_1.png","C_Dist_500_LN_1_LD_4_RN_9_RD_12_1.png","C_Dist_500_LN_1_LD_9_RN_11_RD_18_1.png","C_Dist_500_LN_10_LD_24_RN_22_RD_24_1.png","C_Dist_500_LN_2_LD_12_RN_10_RD_15_1.png","C_Dist_500_LN_2_LD_12_RN_12_RD_18_1.png","C_Dist_500_LN_2_LD_12_RN_4_RD_6_1.png","C_Dist_500_LN_2_LD_24_RN_7_RD_12_1.png","C_Dist_500_LN_2_LD_5_RN_18_RD_20_1.png","C_Dist_500_LN_2_LD_5_RN_9_RD_10_1.png","C_Dist_500_LN_2_LD_8_RN_12_RD_16_1.png","C_Dist_500_LN_2_LD_8_RN_21_RD_28_1.png","C_Dist_500_LN_3_LD_10_RN_4_RD_5_1.png","C_Dist_500_LN_3_LD_12_RN_15_RD_20_1.png","C_Dist_500_LN_3_LD_30_RN_6_RD_10_1.png","C_Dist_500_LN_3_LD_8_RN_14_RD_16_1.png","C_Dist_500_LN_4_LD_16_RN_15_RD_20_1.png","C_Dist_500_LN_4_LD_24_RN_12_RD_18_1.png","C_Dist_500_LN_5_LD_14_RN_6_RD_7_1.png","C_Dist_500_LN_7_LD_21_RN_20_RD_24_1.png","C_Dist_500_LN_7_LD_28_RN_12_RD_16_1.png","C_Dist_500_LN_7_LD_28_RN_9_RD_12_1.png","C_Dist_500_LN_9_LD_27_RN_20_RD_24_1.png"]],"dist500_I":[["I_Dist_500_LN_2_LD_3_RN_4_RD_24_0.png","I_Dist_500_LN_5_LD_6_RN_6_RD_18_0.png","I_Dist_500_LN_7_LD_8_RN_9_RD_24_0.png"],["I_Dist_500_LN_7_LD_21_RN_5_RD_6_1.png"]],"dist500_S":[["E_Dist_500_LN_6_LD_8_RN_6_RD_24_0.png"],["E_Dist_500_LN_2_LD_12_RN_2_RD_3_1.png","E_Dist_500_LN_6_LD_24_RN_6_RD_8_1.png"]]}},{"start_time":1552313136903,"click_time":1552313141347,"finger_time":1552313140047,"fix_duration":635.6013269760257,"trial":1,"RT":3144,"MT":1300,"sideResp":2,"stimulus":[],"xmouse":[799,799,799,799,793,792,791,791,791,791,791,791,791,790,790,790,790,790,790,790,790,790,790,790,790,790,791,792,799,802,803,804,804,804,804,804,804,804,804,804,804,804,804,804,804,804,804,804,804,804,804,804,804,804,804,804,804,804,804,804,804,804,804,804,804,804,804,804,804,804,804,804,804,804,804,804,804,804,804,804,804,804,804,804,804,804,804,804,804,804,804,804,804,804,804,804,804,804,804,804,804,804,804,804,804,804,804,804,804,804,804,804,804,804,804,804,804,804,804,804,804,804,804,804,804,804,804,804,804,804,804,804,804,804,804,804,804,804,804,804,804,804,804,804,804,804,804,804,804,804,804,804,804,811,820,825,839,845,854,856,857,857,857,857,857,857,857,856,850,844,835,825,818,813,808,807,806,803,794,790,789,789,789,789,789,789,789,788,779,773,771,771,771,771,774,781,783,783,794,803,820,846,866,885,892,899,914,936,968,1005,1012,1017,1020,1025,1025,1025,1028,1032,1043,1048,1054,1061,1070],"ymouse":[621,621,621,621,629,631,634,635,644,644,644,644,644,644,645,645,645,645,645,645,645,645,645,645,645,645,644,644,641,640,640,639,639,639,639,639,639,639,639,639,639,639,639,639,639,639,639,639,639,639,639,639,639,639,639,639,639,639,639,639,639,639,639,639,639,639,639,639,639,639,639,639,639,639,639,639,639,639,639,639,639,639,639,639,639,639,639,639,639,639,639,639,639,639,639,639,639,639,639,639,639,639,639,639,639,639,639,639,639,639,639,639,639,639,639,639,639,639,639,639,639,639,639,639,639,639,639,639,639,639,639,639,639,639,639,639,639,639,639,639,639,639,639,639,639,639,639,639,639,639,639,639,639,637,634,631,626,623,619,618,618,618,618,618,618,618,618,618,620,623,626,630,633,636,638,638,638,640,644,645,646,646,646,646,646,646,646,646,647,642,640,639,639,638,635,631,630,625,593,573,536,472,430,396,379,356,307,274,248,229,224,215,202,181,179,179,173,165,145,133,119,100,86],"timestamp_mouse":[10,24,55,65,85,104,126,145,164,185,204,224,244,265,284,304,324,344,364,384,404,425,444,465,485,504,524,544,565,585,604,624,644,665,684,704,725,744,764,785,804,824,845,865,884,905,924,944,965,984,1004,1024,1045,1065,1084,1105,1125,1144,1164,1185,1204,1224,1245,1264,1284,1306,1325,1345,1364,1386,1405,1425,1445,1465,1484,1504,1525,1545,1565,1585,1604,1624,1644,1665,1684,1705,1725,1744,1765,1784,1805,1826,1844,1865,1885,1905,1926,1945,1965,1984,2006,2025,2045,2064,2086,2105,2125,2145,2165,2184,2204,2224,2244,2265,2285,2305,2324,2345,2365,2384,2405,2425,2444,2465,2485,2504,2525,2545,2566,2584,2604,2625,2644,2664,2685,2705,2725,2745,2764,2784,2805,2825,2845,2865,2884,2905,2925,2945,2965,2985,3005,3025,3044,3064,3085,3106,3125,3144,3164,3186,3204,3224,3244,3265,3284,3306,3325,3344,3364,3384,3405,3425,3445,3465,3486,3505,3524,3545,3565,3585,3604,3625,3645,3664,3684,3705,3724,3745,3765,3784,3805,3825,3845,3865,3885,3905,3925,3945,3964,3985,4005,4025,4045,4065,4084,4105,4125,4144,4165,4184,4205,4224,4244,4265,4284,4306,4325,4344,4364,4384,4405,4425,4444],"xSR":741.5,"ySR":573.95,"xT1":424.9,"yT1":0,"xT2":1058.1,"yT2":0,"toosoon":0,"cond_shown":"Congruent","ratio_trial":100,"L_num":1,"L_den":2,"R_num":3,"R_den":5,"correct_side":2,"subjID":"Tomas Moreno Moreno  12","gender":"0","school":"4","age":"9 años"},{"start_time":1552313143363,"click_time":1552313145588,"finger_time":1552313145088,"fix_duration":433.07253298739323,"trial":2,"RT":1725,"MT":500,"sideResp":2,"stimulus":[],"xmouse":[805,805,805,805,805,804,803,803,803,803,803,803,803,803,803,803,803,803,803,803,803,801,797,796,795,793,793,793,793,793,792,792,792,792,792,792,792,792,792,792,792,792,792,792,792,792,792,792,792,792,792,792,792,792,792,792,792,792,792,792,792,792,792,792,792,792,792,792,792,792,792,792,792,792,792,792,792,792,792,792,792,792,792,792,795,828,844,858,877,906,990,1017,1031,1034,1035,1043,1045,1045,1045,1045,1048,1051,1052,1053,1056,1059,1068,1075,1081,1085,1092,1093],"ymouse":[625,625,625,625,625,627,627,627,627,627,627,627,627,627,627,627,627,627,627,627,627,627,627,627,626,626,626,626,626,626,627,627,627,627,627,627,627,627,627,627,627,627,627,627,627,627,627,627,627,627,627,627,627,627,627,627,627,627,627,627,627,627,627,627,627,627,627,627,627,627,627,627,627,627,627,627,627,627,627,627,627,627,627,627,625,609,602,596,588,571,450,405,364,347,337,286,266,248,231,215,185,177,172,169,164,160,146,139,130,121,100,94],"timestamp_mouse":[14,30,44,64,84,104,124,144,164,184,204,225,244,265,284,304,325,345,365,384,404,425,445,465,484,506,524,545,565,584,605,624,644,664,684,704,725,745,765,784,806,824,845,864,885,905,925,946,964,985,1004,1025,1044,1066,1085,1105,1124,1145,1164,1185,1205,1225,1245,1265,1284,1305,1324,1344,1364,1385,1405,1425,1445,1465,1484,1504,1525,1545,1564,1585,1604,1625,1645,1665,1684,1705,1725,1745,1765,1784,1804,1824,1845,1864,1884,1904,1924,1945,1964,1984,2005,2024,2045,2065,2084,2104,2124,2144,2164,2184,2205,2224],"xSR":741.5,"ySR":573.95,"xT1":424.9,"yT1":0,"xT2":1058.1,"yT2":0,"toosoon":0,"cond_shown":"Congruent","ratio_trial":300,"L_num":3,"L_den":6,"R_num":4,"R_den":5,"correct_side":2,"subjID":"Tomas Moreno Moreno  12","gender":"0","school":"4","age":"9 años"},{"start_time":1552313147241,"click_time":1552313150108,"finger_time":1552313149708,"fix_duration":250,"trial":3,"RT":2467,"MT":400,"sideResp":1,"stimulus":[],"xmouse":[798,798,798,798,804,808,816,817,817,817,817,817,817,817,817,817,817,817,817,817,817,817,817,817,817,817,817,817,817,817,817,817,817,814,812,811,810,808,806,792,783,772,772,772,772,772,772,772,772,772,772,772,772,772,772,772,772,772,772,772,772,772,772,772,772,772,772,772,772,772,772,772,772,772,772,772,772,772,772,772,772,772,772,772,772,772,772,772,772,772,772,772,772,772,772,772,772,769,768,768,768,768,768,768,768,768,768,768,768,768,768,768,768,768,768,768,769,769,770,770,770,770,770,770,765,757,731,710,680,632,611,601,587,579,565,548,531,511,509,509,509,508,504,496],"ymouse":[629,630,630,630,630,628,625,624,624,624,624,624,624,624,624,624,624,624,624,624,624,624,624,624,624,624,624,624,624,624,624,624,624,624,625,625,626,627,627,632,634,637,637,637,637,637,637,637,637,637,637,637,637,637,637,637,637,637,637,637,637,637,637,637,637,637,637,637,637,637,637,637,637,637,637,637,637,637,637,637,637,637,637,637,637,637,637,637,637,637,637,637,637,637,637,637,637,640,640,640,640,640,640,640,640,640,640,640,640,640,640,640,640,640,640,640,640,640,639,639,639,621,599,570,539,510,411,341,263,149,105,83,51,30,6,0,0,0,0,0,0,0,0,3],"timestamp_mouse":[10,26,60,67,86,106,127,147,167,186,206,227,246,266,286,306,326,348,367,386,407,427,446,467,487,506,527,546,567,587,607,626,647,666,687,706,726,746,767,787,806,826,848,867,887,906,926,946,967,987,1007,1027,1047,1066,1086,1107,1127,1147,1166,1187,1206,1226,1246,1266,1287,1306,1328,1346,1366,1386,1407,1427,1446,1466,1487,1506,1527,1547,1568,1588,1607,1627,1647,1666,1687,1706,1726,1746,1767,1787,1806,1828,1846,1867,1886,1906,1926,1946,1966,1986,2006,2026,2046,2067,2086,2108,2127,2146,2167,2186,2207,2226,2247,2266,2286,2307,2326,2346,2367,2387,2406,2426,2447,2467,2486,2506,2526,2546,2566,2586,2607,2626,2647,2667,2688,2707,2727,2746,2766,2787,2806,2827,2846,2867],"xSR":741.5,"ySR":573.95,"xT1":424.9,"yT1":0,"xT2":1058.1,"yT2":0,"toosoon":0,"cond_shown":"Incongruent","ratio_trial":100,"L_num":9,"L_den":15,"R_num":14,"R_den":28,"correct_side":1,"subjID":"Tomas Moreno Moreno  12","gender":"0","school":"4","age":"9 años"},{"start_time":1552313151818,"click_time":1552313154208,"finger_time":1552313153488,"fix_duration":449.9178535652113,"trial":4,"RT":1670,"MT":720,"sideResp":2,"stimulus":[],"xmouse":[794,795,796,796,797,797,797,797,797,797,797,797,797,797,797,797,797,798,802,805,810,811,811,811,811,811,811,811,811,811,811,811,811,811,811,810,809,808,808,808,808,808,807,805,804,803,803,803,803,803,803,803,803,803,803,803,803,803,803,803,804,804,804,804,804,804,804,804,804,804,804,804,804,804,804,804,804,804,804,804,806,813,839,850,859,868,878,902,923,934,945,954,975,985,992,1000,1004,1008,1008,1008,1009,1009,1009,1011,1013,1015,1018,1029,1043,1047,1055,1061,1068,1070,1071,1072,1073,1073,1074,1074],"ymouse":[636,636,636,636,636,636,635,635,635,635,635,635,635,635,635,635,635,635,629,626,623,623,623,623,623,623,623,623,623,623,623,623,623,623,623,623,623,624,624,624,624,624,624,625,626,626,626,626,626,626,626,626,626,626,626,626,626,626,626,626,625,625,625,625,625,625,625,625,625,625,625,625,625,625,625,625,625,625,625,625,624,621,587,558,538,523,505,470,441,426,412,395,355,333,316,299,287,269,263,258,254,254,253,249,246,243,237,211,187,178,161,154,142,137,133,127,118,113,103,96],"timestamp_mouse":[10,29,51,70,89,109,129,149,170,191,209,229,249,270,293,310,329,350,370,391,409,430,450,470,490,509,529,550,570,589,609,631,650,669,690,710,729,750,769,790,811,830,850,870,889,909,929,949,969,990,1010,1029,1049,1069,1090,1110,1130,1149,1170,1190,1209,1230,1249,1269,1290,1310,1329,1351,1370,1391,1410,1430,1449,1469,1489,1509,1530,1551,1570,1590,1610,1630,1649,1670,1690,1709,1729,1749,1769,1790,1809,1831,1850,1869,1889,1910,1929,1949,1969,1990,2010,2030,2049,2070,2090,2109,2130,2149,2169,2190,2209,2230,2250,2269,2289,2310,2329,2349,2370,2389],"xSR":741.5,"ySR":573.95,"xT1":424.9,"yT1":0,"xT2":1058.1,"yT2":0,"toosoon":0,"cond_shown":"Incongruent","ratio_trial":300,"L_num":13,"L_den":26,"R_num":12,"R_den":15,"correct_side":2,"subjID":"Tomas Moreno Moreno  12","gender":"0","school":"4","age":"9 años"},{"start_time":1552313155860,"click_time":1552313158609,"finger_time":1552313157967,"fix_duration":250,"trial":5,"RT":2107,"MT":642,"sideResp":2,"stimulus":[],"xmouse":[787,787,787,787,787,787,787,786,786,786,786,786,786,786,786,786,786,786,786,786,786,786,786,786,786,786,786,786,786,786,786,786,786,786,786,786,786,786,786,786,786,786,786,786,786,786,786,786,786,786,786,786,786,786,786,786,786,786,786,786,786,786,786,786,786,786,786,786,786,786,786,786,786,786,786,786,786,786,786,785,784,784,784,784,784,784,784,784,785,788,805,812,815,816,817,819,819,819,819,819,819,819,819,819,824,829,835,842,851,865,894,913,932,949,967,1006,1026,1035,1040,1042,1043,1044,1044,1044,1044,1047,1052,1054,1059,1063,1071,1075,1077,1081,1083,1092,1097,1099],"ymouse":[613,613,615,615,615,615,619,623,627,627,627,628,628,629,629,629,629,629,629,629,629,629,629,629,629,629,629,629,629,629,629,629,629,629,629,629,629,629,629,629,629,629,629,629,629,629,629,629,629,629,629,629,629,629,629,629,629,629,629,629,629,629,629,629,629,629,629,629,629,629,629,629,629,629,629,629,629,629,629,629,629,629,629,629,629,629,629,629,628,625,612,605,601,598,597,595,595,593,593,593,593,593,593,593,584,572,564,552,541,521,490,467,445,423,398,336,293,258,229,221,215,211,211,211,210,201,186,180,165,157,146,142,138,132,128,113,104,96],"timestamp_mouse":[9,31,47,68,87,107,128,147,168,187,207,228,247,268,288,308,327,349,368,388,407,428,447,468,489,507,528,549,568,588,607,629,648,668,688,708,727,748,768,789,808,827,847,867,887,908,929,948,968,988,1008,1027,1047,1067,1088,1108,1129,1148,1167,1187,1207,1227,1248,1268,1287,1308,1328,1348,1367,1388,1408,1429,1447,1468,1488,1507,1528,1548,1568,1587,1607,1627,1648,1669,1688,1708,1727,1747,1767,1788,1809,1827,1848,1868,1888,1907,1928,1947,1969,1988,2007,2028,2047,2068,2088,2107,2127,2148,2168,2187,2207,2228,2248,2268,2287,2307,2327,2349,2368,2387,2407,2428,2447,2467,2488,2507,2527,2549,2567,2587,2607,2627,2647,2667,2687,2708,2727,2748],"xSR":741.5,"ySR":573.95,"xT1":424.9,"yT1":0,"xT2":1058.1,"yT2":0,"toosoon":0,"cond_shown":"Incongruent","ratio_trial":300,"L_num":1,"L_den":2,"R_num":2,"R_den":10,"correct_side":1,"subjID":"Tomas Moreno Moreno  12","gender":"0","school":"4","age":"9 años"},{"start_time":1552313163928,"click_time":1552313165807,"finger_time":1552313165448,"fix_duration":557.8810725316546,"trial":6,"RT":1520,"MT":359,"sideResp":1,"stimulus":[],"xmouse":[797,797,797,797,798,799,799,800,802,804,805,806,810,812,813,813,813,814,814,814,814,814,814,814,814,814,814,814,812,808,806,806,807,807,807,807,807,807,807,807,807,807,807,807,807,807,807,807,807,807,808,809,811,813,813,813,813,813,813,813,813,813,813,813,813,813,813,813,813,808,805,805,805,802,797,783,781,774,738,723,715,708,699,667,640,618,609,587,566,562,562,562,560,547,520],"ymouse":[636,636,636,636,636,636,636,636,635,634,633,633,631,631,631,631,631,630,630,630,630,630,630,630,630,630,630,630,632,634,635,635,635,635,635,635,635,635,635,635,635,635,635,635,635,635,635,635,635,635,634,634,633,632,632,632,632,632,632,632,632,632,632,632,632,632,632,632,632,632,635,635,635,634,620,575,555,519,399,342,290,238,199,121,69,32,16,0,0,0,0,0,0,1,11],"timestamp_mouse":[6,25,39,60,80,100,120,139,160,180,199,219,239,260,280,300,319,340,359,379,400,419,440,459,479,499,520,539,559,579,600,619,639,660,679,700,719,739,760,780,800,820,839,860,880,900,919,940,961,981,999,1020,1039,1059,1079,1100,1120,1140,1160,1180,1199,1220,1240,1259,1280,1300,1320,1339,1360,1380,1400,1421,1439,1459,1480,1499,1520,1539,1560,1580,1600,1619,1639,1660,1679,1700,1720,1739,1760,1780,1799,1819,1840,1859,1879],"xSR":741.5,"ySR":573.95,"xT1":424.9,"yT1":0,"xT2":1058.1,"yT2":0,"toosoon":0,"cond_shown":"Incongruent","ratio_trial":100,"L_num":6,"L_den":12,"R_num":3,"R_den":5,"correct_side":2,"subjID":"Tomas Moreno Moreno  12","gender":"0","school":"4","age":"9 años"},{"start_time":1552313168152,"click_time":1552313170648,"finger_time":1552313170007,"fix_duration":1122.6190746610655,"trial":7,"RT":1855,"MT":641,"sideResp":2,"stimulus":[],"xmouse":[797,797,797,797,797,797,797,797,798,800,820,832,832,832,832,832,832,832,832,832,832,832,832,832,832,823,818,815,814,814,814,814,814,814,814,814,814,813,812,810,800,792,782,760,750,749,749,749,749,749,749,749,749,749,749,749,749,749,749,749,749,749,749,749,749,749,749,748,748,752,753,761,766,770,770,770,770,770,770,770,770,770,770,770,770,770,770,773,778,785,818,833,843,847,848,850,850,850,852,852,857,863,869,879,888,906,916,926,935,945,965,977,998,1015,1037,1073,1081,1086,1087,1088,1088,1088,1088,1088,1087],"ymouse":[627,627,627,627,627,627,627,627,627,626,605,590,590,590,590,590,590,590,590,590,590,590,590,590,590,594,596,597,598,598,598,598,598,598,598,598,598,598,598,600,603,607,612,621,624,625,625,625,625,625,625,625,625,625,625,625,625,625,625,625,625,625,625,625,625,625,625,625,624,622,622,619,616,615,615,615,615,615,615,615,615,615,615,615,615,615,615,614,612,608,587,577,566,561,559,556,554,553,550,547,535,524,514,492,474,427,404,379,354,325,264,223,147,82,14,0,0,0,0,0,0,0,0,0,1],"timestamp_mouse":[15,38,56,75,95,115,136,155,176,196,216,235,255,275,295,315,336,357,375,395,415,437,455,476,495,515,536,556,576,596,616,635,656,676,695,715,735,755,776,796,816,836,855,875,896,915,936,956,976,996,1017,1035,1056,1076,1096,1116,1135,1156,1175,1196,1215,1235,1255,1275,1295,1316,1335,1356,1376,1397,1415,1435,1455,1475,1496,1515,1535,1556,1577,1596,1615,1636,1655,1675,1695,1716,1736,1755,1776,1796,1816,1835,1855,1876,1896,1915,1935,1955,1976,1995,2016,2035,2056,2076,2095,2116,2135,2155,2176,2195,2217,2235,2255,2275,2296,2316,2335,2355,2375,2396,2416,2435,2455,2476,2496],"xSR":741.5,"ySR":573.95,"xT1":424.9,"yT1":0,"xT2":1058.1,"yT2":0,"toosoon":0,"cond_shown":"Incongruent","ratio_trial":200,"L_num":7,"L_den":15,"R_num":6,"R_den":9,"correct_side":2,"subjID":"Tomas Moreno Moreno  12","gender":"0","school":"4","age":"9 años"},{"start_time":1552313173551,"click_time":1552313176088,"finger_time":1552313175347,"fix_duration":859.0483271342407,"trial":8,"RT":1796,"MT":741,"sideResp":1,"stimulus":[],"xmouse":[760,760,760,760,760,760,760,760,760,760,760,760,760,760,760,760,760,760,760,760,760,760,760,760,760,760,760,760,760,760,760,760,760,760,760,760,760,760,760,760,760,760,760,760,760,760,760,760,760,760,760,760,760,760,760,760,760,760,760,760,760,760,760,760,760,760,760,760,760,760,760,760,760,760,760,760,760,760,760,760,760,760,760,760,760,761,761,766,778,798,845,866,883,895,899,901,901,901,901,901,901,901,901,901,901,897,896,896,896,896,896,894,877,872,854,827,799,755,696,644,556,514,500,480,469,466,450],"ymouse":[584,584,584,584,584,584,584,584,584,584,584,584,584,584,584,584,584,584,584,584,584,584,584,584,584,584,584,584,584,584,584,584,584,584,584,584,584,584,584,584,584,584,584,584,584,584,584,584,584,584,584,584,584,584,584,584,584,584,584,584,584,584,584,584,584,584,584,584,584,584,584,584,584,584,584,584,584,584,584,584,584,584,584,584,584,583,583,581,575,568,548,539,531,525,521,515,509,507,506,506,506,506,506,505,502,485,483,483,483,483,483,481,479,479,485,489,489,484,459,426,336,240,206,161,128,106,51],"timestamp_mouse":[16,38,56,76,96,116,137,156,177,196,217,236,256,277,297,317,337,357,376,397,417,437,457,477,497,516,537,557,577,597,616,636,656,677,697,717,736,757,777,797,816,836,858,876,897,916,937,956,976,997,1016,1037,1056,1076,1096,1116,1137,1157,1178,1197,1216,1236,1257,1276,1296,1316,1336,1356,1376,1396,1416,1437,1457,1476,1497,1516,1537,1557,1576,1596,1616,1636,1657,1677,1696,1716,1737,1757,1776,1796,1817,1836,1857,1876,1897,1916,1936,1956,1977,1997,2016,2036,2056,2077,2096,2116,2136,2157,2176,2197,2217,2237,2256,2277,2297,2316,2336,2357,2377,2396,2417,2436,2456,2476,2496,2517,2537],"xSR":741.5,"ySR":573.95,"xT1":424.9,"yT1":0,"xT2":1058.1,"yT2":0,"toosoon":0,"cond_shown":"Congruent","ratio_trial":200,"L_num":6,"L_den":15,"R_num":3,"R_den":15,"correct_side":1,"subjID":"Tomas Moreno Moreno  12","gender":"0","school":"4","age":"9 años"},{"start_time":1552313184231,"click_time":1552313186227,"finger_time":1552313185867,"fix_duration":862.8973801916869,"trial":9,"RT":1636,"MT":360,"sideResp":2,"stimulus":[],"xmouse":[772,772,772,772,772,772,772,772,772,772,772,772,772,772,772,772,772,772,772,772,772,772,772,772,772,772,772,772,772,772,772,772,772,772,772,772,772,772,772,772,772,772,772,772,772,772,772,772,772,772,772,772,772,772,772,772,772,772,772,772,772,772,772,772,772,772,769,765,765,765,765,765,765,765,765,765,765,765,765,766,816,1048,1136,1187,1238,1303,1356,1368,1376,1380,1386,1387,1388,1388,1379,1347,1216,1180,1161,1150],"ymouse":[638,638,638,638,638,638,638,638,638,638,638,638,638,638,638,638,638,638,638,638,638,638,638,638,638,638,638,638,638,638,638,638,638,638,638,638,638,638,638,638,638,638,638,638,638,638,638,638,638,638,638,638,638,638,638,638,638,638,638,638,638,638,638,638,638,639,642,643,643,643,643,643,643,643,643,643,643,643,643,643,619,469,400,344,281,221,184,174,166,159,151,148,140,134,125,109,66,55,50,47],"timestamp_mouse":[17,37,56,76,98,117,136,156,177,198,217,236,257,277,296,316,336,357,377,396,417,436,456,476,496,516,537,556,578,597,617,636,658,677,697,716,738,756,777,796,816,837,858,877,897,917,937,956,976,997,1016,1036,1056,1076,1097,1118,1136,1156,1176,1196,1217,1236,1256,1277,1298,1318,1336,1356,1376,1396,1416,1437,1456,1477,1497,1516,1536,1556,1576,1597,1617,1636,1656,1676,1696,1717,1736,1756,1776,1796,1817,1836,1856,1877,1897,1917,1936,1956,1976,1996],"xSR":741.5,"ySR":573.95,"xT1":424.9,"yT1":0,"xT2":1058.1,"yT2":0,"toosoon":0,"cond_shown":"Incongruent","ratio_trial":300,"L_num":13,"L_den":26,"R_num":12,"R_den":15,"correct_side":2,"subjID":"Tomas Moreno Moreno  12","gender":"0","school":"4","age":"9 años"},{"start_time":1552313189339,"click_time":1552313191529,"finger_time":1552313190928,"fix_duration":250,"trial":10,"RT":1589,"MT":601,"sideResp":1,"stimulus":[],"xmouse":[783,783,783,784,784,784,784,784,784,784,787,790,791,793,794,794,796,797,797,797,798,798,798,798,798,798,798,796,794,793,793,793,793,793,793,793,793,793,793,793,793,793,793,793,794,795,799,803,804,805,805,805,805,805,805,805,805,805,805,805,805,805,805,805,805,805,805,805,805,805,805,805,805,805,805,805,806,806,806,803,793,770,765,765,765,762,737,717,691,663,648,620,592,561,531,514,505,501,500,499,493,487,486,486,486,486,486,486,486,485],"ymouse":[636,636,636,636,636,636,636,636,636,636,636,634,634,633,632,632,632,631,631,631,631,631,631,631,631,631,631,633,633,634,634,634,634,634,634,634,634,634,634,634,634,635,636,636,636,636,637,637,637,637,637,637,637,637,637,637,637,637,637,637,637,637,637,637,637,637,637,637,637,637,637,637,637,637,637,637,618,600,582,564,542,502,492,486,475,466,422,397,365,328,305,267,237,216,195,180,169,159,156,153,146,138,135,132,129,123,113,109,105,99],"timestamp_mouse":[8,28,49,68,88,108,128,149,169,189,209,228,249,268,289,308,329,349,368,388,408,429,448,469,489,509,529,549,569,588,610,630,648,668,689,710,728,748,769,789,809,828,848,870,889,909,928,948,969,989,1008,1028,1049,1069,1089,1110,1128,1149,1170,1188,1208,1228,1249,1268,1288,1309,1330,1348,1368,1388,1408,1429,1450,1469,1489,1508,1529,1548,1569,1589,1609,1628,1648,1668,1688,1709,1728,1748,1768,1789,1808,1828,1848,1869,1888,1908,1928,1949,1968,1989,2010,2028,2048,2069,2089,2108,2128,2149,2168,2189],"xSR":741.5,"ySR":573.95,"xT1":424.9,"yT1":0,"xT2":1058.1,"yT2":0,"toosoon":0,"cond_shown":"Incongruent","ratio_trial":100,"L_num":8,"L_den":20,"R_num":1,"R_den":2,"correct_side":2,"subjID":"Tomas Moreno Moreno  12","gender":"0","school":"4","age":"9 años"},{"start_time":1552313195418,"click_time":1552313199088,"finger_time":1552313197167,"fix_duration":828.6543681150573,"trial":11,"RT":1749,"MT":1921,"sideResp":2,"stimulus":[],"xmouse":[799,797,797,797,796,796,796,795,793,791,790,790,790,790,790,790,790,790,790,790,790,790,790,790,792,792,792,792,793,793,793,793,793,791,790,790,790,790,790,790,790,790,790,790,790,790,790,790,790,790,790,790,790,790,790,790,790,790,790,790,790,790,790,790,790,790,790,790,790,790,790,790,790,789,784,777,768,767,767,767,767,767,767,767,770,776,783,812,829,842,852,856,882,892,903,897,868,859,859,859,859,859,861,865,871,875,879,886,888,888,890,892,904,905,906,906,906,906,905,902,900,900,900,900,900,899,896,886,876,855,837,822,813,813,772,765,754,750,746,743,739,733,721,720,720,720,720,720,720,722,724,726,726,727,729,734,741,764,911,972,1004,1015,1015,1015,1015,1015,1015,1015,1015,1015,1015,1015,1017,1018,1019,1021,1024,1032,1035,1041,1056,1068,1085,1090],"ymouse":[621,623,624,624,625,625,625,625,627,628,630,631,631,631,631,631,631,631,631,631,631,631,631,631,631,631,631,631,631,631,631,631,631,632,633,633,633,633,633,633,633,633,633,633,633,633,633,633,633,633,633,633,633,633,633,633,633,633,633,633,633,633,633,633,633,633,633,633,633,633,633,633,633,633,635,631,610,606,606,605,604,604,604,604,602,599,596,571,552,533,512,504,465,444,371,165,47,0,0,0,0,0,0,0,0,0,0,0,0,0,0,0,0,0,0,0,0,0,0,1,1,1,1,1,1,2,3,7,15,26,32,38,43,43,54,54,54,55,56,56,56,56,56,57,57,57,57,57,57,57,56,55,55,53,52,51,51,58,116,134,143,144,144,144,144,144,144,144,144,144,144,144,144,144,144,143,142,136,134,130,121,113,101,96],"timestamp_mouse":[19,42,49,70,90,109,130,150,169,190,210,230,249,270,289,309,329,349,369,391,409,430,451,469,490,509,529,550,569,591,609,629,649,669,689,709,731,750,769,790,811,830,850,869,889,910,930,950,969,989,1009,1029,1049,1069,1089,1109,1131,1149,1169,1189,1210,1229,1250,1269,1289,1309,1330,1349,1370,1390,1409,1429,1449,1470,1489,1510,1530,1549,1570,1589,1610,1630,1651,1669,1689,1710,1729,1749,1769,1790,1810,1830,1849,1869,1890,1910,1929,1951,1969,1991,2011,2030,2051,2070,2089,2109,2130,2151,2169,2190,2209,2230,2251,2269,2289,2309,2330,2350,2370,2389,2409,2431,2450,2470,2490,2509,2529,2550,2569,2589,2609,2630,2649,2670,2690,2709,2729,2750,2770,2790,2810,2829,2850,2869,2889,2910,2930,2949,2970,2990,3009,3030,3049,3070,3089,3109,3130,3150,3170,3190,3209,3229,3249,3270,3289,3310,3329,3350,3370,3390,3410,3430,3449,3469,3490,3510,3529,3550,3569,3590,3610,3630,3650,3669],"xSR":741.5,"ySR":573.95,"xT1":424.9,"yT1":0,"xT2":1058.1,"yT2":0,"toosoon":0,"cond_shown":"Incongruent","ratio_trial":300,"L_num":1,"L_den":2,"R_num":2,"R_den":10,"correct_side":1,"subjID":"Tomas Moreno Moreno  12","gender":"0","school":"4","age":"9 años"},{"start_time":1552313200551,"click_time":1552313204187,"finger_time":1552313202308,"fix_duration":341.89308239455454,"trial":12,"RT":1757,"MT":1879,"sideResp":2,"stimulus":[],"xmouse":[787,787,787,787,787,787,787,787,787,787,789,789,789,789,789,789,789,789,789,789,789,789,789,789,789,789,789,789,789,789,789,789,789,789,789,789,789,789,789,789,789,789,789,790,791,793,793,794,794,796,797,801,802,805,807,811,815,815,815,815,814,811,807,806,806,806,806,806,806,806,806,806,806,806,806,806,806,806,806,806,806,806,806,803,801,783,768,757,749,743,739,728,717,704,694,673,660,647,636,628,621,619,616,609,603,598,598,595,591,588,581,577,575,573,573,573,573,573,573,574,574,574,574,574,575,575,575,576,576,578,581,589,593,598,599,601,601,601,601,601,602,603,606,607,609,615,623,633,643,654,684,699,712,738,753,791,818,844,873,898,929,936,945,956,964,977,983,988,995,1000,1025,1037,1044,1046,1047,1048,1048,1048,1048,1049,1058,1063],"ymouse":[629,629,629,629,629,629,629,629,629,629,629,629,629,629,629,629,629,629,629,629,629,629,629,629,629,629,629,629,629,629,629,629,629,629,629,629,629,629,629,629,629,629,629,629,628,627,627,627,627,626,626,624,624,622,622,620,618,618,618,618,618,619,619,621,621,621,621,621,621,621,621,621,621,621,621,621,621,621,621,621,621,621,621,618,616,596,579,562,545,527,510,475,452,418,395,349,328,309,293,282,272,269,266,260,256,251,249,243,235,229,217,214,211,210,210,210,210,210,210,210,210,210,210,210,210,209,209,209,209,208,207,203,201,200,199,198,198,198,198,198,198,197,196,196,194,192,189,187,184,181,170,165,159,151,146,136,132,126,118,111,102,99,95,91,87,81,78,76,74,71,64,63,61,60,60,59,59,59,59,58,53,51],"timestamp_mouse":[17,38,56,77,96,117,138,157,177,197,216,238,256,276,296,317,336,358,376,397,417,437,458,476,497,516,536,557,577,597,617,636,656,677,697,717,736,757,776,796,817,838,856,876,897,916,936,957,976,997,1017,1036,1057,1077,1096,1116,1136,1157,1176,1198,1216,1236,1256,1277,1296,1316,1336,1356,1376,1396,1417,1438,1457,1477,1498,1518,1536,1557,1577,1596,1618,1637,1657,1676,1696,1716,1736,1757,1776,1796,1816,1837,1857,1876,1896,1916,1936,1956,1976,1997,2016,2036,2057,2077,2096,2117,2136,2156,2177,2196,2216,2236,2257,2277,2297,2318,2337,2356,2376,2396,2416,2436,2457,2477,2496,2516,2536,2556,2577,2596,2616,2637,2657,2677,2696,2716,2737,2756,2777,2797,2816,2836,2856,2877,2897,2916,2936,2956,2977,2997,3017,3036,3056,3076,3097,3116,3136,3157,3177,3197,3216,3236,3257,3276,3296,3317,3336,3356,3376,3396,3416,3436,3457,3477,3496,3516,3536,3556,3576,3596,3616,3636],"xSR":741.5,"ySR":573.95,"xT1":424.9,"yT1":0,"xT2":1058.1,"yT2":0,"toosoon":0,"cond_shown":"Incongruent","ratio_trial":300,"L_num":4,"L_den":20,"R_num":2,"R_den":4,"correct_side":2,"subjID":"Tomas Moreno Moreno  12","gender":"0","school":"4","age":"9 años"},{"start_time":1552313207181,"click_time":1552313209288,"finger_time":1552313208747,"fix_duration":451.3991434840661,"trial":13,"RT":1566,"MT":541,"sideResp":2,"stimulus":[],"xmouse":[779,779,779,779,779,779,779,779,779,779,779,779,779,779,780,780,781,782,785,790,792,792,793,793,793,793,793,793,793,793,793,793,793,793,793,793,793,793,793,793,793,793,793,793,793,793,793,793,793,793,793,793,793,793,793,793,793,793,793,793,793,793,793,793,793,793,793,793,793,793,793,793,793,793,793,795,802,819,858,952,974,984,992,1001,1038,1052,1059,1062,1066,1068,1069,1074,1077,1081,1089,1090,1090,1090,1090,1097,1108,1113,1113,1109,1102,1101],"ymouse":[629,629,629,629,629,629,629,629,629,629,629,629,629,629,628,628,627,627,625,620,618,616,616,616,615,615,615,615,615,615,615,615,615,615,615,615,615,615,615,615,615,615,615,615,615,615,615,615,615,615,615,615,615,615,615,615,615,615,615,615,615,615,615,615,615,615,615,615,615,615,615,615,615,615,615,614,612,603,582,525,505,493,474,458,408,386,370,357,341,318,307,288,281,274,255,237,225,219,213,202,193,175,143,124,103,98],"timestamp_mouse":[12,37,46,66,86,106,126,148,167,187,208,227,246,266,287,307,328,346,367,386,406,427,447,466,488,506,526,547,566,587,608,627,647,667,688,708,728,747,766,787,807,828,847,866,887,906,926,946,967,986,1007,1027,1048,1067,1086,1107,1127,1146,1166,1186,1206,1226,1246,1267,1286,1308,1327,1346,1366,1387,1406,1427,1447,1466,1487,1506,1526,1547,1566,1586,1607,1627,1647,1668,1686,1706,1726,1747,1767,1786,1806,1826,1847,1866,1886,1906,1926,1947,1967,1986,2006,2026,2047,2066,2086,2106],"xSR":741.5,"ySR":573.95,"xT1":424.9,"yT1":0,"xT2":1058.1,"yT2":0,"toosoon":0,"cond_shown":"Incongruent","ratio_trial":200,"L_num":7,"L_den":15,"R_num":6,"R_den":9,"correct_side":2,"subjID":"Tomas Moreno Moreno  12","gender":"0","school":"4","age":"9 años"},{"start_time":1552313215138,"click_time":1552313216668,"finger_time":1552313216107,"fix_duration":250,"trial":14,"RT":969,"MT":561,"sideResp":2,"stimulus":[],"xmouse":[798,798,798,798,798,798,798,798,798,798,798,798,798,798,798,798,798,798,798,797,797,796,796,796,796,796,796,796,796,796,796,796,796,796,796,796,796,796,796,796,796,796,796,796,796,796,808,812,817,820,822,822,822,822,822,822,826,829,829,831,835,851,861,872,881,890,908,916,927,937,946,966,982,998,1015,1038,1060],"ymouse":[619,619,619,619,619,619,619,619,619,619,619,619,619,619,619,619,619,619,619,619,619,619,619,619,619,619,619,619,619,619,619,619,619,619,619,619,619,619,619,619,619,619,619,619,619,618,601,576,551,521,492,430,404,383,361,353,335,309,300,290,278,254,242,230,219,206,187,180,169,159,148,128,116,104,93,79,69],"timestamp_mouse":[16,29,49,69,89,111,129,150,170,191,210,230,249,269,289,310,330,349,369,390,410,429,449,470,490,509,530,549,570,590,609,629,651,670,690,709,730,751,770,790,810,831,851,870,890,909,929,949,969,989,1009,1029,1049,1070,1091,1110,1130,1149,1169,1190,1209,1229,1249,1270,1290,1309,1329,1349,1369,1389,1409,1429,1450,1470,1490,1509,1529],"xSR":741.5,"ySR":573.95,"xT1":424.9,"yT1":0,"xT2":1058.1,"yT2":0,"toosoon":0,"cond_shown":"Congruent","ratio_trial":300,"L_num":1,"L_den":3,"R_num":19,"R_den":30,"correct_side":2,"subjID":"Tomas Moreno Moreno  12","gender":"0","school":"4","age":"9 años"},{"start_time":1552313218680,"click_time":1552313221248,"finger_time":1552313220628,"fix_duration":550.4697607080029,"trial":15,"RT":1948,"MT":620,"sideResp":2,"stimulus":[],"xmouse":[803,803,803,803,803,803,803,803,803,802,801,800,800,799,799,798,798,797,797,796,796,796,796,796,796,796,796,796,796,796,796,796,796,796,796,796,796,796,796,796,796,796,796,796,796,796,796,796,795,795,795,795,795,795,795,795,795,795,795,795,795,795,795,795,795,795,795,795,795,795,795,795,795,795,795,795,795,795,795,795,795,794,794,794,794,794,794,794,794,794,794,794,794,794,794,794,810,879,963,1142,1205,1236,1255,1260,1261,1262,1264,1268,1271,1272,1270,1268,1266,1266,1265,1248,1236,1223,1214,1201,1198,1198,1198,1197,1197,1195,1187,1171,1157],"ymouse":[624,624,624,624,624,624,624,624,624,625,625,625,625,626,626,626,626,627,627,628,628,628,628,628,628,628,628,628,628,628,628,628,628,628,628,628,628,628,628,628,628,628,628,628,628,628,628,628,628,628,628,628,628,628,628,628,628,628,628,628,628,628,628,628,628,628,628,628,628,628,628,628,628,628,628,628,628,628,628,628,628,629,629,629,629,629,629,629,629,629,629,629,629,629,629,629,619,563,492,311,226,154,98,65,24,12,7,0,0,0,0,0,0,0,0,10,17,27,33,43,46,46,47,47,48,48,49,49,49],"timestamp_mouse":[12,32,47,68,88,107,128,148,167,187,208,228,247,268,288,307,327,349,368,387,408,428,448,467,487,507,529,547,568,589,608,627,648,667,688,707,727,747,767,787,808,828,848,868,888,908,927,948,967,987,1008,1028,1048,1068,1088,1107,1127,1148,1168,1188,1207,1227,1248,1269,1287,1308,1329,1348,1368,1388,1408,1428,1447,1468,1487,1508,1527,1548,1567,1588,1608,1628,1647,1667,1687,1708,1727,1747,1768,1788,1808,1827,1848,1868,1888,1907,1928,1948,1967,1988,2008,2027,2048,2068,2088,2107,2128,2148,2167,2188,2208,2229,2248,2268,2288,2307,2328,2348,2368,2390,2407,2427,2448,2468,2487,2508,2528,2548,2568],"xSR":741.5,"ySR":573.95,"xT1":424.9,"yT1":0,"xT2":1058.1,"yT2":0,"toosoon":0,"cond_shown":"Incongruent","ratio_trial":300,"L_num":4,"L_den":20,"R_num":2,"R_den":4,"correct_side":2,"subjID":"Tomas Moreno Moreno  12","gender":"0","school":"4","age":"9 años"},{"start_time":1552313241223,"click_time":1552313243167,"finger_time":1552313242808,"fix_duration":533.9462873417476,"trial":16,"RT":1585,"MT":359,"sideResp":1,"stimulus":[],"xmouse":[798,798,797,797,797,797,797,797,797,797,797,796,796,796,796,796,796,796,796,796,796,796,796,796,796,796,796,796,796,796,796,796,797,797,797,797,797,797,797,797,797,797,797,797,797,797,797,797,797,797,797,797,797,797,797,797,797,797,797,797,797,797,797,797,797,797,797,797,797,797,797,797,797,797,797,797,797,796,788,771,683,596,413,359,336,328,326,325,324,322,321,321,330,332,340,360,390,473],"ymouse":[602,602,601,601,601,601,601,601,601,601,601,601,601,601,601,601,601,601,601,601,601,601,601,601,601,602,603,603,605,605,605,605,606,606,606,606,606,606,606,606,606,606,606,606,606,606,606,606,606,606,606,606,606,606,606,606,606,606,606,606,606,606,606,606,606,606,606,606,606,606,606,606,606,606,606,606,606,602,579,546,426,343,202,155,126,111,103,98,93,77,65,52,34,30,29,29,32,44],"timestamp_mouse":[11,24,44,64,85,105,124,144,164,185,204,225,245,264,285,305,325,344,365,384,406,425,446,465,484,505,524,544,565,586,604,625,644,665,685,705,724,744,766,785,804,824,846,864,885,904,925,945,965,985,1004,1024,1044,1065,1085,1104,1125,1144,1164,1185,1205,1224,1246,1265,1284,1304,1325,1345,1365,1386,1406,1424,1445,1465,1484,1504,1526,1545,1565,1585,1605,1624,1645,1664,1684,1705,1725,1745,1764,1785,1804,1824,1844,1864,1884,1906,1924,1944],"xSR":741.5,"ySR":573.95,"xT1":424.9,"yT1":0,"xT2":1058.1,"yT2":0,"toosoon":0,"cond_shown":"Incongruent","ratio_trial":300,"L_num":7,"L_den":10,"R_num":8,"R_den":20,"correct_side":1,"subjID":"Tomas Moreno Moreno  12","gender":"0","school":"4","age":"9 años"},{"start_time":1552313254575,"click_time":1552313257988,"finger_time":1552313256168,"fix_duration":765.1828259257167,"trial":17,"RT":1593,"MT":1820,"sideResp":1,"stimulus":[],"xmouse":[773,773,773,773,773,773,773,773,773,773,773,773,773,773,773,773,773,773,773,773,773,773,773,773,773,773,773,773,773,773,773,773,773,773,773,773,773,773,773,773,773,773,773,773,773,773,773,773,773,773,773,773,773,773,773,773,773,773,773,773,773,773,773,773,773,773,773,773,773,773,773,773,773,774,780,788,794,799,811,828,834,841,847,852,872,889,906,921,930,942,948,956,972,988,1021,1031,1034,1035,1036,1036,1036,1036,1036,1034,1031,1020,1015,1007,998,993,982,973,971,965,951,942,937,934,933,910,890,877,873,868,808,750,725,723,723,723,722,722,722,722,722,722,715,664,616,585,585,586,586,587,582,579,578,578,578,578,577,576,574,574,574,574,572,568,566,566,565,555,550,544,544,542,540,535,532,525,515],"ymouse":[603,603,603,603,603,603,603,603,603,603,603,603,603,603,603,603,603,603,603,603,603,603,603,603,603,603,603,603,603,603,603,603,603,603,603,603,603,603,603,603,603,603,603,603,603,603,603,603,603,603,603,603,603,603,603,603,603,603,603,603,603,603,603,603,603,603,603,603,603,603,603,603,603,603,600,597,595,593,582,563,555,542,533,525,500,481,461,445,434,419,413,406,392,369,323,305,296,293,292,292,292,292,292,292,292,297,299,303,318,333,359,379,386,405,429,439,443,445,445,433,417,402,394,389,370,349,338,337,337,336,333,332,332,332,332,332,329,292,253,212,203,193,187,180,160,153,150,149,148,141,139,133,131,130,129,127,125,123,123,123,122,118,116,112,111,109,107,104,101,93,74],"timestamp_mouse":[18,43,52,72,92,112,132,153,173,192,213,232,253,273,293,312,333,352,373,392,413,433,453,473,492,513,532,552,572,593,612,633,653,673,692,712,734,753,772,793,814,833,852,873,892,912,933,952,973,993,1012,1032,1052,1072,1094,1112,1132,1154,1173,1193,1213,1233,1253,1272,1292,1313,1333,1353,1372,1392,1414,1432,1453,1472,1492,1513,1533,1552,1573,1593,1612,1632,1653,1672,1692,1712,1733,1753,1772,1792,1812,1833,1853,1872,1892,1912,1932,1952,1972,1994,2013,2032,2052,2073,2092,2113,2132,2153,2172,2193,2212,2233,2253,2273,2292,2312,2333,2352,2373,2392,2412,2432,2452,2473,2492,2512,2532,2552,2572,2592,2612,2633,2653,2672,2693,2713,2732,2752,2772,2793,2812,2833,2852,2873,2892,2912,2933,2953,2973,2992,3012,3032,3053,3073,3092,3113,3132,3152,3173,3193,3213,3232,3252,3273,3292,3313,3333,3353,3372,3392,3413],"xSR":741.5,"ySR":573.95,"xT1":424.9,"yT1":0,"xT2":1058.1,"yT2":0,"toosoon":0,"cond_shown":"Congruent","ratio_trial":300,"L_num":11,"L_den":22,"R_num":1,"R_den":5,"correct_side":1,"subjID":"Tomas Moreno Moreno  12","gender":"0","school":"4","age":"9 años"},{"start_time":1552313262752,"click_time":1552313264568,"finger_time":1552313264428,"fix_duration":983.4507869344072,"trial":18,"RT":1676,"MT":140,"sideResp":2,"stimulus":[],"xmouse":[807,807,807,807,807,807,807,807,807,807,807,807,807,807,807,807,807,807,807,807,807,807,808,809,810,811,812,812,812,812,812,810,807,806,805,805,805,805,805,805,805,805,805,805,805,803,800,794,785,781,780,780,780,780,780,779,779,779,778,777,777,776,776,776,775,775,775,774,774,774,774,774,773,775,781,800,805,806,806,806,806,807,809,845,888,980,1019,1049,1065,1075,1075],"ymouse":[591,591,591,591,591,591,591,591,591,591,591,591,591,591,591,591,591,591,591,591,591,591,591,590,589,589,589,589,589,589,589,589,589,589,589,589,589,589,589,589,589,589,589,589,589,589,589,593,597,599,600,600,600,601,601,601,601,602,602,603,603,604,604,605,605,606,606,606,606,606,606,606,606,604,597,589,588,587,587,587,587,586,586,569,550,472,405,325,253,185,38],"timestamp_mouse":[15,42,56,75,96,117,135,155,175,195,216,236,255,276,295,315,336,356,375,395,416,435,456,476,495,516,535,556,576,596,615,635,656,675,695,715,735,756,775,796,815,836,856,876,896,915,935,955,975,996,1015,1035,1056,1076,1096,1115,1135,1156,1175,1196,1216,1236,1256,1276,1296,1316,1335,1356,1376,1395,1416,1435,1455,1476,1496,1515,1535,1555,1575,1595,1616,1636,1655,1676,1696,1715,1735,1756,1775,1795,1815],"xSR":741.5,"ySR":573.95,"xT1":424.9,"yT1":0,"xT2":1058.1,"yT2":0,"toosoon":0,"cond_shown":"Congruent","ratio_trial":100,"L_num":7,"L_den":14,"R_num":9,"R_den":15,"correct_side":2,"subjID":"Tomas Moreno Moreno  12","gender":"0","school":"4","age":"9 años"},{"start_time":1552313266777,"click_time":1552313272668,"finger_time":1552313272067,"fix_duration":786.3186300114362,"trial":19,"RT":5290,"MT":601,"sideResp":2,"stimulus":[],"xmouse":[805,805,805,805,805,805,805,805,806,807,807,807,807,809,811,814,815,815,815,815,815,815,816,816,816,816,816,816,819,819,819,819,819,819,819,819,819,819,819,819,819,819,819,819,819,819,819,819,819,819,819,819,819,819,819,819,819,819,819,819,819,819,819,819,819,819,819,819,819,819,819,819,819,819,819,819,819,819,819,819,819,819,819,819,819,819,819,819,819,819,819,819,819,819,819,819,819,819,819,819,819,819,819,819,819,819,819,819,818,814,812,808,803,795,771,770,770,770,770,770,770,770,770,770,770,770,770,770,770,770,778,784,786,790,792,792,792,792,792,792,792,792,792,792,791,791,791,791,791,791,791,791,791,792,796,799,800,801,801,802,802,802,802,802,802,802,802,802,802,802,802,802,801,799,796,796,796,796,796,796,796,796,796,796,796,796,796,796,796,796,795,794,789,788,784,784,784,784,784,784,784,784,786,786,787,787,787,788,788,788,788,788,788,788,788,788,788,788,788,788,788,788,788,788,788,788,788,787,787,785,779,775,768,765,763,763,763,763,763,765,768,769,769,769,769,769,770,771,771,772,772,774,776,777,777,777,779,783,786,795,803,806,812,820,841,856,877,898,918,931,951,976,996,1017,1043,1049,1054,1059,1062,1069,1071,1074,1077,1085,1096,1098,1101,1102,1102,1102,1102,1102,1102,1098,1081],"ymouse":[624,624,624,624,624,624,624,624,623,620,619,618,618,617,614,607,606,606,606,606,610,614,616,616,616,616,616,616,616,616,616,616,616,616,616,616,616,616,616,616,616,616,616,616,616,616,616,616,616,616,616,616,616,616,616,616,616,616,616,616,616,616,616,616,616,616,616,616,616,616,616,616,616,616,616,616,616,616,616,616,616,616,616,616,616,616,616,616,616,616,616,616,616,616,616,616,616,616,616,616,616,616,616,616,616,616,616,616,617,619,620,622,624,633,651,652,652,652,652,652,652,652,652,652,652,652,652,652,652,652,649,647,646,644,643,643,643,643,643,643,643,643,643,643,644,644,644,644,644,644,644,644,644,643,638,632,627,624,622,620,620,620,620,620,620,620,620,620,620,620,620,620,620,620,620,620,620,620,620,620,620,620,620,620,620,620,620,620,620,620,620,620,622,623,623,623,623,623,623,624,624,624,624,623,622,622,621,620,620,620,620,620,620,620,620,620,620,620,620,620,620,620,620,620,620,620,620,620,620,620,623,624,627,629,629,629,629,629,629,629,628,627,627,627,627,627,627,627,627,626,626,625,625,624,624,624,623,622,620,616,613,610,603,587,558,540,518,487,455,428,384,355,339,324,298,284,268,252,239,223,218,208,202,187,170,163,156,151,148,144,141,137,122,108,81],"timestamp_mouse":[14,41,50,70,91,110,131,150,170,190,210,230,250,270,290,310,331,350,370,390,410,431,451,471,491,510,530,550,571,590,610,631,650,670,690,710,731,750,771,791,810,830,850,870,890,911,931,950,971,990,1011,1030,1050,1070,1090,1110,1130,1151,1170,1191,1210,1230,1250,1271,1291,1311,1330,1351,1370,1390,1411,1431,1450,1470,1490,1510,1530,1550,1571,1591,1610,1631,1651,1671,1690,1710,1731,1750,1770,1791,1810,1830,1851,1871,1891,1910,1930,1951,1971,1990,2010,2031,2051,2071,2091,2111,2130,2150,2170,2190,2211,2230,2251,2271,2290,2311,2330,2351,2370,2391,2410,2432,2451,2470,2490,2511,2531,2550,2571,2591,2610,2630,2651,2670,2691,2711,2731,2750,2770,2790,2810,2830,2850,2870,2891,2910,2931,2951,2971,2991,3010,3031,3051,3071,3090,3111,3130,3151,3171,3190,3210,3231,3250,3271,3290,3311,3330,3350,3371,3390,3411,3431,3450,3470,3491,3510,3531,3550,3571,3590,3611,3630,3650,3671,3690,3711,3730,3751,3771,3790,3810,3830,3850,3870,3890,3911,3930,3950,3971,3991,4011,4030,4050,4070,4090,4110,4131,4151,4171,4190,4211,4231,4251,4270,4290,4311,4332,4351,4371,4391,4410,4431,4451,4471,4490,4511,4530,4551,4570,4590,4611,4630,4650,4671,4691,4711,4730,4750,4771,4791,4811,4830,4851,4870,4892,4911,4930,4951,4971,4991,5011,5030,5050,5070,5091,5111,5131,5150,5171,5190,5211,5231,5251,5271,5290,5311,5330,5350,5370,5390,5411,5431,5451,5470,5490,5510,5530,5551,5570,5592,5610,5631,5650,5670,5690,5710,5730,5751,5771,5791,5810,5831,5851,5870,5890],"xSR":741.5,"ySR":573.95,"xT1":424.9,"yT1":0,"xT2":1058.1,"yT2":0,"toosoon":0,"cond_shown":"Incongruent","ratio_trial":300,"L_num":13,"L_den":26,"R_num":12,"R_den":15,"correct_side":2,"subjID":"Tomas Moreno Moreno  12","gender":"0","school":"4","age":"9 años"},{"start_time":1552313275145,"click_time":1552313277467,"finger_time":1552313276667,"fix_duration":1077.8559074636385,"trial":20,"RT":1522,"MT":800,"sideResp":2,"stimulus":[],"xmouse":[803,803,803,803,803,803,803,803,803,803,803,803,803,803,804,804,804,804,804,804,804,804,804,804,804,804,806,806,807,807,807,809,809,809,809,809,809,809,809,809,809,809,809,809,809,809,809,809,809,809,809,809,809,809,809,809,809,809,809,809,809,809,809,809,809,809,809,809,809,809,809,809,811,815,822,831,848,860,877,895,911,928,933,945,948,956,957,962,965,965,968,972,981,987,997,1002,1010,1010,1011,1012,1012,1017,1025,1037,1041,1045,1051,1056,1064,1072,1079,1085,1087,1089,1090,1091,1093],"ymouse":[630,630,630,630,630,630,630,630,630,630,630,630,630,630,630,630,630,630,630,630,630,630,630,629,629,629,629,628,627,627,627,627,627,627,627,627,627,627,627,627,627,627,627,627,627,627,627,627,627,627,627,627,627,627,627,627,627,627,627,627,627,627,627,627,627,627,627,627,627,627,627,627,626,625,621,617,610,604,597,585,569,532,513,488,480,459,424,390,366,343,326,313,291,281,264,252,228,219,216,214,214,204,194,182,174,166,155,147,140,132,126,117,112,109,105,102,98],"timestamp_mouse":[9,22,42,63,82,102,123,142,162,183,203,223,244,262,283,302,322,343,362,383,403,422,442,462,482,503,522,542,562,583,603,622,642,662,683,703,723,742,762,783,803,822,842,863,882,902,922,943,962,982,1002,1022,1043,1063,1083,1102,1123,1142,1163,1182,1202,1223,1243,1262,1282,1302,1322,1342,1362,1382,1403,1423,1442,1463,1483,1503,1522,1542,1562,1582,1602,1622,1643,1663,1683,1702,1722,1742,1762,1782,1803,1822,1843,1862,1883,1903,1922,1943,1962,1982,2003,2022,2042,2062,2082,2103,2122,2142,2163,2182,2202,2222,2242,2263,2283,2302,2322],"xSR":741.5,"ySR":573.95,"xT1":424.9,"yT1":0,"xT2":1058.1,"yT2":0,"toosoon":0,"cond_shown":"Congruent","ratio_trial":200,"L_num":13,"L_den":26,"R_num":14,"R_den":20,"correct_side":2,"subjID":"Tomas Moreno Moreno  12","gender":"0","school":"4","age":"9 años"},{"start_time":1552313279139,"click_time":1552313281488,"finger_time":1552313280968,"fix_duration":250,"trial":21,"RT":1829,"MT":520,"sideResp":1,"stimulus":[],"xmouse":[801,798,798,788,784,781,781,781,781,781,781,781,782,782,783,784,786,786,787,787,787,787,787,787,787,787,787,787,787,787,787,787,787,787,787,787,787,787,787,787,787,787,787,787,787,787,787,787,787,787,787,787,787,787,787,787,787,787,787,787,787,787,787,787,787,787,787,787,787,787,787,787,787,787,787,787,787,787,787,787,787,787,787,787,787,787,784,781,777,776,773,758,739,731,708,691,673,661,637,610,586,564,562,560,560,551,543,540,540,541,543,545,545,544,542,540,527,520],"ymouse":[629,631,631,631,631,631,631,631,631,631,631,631,631,631,631,631,630,630,630,630,630,630,630,630,630,630,630,630,630,630,630,630,630,630,630,630,630,630,630,630,630,630,630,630,630,630,630,630,630,630,630,630,630,630,630,630,630,630,630,630,630,630,630,630,630,630,630,630,630,630,630,630,630,630,630,630,630,630,630,630,630,630,630,630,630,630,621,614,607,603,595,561,520,503,443,402,349,320,278,237,208,176,169,165,163,151,142,138,137,135,135,131,127,119,111,103,80,68],"timestamp_mouse":[10,45,48,68,88,109,129,148,168,188,208,228,249,268,288,308,328,349,369,388,409,428,448,469,489,508,528,549,568,588,608,628,649,668,688,709,728,749,768,788,808,828,848,868,888,909,928,949,969,989,1009,1029,1048,1069,1088,1108,1128,1148,1169,1188,1208,1229,1248,1268,1289,1308,1328,1348,1369,1388,1409,1429,1449,1468,1489,1508,1528,1549,1568,1588,1608,1628,1649,1669,1688,1709,1728,1749,1769,1789,1808,1829,1848,1868,1889,1908,1928,1947,1969,1989,2009,2028,2048,2070,2088,2108,2128,2149,2168,2189,2209,2228,2248,2268,2288,2309,2328,2349],"xSR":741.5,"ySR":573.95,"xT1":424.9,"yT1":0,"xT2":1058.1,"yT2":0,"toosoon":0,"cond_shown":"Incongruent","ratio_trial":200,"L_num":1,"L_den":3,"R_num":2,"R_den":15,"correct_side":1,"subjID":"Tomas Moreno Moreno  12","gender":"0","school":"4","age":"9 años"},{"start_time":1552313283697,"click_time":1552313285888,"finger_time":1552313285288,"fix_duration":648.394304364957,"trial":22,"RT":1591,"MT":600,"sideResp":2,"stimulus":[],"xmouse":[764,769,769,771,771,771,771,767,764,761,761,761,761,762,763,763,763,763,763,762,762,761,761,761,762,763,763,763,763,764,764,764,765,765,766,766,766,766,766,766,766,766,766,766,769,770,770,770,770,770,770,770,770,770,770,770,770,770,770,770,770,770,770,770,769,769,769,769,769,769,769,769,769,769,773,775,787,800,839,855,873,888,900,925,939,951,973,987,1019,1033,1043,1049,1052,1061,1068,1075,1079,1083,1087,1087,1087,1087,1087,1087,1092,1093,1099,1101,1103,1098],"ymouse":[615,616,616,616,616,616,618,619,620,621,621,621,621,621,620,620,620,620,620,620,620,620,620,620,620,620,620,620,620,620,620,620,620,620,619,619,619,619,619,619,619,619,619,619,619,618,618,618,618,618,618,618,618,618,618,618,618,618,618,618,618,618,618,618,618,618,618,618,618,618,618,618,618,617,615,614,609,603,586,579,568,553,536,496,473,450,412,382,323,298,279,263,252,228,219,212,208,204,192,186,182,181,181,180,174,173,161,154,136,27],"timestamp_mouse":[13,39,51,71,90,111,131,151,170,191,210,230,250,270,290,310,331,351,370,390,411,431,450,471,490,511,530,550,570,591,611,630,651,671,690,711,730,751,771,790,811,831,851,870,890,910,930,950,971,990,1010,1031,1051,1070,1090,1111,1131,1151,1171,1190,1211,1231,1251,1270,1290,1311,1330,1351,1371,1390,1410,1430,1450,1471,1490,1510,1530,1551,1570,1591,1611,1631,1650,1670,1690,1711,1731,1751,1770,1790,1811,1831,1851,1870,1890,1910,1931,1950,1970,1990,2010,2031,2051,2070,2090,2111,2131,2150,2171,2191],"xSR":741.5,"ySR":573.95,"xT1":424.9,"yT1":0,"xT2":1058.1,"yT2":0,"toosoon":0,"cond_shown":"Incongruent","ratio_trial":300,"L_num":13,"L_den":26,"R_num":12,"R_den":15,"correct_side":2,"subjID":"Tomas Moreno Moreno  12","gender":"0","school":"4","age":"9 años"},{"start_time":1552313287731,"click_time":1552313289847,"finger_time":1552313289227,"fix_duration":502.03928049337566,"trial":23,"RT":1496,"MT":620,"sideResp":2,"stimulus":[],"xmouse":[795,796,796,796,796,796,796,796,796,796,796,796,796,796,796,796,796,796,796,796,796,796,796,796,796,796,796,796,796,796,796,796,796,796,796,796,796,796,796,796,796,796,796,796,796,796,796,796,796,796,796,796,796,796,796,796,796,796,796,796,796,796,796,796,798,798,800,800,801,801,803,810,827,838,883,918,958,1028,1043,1052,1063,1078,1090,1092,1096,1098,1099,1100,1101,1101,1102,1102,1102,1102,1102,1102,1102,1102,1102,1102,1102,1102,1102,1097,1094,1094],"ymouse":[639,638,638,638,638,638,638,638,638,638,638,638,638,638,638,638,638,638,638,638,638,638,638,638,638,638,638,638,638,638,638,638,638,638,638,638,638,638,638,638,638,638,638,638,638,638,638,638,638,638,638,638,638,638,638,638,638,638,638,638,638,638,638,638,637,637,636,636,636,636,635,633,625,617,580,551,517,429,388,361,337,308,284,275,252,241,225,222,218,214,208,195,185,177,169,165,164,164,164,162,158,146,135,110,100,95],"timestamp_mouse":[16,53,57,76,96,116,137,157,177,196,217,236,256,277,296,316,336,356,376,397,416,436,456,477,496,517,537,556,577,597,616,637,657,676,697,716,737,756,777,796,817,837,857,876,897,917,936,956,976,997,1016,1036,1057,1076,1097,1117,1136,1157,1177,1196,1216,1237,1256,1276,1297,1317,1337,1356,1376,1396,1417,1436,1457,1477,1496,1517,1536,1557,1576,1596,1617,1637,1656,1677,1696,1717,1736,1756,1777,1796,1817,1836,1857,1876,1897,1916,1936,1957,1977,1997,2016,2037,2056,2076,2096,2116],"xSR":741.5,"ySR":573.95,"xT1":424.9,"yT1":0,"xT2":1058.1,"yT2":0,"toosoon":0,"cond_shown":"Congruent","ratio_trial":300,"L_num":1,"L_den":30,"R_num":8,"R_den":24,"correct_side":2,"subjID":"Tomas Moreno Moreno  12","gender":"0","school":"4","age":"9 años"},{"start_time":1552313292709,"click_time":1552313295048,"finger_time":1552313294407,"fix_duration":1459.8156377694004,"trial":24,"RT":1698,"MT":641,"sideResp":1,"stimulus":[],"xmouse":[820,820,818,816,816,816,816,816,816,815,814,814,814,814,814,814,814,813,813,813,813,813,813,813,813,813,813,813,813,813,813,813,813,813,813,813,812,812,812,812,812,812,812,812,812,812,812,812,812,812,812,812,812,812,812,812,812,812,812,812,812,812,812,812,812,812,812,812,812,812,812,812,812,812,812,812,812,812,812,812,812,812,812,804,752,715,701,695,702,705,708,710,705,695,690,680,662,642,636,626,612,594,563,560,561,569,573,574,573,567,564,560,557,554,545,538,520],"ymouse":[605,605,606,607,607,607,607,607,607,608,608,608,608,608,608,608,608,608,608,608,608,608,609,609,609,609,609,609,609,609,609,609,609,609,609,609,609,609,609,609,608,608,608,608,608,608,608,608,608,608,608,608,608,608,608,608,608,608,608,608,608,608,608,608,608,608,608,608,608,608,608,608,608,608,608,608,608,608,608,608,608,608,608,599,557,521,488,457,441,430,415,398,362,335,326,305,272,240,230,220,210,193,159,152,149,145,144,142,134,125,116,108,101,98,94,90,78],"timestamp_mouse":[19,38,59,78,99,118,138,159,179,199,218,239,259,278,299,319,338,359,379,399,419,439,459,479,498,519,538,559,578,599,618,638,658,678,699,718,739,758,779,798,819,838,858,878,898,918,939,958,979,999,1019,1038,1058,1078,1098,1118,1138,1158,1179,1198,1219,1238,1258,1279,1299,1319,1338,1359,1379,1398,1418,1439,1458,1479,1498,1519,1539,1559,1578,1599,1619,1639,1659,1679,1698,1719,1738,1758,1778,1799,1818,1839,1858,1878,1899,1918,1938,1958,1978,1998,2019,2039,2058,2078,2099,2118,2139,2158,2177,2198,2218,2238,2259,2278,2299,2318,2339],"xSR":741.5,"ySR":573.95,"xT1":424.9,"yT1":0,"xT2":1058.1,"yT2":0,"toosoon":0,"cond_shown":"Incongruent","ratio_trial":100,"L_num":3,"L_den":5,"R_num":8,"R_den":16,"correct_side":1,"subjID":"Tomas Moreno Moreno  12","gender":"0","school":"4","age":"9 años"},{"start_time":1552313297873,"click_time":1552313300328,"finger_time":1552313299588,"fix_duration":1183.0040924878645,"trial":25,"RT":1715,"MT":740,"sideResp":1,"stimulus":[],"xmouse":[813,813,813,814,818,820,823,826,827,827,827,825,823,819,815,813,813,813,813,813,813,815,815,815,814,813,813,813,813,813,813,813,813,813,813,813,813,813,813,813,813,813,813,813,813,813,813,813,813,813,813,813,813,813,813,813,813,813,813,813,813,813,813,813,813,813,813,813,813,813,813,813,813,811,811,811,811,811,810,810,809,808,807,806,802,751,721,642,595,544,534,528,523,518,503,496,491,489,489,492,494,494,495,495,476,461,455,455,457,464,467,469,470,472,475,479,480,482,483,483,485,485,485],"ymouse":[613,613,613,612,611,610,609,607,607,607,607,608,608,610,612,613,613,613,613,613,613,613,613,613,613,613,613,613,613,613,613,613,613,613,613,613,613,613,613,613,613,613,613,613,613,613,613,613,613,613,613,613,613,613,613,613,613,613,613,613,613,613,613,613,613,613,613,613,613,613,613,613,613,613,613,613,613,613,613,613,613,613,613,614,611,543,507,409,356,288,270,256,245,235,213,201,192,181,177,173,171,171,168,164,144,131,125,124,124,120,119,118,118,117,116,114,113,113,112,112,111,110,99],"timestamp_mouse":[19,43,54,75,94,114,135,155,174,194,215,234,255,274,294,315,334,354,375,394,415,434,454,474,495,514,535,555,574,594,615,634,654,675,695,714,735,755,775,795,814,834,855,874,895,914,934,954,975,995,1015,1034,1055,1074,1094,1114,1135,1154,1175,1194,1214,1235,1254,1275,1295,1315,1334,1355,1374,1395,1414,1434,1454,1474,1495,1515,1534,1554,1574,1595,1615,1635,1654,1674,1695,1715,1735,1754,1775,1794,1814,1834,1854,1874,1895,1913,1935,1955,1974,1994,2013,2035,2054,2075,2094,2114,2135,2155,2175,2193,2215,2235,2255,2275,2294,2315,2335,2354,2374,2394,2414,2435,2455],"xSR":741.5,"ySR":573.95,"xT1":424.9,"yT1":0,"xT2":1058.1,"yT2":0,"toosoon":0,"cond_shown":"Congruent","ratio_trial":200,"L_num":9,"L_den":30,"R_num":13,"R_den":26,"correct_side":2,"subjID":"Tomas Moreno Moreno  12","gender":"0","school":"4","age":"9 años"},{"start_time":1552313302358,"click_time":1552313304567,"finger_time":1552313304027,"fix_duration":928.9631868853716,"trial":26,"RT":1669,"MT":540,"sideResp":2,"stimulus":[],"xmouse":[808,808,808,808,808,808,808,808,808,808,808,808,808,808,808,808,808,808,808,808,808,808,808,808,808,808,808,809,810,811,812,813,814,814,814,814,814,814,814,814,814,814,814,814,814,814,814,814,814,814,814,814,814,814,814,814,814,814,814,814,814,814,814,814,814,814,814,814,814,814,813,812,812,812,811,811,811,811,811,811,812,817,825,860,884,933,951,965,979,994,1014,1023,1034,1047,1052,1057,1057,1057,1057,1057,1057,1057,1057,1057,1057,1057,1056,1054,1054,1054,1060],"ymouse":[628,628,628,628,628,628,628,628,628,628,628,628,628,628,628,628,628,628,628,628,628,628,628,628,628,628,628,628,627,627,627,626,626,626,626,626,626,626,626,626,626,626,626,626,626,626,626,626,626,626,626,626,626,626,626,626,626,626,626,626,626,626,626,626,626,626,626,626,626,626,626,626,626,626,626,626,626,626,626,626,626,624,621,564,521,427,384,345,310,277,229,212,195,173,160,131,118,105,100,98,97,97,97,97,97,97,97,97,97,97,95],"timestamp_mouse":[11,30,56,69,90,110,129,150,169,190,209,230,249,269,290,309,330,349,369,390,409,429,450,470,490,510,529,550,569,590,610,630,650,669,689,710,729,749,769,790,810,829,849,870,890,910,929,950,970,989,1010,1030,1050,1069,1089,1109,1129,1149,1170,1190,1209,1230,1250,1269,1289,1309,1329,1350,1369,1388,1410,1430,1449,1469,1490,1509,1529,1550,1569,1590,1610,1630,1649,1669,1689,1709,1729,1749,1770,1789,1809,1829,1850,1869,1890,1909,1930,1949,1970,1989,2009,2030,2050,2069,2089,2109,2130,2149,2170,2189,2209],"xSR":741.5,"ySR":573.95,"xT1":424.9,"yT1":0,"xT2":1058.1,"yT2":0,"toosoon":0,"cond_shown":"Congruent","ratio_trial":100,"L_num":8,"L_den":16,"R_num":2,"R_den":5,"correct_side":1,"subjID":"Tomas Moreno Moreno  12","gender":"0","school":"4","age":"9 años"},{"start_time":1552313307972,"click_time":1552313310267,"finger_time":1552313309867,"fix_duration":662.9410653511515,"trial":27,"RT":1895,"MT":400,"sideResp":1,"stimulus":[],"xmouse":[781,781,781,781,781,781,781,781,781,781,781,781,781,781,781,781,781,781,781,781,781,781,781,781,781,781,781,781,781,781,781,781,781,781,781,781,781,781,781,781,781,781,781,781,781,781,781,781,781,781,781,781,781,781,781,781,781,781,781,781,781,781,781,781,781,781,781,781,781,781,781,781,781,781,781,781,781,781,781,781,781,781,781,781,781,781,781,781,781,781,781,781,782,782,755,749,747,747,747,742,733,725,718,709,692,673,651,621,591,566,556,539,533,514,499],"ymouse":[624,624,624,624,624,624,624,624,624,624,624,624,624,624,624,624,624,624,624,624,624,624,624,624,624,624,624,624,624,624,624,624,624,624,624,624,624,624,624,624,624,624,624,624,624,624,624,624,624,624,624,624,624,624,624,624,624,624,624,624,624,624,624,624,624,624,624,624,624,624,624,624,624,624,624,624,624,624,624,624,624,624,624,624,624,623,623,623,623,623,623,623,622,608,531,507,488,471,454,422,399,377,362,346,318,296,271,244,213,187,173,150,141,115,91],"timestamp_mouse":[16,44,54,76,95,115,136,156,175,195,215,236,256,275,295,316,336,356,375,395,415,435,455,476,495,515,536,556,575,596,616,637,656,676,696,715,736,755,775,795,816,836,855,876,896,916,936,956,976,995,1015,1036,1056,1075,1095,1116,1136,1155,1176,1195,1216,1236,1255,1275,1296,1315,1336,1355,1376,1396,1415,1435,1456,1475,1496,1515,1536,1556,1575,1595,1616,1635,1655,1675,1695,1715,1735,1755,1775,1795,1815,1835,1855,1875,1895,1916,1936,1956,1976,1996,2016,2035,2055,2075,2095,2115,2135,2156,2175,2196,2215,2235,2256,2276,2295],"xSR":741.5,"ySR":573.95,"xT1":424.9,"yT1":0,"xT2":1058.1,"yT2":0,"toosoon":0,"cond_shown":"Congruent","ratio_trial":200,"L_num":4,"L_den":10,"R_num":3,"R_den":15,"correct_side":1,"subjID":"Tomas Moreno Moreno  12","gen