[{"start_time":1552328140086,"click_time":1552328143111,"finger_time":1552328140095,"fix_duration":250,"trial":0,"RT":9,"MT":3016,"sideResp":2,"stimulus":"img/900/equaldotanddens/L/8_Ratio_900_L_20_R_18.png","xmouse":[772,774,776,777,778,779,779,779,779,779,779,779,779,779,779,779,780,780,780,780,780,780,780,780,782,795,835,839,839,839,838,824,822,822,822,820,820,819,818,815,811,810,809,808,807,807,807,807,807,807,807,809,811,813,813,813,813,813,813,813,813,813,813,813,813,813,814,823,837,849,857,857,857,857,857,854,854,854,854,854,854,851,846,843,841,838,832,826,816,803,791,781,780,780,778,777,776,776,776,775,775,774,774,774,774,774,774,774,774,776,778,779,779,779,779,779,779,779,779,779,779,779,779,779,779,779,779,779,779,779,779,779,780,781,783,783,785,785,786,788,794,820,846,870,895,920,989,1016,1047,1080,1122,1132],"ymouse":[557,557,554,553,551,551,551,551,551,551,551,551,551,550,550,550,550,550,550,550,550,550,550,550,550,550,553,556,557,557,557,557,557,557,557,557,557,558,558,558,558,558,558,558,560,562,563,563,563,565,573,579,584,588,589,590,592,593,594,595,596,601,604,607,610,614,620,626,640,669,685,689,690,692,698,702,702,702,702,702,702,702,702,702,702,699,689,679,665,647,633,627,627,627,627,627,627,627,627,628,628,631,632,632,632,632,632,632,633,632,628,628,628,628,628,628,628,628,628,628,628,628,628,628,628,628,628,628,628,628,628,628,627,626,624,621,611,609,605,596,581,539,502,467,435,401,305,257,215,171,106,79],"timestamp_mouse":[8,26,45,65,86,106,125,144,165,184,205,225,246,265,285,304,324,345,366,384,406,425,445,465,484,505,524,546,565,585,605,625,645,666,685,706,725,744,766,785,806,825,844,864,884,905,925,946,965,985,1006,1024,1045,1065,1085,1105,1124,1144,1164,1185,1205,1225,1246,1266,1285,1306,1325,1345,1365,1385,1405,1425,1444,1464,1485,1506,1525,1546,1565,1585,1605,1625,1645,1664,1686,1705,1724,1746,1765,1784,1804,1824,1846,1866,1884,1905,1926,1946,1966,1985,2006,2025,2045,2064,2084,2104,2125,2146,2166,2184,2206,2226,2245,2266,2284,2305,2324,2344,2365,2384,2406,2425,2445,2465,2485,2506,2525,2546,2564,2585,2606,2626,2644,2665,2686,2706,2725,2746,2766,2785,2804,2826,2845,2864,2885,2905,2926,2946,2966,2986,3006,3024],"xSR":741.5,"ySR":469.95,"xT1":424.9,"yT1":0,"xT2":1058.1,"yT2":0,"toosoon":0,"cond_shown":"equaldotanddens","ratio_trial":900,"smaller_num":"18","larger_num":"20","correct_side":1,"subjID":"TomasNope35","gender":"0","age":"8","school":"4","test":{"fix_dur":[250,1500],"timestim":300,"targets_dim":[100,100],"targets_relative_coord":[0.3,0.7],"size_stim":[880,420],"start_dim":[100,100],"size_start":[300,300],"size_fix":60,"samplingrate":20,"img_types":["equaldotsize","equaldotanddens","randomdotsizeEA"],"ratios":[250,500,750,900],"rep_conds":9,"nTrials":120,"trials_to_rest":500,"Trials_order":[46,18,59,58,32,65,19,75,116,107,100,73,10,115,86,112,97,33,29,27,117,1,7,102,83,72,53,23,119,37,78,5,101,26,47,41,103,9,77,14,94,85,104,11,110,91,56,35,111,22,2,81,92,20,105,25,113,63,74,62,49,99,60,52,68,45,54,70,64,48,93,38,118,89,90,44,39,66,69,15,108,4,36,76,13,84,31,0,82,21,57,106,98,96,12,16,51,80,28,88,40,43,95,8,114,50,71,67,55,30,109,42,6,79,61,17,34,24,3,87],"cond_shown":["equaldotanddens","equaldotsize","randomdotsizeEA","equaldotanddens","randomdotsizeEA","randomdotsizeEA","equaldotanddens","equaldotsize","randomdotsizeEA","randomdotsizeEA","equaldotanddens","equaldotanddens","equaldotanddens","equaldotanddens","randomdotsizeEA","equaldotanddens","equaldotanddens","equaldotsize","randomdotsizeEA","equaldotsize","equaldotsize","equaldotanddens","equaldotanddens","equaldotsize","randomdotsizeEA","equaldotsize","randomdotsizeEA","randomdotsizeEA","randomdotsizeEA","equaldotanddens","equaldotsize","randomdotsizeEA","randomdotsizeEA","randomdotsizeEA","randomdotsizeEA","randomdotsizeEA","equaldotanddens","equaldotsize","randomdotsizeEA","randomdotsizeEA","equaldotanddens","equaldotanddens","randomdotsizeEA","randomdotsizeEA","randomdotsizeEA","equaldotanddens","randomdotsizeEA","randomdotsizeEA","equaldotsize","equaldotanddens","randomdotsizeEA","equaldotsize","randomdotsizeEA","randomdotsizeEA","equaldotsize","equaldotanddens","randomdotsizeEA","equaldotsize","randomdotsizeEA","randomdotsizeEA","equaldotanddens","equaldotsize","equaldotsize","equaldotanddens","randomdotsizeEA","equaldotsize","equaldotsize","equaldotanddens","equaldotanddens","equaldotsize","equaldotsize","randomdotsizeEA","equaldotanddens","randomdotsizeEA","equaldotsize","randomdotsizeEA","equaldotsize","equaldotsize","equaldotsize","equaldotsize","equaldotsize","equaldotanddens","equaldotsize","equaldotanddens","equaldotanddens","equaldotsize","equaldotanddens","equaldotsize","equaldotanddens","equaldotsize","equaldotsize","equaldotanddens","randomdotsizeEA","equaldotsize","equaldotsize","equaldotanddens","equaldotsize","randomdotsizeEA","equaldotanddens","equaldotanddens","equaldotanddens","equaldotanddens","randomdotsizeEA","randomdotsizeEA","equaldotsize","randomdotsizeEA","randomdotsizeEA","equaldotanddens","equaldotanddens","equaldotsize","equaldotanddens","equaldotsize","equaldotsize","equaldotanddens","equaldotanddens","randomdotsizeEA","equaldotanddens","equaldotsize","equaldotsize","equaldotsize"],"ratio_trial":[900,750,900,900,750,500,750,500,750,900,500,250,900,750,250,500,250,900,500,500,900,250,750,750,900,250,500,900,900,250,750,500,500,250,900,500,750,900,500,250,900,250,750,900,250,750,750,900,500,900,250,900,750,750,900,250,500,500,250,250,250,500,250,500,750,900,750,900,500,250,900,250,900,500,750,750,500,750,900,500,250,500,250,500,250,250,750,250,900,900,900,900,250,250,250,500,500,750,500,500,500,750,900,750,750,250,900,750,750,750,250,750,750,750,250,500,900,250,500,500],"smaller_num":["18","15","18","18","15","1","15","9","6","18","1","2","18","15","5","6","3","9","1","10","18","2","15","15","18","3","6","18","18","3","15","4","6","6","18","2","3","9","9","3","18","6","3","18","2","18","12","18","3","9","5","18","15","6","9","2","4","1","3","6","4","4","3","9","15","18","3","9","6","2","18","4","18","5","18","3","5","6","18","2","3","9","6","1","2","6","12","3","9","18","18","18","6","2","3","5","3","15","9","5","9","3","18","3","15","2","9","15","9","15","2","15","6","3","3","6","18","3","5","2"],"larger_num":["20","20","20","20","20","2","20","18","8","20","2","8","20","20","20","12","12","10","2","20","20","8","20","20","20","12","12","20","20","12","20","8","12","24","20","4","4","10","18","12","20","24","4","20","8","24","16","20","6","10","20","20","20","8","10","8","8","2","12","24","16","8","12","18","20","20","4","10","12","8","20","16","20","10","24","4","10","8","20","4","12","18","24","2","8","24","16","12","10","20","20","20","24","8","12","10","6","20","18","10","18","4","20","4","20","8","10","20","12","20","8","20","8","4","12","12","20","12","10","4"],"correct_side":[1,2,1,1,2,2,1,2,1,1,2,2,1,1,2,1,2,1,2,2,2,2,2,2,2,2,1,2,1,1,2,1,1,1,1,1,1,2,1,2,1,1,2,1,1,1,2,2,2,2,2,2,1,1,2,1,1,2,2,1,1,1,1,1,2,1,2,1,1,1,1,2,1,2,1,1,2,1,1,2,1,2,2,2,1,2,2,2,2,1,1,1,2,1,2,2,2,1,2,2,1,2,2,2,2,2,2,2,2,2,2,1,1,1,1,1,1,2,1,1],"img_shown":["img/900/equaldotanddens/L/8_Ratio_900_L_20_R_18.png","img/750/equaldotsize/R/4_Ratio_750_L_15_R_20.png","img/900/randomdotsizeEA/L/8_Ratio_900_L_20_R_18.png","img/900/equaldotanddens/L/4_Ratio_900_L_20_R_18.png","img/750/randomdotsizeEA/R/3_Ratio_750_L_15_R_20.png","img/500/randomdotsizeEA/R/15_Ratio_500_L_1_R_2.png","img/750/equaldotanddens/L/1_Ratio_750_L_20_R_15.png","img/500/equaldotsize/R/6_Ratio_500_L_9_R_18.png","img/750/randomdotsizeEA/L/13_Ratio_750_L_8_R_6.png","img/900/randomdotsizeEA/L/8_Ratio_900_L_20_R_18.png","img/500/equaldotanddens/R/15_Ratio_500_L_1_R_2.png","img/250/equaldotanddens/R/13_Ratio_250_L_2_R_8.png","img/900/equaldotanddens/L/10_Ratio_900_L_20_R_18.png","img/750/equaldotanddens/L/1_Ratio_750_L_20_R_15.png","img/250/randomdotsizeEA/R/12_Ratio_250_L_5_R_20.png","img/500/equaldotanddens/L/13_Ratio_500_L_12_R_6.png","img/250/equaldotanddens/R/9_Ratio_250_L_3_R_12.png","img/900/equaldotsize/L/1_Ratio_900_L_10_R_9.png","img/500/randomdotsizeEA/R/12_Ratio_500_L_1_R_2.png","img/500/equaldotsize/R/3_Ratio_500_L_10_R_20.png","img/900/equaldotsize/R/11_Ratio_900_L_18_R_20.png","img/250/equaldotanddens/R/13_Ratio_250_L_2_R_8.png","img/750/equaldotanddens/R/4_Ratio_750_L_15_R_20.png","img/750/equaldotsize/R/4_Ratio_750_L_15_R_20.png","img/900/randomdotsizeEA/R/13_Ratio_900_L_18_R_20.png","img/250/equaldotsize/R/4_Ratio_250_L_3_R_12.png","img/500/randomdotsizeEA/L/13_Ratio_500_L_12_R_6.png","img/900/randomdotsizeEA/R/11_Ratio_900_L_18_R_20.png","img/900/randomdotsizeEA/L/2_Ratio_900_L_20_R_18.png","img/250/equaldotanddens/L/15_Ratio_250_L_12_R_3.png","img/750/equaldotsize/R/4_Ratio_750_L_15_R_20.png","img/500/randomdotsizeEA/L/8_Ratio_500_L_8_R_4.png","img/500/randomdotsizeEA/L/13_Ratio_500_L_12_R_6.png","img/250/randomdotsizeEA/L/5_Ratio_250_L_24_R_6.png","img/900/randomdotsizeEA/L/8_Ratio_900_L_20_R_18.png","img/500/randomdotsizeEA/L/5_Ratio_500_L_4_R_2.png","img/750/equaldotanddens/L/10_Ratio_750_L_4_R_3.png","img/900/equaldotsize/R/5_Ratio_900_L_9_R_10.png","img/500/randomdotsizeEA/L/4_Ratio_500_L_18_R_9.png","img/250/randomdotsizeEA/R/11_Ratio_250_L_3_R_12.png","img/900/equaldotanddens/L/2_Ratio_900_L_20_R_18.png","img/250/equaldotanddens/L/5_Ratio_250_L_24_R_6.png","img/750/randomdotsizeEA/R/12_Ratio_750_L_3_R_4.png","img/900/randomdotsizeEA/L/4_Ratio_900_L_20_R_18.png","img/250/randomdotsizeEA/L/1_Ratio_250_L_8_R_2.png","img/750/equaldotanddens/L/6_Ratio_750_L_24_R_18.png","img/750/randomdotsizeEA/R/11_Ratio_750_L_12_R_16.png","img/900/randomdotsizeEA/R/11_Ratio_900_L_18_R_20.png","img/500/equaldotsize/R/2_Ratio_500_L_3_R_6.png","img/900/equaldotanddens/R/3_Ratio_900_L_9_R_10.png","img/250/randomdotsizeEA/R/12_Ratio_250_L_5_R_20.png","img/900/equaldotsize/R/11_Ratio_900_L_18_R_20.png","img/750/randomdotsizeEA/L/1_Ratio_750_L_20_R_15.png","img/750/randomdotsizeEA/L/13_Ratio_750_L_8_R_6.png","img/900/equaldotsize/R/15_Ratio_900_L_9_R_10.png","img/250/equaldotanddens/L/1_Ratio_250_L_8_R_2.png","img/500/randomdotsizeEA/L/8_Ratio_500_L_8_R_4.png","img/500/equaldotsize/R/15_Ratio_500_L_1_R_2.png","img/250/randomdotsizeEA/R/9_Ratio_250_L_3_R_12.png","img/250/randomdotsizeEA/L/5_Ratio_250_L_24_R_6.png","img/250/equaldotanddens/L/2_Ratio_250_L_16_R_4.png","img/500/equaldotsize/L/8_Ratio_500_L_8_R_4.png","img/250/equaldotsize/L/14_Ratio_250_L_12_R_3.png","img/500/equaldotanddens/L/4_Ratio_500_L_18_R_9.png","img/750/randomdotsizeEA/R/5_Ratio_750_L_15_R_20.png","img/900/equaldotsize/L/4_Ratio_900_L_20_R_18.png","img/750/equaldotsize/R/12_Ratio_750_L_3_R_4.png","img/900/equaldotanddens/L/1_Ratio_900_L_10_R_9.png","img/500/equaldotanddens/L/11_Ratio_500_L_12_R_6.png","img/250/equaldotsize/L/1_Ratio_250_L_8_R_2.png","img/900/equaldotsize/L/10_Ratio_900_L_20_R_18.png","img/250/randomdotsizeEA/R/10_Ratio_250_L_4_R_16.png","img/900/equaldotanddens/L/2_Ratio_900_L_20_R_18.png","img/500/randomdotsizeEA/R/14_Ratio_500_L_5_R_10.png","img/750/equaldotsize/L/6_Ratio_750_L_24_R_18.png","img/750/randomdotsizeEA/L/9_Ratio_750_L_4_R_3.png","img/500/equaldotsize/R/14_Ratio_500_L_5_R_10.png","img/750/equaldotsize/L/14_Ratio_750_L_8_R_6.png","img/900/equaldotsize/L/10_Ratio_900_L_20_R_18.png","img/500/equaldotsize/R/9_Ratio_500_L_2_R_4.png","img/250/equaldotsize/L/14_Ratio_250_L_12_R_3.png","img/500/equaldotanddens/R/1_Ratio_500_L_9_R_18.png","img/250/equaldotsize/R/6_Ratio_250_L_6_R_24.png","img/500/equaldotanddens/R/12_Ratio_500_L_1_R_2.png","img/250/equaldotanddens/L/1_Ratio_250_L_8_R_2.png","img/250/equaldotsize/R/6_Ratio_250_L_6_R_24.png","img/750/equaldotanddens/R/11_Ratio_750_L_12_R_16.png","img/250/equaldotsize/R/9_Ratio_250_L_3_R_12.png","img/900/equaldotanddens/R/5_Ratio_900_L_9_R_10.png","img/900/equaldotsize/L/2_Ratio_900_L_20_R_18.png","img/900/equaldotsize/L/10_Ratio_900_L_20_R_18.png","img/900/equaldotanddens/L/10_Ratio_900_L_20_R_18.png","img/250/randomdotsizeEA/R/6_Ratio_250_L_6_R_24.png","img/250/equaldotsize/L/1_Ratio_250_L_8_R_2.png","img/250/equaldotsize/R/11_Ratio_250_L_3_R_12.png","img/500/equaldotanddens/R/14_Ratio_500_L_5_R_10.png","img/500/equaldotsize/R/2_Ratio_500_L_3_R_6.png","img/750/randomdotsizeEA/L/1_Ratio_750_L_20_R_15.png","img/500/equaldotanddens/R/6_Ratio_500_L_9_R_18.png","img/500/equaldotanddens/R/14_Ratio_500_L_5_R_10.png","img/500/equaldotanddens/L/4_Ratio_500_L_18_R_9.png","img/750/equaldotanddens/R/12_Ratio_750_L_3_R_4.png","img/900/randomdotsizeEA/R/12_Ratio_900_L_18_R_20.png","img/750/randomdotsizeEA/R/12_Ratio_750_L_3_R_4.png","img/750/equaldotsize/R/4_Ratio_750_L_15_R_20.png","img/250/randomdotsizeEA/R/13_Ratio_250_L_2_R_8.png","img/900/randomdotsizeEA/R/6_Ratio_900_L_9_R_10.png","img/750/equaldotanddens/R/5_Ratio_750_L_15_R_20.png","img/750/equaldotanddens/R/15_Ratio_750_L_9_R_12.png","img/750/equaldotsize/R/4_Ratio_750_L_15_R_20.png","img/250/equaldotanddens/R/13_Ratio_250_L_2_R_8.png","img/750/equaldotsize/L/1_Ratio_750_L_20_R_15.png","img/750/equaldotsize/L/13_Ratio_750_L_8_R_6.png","img/750/equaldotanddens/L/9_Ratio_750_L_4_R_3.png","img/250/equaldotanddens/L/14_Ratio_250_L_12_R_3.png","img/500/randomdotsizeEA/L/13_Ratio_500_L_12_R_6.png","img/900/equaldotanddens/L/10_Ratio_900_L_20_R_18.png","img/250/equaldotsize/R/11_Ratio_250_L_3_R_12.png","img/500/equaldotsize/L/7_Ratio_500_L_10_R_5.png","img/500/equaldotsize/L/5_Ratio_500_L_4_R_2.png"],"Rat0":[["12_Ratio_0_L_9_R_0.png","13_Ratio_0_L_6_R_0.png","5_Ratio_0_L_2_R_0.png","6_Ratio_0_L_4_R_0.png","8_Ratio_0_L_6_R_0.png"],["1_Ratio_0_L_0_R_17.png","10_Ratio_0_L_0_R_22.png","11_Ratio_0_L_0_R_1.png","14_Ratio_0_L_0_R_24.png","15_Ratio_0_L_0_R_4.png","2_Ratio_0_L_0_R_5.png","3_Ratio_0_L_0_R_17.png","4_Ratio_0_L_0_R_7.png","7_Ratio_0_L_0_R_19.png","9_Ratio_0_L_0_R_15.png"]],"Rat250":[["1_Ratio_250_L_8_R_2.png","14_Ratio_250_L_12_R_3.png","15_Ratio_250_L_12_R_3.png","2_Ratio_250_L_16_R_4.png","3_Ratio_250_L_8_R_2.png","5_Ratio_250_L_24_R_6.png","7_Ratio_250_L_8_R_2.png"],["10_Ratio_250_L_4_R_16.png","11_Ratio_250_L_3_R_12.png","12_Ratio_250_L_5_R_20.png","13_Ratio_250_L_2_R_8.png","4_Ratio_250_L_3_R_12.png","6_Ratio_250_L_6_R_24.png","8_Ratio_250_L_1_R_4.png","9_Ratio_250_L_3_R_12.png"]],"Rat500":[["10_Ratio_500_L_4_R_2.png","11_Ratio_500_L_12_R_6.png","13_Ratio_500_L_12_R_6.png","4_Ratio_500_L_18_R_9.png","5_Ratio_500_L_4_R_2.png","7_Ratio_500_L_10_R_5.png","8_Ratio_500_L_8_R_4.png"],["1_Ratio_500_L_9_R_18.png","12_Ratio_500_L_1_R_2.png","14_Ratio_500_L_5_R_10.png","15_Ratio_500_L_1_R_2.png","2_Ratio_500_L_3_R_6.png","3_Ratio_500_L_10_R_20.png","6_Ratio_500_L_9_R_18.png","9_Ratio_500_L_2_R_4.png"]],"Rat750":[["1_Ratio_750_L_20_R_15.png","10_Ratio_750_L_4_R_3.png","13_Ratio_750_L_8_R_6.png","14_Ratio_750_L_8_R_6.png","6_Ratio_750_L_24_R_18.png","8_Ratio_750_L_4_R_3.png","9_Ratio_750_L_4_R_3.png"],["11_Ratio_750_L_12_R_16.png","12_Ratio_750_L_3_R_4.png","15_Ratio_750_L_9_R_12.png","2_Ratio_750_L_6_R_8.png","3_Ratio_750_L_15_R_20.png","4_Ratio_750_L_15_R_20.png","5_Ratio_750_L_15_R_20.png","7_Ratio_750_L_3_R_4.png"]],"Rat900":[["1_Ratio_900_L_10_R_9.png","10_Ratio_900_L_20_R_18.png","2_Ratio_900_L_20_R_18.png","4_Ratio_900_L_20_R_18.png","8_Ratio_900_L_20_R_18.png"],["11_Ratio_900_L_18_R_20.png","12_Ratio_900_L_18_R_20.png","13_Ratio_900_L_18_R_20.png","14_Ratio_900_L_18_R_20.png","15_Ratio_900_L_9_R_10.png","3_Ratio_900_L_9_R_10.png","5_Ratio_900_L_9_R_10.png","6_Ratio_900_L_9_R_10.png","7_Ratio_900_L_9_R_10.png","9_Ratio_900_L_18_R_20.png"]],"Rat1000":[["10_Ratio_1000_L_16_R_16.png","11_Ratio_1000_L_6_R_6.png","12_Ratio_1000_L_14_R_14.png","13_Ratio_1000_L_20_R_20.png","15_Ratio_1000_L_15_R_15.png","2_Ratio_1000_L_17_R_17.png","4_Ratio_1000_L_9_R_9.png","5_Ratio_1000_L_6_R_6.png","6_Ratio_1000_L_19_R_19.png","8_Ratio_1000_L_14_R_14.png","9_Ratio_1000_L_25_R_25.png"],["1_Ratio_1000_L_1_R_1.png","14_Ratio_1000_L_17_R_17.png","3_Ratio_1000_L_17_R_17.png","7_Ratio_1000_L_6_R_6.png"]]}},{"start_time":1552328146515,"click_time":1552328148011,"finger_time":1552328147412,"fix_duration":362.1123879383425,"trial":1,"RT":897,"MT":599,"sideResp":2,"stimulus":"img/750/equaldotsize/R/4_Ratio_750_L_15_R_20.png","xmouse":[796,796,796,796,796,796,796,796,796,796,796,796,796,796,796,796,796,796,796,796,796,796,796,796,796,796,796,796,796,796,796,796,796,796,796,796,796,796,796,796,797,797,800,809,824,849,873,901,920,937,939,942,942,943,949,955,969,984,1018,1031,1038,1043,1044,1044,1045,1045,1047,1049,1049,1050,1051,1052,1054,1056,1061],"ymouse":[636,636,636,636,636,636,636,636,636,636,636,636,636,636,636,636,636,636,636,636,636,636,636,636,636,636,636,636,636,636,636,636,636,636,636,636,636,636,636,636,636,632,625,595,553,511,466,423,384,337,327,318,314,304,289,275,246,206,136,112,96,88,86,86,85,83,80,76,75,74,74,74,74,73,72],"timestamp_mouse":[15,35,55,77,96,115,135,157,175,195,215,237,256,276,297,316,336,357,377,396,415,436,455,477,497,515,537,557,577,595,617,636,657,675,696,715,735,757,777,796,815,835,856,877,897,917,937,956,976,995,1017,1036,1055,1077,1095,1116,1137,1156,1177,1196,1216,1236,1255,1277,1297,1316,1336,1357,1376,1395,1417,1437,1455,1475,1495],"xSR":741.5,"ySR":573.95,"xT1":424.9,"yT1":0,"xT2":1058.1,"yT2":0,"toosoon":0,"cond_shown":"equaldotsize","ratio_trial":750,"smaller_num":"15","larger_num":"20","correct_side":2,"subjID":"TomasNope35","gender":"0","age":"8","school":"4"},{"start_time":1552328149422,"click_time":1552328150712,"finger_time":1552328150052,"fix_duration":250,"trial":2,"RT":630,"MT":660,"sideResp":1,"stimulus":"img/900/randomdotsizeEA/L/8_Ratio_900_L_20_R_18.png","xmouse":[784,784,784,784,784,784,784,784,784,784,784,784,784,784,784,785,787,787,787,787,787,787,787,787,787,787,787,787,787,787,781,746,694,641,569,552,538,527,518,509,501,489,479,473,472,472,473,478,484,494,496,497,497,494,485,483,483,483,483,483,483,483,483,484,488],"ymouse":[597,597,597,597,597,597,597,597,597,597,597,597,597,597,597,597,597,597,597,597,597,597,597,597,597,597,597,597,597,597,586,547,488,426,329,298,278,264,253,244,237,227,218,213,210,206,196,184,168,113,106,105,105,105,107,109,109,109,109,109,109,109,110,110,98],"timestamp_mouse":[10,34,48,70,90,110,130,150,169,189,209,229,249,268,289,310,329,348,370,388,409,429,448,468,490,509,529,550,570,589,610,630,649,668,689,709,729,750,770,789,810,828,848,869,888,908,928,949,969,989,1009,1030,1048,1069,1089,1109,1129,1149,1170,1188,1208,1230,1250,1269,1290],"xSR":741.5,"ySR":573.95,"xT1":424.9,"yT1":0,"xT2":1058.1,"yT2":0,"toosoon":0,"cond_shown":"randomdotsizeEA","ratio_trial":900,"smaller_num":"18","larger_num":"20","correct_side":1,"subjID":"TomasNope35","gender":"0","age":"8","school":"4"},{"start_time":1552328152123,"click_time":1552328153312,"finger_time":1552328152571,"fix_duration":250,"trial":3,"RT":448,"MT":741,"sideResp":1,"stimulus":"img/900/equaldotanddens/L/4_Ratio_900_L_20_R_18.png","xmouse":[799,799,799,799,799,799,799,799,799,799,799,799,799,799,799,799,799,799,799,799,799,799,799,800,815,826,836,858,885,945,968,981,988,991,992,992,992,992,993,994,996,1000,1005,1013,1031,1031,1031,1031,1031,984,909,803,698,615,558,555,555,553,550,522],"ymouse":[597,597,597,597,597,597,597,597,597,597,597,597,597,597,597,597,597,597,591,588,584,580,573,564,520,489,449,390,331,234,201,179,165,157,156,156,156,155,153,152,148,144,140,134,123,123,123,123,123,108,88,74,63,54,50,49,49,49,50,55],"timestamp_mouse":[18,35,49,68,88,108,129,147,167,188,208,228,247,268,288,308,328,349,369,387,408,429,448,468,487,508,529,549,569,588,608,629,647,668,689,709,729,749,769,788,808,827,849,868,888,908,929,948,967,988,1008,1028,1048,1068,1088,1108,1127,1148,1168,1189],"xSR":741.5,"ySR":573.95,"xT1":424.9,"yT1":0,"xT2":1058.1,"yT2":0,"toosoon":0,"cond_shown":"equaldotanddens","ratio_trial":900,"smaller_num":"18","larger_num":"20","correct_side":1,"subjID":"TomasNope35","gender":"0","age":"8","school":"4"},{"start_time":1552328155356,"click_time":1552328156492,"finger_time":1552328156011,"fix_duration":1183.6454086479664,"trial":4,"RT":655,"MT":481,"sideResp":2,"stimulus":"img/750/randomdotsizeEA/R/3_Ratio_750_L_15_R_20.png","xmouse":[779,779,779,779,779,779,779,779,779,779,779,779,779,779,779,779,779,779,779,779,779,779,779,779,779,779,779,779,779,779,779,800,840,855,864,870,883,895,904,911,921,926,933,933,933,937,946,982,1002,1018,1029,1035,1040,1045,1050,1055,1059],"ymouse":[602,602,602,602,602,602,602,602,602,602,602,602,602,602,602,602,602,602,602,602,602,602,602,602,602,602,602,602,602,602,600,575,524,502,482,468,434,412,392,381,364,356,340,340,339,332,319,264,225,196,179,165,141,126,108,89,66],"timestamp_mouse":[15,36,55,74,95,116,135,155,176,195,215,235,254,274,294,315,336,356,374,394,415,436,454,475,496,516,535,555,575,595,614,636,655,676,694,714,735,755,776,796,816,836,855,875,896,915,936,956,975,995,1015,1036,1056,1076,1095,1115,1136],"xSR":741.5,"ySR":573.95,"xT1":424.9,"yT1":0,"xT2":1058.1,"yT2":0,"toosoon":0,"cond_shown":"randomdotsizeEA","ratio_trial":750,"smaller_num":"15","larger_num":"20","correct_side":2,"subjID":"TomasNope35","gender":"0","age":"8","school":"4"},{"start_time":1552328158979,"click_time":1552328160152,"finger_time":1552328159892,"fix_duration":1388.0925493386953,"trial":5,"RT":913,"MT":260,"sideResp":2,"stimulus":"img/500/randomdotsizeEA/R/15_Ratio_500_L_1_R_2.png","xmouse":[797,797,797,797,797,797,797,797,797,797,797,797,797,797,797,797,797,797,797,797,797,797,797,797,797,797,797,797,797,797,797,797,797,797,797,797,797,797,797,797,797,797,797,797,798,829,848,870,891,911,946,975,992,1016,1040,1077,1126,1136,1143],"ymouse":[609,609,609,609,609,609,609,609,609,609,609,609,609,609,609,609,609,609,609,609,609,609,609,609,609,609,609,609,609,609,609,609,609,609,609,609,609,609,609,609,609,609,609,608,603,566,542,514,483,455,405,367,341,307,272,222,142,118,96],"timestamp_mouse":[20,34,52,72,91,112,132,152,173,192,212,232,252,272,292,313,331,352,373,393,411,433,453,473,492,512,533,552,572,591,613,633,653,671,692,713,731,752,771,791,813,831,852,872,893,913,932,952,972,991,1013,1032,1053,1073,1092,1112,1133,1152,1173],"xSR":741.5,"ySR":573.95,"xT1":424.9,"yT1":0,"xT2":1058.1,"yT2":0,"toosoon":0,"cond_shown":"randomdotsizeEA","ratio_trial":500,"smaller_num":"1","larger_num":"2","correct_side":2,"subjID":"TomasNope35","gender":"0","age":"8","school":"4"},{"start_time":1552328162504,"click_time":1552328163351,"finger_time":1552328163232,"fix_duration":1411.4516680337072,"trial":6,"RT":728,"MT":119,"sideResp":1,"stimulus":"img/750/equaldotanddens/L/1_Ratio_750_L_20_R_15.png","xmouse":[800,800,800,800,800,800,800,800,800,800,800,800,800,800,800,800,800,800,800,800,800,800,800,800,800,802,802,802,802,802,802,802,802,802,802,797,776,753,717,671,554,510,476],"ymouse":[620,620,620,620,620,620,620,620,620,620,620,620,620,620,620,620,620,620,620,620,620,620,620,620,620,620,620,620,620,620,620,620,620,620,620,578,536,494,435,365,204,134,78],"timestamp_mouse":[9,30,47,68,87,107,126,147,168,187,206,227,248,267,288,307,328,346,366,386,406,428,447,466,486,507,526,546,568,588,606,626,647,668,688,706,728,748,767,786,807,826,847],"xSR":741.5,"ySR":573.95,"xT1":424.9,"yT1":0,"xT2":1058.1,"yT2":0,"toosoon":0,"cond_shown":"equaldotanddens","ratio_trial":750,"smaller_num":"15","larger_num":"20","correct_side":1,"subjID":"TomasNope35","gender":"0","age":"8","school":"4"},{"start_time":1552328165381,"click_time":1552328166251,"finger_time":1552328165892,"fix_duration":1286.0287033214872,"trial":7,"RT":511,"MT":359,"sideResp":2,"stimulus":"img/500/equaldotsize/R/6_Ratio_500_L_9_R_18.png","xmouse":[803,803,803,803,803,803,803,803,803,803,803,803,803,803,803,803,803,803,803,803,803,803,803,807,814,843,867,890,917,941,988,1022,1037,1043,1044,1044,1044,1044,1044,1044,1048,1068,1074,1087],"ymouse":[622,622,622,622,622,622,622,622,622,622,622,622,622,622,622,622,622,622,622,622,622,622,622,615,605,564,526,479,410,348,243,197,181,175,175,175,175,174,171,164,152,115,107,89],"timestamp_mouse":[10,35,51,70,90,111,130,149,170,191,210,231,250,270,291,310,331,350,370,391,411,431,450,471,490,511,529,550,571,590,611,629,650,671,690,711,730,751,771,791,810,831,850,869],"xSR":741.5,"ySR":573.95,"xT1":424.9,"yT1":0,"xT2":1058.1,"yT2":0,"toosoon":0,"cond_shown":"equaldotsize","ratio_trial":500,"smaller_num":"9","larger_num":"18","correct_side":2,"subjID":"TomasNope35","gender":"0","age":"8","school":"4"},{"start_time":1552328167825,"click_time":1552328168952,"finger_time":1552328168270,"fix_duration":571.1591170760565,"trial":8,"RT":445,"MT":682,"sideResp":1,"stimulus":"img/750/randomdotsizeEA/L/13_Ratio_750_L_8_R_6.png","xmouse":[810,810,810,810,810,810,810,810,810,810,810,810,810,810,810,810,810,810,810,810,822,833,842,845,850,850,850,850,851,850,847,843,837,823,783,758,714,655,529,484,450,437,432,429,429,429,429,429,433,446,462,473,481,485,486,486,488],"ymouse":[634,634,634,634,634,634,634,634,634,634,634,634,634,634,634,634,634,634,634,634,622,608,598,593,585,583,582,581,577,571,567,562,557,547,513,487,449,399,291,252,214,192,179,169,165,165,165,165,164,159,150,141,133,122,111,101,94],"timestamp_mouse":[9,35,47,67,86,106,126,147,165,187,206,227,247,267,286,306,327,347,367,387,407,427,445,466,487,506,527,546,567,586,607,627,647,667,686,706,727,746,767,786,806,827,847,866,886,906,926,947,967,986,1006,1027,1046,1067,1085,1106,1127],"xSR":741.5,"ySR":573.95,"xT1":424.9,"yT1":0,"xT2":1058.1,"yT2":0,"toosoon":0,"cond_shown":"randomdotsizeEA","ratio_trial":750,"smaller_num":"6","larger_num":"8","correct_side":1,"subjID":"TomasNope35","gender":"0","age":"8","school":"4"},{"start_time":1552328170210,"click_time":1552328171031,"finger_time":1552328170612,"fix_duration":635.2286048303134,"trial":9,"RT":402,"MT":419,"sideResp":2,"stimulus":"img/900/randomdotsizeEA/L/8_Ratio_900_L_20_R_18.png","xmouse":[769,769,769,769,769,769,769,769,769,769,769,769,769,769,770,778,785,795,803,811,830,838,843,851,863,903,927,948,961,970,980,986,996,1004,1012,1020,1025,1033,1039,1049,1076,1086],"ymouse":[633,633,633,633,633,633,633,633,633,633,633,633,633,633,631,623,617,610,602,590,549,527,507,480,449,378,342,317,299,282,250,232,218,206,196,183,175,167,160,150,109,89],"timestamp_mouse":[8,32,42,62,81,102,121,141,162,182,201,222,241,262,282,302,321,342,362,381,402,421,442,462,481,501,521,542,561,582,601,622,641,662,682,702,721,741,761,781,802,821],"xSR":741.5,"ySR":573.95,"xT1":424.9,"yT1":0,"xT2":1058.1,"yT2":0,"toosoon":0,"cond_shown":"randomdotsizeEA","ratio_trial":900,"smaller_num":"18","larger_num":"20","correct_side":1,"subjID":"TomasNope35","gender":"0","age":"8","school":"4"},{"start_time":1552328172328,"click_time":1552328174032,"finger_time":1552328173332,"fix_duration":275.4196166569035,"trial":10,"RT":1004,"MT":700,"sideResp":2,"stimulus":"img/500/equaldotanddens/R/15_Ratio_500_L_1_R_2.png","xmouse":[807,807,807,807,807,807,807,807,807,807,807,807,807,807,807,807,807,807,807,807,807,807,807,807,807,807,807,807,807,807,807,807,807,807,807,807,807,807,807,807,807,807,807,807,807,807,807,807,808,823,852,921,1005,1069,1138,1147,1147,1147,1147,1147,1155,1194,1233,1267,1298,1300,1300,1304,1310,1318,1313,1290,1255,1140,1056,1030,1025,1025,1025,1026,1038,1040,1041,1041,1053,1060],"ymouse":[577,577,577,577,577,577,577,577,577,577,577,577,577,577,577,577,577,577,577,577,577,577,577,577,577,577,577,577,577,577,577,577,577,577,577,577,577,577,577,577,577,577,577,577,577,577,577,577,577,577,573,569,556,552,552,551,551,551,551,551,545,494,432,382,271,224,175,134,100,42,1,0,0,0,0,0,0,0,0,11,28,32,33,35,44,47],"timestamp_mouse":[6,34,44,64,84,104,124,144,163,184,203,224,243,264,283,303,324,344,362,384,403,423,443,464,483,504,524,543,564,583,604,623,643,664,683,703,724,743,763,783,804,823,844,864,883,903,923,943,964,983,1004,1023,1043,1064,1084,1103,1123,1143,1164,1184,1203,1223,1244,1263,1284,1304,1324,1343,1363,1383,1403,1423,1444,1464,1483,1504,1523,1543,1563,1584,1603,1623,1642,1664,1683,1703],"xSR":741.5,"ySR":573.95,"xT1":424.9,"yT1":0,"xT2":1058.1,"yT2":0,"toosoon":0,"cond_shown":"equaldotanddens","ratio_trial":500,"smaller_num":"1","larger_num":"2","correct_side":2,"subjID":"TomasNope35","gender":"0","age":"8","school":"4"},{"start_time":1552328176155,"click_time":1552328177112,"finger_time":1552328176491,"fix_duration":1340.9209826676945,"trial":11,"RT":336,"MT":621,"sideResp":2,"stimulus":"img/250/equaldotanddens/R/13_Ratio_250_L_2_R_8.png","xmouse":[815,815,815,815,815,815,815,815,815,815,815,815,815,815,820,828,840,861,873,885,903,959,1004,1032,1055,1072,1093,1149,1177,1203,1233,1254,1269,1269,1269,1269,1269,1264,1255,1239,1212,1187,1138,1131,1130,1130,1130,1129],"ymouse":[607,607,607,607,607,607,607,607,607,607,607,607,607,607,595,577,555,519,503,486,463,409,374,354,331,309,279,199,166,134,91,49,0,0,0,0,0,0,0,0,0,0,0,0,0,0,0,3],"timestamp_mouse":[18,44,57,76,96,116,137,156,176,196,217,236,257,276,297,317,336,356,377,396,416,437,456,476,497,516,537,557,577,597,617,636,656,676,697,716,737,756,777,796,816,836,858,877,896,915,937,957],"xSR":741.5,"ySR":573.95,"xT1":424.9,"yT1":0,"xT2":1058.1,"yT2":0,"toosoon":0,"cond_shown":"equaldotanddens","ratio_trial":250,"smaller_num":"2","larger_num":"8","correct_side":2,"subjID":"TomasNope35","gender":"0","age":"8","school":"4"},{"start_time":1552328178783,"click_time":1552328179452,"finger_time":1552328179212,"fix_duration":1009.6683033304223,"trial":12,"RT":429,"MT":240,"sideResp":1,"stimulus":"img/900/equaldotanddens/L/10_Ratio_900_L_20_R_18.png","xmouse":[785,785,785,785,785,785,785,785,785,785,785,785,785,785,785,785,785,785,793,802,814,836,847,851,851,851,850,841,827,808,770,634,568,511],"ymouse":[647,647,647,647,647,647,647,647,647,647,647,647,647,647,647,647,647,646,636,623,606,562,522,498,476,462,428,410,389,363,315,158,90,36],"timestamp_mouse":[8,37,49,69,88,109,128,148,169,188,209,229,249,267,289,308,328,349,369,389,408,429,449,468,489,508,528,548,568,589,608,628,649,669],"xSR":741.5,"ySR":573.95,"xT1":424.9,"yT1":0,"xT2":1058.1,"yT2":0,"toosoon":0,"cond_shown":"equaldotanddens","ratio_trial":900,"smaller_num":"18","larger_num":"20","correct_side":1,"subjID":"TomasNope35","gender":"0","age":"8","school":"4"},{"start_time":1552328180996,"click_time":1552328182152,"finger_time":1552328181391,"fix_duration":863.8527737242151,"trial":13,"RT":395,"MT":761,"sideResp":1,"stimulus":"img/750/equaldotanddens/L/1_Ratio_750_L_20_R_15.png","xmouse":[790,790,790,790,790,790,790,790,790,790,790,790,790,790,791,798,805,812,820,833,870,882,898,911,923,939,940,940,940,925,867,793,711,632,579,550,548,547,547,544,526,520,517,516,514,508,501,494,491,491,491,491,491,491,491,490,490,490],"ymouse":[648,648,648,648,648,648,648,648,648,648,648,648,648,648,647,637,625,612,598,573,507,484,450,424,405,375,372,372,372,363,330,291,247,203,175,158,156,155,155,152,137,130,127,126,124,117,112,106,105,105,105,105,105,105,105,104,100,93],"timestamp_mouse":[23,38,56,75,96,115,134,156,176,195,215,236,256,275,295,314,335,356,375,395,415,435,456,476,495,515,535,556,575,596,615,635,655,676,695,715,736,755,775,795,816,835,855,876,895,915,935,955,975,995,1016,1035,1055,1076,1096,1115,1135,1156],"xSR":741.5,"ySR":573.95,"xT1":424.9,"yT1":0,"xT2":1058.1,"yT2":0,"toosoon":0,"cond_shown":"equaldotanddens","ratio_trial":750,"smaller_num":"15","larger_num":"20","correct_side":1,"subjID":"TomasNope35","gender":"0","age":"8","school":"4"},{"start_time":1552328184245,"click_time":1552328185311,"finger_time":1552328184752,"fix_duration":1252.3948996168428,"trial":14,"RT":507,"MT":559,"sideResp":2,"stimulus":"img/250/randomdotsizeEA/R/12_Ratio_250_L_5_R_20.png","xmouse":[773,773,773,773,773,773,773,773,773,773,773,773,773,773,773,773,773,773,773,773,773,773,776,787,798,809,827,846,881,889,894,902,914,922,931,943,954,972,979,984,986,988,990,993,997,1003,1009,1022,1041,1054,1064,1077,1094,1099],"ymouse":[596,596,596,596,596,596,596,596,596,596,596,596,596,596,596,596,596,596,596,596,596,596,596,589,576,560,533,501,426,404,386,370,344,323,297,272,245,191,165,155,151,148,146,144,141,137,133,126,117,113,109,105,100,97],"timestamp_mouse":[9,33,47,68,87,106,127,147,167,187,206,226,247,267,287,306,327,347,366,386,406,427,446,466,487,507,527,546,567,586,605,626,647,666,686,707,727,747,766,786,807,827,847,867,886,906,927,947,966,987,1005,1026,1047,1066],"xSR":741.5,"ySR":573.95,"xT1":424.9,"yT1":0,"xT2":1058.1,"yT2":0,"toosoon":0,"cond_shown":"randomdotsizeEA","ratio_trial":250,"smaller_num":"5","larger_num":"20","correct_side":2,"subjID":"TomasNope35","gender":"0","age":"8","school":"4"},{"start_time":1552328188225,"click_time":1552328189072,"finger_time":1552328188771,"fix_duration":1212.538635453777,"trial":15,"RT":546,"MT":301,"sideResp":1,"stimulus":"img/500/equaldotanddens/L/13_Ratio_500_L_12_R_6.png","xmouse":[786,786,786,786,786,786,786,786,786,786,786,786,786,786,786,786,786,786,786,786,786,786,786,786,786,780,776,763,692,614,565,532,511,503,502,502,502,502,502,505,509,513,515],"ymouse":[593,593,593,593,593,593,593,593,593,593,593,593,593,593,593,593,593,593,593,593,593,593,593,593,593,584,576,553,446,333,257,196,161,143,137,137,137,137,137,133,122,103,85],"timestamp_mouse":[10,39,47,67,86,106,127,146,166,186,206,227,246,266,286,307,326,346,367,386,406,426,446,467,486,506,526,546,567,586,607,627,647,666,686,707,727,747,767,787,806,826,847],"xSR":741.5,"ySR":573.95,"xT1":424.9,"yT1":0,"xT2":1058.1,"yT2":0,"toosoon":0,"cond_shown":"equaldotanddens","ratio_trial":500,"smaller_num":"6","larger_num":"12","correct_side":1,"subjID":"TomasNope35","gender":"0","age":"8","school":"4"},{"start_time":1552328191216,"click_time":1552328191871,"finger_time":1552328191672,"fix_duration":1263.1721735352328,"trial":16,"RT":456,"MT":199,"sideResp":2,"stimulus":"img/250/equaldotanddens/R/9_Ratio_250_L_3_R_12.png","xmouse":[784,784,784,784,784,784,784,784,784,784,784,784,784,784,784,784,784,784,784,784,789,816,852,893,993,1026,1047,1066,1077,1099,1099,1099,1099],"ymouse":[605,605,605,605,605,605,605,605,605,605,605,605,605,605,605,605,605,605,605,605,605,592,569,540,466,424,377,329,288,193,144,103,75],"timestamp_mouse":[16,38,56,75,95,115,134,156,175,196,215,235,256,275,294,315,336,356,376,395,415,435,456,475,495,515,535,556,576,595,615,635,655],"xSR":741.5,"ySR":573.95,"xT1":424.9,"yT1":0,"xT2":1058.1,"yT2":0,"toosoon":0,"cond_shown":"equaldotanddens","ratio_trial":250,"smaller_num":"3","larger_num":"12","correct_side":2,"subjID":"TomasNope35","gender":"0","age":"8","school":"4"},{"start_time":1552328194113,"click_time":1552328194811,"finger_time":1552328194491,"fix_duration":1420.2784749232349,"trial":17,"RT":378,"MT":320,"sideResp":1,"stimulus":"img/900/equaldotsize/L/1_Ratio_900_L_10_R_9.png","xmouse":[803,803,803,803,803,803,803,803,803,803,803,803,803,803,803,804,812,824,843,881,899,916,932,941,944,944,942,939,894,840,776,706,630,568,490],"ymouse":[633,633,633,633,633,633,633,633,633,633,633,633,633,633,633,629,613,596,566,494,455,417,368,326,277,275,272,272,266,252,224,184,131,78,4],"timestamp_mouse":[23,37,59,78,97,119,139,159,179,199,219,239,259,279,297,318,339,359,378,399,419,439,458,478,498,519,538,558,579,598,618,639,658,678,698],"xSR":741.5,"ySR":573.95,"xT1":424.9,"yT1":0,"xT2":1058.1,"yT2":0,"toosoon":0,"cond_shown":"equaldotsize","ratio_trial":900,"smaller_num":"9","larger_num":"10","correct_side":1,"subjID":"TomasNope35","gender":"0","age":"8","school":"4"},{"start_time":1552328195724,"click_time":1552328196732,"finger_time":1552328196411,"fix_duration":250,"trial":18,"RT":687,"MT":321,"sideResp":2,"stimulus":"img/500/randomdotsizeEA/R/12_Ratio_500_L_1_R_2.png","xmouse":[822,822,822,822,822,822,822,822,822,822,822,822,822,822,820,818,817,814,813,813,812,812,812,812,812,812,812,812,812,812,812,814,818,840,858,903,927,943,956,976,984,989,990,990,990,990,997,1007,1042,1072,1106],"ymouse":[654,654,654,654,654,654,654,654,654,654,654,654,654,654,649,645,643,638,637,637,636,636,636,635,630,629,628,627,625,624,623,620,613,585,556,474,412,360,314,247,227,213,211,211,211,210,203,183,133,100,75],"timestamp_mouse":[7,36,48,68,86,106,126,147,168,188,207,228,247,267,287,307,328,347,367,387,408,428,447,466,487,507,527,548,568,587,608,627,647,668,687,707,727,747,768,788,807,828,847,868,887,908,927,947,968,987,1007],"xSR":741.5,"ySR":573.95,"xT1":424.9,"yT1":0,"xT2":1058.1,"yT2":0,"toosoon":0,"cond_shown":"randomdotsizeEA","ratio_trial":500,"smaller_num":"1","larger_num":"2","correct_side":2,"subjID":"TomasNope35","gender":"0","age":"8","school":"4"},{"start_time":1552328198681,"click_time":1552328199552,"finger_time":1552328199271,"fix_duration":1108.9552696380274,"trial":19,"RT":590,"MT":281,"sideResp":2,"stimulus":"img/500/equaldotsize/R/3_Ratio_500_L_10_R_20.png","xmouse":[796,796,796,796,796,796,796,796,796,796,796,796,796,796,796,796,796,796,796,796,796,796,796,796,796,796,797,799,804,810,818,849,872,896,922,943,982,995,1010,1026,1041,1065,1072,1077],"ymouse":[616,616,616,616,616,616,616,616,616,616,616,616,616,616,616,616,616,616,616,616,616,616,616,616,616,616,616,604,587,567,543,473,431,387,351,316,257,238,217,188,165,128,108,89],"timestamp_mouse":[11,34,50,71,90,111,131,151,171,190,210,230,250,271,290,311,330,349,371,390,411,431,450,470,490,510,530,550,570,590,610,631,651,670,690,711,731,751,771,790,810,831,850,871],"xSR":741.5,"ySR":573.95,"xT1":424.9,"yT1":0,"xT2":1058.1,"yT2":0,"toosoon":0,"cond_shown":"equaldotsize","ratio_trial":500,"smaller_num":"10","larger_num":"20","correct_side":2,"subjID":"TomasNope35","gender":"0","age":"8","school":"4"},{"start_time":1552328201171,"click_time":1552328202611,"finger_time":1552328201792,"fix_duration":656.9748888067808,"trial":20,"RT":621,"MT":819,"sideResp":2,"stimulus":"img/900/equaldotsize/R/11_Ratio_900_L_18_R_20.png","xmouse":[787,787,787,787,787,787,787,787,787,787,787,787,787,787,787,787,787,787,788,788,788,788,788,788,788,788,788,788,791,793,799,819,832,841,849,856,861,868,873,877,884,900,916,921,926,929,933,939,941,946,948,951,964,976,989,1005,1032,1038,1040,1042,1042,1042,1043,1047,1050,1053,1055,1059,1060,1061,1061,1061,1062],"ymouse":[624,624,624,624,624,624,624,624,624,624,624,624,624,624,624,624,624,624,624,624,624,624,624,624,624,624,624,624,619,611,598,563,534,514,497,480,470,453,445,437,424,391,361,348,337,330,318,311,306,295,288,280,248,229,208,189,155,147,143,141,141,140,139,133,128,121,116,107,104,102,101,100,99],"timestamp_mouse":[8,21,41,60,81,100,120,140,160,181,200,220,240,261,281,301,321,341,361,381,401,421,441,460,480,499,521,541,561,580,601,621,640,661,680,700,720,741,760,781,800,821,840,860,881,900,921,939,960,980,1000,1021,1040,1060,1081,1100,1121,1140,1160,1181,1201,1221,1241,1261,1281,1300,1320,1341,1360,1380,1401,1422,1440],"xSR":741.5,"ySR":573.95,"xT1":424.9,"yT1":0,"xT2":1058.1,"yT2":0,"toosoon":0,"cond_shown":"equaldotsize","ratio_trial":900,"smaller_num":"18","larger_num":"20","correct_side":2,"subjID":"TomasNope35","gender":"0","age":"8","school":"4"},{"start_time":1552328204294,"click_time":1552328205292,"finger_time":1552328204932,"fix_duration":801.362384295969,"trial":21,"RT":638,"MT":360,"sideResp":2,"stimulus":"img/250/equaldotanddens/R/13_Ratio_250_L_2_R_8.png","xmouse":[759,759,759,759,759,759,759,759,759,759,759,759,759,759,759,759,762,764,764,764,764,764,764,764,764,764,764,764,764,767,774,789,804,823,862,886,897,908,916,926,945,954,962,966,974,1009,1026,1043,1052,1071],"ymouse":[613,613,613,613,613,613,613,613,613,613,613,613,613,613,613,613,613,612,612,612,612,612,612,612,612,612,612,612,612,609,596,573,545,504,417,362,335,300,270,247,212,199,184,175,163,124,107,88,76,55],"timestamp_mouse":[19,36,57,77,98,117,138,157,178,197,218,237,257,278,298,317,337,357,378,397,417,437,458,478,498,517,537,558,578,597,618,638,657,678,698,717,737,758,777,797,818,838,858,877,898,918,938,958,977,998],"xSR":741.5,"ySR":573.95,"xT1":424.9,"yT1":0,"xT2":1058.1,"yT2":0,"toosoon":0,"cond_shown":"equaldotanddens","ratio_trial":250,"smaller_num":"2","larger_num":"8","correct_side":2,"subjID":"TomasNope35","gender":"0","age":"8","school":"4"},{"start_time":1552328207067,"click_time":1552328208092,"finger_time":1552328207592,"fix_duration":773.399652552586,"trial":22,"RT":525,"MT":500,"sideResp":2,"stimulus":"img/750/equaldotanddens/R/4_Ratio_750_L_15_R_20.png","xmouse":[797,797,797,797,797,797,797,797,797,797,797,797,798,798,799,801,803,808,813,817,821,826,827,827,828,829,833,839,846,854,864,893,916,939,962,984,1004,1016,1016,1016,1016,1015,1014,1014,1014,1014,1014,1019,1027,1040,1052,1067],"ymouse":[641,641,641,641,641,641,641,641,641,641,641,641,641,641,640,638,633,625,615,608,598,587,584,583,581,581,571,560,549,534,517,463,419,362,306,255,211,160,148,141,138,131,119,116,114,114,114,113,111,106,100,89],"timestamp_mouse":[9,25,44,70,83,104,123,144,165,184,205,225,244,265,285,304,324,345,364,385,404,425,445,465,485,504,525,544,564,585,604,625,644,664,684,704,725,744,764,784,804,824,845,865,885,904,925,944,964,985,1004,1025],"xSR":741.5,"ySR":573.95,"xT1":424.9,"yT1":0,"xT2":1058.1,"yT2":0,"toosoon":0,"cond_shown":"equaldotanddens","ratio_trial":750,"smaller_num":"15","larger_num":"20","correct_side":2,"subjID":"TomasNope35","gender":"0","age":"8","school":"4"},{"start_time":1552328209284,"click_time":1552328209971,"finger_time":1552328209752,"fix_duration":250,"trial":23,"RT":468,"MT":219,"sideResp":2,"stimulus":"img/750/equaldotsize/R/4_Ratio_750_L_15_R_20.png","xmouse":[793,793,793,793,793,793,793,790,788,786,786,786,786,786,786,786,788,789,790,793,804,812,822,830,844,885,901,919,941,966,994,1048,1074,1092,1104],"ymouse":[645,645,645,645,645,645,645,645,645,645,645,645,645,645,645,645,645,645,643,637,612,594,576,552,516,414,378,347,308,274,238,171,139,117,96],"timestamp_mouse":[17,39,47,67,88,107,127,147,167,188,207,228,248,268,288,308,326,348,368,388,408,428,448,468,488,508,527,548,568,588,607,628,647,668,687],"xSR":741.5,"ySR":573.95,"xT1":424.9,"yT1":0,"xT2":1058.1,"yT2":0,"toosoon":0,"cond_shown":"equaldotsize","ratio_trial":750,"smaller_num":"15","larger_num":"20","correct_side":2,"subjID":"TomasNope35","gender":"0","age":"8","school":"4"},{"start_time":1552328211419,"click_time":1552328212332,"finger_time":1552328211932,"fix_duration":525.2541250292282,"trial":24,"RT":513,"MT":400,"sideResp":2,"stimulus":"img/900/randomdotsizeEA/R/13_Ratio_900_L_18_R_20.png","xmouse":[801,801,801,801,801,801,801,801,801,801,801,801,801,801,801,801,801,801,801,801,801,801,801,803,823,845,865,881,899,910,917,924,930,951,956,961,966,973,982,1013,1029,1038,1049,1063,1067,1070],"ymouse":[613,613,613,613,613,613,613,613,613,613,613,613,613,613,613,613,613,613,613,613,613,613,613,613,614,614,614,614,605,583,561,537,510,417,387,364,338,312,282,214,188,166,145,111,101,92],"timestamp_mouse":[12,36,53,73,93,113,133,152,172,192,211,232,253,273,292,312,332,353,373,393,412,433,453,473,493,513,533,551,573,591,613,633,652,673,692,712,732,752,773,793,813,833,853,873,892,913],"xSR":741.5,"ySR":573.95,"xT1":424.9,"yT1":0,"xT2":1058.1,"yT2":0,"toosoon":0,"cond_shown":"randomdotsizeEA","ratio_trial":900,"smaller_num":"18","larger_num":"20","correct_side":2,"subjID":"TomasNope35","gender":"0","age":"8","school":"4"},{"start_time":1552328213982,"click_time":1552328214792,"finger_time":1552328214552,"fix_duration":829.705231511708,"trial":25,"RT":570,"MT":240,"sideResp":2,"stimulus":"img/250/equaldotsize/R/4_Ratio_250_L_3_R_12.png","xmouse":[769,769,769,769,769,769,769,769,769,769,769,769,769,769,769,769,769,769,769,769,769,769,769,769,769,770,779,804,832,869,902,983,1010,1028,1046,1073,1087,1101,1115,1129,1149],"ymouse":[625,625,625,625,625,625,625,625,625,625,625,625,625,625,625,625,625,625,625,625,625,625,625,625,625,625,621,591,559,516,478,349,310,285,260,211,190,169,149,129,97],"timestamp_mouse":[11,35,49,69,90,109,130,149,170,190,210,229,249,270,289,310,330,350,369,390,409,430,449,469,489,508,530,550,570,589,610,629,649,669,690,710,729,749,769,790,810],"xSR":741.5,"ySR":573.95,"xT1":424.9,"yT1":0,"xT2":1058.1,"yT2":0,"toosoon":0,"cond_shown":"equaldotsize","ratio_trial":250,"smaller_num":"3","larger_num":"12","correct_side":2,"subjID":"TomasNope35","gender":"0","age":"8","school":"4"},{"start_time":1552328215662,"click_time":1552328216771,"finger_time":1552328216231,"fix_duration":250,"trial":26,"RT":569,"MT":540,"sideResp":1,"stimulus":"img/500/randomdotsizeEA/L/13_Ratio_500_L_12_R_6.png","xmouse":[814,814,814,814,814,814,814,814,813,813,813,813,813,813,813,813,813,813,813,813,813,813,813,813,813,816,828,836,850,860,870,878,885,885,885,885,885,879,868,851,827,789,708,678,663,653,648,633,622,612,602,591,565,549,533,518],"ymouse":[656,655,653,651,650,649,648,644,642,641,640,639,639,639,639,639,639,639,639,639,639,639,639,637,635,631,613,598,564,540,518,491,454,444,440,440,439,438,436,426,406,371,294,261,243,228,217,198,184,174,161,151,120,102,84,66],"timestamp_mouse":[9,29,49,69,90,109,130,149,170,189,209,229,249,269,289,309,330,349,369,389,409,429,450,470,489,509,530,549,569,589,610,629,649,669,690,709,729,749,769,789,810,829,850,869,890,909,929,950,969,989,1010,1029,1049,1069,1089,1109],"xSR":741.5,"ySR":573.95,"xT1":424.9,"yT1":0,"xT2":1058.1,"yT2":0,"toosoon":0,"cond_shown":"randomdotsizeEA","ratio_trial":500,"smaller_num":"6","larger_num":"12","correct_side":1,"subjID":"TomasNope35","gender":"0","age":"8","school":"4"},{"start_time":1552328218621,"click_time":1552328220252,"finger_time":1552328219171,"fix_duration":928.3767428804534,"trial":27,"RT":550,"MT":1081,"sideResp":1,"stimulus":"img/900/randomdotsizeEA/R/11_Ratio_900_L_18_R_20.png","xmouse":[789,789,789,789,789,789,789,789,789,789,789,789,789,789,789,789,789,789,789,789,789,790,793,803,808,810,813,820,830,866,887,897,901,902,902,901,899,896,866,808,759,699,653,603,596,591,585,576,569,551,543,543,543,542,537,533,528,527,526,526,526,526,526,526,526,526,526,526,526,526,526,526,526,526,526,526,526,526,526,525,525,523],"ymouse":[597,597,597,597,597,597,597,597,597,597,597,597,597,597,597,597,597,597,597,597,597,597,597,593,591,589,583,573,555,476,417,391,363,348,330,327,325,325,313,279,246,203,164,120,113,109,106,105,102,96,94,94,94,94,93,92,91,91,90,90,90,90,90,90,90,90,90,90,90,90,90,90,90,90,90,90,90,90,90,90,90,90],"timestamp_mouse":[12,43,51,70,90,109,130,150,171,189,210,230,250,270,291,310,331,351,370,390,411,431,451,471,491,510,531,550,571,590,610,631,651,670,691,710,731,750,771,790,810,830,850,871,889,910,931,950,971,990,1010,1031,1050,1070,1090,1110,1131,1151,1171,1190,1210,1231,1249,1271,1291,1311,1331,1350,1371,1390,1410,1430,1451,1471,1491,1511,1531,1551,1570,1591,1611,1631],"xSR":741.5,"ySR":573.95,"xT1":424.9,"yT1":0,"xT2":1058.1,"yT2":0,"toosoon":0,"cond_shown":"randomdotsizeEA","ratio_trial":900,"smaller_num":"18","larger_num":"20","correct_side":2,"subjID":"TomasNope35","gender":"0","age":"8","school":"4"},{"start_time":1552328234844,"click_time":1552328235511,"finger_time":1552328235231,"fix_duration":250,"trial":28,"RT":387,"MT":280,"sideResp":2,"stimulus":"img/900/randomdotsizeEA/L/2_Ratio_900_L_20_R_18.png","xmouse":[769,769,769,769,769,769,769,769,769,769,769,769,769,769,769,769,769,769,789,816,838,864,919,932,946,951,952,953,955,960,967,982,1018,1104],"ymouse":[613,613,613,613,613,613,613,613,613,613,613,613,613,613,613,613,613,613,575,512,480,443,357,338,318,310,309,306,300,291,275,239,175,23],"timestamp_mouse":[8,35,47,68,87,107,127,148,167,187,207,228,247,268,287,307,327,347,368,387,407,427,448,467,487,507,527,548,567,587,607,628,647,667],"xSR":741.5,"ySR":573.95,"xT1":424.9,"yT1":0,"xT2":1058.1,"yT2":0,"toosoon":0,"cond_shown":"randomdotsizeEA","ratio_trial":900,"smaller_num":"18","larger_num":"20","correct_side":1,"subjID":"TomasNope35","gender":"0","age":"8","school":"4"},{"start_time":1552328242273,"click_time":1552328242852,"finger_time":1552328242792,"fix_duration":959.1915993233353,"trial":29,"RT":519,"MT":60,"sideResp":1,"stimulus":"img/250/equaldotanddens/L/15_Ratio_250_L_12_R_3.png","xmouse":[797,797,797,797,797,797,797,797,797,797,797,797,797,797,797,797,797,797,797,797,797,797,797,797,797,797,742,677,542,435],"ymouse":[638,638,638,636,633,631,630,629,629,629,629,629,629,629,629,629,629,629,629,629,629,629,629,629,628,621,524,432,244,93],"timestamp_mouse":[1,18,38,58,78,99,118,139,158,180,198,218,238,259,278,298,319,338,359,379,398,418,438,460,479,499,519,538,559,579],"xSR":741.5,"ySR":573.95,"xT1":424.9,"yT1":0,"xT2":1058.1,"yT2":0,"toosoon":0,"cond_shown":"equaldotanddens","ratio_trial":250,"smaller_num":"3","larger_num":"12","correct_side":1,"subjID":"TomasNope35","gender":"0","age":"8","school":"4"},{"start_time":1552328246215,"click_time":1552328247433,"finger_time":1552328246811,"fix_duration":881.9639310038806,"trial":30,"RT":596,"MT":622,"sideResp":2,"stimulus":"img/750/equaldotsize/R/4_Ratio_750_L_15_R_20.png","xmouse":[789,789,789,789,789,789,789,789,789,789,789,789,789,789,789,789,789,789,789,789,789,789,789,789,792,797,803,813,829,894,939,980,1026,1129,1173,1216,1260,1298,1327,1363,1365,1365,1365,1353,1335,1312,1290,1268,1254,1253,1253,1253,1253,1253,1253,1252,1251,1245,1207,1165,1142],"ymouse":[614,614,614,614,614,614,614,614,614,614,614,614,614,614,614,614,614,614,614,614,614,614,614,614,614,614,614,614,614,568,523,471,398,234,146,57,0,0,0,0,0,0,0,0,1,7,17,34,43,43,43,43,43,43,43,43,43,43,43,44,45],"timestamp_mouse":[22,38,57,77,96,118,136,157,176,196,216,237,258,277,297,316,336,356,377,396,417,436,456,476,496,516,536,557,576,596,617,636,656,677,696,716,736,757,776,797,816,836,857,878,897,916,936,956,978,996,1016,1037,1056,1077,1097,1116,1137,1156,1177,1196,1217],"xSR":741.5,"ySR":573.95,"xT1":424.9,"yT1":0,"xT2":1058.1,"yT2":0,"toosoon":0,"cond_shown":"equaldotsize","ratio_trial":750,"smaller_num":"15","larger_num":"20","correct_side":2,"subjID":"TomasNope35","gender":"0","age":"8","school":"4"},{"start_time":1552328248590,"click_time":1552328249352,"finger_time":1552328249172,"fix_duration":357.62506636821865,"trial":31,"RT":582,"MT":180,"sideResp":1,"stimulus":"img/500/randomdotsizeEA/L/8_Ratio_500_L_8_R_4.png","xmouse":[795,795,795,795,795,795,795,795,795,795,795,795,795,795,795,795,795,795,795,795,795,795,795,795,795,795,794,792,789,781,769,714,679,650,622,576,557,542,523],"ymouse":[599,599,599,599,599,599,599,599,599,599,599,599,599,599,599,599,599,599,599,599,599,599,599,599,598,595,584,579,574,560,544,461,411,368,318,219,178,141,98],"timestamp_mouse":[9,22,42,62,82,101,122,142,162,182,203,222,242,261,281,301,322,342,361,382,402,422,441,461,481,502,522,541,562,582,601,621,642,662,681,702,721,741,762],"xSR":741.5,"ySR":573.95,"xT1":424.9,"yT1":0,"xT2":1058.1,"yT2":0,"toosoon":0,"cond_shown":"randomdotsizeEA","ratio_trial":500,"smaller_num":"4","larger_num":"8","correct_side":1,"subjID":"TomasNope35","gender":"0","age":"8","school":"4"},{"start_time":1552328250789,"click_time":1552328252212,"finger_time":1552328251192,"fix_duration":635.1987327654257,"trial":32,"RT":403,"MT":1020,"sideResp":1,"stimulus":"img/500/randomdotsizeEA/L/13_Ratio_500_L_12_R_6.png","xmouse":[789,789,789,789,789,789,789,789,789,789,789,789,789,789,789,789,790,792,794,797,804,816,825,838,852,873,889,906,925,949,985,1000,1004,1004,1004,1004,1004,1004,1004,1007,1008,1016,1025,1032,1043,1061,1066,1066,1066,1066,1066,1063,1043,1016,969,904,770,727,701,689,684,675,670,659,647,629,616,600,583,564,541,501],"ymouse":[602,602,602,602,602,602,602,602,602,602,602,602,602,602,601,597,594,590,586,581,571,557,543,525,501,463,440,402,356,294,170,108,80,64,58,55,55,54,48,45,44,46,57,70,87,105,107,107,107,107,107,107,107,107,107,107,127,131,136,136,136,136,136,131,123,105,93,84,75,70,66,64],"timestamp_mouse":[20,32,42,62,82,102,122,143,163,182,203,223,244,262,282,304,323,342,363,382,403,422,443,462,483,503,522,542,563,582,603,622,643,663,683,703,724,742,763,783,802,823,843,863,883,903,922,944,962,983,1003,1023,1043,1062,1082,1102,1123,1142,1162,1182,1203,1222,1242,1263,1282,1303,1322,1343,1363,1383,1403,1423],"xSR":741.5,"ySR":573.95,"xT1":424.9,"yT1":0,"xT2":1058.1,"yT2":0,"toosoon":0,"cond_shown":"randomdotsizeEA","ratio_trial":500,"smaller_num":"6","larger_num":"12","correct_side":1,"subjID":"TomasNope35","gender":"0","age":"8","school":"4"},{"start_time":1552328254003,"click_time":1552328254752,"finger_time":1552328254352,"fix_duration":709.4593330665388,"trial":33,"RT":349,"MT":400,"sideResp":1,"stimulus":"img/250/randomdotsizeEA/L/5_Ratio_250_L_24_R_6.png","xmouse":[787,787,787,787,787,787,787,787,787,787,787,787,787,787,788,798,819,849,879,912,953,954,954,954,954,954,948,936,909,861,730,628,559,508,476,456,455,452],"ymouse":[592,592,592,592,592,592,592,592,592,592,592,592,592,592,592,590,576,549,514,468,382,372,371,371,371,370,367,361,342,290,129,7,0,0,0,0,0,1],"timestamp_mouse":[8,37,49,68,89,108,129,148,169,189,208,229,248,269,288,308,328,349,369,389,408,429,449,469,489,508,529,549,568,588,608,629,649,668,688,708,729,749],"xSR":741.5,"ySR":573.95,"xT1":424.9,"yT1":0,"xT2":1058.1,"yT2":0,"toosoon":0,"cond_shown":"randomdotsizeEA","ratio_trial":250,"smaller_num":"6","larger_num":"24","correct_side":1,"subjID":"TomasNope35","gender":"0","age":"8","school":"4"},{"start_time":1552328255945,"click_time":1552328257611,"finger_time":1552328256471,"fix_duration":250,"trial":34,"RT":526,"MT":1140,"sideResp":2,"stimulus":"img/900/randomdotsizeEA/L/8_Ratio_900_L_20_R_18.png","xmouse":[771,771,771,771,771,771,771,771,771,771,771,771,771,771,771,771,771,771,771,775,777,780,788,798,805,820,838,855,896,921,950,976,992,1004,1004,1004,1004,1006,1011,1013,1015,1017,1022,1055,1068,1079,1084,1085,1086,1086,1086,1086,1086,1087,1089,1090,1090,1090,1090,1091,1091,1091,1091,1091,1091,1091,1090,1081,1065,1045,1028,1013,1003,988,981,979,979,979,985,1001,1024,1051,1064,1073],"ymouse":[627,627,627,627,627,627,627,627,627,627,627,627,627,627,627,627,627,627,626,621,617,610,604,597,591,578,559,535,421,354,285,218,175,114,106,102,100,95,89,88,87,87,88,111,119,122,122,122,117,117,117,117,116,115,113,109,107,105,105,103,103,103,103,103,103,103,103,102,102,102,102,109,117,147,167,175,179,180,181,181,177,158,136,82],"timestamp_mouse":[17,30,47,67,86,106,126,146,166,186,207,226,247,268,286,306,327,346,367,386,407,427,447,466,486,506,526,547,567,586,606,626,646,667,687,707,727,747,766,786,807,826,848,867,886,907,928,948,966,986,1007,1026,1047,1066,1086,1106,1126,1147,1166,1186,1206,1227,1247,1267,1286,1306,1327,1347,1366,1386,1407,1427,1446,1467,1487,1508,1527,1547,1566,1586,1606,1627,1646,1666],"xSR":741.5,"ySR":573.95,"xT1":424.9,"yT1":0,"xT2":1058.1,"yT2":0,"toosoon":0,"cond_shown":"randomdotsizeEA","ratio_trial":900,"smaller_num":"18","larger_num":"20","correct_side":1,"subjID":"TomasNope35","gender":"0","age":"8","school":"4"},{"start_time":1552328259215,"click_time":1552328260291,"finger_time":1552328259791,"fix_duration":641.5895905295426,"trial":35,"RT":576,"MT":500,"sideResp":1,"stimulus":"img/500/randomdotsizeEA/L/5_Ratio_500_L_4_R_2.png","xmouse":[745,745,745,745,745,745,745,745,745,745,745,747,752,757,758,758,758,758,758,758,758,758,758,759,762,762,760,745,737,675,617,525,411,312,231,220,219,219,219,221,227,244,283,355,512,546,560,566,566,540,533,530,527,524],"ymouse":[642,642,642,642,642,642,642,642,642,642,643,643,643,643,643,643,643,643,643,643,643,643,643,643,641,632,621,595,532,306,207,112,29,0,0,0,0,0,0,0,10,33,66,110,168,172,170,162,136,79,63,52,38,25],"timestamp_mouse":[17,36,57,76,97,117,138,158,177,197,217,237,257,276,296,317,337,357,377,396,417,436,457,477,497,517,536,557,576,596,617,636,656,676,697,716,736,756,776,796,816,836,856,878,897,917,936,956,976,996,1017,1036,1056,1076],"xSR":741.5,"ySR":573.95,"xT1":424.9,"yT1":0,"xT2":1058.1,"yT2":0,"toosoon":0,"cond_shown":"randomdotsizeEA","ratio_trial":500,"smaller_num":"2","larger_num":"4","correct_side":1,"subjID":"TomasNope35","gender":"0","age":"8","school":"4"},{"start_time":1552328261163,"click_time":1552328262211,"finger_time":1552328261592,"fix_duration":250,"trial":36,"RT":429,"MT":619,"sideResp":1,"stimulus":"img/750/equaldotanddens/L/10_Ratio_750_L_4_R_3.png","xmouse":[788,788,788,788,787,787,787,787,787,787,787,787,787,787,787,787,787,787,787,787,781,755,725,715,707,698,689,659,644,631,620,614,614,614,614,614,614,612,610,609,609,607,603,600,594,587,572,569,565,559,550,524,502],"ymouse":[647,634,629,627,626,626,626,626,626,626,626,626,626,626,626,626,626,626,625,621,603,541,484,462,441,416,394,345,325,312,303,298,298,297,292,287,271,259,248,239,232,227,216,211,206,201,193,192,189,184,175,139,96],"timestamp_mouse":[9,42,49,69,89,110,129,149,169,189,208,229,250,269,288,308,329,348,369,388,409,429,448,468,490,508,529,548,568,589,608,629,648,668,688,708,729,748,768,789,808,829,849,869,888,909,929,948,969,988,1008,1029,1048],"xSR":741.5,"ySR":573.95,"xT1":424.9,"yT1":0,"xT2":1058.1,"yT2":0,"toosoon":0,"cond_shown":"equaldotanddens","ratio_trial":750,"smaller_num":"3","larger_num":"4","correct_side":1,"subjID":"TomasNope35","gender":"0","age":"8","school":"4"},{"start_time":1552328264041,"click_time":1552328264633,"finger_time":1552328264392,"fix_duration":928.9920201150668,"trial":37,"RT":351,"MT":241,"sideResp":2,"stimulus":"img/900/equaldotsize/R/5_Ratio_900_L_9_R_10.png","xmouse":[804,804,804,804,804,804,804,804,804,804,804,804,804,804,804,804,803,802,804,812,822,833,875,902,934,959,991,1023,1098,1129],"ymouse":[603,603,603,603,603,603,603,603,603,603,603,603,603,603,603,603,598,565,542,519,503,489,450,416,379,341,292,245,129,71],"timestamp_mouse":[10,37,50,72,90,111,131,151,170,191,210,231,251,270,291,311,331,351,370,391,411,431,451,470,490,511,532,550,571,591],"xSR":741.5,"ySR":573.95,"xT1":424.9,"yT1":0,"xT2":1058.1,"yT2":0,"toosoon":0,"cond_shown":"equaldotsize","ratio_trial":900,"smaller_num":"9","larger_num":"10","correct_side":2,"subjID":"TomasNope35","gender":"0","age":"8","school":"4"},{"start_time":1552328266149,"click_time":1552328267211,"finger_time":1552328266812,"fix_duration":356.1599377323804,"trial":38,"RT":663,"MT":399,"sideResp":1,"stimulus":"img/500/randomdotsizeEA/L/4_Ratio_500_L_18_R_9.png","xmouse":[772,772,772,772,772,772,772,772,772,772,772,772,772,772,772,772,772,772,772,772,772,772,772,772,772,772,772,772,772,775,779,787,794,805,805,792,775,749,662,609,549,494,448,404,405,408,414,422,428,436,444,447,449,456],"ymouse":[626,626,626,626,626,626,626,626,626,626,626,626,626,626,626,626,626,626,626,626,626,626,626,626,626,626,626,626,625,617,611,597,583,538,499,477,455,432,366,319,256,182,114,23,12,5,0,0,0,0,0,0,0,7],"timestamp_mouse":[10,23,43,63,83,102,123,143,162,182,202,223,242,262,282,302,323,343,362,384,403,423,443,462,484,503,523,543,562,583,603,622,643,663,682,712,723,742,762,783,803,823,843,862,883,902,923,944,962,982,1002,1023,1043,1062],"xSR":741.5,"ySR":573.95,"xT1":424.9,"yT1":0,"xT2":1058.1,"yT2":0,"toosoon":0,"cond_shown":"randomdotsizeEA","ratio_trial":500,"smaller_num":"9","larger_num":"18","correct_side":1,"subjID":"TomasNope35","gender":"0","age":"8","school":"4"},{"start_time":1552328268324,"click_time":1552328269092,"finger_time":1552328268692,"fix_duration":250,"trial":39,"RT":368,"MT":400,"sideResp":2,"stimulus":"img/250/randomdotsizeEA/R/11_Ratio_250_L_3_R_12.png","xmouse":[786,786,786,786,786,786,786,786,786,786,786,786,786,786,786,786,786,786,793,800,802,803,803,803,804,804,806,811,826,833,838,843,851,863,902,948,975,1004,1062],"ymouse":[583,583,583,583,583,583,583,583,583,583,583,583,583,583,583,583,583,583,566,538,521,510,504,502,500,500,499,498,488,483,475,464,447,428,344,262,212,163,65],"timestamp_mouse":[8,34,48,67,87,108,128,147,167,188,207,228,248,268,288,308,327,348,368,387,408,428,448,467,488,508,528,548,568,587,607,627,647,667,688,708,728,747,768],"xSR":741.5,"ySR":573.95,"xT1":424.9,"yT1":0,"xT2":1058.1,"yT2":0,"toosoon":0,"cond_shown":"randomdotsizeEA","ratio_trial":250,"smaller_num":"3","larger_num":"12","correct_side":2,"subjID":"TomasNope35","gender":"0","age":"8","school":"4"},{"start_time":1552328270860,"click_time":1552328271912,"finger_time":1552328271312,"fix_duration":1067.4458096106812,"trial":40,"RT":452,"MT":600,"sideResp":1,"stimulus":"img/900/equaldotanddens/L/2_Ratio_900_L_20_R_18.png","xmouse":[792,792,792,792,792,792,792,792,792,792,792,792,792,794,795,796,798,800,802,806,810,814,821,822,822,818,803,790,777,762,745,722,670,647,633,619,608,605,603,600,595,583,570,556,542,532,528,528,528,528,528,527,522],"ymouse":[606,606,606,606,606,606,606,606,606,606,606,606,606,605,603,601,598,595,594,589,583,577,556,553,540,517,479,446,416,381,346,292,205,171,149,123,101,95,94,93,93,89,87,83,79,76,74,74,74,74,74,74,77],"timestamp_mouse":[12,34,52,72,91,111,131,151,171,191,212,232,252,271,292,311,332,352,372,392,411,431,452,471,492,511,532,551,571,591,611,632,652,672,692,711,732,751,771,791,811,832,851,871,892,912,932,952,972,991,1011,1032,1051],"xSR":741.5,"ySR":573.95,"xT1":424.9,"yT1":0,"xT2":1058.1,"yT2":0,"toosoon":0,"cond_shown":"equaldotanddens","ratio_trial":900,"smaller_num":"18","larger_num":"20","correct_side":1,"subjID":"TomasNope35","gender":"0","age":"8","school":"4"},{"start_time":1552328273335,"click_time":1552328274271,"finger_time":1552328273812,"fix_duration":422.0385863223062,"trial":41,"RT":477,"MT":459,"sideResp":1,"stimulus":"img/250/equaldotanddens/L/5_Ratio_250_L_24_R_6.png","xmouse":[783,783,783,783,783,783,783,783,783,783,783,783,783,783,783,783,783,783,783,783,783,784,784,784,784,783,779,767,718,680,635,599,570,535,531,529,529,530,532,534,536,536,533,515,513,513,508],"ymouse":[598,598,598,598,598,598,598,598,598,598,598,598,598,598,598,598,598,598,598,598,598,589,577,567,564,561,550,529,448,389,326,281,237,176,161,154,149,132,121,108,87,58,29,0,0,0,3],"timestamp_mouse":[16,38,57,77,96,116,137,157,178,196,216,236,257,277,296,316,336,356,376,396,417,437,457,477,497,517,536,556,577,596,617,637,656,677,696,716,737,757,776,797,817,836,857,876,896,917,936],"xSR":741.5,"ySR":573.95,"xT1":424.9,"yT1":0,"xT2":1058.1,"yT2":0,"toosoon":0,"cond_shown":"equaldotanddens","ratio_trial":250,"smaller_num":"6","larger_num":"24","correct_side":1,"subjID":"TomasNope35","gender":"0","age":"8","school":"4"},{"start_time":1552328275443,"click_time":1552328276593,"finger_time":1552328275812,"fix_duration":390.6687026791633,"trial":42,"RT":369,"MT":781,"sideResp":2,"stimulus":"img/750/randomdotsizeEA/R/12_Ratio_750_L_3_R_4.png","xmouse":[786,786,786,786,786,786,786,786,786,786,786,786,786,786,787,787,787,790,794,794,796,800,802,806,812,814,816,817,819,819,819,819,819,819,819,817,817,817,817,817,817,817,818,822,832,855,885,911,947,963,970,975,987,996,1005,1022,1039,1062],"ymouse":[608,608,608,608,608,608,608,608,608,608,608,608,608,608,602,597,593,583,564,560,553,543,534,519,505,494,489,482,475,468,467,467,467,466,466,465,465,465,465,465,465,465,465,465,465,461,445,424,378,342,324,306,268,243,218,180,139,65],"timestamp_mouse":[25,38,49,69,88,109,129,149,168,188,208,228,248,268,289,309,328,349,369,388,408,428,449,468,488,509,528,549,568,588,608,629,648,669,688,709,728,749,769,788,808,828,849,869,888,909,929,949,969,988,1009,1029,1049,1068,1089,1108,1129,1149],"xSR":741.5,"ySR":573.95,"xT1":424.9,"yT1":0,"xT2":1058.1,"yT2":0,"toosoon":0,"cond_shown":"randomdotsizeEA","ratio_trial":750,"smaller_num":"3","larger_num":"4","correct_side":2,"subjID":"TomasNope35","gender":"0","age":"8","school":"4"},{"start_time":1552328278582,"click_time":1552328279752,"finger_time":1552328279192,"fix_duration":1269.1393770716409,"trial":43,"RT":610,"MT":560,"sideResp":1,"stimulus":"img/900/randomdotsizeEA/L/4_Ratio_900_L_20_R_18.png","xmouse":[786,786,786,786,786,786,786,786,786,786,786,786,786,786,786,786,786,786,786,786,786,787,790,793,797,805,809,813,819,827,842,854,860,865,869,873,874,874,867,855,837,742,699,675,661,648,642,637,627,613,584,558,543,533,529,528,528,526,522],"ymouse":[647,647,647,647,647,647,647,647,647,647,647,647,647,647,647,647,647,647,647,647,647,645,643,641,637,630,626,622,615,603,575,546,528,514,500,486,464,445,423,396,371,280,254,240,231,216,207,200,188,171,146,125,113,104,100,99,99,99,96],"timestamp_mouse":[9,40,49,70,89,109,129,149,169,189,210,230,251,270,290,310,330,349,370,389,409,430,450,470,490,510,530,550,570,590,610,629,649,670,690,709,729,749,770,790,809,830,849,870,890,910,929,949,970,990,1010,1029,1050,1069,1090,1110,1129,1150,1170],"xSR":741.5,"ySR":573.95,"xT1":424.9,"yT1":0,"xT2":1058.1,"yT2":0,"toosoon":0,"cond_shown":"randomdotsizeEA","ratio_trial":900,"smaller_num":"18","larger_num":"20","correct_side":1,"subjID":"TomasNope35","gender":"0","age":"8","school":"4"},{"start_time":1552328282456,"click_time":1552328283112,"finger_time":1552328282951,"fix_duration":581.091652870013,"trial":44,"RT":495,"MT":161,"sideResp":1,"stimulus":"img/250/randomdotsizeEA/L/1_Ratio_250_L_8_R_2.png","xmouse":[789,789,789,789,789,789,789,789,789,789,789,789,789,789,789,789,789,789,789,789,789,789,789,790,783,760,722,621,584,557,532,516,506],"ymouse":[621,621,621,621,621,621,621,621,621,621,621,621,621,621,621,621,621,621,621,621,621,621,618,595,569,527,470,318,256,209,161,128,96],"timestamp_mouse":[16,35,56,76,95,116,136,155,175,196,216,235,256,276,296,315,336,355,376,396,416,435,456,475,495,515,535,556,576,596,616,635,656],"xSR":741.5,"ySR":573.95,"xT1":424.9,"yT1":0,"xT2":1058.1,"yT2":0,"toosoon":0,"cond_shown":"randomdotsizeEA","ratio_trial":250,"smaller_num":"2","larger_num":"8","correct_side":1,"subjID":"TomasNope35","gender":"0","age":"8","school":"4"},{"start_time":1552328283964,"click_time":1552328285072,"finger_time":1552328284572,"fix_duration":250,"trial":45,"RT":608,"MT":500,"sideResp":1,"stimulus":"img/750/equaldotanddens/L/6_Ratio_750_L_24_R_18.png","xmouse":[801,801,801,801,801,801,801,801,801,801,801,801,801,801,801,801,801,801,801,801,800,800,794,790,784,781,779,778,778,777,777,777,780,785,787,789,789,785,770,740,699,617,579,564,555,550,546,542,539,536,534,531,525,525,525,522],"ymouse":[642,640,639,639,639,639,639,639,639,639,639,639,639,639,639,639,639,639,639,639,636,634,617,608,596,589,586,581,580,576,573,570,558,545,533,515,474,456,427,374,319,233,191,177,168,164,163,161,159,156,153,145,95,68,41,23],"timestamp_mouse":[8,27,48,68,88,108,128,148,167,187,208,227,247,267,288,308,328,347,368,387,407,427,448,468,488,507,528,547,568,588,608,627,647,667,687,707,728,747,767,788,807,828,847,868,887,908,928,947,967,988,1007,1027,1048,1067,1088,1108],"xSR":741.5,"ySR":573.95,"xT1":424.9,"yT1":0,"xT2":1058.1,"yT2":0,"toosoon":0,"cond_shown":"equaldotanddens","ratio_trial":750,"smaller_num":"18","larger_num":"24","correct_side":1,"subjID":"TomasNope35","gender":"0","age":"8","school":"4"},{"start_time":1552328288164,"click_time":1552328289251,"finger_time":1552328288812,"fix_duration":250,"trial":46,"RT":648,"MT":439,"sideResp":2,"stimulus":"img/750/randomdotsizeEA/R/11_Ratio_750_L_12_R_16.png","xmouse":[809,809,809,809,809,809,809,809,809,809,810,810,810,810,810,810,810,810,810,810,810,810,810,810,810,810,810,810,810,810,811,813,830,846,868,897,950,963,969,982,989,995,1003,1008,1013,1020,1025,1036,1036,1037,1038,1041,1051,1055,1061],"ymouse":[624,624,624,621,620,619,618,617,616,616,615,615,615,615,615,615,615,615,615,615,615,615,613,610,609,608,607,605,605,605,603,598,570,541,508,460,385,361,349,323,310,301,289,282,273,260,243,197,179,164,149,131,91,77,61],"timestamp_mouse":[8,28,47,67,88,107,128,148,168,187,208,228,248,267,287,307,328,347,367,387,407,428,447,468,487,508,528,547,568,588,608,628,648,667,687,708,728,747,767,787,807,829,847,867,887,907,928,948,967,988,1008,1027,1048,1068,1087],"xSR":741.5,"ySR":573.95,"xT1":424.9,"yT1":0,"xT2":1058.1,"yT2":0,"toosoon":0,"cond_shown":"randomdotsizeEA","ratio_trial":750,"smaller_num":"12","larger_num":"16","correct_side":2,"subjID":"TomasNope35","gender":"0","age":"8","school":"4"},{"start_time":1552328290671,"click_time":1552328291892,"finger_time":1552328291112,"fix_duration":478.49759294478076,"trial":47,"RT":441,"MT":780,"sideResp":1,"stimulus":"img/900/randomdotsizeEA/R/11_Ratio_900_L_18_R_20.png","xmouse":[775,775,775,775,774,774,773,773,773,773,773,773,773,773,773,773,773,773,773,775,781,802,816,832,850,865,891,905,910,916,922,929,947,959,970,980,988,998,999,1000,1000,998,988,967,934,869,727,635,610,595,587,583,578,576,572,570,561,549,544,537,529,519],"ymouse":[618,618,618,618,618,618,618,618,618,618,618,618,618,618,618,618,618,618,615,612,604,580,562,543,520,500,463,439,426,414,398,380,340,319,298,282,270,247,245,244,244,244,242,237,227,210,155,108,89,77,69,65,62,62,60,59,58,57,57,57,56,54],"timestamp_mouse":[11,37,41,60,81,100,121,140,160,181,201,221,240,260,281,301,320,341,361,380,400,421,441,462,481,500,521,540,560,580,600,620,641,660,681,700,720,740,760,780,800,821,840,860,881,901,921,940,962,981,1000,1020,1040,1061,1080,1100,1121,1140,1161,1180,1201,1220],"xSR":741.5,"ySR":573.95,"xT1":424.9,"yT1":0,"xT2":1058.1,"yT2":0,"toosoon":0,"cond_shown":"randomdotsizeEA","ratio_trial":900,"smaller_num":"18","larger_num":"20","correct_side":2,"subjID":"TomasNope35","gender":"0","age":"8","school":"4"},{"start_time":1552328294325,"click_time":1552328294992,"finger_time":1552328294632,"fix_duration":1472.5312298707724,"trial":48,"RT":307,"MT":360,"sideResp":2,"stimulus":"img/500/equaldotsize/R/2_Ratio_500_L_3_R_6.png","xmouse":[794,794,794,794,794,794,794,794,794,794,794,794,794,794,811,827,842,857,872,896,908,918,927,942,954,966,979,992,1007,1030,1042,1057,1069,1088],"ymouse":[614,614,614,614,614,614,614,614,614,614,614,614,614,614,590,568,550,530,511,483,468,454,445,428,413,400,382,365,347,308,277,235,190,71],"timestamp_mouse":[8,28,47,66,86,106,126,147,166,186,207,227,246,267,286,307,326,347,366,387,406,426,447,467,486,506,526,546,566,587,606,626,647,667],"xSR":741.5,"ySR":573.95,"xT1":424.9,"yT1":0,"xT2":1058.1,"yT2":0,"toosoon":0,"cond_shown":"equaldotsize","ratio_trial":500,"smaller_num":"3","larger_num":"6","correct_side":2,"subjID":"TomasNope35","gender":"0","age":"8","school":"4"},{"start_time":1552328297333,"click_time":1552328297892,"finger_time":1552328297691,"fix_duration":1338.0364729615426,"trial":49,"RT":358,"MT":201,"sideResp":2,"stimulus":"img/900/equaldotanddens/R/3_Ratio_900_L_9_R_10.png","xmouse":[781,781,781,781,781,781,781,781,781,781,781,781,781,781,781,786,796,809,822,847,859,871,888,924,949,985,1011,1035,1060],"ymouse":[635,635,635,635,635,635,635,635,635,635,635,635,635,635,635,628,614,593,572,514,480,444,406,331,289,218,163,100,52],"timestamp_mouse":[5,22,41,59,78,99,119,138,159,178,199,219,239,259,280,299,318,338,358,379,398,418,439,459,478,499,519,538,559],"xSR":741.5,"ySR":573.95,"xT1":424.9,"yT1":0,"xT2":1058.1,"yT2":0,"toosoon":0,"cond_shown":"equaldotanddens","ratio_trial":900,"smaller_num":"9","larger_num":"10","correct_side":2,"subjID":"TomasNope35","gender":"0","age":"8","school":"4"},{"start_time":1552328301118,"click_time":1552328301831,"finger_time":1552328301493,"fix_duration":685.7058494981762,"trial":50,"RT":375,"MT":338,"sideResp":2,"stimulus":"img/250/randomdotsizeEA/R/12_Ratio_250_L_5_R_20.png","xmouse":[778,778,778,778,778,778,778,778,778,778,778,778,778,778,790,805,818,834,863,876,887,899,907,914,933,946,958,969,981,1004,1016,1028,1040,1052,1075,1088],"ymouse":[608,608,608,608,608,608,608,608,608,608,608,608,608,608,603,595,584,575,547,530,509,488,471,452,400,378,355,328,306,255,223,198,177,154,115,96],"timestamp_mouse":[13,36,53,74,93,114,134,155,174,193,214,234,253,273,293,314,333,355,375,393,413,433,454,473,493,514,533,554,573,593,613,634,654,674,694,713],"xSR":741.5,"ySR":573.95,"xT1":424.9,"yT1":0,"xT2":1058.1,"yT2":0,"toosoon":0,"cond_shown":"randomdotsizeEA","ratio_trial":250,"smaller_num":"5","larger_num":"20","correct_side":2,"subjID":"TomasNope35","gender":"0","age":"8","school":"4"},{"start_time":1552328303526,"click_time":1552328304432,"finger_time":1552328303871,"fix_duration":1131.1381749712598,"trial":51,"RT":345,"MT":561,"sideResp":2,"stimulus":"img/900/equaldotsize/R/11_Ratio_900_L_18_R_20.png","xmouse":[773,773,773,773,773,773,773,773,773,773,773,773,773,773,774,780,783,791,803,806,809,814,821,826,839,850,867,889,947,988,1029,1064,1087,1108,1164,1185,1198,1204,1206,1207,1205,1205,1202,1195,1163,1136],"ymouse":[604,604,604,604,604,604,604,604,604,604,604,604,604,604,605,598,585,565,507,482,460,441,423,407,368,350,329,310,266,238,211,189,173,161,119,91,57,18,0,0,0,0,0,0,3,19],"timestamp_mouse":[10,32,45,65,86,105,127,146,166,186,205,226,246,265,286,306,326,345,366,385,405,426,445,465,486,506,526,546,566,585,607,625,645,665,686,706,725,745,765,786,805,826,845,867,885,905],"xSR":741.5,"ySR":573.95,"xT1":424.9,"yT1":0,"xT2":1058.1,"yT2":0,"toosoon":0,"cond_shown":"equaldotsize","ratio_trial":900,"smaller_num":"18","larger_num":"20","correct_side":2,"subjID":"TomasNope35","gender":"0","age":"8","school":"4"},{"start_time":1552328306922,"click_time":1552328307572,"finger_time":1552328307252,"fix_duration":1068.75354220765,"trial":52,"RT":330,"MT":320,"sideResp":2,"stimulus":"img/750/randomdotsizeEA/L/1_Ratio_750_L_20_R_15.png","xmouse":[811,811,811,811,811,811,811,811,811,811,811,811,811,811,818,827,841,857,893,913,934,959,980,1013,1035,1048,1058,1068,1092,1101,1106,1109,1109],"ymouse":[594,594,594,594,594,594,594,594,594,594,594,594,594,594,592,584,572,556,517,491,464,437,415,367,331,304,279,251,176,145,124,106,91],"timestamp_mouse":[12,31,50,70,89,111,130,149,170,189,209,229,251,270,289,309,330,349,371,389,410,430,451,470,489,509,529,550,570,589,610,629,650],"xSR":741.5,"ySR":573.95,"xT1":424.9,"yT1":0,"xT2":1058.1,"yT2":0,"toosoon":0,"cond_shown":"randomdotsizeEA","ratio_trial":750,"smaller_num":"15","larger_num":"20","correct_side":1,"subjID":"TomasNope35","gender":"0","age":"8","school":"4"},{"start_time":1552328308924,"click_time":1552328309633,"finger_time":1552328309411,"fix_duration":250,"trial":53,"RT":487,"MT":222,"sideResp":1,"stimulus":"img/750/randomdotsizeEA/L/13_Ratio_750_L_8_R_6.png","xmouse":[794,794,794,794,794,794,794,794,794,794,794,794,794,794,794,794,794,794,794,794,794,802,806,815,823,825,825,821,789,759,720,679,628,549,530,513],"ymouse":[636,636,636,636,636,636,636,636,636,636,636,636,636,636,636,636,636,636,636,636,636,628,621,604,573,553,525,501,419,366,304,246,185,82,50,10],"timestamp_mouse":[9,33,47,68,87,107,129,147,168,189,208,227,247,268,287,308,328,347,368,388,408,428,448,467,487,508,528,547,568,587,607,628,648,668,687,709],"xSR":741.5,"ySR":573.95,"xT1":424.9,"yT1":0,"xT2":1058.1,"yT2":0,"toosoon":0,"cond_shown":"randomdotsizeEA","ratio_trial":750,"smaller_num":"6","larger_num":"8","correct_side":1,"subjID":"TomasNope35","gender":"0","age":"8","school":"4"},{"start_time":1552328312238,"click_time":1552328312892,"finger_time":1552328312632,"fix_duration":404.94179267105255,"trial":54,"RT":394,"MT":260,"sideResp":2,"stimulus":"img/900/equaldotsize/R/15_Ratio_900_L_9_R_10.png","xmouse":[789,789,789,789,789,789,789,789,789,789,789,789,789,789,789,789,794,804,813,830,847,864,883,927,960,1000,1043,1084,1137,1144,1148,1150,1150],"ymouse":[616,616,616,616,616,616,616,616,616,616,616,616,616,616,616,616,606,590,578,558,544,531,518,483,454,411,364,314,206,174,148,121,98],"timestamp_mouse":[14,34,54,73,93,113,134,155,174,194,213,234,254,273,293,314,334,354,374,394,414,433,453,473,494,513,534,554,573,594,613,633,654],"xSR":741.5,"ySR":573.95,"xT1":424.9,"yT1":0,"xT2":1058.1,"yT2":0,"toosoon":0,"cond_shown":"equaldotsize","ratio_trial":900,"smaller_num":"9","larger_num":"10","correct_side":2,"subjID":"TomasNope35","gender":"0","age":"8","school":"4"},{"start_time":1552328314853,"click_time":1552328315611,"finger_time":1552328315292,"fix_duration":1121.28589887401,"trial":55,"RT":439,"MT":319,"sideResp":1,"stimulus":"img/250/equaldotanddens/L/1_Ratio_250_L_8_R_2.png","xmouse":[797,797,797,797,797,797,797,797,797,797,797,797,797,797,797,797,797,797,797,796,794,782,770,757,740,719,678,642,617,597,587,571,567,562,557,546,526,508],"ymouse":[582,582,582,582,582,582,582,582,582,582,582,582,582,582,582,582,582,582,582,581,575,532,503,476,449,416,354,303,268,233,213,183,173,164,155,142,116,89],"timestamp_mouse":[18,39,59,80,99,119,138,159,179,199,220,239,258,279,298,318,339,359,379,399,418,439,458,479,499,519,539,558,579,598,618,639,658,678,699,718,740,758],"xSR":741.5,"ySR":573.95,"xT1":424.9,"yT1":0,"xT2":1058.1,"yT2":0,"toosoon":0,"cond_shown":"equaldotanddens","ratio_trial":250,"smaller_num":"2","larger_num":"8","correct_side":1,"subjID":"TomasNope35","gender":"0","age":"8","school":"4"},{"start_time":1552328317075,"click_time":1552328318072,"finger_time":1552328317371,"fix_duration":442.8001096197961,"trial":56,"RT":296,"MT":701,"sideResp":1,"stimulus":"img/500/randomdotsizeEA/L/8_Ratio_500_L_8_R_4.png","xmouse":[793,793,793,793,793,793,793,793,793,793,793,793,793,795,796,800,808,815,823,830,847,856,866,878,889,913,924,926,927,927,925,889,857,816,771,732,717,717,717,715,702,640,600,567,546,538,537,533,525,516],"ymouse":[574,574,574,574,574,574,574,574,574,574,574,574,574,574,571,562,538,522,507,491,466,456,444,430,415,387,371,366,362,360,358,344,330,309,286,263,255,255,255,253,245,196,162,133,109,98,95,95,94,92],"timestamp_mouse":[20,41,58,77,97,117,136,156,177,197,217,237,257,277,296,317,336,356,376,397,417,436,457,477,496,517,536,557,577,596,616,637,656,677,696,717,738,757,777,796,817,837,857,877,896,916,938,956,977,997],"xSR":741.5,"ySR":573.95,"xT1":424.9,"yT1":0,"xT2":1058.1,"yT2":0,"toosoon":0,"cond_shown":"randomdotsizeEA","ratio_trial":500,"smaller_num":"4","larger_num":"8","correct_side":1,"subjID":"TomasNope35","gender":"0","age":"8","school":"4"},{"start_time":1552328319914,"click_time":1552328320852,"finger_time":1552328320192,"fix_duration":920.7294727149075,"trial":57,"RT":278,"MT":660,"sideResp":2,"stimulus":"img/500/equaldotsize/R/15_Ratio_500_L_1_R_2.png","xmouse":[779,779,779,779,780,780,782,783,786,787,790,792,794,801,809,817,829,844,877,891,905,918,931,951,964,971,981,990,999,1015,1025,1030,1032,1032,1031,1031,1031,1031,1031,1031,1031,1034,1040,1045,1075,1083,1094],"ymouse":[595,595,595,595,595,594,593,592,586,584,580,577,574,566,557,547,538,527,498,482,461,438,417,383,363,349,330,308,282,231,206,186,167,149,146,145,145,145,144,140,136,132,128,124,108,102,91],"timestamp_mouse":[18,39,58,78,98,118,137,157,178,198,218,238,257,278,297,317,337,358,378,397,418,437,458,478,497,517,537,558,577,597,617,637,657,678,697,718,737,757,778,798,817,838,857,877,897,917,938],"xSR":741.5,"ySR":573.95,"xT1":424.9,"yT1":0,"xT2":1058.1,"yT2":0,"toosoon":0,"cond_shown":"equaldotsize","ratio_trial":500,"smaller_num":"1","larger_num":"2","correct_side":2,"subjID":"TomasNope35","gender":"0","age":"8","school":"4"},{"start_time":1552328324368,"click_time":1552328325112,"finger_time":1552328324952,"fix_duration":1234.038583210484,"trial":58,"RT":584,"MT":160,"sideResp":2,"stimulus":"img/250/randomdotsizeEA/R/9_Ratio_250_L_3_R_12.png","xmouse":[793,794,795,795,795,795,795,795,795,795,795,795,795,795,795,795,795,795,795,795,795,795,795,795,796,798,805,812,819,829,844,882,926,962,1001,1039,1074,1131],"ymouse":[620,620,618,616,615,614,614,614,614,614,614,614,614,614,614,614,614,614,614,614,614,614,614,614,614,613,605,595,585,572,552,500,432,385,333,278,212,90],"timestamp_mouse":[11,27,52,63,84,103,124,143,165,183,204,224,245,264,283,304,325,343,363,384,403,423,444,464,483,503,524,544,564,584,604,624,643,663,683,704,723,744],"xSR":741.5,"ySR":573.95,"xT1":424.9,"yT1":0,"xT2":1058.1,"yT2":0,"toosoon":0,"cond_shown":"randomdotsizeEA","ratio_trial":250,"smaller_num":"3","larger_num":"12","correct_side":2,"subjID":"TomasNope35","gender":"0","age":"8","school":"4"},{"start_time":1552328327365,"click_time":1552328328172,"finger_time":1552328327892,"fix_duration":1072.6437930713435,"trial":59,"RT":527,"MT":280,"sideResp":1,"stimulus":"img/250/randomdotsizeEA/L/5_Ratio_250_L_24_R_6.png","xmouse":[776,767,760,760,760,760,760,760,760,760,760,760,760,760,760,760,760,760,760,760,764,777,792,798,808,819,836,841,841,842,842,841,831,815,784,733,684,581,544,521,499],"ymouse":[612,611,610,610,610,610,610,610,610,610,610,610,610,610,610,610,610,610,610,610,610,604,598,595,589,582,569,565,564,562,560,552,543,535,517,482,438,279,190,116,43],"timestamp_mouse":[8,33,46,66,86,106,126,146,167,187,206,226,247,266,287,306,327,346,366,386,406,427,446,467,486,507,527,546,567,586,606,627,646,668,687,707,726,747,766,787,806],"xSR":741.5,"ySR":573.95,"xT1":424.9,"yT1":0,"xT2":1058.1,"yT2":0,"toosoon":0,"cond_shown":"randomdotsizeEA","ratio_trial":250,"smaller_num":"6","larger_num":"24","correct_side":1,"subjID":"TomasNope35","gender":"0","age":"8","school":"4"},{"start_time":1552328330213,"click_time":1552328330892,"finger_time":1552328330592,"fix_duration":1058.546093157472,"trial":60,"RT":379,"MT":300,"sideResp":1,"stimulus":"img/250/equaldotanddens/L/2_Ratio_250_L_16_R_4.png","xmouse":[801,801,801,801,801,801,801,801,801,801,801,801,801,801,801,801,801,799,788,769,758,744,723,680,657,636,617,597,570,556,548,533,515,478],"ymouse":[612,612,612,612,612,612,612,612,612,612,612,612,612,612,612,611,604,581,542,501,484,466,440,368,324,275,232,195,149,131,124,116,104,77],"timestamp_mouse":[26,39,59,79,100,118,139,158,178,198,218,239,259,279,299,318,338,358,379,398,419,438,459,479,498,518,539,558,579,598,618,639,658,679],"xSR":741.5,"ySR":573.95,"xT1":424.9,"yT1":0,"xT2":1058.1,"yT2":0,"toosoon":0,"cond_shown":"equaldotanddens","ratio_trial":250,"smaller_num":"4","larger_num":"16","correct_side":1,"subjID":"TomasNope35","gender":"0","age":"8","school":"4"},{"start_time":1552328332960,"click_time":1552328333752,"finger_time":1552328333511,"fix_duration":1247.1381142104815,"trial":61,"RT":551,"MT":241,"sideResp":1,"stimulus":"img/500/equaldotsize/L/8_Ratio_500_L_8_R_4.png","xmouse":[808,806,806,806,806,806,806,806,806,806,806,806,806,806,806,806,806,806,806,806,806,804,803,801,799,795,789,771,753,727,692,655,588,547,530,521,513,509,505,499],"ymouse":[600,600,600,600,600,600,600,600,600,600,600,600,600,600,600,600,600,600,600,600,600,600,598,596,593,587,580,550,520,475,411,349,254,198,173,155,132,120,107,92],"timestamp_mouse":[12,36,51,71,92,112,132,152,171,191,212,232,251,271,292,312,331,351,373,392,411,431,452,471,492,512,532,551,571,592,612,631,652,672,693,712,732,751,771,792],"xSR":741.5,"ySR":573.95,"xT1":424.9,"yT1":0,"xT2":1058.1,"yT2":0,"toosoon":0,"cond_shown":"equaldotsize","ratio_trial":500,"smaller_num":"4","larger_num":"8","correct_side":1,"subjID":"TomasNope35","gender":"0","age":"8","school":"4"},{"start_time":1552328335066,"click_time":1552328335592,"finger_time":1552328335392,"fix_duration":452.3027259315989,"trial":62,"RT":326,"MT":200,"sideResp":1,"stimulus":"img/250/equaldotsize/L/14_Ratio_250_L_12_R_3.png","xmouse":[768,768,768,768,768,768,768,768,769,770,770,770,770,770,772,773,775,775,758,736,717,681,590,555,531,511,482],"ymouse":[593,593,593,593,593,593,593,593,593,592,592,592,591,591,590,586,567,545,487,441,395,328,204,155,126,104,78],"timestamp_mouse":[11,25,46,65,85,105,125,146,166,186,206,226,247,266,285,306,326,345,366,387,405,426,446,465,486,505,526],"xSR":741.5,"ySR":573.95,"xT1":424.9,"yT1":0,"xT2":1058.1,"yT2":0,"toosoon":0,"cond_shown":"equaldotsize","ratio_trial":250,"smaller_num":"3","larger_num":"12","correct_side":1,"subjID":"TomasNope35","gender":"0","age":"8","school":"4"},{"start_time":1552328337778,"click_time":1552328338512,"finger_time":1552328338252,"fix_duration":1404.04369761098,"trial":63,"RT":474,"MT":260,"sideResp":1,"stimulus":"img/500/equaldotanddens/L/4_Ratio_500_L_18_R_9.png","xmouse":[794,794,794,794,794,794,794,794,794,794,794,794,794,794,794,794,794,794,794,794,794,794,793,772,735,606,555,520,500,490,485,481,481,481,481,480,477],"ymouse":[592,592,592,592,592,592,592,592,592,592,592,592,592,592,592,592,592,592,592,592,592,592,584,546,496,333,260,206,169,142,127,114,111,110,107,102,93],"timestamp_mouse":[13,36,54,75,94,114,134,155,173,194,213,233,254,275,294,313,334,354,374,394,414,434,454,474,493,514,533,554,574,593,613,634,653,674,694,714,734],"xSR":741.5,"ySR":573.95,"xT1":424.9,"yT1":0,"xT2":1058.1,"yT2":0,"toosoon":0,"cond_shown":"equaldotanddens","ratio_trial":500,"smaller_num":"9","larger_num":"18","correct_side":1,"subjID":"TomasNope35","gender":"0","age":"8","school":"4"},{"start_time":1552328339982,"click_time":1552328341432,"finger_time":1552328340351,"fix_duration":609.9663004628256,"trial":64,"RT":369,"MT":1081,"sideResp":1,"stimulus":"img/750/randomdotsizeEA/R/5_Ratio_750_L_15_R_20.png","xmouse":[794,794,794,794,794,794,794,794,794,794,794,794,794,794,793,792,791,786,778,774,760,743,738,736,736,736,733,729,726,722,719,719,719,722,728,758,785,826,865,900,942,949,949,949,941,862,776,685,601,568,565,571,600,606,606,606,605,605,605,601,583,576,574,567,558,543,542,541,541,540,534,526,522],"ymouse":[597,597,597,597,597,597,597,597,597,597,597,597,597,597,597,597,592,574,548,519,472,422,410,407,406,406,405,401,397,393,385,380,379,378,378,378,375,368,363,358,344,339,338,338,334,304,268,233,207,199,197,197,197,197,197,198,198,198,198,198,166,136,121,103,89,74,73,72,72,72,72,74,75],"timestamp_mouse":[10,36,50,69,89,110,129,149,170,189,211,231,250,270,290,310,330,349,369,389,409,430,449,469,489,510,530,550,570,589,610,630,649,671,690,710,729,749,769,789,810,829,849,870,891,910,929,949,970,990,1010,1030,1050,1070,1089,1110,1129,1150,1170,1190,1210,1229,1249,1270,1291,1310,1329,1349,1369,1390,1410,1429,1449],"xSR":741.5,"ySR":573.95,"xT1":424.9,"yT1":0,"xT2":1058.1,"yT2":0,"toosoon":0,"cond_shown":"randomdotsizeEA","ratio_trial":750,"smaller_num":"15","larger_num":"20","correct_side":2,"subjID":"TomasNope35","gender":"0","age":"8","school":"4"},{"start_time":1552328348880,"click_time":1552328349692,"finger_time":1552328349371,"fix_duration":1387.1256276946026,"trial":65,"RT":491,"MT":321,"sideResp":2,"stimulus":"img/900/equaldotsize/L/4_Ratio_900_L_20_R_18.png","xmouse":[795,795,795,795,795,795,795,795,795,795,795,795,795,795,795,795,795,795,795,795,793,781,779,779,780,788,800,809,820,832,858,868,879,891,909,936,1000,1017,1033,1048,1065],"ymouse":[616,616,616,616,616,616,616,616,616,616,616,616,616,616,616,616,616,616,616,616,604,582,578,577,573,562,547,534,517,498,429,393,355,311,273,241,176,145,116,96,78],"timestamp_mouse":[11,34,51,72,92,111,132,151,172,192,212,231,251,272,292,312,331,351,371,392,412,432,451,472,491,512,531,553,572,591,612,631,652,673,691,712,732,751,772,791,812],"xSR":741.5,"ySR":573.95,"xT1":424.9,"yT1":0,"xT2":1058.1,"yT2":0,"toosoon":0,"cond_shown":"equaldotsize","ratio_trial":900,"smaller_num":"18","larger_num":"20","correct_side":1,"subjID":"TomasNope35","gender":"0","age":"8","school":"4"},{"start_time":1552328353785,"click_time":1552328354933,"finger_time":1552328354212,"fix_duration":1391.9128706453967,"trial":66,"RT":427,"MT":721,"sideResp":2,"stimulus":"img/750/equaldotsize/R/12_Ratio_750_L_3_R_4.png","xmouse":[808,808,808,808,808,808,808,808,808,808,808,808,808,808,808,808,808,808,808,808,811,813,804,785,761,729,725,724,724,725,729,735,750,772,814,866,987,1051,1113,1165,1218,1227,1229,1231,1232,1233,1233,1233,1232,1229,1221,1185,1174,1169,1166,1164,1160,1158],"ymouse":[639,639,638,636,634,633,631,630,630,629,629,629,629,629,629,629,629,629,627,623,595,549,489,421,359,284,264,253,248,246,238,230,220,213,206,196,160,133,106,80,34,17,5,0,0,0,0,0,0,0,0,4,10,14,17,17,18,18],"timestamp_mouse":[12,33,46,66,86,107,127,146,167,186,207,226,246,267,287,308,326,346,366,386,407,427,446,467,487,507,526,546,567,588,607,626,647,666,687,706,727,746,766,787,807,826,847,866,887,908,927,947,966,986,1006,1026,1047,1066,1087,1106,1126,1148],"xSR":741.5,"ySR":573.95,"xT1":424.9,"yT1":0,"xT2":1058.1,"yT2":0,"toosoon":0,"cond_shown":"equaldotsize","ratio_trial":750,"smaller_num":"3","larger_num":"4","correct_side":2,"subjID":"TomasNope35","gender":"0","age":"8","school":"4"},{"start_time":1552328357701,"click_time":1552328358411,"finger_time":1552328358131,"fix_duration":508.33145401520943,"trial":67,"RT":430,"MT":280,"sideResp":2,"stimulus":"img/900/equaldotanddens/L/1_Ratio_900_L_10_R_9.png","xmouse":[794,794,794,794,794,794,794,794,794,794,794,794,794,794,795,797,798,798,799,799,802,808,818,826,839,845,852,860,870,884,927,964,1004,1041,1076,1080],"ymouse":[594,594,594,594,594,594,594,594,594,594,594,594,594,594,594,585,582,580,579,578,575,570,561,551,540,536,532,524,503,469,384,325,265,204,113,79],"timestamp_mouse":[10,38,50,71,91,111,130,150,170,191,211,230,250,270,291,310,331,350,370,391,411,430,450,471,491,510,530,550,571,591,610,630,651,671,691,710],"xSR":741.5,"ySR":573.95,"xT1":424.9,"yT1":0,"xT2":1058.1,"yT2":0,"toosoon":0,"cond_shown":"equaldotanddens","ratio_trial":900,"smaller_num":"9","larger_num":"10","correct_side":1,"subjID":"TomasNope35","gender":"0","age":"8","school":"4"},{"start_time":1552328360362,"click_time":1552328360991,"finger_time":1552328360451,"fix_duration":647.0418054717787,"trial":68,"RT":89,"MT":540,"sideResp":1,"stimulus":"img/500/equaldotanddens/L/11_Ratio_500_L_12_R_6.png","xmouse":[815,815,815,815,815,815,814,813,812,811,811,810,810,811,816,822,835,845,857,869,879,886,905,907,908,908,877,830,756,677,596,518],"ymouse":[575,575,575,575,573,568,555,549,546,544,543,535,524,507,486,464,423,407,393,378,366,357,327,321,314,302,256,213,154,96,44,1],"timestamp_mouse":[9,36,50,70,89,110,130,149,169,190,210,230,249,269,290,310,330,349,369,389,409,429,450,470,490,511,529,549,570,589,609,629],"xSR":741.5,"ySR":573.95,"xT1":424.9,"yT1":0,"xT2":1058.1,"yT2":0,"toosoon":0,"cond_shown":"equaldotanddens","ratio_trial":500,"smaller_num":"6","larger_num":"12","correct_side":1,"subjID":"TomasNope35","gender":"0","age":"8","school":"4"},{"start_time":1552328363282,"click_time":1552328363951,"finger_time":1552328363692,"fix_duration":1469.1563412067778,"trial":69,"RT":410,"MT":259,"sideResp":1,"stimulus":"img/250/equaldotsize/L/1_Ratio_250_L_8_R_2.png","xmouse":[767,767,769,769,769,769,769,769,769,769,769,769,769,770,770,771,773,775,775,775,775,771,766,754,739,701,671,648,630,615,597,558,542,524],"ymouse":[605,605,603,602,602,602,602,602,602,602,602,602,602,600,599,597,591,586,582,575,569,545,530,506,476,401,340,302,266,231,188,112,83,54],"timestamp_mouse":[9,40,49,70,89,109,129,150,169,189,210,229,249,269,290,309,329,350,370,390,410,430,449,470,489,510,529,550,570,590,610,630,649,669],"xSR":741.5,"ySR":573.95,"xT1":424.9,"yT1":0,"xT2":1058.1,"yT2":0,"toosoon":0,"cond_shown":"equaldotsize","ratio_trial":250,"smaller_num":"2","larger_num":"8","correct_side":1,"subjID":"TomasNope35","gender":"0","age":"8","school":"4"},{"start_time":1552328367401,"click_time":1552328368172,"finger_time":1552328367772,"fix_duration":1368.6800811838357,"trial":70,"RT":371,"MT":400,"sideResp":2,"stimulus":"img/900/equaldotsize/L/10_Ratio_900_L_20_R_18.png","xmouse":[787,787,787,787,787,787,787,787,787,787,787,787,787,787,787,787,800,811,829,851,911,934,954,970,990,997,998,998,998,998,999,1005,1015,1025,1036,1049,1053,1056,1061],"ymouse":[615,615,615,615,615,615,615,615,615,615,615,615,615,615,615,615,594,578,542,505,415,377,351,325,290,279,277,277,277,277,275,260,235,202,164,114,103,97,92],"timestamp_mouse":[11,36,51,70,91,110,132,152,170,191,211,231,250,271,291,310,331,351,371,391,410,431,451,470,491,510,532,551,570,590,610,631,650,671,691,711,732,751,771],"xSR":741.5,"ySR":573.95,"xT1":424.9,"yT1":0,"xT2":1058.1,"yT2":0,"toosoon":0,"cond_shown":"equaldotsize","ratio_trial":900,"smaller_num":"18","larger_num":"20","correct_side":1,"subjID":"TomasNope35","gender":"0","age":"8","school":"4"},{"start_time":1552328369986,"click_time":1552328370432,"finger_time":1552328370011,"fix_duration":973.6696930327658,"trial":71,"RT":25,"MT":421,"sideResp":1,"stimulus":"img/250/randomdotsizeEA/R/10_Ratio_250_L_4_R_16.png","xmouse":[781,775,771,771,771,768,767,767,767,766,766,755,746,738,731,710,665,651,641,628,578,541,509],"ymouse":[597,573,549,522,493,452,438,425,409,398,397,395,393,382,349,290,209,189,178,169,127,98,69],"timestamp_mouse":[6,25,48,66,86,107,125,146,166,185,205,225,245,265,286,305,326,346,366,385,406,425,446],"xSR":741.5,"ySR":573.95,"xT1":424.9,"yT1":0,"xT2":1058.1,"yT2":0,"toosoon":0,"cond_shown":"randomdotsizeEA","ratio_trial":250,"smaller_num":"4","larger_num":"16","correct_side":2,"subjID":"TomasNope35","gender":"0","age":"8","school":"4"},{"start_time":1552328373001,"click_time":1552328374392,"finger_time":1552328373912,"fix_duration":308.9935476748248,"trial":72,"RT":911,"MT":480,"sideResp":1,"stimulus":"img/900/equaldotanddens/L/2_Ratio_900_L_20_R_18.png","xmouse":[807,807,806,805,802,801,799,798,798,798,798,798,798,798,798,798,798,798,798,798,798,798,798,798,798,798,798,798,798,798,798,798,798,798,798,798,798,798,798,798,798,798,798,798,788,717,631,557,508,490,486,486,486,486,488,493,497,503,506,517,522,525,528,528,530,530,530,530,527,523],"ymouse":[613,611,609,608,602,598,595,595,595,595,595,595,595,595,595,595,595,595,595,595,595,595,595,595,595,595,595,595,595,595,595,595,595,595,595,595,595,595,595,595,595,595,595,595,580,503,408,325,259,222,203,201,201,201,196,189,181,170,161,133,117,108,99,88,78,78,78,78,81,88],"timestamp_mouse":[11,36,51,70,90,111,131,150,171,190,211,231,250,270,291,310,331,350,370,391,410,431,450,470,491,511,531,551,570,591,610,630,650,671,691,710,730,751,770,791,810,831,851,870,891,911,931,950,971,990,1011,1030,1051,1071,1091,1110,1131,1150,1170,1191,1210,1231,1250,1272,1291,1310,1330,1351,1371,1391],"xSR":741.5,"ySR":573.95,"xT1":424.9,"yT1":0,"xT2":1058.1,"yT2":0,"toosoon":0,"cond_shown":"equaldotanddens","ratio_trial":900,"smaller_num":"18","larger_num":"20","correct_side":1,"subjID":"TomasNope35","gender":"0","age":"8","school":"4"},{"start_time":1552328376976,"click_time":1552328377831,"finger_time":1552328377372,"fix_duration":1443.045138850831,"trial":73,"RT":396,"MT":459,"sideResp":2,"stimulus":"img/500/randomdotsizeEA/R/14_Ratio_500_L_5_R_10.png","xmouse":[800,800,800,800,800,800,800,800,800,800,800,800,800,800,800,800,800,805,814,828,866,893,902,908,912,914,915,918,925,933,954,980,994,1003,1005,1005,1003,1003,1003,1004,1031,1082,1106],"ymouse":[625,625,625,625,625,625,625,625,625,625,625,625,625,625,625,625,625,611,592,562,492,445,419,397,376,333,308,284,258,232,182,141,122,116,115,115,115,115,115,115,112,105,98],"timestamp_mouse":[15,38,56,75,95,116,136,156,175,195,216,235,255,276,297,316,336,356,377,396,416,435,455,476,495,516,535,556,576,595,616,635,656,676,696,715,736,756,775,795,815,835,855],"xSR":741.5,"ySR":573.95,"xT1":424.9,"yT1":0,"xT2":1058.1,"yT2":0,"toosoon":0,"cond_shown":"randomdotsizeEA","ratio_trial":500,"smaller_num":"5","larger_num":"10","correct_side":2,"subjID":"TomasNope35","gender":"0","age":"8","school":"4"},{"start_time":1552328379175,"click_time":1552328380093,"finger_time":1552328379691,"fix_duration":461.6033955338572,"trial":74,"RT":516,"MT":402,"sideResp":1,"stimulus":"img/750/equaldotsize/L/6_Ratio_750_L_24_R_18.png","xmouse":[792,792,792,792,792,792,792,792,792,792,792,792,792,792,792,792,792,788,784,781,781,786,786,786,778,738,698,630,563,496,444,355,326,321,317,317,317,317,317,317,317,317,321,343,383,476],"ymouse":[625,625,625,625,625,625,625,625,625,625,625,625,625,625,625,625,625,625,625,625,622,608,601,588,575,537,507,459,401,343,284,125,50,21,0,0,0,0,0,0,0,0,3,19,42,89],"timestamp_mouse":[16,37,56,76,96,117,138,158,176,197,217,236,257,276,296,317,337,356,376,397,417,436,456,476,496,516,536,557,577,597,617,637,657,676,696,717,737,756,777,797,816,837,856,876,897,917],"xSR":741.5,"ySR":573.95,"xT1":424.9,"yT1":0,"xT2":1058.1,"yT2":0,"toosoon":0,"cond_shown":"equaldotsize","ratio_trial":750,"smaller_num":"18","larger_num":"24","correct_side":1,"subjID":"TomasNope35","gender":"0","age":"8","school":"4"},{"start_time":1552328382524,"click_time":1552328383492,"finger_time":1552328383112,"fix_duration":250,"trial":75,"RT":588,"MT":380,"sideResp":1,"stimulus":"img/750/randomdotsizeEA/L/9_Ratio_750_L_4_R_3.png","xmouse":[775,775,775,775,775,775,775,775,775,775,775,775,775,775,775,775,775,775,775,775,775,775,775,775,776,777,781,781,782,782,782,782,776,765,732,702,673,641,585,559,542,530,523,514,506,498,489,483,476],"ymouse":[601,601,601,601,601,601,601,601,601,601,601,601,601,601,601,601,601,601,601,601,601,601,601,601,600,595,587,581,576,569,565,559,548,530,480,443,402,362,298,268,245,229,215,189,163,142,120,102,84],"timestamp_mouse":[10,33,47,68,87,107,128,148,168,187,208,227,247,267,287,307,328,348,367,388,408,427,448,468,488,508,529,548,568,588,608,628,648,667,689,708,728,748,768,787,808,828,848,868,887,907,928,948,968],"xSR":741.5,"ySR":573.95,"xT1":424.9,"yT1":0,"xT2":1058.1,"yT2":0,"toosoon":0,"cond_shown":"randomdotsizeEA","ratio_trial":750,"smaller_num":"3","larger_num":"4","correct_side":1,"subjID":"TomasNope35","gender":"0","age":"8","school":"4"},{"start_time":1552328384986,"click_time":1552328385611,"finger_time":1552328385351,"fix_duration":591.7881228032011,"trial":76,"RT":365,"MT":260,"sideResp":2,"stimulus":"img/500/equaldotsize/R/14_Ratio_500_L_5_R_10.png","xmouse":[788,788,788,788,788,788,788,788,788,788,788,788,788,788,788,790,803,814,830,849,864,904,918,932,949,985,1009,1032,1060,1087,1130,1150],"ymouse":[631,631,631,631,631,631,631,631,631,631,631,631,631,631,631,626,601,587,568,544,520,453,432,414,392,346,314,283,244,205,128,67],"timestamp_mouse":[12,25,47,66,85,105,125,146,165,185,205,227,245,265,286,306,326,345,365,387,405,425,445,467,485,506,525,545,565,586,606,625],"xSR":741.5,"ySR":573.95,"xT1":424.9,"yT1":0,"xT2":1058.1,"yT2":0,"toosoon":0,"cond_shown":"equaldotsize","ratio_trial":500,"smaller_num":"5","larger_num":"10","correct_side":2,"subjID":"TomasNope35","gender":"0","age":"8","school":"4"},{"start_time":1552328387438,"click_time":1552328388292,"finger_time":1552328387851,"fix_duration":745.3318924629115,"trial":77,"RT":413,"MT":441,"sideResp":1,"stimulus":"img/750/equaldotsize/L/14_Ratio_750_L_8_R_6.png","xmouse":[805,805,805,805,805,805,805,805,805,805,805,805,805,805,805,805,805,806,810,811,811,811,810,806,798,791,776,736,686,657,629,606,577,570,564,561,560,559,556,552,547,541,524],"ymouse":[591,591,591,591,591,591,591,591,591,591,591,591,591,591,591,591,591,591,580,576,569,559,543,530,516,499,475,411,326,264,201,147,64,38,23,14,12,11,10,10,10,10,35],"timestamp_mouse":[13,35,53,73,94,114,133,153,175,194,214,233,254,273,294,313,333,353,374,394,413,434,454,473,493,513,533,554,573,593,613,634,654,673,694,714,733,753,774,794,813,834,854],"xSR":741.5,"ySR":573.95,"xT1":424.9,"yT1":0,"xT2":1058.1,"yT2":0,"toosoon":0,"cond_shown":"equaldotsize","ratio_trial":750,"smaller_num":"6","larger_num":"8","correct_side":1,"subjID":"TomasNope35","gender":"0","age":"8","school":"4"},{"start_time":1552328389465,"click_time":1552328390392,"finger_time":1552328389791,"fix_duration":473.4528588785104,"trial":78,"RT":326,"MT":601,"sideResp":1,"stimulus":"img/900/equaldotsize/L/10_Ratio_900_L_20_R_18.png","xmouse":[795,795,795,795,795,795,795,795,795,795,798,799,809,816,823,831,848,868,878,890,900,919,928,936,942,945,947,952,952,952,949,883,813,729,653,598,565,547,547,547,547,541,539,539,539,538,518],"ymouse":[618,618,618,618,618,618,618,618,618,618,618,617,603,595,586,574,554,528,515,497,484,456,443,431,421,414,409,399,396,393,385,337,293,236,183,141,113,98,98,98,98,97,96,96,96,96,84],"timestamp_mouse":[22,27,46,66,86,107,126,146,166,186,207,226,247,267,286,306,326,346,366,386,406,427,446,466,487,507,526,546,567,586,606,626,646,667,687,707,726,746,766,787,806,827,846,866,887,907,927],"xSR":741.5,"ySR":573.95,"xT1":424.9,"yT1":0,"xT2":1058.1,"yT2":0,"toosoon":0,"cond_shown":"equaldotsize","ratio_trial":900,"smaller_num":"18","larger_num":"20","correct_side":1,"subjID":"TomasNope35","gender":"0","age":"8","school":"4"},{"start_time":1552328392265,"click_time":1552328393192,"finger_time":1552328392792,"fix_duration":871.097933962283,"trial":79,"RT":527,"MT":400,"sideResp":2,"stimulus":"img/500/equaldotsize/R/9_Ratio_500_L_2_R_4.png","xmouse":[770,770,770,770,770,770,770,770,770,770,770,770,770,770,770,770,770,770,770,770,770,770,770,779,791,808,847,881,901,920,934,957,967,975,981,988,1004,1015,1024,1034,1044,1055,1058,1060,1063,1067,1079],"ymouse":[634,634,634,634,634,634,634,634,634,634,634,634,634,634,634,634,634,634,634,634,634,634,634,625,607,588,546,495,458,424,399,359,342,325,313,301,273,254,239,222,201,164,153,140,124,111,81],"timestamp_mouse":[12,27,46,66,86,107,127,146,166,187,207,226,246,267,286,306,326,34