[{"start_time":1552327442654,"click_time":1552327446112,"finger_time":1552327445412,"fix_duration":437.97210473699124,"trial":0,"RT":2758,"MT":700,"sideResp":1,"stimulus":[],"xmouse":[780,780,780,780,780,780,780,780,780,780,780,780,780,780,780,780,780,780,780,780,780,780,780,780,780,780,780,780,777,776,776,776,775,775,775,775,775,775,775,775,775,774,774,774,774,774,774,774,775,775,776,776,777,777,778,778,778,778,778,779,779,779,779,779,779,779,779,779,780,780,780,780,780,780,780,780,780,780,780,780,780,780,780,780,780,780,780,779,778,778,777,776,776,776,776,776,776,776,776,776,776,776,776,776,776,776,776,776,776,776,776,776,776,776,776,776,776,776,776,776,776,776,776,776,776,776,776,776,776,776,776,776,776,776,775,774,774,772,759,741,733,729,726,724,722,718,713,709,700,698,695,690,685,674,672,669,663,657,648,637,627,614,601,584,582,579,577,575,568,562,557,547,532,512],"ymouse":[508,508,508,508,508,508,508,508,508,508,508,508,508,508,508,508,508,508,508,508,508,508,508,508,508,508,508,508,509,509,509,509,510,510,510,510,510,511,512,513,514,515,515,515,516,517,518,518,520,520,520,520,521,521,522,522,522,522,523,524,524,524,524,524,524,524,524,524,525,525,525,526,526,526,526,526,526,527,527,528,528,528,529,530,530,531,532,532,534,534,535,535,535,535,535,535,535,536,536,536,536,536,536,537,537,537,537,537,537,537,537,537,537,537,537,537,537,537,537,537,537,537,537,537,537,537,537,537,537,537,537,537,537,537,535,533,531,526,498,467,448,440,430,428,422,415,408,401,388,381,374,363,350,325,319,309,297,285,265,242,225,205,186,159,156,152,148,147,137,129,123,113,100,74],"timestamp_mouse":[0,19,37,58,77,97,117,138,158,177,197,217,237,257,277,299,318,338,358,378,398,418,438,458,478,498,518,538,558,578,598,618,637,657,677,697,718,737,758,777,797,817,838,859,879,898,919,938,959,978,999,1018,1039,1058,1079,1099,1118,1138,1159,1179,1198,1218,1238,1258,1279,1298,1318,1338,1358,1378,1398,1419,1438,1458,1479,1498,1518,1538,1558,1579,1598,1618,1638,1658,1678,1697,1717,1738,1759,1778,1799,1818,1838,1858,1878,1898,1918,1938,1957,1977,1997,2017,2039,2057,2077,2097,2117,2137,2157,2178,2197,2218,2238,2258,2278,2297,2318,2338,2357,2378,2398,2418,2439,2458,2477,2497,2518,2539,2558,2578,2599,2618,2637,2657,2679,2698,2718,2739,2758,2777,2798,2817,2839,2857,2878,2898,2919,2938,2957,2978,2998,3018,3038,3058,3077,3097,3118,3139,3159,3179,3197,3218,3237,3258,3277,3298,3319,3337,3357,3377,3398,3417,3438,3458],"xSR":741.5,"ySR":469.95,"xT1":424.9,"yT1":0,"xT2":1058.1,"yT2":0,"toosoon":0,"cond_shown":"Incongruent","ratio_trial":200,"L_num":9,"L_den":15,"R_num":8,"R_den":10,"correct_side":2,"subjID":"tomasnope35","gender":"0","age":"8","school":"4","test":{"fix_dur":[250,1500],"timestim":1000,"targets_dim":[100,100],"targets_relative_coord":[0.3,0.7],"size_stim":[880,420],"start_dim":[100,100],"size_start":[300,300],"size_fix":60,"samplingrate":20,"img_types":["Congruent","Incongruent"],"ratios":[100,200,300],"rep_conds":19,"nTrials":120,"trials_to_rest":500,"Trials_order":[87,117,95,35,78,110,104,1,22,71,62,68,18,10,52,119,46,84,24,70,55,82,81,30,113,94,53,88,17,51,40,100,33,2,76,38,116,118,89,60,101,6,49,99,0,74,31,11,73,27,96,109,7,26,19,66,64,32,44,48,5,34,91,79,103,114,3,45,12,61,47,102,90,58,57,115,93,112,54,59,39,21,108,43,37,29,97,42,92,8,86,75,65,63,23,56,50,20,41,85,28,16,105,4,77,9,98,25,111,106,72,83,107,14,13,15,69,36,80,67],"cond_shown":["Incongruent","Incongruent","Incongruent","Incongruent","Congruent","Congruent","Congruent","Incongruent","Congruent","Incongruent","Congruent","Congruent","Congruent","Congruent","Congruent","Incongruent","Congruent","Congruent","Congruent","Congruent","Incongruent","Congruent","Incongruent","Congruent","Incongruent","Congruent","Incongruent","Congruent","Incongruent","Incongruent","Congruent","Congruent","Incongruent","Congruent","Congruent","Congruent","Congruent","Congruent","Incongruent","Congruent","Incongruent","Congruent","Incongruent","Incongruent","Congruent","Congruent","Incongruent","Incongruent","Incongruent","Incongruent","Congruent","Incongruent","Incongruent","Congruent","Incongruent","Congruent","Congruent","Congruent","Congruent","Congruent","Incongruent","Congruent","Incongruent","Incongruent","Incongruent","Congruent","Incongruent","Incongruent","Congruent","Incongruent","Incongruent","Congruent","Congruent","Congruent","Incongruent","Incongruent","Incongruent","Congruent","Congruent","Incongruent","Incongruent","Incongruent","Congruent","Incongruent","Incongruent","Incongruent","Incongruent","Congruent","Congruent","Congruent","Congruent","Incongruent","Incongruent","Incongruent","Incongruent","Congruent","Congruent","Congruent","Incongruent","Incongruent","Congruent","Congruent","Incongruent","Congruent","Incongruent","Incongruent","Congruent","Incongruent","Incongruent","Congruent","Congruent","Incongruent","Incongruent","Congruent","Incongruent","Incongruent","Incongruent","Congruent","Congruent","Incongruent"],"ratio_trial":[200,200,300,300,100,200,200,100,300,300,200,200,100,300,300,300,300,100,100,300,100,300,200,100,300,300,300,300,300,200,300,300,200,200,300,200,200,300,300,100,300,100,100,200,100,200,100,300,100,200,100,100,100,200,100,100,300,200,200,100,300,300,100,100,100,100,200,200,100,100,300,100,100,300,200,100,200,300,100,300,200,200,100,100,100,300,100,100,200,200,200,200,300,200,300,200,200,200,300,100,300,300,200,300,300,200,200,100,200,300,100,300,300,200,100,200,200,100,200,100],"left_num":[9,7,1,13,15,4,13,11,20,13,15,20,4,1,7,2,2,15,4,20,10,3,9,10,3,20,7,4,4,1,2,1,7,6,5,1,8,1,13,1,1,6,2,4,8,9,6,1,1,11,15,3,13,3,13,10,4,8,13,8,1,7,1,9,10,6,9,7,11,2,7,9,7,4,3,11,14,2,6,8,4,11,12,10,9,4,6,1,6,15,6,7,13,7,4,3,3,6,13,6,4,20,4,11,13,3,7,13,4,3,11,1,7,6,13,7,11,3,6,13],"right_num":[8,4,2,12,13,3,14,9,13,12,4,9,15,6,20,6,10,13,15,5,8,4,8,3,4,9,8,13,2,3,10,6,4,11,6,21,7,8,12,3,3,5,6,6,2,4,7,3,8,3,13,4,12,11,6,3,13,3,14,2,2,20,8,6,9,15,8,4,4,6,8,8,9,13,1,9,12,10,15,9,6,3,13,8,20,8,13,3,3,4,7,8,12,4,6,11,7,7,12,11,1,14,14,2,12,11,18,6,14,4,4,2,8,3,6,14,3,4,3,12],"left_den":[15,15,2,26,25,10,26,22,25,26,25,25,10,5,14,4,20,25,10,25,25,6,15,25,6,25,10,20,20,2,20,5,15,20,25,2,15,30,26,2,2,20,4,5,16,20,10,2,2,20,25,6,26,10,26,25,20,15,26,16,2,14,2,18,25,12,15,15,22,4,10,15,14,20,10,22,30,20,12,10,5,20,30,25,10,5,10,2,15,25,12,10,26,15,5,10,10,12,26,10,10,25,6,22,26,4,15,26,6,6,22,2,10,15,26,10,20,20,15,26],"right_den":[10,6,10,15,26,15,20,15,26,15,10,15,30,12,25,30,25,26,30,10,16,5,10,10,20,18,20,26,4,10,25,12,6,22,12,30,21,24,15,5,15,25,15,10,5,16,14,15,20,4,26,10,20,22,10,10,26,9,20,5,10,25,20,10,18,25,10,6,10,15,20,16,15,26,2,15,18,25,25,18,10,4,26,16,25,16,26,5,15,10,10,16,15,6,12,22,14,10,15,22,10,28,30,10,15,20,27,10,30,5,10,10,20,15,10,28,4,16,15,20],"correct_side":[2,2,1,2,1,1,2,2,1,2,1,1,2,2,2,1,2,1,2,1,2,2,2,1,1,1,1,2,2,1,2,2,2,2,2,2,1,2,2,2,1,1,1,1,1,1,1,1,1,2,1,1,2,2,2,1,2,1,2,1,1,2,1,2,2,2,2,2,1,1,1,1,2,2,2,2,2,2,2,1,1,2,2,2,1,1,1,2,1,1,2,1,2,2,1,2,2,2,2,1,1,1,1,1,2,1,2,2,1,2,1,1,1,1,2,1,2,2,1,2],"img_shown":["img2/200/Incongruent/R/I_Dist_200_LN_9_LD_15_RN_8_RD_10_1.png","img2/200/Incongruent/R/I_Dist_200_LN_7_LD_15_RN_4_RD_6_1.png","img2/300/Incongruent/L/I_Dist_300_LN_1_LD_2_RN_2_RD_10_0.png","img2/300/Incongruent/R/I_Dist_300_LN_13_LD_26_RN_12_RD_15_1.png","img2/100/Congruent/L/C_Dist_100_LN_15_LD_25_RN_13_RD_26_0.png","img2/200/Congruent/L/C_Dist_200_LN_4_LD_10_RN_3_RD_15_0.png","img2/200/Congruent/R/C_Dist_200_LN_13_LD_26_RN_14_RD_20_1.png","img2/100/Incongruent/R/I_Dist_100_LN_11_LD_22_RN_9_RD_15_1.png","img2/300/Congruent/L/C_Dist_300_LN_20_LD_25_RN_13_RD_26_0.png","img2/300/Incongruent/R/I_Dist_300_LN_13_LD_26_RN_12_RD_15_1.png","img2/200/Congruent/L/C_Dist_200_LN_15_LD_25_RN_4_RD_10_0.png","img2/200/Congruent/L/C_Dist_200_LN_20_LD_25_RN_9_RD_15_0.png","img2/100/Congruent/R/C_Dist_100_LN_4_LD_10_RN_15_RD_30_1.png","img2/300/Congruent/R/C_Dist_300_LN_1_LD_5_RN_6_RD_12_1.png","img2/300/Congruent/R/C_Dist_300_LN_7_LD_14_RN_20_RD_25_1.png","img2/300/Incongruent/L/I_Dist_300_LN_2_LD_4_RN_6_RD_30_0.png","img2/300/Congruent/R/C_Dist_300_LN_2_LD_20_RN_10_RD_25_1.png","img2/100/Congruent/L/C_Dist_100_LN_15_LD_25_RN_13_RD_26_0.png","img2/100/Congruent/R/C_Dist_100_LN_4_LD_10_RN_15_RD_30_1.png","img2/300/Congruent/L/C_Dist_300_LN_20_LD_25_RN_5_RD_10_0.png","img2/100/Incongruent/R/I_Dist_100_LN_10_LD_25_RN_8_RD_16_1.png","img2/300/Congruent/R/C_Dist_300_LN_3_LD_6_RN_4_RD_5_1.png","img2/200/Incongruent/R/I_Dist_200_LN_9_LD_15_RN_8_RD_10_1.png","img2/100/Congruent/L/C_Dist_100_LN_10_LD_25_RN_3_RD_10_0.png","img2/300/Incongruent/L/I_Dist_300_LN_3_LD_6_RN_4_RD_20_0.png","img2/300/Congruent/L/C_Dist_300_LN_20_LD_25_RN_9_RD_18_0.png","img2/300/Incongruent/L/I_Dist_300_LN_7_LD_10_RN_8_RD_20_0.png","img2/300/Congruent/R/C_Dist_300_LN_4_LD_20_RN_13_RD_26_1.png","img2/300/Incongruent/R/I_Dist_300_LN_4_LD_20_RN_2_RD_4_1.png","img2/200/Incongruent/L/I_Dist_200_LN_1_LD_2_RN_3_RD_10_0.png","img2/300/Congruent/R/C_Dist_300_LN_2_LD_20_RN_10_RD_25_1.png","img2/300/Congruent/R/C_Dist_300_LN_1_LD_5_RN_6_RD_12_1.png","img2/200/Incongruent/R/I_Dist_200_LN_7_LD_15_RN_4_RD_6_1.png","img2/200/Congruent/R/C_Dist_200_LN_6_LD_20_RN_11_RD_22_1.png","img2/300/Congruent/R/C_Dist_300_LN_5_LD_25_RN_6_RD_12_1.png","img2/200/Congruent/R/C_Dist_200_LN_1_LD_2_RN_21_RD_30_1.png","img2/200/Congruent/L/C_Dist_200_LN_8_LD_15_RN_7_RD_21_0.png","img2/300/Congruent/R/C_Dist_300_LN_1_LD_30_RN_8_RD_24_1.png","img2/300/Incongruent/R/I_Dist_300_LN_13_LD_26_RN_12_RD_15_1.png","img2/100/Congruent/R/C_Dist_100_LN_1_LD_2_RN_3_RD_5_1.png","img2/300/Incongruent/L/I_Dist_300_LN_1_LD_2_RN_3_RD_15_0.png","img2/100/Congruent/L/C_Dist_100_LN_6_LD_20_RN_5_RD_25_0.png","img2/100/Incongruent/L/I_Dist_100_LN_2_LD_4_RN_6_RD_15_0.png","img2/200/Incongruent/L/I_Dist_200_LN_4_LD_5_RN_6_RD_10_0.png","img2/100/Congruent/L/C_Dist_100_LN_8_LD_16_RN_2_RD_5_0.png","img2/200/Congruent/L/C_Dist_200_LN_9_LD_20_RN_4_RD_16_0.png","img2/100/Incongruent/L/I_Dist_100_LN_6_LD_10_RN_7_RD_14_0.png","img2/300/Incongruent/L/I_Dist_300_LN_1_LD_2_RN_3_RD_15_0.png","img2/100/Incongruent/L/I_Dist_100_LN_1_LD_2_RN_8_RD_20_0.png","img2/200/Incongruent/R/I_Dist_200_LN_11_LD_20_RN_3_RD_4_1.png","img2/100/Congruent/L/C_Dist_100_LN_15_LD_25_RN_13_RD_26_0.png","img2/100/Incongruent/L/I_Dist_100_LN_3_LD_6_RN_4_RD_10_0.png","img2/100/Incongruent/R/I_Dist_100_LN_13_LD_26_RN_12_RD_20_1.png","img2/200/Congruent/R/C_Dist_200_LN_3_LD_10_RN_11_RD_22_1.png","img2/100/Incongruent/R/I_Dist_100_LN_13_LD_26_RN_6_RD_10_1.png","img2/100/Congruent/L/C_Dist_100_LN_10_LD_25_RN_3_RD_10_0.png","img2/300/Congruent/R/C_Dist_300_LN_4_LD_20_RN_13_RD_26_1.png","img2/200/Congruent/L/C_Dist_200_LN_8_LD_15_RN_3_RD_9_0.png","img2/200/Congruent/R/C_Dist_200_LN_13_LD_26_RN_14_RD_20_1.png","img2/100/Congruent/L/C_Dist_100_LN_8_LD_16_RN_2_RD_5_0.png","img2/300/Incongruent/L/I_Dist_300_LN_1_LD_2_RN_2_RD_10_0.png","img2/300/Congruent/R/C_Dist_300_LN_7_LD_14_RN_20_RD_25_1.png","img2/100/Incongruent/L/I_Dist_100_LN_1_LD_2_RN_8_RD_20_0.png","img2/100/Incongruent/R/I_Dist_100_LN_9_LD_18_RN_6_RD_10_1.png","img2/100/Incongruent/R/I_Dist_100_LN_10_LD_25_RN_9_RD_18_1.png","img2/100/Congruent/R/C_Dist_100_LN_6_LD_12_RN_15_RD_25_1.png","img2/200/Incongruent/R/I_Dist_200_LN_9_LD_15_RN_8_RD_10_1.png","img2/200/Incongruent/R/I_Dist_200_LN_7_LD_15_RN_4_RD_6_1.png","img2/100/Congruent/L/C_Dist_100_LN_11_LD_22_RN_4_RD_10_0.png","img2/100/Incongruent/L/I_Dist_100_LN_2_LD_4_RN_6_RD_15_0.png","img2/300/Incongruent/L/I_Dist_300_LN_7_LD_10_RN_8_RD_20_0.png","img2/100/Congruent/L/C_Dist_100_LN_9_LD_15_RN_8_RD_16_0.png","img2/100/Congruent/R/C_Dist_100_LN_7_LD_14_RN_9_RD_15_1.png","img2/300/Congruent/R/C_Dist_300_LN_4_LD_20_RN_13_RD_26_1.png","img2/200/Incongruent/R/I_Dist_200_LN_3_LD_10_RN_1_RD_2_1.png","img2/100/Incongruent/R/I_Dist_100_LN_11_LD_22_RN_9_RD_15_1.png","img2/200/Incongruent/R/I_Dist_200_LN_14_LD_30_RN_12_RD_18_1.png","img2/300/Congruent/R/C_Dist_300_LN_2_LD_20_RN_10_RD_25_1.png","img2/100/Congruent/R/C_Dist_100_LN_6_LD_12_RN_15_RD_25_1.png","img2/300/Incongruent/L/I_Dist_300_LN_8_LD_10_RN_9_RD_18_0.png","img2/200/Incongruent/L/I_Dist_200_LN_4_LD_5_RN_6_RD_10_0.png","img2/200/Incongruent/R/I_Dist_200_LN_11_LD_20_RN_3_RD_4_1.png","img2/100/Congruent/R/C_Dist_100_LN_12_LD_30_RN_13_RD_26_1.png","img2/100/Incongruent/R/I_Dist_100_LN_10_LD_25_RN_8_RD_16_1.png","img2/100/Incongruent/L/I_Dist_100_LN_9_LD_10_RN_20_RD_25_0.png","img2/300/Incongruent/L/I_Dist_300_LN_4_LD_5_RN_8_RD_16_0.png","img2/100/Incongruent/L/I_Dist_100_LN_6_LD_10_RN_13_RD_26_0.png","img2/100/Congruent/R/C_Dist_100_LN_1_LD_2_RN_3_RD_5_1.png","img2/200/Congruent/L/C_Dist_200_LN_6_LD_15_RN_3_RD_15_0.png","img2/200/Congruent/L/C_Dist_200_LN_15_LD_25_RN_4_RD_10_0.png","img2/200/Congruent/R/C_Dist_200_LN_6_LD_12_RN_7_RD_10_1.png","img2/200/Incongruent/L/I_Dist_200_LN_7_LD_10_RN_8_RD_16_0.png","img2/300/Incongruent/R/I_Dist_300_LN_13_LD_26_RN_12_RD_15_1.png","img2/200/Incongruent/R/I_Dist_200_LN_7_LD_15_RN_4_RD_6_1.png","img2/300/Incongruent/L/I_Dist_300_LN_4_LD_5_RN_6_RD_12_0.png","img2/200/Congruent/R/C_Dist_200_LN_3_LD_10_RN_11_RD_22_1.png","img2/200/Congruent/R/C_Dist_200_LN_3_LD_10_RN_7_RD_14_1.png","img2/200/Congruent/R/C_Dist_200_LN_6_LD_12_RN_7_RD_10_1.png","img2/300/Incongruent/R/I_Dist_300_LN_13_LD_26_RN_12_RD_15_1.png","img2/100/Incongruent/L/I_Dist_100_LN_6_LD_10_RN_11_RD_22_0.png","img2/300/Congruent/L/C_Dist_300_LN_4_LD_10_RN_1_RD_10_0.png","img2/300/Congruent/L/C_Dist_300_LN_20_LD_25_RN_14_RD_28_0.png","img2/200/Incongruent/L/I_Dist_200_LN_4_LD_6_RN_14_RD_30_0.png","img2/300/Congruent/L/C_Dist_300_LN_11_LD_22_RN_2_RD_10_0.png","img2/300/Incongruent/R/I_Dist_300_LN_13_LD_26_RN_12_RD_15_1.png","img2/200/Incongruent/L/I_Dist_200_LN_3_LD_4_RN_11_RD_20_0.png","img2/200/Congruent/R/C_Dist_200_LN_7_LD_15_RN_18_RD_27_1.png","img2/100/Incongruent/R/I_Dist_100_LN_13_LD_26_RN_6_RD_10_1.png","img2/200/Incongruent/L/I_Dist_200_LN_4_LD_6_RN_14_RD_30_0.png","img2/300/Congruent/R/C_Dist_300_LN_3_LD_6_RN_4_RD_5_1.png","img2/100/Congruent/L/C_Dist_100_LN_11_LD_22_RN_4_RD_10_0.png","img2/300/Incongruent/L/I_Dist_300_LN_1_LD_2_RN_2_RD_10_0.png","img2/300/Incongruent/L/I_Dist_300_LN_7_LD_10_RN_8_RD_20_0.png","img2/200/Congruent/L/C_Dist_200_LN_6_LD_15_RN_3_RD_15_0.png","img2/100/Incongruent/R/I_Dist_100_LN_13_LD_26_RN_6_RD_10_1.png","img2/200/Incongruent/L/I_Dist_200_LN_7_LD_10_RN_14_RD_28_0.png","img2/200/Incongruent/R/I_Dist_200_LN_11_LD_20_RN_3_RD_4_1.png","img2/100/Congruent/R/C_Dist_100_LN_3_LD_20_RN_4_RD_16_1.png","img2/200/Congruent/L/C_Dist_200_LN_6_LD_15_RN_3_RD_15_0.png","img2/100/Incongruent/R/I_Dist_100_LN_13_LD_26_RN_12_RD_20_1.png"],"dist100_C":[["C_Dist_100_LN_10_LD_25_RN_3_RD_10_0.png","C_Dist_100_LN_11_LD_22_RN_4_RD_10_0.png","C_Dist_100_LN_11_LD_22_RN_6_RD_15_0.png","C_Dist_100_LN_15_LD_25_RN_13_RD_26_0.png","C_Dist_100_LN_3_LD_6_RN_2_RD_5_0.png","C_Dist_100_LN_6_LD_20_RN_5_RD_25_0.png","C_Dist_100_LN_8_LD_16_RN_2_RD_5_0.png","C_Dist_100_LN_9_LD_15_RN_8_RD_16_0.png"],["C_Dist_100_LN_1_LD_2_RN_18_RD_30_1.png","C_Dist_100_LN_1_LD_2_RN_3_RD_5_1.png","C_Dist_100_LN_12_LD_30_RN_13_RD_26_1.png","C_Dist_100_LN_2_LD_5_RN_11_RD_22_1.png","C_Dist_100_LN_2_LD_5_RN_6_RD_12_1.png","C_Dist_100_LN_3_LD_20_RN_4_RD_16_1.png","C_Dist_100_LN_4_LD_10_RN_15_RD_30_1.png","C_Dist_100_LN_4_LD_8_RN_6_RD_10_1.png","C_Dist_100_LN_6_LD_12_RN_15_RD_25_1.png","C_Dist_100_LN_7_LD_14_RN_15_RD_25_1.png","C_Dist_100_LN_7_LD_14_RN_9_RD_15_1.png"]],"dist100_I":[["I_Dist_100_LN_1_LD_2_RN_8_RD_20_0.png","I_Dist_100_LN_2_LD_4_RN_6_RD_15_0.png","I_Dist_100_LN_2_LD_4_RN_8_RD_20_0.png","I_Dist_100_LN_3_LD_5_RN_11_RD_22_0.png","I_Dist_100_LN_3_LD_5_RN_8_RD_16_0.png","I_Dist_100_LN_3_LD_6_RN_4_RD_10_0.png","I_Dist_100_LN_3_LD_9_RN_7_RD_30_0.png","I_Dist_100_LN_4_LD_8_RN_8_RD_20_0.png","I_Dist_100_LN_6_LD_10_RN_11_RD_22_0.png","I_Dist_100_LN_6_LD_10_RN_13_RD_26_0.png","I_Dist_100_LN_6_LD_10_RN_7_RD_14_0.png","I_Dist_100_LN_9_LD_10_RN_20_RD_25_0.png","I_Dist_100_LN_9_LD_15_RN_13_RD_26_0.png","I_Dist_100_LN_9_LD_15_RN_14_RD_28_0.png"],["I_Dist_100_LN_10_LD_25_RN_8_RD_16_1.png","I_Dist_100_LN_10_LD_25_RN_9_RD_18_1.png","I_Dist_100_LN_11_LD_22_RN_9_RD_15_1.png","I_Dist_100_LN_12_LD_24_RN_9_RD_15_1.png","I_Dist_100_LN_12_LD_30_RN_2_RD_4_1.png","I_Dist_100_LN_13_LD_26_RN_12_RD_20_1.png","I_Dist_100_LN_13_LD_26_RN_6_RD_10_1.png","I_Dist_100_LN_17_LD_30_RN_10_RD_15_1.png","I_Dist_100_LN_6_LD_12_RN_3_RD_5_1.png","I_Dist_100_LN_8_LD_16_RN_6_RD_10_1.png","I_Dist_100_LN_8_LD_20_RN_1_RD_2_1.png","I_Dist_100_LN_9_LD_18_RN_6_RD_10_1.png"]],"dist100_S":[["E_Dist_100_LN_2_LD_12_RN_2_RD_30_0.png","E_Dist_100_LN_6_LD_10_RN_6_RD_12_0.png"],["E_Dist_100_LN_6_LD_12_RN_6_RD_10_1.png"]],"dist200_C":[["C_Dist_200_LN_11_LD_22_RN_3_RD_10_0.png","C_Dist_200_LN_12_LD_15_RN_6_RD_10_0.png","C_Dist_200_LN_12_LD_20_RN_6_RD_15_0.png","C_Dist_200_LN_14_LD_28_RN_6_RD_20_0.png","C_Dist_200_LN_15_LD_25_RN_4_RD_10_0.png","C_Dist_200_LN_16_LD_20_RN_12_RD_20_0.png","C_Dist_200_LN_16_LD_30_RN_9_RD_27_0.png","C_Dist_200_LN_20_LD_25_RN_9_RD_15_0.png","C_Dist_200_LN_21_LD_30_RN_2_RD_4_0.png","C_Dist_200_LN_4_LD_10_RN_3_RD_15_0.png","C_Dist_200_LN_4_LD_8_RN_3_RD_10_0.png","C_Dist_200_LN_6_LD_15_RN_3_RD_15_0.png","C_Dist_200_LN_7_LD_21_RN_2_RD_15_0.png","C_Dist_200_LN_8_LD_15_RN_2_RD_6_0.png","C_Dist_200_LN_8_LD_15_RN_3_RD_9_0.png","C_Dist_200_LN_8_LD_15_RN_7_RD_21_0.png","C_Dist_200_LN_9_LD_20_RN_4_RD_16_0.png"],["C_Dist_200_LN_1_LD_2_RN_21_RD_30_1.png","C_Dist_200_LN_13_LD_26_RN_14_RD_20_1.png","C_Dist_200_LN_3_LD_10_RN_11_RD_22_1.png","C_Dist_200_LN_3_LD_10_RN_14_RD_28_1.png","C_Dist_200_LN_3_LD_10_RN_7_RD_14_1.png","C_Dist_200_LN_3_LD_12_RN_9_RD_20_1.png","C_Dist_200_LN_3_LD_6_RN_14_RD_20_1.png","C_Dist_200_LN_5_LD_10_RN_14_RD_20_1.png","C_Dist_200_LN_6_LD_12_RN_7_RD_10_1.png","C_Dist_200_LN_6_LD_20_RN_11_RD_22_1.png","C_Dist_200_LN_7_LD_15_RN_18_RD_27_1.png","C_Dist_200_LN_9_LD_30_RN_13_RD_26_1.png"]],"dist200_I":[["I_Dist_200_LN_1_LD_2_RN_3_RD_10_0.png","I_Dist_200_LN_1_LD_3_RN_2_RD_15_0.png","I_Dist_200_LN_3_LD_4_RN_11_RD_20_0.png","I_Dist_200_LN_4_LD_5_RN_6_RD_10_0.png","I_Dist_200_LN_4_LD_6_RN_14_RD_30_0.png","I_Dist_200_LN_7_LD_10_RN_12_RD_24_0.png","I_Dist_200_LN_7_LD_10_RN_14_RD_28_0.png","I_Dist_200_LN_7_LD_10_RN_8_RD_16_0.png"],["I_Dist_200_LN_11_LD_20_RN_3_RD_4_1.png","I_Dist_200_LN_14_LD_30_RN_12_RD_18_1.png","I_Dist_200_LN_14_LD_30_RN_6_RD_9_1.png","I_Dist_200_LN_3_LD_10_RN_1_RD_2_1.png","I_Dist_200_LN_4_LD_30_RN_1_RD_3_1.png","I_Dist_200_LN_6_LD_20_RN_3_RD_6_1.png","I_Dist_200_LN_7_LD_15_RN_4_RD_6_1.png","I_Dist_200_LN_7_LD_15_RN_6_RD_9_1.png","I_Dist_200_LN_9_LD_15_RN_8_RD_10_1.png"]],"dist200_S":[["E_Dist_200_LN_3_LD_6_RN_3_RD_10_0.png"],["E_Dist_200_LN_3_LD_10_RN_3_RD_6_1.png"]],"dist300_C":[["C_Dist_300_LN_11_LD_22_RN_1_RD_5_0.png","C_Dist_300_LN_11_LD_22_RN_2_RD_10_0.png","C_Dist_300_LN_11_LD_22_RN_4_RD_20_0.png","C_Dist_300_LN_12_LD_24_RN_2_RD_10_0.png","C_Dist_300_LN_18_LD_20_RN_9_RD_15_0.png","C_Dist_300_LN_20_LD_25_RN_13_RD_26_0.png","C_Dist_300_LN_20_LD_25_RN_14_RD_28_0.png","C_Dist_300_LN_20_LD_25_RN_5_RD_10_0.png","C_Dist_300_LN_20_LD_25_RN_8_RD_16_0.png","C_Dist_300_LN_20_LD_25_RN_9_RD_18_0.png","C_Dist_300_LN_24_LD_30_RN_2_RD_4_0.png","C_Dist_300_LN_24_LD_30_RN_8_RD_16_0.png","C_Dist_300_LN_3_LD_6_RN_2_RD_10_0.png","C_Dist_300_LN_4_LD_10_RN_1_RD_10_0.png","C_Dist_300_LN_4_LD_5_RN_2_RD_4_0.png","C_Dist_300_LN_8_LD_16_RN_1_RD_5_0.png","C_Dist_300_LN_9_LD_10_RN_3_RD_5_0.png"],["C_Dist_300_LN_1_LD_20_RN_7_RD_20_1.png","C_Dist_300_LN_1_LD_3_RN_19_RD_30_1.png","C_Dist_300_LN_1_LD_30_RN_8_RD_24_1.png","C_Dist_300_LN_1_LD_5_RN_11_RD_22_1.png","C_Dist_300_LN_1_LD_5_RN_3_RD_6_1.png","C_Dist_300_LN_1_LD_5_RN_6_RD_12_1.png","C_Dist_300_LN_2_LD_10_RN_12_RD_24_1.png","C_Dist_300_LN_2_LD_20_RN_10_RD_25_1.png","C_Dist_300_LN_3_LD_12_RN_11_RD_20_1.png","C_Dist_300_LN_3_LD_6_RN_4_RD_5_1.png","C_Dist_300_LN_4_LD_20_RN_13_RD_26_1.png","C_Dist_300_LN_5_LD_25_RN_6_RD_12_1.png","C_Dist_300_LN_5_LD_25_RN_7_RD_14_1.png","C_Dist_300_LN_7_LD_14_RN_20_RD_25_1.png","C_Dist_300_LN_8_LD_15_RN_10_RD_12_1.png"]],"dist300_I":[["I_Dist_300_LN_1_LD_2_RN_2_RD_10_0.png","I_Dist_300_LN_1_LD_2_RN_3_RD_15_0.png","I_Dist_300_LN_2_LD_4_RN_6_RD_30_0.png","I_Dist_300_LN_3_LD_6_RN_4_RD_20_0.png","I_Dist_300_LN_4_LD_5_RN_6_RD_12_0.png","I_Dist_300_LN_4_LD_5_RN_8_RD_16_0.png","I_Dist_300_LN_7_LD_10_RN_8_RD_20_0.png","I_Dist_300_LN_8_LD_10_RN_14_RD_28_0.png","I_Dist_300_LN_8_LD_10_RN_9_RD_18_0.png"],["I_Dist_300_LN_13_LD_26_RN_12_RD_15_1.png","I_Dist_300_LN_4_LD_20_RN_2_RD_4_1.png"]],"dist300_S":[["E_Dist_300_LN_9_LD_12_RN_9_RD_20_0.png"],["E_Dist_300_LN_18_LD_30_RN_18_RD_20_1.png","E_Dist_300_LN_3_LD_10_RN_3_RD_5_1.png","E_Dist_300_LN_9_LD_20_RN_9_RD_12_1.png"]],"dist500_C":[["C_Dist_500_LN_10_LD_13_RN_7_RD_26_0.png","C_Dist_500_LN_10_LD_15_RN_4_RD_24_0.png","C_Dist_500_LN_12_LD_16_RN_3_RD_12_0.png","C_Dist_500_LN_12_LD_18_RN_4_RD_24_0.png","C_Dist_500_LN_15_LD_18_RN_5_RD_15_0.png","C_Dist_500_LN_15_LD_20_RN_1_RD_4_0.png","C_Dist_500_LN_18_LD_27_RN_1_RD_6_0.png","C_Dist_500_LN_20_LD_24_RN_1_RD_3_0.png","C_Dist_500_LN_20_LD_24_RN_3_RD_9_0.png","C_Dist_500_LN_20_LD_24_RN_7_RD_21_0.png","C_Dist_500_LN_20_LD_28_RN_3_RD_14_0.png","C_Dist_500_LN_21_LD_28_RN_6_RD_24_0.png","C_Dist_500_LN_22_LD_28_RN_2_RD_7_0.png","C_Dist_500_LN_25_LD_30_RN_9_RD_27_0.png","C_Dist_500_LN_4_LD_6_RN_1_RD_6_0.png","C_Dist_500_LN_5_LD_6_RN_2_RD_6_0.png","C_Dist_500_LN_6_LD_9_RN_1_RD_6_0.png","C_Dist_500_LN_7_LD_10_RN_1_RD_5_0.png","C_Dist_500_LN_8_LD_12_RN_1_RD_6_0.png","C_Dist_500_LN_8_LD_12_RN_4_RD_24_0.png"],["C_Dist_500_LN_1_LD_4_RN_12_RD_16_1.png","C_Dist_500_LN_1_LD_4_RN_9_RD_12_1.png","C_Dist_500_LN_1_LD_9_RN_11_RD_18_1.png","C_Dist_500_LN_10_LD_24_RN_22_RD_24_1.png","C_Dist_500_LN_2_LD_12_RN_10_RD_15_1.png","C_Dist_500_LN_2_LD_12_RN_12_RD_18_1.png","C_Dist_500_LN_2_LD_12_RN_4_RD_6_1.png","C_Dist_500_LN_2_LD_24_RN_7_RD_12_1.png","C_Dist_500_LN_2_LD_5_RN_18_RD_20_1.png","C_Dist_500_LN_2_LD_5_RN_9_RD_10_1.png","C_Dist_500_LN_2_LD_8_RN_12_RD_16_1.png","C_Dist_500_LN_2_LD_8_RN_21_RD_28_1.png","C_Dist_500_LN_3_LD_10_RN_4_RD_5_1.png","C_Dist_500_LN_3_LD_12_RN_15_RD_20_1.png","C_Dist_500_LN_3_LD_30_RN_6_RD_10_1.png","C_Dist_500_LN_3_LD_8_RN_14_RD_16_1.png","C_Dist_500_LN_4_LD_16_RN_15_RD_20_1.png","C_Dist_500_LN_4_LD_24_RN_12_RD_18_1.png","C_Dist_500_LN_5_LD_14_RN_6_RD_7_1.png","C_Dist_500_LN_7_LD_21_RN_20_RD_24_1.png","C_Dist_500_LN_7_LD_28_RN_12_RD_16_1.png","C_Dist_500_LN_7_LD_28_RN_9_RD_12_1.png","C_Dist_500_LN_9_LD_27_RN_20_RD_24_1.png"]],"dist500_I":[["I_Dist_500_LN_2_LD_3_RN_4_RD_24_0.png","I_Dist_500_LN_5_LD_6_RN_6_RD_18_0.png","I_Dist_500_LN_7_LD_8_RN_9_RD_24_0.png"],["I_Dist_500_LN_7_LD_21_RN_5_RD_6_1.png"]],"dist500_S":[["E_Dist_500_LN_6_LD_8_RN_6_RD_24_0.png"],["E_Dist_500_LN_2_LD_12_RN_2_RD_3_1.png","E_Dist_500_LN_6_LD_24_RN_6_RD_8_1.png"]]}},{"start_time":1552327449904,"click_time":1552327453494,"finger_time":1552327452271,"fix_duration":1428.2810191911735,"trial":1,"RT":2367,"MT":1223,"sideResp":2,"stimulus":[],"xmouse":[789,789,789,789,789,789,789,789,789,789,789,789,789,789,789,789,789,789,789,789,789,789,789,789,789,789,789,789,789,789,789,789,789,789,789,789,789,789,789,789,789,789,789,789,789,789,789,789,789,789,789,789,789,789,789,789,789,789,789,789,789,789,789,789,789,789,789,789,789,789,789,789,789,789,789,789,789,789,789,789,789,789,789,789,789,789,789,789,789,789,789,789,789,789,789,789,789,789,789,789,789,789,789,789,789,789,789,789,790,792,808,813,817,823,826,832,834,838,844,856,862,867,872,877,883,907,928,940,951,965,969,971,975,978,986,991,995,998,1001,1004,1013,1019,1023,1026,1028,1029,1029,1030,1030,1030,1031,1032,1032,1032,1033,1034,1035,1036,1037,1040,1041,1043,1046,1050,1052,1060,1064,1068,1072,1073,1073,1073,1073,1073,1074,1075,1075,1077,1079,1083],"ymouse":[544,544,544,544,544,544,544,544,544,544,544,544,544,544,544,544,544,544,544,544,544,544,544,544,544,544,544,544,544,544,544,544,544,544,544,544,544,544,544,544,544,544,544,544,544,544,544,544,544,544,544,544,544,544,544,544,544,544,544,544,544,544,544,544,544,544,544,544,544,544,544,544,544,544,544,544,544,544,544,544,544,544,544,544,544,544,544,544,544,544,544,544,544,544,544,544,544,544,544,544,544,544,544,544,544,544,544,544,544,543,538,536,533,530,529,526,525,521,516,507,501,498,494,490,487,475,451,439,425,408,403,401,395,392,380,371,364,358,350,345,329,320,311,307,299,299,298,298,297,297,292,287,284,280,277,268,264,260,254,244,239,231,225,214,210,186,173,161,152,148,145,145,145,144,141,134,127,116,106,89],"timestamp_mouse":[9,32,48,67,89,108,128,147,168,187,209,228,248,268,288,308,329,349,368,388,408,427,448,468,488,509,529,548,568,587,609,628,649,668,688,709,728,749,769,788,808,828,849,868,888,908,928,948,968,988,1007,1027,1049,1069,1089,1108,1127,1149,1167,1187,1207,1228,1247,1268,1289,1308,1327,1348,1368,1387,1408,1429,1448,1467,1488,1509,1529,1547,1568,1589,1609,1628,1648,1667,1689,1709,1728,1747,1768,1789,1808,1828,1849,1868,1888,1908,1929,1947,1967,1989,2009,2028,2048,2067,2088,2108,2127,2147,2168,2187,2208,2228,2247,2267,2287,2307,2327,2348,2367,2389,2407,2428,2448,2469,2487,2507,2528,2548,2568,2588,2607,2628,2647,2667,2689,2707,2729,2748,2769,2787,2807,2828,2848,2869,2889,2908,2929,2948,2968,2988,3007,3027,3047,3067,3087,3107,3127,3148,3168,3190,3207,3228,3249,3267,3288,3307,3328,3348,3367,3387,3407,3428,3448,3468,3489,3508,3527,3548,3567,3589],"xSR":741.5,"ySR":501.8,"xT1":424.9,"yT1":0,"xT2":1058.1,"yT2":0,"toosoon":0,"cond_shown":"Incongruent","ratio_trial":200,"L_num":7,"L_den":15,"R_num":4,"R_den":6,"correct_side":2,"subjID":"tomasnope35","gender":"0","school":"4","age":"8"},{"start_time":1552327455619,"click_time":1552327458873,"finger_time":1552327457912,"fix_duration":386.2597294530583,"trial":2,"RT":2293,"MT":961,"sideResp":2,"stimulus":[],"xmouse":[767,767,767,767,767,767,767,767,767,768,768,768,769,769,770,770,770,771,773,774,775,777,778,779,780,780,780,780,780,780,782,785,789,794,794,794,794,794,795,795,795,795,795,795,795,795,795,795,795,795,795,795,795,795,795,795,795,795,795,795,795,795,795,795,795,795,795,795,795,795,795,795,795,795,795,795,795,795,795,795,795,795,795,795,795,795,795,795,795,795,795,795,795,795,795,795,795,795,795,795,795,795,795,795,795,795,795,795,795,799,805,813,820,833,858,874,892,910,929,973,991,1003,1011,1015,1017,1017,1018,1019,1019,1023,1024,1028,1033,1040,1054,1063,1067,1074,1077,1085,1087,1088,1088,1088,1088,1088,1088,1088,1088,1088,1088,1089,1089,1090,1090,1090,1090,1090,1090,1090,1090,1090,1091],"ymouse":[556,556,556,556,556,556,556,556,556,556,556,556,556,556,556,556,556,556,556,556,556,556,557,558,560,560,560,560,560,560,561,561,561,562,562,562,562,562,562,558,556,555,554,554,554,554,554,554,554,553,553,553,553,553,553,553,553,553,553,553,553,553,553,553,553,553,553,553,553,553,553,553,553,553,553,553,552,552,552,552,552,552,552,552,552,552,552,552,552,552,552,552,552,552,552,552,552,552,552,552,552,552,552,552,552,552,552,552,552,551,547,545,543,540,529,522,512,499,482,442,424,406,393,385,376,371,366,360,354,336,331,321,303,282,233,211,202,188,179,161,158,156,156,156,156,156,155,153,134,121,114,106,105,104,104,104,104,104,104,104,104,101,98],"timestamp_mouse":[22,33,52,72,92,113,133,152,173,194,213,232,254,272,292,312,332,352,373,393,412,432,453,472,493,512,534,552,574,594,613,633,653,673,694,713,733,752,772,793,813,832,852,873,894,913,933,953,972,994,1013,1033,1052,1073,1093,1114,1133,1152,1173,1193,1214,1234,1253,1274,1293,1313,1334,1354,1373,1393,1412,1433,1452,1474,1494,1512,1532,1554,1574,1592,1613,1634,1652,1674,1693,1713,1733,1753,1773,1793,1812,1834,1852,1873,1893,1912,1933,1954,1974,1993,2013,2032,2053,2074,2094,2113,2132,2152,2173,2193,2213,2234,2252,2272,2293,2313,2333,2353,2372,2393,2413,2433,2452,2474,2493,2513,2533,2554,2574,2593,2612,2632,2653,2673,2692,2712,2733,2753,2772,2792,2813,2833,2853,2872,2892,2913,2932,2953,2974,2992,3014,3034,3054,3074,3092,3113,3133,3153,3173,3192,3213,3232,3253],"xSR":741.5,"ySR":501.8,"xT1":424.9,"yT1":0,"xT2":1058.1,"yT2":0,"toosoon":0,"cond_shown":"Incongruent","ratio_trial":300,"L_num":1,"L_den":2,"R_num":2,"R_den":10,"correct_side":1,"subjID":"tomasnope35","gender":"0","school":"4","age":"8"},{"start_time":1552327462144,"click_time":1552327464073,"finger_time":1552327463432,"fix_duration":250,"trial":3,"RT":1288,"MT":641,"sideResp":1,"stimulus":[],"xmouse":[766,766,767,767,767,768,768,768,768,768,768,768,768,768,768,768,768,768,768,768,768,768,768,768,768,768,768,768,768,768,768,768,768,768,768,768,768,768,769,769,769,769,769,769,770,770,770,770,770,770,770,770,770,770,770,770,770,770,770,770,770,770,757,750,733,717,699,653,629,613,609,608,606,605,603,600,598,591,589,586,582,576,570,557,555,555,555,555,555,554,552,550,544,528,521,513,508],"ymouse":[529,529,531,531,532,532,532,532,532,532,532,532,532,532,532,532,532,532,532,532,532,532,532,532,532,532,532,532,532,532,532,532,532,532,532,532,532,532,532,532,531,531,531,531,531,531,531,531,531,531,531,531,531,530,530,530,530,530,530,530,530,527,518,512,497,483,464,422,397,379,372,368,363,360,348,341,334,313,304,293,279,262,244,197,186,180,175,168,166,162,156,149,141,118,108,101,95],"timestamp_mouse":[11,29,48,68,88,108,129,148,169,188,209,229,248,268,288,309,327,348,367,388,408,427,449,469,489,507,529,547,567,587,607,629,648,667,687,707,728,748,768,788,808,829,848,868,888,909,928,948,967,988,1008,1028,1048,1068,1087,1107,1129,1149,1169,1188,1207,1228,1249,1269,1288,1308,1327,1349,1367,1388,1408,1429,1449,1468,1487,1508,1528,1548,1567,1588,1607,1627,1649,1667,1688,1708,1728,1750,1767,1787,1807,1829,1849,1867,1887,1908,1929],"xSR":741.5,"ySR":501.8,"xT1":424.9,"yT1":0,"xT2":1058.1,"yT2":0,"toosoon":0,"cond_shown":"Incongruent","ratio_trial":300,"L_num":13,"L_den":26,"R_num":12,"R_den":15,"correct_side":2,"subjID":"tomasnope35","gender":"0","school":"4","age":"8"},{"start_time":1552327466456,"click_time":1552327468211,"finger_time":1552327467792,"fix_duration":682.0499277621238,"trial":4,"RT":1336,"MT":419,"sideResp":2,"stimulus":[],"xmouse":[770,766,766,766,766,766,766,766,766,766,766,766,766,766,766,766,766,771,778,782,787,795,798,798,798,798,798,798,798,798,798,798,798,798,798,798,798,797,797,797,797,797,797,797,797,797,797,794,790,788,786,782,781,779,778,777,777,777,777,777,777,777,783,792,806,819,855,871,879,885,889,894,896,901,905,912,926,937,948,957,969,991,1005,1019,1033,1043,1066,1075],"ymouse":[567,580,584,584,584,584,584,584,584,584,584,584,584,584,584,585,585,581,574,569,564,549,541,540,540,540,540,540,540,540,540,540,540,540,540,540,540,540,540,540,540,540,540,540,540,540,540,542,543,543,544,545,546,546,546,547,547,547,547,547,547,547,545,543,538,534,523,515,511,508,505,501,500,496,492,485,467,448,435,423,408,375,346,311,264,207,120,70],"timestamp_mouse":[16,35,55,76,97,115,136,156,175,197,217,236,257,275,296,317,336,355,375,396,416,436,456,476,496,517,536,556,576,597,617,636,656,675,697,716,736,755,777,797,815,836,855,876,896,916,935,955,975,995,1015,1036,1056,1077,1096,1116,1137,1155,1176,1196,1216,1237,1256,1276,1295,1315,1336,1356,1376,1396,1417,1438,1456,1476,1496,1515,1537,1555,1575,1596,1616,1637,1655,1675,1696,1715,1736,1755],"xSR":741.5,"ySR":501.8,"xT1":424.9,"yT1":0,"xT2":1058.1,"yT2":0,"toosoon":0,"cond_shown":"Congruent","ratio_trial":100,"L_num":15,"L_den":25,"R_num":13,"R_den":26,"correct_side":1,"subjID":"tomasnope35","gender":"0","school":"4","age":"8"},{"start_time":1552327471174,"click_time":1552327472952,"finger_time":1552327471993,"fix_duration":1020.1651415514059,"trial":5,"RT":819,"MT":959,"sideResp":1,"stimulus":[],"xmouse":[788,788,788,788,788,788,788,788,788,788,788,788,788,788,788,788,788,788,788,788,788,788,788,788,788,788,788,789,789,789,789,789,789,790,790,783,779,775,770,766,755,753,748,744,743,740,729,720,713,707,701,690,687,684,680,666,657,649,642,633,628,604,596,591,584,578,565,563,562,561,561,558,555,552,549,547,535,529,525,523,520,510,509,509,508,507,507,507,507],"ymouse":[545,545,545,545,545,545,545,545,545,545,545,545,545,545,545,545,545,545,545,545,545,545,545,545,545,545,545,545,545,545,545,545,545,545,543,529,522,518,512,505,491,486,476,468,467,463,450,441,433,427,420,406,402,397,391,374,364,357,350,344,339,318,308,300,288,278,255,249,247,244,241,229,220,213,207,203,183,176,170,168,164,150,147,142,139,132,115,104,93],"timestamp_mouse":[19,38,58,78,99,117,139,158,178,199,219,239,258,277,297,318,338,358,379,399,417,437,457,477,498,517,537,558,579,599,618,639,658,677,698,718,737,759,777,797,819,838,858,879,897,917,938,957,978,997,1017,1037,1057,1078,1097,1118,1138,1158,1179,1198,1219,1239,1257,1278,1299,1317,1337,1357,1378,1398,1417,1438,1457,1477,1498,1517,1538,1557,1578,1597,1617,1637,1658,1677,1699,1717,1737,1758,1778],"xSR":741.5,"ySR":501.8,"xT1":424.9,"yT1":0,"xT2":1058.1,"yT2":0,"toosoon":0,"cond_shown":"Congruent","ratio_trial":200,"L_num":4,"L_den":10,"R_num":3,"R_den":15,"correct_side":1,"subjID":"tomasnope35","gender":"0","school":"4","age":"8"},{"start_time":1552327476498,"click_time":1552327479092,"finger_time":1552327478013,"fix_duration":763.472439853442,"trial":6,"RT":1515,"MT":1079,"sideResp":1,"stimulus":[],"xmouse":[794,793,792,792,792,792,792,792,792,792,792,792,792,792,792,792,792,792,792,792,792,792,792,792,792,792,792,792,792,792,792,792,792,792,792,792,792,792,792,792,792,792,792,792,792,792,792,792,792,797,800,803,806,806,808,808,808,808,808,808,808,808,808,808,808,809,811,811,811,811,807,794,784,778,776,774,773,770,768,766,766,766,766,766,761,754,739,729,722,709,701,695,688,677,663,615,596,579,569,564,562,559,555,548,532,527,526,524,521,512,509,508,507,507,507,506,505,505,505,504,504,503,503,503,503,502,502,501,500,499],"ymouse":[542,542,543,543,543,543,543,543,543,543,543,543,543,543,543,543,543,543,543,543,543,543,543,543,543,543,543,543,543,543,543,543,543,543,543,543,543,543,543,543,543,543,543,543,543,543,543,543,543,540,537,534,532,531,531,531,531,531,531,531,531,531,531,531,531,530,528,528,528,528,526,522,518,512,503,488,476,465,457,452,452,452,452,452,442,430,408,394,382,358,344,331,317,300,280,231,216,203,195,190,189,187,186,181,168,163,160,157,151,133,128,124,123,123,123,116,112,112,110,108,107,105,105,105,104,103,102,101,101,99],"timestamp_mouse":[20,35,53,73,93,113,133,154,175,195,215,233,253,274,293,315,335,354,374,395,415,434,453,473,494,513,535,555,574,594,614,633,654,674,695,714,733,753,774,794,815,834,854,874,893,914,935,953,974,994,1014,1035,1055,1075,1095,1114,1134,1153,1174,1195,1215,1234,1254,1273,1295,1315,1335,1354,1374,1395,1415,1433,1454,1474,1495,1515,1535,1555,1574,1595,1614,1634,1654,1674,1696,1714,1734,1755,1774,1795,1814,1833,1853,1873,1895,1914,1934,1954,1975,1996,2014,2034,2054,2073,2095,2114,2135,2154,2174,2195,2214,2235,2255,2274,2295,2314,2335,2355,2374,2396,2413,2434,2454,2474,2494,2515,2533,2554,2574,2593],"xSR":741.5,"ySR":501.8,"xT1":424.9,"yT1":0,"xT2":1058.1,"yT2":0,"toosoon":0,"cond_shown":"Congruent","ratio_trial":200,"L_num":13,"L_den":26,"R_num":14,"R_den":20,"correct_side":2,"subjID":"tomasnope35","gender":"0","school":"4","age":"8"},{"start_time":1552327482869,"click_time":1552327484194,"finger_time":1552327483473,"fix_duration":956.3596652391469,"trial":7,"RT":604,"MT":721,"sideResp":2,"stimulus":[],"xmouse":[787,787,787,787,787,787,787,787,787,787,787,787,787,787,787,787,787,787,787,787,787,787,788,791,794,796,803,811,828,840,853,865,886,900,918,942,963,989,992,994,995,996,999,1000,1001,1002,1006,1011,1019,1030,1040,1049,1057,1057,1057,1057,1057,1057,1057,1057,1057,1061,1068,1076,1084,1090,1104],"ymouse":[554,554,554,554,554,554,554,554,554,554,554,554,554,554,554,554,554,554,554,554,554,554,552,550,547,546,540,533,522,512,503,495,479,469,453,430,410,369,359,351,344,341,334,330,325,322,313,301,288,273,256,241,226,226,226,226,226,226,223,215,205,183,166,149,132,117,85],"timestamp_mouse":[10,24,44,62,83,102,124,143,162,182,204,224,244,263,284,303,323,342,364,384,404,423,444,463,484,504,524,543,563,583,604,622,642,663,683,703,723,742,763,784,802,823,842,862,882,903,925,943,963,983,1003,1024,1043,1063,1082,1103,1124,1143,1163,1183,1203,1225,1242,1263,1282,1304,1325],"xSR":741.5,"ySR":501.8,"xT1":424.9,"yT1":0,"xT2":1058.1,"yT2":0,"toosoon":0,"cond_shown":"Incongruent","ratio_trial":100,"L_num":11,"L_den":22,"R_num":9,"R_den":15,"correct_side":2,"subjID":"tomasnope35","gender":"0","school":"4","age":"8"},{"start_time":1552327487516,"click_time":1552327489152,"finger_time":1552327488531,"fix_duration":1363.032738680561,"trial":8,"RT":1015,"MT":621,"sideResp":1,"stimulus":[],"xmouse":[792,792,795,796,798,799,801,801,802,803,803,803,803,803,803,803,803,803,803,803,803,803,802,800,800,800,800,800,800,800,800,800,800,800,800,800,800,800,800,800,800,800,800,800,800,800,800,799,787,763,751,745,743,737,733,727,723,719,707,702,697,690,686,683,679,673,665,656,643,621,614,606,599,591,588,584,580,576,563,547,531,516],"ymouse":[568,568,561,557,551,548,544,543,541,540,539,539,539,539,539,539,539,539,539,539,538,538,538,538,538,538,538,538,538,538,538,538,538,538,538,538,538,538,538,538,538,538,537,537,537,537,536,535,526,502,487,478,473,457,443,427,414,399,373,365,356,344,338,332,324,314,303,291,273,228,204,179,149,105,87,76,71,68,59,49,37,27],"timestamp_mouse":[32,35,56,75,96,115,136,157,177,196,216,237,257,277,297,317,337,357,376,396,417,435,456,477,497,516,536,557,576,596,617,636,656,677,697,716,737,757,777,797,816,835,856,876,897,916,935,955,975,995,1015,1036,1057,1078,1096,1117,1137,1156,1177,1196,1217,1237,1256,1276,1296,1316,1337,1356,1376,1396,1416,1437,1456,1478,1495,1517,1536,1555,1578,1597,1617,1635],"xSR":741.5,"ySR":501.8,"xT1":424.9,"yT1":0,"xT2":1058.1,"yT2":0,"toosoon":0,"cond_shown":"Congruent","ratio_trial":300,"L_num":20,"L_den":25,"R_num":13,"R_den":26,"correct_side":1,"subjID":"tomasnope35","gender":"0","school":"4","age":"8"},{"start_time":1552327492407,"click_time":1552327494413,"finger_time":1552327493292,"fix_duration":1232.7605368087764,"trial":9,"RT":885,"MT":1121,"sideResp":2,"stimulus":[],"xmouse":[783,783,783,783,783,783,783,783,783,783,783,783,783,783,783,783,783,783,783,783,783,783,783,783,783,783,783,783,783,783,783,783,783,783,783,783,783,783,783,783,783,783,783,783,768,757,746,738,738,738,737,737,737,737,737,737,737,737,739,739,755,767,774,782,815,837,856,875,890,910,927,938,945,957,962,969,976,991,1014,1059,1074,1080,1082,1083,1083,1083,1083,1083,1083,1083,1085,1086,1087,1087,1087,1089,1093,1100,1107,1110,1119],"ymouse":[539,539,539,539,539,539,539,539,539,539,539,539,539,539,539,539,539,539,539,539,539,539,539,539,539,539,539,539,539,539,539,539,539,539,539,539,539,539,539,539,539,539,527,502,450,423,400,384,378,377,376,376,376,376,376,376,376,376,376,376,375,373,370,368,358,352,344,336,330,320,310,303,300,293,291,287,284,277,267,232,208,198,194,193,193,193,193,193,193,189,184,181,178,178,175,173,164,145,123,102,40],"timestamp_mouse":[12,31,44,66,86,105,126,144,166,186,205,226,245,266,284,304,325,346,366,385,405,426,446,465,486,506,525,545,565,586,604,626,645,665,686,706,724,746,765,785,805,825,845,865,885,904,925,945,965,986,1004,1025,1046,1065,1085,1104,1126,1145,1165,1185,1205,1226,1245,1265,1287,1304,1325,1345,1364,1387,1404,1425,1445,1465,1484,1505,1526,1546,1565,1587,1604,1625,1646,1665,1686,1705,1725,1745,1765,1787,1805,1825,1846,1865,1886,1904,1925,1946,1965,1986,2006],"xSR":741.5,"ySR":501.8,"xT1":424.9,"yT1":0,"xT2":1058.1,"yT2":0,"toosoon":0,"cond_shown":"Incongruent","ratio_trial":300,"L_num":13,"L_den":26,"R_num":12,"R_den":15,"correct_side":2,"subjID":"tomasnope35","gender":"0","school":"4","age":"8"},{"start_time":1552327497177,"click_time":1552327498873,"finger_time":1552327498352,"fix_duration":662.5861459883417,"trial":10,"RT":1175,"MT":521,"sideResp":1,"stimulus":[],"xmouse":[805,804,804,803,803,803,803,803,803,803,803,803,803,803,803,803,803,803,803,803,803,803,803,803,803,803,803,803,803,803,803,803,803,803,803,803,803,803,803,803,803,803,803,803,803,803,803,803,803,803,803,803,803,801,798,792,778,764,745,720,703,685,681,681,681,680,678,676,672,666,657,641,635,628,620,597,587,576,568,561,542,531,507,488,468],"ymouse":[547,547,547,546,546,546,545,545,545,544,544,544,544,544,544,544,544,544,544,544,544,544,544,544,544,544,544,544,544,544,544,544,544,544,544,544,544,544,544,544,544,544,544,544,544,544,544,544,544,544,544,544,544,541,539,535,521,507,489,466,448,425,420,419,418,417,410,401,389,374,353,312,300,287,274,240,224,209,198,185,161,148,128,111,93],"timestamp_mouse":[21,44,54,76,95,116,136,154,175,195,216,235,256,276,295,314,336,355,375,395,415,436,455,474,494,515,534,555,575,594,614,635,655,676,695,714,734,755,776,795,815,836,855,876,895,915,936,956,974,996,1016,1034,1055,1076,1096,1115,1134,1154,1175,1196,1215,1234,1254,1275,1295,1315,1335,1355,1375,1395,1414,1435,1455,1475,1495,1517,1534,1555,1575,1595,1616,1635,1654,1675,1696],"xSR":741.5,"ySR":501.8,"xT1":424.9,"yT1":0,"xT2":1058.1,"yT2":0,"toosoon":0,"cond_shown":"Congruent","ratio_trial":200,"L_num":15,"L_den":25,"R_num":4,"R_den":10,"correct_side":1,"subjID":"tomasnope35","gender":"0","school":"4","age":"8"},{"start_time":1552327501285,"click_time":1552327503612,"finger_time":1552327502691,"fix_duration":250,"trial":11,"RT":1406,"MT":921,"sideResp":2,"stimulus":[],"xmouse":[804,803,802,802,802,800,798,795,795,794,793,792,792,791,791,791,791,791,791,791,791,791,791,791,791,791,791,791,791,791,791,791,791,791,791,791,791,791,791,791,791,791,791,791,791,791,791,791,791,791,791,791,791,791,791,791,791,791,791,791,791,791,791,791,791,791,795,804,815,830,840,858,865,872,878,895,905,914,922,928,933,943,950,959,968,981,986,991,994,997,1004,1008,1011,1016,1019,1026,1029,1030,1030,1030,1031,1032,1034,1034,1035,1037,1038,1039,1041,1041,1046,1048,1050,1052,1054,1055,1068],"ymouse":[519,520,521,522,523,527,531,537,539,541,542,545,547,548,548,548,548,548,548,548,548,548,548,548,548,548,548,548,548,548,548,548,548,548,548,548,548,548,548,548,548,548,548,548,548,548,548,548,548,548,548,548,548,548,548,548,548,548,548,548,548,548,548,548,548,548,547,537,524,505,485,453,436,419,403,364,342,323,308,295,284,266,254,239,223,200,188,173,166,159,143,136,125,116,108,95,91,90,89,89,88,86,85,84,83,82,79,79,77,77,74,74,72,72,71,70,67],"timestamp_mouse":[8,37,48,67,88,107,126,147,168,187,207,226,248,268,287,306,328,347,366,388,408,428,446,467,487,507,528,548,568,587,607,628,647,668,688,707,727,746,768,788,807,828,848,866,887,908,928,946,966,986,1007,1026,1047,1066,1088,1108,1127,1146,1167,1188,1208,1227,1248,1268,1286,1308,1326,1347,1368,1388,1406,1426,1447,1468,1486,1508,1527,1547,1568,1586,1607,1627,1646,1666,1687,1708,1726,1748,1767,1787,1809,1827,1847,1867,1887,1909,1927,1948,1966,1987,2008,2027,2047,2068,2088,2109,2127,2147,2167,2188,2208,2227,2247,2266,2287,2308,2327],"xSR":741.5,"ySR":501.8,"xT1":424.9,"yT1":0,"xT2":1058.1,"yT2":0,"toosoon":0,"cond_shown":"Congruent","ratio_trial":200,"L_num":20,"L_den":25,"R_num":9,"R_den":15,"correct_side":1,"subjID":"tomasnope35","gender":"0","school":"4","age":"8"},{"start_time":1552327507860,"click_time":1552327508953,"finger_time":1552327508352,"fix_duration":826.3989464639542,"trial":12,"RT":492,"MT":601,"sideResp":1,"stimulus":[],"xmouse":[789,789,789,789,789,789,789,789,789,789,789,789,789,789,789,789,789,789,789,786,782,775,758,748,736,728,723,714,711,710,708,705,696,691,689,684,676,655,635,625,622,622,620,611,596,576,560,541,539,539,538,537,529,526,522],"ymouse":[539,539,539,539,539,539,539,539,539,539,539,539,539,539,539,539,539,539,539,539,539,537,524,509,488,468,448,417,410,407,400,393,376,368,362,352,339,309,284,271,266,262,258,241,217,180,149,114,110,109,108,106,91,83,76],"timestamp_mouse":[14,38,53,72,92,112,132,152,172,192,212,232,252,272,292,312,332,352,372,392,413,433,451,472,492,511,533,551,571,592,613,632,653,672,693,713,732,752,772,792,813,833,851,872,893,912,932,951,971,993,1013,1032,1053,1073,1093],"xSR":741.5,"ySR":501.8,"xT1":424.9,"yT1":0,"xT2":1058.1,"yT2":0,"toosoon":0,"cond_shown":"Congruent","ratio_trial":100,"L_num":4,"L_den":10,"R_num":15,"R_den":30,"correct_side":2,"subjID":"tomasnope35","gender":"0","school":"4","age":"8"},{"start_time":1552327512584,"click_time":1552327513573,"finger_time":1552327512952,"fix_duration":250,"trial":13,"RT":368,"MT":621,"sideResp":1,"stimulus":[],"xmouse":[786,786,786,786,786,786,786,786,786,786,786,781,773,766,761,758,757,751,739,724,703,657,644,633,627,623,621,618,613,610,603,600,600,598,596,590,586,582,578,571,565,557,553,550,547,542,531,524,520,515],"ymouse":[553,553,553,553,553,553,553,553,553,553,553,551,549,545,542,539,536,524,504,481,451,387,370,355,347,341,337,333,326,320,307,298,292,287,278,252,238,224,211,195,182,163,154,148,142,135,120,111,104,96],"timestamp_mouse":[10,36,49,68,88,108,128,148,167,187,207,227,247,268,288,309,328,348,368,387,409,427,448,468,488,509,528,548,568,589,625,628,648,669,689,708,727,748,769,788,808,828,848,868,888,908,927,948,968,989],"xSR":741.5,"ySR":501.8,"xT1":424.9,"yT1":0,"xT2":1058.1,"yT2":0,"toosoon":0,"cond_shown":"Congruent","ratio_trial":300,"L_num":1,"L_den":5,"R_num":6,"R_den":12,"correct_side":2,"subjID":"tomasnope35","gender":"0","school":"4","age":"8"},{"start_time":1552327516118,"click_time":1552327518353,"finger_time":1552327517272,"fix_duration":1204.75392707131,"trial":14,"RT":1154,"MT":1081,"sideResp":1,"stimulus":[],"xmouse":[782,782,782,782,782,782,782,782,782,782,782,782,782,782,782,782,782,782,781,780,778,777,776,776,776,776,776,776,776,776,776,776,776,776,776,776,776,776,776,776,776,775,775,778,789,791,792,794,795,805,808,812,815,818,823,829,836,843,848,850,854,862,873,895,907,910,911,912,912,912,912,912,913,913,921,923,924,925,925,925,925,925,925,925,925,925,918,907,882,870,860,850,843,828,810,798,780,764,750,742,734,719,701,685,659,647,634,615,569,546,529,515],"ymouse":[537,537,537,537,537,537,537,537,537,537,537,537,537,537,537,537,537,537,537,537,537,537,537,537,537,537,537,537,537,537,537,537,537,537,537,537,537,537,537,537,537,537,535,535,529,529,527,527,526,520,518,517,516,514,511,508,504,499,496,495,492,485,478,458,447,446,444,444,444,444,443,443,442,441,431,427,425,423,423,423,423,423,423,423,423,420,413,404,374,360,347,334,323,305,287,273,254,235,219,208,202,195,185,174,154,141,131,117,82,65,52,43],"timestamp_mouse":[14,39,54,75,95,115,133,153,173,194,215,234,254,273,295,314,335,355,373,394,415,435,455,475,494,514,534,554,574,594,615,634,654,674,694,714,735,754,775,795,815,834,854,874,895,915,935,954,973,994,1013,1034,1055,1075,1094,1115,1133,1154,1175,1194,1214,1233,1253,1276,1293,1314,1335,1354,1375,1395,1414,1435,1455,1475,1494,1515,1533,1553,1575,1594,1615,1635,1655,1674,1694,1714,1734,1754,1776,1793,1814,1833,1854,1875,1893,1915,1935,1954,1974,1993,2013,2034,2054,2075,2093,2114,2135,2155,2175,2194,2214,2235],"xSR":741.5,"ySR":501.8,"xT1":424.9,"yT1":0,"xT2":1058.1,"yT2":0,"toosoon":0,"cond_shown":"Congruent","ratio_trial":300,"L_num":7,"L_den":14,"R_num":20,"R_den":25,"correct_side":2,"subjID":"tomasnope35","gender":"0","school":"4","age":"8"},{"start_time":1552327520078,"click_time":1552327522551,"finger_time":1552327520872,"fix_duration":344.685134838397,"trial":15,"RT":794,"MT":1679,"sideResp":2,"stimulus":[],"xmouse":[773,775,775,775,775,775,775,775,775,775,775,775,775,775,775,775,775,775,777,778,780,780,781,782,782,783,783,783,783,783,784,784,784,784,785,788,800,811,824,836,861,871,878,882,885,887,890,892,894,896,900,902,902,903,903,905,906,907,907,910,922,928,933,937,939,940,943,944,946,947,951,954,957,961,964,971,980,988,996,1003,1012,1030,1037,1046,1052,1064,1070,1072,1075,1076,1077,1078,1079,1079,1079,1079,1080,1080,1080,1080,1080,1081,1081,1082,1082,1083,1084,1085,1085,1086,1086,1086,1086,1086,1086,1086,1086,1086,1087,1087,1088,1089,1090,1094],"ymouse":[519,517,514,513,513,513,513,513,513,513,513,513,513,513,513,513,513,513,513,514,516,517,518,519,520,521,521,521,521,521,521,521,521,521,521,521,517,513,506,498,479,472,466,463,458,455,451,447,442,438,431,428,427,426,424,423,421,420,419,415,396,385,375,367,361,359,355,353,350,348,341,336,331,324,319,308,295,284,275,263,248,220,208,193,181,160,147,141,136,133,130,128,126,126,126,125,124,124,124,123,122,121,121,119,118,116,114,113,112,110,109,109,109,109,109,109,109,109,108,108,108,105,104,99],"timestamp_mouse":[14,33,54,74,94,115,133,153,173,194,215,234,253,273,293,313,335,354,375,394,415,435,455,474,494,515,533,553,573,595,614,633,654,673,694,715,734,754,775,794,816,834,853,874,894,916,933,954,975,993,1016,1034,1054,1074,1093,1115,1134,1154,1174,1194,1215,1234,1254,1274,1295,1315,1334,1354,1375,1395,1414,1434,1454,1474,1494,1515,1533,1554,1575,1595,1615,1635,1654,1674,1695,1715,1734,1753,1774,1793,1815,1834,1854,1874,1895,1914,1935,1953,1974,1994,2014,2035,2054,2074,2094,2115,2134,2154,2174,2195,2215,2233,2254,2275,2294,2314,2334,2354,2374,2395,2414,2435,2454,2473],"xSR":741.5,"ySR":501.8,"xT1":424.9,"yT1":0,"xT2":1058.1,"yT2":0,"toosoon":0,"cond_shown":"Incongruent","ratio_trial":300,"L_num":2,"L_den":4,"R_num":6,"R_den":30,"correct_side":1,"subjID":"tomasnope35","gender":"0","school":"4","age":"8"},{"start_time":1552327525146,"click_time":1552327527412,"finger_time":1552327526612,"fix_duration":1132.530786580368,"trial":16,"RT":1466,"MT":800,"sideResp":2,"stimulus":[],"xmouse":[783,783,783,784,784,784,784,784,784,784,784,784,784,785,785,785,785,785,785,785,785,785,785,785,785,785,785,785,785,785,785,782,781,780,780,780,780,780,780,780,780,780,780,780,780,780,780,780,780,780,780,780,780,780,780,780,780,780,780,780,780,780,780,780,780,779,779,784,792,794,796,797,808,820,838,864,890,924,931,934,934,934,934,934,934,934,934,939,943,946,949,950,951,951,955,960,970,990,1001,1009,1015,1018,1022,1024,1025,1026,1026,1027,1029,1031,1037,1040,1052,1059],"ymouse":[564,564,564,563,563,563,563,563,563,563,563,563,563,561,560,560,560,560,560,560,560,560,560,560,560,560,560,560,560,560,560,559,559,559,559,558,558,558,558,558,558,558,558,558,558,558,558,558,558,558,558,558,558,558,558,558,558,558,558,558,558,558,558,558,558,558,556,549,540,537,533,531,511,489,467,429,392,334,319,316,316,316,316,316,316,316,315,311,307,305,301,299,298,297,290,281,266,227,210,193,179,171,163,156,155,154,153,151,146,142,133,128,110,98],"timestamp_mouse":[8,34,46,65,86,107,127,147,167,187,206,226,247,266,286,305,326,347,366,386,405,425,446,467,486,505,527,546,567,586,606,627,647,667,686,707,726,746,767,787,807,827,847,867,885,906,926,946,965,987,1006,1026,1045,1066,1087,1106,1126,1145,1167,1186,1205,1227,1246,1266,1286,1305,1327,1347,1366,1387,1405,1427,1447,1466,1486,1506,1527,1547,1566,1587,1606,1627,1646,1667,1686,1706,1727,1746,1765,1786,1806,1827,1846,1866,1886,1907,1927,1948,1965,1986,2007,2025,2047,2065,2086,2106,2126,2146,2167,2185,2206,2227,2248,2265],"xSR":741.5,"ySR":501.8,"xT1":424.9,"yT1":0,"xT2":1058.1,"yT2":0,"toosoon":0,"cond_shown":"Congruent","ratio_trial":300,"L_num":2,"L_den":20,"R_num":10,"R_den":25,"correct_side":2,"subjID":"tomasnope35","gender":"0","school":"4","age":"8"},{"start_time":1552327530885,"click_time":1552327532993,"finger_time":1552327532411,"fix_duration":1191.052649778911,"trial":17,"RT":1526,"MT":582,"sideResp":2,"stimulus":[],"xmouse":[778,778,778,778,778,778,778,778,778,778,778,778,778,778,778,778,778,778,778,778,778,778,778,778,778,778,778,778,778,778,778,778,778,778,778,778,778,778,778,778,778,778,778,778,778,778,778,778,778,778,778,778,778,778,778,778,778,778,778,778,778,778,778,778,778,778,778,778,782,784,796,805,813,817,823,829,835,838,841,846,852,871,882,894,901,909,919,921,923,928,938,948,957,966,975,991,1003,1007,1010,1013,1017,1033,1054,1081,1113,1142],"ymouse":[532,532,532,532,532,532,532,532,532,532,532,532,532,532,532,532,532,532,532,532,532,532,532,532,532,532,532,532,532,532,532,532,532,532,532,532,532,532,532,532,532,532,532,532,532,532,532,532,532,532,532,532,532,532,532,532,532,532,532,532,532,532,532,532,532,532,532,532,532,531,526,523,518,515,511,506,500,497,492,485,479,457,446,434,424,417,404,402,399,393,380,369,359,349,337,313,296,288,283,277,272,243,208,161,105,57],"timestamp_mouse":[8,30,48,67,87,106,127,147,167,188,206,227,247,266,288,308,328,346,367,388,408,427,446,468,487,508,527,547,567,588,607,628,648,668,687,707,728,748,768,788,807,827,848,867,887,908,928,947,967,987,1007,1028,1047,1067,1088,1108,1128,1148,1167,1188,1207,1228,1248,1268,1287,1307,1328,1347,1368,1388,1408,1427,1447,1468,1487,1507,1526,1548,1567,1588,1607,1628,1647,1668,1687,1707,1727,1747,1767,1787,1808,1826,1847,1867,1887,1908,1927,1947,1967,1988,2007,2027,2047,2067,2088,2108],"xSR":741.5,"ySR":501.8,"xT1":424.9,"yT1":0,"xT2":1058.1,"yT2":0,"toosoon":0,"cond_shown":"Congruent","ratio_trial":100,"L_num":15,"L_den":25,"R_num":13,"R_den":26,"correct_side":1,"subjID":"tomasnope35","gender":"0","school":"4","age":"8"},{"start_time":1552327535770,"click_time":1552327538294,"finger_time":1552327537572,"fix_duration":975.6476333236166,"trial":18,"RT":1802,"MT":722,"sideResp":1,"stimulus":[],"xmouse":[808,808,808,808,808,808,806,805,804,804,804,804,804,804,804,804,804,804,804,804,804,804,804,804,804,804,804,804,804,804,804,804,804,804,804,804,804,804,804,804,804,804,804,804,804,804,804,804,804,804,804,804,804,804,804,804,804,804,804,804,804,804,804,804,804,804,804,804,804,804,804,804,804,804,804,803,803,803,803,803,803,803,803,803,803,803,803,801,796,783,763,743,705,695,686,674,648,632,615,599,583,551,532,522,522,521,520,517,515,511,510,510,510,510,510,510,510,510,510,510,510,510,510,510,510,510,510],"ymouse":[539,539,539,539,539,539,539,541,543,543,543,543,543,543,543,543,543,543,543,543,543,543,543,543,543,543,543,543,543,543,543,543,543,543,544,544,544,544,544,544,544,544,544,544,544,544,544,544,544,544,544,544,544,544,544,544,544,544,544,544,544,544,544,544,544,544,544,544,544,544,543,542,541,541,540,540,540,540,540,540,540,540,540,540,540,537,536,526,518,503,481,456,384,359,334,307,259,236,215,196,177,137,114,104,103,102,102,102,102,101,101,101,101,101,101,101,101,101,101,101,101,100,100,100,100,100,98],"timestamp_mouse":[9,31,42,63,83,103,123,143,161,183,202,222,242,263,281,301,323,343,362,382,403,423,443,463,481,502,523,542,562,582,602,623,642,663,682,702,721,743,762,783,802,822,843,862,881,901,921,943,962,982,1002,1022,1043,1061,1082,1103,1122,1143,1162,1182,1202,1223,1242,1263,1281,1302,1321,1341,1363,1383,1403,1423,1442,1461,1483,1502,1523,1542,1563,1583,1603,1623,1642,1663,1682,1703,1721,1742,1763,1783,1802,1823,1842,1862,1882,1901,1923,1942,1962,1983,2002,2023,2042,2062,2082,2102,2123,2142,2162,2182,2203,2222,2243,2263,2282,2303,2323,2341,2362,2382,2401,2421,2441,2462,2482,2502,2523],"xSR":741.5,"ySR":501.8,"xT1":424.9,"yT1":0,"xT2":1058.1,"yT2":0,"toosoon":0,"cond_shown":"Congruent","ratio_trial":100,"L_num":4,"L_den":10,"R_num":15,"R_den":30,"correct_side":2,"subjID":"tomasnope35","gender":"0","school":"4","age":"8"},{"start_time":1552327541399,"click_time":1552327542953,"finger_time":1552327542512,"fix_duration":446.4128220604635,"trial":19,"RT":1113,"MT":441,"sideResp":1,"stimulus":[],"xmouse":[787,787,786,785,785,785,785,784,783,783,780,778,776,775,774,774,774,774,774,774,774,774,774,774,774,774,774,774,774,774,774,774,774,774,774,774,774,774,774,773,773,773,773,773,773,773,773,773,773,773,773,773,771,764,747,710,701,695,693,690,675,661,652,640,627,612,606,598,589,572,557,550,545,541,534,531,527,524],"ymouse":[532,533,535,535,535,535,535,535,535,535,536,536,536,536,537,537,537,537,537,537,537,537,537,537,537,537,537,537,537,537,537,537,537,537,537,537,537,537,537,537,537,537,537,537,537,537,537,537,537,537,537,537,534,527,511,479,469,461,457,454,436,415,403,386,367,341,324,307,289,243,210,189,171,155,132,119,109,99],"timestamp_mouse":[19,33,53,73,94,114,133,153,174,194,214,233,254,273,294,314,341,352,373,394,413,433,453,473,493,514,533,554,573,594,613,633,653,674,693,714,733,753,774,794,813,832,854,873,893,913,933,954,973,994,1013,1034,1053,1073,1093,1113,1133,1152,1173,1194,1213,1233,1252,1273,1293,1313,1333,1353,1373,1393,1413,1433,1453,1473,1494,1513,1533,1553],"xSR":741.5,"ySR":501.8,"xT1":424.9,"yT1":0,"xT2":1058.1,"yT2":0,"toosoon":0,"cond_shown":"Congruent","ratio_trial":300,"L_num":20,"L_den":25,"R_num":5,"R_den":10,"correct_side":1,"subjID":"tomasnope35","gender":"0","school":"4","age":"8"},{"start_time":1552327545789,"click_time":1552327547552,"finger_time":1552327547012,"fix_duration":1156.2731389988944,"trial":20,"RT":1223,"MT":540,"sideResp":1,"stimulus":[],"xmouse":[776,777,777,777,777,779,779,779,779,779,779,780,780,780,780,780,780,780,780,780,780,780,780,780,780,780,780,780,781,781,781,781,782,782,782,783,783,783,783,783,783,783,783,783,783,783,783,783,783,783,783,783,774,772,770,768,768,768,766,760,752,737,731,721,712,689,675,662,653,646,620,597,589,581,578,575,570,563,560,557,556,546,541,538,536,535,528,526,524],"ymouse":[537,537,537,537,537,537,537,537,537,537,537,537,537,537,537,537,537,537,537,537,537,537,537,537,537,537,537,537,537,537,537,537,537,537,537,538,538,538,538,538,538,538,538,538,538,538,538,538,538,538,538,538,538,537,537,537,537,537,537,534,531,520,514,506,497,471,454,437,425,413,375,349,340,334,331,323,313,299,292,288,281,244,222,200,179,133,112,102,94],"timestamp_mouse":[10,31,44,64,83,104,123,143,164,184,203,223,243,263,283,303,323,344,364,383,403,422,443,463,483,504,524,542,563,583,603,623,644,663,683,704,724,744,764,783,804,824,843,863,883,903,924,944,964,984,1004,1023,1044,1064,1083,1104,1124,1144,1163,1183,1203,1223,1244,1263,1284,1304,1323,1343,1363,1383,1405,1423,1443,1463,1483,1504,1523,1544,1563,1583,1604,1623,1644,1663,1683,1705,1723,1743,1762],"xSR":741.5,"ySR":501.8,"xT1":424.9,"yT1":0,"xT2":1058.1,"yT2":0,"toosoon":0,"cond_shown":"Incongruent","ratio_trial":100,"L_num":10,"L_den":25,"R_num":8,"R_den":16,"correct_side":2,"subjID":"tomasnope35","gender":"0","school":"4","age":"8"},{"start_time":1552327548931,"click_time":1552327550812,"finger_time":1552327550232,"fix_duration":318.69609584651806,"trial":21,"RT":1301,"MT":580,"sideResp":1,"stimulus":[],"xmouse":[783,783,783,783,783,783,784,784,784,785,785,785,785,785,786,786,788,789,789,789,789,789,789,789,789,789,789,789,789,789,789,789,789,789,789,789,789,789,789,789,789,789,789,789,789,789,789,789,789,789,789,789,789,789,789,789,789,789,789,789,789,789,789,789,787,773,760,751,738,731,724,718,707,691,627,593,579,570,565,565,562,558,551,541,539,539,539,539,532,528,526,526,526,526,522],"ymouse":[555,555,555,555,555,555,555,555,555,554,554,554,554,554,553,552,549,544,535,531,529,528,528,528,528,528,528,528,528,528,528,528,528,528,528,528,528,528,528,528,528,528,528,528,528,528,528,528,528,528,528,528,528,528,528,528,528,528,528,528,528,528,528,528,515,490,469,455,425,410,395,382,358,330,237,183,159,143,130,130,124,116,105,90,86,85,85,81,66,59,58,57,57,57,56],"timestamp_mouse":[8,22,41,61,81,101,121,140,161,182,200,221,241,261,281,300,321,341,361,381,402,421,441,461,481,500,521,541,562,581,602,621,642,662,682,702,721,740,761,782,802,821,842,862,882,901,922,940,961,982,1002,1021,1041,1062,1082,1101,1121,1142,1161,1182,1201,1222,1242,1261,1282,1301,1322,1341,1362,1380,1401,1422,1442,1463,1481,1501,1520,1541,1562,1581,1600,1622,1641,1661,1681,1702,1721,1741,1762,1781,1801,1821,1840,1862,1881],"xSR":741.5,"ySR":501.8,"xT1":424.9,"yT1":0,"xT2":1058.1,"yT2":0,"toosoon":0,"cond_shown":"Congruent","ratio_trial":300,"L_num":3,"L_den":6,"R_num":4,"R_den":5,"correct_side":2,"subjID":"tomasnope35","gender":"0","school":"4","age":"8"},{"start_time":1552327552833,"click_time":1552327553754,"finger_time":1552327553613,"fix_duration":998.2265262633995,"trial":22,"RT":780,"MT":141,"sideResp":1,"stimulus":[],"xmouse":[783,783,783,783,783,783,783,783,783,783,783,783,783,783,783,783,783,783,783,783,783,783,783,783,783,783,783,783,783,783,783,783,783,783,783,783,783,776,756,718,689,665,649,625,561,531,516],"ymouse":[533,533,533,533,533,533,533,533,533,533,533,533,533,533,533,533,533,533,533,533,533,533,533,533,533,533,533,533,533,533,533,533,533,533,533,533,533,533,524,481,433,372,312,251,122,83,65],"timestamp_mouse":[1,19,39,59,79,99,119,140,160,178,199,220,240,260,280,299,319,339,360,379,400,418,439,459,480,498,520,540,560,578,599,620,638,660,680,699,719,740,760,780,799,820,839,860,879,900,920],"xSR":741.5,"ySR":501.8,"xT1":424.9,"yT1":0,"xT2":1058.1,"yT2":0,"toosoon":0,"cond_shown":"Incongruent","ratio_trial":200,"L_num":9,"L_den":15,"R_num":8,"R_den":10,"correct_side":2,"subjID":"tomasnope35","gender":"0","school":"4","age":"8"},{"start_time":1552327556080,"click_time":1552327558072,"finger_time":1552327556552,"fix_duration":686.0491473979041,"trial":23,"RT":472,"MT":1520,"sideResp":2,"stimulus":[],"xmouse":[782,782,782,782,782,782,782,782,782,782,782,782,782,782,782,783,788,791,794,797,807,817,830,845,863,880,903,906,910,912,912,912,912,912,913,919,921,921,924,928,951,962,970,975,978,980,980,981,982,982,985,995,1004,1012,1023,1029,1039,1041,1044,1045,1046,1046,1046,1046,1046,1046,1046,1046,1046,1046,1046,1046,1046,1046,1046,1046,1046,1046,1046,1046,1046,1047,1049,1051,1053,1053,1053,1053,1053,1053,1053,1053,1054,1056,1057,1058,1058,1058,1058,1060],"ymouse":[522,522,522,522,522,522,522,522,522,522,522,522,522,522,522,522,522,522,522,522,520,519,507,487,458,419,358,338,327,325,325,325,325,324,324,323,323,322,320,316,291,279,269,262,257,254,253,253,252,249,245,228,215,203,185,177,165,160,154,152,150,150,150,150,150,150,136,128,120,109,101,101,101,101,101,101,101,101,101,101,101,98,96,94,92,91,91,91,91,91,91,91,91,90,90,90,90,90,90,89],"timestamp_mouse":[18,33,52,72,93,112,132,152,172,191,213,233,253,273,292,312,332,352,372,391,413,432,452,472,492,512,532,552,572,593,613,631,652,672,692,713,732,752,772,792,813,832,852,872,893,914,932,952,972,993,1013,1033,1053,1072,1093,1112,1132,1152,1172,1192,1212,1233,1251,1273,1293,1312,1332,1353,1373,1392,1413,1431,1453,1472,1493,1513,1533,1553,1573,1593,1612,1632,1653,1672,1692,1712,1731,1752,1773,1793,1813,1833,1852,1871,1891,1913,1932,1952,1972,1992],"xSR":741.5,"ySR":501.8,"xT1":424.9,"yT1":0,"xT2":1058.1,"yT2":0,"toosoon":0,"cond_shown":"Congruent","ratio_trial":100,"L_num":10,"L_den":25,"R_num":3,"R_den":10,"correct_side":1,"subjID":"tomasnope35","gender":"0","school":"4","age":"8"},{"start_time":1552327561270,"click_time":1552327562712,"finger_time":1552327561832,"fix_duration":1055.4462825500725,"trial":24,"RT":562,"MT":880,"sideResp":1,"stimulus":[],"xmouse":[803,803,803,803,803,803,803,803,803,803,803,803,803,803,803,803,803,803,803,803,800,786,781,778,778,778,770,758,738,727,719,710,683,661,635,606,551,532,530,530,530,530,530,530,530,531,533,535,535,535,535,535,535,536,538,539,539,539,539,539,539,539,539,539,539,539,539,539,539,539,539,539,471],"ymouse":[536,536,536,536,536,536,536,536,536,536,536,536,536,536,536,536,536,536,536,536,536,535,534,532,532,532,528,520,505,495,486,478,447,423,391,360,304,282,277,277,277,277,276,274,266,256,242,234,225,216,204,185,178,169,159,147,138,96,54,16,16,16,16,16,16,16,16,16,16,16,16,16,1],"timestamp_mouse":[10,22,43,61,82,103,123,143,163,183,203,222,243,262,282,303,323,342,363,382,402,422,442,463,482,502,523,542,562,582,602,622,642,662,682,702,723,742,761,782,801,823,841,862,882,902,924,941,962,983,1001,1023,1042,1063,1083,1103,1122,1142,1162,1183,1202,1222,1242,1263,1282,1303,1322,1342,1363,1382,1403,1424,1442],"xSR":741.5,"ySR":501.8,"xT1":424.9,"yT1":0,"xT2":1058.1,"yT2":0,"toosoon":0,"cond_shown":"Incongruent","ratio_trial":300,"L_num":3,"L_den":6,"R_num":4,"R_den":20,"correct_side":1,"subjID":"tomasnope35","gender":"0","school":"4","age":"8"},{"start_time":1552327566026,"click_time":1552327568253,"finger_time":1552327567733,"fix_duration":250,"trial":25,"RT":1707,"MT":520,"sideResp":2,"stimulus":[],"xmouse":[786,786,786,786,786,786,786,786,786,786,787,788,789,790,790,791,791,792,793,795,795,795,795,795,795,795,795,795,795,795,795,795,795,795,795,795,795,795,795,795,795,795,795,795,795,796,796,796,796,796,796,796,796,796,796,796,796,796,796,796,796,796,796,796,796,796,796,796,796,796,796,794,791,786,784,783,783,783,783,783,783,790,800,827,838,850,865,878,890,908,931,954,985,1036,1056,1073,1088,1098,1115,1126,1128,1129,1129,1129,1129,1129,1129,1129,1130,1130,1130,1130],"ymouse":[569,569,569,569,569,569,569,569,569,569,568,568,568,567,567,565,564,563,562,560,559,559,559,559,559,559,559,559,559,559,559,559,559,559,559,559,559,559,559,559,559,559,559,559,559,559,559,559,559,559,559,559,559,559,559,559,559,559,559,559,559,559,559,559,559,559,559,559,556,553,549,543,536,528,525,525,525,525,525,525,524,522,519,511,503,494,481,469,457,432,407,390,365,318,290,263,240,217,177,150,142,140,140,140,140,140,140,139,126,114,105,95],"timestamp_mouse":[8,35,46,66,87,107,127,147,166,187,207,227,246,266,286,307,326,345,366,387,407,426,447,466,486,505,525,547,567,587,607,626,647,667,686,706,727,747,767,787,806,827,846,866,887,907,926,947,966,987,1007,1026,1047,1067,1086,1106,1126,1147,1166,1185,1206,1226,1246,1266,1285,1306,1326,1347,1366,1386,1406,1426,1446,1467,1486,1507,1527,1545,1567,1586,1606,1626,1646,1667,1687,1707,1726,1746,1767,1787,1807,1825,1846,1867,1886,1907,1926,1946,1967,1986,2006,2027,2047,2065,2086,2106,2126,2147,2167,2185,2206,2227],"xSR":741.5,"ySR":501.8,"xT1":424.9,"yT1":0,"xT2":1058.1,"yT2":0,"toosoon":0,"cond_shown":"Congruent","ratio_trial":300,"L_num":20,"L_den":25,"R_num":9,"R_den":18,"correct_side":1,"subjID":"tomasnope35","gender":"0","school":"4","age":"8"},{"start_time":1552327570918,"click_time":1552327573032,"finger_time":1552327572232,"fix_duration":403.55067156853966,"trial":26,"RT":1314,"MT":800,"sideResp":2,"stimulus":[],"xmouse":[781,781,781,781,781,781,781,781,781,781,781,781,781,781,781,781,781,781,781,781,781,781,781,781,781,781,781,781,781,781,781,781,781,781,781,781,781,781,781,781,781,781,781,781,781,781,781,781,781,781,781,781,781,781,781,781,781,781,781,781,781,784,793,822,833,853,865,874,895,904,915,923,933,942,947,950,951,953,955,956,958,960,962,967,971,974,977,983,996,1002,1006,1010,1013,1017,1019,1021,1024,1026,1027,1031,1034,1037,1044,1056,1066,1078],"ymouse":[539,539,539,539,539,539,539,539,539,539,539,539,539,539,539,539,539,539,539,539,539,539,539,539,539,539,539,539,539,539,539,539,539,539,539,539,539,539,539,539,539,539,539,539,539,539,539,539,539,539,539,539,539,539,539,539,539,539,539,539,540,540,538,529,523,506,496,485,457,441,425,410,394,370,356,346,339,332,315,306,294,283,273,257,247,240,232,221,202,194,190,185,181,177,176,173,169,167,165,159,153,147,138,117,104,90],"timestamp_mouse":[18,37,53,74,94,114,134,155,174,194,215,235,254,274,294,314,335,354,375,394,415,435,454,475,493,514,533,555,574,593,614,634,654,674,695,715,735,754,775,795,815,834,855,875,894,914,935,955,974,994,1014,1034,1054,1074,1095,1115,1135,1154,1175,1194,1213,1235,1255,1274,1294,1314,1334,1355,1375,1394,1414,1434,1454,1475,1494,1514,1535,1554,1576,1594,1615,1635,1654,1675,1694,1713,1734,1754,1776,1794,1813,1833,1855,1875,1894,1914,1935,1955,1974,1994,2015,2034,2055,2075,2095,2114],"xSR":741.5,"ySR":501.8,"xT1":424.9,"yT1":0,"xT2":1058.1,"yT2":0,"toosoon":0,"cond_shown":"Incongruent","ratio_trial":300,"L_num":7,"L_den":10,"R_num":8,"R_den":20,"correct_side":1,"subjID":"tomasnope35","gender":"0","school":"4","age":"8"},{"start_time":1552327578244,"click_time":1552327579732,"finger_time":1552327578793,"fix_duration":250,"trial":27,"RT":549,"MT":939,"sideResp":1,"stimulus":[],"xmouse":[821,821,821,821,821,821,821,821,821,821,821,821,821,821,821,821,821,821,821,821,821,821,821,821,821,810,799,709,637,614,603,602,602,602,602,601,598,572,567,552,546,546,545,543,542,541,540,537,537,536,536,535,535,534,530,523,518,514,512,512,512,512,512,512,512,512,512,512,512,512,512,512,512,506,503],"ymouse":[563,563,563,563,563,563,563,563,563,563,563,563,563,563,563,563,563,563,563,563,563,563,563,563,563,560,554,488,432,414,407,406,406,406,406,405,397,336,325,290,264,264,247,238,231,222,215,204,200,197,195,192,188,185,173,151,133,121,117,116,116,116,116,116,116,116,116,116,116,116,116,116,116,102,97],"timestamp_mouse":[9,30,47,68,88,109,128,148,169,189,209,228,249,269,289,307,328,348,369,388,409,428,447,468,488,508,529,549,568,588,608,627,649,668,688,709,728,750,768,788,817,828,849,868,887,909,928,949,968,988,1009,1027,1049,1068,1089,1109,1129,1147,1168,1189,1209,1228,1249,1269,1288,1308,1328,1349,1368,1388,1408,1433,1448,1469,1488],"xSR":741.5,"ySR":501.8,"xT1":424.9,"yT1":0,"xT2":1058.1,"yT2":0,"toosoon":0,"cond_shown":"Congruent","ratio_trial":300,"L_num":4,"L_den":20,"R_num":13,"R_den":26,"correct_side":2,"subjID":"tomasnope35","gender":"0","school":"4","age":"8"},{"start_time":1552327581307,"click_time":1552327582694,"finger_time":1552327582172,"fix_duration":250,"trial":28,"RT":865,"MT":522,"sideResp":1,"stimulus":[],"xmouse":[783,783,783,783,783,783,783,783,783,783,783,783,783,783,783,783,783,783,783,783,783,783,788,791,802,807,811,811,812,812,812,813,813,813,813,813,813,813,813,813,813,813,810,782,694,644,630,624,622,620,620,620,620,620,620,620,616,607,597,570,566,565,564,559,549,544,543,540,534,503],"ymouse":[542,542,542,542,542,542,542,542,542,542,542,542,542,542,542,542,542,542,542,542,542,542,539,536,528,525,520,520,519,519,519,518,518,518,518,518,518,518,518,518,518,517,512,464,314,214,182,168,158,154,154,154,154,154,154,154,151,140,130,107,104,103,102,100,94,92,92,90,89,75],"timestamp_mouse":[7,26,44,65,85,106,126,146,166,185,206,225,245,265,284,306,325,345,366,384,405,425,445,464,486,506,525,545,565,585,605,625,645,666,685,706,726,744,764,786,805,825,846,865,886,905,925,946,966,986,1005,1025,1045,1065,1086,1105,1126,1145,1165,1186,1205,1225,1245,1266,1286,1305,1325,1345,1365,1386],"xSR":741.5,"ySR":501.8,"xT1":424.9,"yT1":0,"xT2":1058.1,"yT2":0,"toosoon":0,"cond_shown":"Incongruent","ratio_trial":300,"L_num":4,"L_den":20,"R_num":2,"R_den":4,"correct_side":2,"subjID":"tomasnope35","gender":"0","school":"4","age":"8"},{"start_time":1552327586211,"click_time":1552327588432,"finger_time":1552327587473,"fix_duration":976.6780802128263,"trial":29,"RT":1262,"MT":959,"sideResp":2,"stimulus":[],"xmouse":[784,781,781,775,772,770,769,767,766,766,766,766,766,766,766,766,766,766,766,766,766,766,766,766,766,766,766,766,767,769,771,773,778,782,792,794,795,795,795,795,795,795,795,795,795,795,797,798,798,798,800,802,803,804,807,807,807,807,807,807,809,816,825,842,880,900,922,939,956,969,985,992,1000,1007,1019,1021,1021,1021,1021,1021,1021,1021,1022,1022,1023,1023,1025,1028,1030,1034,1041,1042,1045,1045,1047,1047,1048,1048,1049,1049,1053,1053,1055,1055,1057,1061,1064,1070,1075,1085,1087,1090],"ymouse":[549,549,549,549,549,549,550,551,552,553,553,553,553,553,553,553,553,553,553,554,559,560,561,561,561,561,561,561,562,562,562,562,562,562,562,561,561,561,561,561,561,561,561,561,561,561,560,560,560,560,559,557,556,555,554,554,554,554,554,554,552,549,543,532,504,483,461,439,415,391,363,346,329,310,279,273,271,271,271,271,271,270,267,265,259,253,246,237,231,220,206,203,198,197,193,192,191,190,189,187,181,179,176,174,169,162,153,142,130,109,102,94],"timestamp_mouse":[1,34,41,61,82,101,122,141,161,182,202,222,241,262,281,302,322,341,361,380,400,422,441,462,482,501,522,541,561,582,601,621,641,661,682,702,721,741,761,782,801,821,841,862,881,900,922,941,962,982,1001,1021,1042,1062,1081,1102,1121,1141,1162,1182,1202,1220,1241,1262,1282,1301,1321,1341,1362,1381,1402,1422,1442,1460,1482,1500,1521,1542,1561,1582,1602,1622,1642,1661,1682,1701,1722,1741,1762,1780,1801,1822,1841,1861,1882,1901,1921,1940,1961,1982,2001,2022,2041,2062,2083,2101,2121,2141,2160,2183,2200,2221],"xSR":741.5,"ySR":501.8,"xT1":424.9,"yT1":0,"xT2":1058.1,"yT2":0,"toosoon":0,"cond_shown":"Incongruent","ratio_trial":200,"L_num":1,"L_den":2,"R_num":3,"R_den":10,"correct_side":1,"subjID":"tomasnope35","gender":"0","school":"4","age":"8"},{"start_time":1552327593774,"click_time":1552327596972,"finger_time":1552327595971,"fix_duration":1300.4690358444407,"trial":30,"RT":2197,"MT":1001,"sideResp":2,"stimulus":[],"xmouse":[788,788,788,788,788,788,788,788,788,788,788,788,788,788,788,788,788,788,788,788,788,788,788,788,789,792,793,794,794,794,794,794,795,796,797,798,799,799,799,799,799,799,799,799,799,799,799,799,799,799,799,799,799,799,799,799,799,799,799,799,799,799,799,799,799,799,799,799,799,799,799,799,799,799,799,799,799,799,799,799,799,799,799,799,802,804,805,807,807,808,808,808,808,808,808,808,808,808,808,808,808,808,808,808,808,808,808,802,795,780,765,765,765,765,765,765,765,765,765,765,765,772,796,816,840,889,910,926,939,949,971,987,992,996,998,999,999,999,1001,1001,1004,1006,1006,1009,1011,1015,1017,1021,1026,1033,1044,1058,1066,1070,1072,1073,1077,1081,1082,1083],"ymouse":[550,550,550,550,550,550,550,550,550,550,550,550,550,550,550,550,550,550,550,550,550,550,550,550,550,546,546,545,545,545,545,545,544,544,543,542,542,542,542,542,542,542,542,542,542,542,542,542,542,542,542,542,542,542,542,542,542,542,542,542,542,542,542,542,542,542,542,542,542,542,542,542,542,542,542,542,542,542,542,542,542,542,542,542,542,542,542,542,542,542,542,542,542,542,542,542,542,542,542,542,542,542,542,542,542,542,542,524,513,490,463,462,462,462,462,462,462,462,462,462,462,458,448,440,434,414,404,392,381,368,337,310,299,286,277,270,267,265,257,257,244,232,224,216,209,198,191,182,172,163,147,127,116,112,110,109,105,102,100,99],"timestamp_mouse":[18,38,58,78,99,119,139,158,177,198,219,239,258,279,298,319,338,358,378,398,418,438,459,477,499,519,539,557,578,599,618,638,658,679,699,718,739,758,778,799,819,839,858,877,898,918,939,959,978,999,1017,1038,1059,1078,1099,1119,1139,1158,1178,1199,1218,1239,1258,1278,1299,1318,1339,1359,1379,1399,1417,1439,1459,1477,1499,1519,1539,1558,1578,1599,1618,1638,1658,1679,1699,1719,1739,1758,1778,1798,1819,1839,1859,1878,1898,1918,1939,1959,1978,1999,2019,2038,2059,2078,2098,2118,2139,2158,2179,2197,2219,2238,2258,2278,2298,2318,2337,2358,2379,2398,2419,2438,2458,2479,2498,2519,2538,2558,2578,2598,2618,2638,2657,2678,2698,2719,2737,2759,2788,2798,2819,2838,2858,2878,2898,2920,2938,2958,2979,2998,3018,3039,3059,3078,3098,3118,3138,3158,3179,3198],"xSR":741.5,"ySR":501.8,"xT1":424.9,"yT1":0,"xT2":1058.1,"yT2":0,"toosoon":0,"cond_shown":"Congruent","ratio_trial":300,"L_num":2,"L_den":20,"R_num":10,"R_den":25,"correct_side":2,"subjID":"tomasnope35","gender":"0","school":"4","age":"8"},{"start_time":1552327602037,"click_time":1552327603912,"finger_time":1552327603353,"fix_duration":1483.354861353092,"trial":31,"RT":1316,"MT":559,"sideResp":2,"stimulus":[],"xmouse":[792,792,792,792,792,792,792,792,792,792,792,792,792,792,792,792,792,792,792,792,792,792,792,792,792,792,792,792,792,792,792,792,792,792,792,792,792,792,792,792,792,792,792,792,792,792,792,792,792,792,792,792,792,792,792,792,792,792,792,792,796,803,816,824,835,848,863,904,918,929,938,942,949,952,956,960,965,980,989,998,1003,1007,1011,1014,1014,1017,1018,1023,1028,1032,1038,1047,1075,1088],"ymouse":[545,545,545,545,545,545,545,545,545,545,545,545,545,545,545,545,545,545,545,545,545,545,545,545,545,545,545,545,545,545,545,545,545,545,545,545,545,545,545,545,545,545,545,545,545,545,545,545,545,545,545,545,545,545,545,545,545,545,545,545,545,544,535,531,524,515,505,478,465,456,446,442,434,430,427,420,413,391,377,358,348,338,327,323,320,316,311,295,278,264,244,222,146,97],"timestamp_mouse":[15,36,56,76,95,115,136,155,175,196,216,235,255,276,295,316,336,355,375,396,416,434,456,476,495,516,534,556,576,595,615,636,656,676,696,715,735,756,776,795,815,836,855,876,895,915,934,956,976,996,1015,1035,1055,1075,1096,1115,1136,1156,1174,1196,1215,1235,1256,1275,1296,1316,1335,1357,1375,1395,1416,1435,1456,1475,1495,1515,1535,1557,1575,1596,1616,1636,1657,1675,1695,1715,1735,1756,1775,1795,1816,1836,1856,1875],"xSR":741.5,"ySR":501.8,"xT1":424.9,"yT1":0,"xT2":1058.1,"yT2":0,"toosoon":0,"cond_shown":"Congruent","ratio_trial":300,"L_num":1,"L_den":5,"R_num":6,"R_den":12,"correct_side":2,"subjID":"tomasnope35","gender":"0","school":"4","age":"8"},{"start_time":1552327607743,"click_time":1552327609493,"finger_time":1552327608773,"fix_duration":250,"trial":32,"RT":1030,"MT":720,"sideResp":1,"stimulus":[],"xmouse":[775,777,777,788,788,789,789,789,789,789,789,789,789,789,789,789,789,789,789,789,789,788,787,785,785,784,784,783,783,783,783,783,783,783,783,783,783,783,783,783,783,783,783,783,783,782,782,781,781,778,772,735,676,595,584,584,584,581,580,579,579,576,562,560,559,557,553,543,540,537,537,536,536,533,530,526,519,510,507,506,506,506,504,502,502,502,502,496],"ymouse":[576,565,565,533,529,527,526,526,526,526,526,526,526,526,526,526,526,526,526,526,525,525,525,525,525,525,525,525,525,525,525,525,525,525,525,525,525,525,525,525,525,525,525,525,525,525,525,524,524,523,519,495,458,402,396,396,396,395,394,393,393,391,375,371,367,355,340,297,281,269,265,260,259,249,239,223,208,183,171,165,160,148,131,115,115,115,114,96],"timestamp_mouse":[9,34,50,70,89,110,129,149,170,189,210,230,249,270,289,309,330,349,370,389,410,429,450,470,490,510,529,550,569,589,610,630,649,670,690,708,729,750,770,790,809,829,850,869,890,910,929,949,969,989,1009,1030,1050,1070,1090,1110,1130,1150,1169,1189,1209,1229,1251,1268,1289,1309,1330,1351,1368,1389,1410,1429,1448,1468,1490,1509,1529,1551,1568,1589,1610,1629,1648,1669,1689,1709,1730,1749],"xSR":741.5,"ySR":501.8,"xT1":424.9,"yT1":0,"xT2":1058.1,"yT2":0,"toosoon":0,"cond_shown":"Incongruent","ratio_trial":200,"L_num":7,"L_den":15,"R_num":4,"R_den":6,"correct_side":2,"subjID":"tomasnope35","gender":"0","school":"4","age":"8"},{"start_time":1552327613196,"click_time":1552327615453,"finger_time":1552327614833,"fix_duration":1061.553646129566,"trial":33,"RT":1637,"MT":620,"sideResp":2,"stimulus":[],"xmouse":[770,770,770,770,770,770,770,770,770,770,770,770,770,770,770,770,770,770,770,770,770,770,770,770,770,770,770,770,770,770,770,770,770,770,770,770,770,770,770,770,770,770,770,770,770,770,770,770,770,770,770,770,770,770,770,770,770,770,770,770,770,770,770,770,770,770,770,770,770,770,770,770,770,770,770,770,770,770,779,808,841,867,887,900,910,912,914,915,923,945,1035,1061,1081,1102,1127,1134,1139,1140,1141,1141,1141,1141,1141,1141,1141,1141,1141,1141,1141,1141,1141,1140,1139],"ymouse":[553,553,553,553,553,553,553,553,553,553,553,553,553,553,553,553,553,553,553,553,553,553,553,553,553,553,553,553,553,553,553,553,553,553,553,553,553,553,553,553,553,553,553,553,553,553,553,553,553,553,553,553,553,553,553,553,553,553,553,553,553,553,553,553,553,553,553,553,553,553,553,553,553,553,553,553,553,553,546,529,505,483,464,446,428,426,424,422,412,391,303,267,228,194,152,139,129,126,125,125,125,125,125,125,125,125,125,125,125,121,113,106,99],"timestamp_mouse":[19,37,56,75,97,117,135,157,176,197,217,237,256,277,297,316,336,357,377,395,416,436,456,476,496,516,536,557,576,596,616,637,657,677,696,717,736,757,776,796,817,836,855,876,897,917,936,957,976,995,1016,1036,1057,1077,1097,1116,1136,1157,1177,1196,1217,1237,1257,1277,1295,1316,1336,1357,1377,1397,1416,1436,1457,1476,1497,1517,1536,1557,1576,1596,1617,1637,1656,1677,1698,1716,1736,1757,1776,1797,1817,1836,1856,1876,1898,1915,1936,1957,1977,1997,2016,2036,2056,2076,2097,2116,2136,2156,2176,2198,2216,2236,2257],"xSR":741.5,"ySR":501.8,"xT1":424.9,"yT1":0,"xT2":1058.1,"yT2":0,"toosoon":0,"cond_shown":"Congruent","ratio_trial":200,"L_num":6,"L_den":20,"R_num":11,"R_den":22,"correct_side":2,"subjID":"tomasnope35","gender":"0","school":"4","age":"8"},{"start_time":1552327624683,"click_time":1552327627032,"finger_time":1552327626193,"fix_duration":549.2780080291843,"trial":34,"RT":1510,"MT":839,"sideResp":2,"stimulus":[],"xmouse":[801,801,801,801,801,800,798,798,795,791,790,790,789,789,789,789,789,789,789,788,788,788,788,788,788,788,788,787,785,785,785,785,785,785,785,785,785,785,785,785,785,785,785,785,785,785,785,785,785,785,785,785,785,785,785,785,785,785,785,785,785,785,785,785,785,785,785,785,785,785,786,793,801,810,842,890,936,979,1021,1094,1124,1148,1167,1181,1197,1203,1211,1214,1217,1218,1218,1218,1218,1218,1218,1215,1204,1192,1187,1187,1187,1187,1187,1187,1187,1187,1187,1186,1185,1185,1185,1185,1185,1185,1184,1161,1143],"ymouse":[570,569,569,566,562,557,549,544,541,536,535,535,535,535,535,535,535,535,535,535,535,535,535,535,535,535,536,537,538,538,538,538,538,538,538,538,538,538,538,538,538,538,538,538,538,538,538,538,538,538,538,538,538,538,538,538,538,538,538,538,538,538,538,538,538,538,538,538,538,538,538,538,538,538,528,512,490,471,448,403,377,357,340,324,298,288,274,267,262,254,250,244,239,225,186,134,94,64,53,52,52,52,52,52,52,52,52,52,52,52,52,52,52,52,54,53,48],"timestamp_mouse":[32,49,70,90,109,130,148,170,190,209,230,250,270,289,310,330,348,368,390,410,430,449,470,489,510,529,549,568,588,610,630,649,669,690,710,730,749,770,790,808,829,849,870,890,909,929,949,969,988,1010,1029,1050,1069,1089,1109,1129,1150,1169,1190,1210,1229,1249,1269,1289,1309,1329,1350,1370,1389,1409,1429,1449,1470,1489,1510,1529,1549,1570,1590,1609,1628,1650,1669,1689,1711,1729,1749,1770,1790,1809,1829,1849,1869,1889,1910,1929,1949,1969,1990,2010,2029,2050,2070,2089,2110,2129,2150,2170,2190,2210,2229,2250,2270,2289,2310,2329,2349],"xSR":741.5,"ySR":501.8,"xT1":424.9,"yT1":0,"xT2":1058.1,"yT2":0,"toosoon":0,"cond_shown":"Congruent","ratio_trial":300,"L_num":5,"L_den":25,"R_num":6,"R_den":12,"correct_side":2,"subjID":"tomasnope35","gender":"0","school":"4","age":"8"},{"start_time":1552327633445,"click_time":1552327635773,"finger_time":1552327634913,"fix_duration":730.8223216306023,"trial":35,"RT":1468,"MT":860,"sideResp":2,"stimulus":[],"xmouse":[796,796,796,796,796,796,796,796,796,796,796,796,796,796,796,796,796,796,796,796,796,796,796,796,796,796,796,796,796,796,796,796,796,796,796,796,796,796,796,796,796,796,796,796,796,796,796,796,798,798,798,799,799,799,799,799,799,799,799,799,799,799,799,799,799,799,799,800,805,811,816,821,833,839,844,848,854,864,874,881,887,893,899,907,910,914,915,919,925,929,935,943,952,974,989,1001,1018,1029,1042,1043,1043,1043,1043,1043,1043,1043,1043,1047,1053,1056,1059,1061,1062,1062,1063,1063,1063],"ymouse":[579,579,579,579,579,579,579,579,579,579,579,579,579,579,579,579,579,579,579,579,579,579,579,579,579,579,579,579,579,579,579,579,579,579,579,579,579,579,579,579,579,579,579,579,579,579,579,579,579,578,578,577,577,577,577,577,577,577,577,577,577,577,577,577,577,577,577,575,565,555,546,536,510,497,484,472,458,431,409,392,378,365,356,341,334,326,324,317,310,305,295,284,271,234,211,192,170,157,135,133,132,132,132,132,132,132,132,126,118,114,109,105,102,102,100,100,99],"timestamp_mouse":[11,28,48,67,88,108,128,147,167,187,207,228,247,268,288,307,327,347,368,387,408,427,447,468,486,508,528,547,566,587,607,627,647,667,687,707,726,748,767,788,808,827,847,868,887,908,928,948,967,987,1006,1028,1047,1067,1087,1108,1128,1147,1167,1187,1207,1227,1247,1267,1288,1308,1328,1347,1368,1387,1408,1428,1447,1468,1487,1507,1527,1548,1567,1588,1608,1627,1647,1667,1687,1707,1728,1748,1767,1787,1808,1826,1847,1868,1887,1907,1928,1947,1967,1987,2008,2027,2047,2067,2087,2107,2127,2148,2167,2187,2207,2228,2247,2267,2287,2307,2328],"xSR":741.5,"ySR":501.8,"xT1":424.9,"yT1":0,"xT2":1058.1,"yT2":0,"toosoon":0,"cond_shown":"Congruent","ratio_trial":200,"L_num":1,"L_den":2,"R_num":21,"R_den":30,"correct_side":2,"subjID":"tomasnope35","gender":"0","school":"4","age":"8"},{"start_time":1552327641185,"click_time":1552327642494,"finger_time":1552327641933,"fix_duration":250,"trial":36,"RT":748,"MT":561,"sideResp":1,"stimulus":[],"xmouse":[792,792,792,792,792,792,792,792,792,792,792,792,792,792,792,792,792,792,792,792,792,792,792,792,792,792,792,792,792,792,792,792,792,792,792,791,774,730,697,689,689,689,688,679,659,589,544,512,493,486,477,475,470,466,464,462,462,464,469,473,480,482,483,483,483,483],"ymouse":[585,584,582,581,581,581,581,581,581,581,581,579,575,573,572,572,572,572,572,572,572,572,572,572,572,572,572,572,572,572,572,572,572,572,572,572,563,534,510,504,504,504,504,496,474,397,362,329,304,290,263,254,237,225,210,193,159,143,129,120,111,108,105,105,104,94],"timestamp_mouse":[9,35,47,67,87,108,127,148,168,187,208,227,247,268,288,307,328,348,368,388,408,427,447,468,488,507,528,548,568,587,608,628,647,667,688,707,728,748,768,788,807,828,848,867,887,908,926,947,968,987,1009,1027,1048,1066,1088,1107,1127,1147,1168,1188,1208,1226,1247,1268,1287,1309],"xSR":741.5,"ySR":501.8,"xT1":424.9,"yT1":0,"xT2":1058.1,"yT2":0,"toosoon":0,"cond_shown":"Congruent","ratio_trial":200,"L_num":8,"L_den":15,"R_num":7,"R_den":21,"correct_side":1,"subjID":"tomasnope35","gender":"0","school":"4","age":"8"},{"start_time":1552327646264,"click_time":1552327647933,"finger_time":1552327647173,"fix_duration":250,"trial":37,"RT":909,"MT":760,"sideResp":2,"stimulus":[],"xmouse":[782,782,782,782,782,782,782,782,782,782,782,782,782,782,782,782,783,783,783,783,783,783,783,783,783,783,783,783,783,783,783,783,783,783,783,783,785,797,805,812,816,822,832,837,840,843,852,887,903,919,930,951,955,958,962,964,972,984,989,997,1006,1029,1045,1060,1079,1096,1139,1166,1176,1184,1188,1188,1188,1188,1188,1188,1188,1188,1188,1188,1188,1188,1188,1144],"ymouse":[574,574,574,574,574,574,574,574,574,574,574,574,574,574,574,574,573,573,573,573,573,573,573,573,573,573,573,573,573,573,573,573,573,573,573,573,573,573,573,572,569,566,558,554,550,548,542,518,506,494,484,469,466,463,460,457,451,439,433,421,410,372,342,312,271,218,116,60,36,17,1,1,1,1,1,1,1,1,1,1,1,1,1,4],"timestamp_mouse":[9,30,48,69,88,109,128,149,168,188,209,228,249,269,288,309,328,348,369,388,409,428,448,468,488,508,527,548,568,588,608,628,648,668,689,709,728,749,769,788,809,828,848,867,888,909,928,949,968,988,1008,1028,1048,1069,1089,1109,1128,1149,1168,1189,1209,1228,1248,1268,1289,1308,1329,1348,1368,1389,1409,1428,1448,1469,1488,1509,1528,1547,1568,1588,1608,1630,1648,1669],"xSR":741.5,"ySR":501.8,"xT1":424.9,"yT1":0,"xT2":1058.1,"yT2":0,"toosoon":0,"cond_shown":"Congruent","ratio_trial":300,"L_num":1,"L_den":30,"R_num":8,"R_den":24,"correct_side":2,"subjID":"tomasnope35","gender":"0","school":"4","age":"8"},{"start_time":1552327651546,"click_time":1552327653038,"finger_time":1552327652413,"fix_duration":792.6545135998401,"trial":38,"RT":867,"MT":625,"sideResp":2,"stimulus":[],"xmouse":[782,782,782,782,782,782,782,778,778,777,777,777,777,777,777,777,777,777,777,777,777,777,777,777,777,777,777,777,777,777,777,777,777,777,777,777,777,777,777,777,780,791,830,857,872,891,905,928,934,942,946,950,957,964,969,975,981,993,1001,1006,1014,1020,1029,1032,1034,1035,1036,1036,1039,1041,1045,1047,1054,1058,1059],"ymouse":[536,536,536,536,536,536,536,536,537,537,537,537,537,537,537,537,537,537,537,537,537,537,537,537,537,537,537,537,537,537,537,537,537,537,537,537,537,537,537,537,538,537,526,520,515,509,505,493,489,485,481,477,465,448,436,423,408,366,345,327,308,290,263,250,242,235,229,218,190,172,150,130,95,86,83],"timestamp_mouse":[10,28,47,67,85,106,126,147,165,187,206,225,246,267,287,307,326,346,367,387,407,426,447,466,487,507,527,546,566,586,607,626,645,667,686,706,725,746,767,787,807,826,846,867,886,906,927,945,966,986,1007,1026,1047,1066,1086,1106,1126,1148,1166,1186,1207,1227,1246,1266,1286,1306,1326,1347,1367,1387,1407,1427,1447,1466,1492],"xSR":741.5,"ySR":501.8,"xT1":424.9,"yT1":0,"xT2":1058.1,"yT2":0,"toosoon":0,"cond_shown":"Incongruent","ratio_trial":300,"L_num":13,"L_den":26,"R_num":12,"R_den":15,"correct_side":2,"subjID":"tomasnope35","gender":"0","school":"4","age":"8"},{"start_time":1552327656170,"click_time":1552327657852,"finger_time":1552327657333,"fix_duration":1235.5056617805856,"trial":39,"RT":1163,"MT":519,"sideResp":2,"stimulus":[],"xmouse":[785,785,785,785,785,785,785,785,785,785,785,785,785,785,785,785,785,785,785,785,785,785,785,785,785,785,785,785,785,785,785,785,785,785,785,785,785,785,785,785,785,785,785,785,785,785,785,785,785,785,785,785,785,785,789,791,806,826,852,871,895,930,941,945,947,951,958,961,967,975,980,993,1007,1020,1033,1044,1057,1058,1058,1058,1060,1064,1081,1089,1093],"ymouse":[538,538,538,538,538,538,538,538,538,538,538,538,538,538,538,538,538,538,538,538,538,538,538,538,538,538,538,538,538,538,538,538,538,538,538,538,538,538,538,538,538,538,538,538,538,538,538,538,538,538,538,538,538,538,538,537,531,522,507,492,474,443,423,414,408,400,387,377,363,347,333,306,289,271,253,235,213,211,210,210,206,197,148,122,95],"timestamp_mouse":[10,34,42,63,83,103,122,143,162,182,202,222,242,263,282,302,322,342,362,382,402,422,443,463,481,503,522,543,563,583,603,621,642,663,683,703,722,742,763,781,802,823,842,863,882,902,923,943,963,983,1002,1023,1043,1061,1082,1103,1123,1143,1163,1182,1202,1223,1241,1262,1283,1302,1324,1342,1362,1382,1402,1424,1442,1462,1483,1503,1523,1542,1562,1583,1603,1623,1642,1661,1682],"xSR":741.5,"ySR":501.8,"xT1":424.9,"yT1":0,"xT2":1058.1,"yT2":0,"toosoon":0,"cond_shown":"Congruent","ratio_trial":100,"L_num":1,"L_den":2,"R_num":3,"R_den":5,"correct_side":2,"subjID":"tomasnope35","gender":"0","school":"4","age":"8"},{"start_time":1552327662045,"click_time":1552327664093,"finger_time":1552327663511,"fix_duration":1410.0155792525084,"trial":40,"RT":1466,"MT":582,"sideResp":2,"stimulus":[],"xmouse":[785,784,781,780,780,780,780,780,780,780,780,780,780,780,780,780,780,780,780,780,780,780,780,780,780,780,780,780,780,780,780,780,780,780,780,780,780,780,780,780,780,780,780,780,780,780,780,780,780,780,780,780,780,780,780,780,780,780,780,780,780,780,780,780,784,788,801,809,828,831,833,834,838,843,847,854,859,884,899,910,918,928,945,957,967,975,981,998,1010,1018,1025,1030,1045,1051,1060,1066,1075,1082,1101,1106,1112,1117,1129],"ymouse":[551,554,558,559,559,559,559,559,559,559,559,559,559,559,559,559,559,559,559,559,559,559,559,559,559,559,559,559,559,559,559,559,559,559,559,559,559,559,559,559,559,559,559,559,559,559,559,559,559,559,559,559,559,559,559,559,559,559,559,559,559,559,559,559,559,558,555,552,544,542,540,538,535,529,523,517,511,482,460,444,432,417,392,376,361,350,341,318,298,286,274,264,240,229,214,202,187,174,136,124,112,101,80],"timestamp_mouse":[8,31,48,67,86,106,126,147,168,186,207,226,248,267,286,306,328,347,367,387,407,428,447,467,486,506,527,547,568,588,606,626,646,666,686,706,726,747,766,786,808,828,847,867,887,907,926,947,966,988,1006,1027,1046,1067,1087,1108,1127,1147,1167,1187,1206,1227,1247,1268,1286,1307,1327,1347,1367,1387,1407,1427,1447,1466,1486,1507,1527,1548,1567,1587,1606,1627,1647,1666,1687,1707,1726,1748,1766,1786,1807,1826,1848,1867,1887,1907,1926,1946,1967,1987,2006,2026,2047],"xSR":741.5,"ySR":501.8,"xT1":424.9,"yT1":0,"xT2":1058.1,"yT2":0,"toosoon":0,"cond_shown":"Incongruent","ratio_trial":300,"L_num":1,"L_den":2,"R_num":3,"R_den":15,"correct_side":1,"subjID":"tomasnope35","gender":"0","school":"4","age":"8"},{"start_time":1552327667223,"click_time":1552327669111,"finger_time":1552327668232,"fix_duration":470.5805886862058,"trial":41,"RT":1009,"MT":879,"sideResp":1,"stimulus":[],"xmouse":[804,804,804,804,804,804,804,804,804,804,799,793,789,788,788,788,788,788,788,788,788,788,788,788,788,788,788,788,788,788,788,788,788,789,789,789,789,789,790,790,790,790,790,790,790,790,790,790,792,795,796,800,800,800,800,800,800,800,800,800,799,799,799,798,797,794,784,762,692,646,618,598,584,573,560,559,558,557,548,536,532,527,526,526,526,525,525,524,524,524,523,522,522,517,511],"ymouse":[518,518,518,518,518,518,518,518,518,520,529,538,546,546,546,546,546,546,546,546,546,545,545,545,545,545,545,545,545,545,545,545,545,544,544,543,543,542,541,541,541,541,541,541,541,541,541,541,532,510,485,461,442,430,430,430,430,430,430,430,428,427,427,427,426,424,417,401,350,318,293,276,264,251,233,233,230,229,216,192,178,163,149,125,116,108,104,103,103,103,103,103,103,101,96],"timestamp_mouse":[9,31,48,69,88,110,128,148,169,189,209,229,249,269,289,310,330,349,369,389,408,429,450,469,489,508,528,548,569,589,608,629,650,669,688,708,728,748,769,789,809,830,849,868,889,908,929,948,969,989,1009,1029,1048,1070,1088,1108,1129,1148,1169,1190,1209,1229,1248,1268,1290,1308,1328,1349,1369,1389,1408,1429,1448,1469,1489,1508,1529,1550,1569,1588,1609,1629,1648,1670,1688,1709,1729,1748,1769,1789,1809,1829,1848,1869,1888],"xSR":741.5,"ySR":501.8,"xT1":424.9,"yT1":0,"xT2":1058.1,"yT2":0,"toosoon":0,"cond_shown":"Congruent","ratio_trial":100,"L_num":6,"L_den":20,"R_num":5,"R_den":25,"correct_side":1,"subjID":"tomasnope35","gender":"0","school":"4","age":"8"},{"start_time":1552327674445,"click_time":1552327676452,"finger_time":1552327676392,"fix_duration":250,"trial":42,"RT":1947,"MT":60,"sideResp":1,"stimulus":[],"xmouse":[774,774,774,774,774,774,774,774,774,774,774,774,774,774,774,774,774,774,774,774,774,774,774,774,774,774,774,774,774,774,774,774,774,774,774,774,774,774,774,774,774,774,774,774,774,774,774,774,774,774,774,774,774,774,774,774,775,776,779,788,796,803,809,809,809,809,809,809,809,809,809,809,809,809,809,809,809,808,806,804,801,799,796,795,795,795,795,795,795,795,795,795,794,794,794,794,785,728,636,575,521],"ymouse":[558,558,558,558,558,558,558,558,558,558,558,558,558,558,558,558,558,558,558,558,558,558,558,558,558,558,558,558,558,558,558,558,558,558,558,558,558,558,558,558,558,558,558,558,558,558,558,558,558,558,558,558,558,558,558,558,555,552,547,534,521,510,502,502,502,502,502,502,502,502,502,502,502,502,502,502,503,505,509,514,524,530,539,541,541,541,541,541,541,541,541,541,541,541,541,541,523,402,244,137,44],"timestamp_mouse":[11,28,47,67,88,107,127,147,166,187,206,227,247,266,287,308,328,347,367,388,407,428,446,467,487,507,527,547,568,588,606,627,647,667,687,707,728,747,767,788,807,827,847,867,886,907,927,947,966,987,1006,1026,1046,1067,1087,1107,1127,1147,1166,1186,1206,1228,1247,1267,1287,1306,1327,1347,1366,1387,1408,1427,1446,1467,1487,1507,1526,1546,1568,1587,1606,1627,1647,1666,1686,1706,1727,1747,1766,1786,1807,1827,1847,1866,1886,1906,1927,1947,1966,1986,2007],"xSR":741.5,"ySR":501.8,"xT1":424.9,"yT1":0,"xT2":1058.1,"yT2":0,"toosoon":0,"cond_shown":"Incongruent","ratio_trial":100,"L_num":2,"L_den":4,"R_num":6,"R_den":15,"correct_side":1,"subjID":"tomasnope35","gender":"0","school":"4","age":"8"},{"start_time":1552327680866,"click_time":1552327682551,"finger_time":1552327682232,"fix_duration":1313.7188272114226,"trial":43,"RT":1366,"MT":319,"sideResp":2,"stimulus":[],"xmouse":[786,786,786,786,786,786,786,786,786,786,786,786,786,786,786,786,786,786,786,786,786,786,786,786,786,786,786,786,786,786,786,786,786,786,786,786,786,786,786,786,786,786,786,786,786,786,786,786,786,786,786,786,786,786,786,786,786,786,786,786,786,786,791,797,801,802,809,823,862,891,925,970,975,977,977,977,977,977,984,993,1011,1052,1071,1079,1088],"ymouse":[541,541,541,541,541,541,541,541,541,541,541,541,541,541,541,541,541,541,541,541,541,541,541,541,541,541,541,541,541,541,541,541,541,541,541,541,541,541,541,541,541,541,541,541,541,541,541,541,541,541,541,541,541,541,541,541,541,541,541,541,541,541,538,532,530,530,527,521,507,495,485,470,467,466,466,466,466,464,451,433,396,279,211,151,96],"timestamp_mouse":[11,25,46,66,87,105,126,146,167,185,206,225,246,266,286,305,326,347,366,387,406,425,445,466,485,506,525,545,567,585,605,626,645,665,685,706,726,745,765,787,806,826,846,867,886,906,925,945,965,985,1005,1026,1047,1066,1085,1106,1126,1145,1165,1186,1206,1226,1246,1266,1287,1306,1326,1346,1366,1386,1406,1426,1446,1465,1485,1506,1527,1546,1566,1586,1605,1627,1646,1665,1685],"xSR":741.5,"ySR":501.8,"xT1":424.9,"yT1":0,"xT2":1058.1,"yT2":0,"toosoon":0,"cond_shown":"Incongruent","ratio_trial":200,"L_num":4,"L_den":5,"R_num":6,"R_den":10,"correct_side":1,"subjID":"tomasnope35","gender":"0","school":"4","age":"8"},{"start_time":1552327687111,"click_time":1552327688393,"finger_time":1552327687873,"fix_duration":1039.1670018551476,"trial":44,"RT":762,"MT":520,"sideResp":1,"stimulus":[],"xmouse":[785,785,785,785,785,785,785,785,785,785,785,785,785,785,785,785,785,785,785,785,785,785,785,785,785,785,785,785,785,785,785,785,785,785,785,783,775,759,732,669,643,618,596,581,568,551,549,549,548,548,548,548,548,545,542,542,541,540,539,522,512,506,501,500,497],"ymouse":[547,547,547,547,547,547,547,547,547,547,547,547,547,547,547,547,547,547,547,547,547,547,547,547,547,547,547,547,547,547,547,547,547,547,547,542,532,514,482,407,376,344,309,282,260,229,226,226,225,225,225,224,222,219,215,214,212,208,205,172,153,139,129,120,98],"timestamp_mouse":[1,20,41,60,80,101,120,140,160,181,202,221,241,261,280,301,321,341,361,381,401,420,440,461,481,500,520,541,560,580,601,622,642,660,681,701,721,741,762,781,800,821,841,860,881,900,921,942,962,981,1001,1020,1040,1060,1080,1101,1120,1140,1161,1181,1201,1221,1241,1261,1282],"xSR":741.5,"ySR":501.8,"xT1":424.9,"yT1":0,"xT2":1058.1,"yT2":0,"toosoon":0,"cond_shown":"Congruent","ratio_trial":100,"L_num":8,"L_den":16,"R_num":2,"R_den":5,"correct_side":1,"subjID":"tomasnope35","gender":"0","school":"4","age":"8"},{"start_time":1552327690822,"click_time":1552327692652,"finger_time":1552327692071,"fix_duration":908.0723111439822,"trial":45,"RT":1249,"MT":581,"sideResp":1,"stimulus":[],"xmouse":[793,793,793,793,793,793,793,793,793,793,793,793,793,793,793,793,793,793,793,793,793,793,793,793,793,793,793,793,793,793,793,793,793,793,793,793,793,793,793,793,793,792,792,792,792,792,792,792,792,792,792,792,792,792,792,792,792,792,791,790,786,780,772,753,742,724,705,690,665,657,646,640,635,634,625,621,614,608,585,574,555,543,529,505,501,500,500,500,499,495,492,491],"ymouse":[529,529,529,529,529,529,529,529,529,529,529,529,529,529,529,529,529,529,529,529,529,529,529,529,529,529,529,529,529,529,529,529,529,529,529,529,529,529,529,529,529,529,529,529,529,529,529,529,529,529,529,529,529,529,529,529,529,529,528,524,517,507,495,469,455,433,408,391,357,345,327,317,309,305,289,280,268,255,212,191,161,143,126,109,107,106,106,106,106,103,100,98],"timestamp_mouse":[10,31,49,69,90,110,130,149,170,190,210,231,249,270,290,309,330,349,370,391,411,431,449,470,490,509,531,551,570,591,611,629,649,670,690,710,730,750,770,789,810,829,849,870,890,909,929,949,970,990,1010,1031,1050,1071,1090,1109,1131,1149,1170,1189,1209,1229,1249,1271,1289,1309,1330,1350,1371,1389,1410,1430,1449,1469,1489,1510,1530,1549,1571,1589,1610,1629,1649,1671,1689,1709,1729,1750,1770,1789,1809,1830],"xSR":741.5,"ySR":501.8,"xT1":424.9,"yT1":0,"xT2":1058.1,"yT2":0,"toosoon":0,"cond_shown":"Congruent","ratio_trial":200,"L_num":9,"L_den":20,"R_num":4,"R_den":16,"correct_side":1,"subjID":"tomasnope35","gender":"0","school":"4","age":"8"},{"start_time":1552327694960,"click_time":1552327696793,"finger_time":1552327696172,"fix_duration":747.7128498130588,"trial":46,"RT":1212,"MT":621,"sideResp":2,"stimulus":[],"xmouse":[793,793,793,793,793,793,793,793,793,793,793,793,793,793,793,793,793,793,793,793,793,793,793,793,793,793,793,793,793,793,793,793,793,793,793,793,793,793,793,793,793,793,793,793,793,793,793,793,793,793,793,793,795,799,802,807,819,825,835,841,847,860,868,876,889,913,967,990,1000,1007,1009,1010,1010,1010,1013,1018,1033,1045,1055,1066,1073,1080,1088,1091,1094,1097,1100,1109,1113,1116,1121,1132],"ymouse":[546,546,546,546,546,546,546,546,546,546,546,546,546,546,546,546,546,546,546,546,546,546,546,546,546,546,546,546,546,546,546,546,546,546,546,546,546,546,546,546,546,546,546,546,546,546,546,546,546,546,546,546,547,544,542,540,534,530,525,521,516,506,499,488,469,442,374,343,326,314,309,308,307,306,303,297,276,260,244,229,216,204,187,183,178,174,168,149,137,125,111,81],"timestamp_mouse":[12,34,52,72,92,111,131,151,171,192,213,232,252,271,291,311,332,352,372,392,413,432,451,471,491,511,532,553,573,591,611,631,652,672,691,712,732,752,772,793,812,832,851,873,893,912,932,951,972,992,1011,1032,1052,1071,1092,1111,1132,1152,1172,1191,1212,1232,1251,1271,1291,1312,1332,1352,1373,1392,1411,1432,1452,1472,1491,1513,1532,1551,1572,1592,1611,1631,1651,1671,1691,1711,1731,1752,1771,1793,1812,1832],"xSR":741.5,"ySR":501.8,"xT1":424.9,"yT1":0,"xT2":1058.1,"yT2":0,"toosoon":0,"cond_shown":"Incongruent","ratio_trial":100,"L_num":6,"L_den":10,"R_num":7,"R_den":14,"correct_side":1,"subjID":"tomasnope35","gender":"0","school":"4","age":"8"},{"start_time":1552327700261,"click_time":1552327737054,"finger_time":1552327722012,"fix_duration":508.84539519544757,"trial":47,"RT":21751,"MT":15042,"sideResp":2,"stimulus":[],"xmouse":[776,776,776,776,776,776,776,776,776,776,776,776,776,776,776,776,776,776,776,776,776,776,776,776,776,776,776,776,776,776,776,776,776,776,776,776,776,776,776,776,776,776,776,776,776,776,776,776,776,776,776,776,776,776,776,776,776,776,776,776,776,776,7