[{"start_time":1552073834919,"click_time":1552073837956,"finger_time":1552073836916,"fix_duration":1118.5790771261773,"trial":0,"RT":1997,"MT":1040,"sideResp":1,"stimulus":"img/500/equaldotsize/L/13_Ratio_500_L_12_R_6.png","xmouse":[822,822,822,822,822,822,822,822,822,822,822,822,822,822,822,822,822,822,822,822,822,822,822,822,822,822,822,822,822,822,822,822,822,822,822,822,822,822,822,822,822,822,822,822,822,822,822,822,822,822,822,822,822,822,822,822,822,822,822,822,822,822,822,822,822,822,822,822,822,822,822,822,822,822,822,822,822,822,822,822,822,822,822,822,822,822,822,822,822,822,822,822,822,822,822,822,822,822,822,827,903,914,917,917,917,917,917,917,917,913,884,878,877,877,877,877,877,876,873,862,815,799,786,774,763,727,701,674,655,644,640,638,636,633,628,616,610,604,596,590,581,580,578,577,576,572,571,568,563,551,531,522],"ymouse":[509,509,509,509,509,509,509,509,509,509,509,509,509,509,509,509,509,509,509,509,509,509,509,509,509,509,509,509,509,509,509,509,509,509,509,509,509,509,509,509,509,509,509,509,509,509,509,509,509,509,509,509,509,509,509,509,509,509,509,509,509,509,509,509,509,509,509,509,509,509,509,509,509,509,509,509,509,509,509,509,509,509,509,509,509,509,509,509,509,509,509,509,509,509,509,509,509,509,487,421,114,75,67,67,67,67,67,67,67,67,80,81,81,81,81,81,81,81,81,81,78,73,69,66,62,52,44,37,31,28,28,28,28,28,28,28,27,27,26,25,24,24,24,24,24,24,24,25,27,34,43,50],"timestamp_mouse":[9,45,58,77,96,118,138,158,178,197,218,237,257,277,297,316,337,358,376,398,418,437,456,477,497,517,536,556,577,597,616,638,657,678,697,716,738,757,777,798,816,837,858,877,898,916,937,958,978,997,1018,1036,1058,1077,1097,1117,1137,1157,1178,1197,1217,1236,1258,1278,1297,1318,1337,1357,1378,1398,1418,1437,1457,1476,1498,1517,1538,1558,1577,1596,1617,1637,1657,1677,1698,1717,1736,1758,1777,1797,1816,1837,1857,1877,1897,1918,1937,1956,1977,1997,2017,2037,2056,2078,2097,2117,2137,2157,2178,2196,2217,2237,2257,2277,2297,2316,2337,2357,2377,2397,2418,2436,2457,2478,2498,2517,2537,2557,2577,2597,2617,2638,2658,2677,2697,2717,2737,2756,2776,2797,2818,2838,2856,2878,2898,2917,2936,2956,2978,2997,3017,3037],"xSR":741.5,"ySR":469.95,"xT1":424.9,"yT1":0,"xT2":1058.1,"yT2":0,"toosoon":0,"cond_shown":"equaldotsize","ratio_trial":500,"smaller_num":"6","larger_num":"12","correct_side":1,"subjID":"tomasramirez10","gender":"0","age":"8","school":"4","test":{"fix_dur":[250,1500],"timestim":300,"targets_dim":[100,100],"targets_relative_coord":[0.3,0.7],"size_stim":[880,420],"start_dim":[100,100],"size_start":[300,300],"size_fix":60,"samplingrate":20,"img_types":["equaldotsize","equaldotanddens","randomdotsizeEA"],"ratios":[250,500,750,900],"rep_conds":9,"nTrials":120,"trials_to_rest":500,"Trials_order":[87,19,8,35,68,5,119,90,93,12,108,80,16,52,50,56,64,7,98,51,82,28,30,22,3,47,0,116,32,25,88,40,115,74,86,102,45,34,84,89,71,85,20,54,43,112,78,91,13,111,81,33,42,96,21,73,63,67,99,77,1,24,70,113,72,39,46,66,58,36,75,4,61,110,97,31,37,83,55,2,92,62,9,60,15,105,49,23,76,69,53,95,101,107,104,118,26,114,94,38,17,41,10,79,109,44,59,117,18,103,14,29,100,106,6,48,57,65,27,11],"cond_shown":["equaldotsize","equaldotanddens","randomdotsizeEA","randomdotsizeEA","randomdotsizeEA","randomdotsizeEA","randomdotsizeEA","equaldotsize","equaldotsize","equaldotsize","equaldotsize","randomdotsizeEA","equaldotanddens","equaldotanddens","randomdotsizeEA","randomdotsizeEA","equaldotanddens","equaldotanddens","randomdotsizeEA","equaldotsize","equaldotanddens","equaldotanddens","equaldotsize","equaldotanddens","equaldotsize","randomdotsizeEA","equaldotsize","randomdotsizeEA","randomdotsizeEA","equaldotanddens","equaldotanddens","equaldotanddens","equaldotanddens","randomdotsizeEA","randomdotsizeEA","equaldotsize","equaldotsize","equaldotanddens","equaldotsize","randomdotsizeEA","randomdotsizeEA","equaldotanddens","randomdotsizeEA","equaldotsize","equaldotanddens","equaldotanddens","equaldotsize","equaldotanddens","equaldotanddens","equaldotsize","equaldotsize","equaldotsize","equaldotsize","equaldotsize","equaldotsize","equaldotanddens","equaldotsize","equaldotanddens","equaldotsize","randomdotsizeEA","equaldotanddens","equaldotsize","equaldotanddens","randomdotsizeEA","equaldotsize","equaldotsize","equaldotanddens","equaldotsize","equaldotanddens","equaldotsize","equaldotsize","equaldotanddens","equaldotanddens","randomdotsizeEA","equaldotanddens","equaldotanddens","equaldotanddens","randomdotsizeEA","equaldotanddens","randomdotsizeEA","randomdotsizeEA","randomdotsizeEA","equaldotsize","equaldotsize","equaldotsize","equaldotsize","equaldotanddens","randomdotsizeEA","equaldotanddens","equaldotsize","randomdotsizeEA","randomdotsizeEA","randomdotsizeEA","randomdotsizeEA","randomdotsizeEA","equaldotanddens","randomdotsizeEA","equaldotsize","equaldotanddens","randomdotsizeEA","randomdotsizeEA","randomdotsizeEA","equaldotanddens","equaldotanddens","equaldotanddens","randomdotsizeEA","randomdotsizeEA","equaldotsize","equaldotsize","equaldotanddens","randomdotsizeEA","randomdotsizeEA","equaldotanddens","equaldotanddens","equaldotsize","equaldotsize","equaldotsize","randomdotsizeEA","equaldotsize","randomdotsizeEA"],"ratio_trial":[500,750,750,900,750,500,900,750,900,250,250,750,500,500,250,750,500,750,250,500,900,500,750,900,500,900,250,750,750,250,500,500,750,250,250,750,900,900,250,500,900,250,750,750,750,500,750,750,250,500,900,900,750,250,900,250,500,750,500,500,250,250,900,500,250,500,900,750,900,250,500,500,250,250,250,750,250,900,750,250,750,250,900,250,500,900,250,900,500,900,500,900,500,900,750,900,250,750,900,250,500,500,900,750,250,750,900,900,750,750,250,500,500,900,750,250,900,500,500,900],"smaller_num":["6","3","3","18","6","10","18","3","18","6","5","12","9","5","2","3","4","3","3","9","18","9","3","18","5","9","2","6","15","3","9","2","15","2","3","3","9","18","4","2","9","3","9","15","3","2","18","15","2","2","18","9","6","6","18","6","6","15","6","6","3","3","18","3","3","2","18","9","18","6","2","3","3","4","3","6","1","9","18","4","3","2","9","2","6","18","3","18","2","9","2","9","5","18","15","9","6","3","9","3","6","9","9","3","6","6","18","18","6","6","2","5","9","18","9","2","18","6","9","18"],"larger_num":["12","4","4","20","8","20","20","4","20","24","20","16","18","10","8","4","8","4","12","18","20","18","4","20","10","10","8","8","20","12","18","4","20","8","12","4","10","20","16","4","10","12","12","20","4","4","24","20","8","4","20","10","8","24","20","24","12","20","12","12","12","12","20","6","12","4","20","12","20","24","4","6","12","16","12","8","4","10","24","16","4","8","10","8","12","20","12","20","4","10","4","10","10","20","20","10","24","4","10","12","12","18","10","4","24","8","20","20","8","8","8","10","18","20","12","8","20","12","18","20"],"correct_side":[1,1,1,1,1,2,1,2,2,2,2,2,1,2,1,1,1,2,1,2,1,1,2,2,2,2,2,2,2,1,2,1,2,2,1,1,1,1,1,1,1,2,2,2,2,1,1,1,1,1,2,2,1,2,1,2,1,2,1,1,1,2,1,2,1,1,1,2,1,1,1,2,2,1,2,1,2,2,1,1,1,1,1,1,1,1,2,1,1,2,1,2,1,2,2,2,1,1,1,2,1,2,1,1,1,1,1,2,1,1,2,1,2,1,2,2,1,1,2,1],"img_shown":["img/500/equaldotsize/L/13_Ratio_500_L_12_R_6.png","img/750/equaldotanddens/L/10_Ratio_750_L_4_R_3.png","img/750/randomdotsizeEA/L/9_Ratio_750_L_4_R_3.png","img/900/randomdotsizeEA/L/4_Ratio_900_L_20_R_18.png","img/750/randomdotsizeEA/L/14_Ratio_750_L_8_R_6.png","img/500/randomdotsizeEA/R/3_Ratio_500_L_10_R_20.png","img/900/randomdotsizeEA/L/8_Ratio_900_L_20_R_18.png","img/750/equaldotsize/R/12_Ratio_750_L_3_R_4.png","img/900/equaldotsize/R/12_Ratio_900_L_18_R_20.png","img/250/equaldotsize/R/6_Ratio_250_L_6_R_24.png","img/250/equaldotsize/R/12_Ratio_250_L_5_R_20.png","img/750/randomdotsizeEA/R/11_Ratio_750_L_12_R_16.png","img/500/equaldotanddens/L/4_Ratio_500_L_18_R_9.png","img/500/equaldotanddens/R/14_Ratio_500_L_5_R_10.png","img/250/randomdotsizeEA/L/7_Ratio_250_L_8_R_2.png","img/750/randomdotsizeEA/L/9_Ratio_750_L_4_R_3.png","img/500/equaldotanddens/L/8_Ratio_500_L_8_R_4.png","img/750/equaldotanddens/R/7_Ratio_750_L_3_R_4.png","img/250/randomdotsizeEA/L/15_Ratio_250_L_12_R_3.png","img/500/equaldotsize/R/1_Ratio_500_L_9_R_18.png","img/900/equaldotanddens/L/4_Ratio_900_L_20_R_18.png","img/500/equaldotanddens/L/4_Ratio_500_L_18_R_9.png","img/750/equaldotsize/R/12_Ratio_750_L_3_R_4.png","img/900/equaldotanddens/R/9_Ratio_900_L_18_R_20.png","img/500/equaldotsize/R/14_Ratio_500_L_5_R_10.png","img/900/randomdotsizeEA/R/5_Ratio_900_L_9_R_10.png","img/250/equaldotsize/R/13_Ratio_250_L_2_R_8.png","img/750/randomdotsizeEA/R/2_Ratio_750_L_6_R_8.png","img/750/randomdotsizeEA/R/4_Ratio_750_L_15_R_20.png","img/250/equaldotanddens/L/15_Ratio_250_L_12_R_3.png","img/500/equaldotanddens/R/6_Ratio_500_L_9_R_18.png","img/500/equaldotanddens/L/5_Ratio_500_L_4_R_2.png","img/750/equaldotanddens/R/4_Ratio_750_L_15_R_20.png","img/250/randomdotsizeEA/R/13_Ratio_250_L_2_R_8.png","img/250/randomdotsizeEA/L/14_Ratio_250_L_12_R_3.png","img/750/equaldotsize/L/8_Ratio_750_L_4_R_3.png","img/900/equaldotsize/L/1_Ratio_900_L_10_R_9.png","img/900/equaldotanddens/L/10_Ratio_900_L_20_R_18.png","img/250/equaldotsize/L/2_Ratio_250_L_16_R_4.png","img/500/randomdotsizeEA/L/5_Ratio_500_L_4_R_2.png","img/900/randomdotsizeEA/L/1_Ratio_900_L_10_R_9.png","img/250/equaldotanddens/R/4_Ratio_250_L_3_R_12.png","img/750/randomdotsizeEA/R/15_Ratio_750_L_9_R_12.png","img/750/equaldotsize/R/4_Ratio_750_L_15_R_20.png","img/750/equaldotanddens/R/12_Ratio_750_L_3_R_4.png","img/500/equaldotanddens/L/10_Ratio_500_L_4_R_2.png","img/750/equaldotsize/L/6_Ratio_750_L_24_R_18.png","img/750/equaldotanddens/L/1_Ratio_750_L_20_R_15.png","img/250/equaldotanddens/L/7_Ratio_250_L_8_R_2.png","img/500/equaldotsize/L/5_Ratio_500_L_4_R_2.png","img/900/equaldotsize/R/13_Ratio_900_L_18_R_20.png","img/900/equaldotsize/R/7_Ratio_900_L_9_R_10.png","img/750/equaldotsize/L/13_Ratio_750_L_8_R_6.png","img/250/equaldotsize/R/6_Ratio_250_L_6_R_24.png","img/900/equaldotsize/L/10_Ratio_900_L_20_R_18.png","img/250/equaldotanddens/R/6_Ratio_250_L_6_R_24.png","img/500/equaldotsize/L/11_Ratio_500_L_12_R_6.png","img/750/equaldotanddens/R/3_Ratio_750_L_15_R_20.png","img/500/equaldotsize/L/11_Ratio_500_L_12_R_6.png","img/500/randomdotsizeEA/L/13_Ratio_500_L_12_R_6.png","img/250/equaldotanddens/L/14_Ratio_250_L_12_R_3.png","img/250/equaldotsize/R/9_Ratio_250_L_3_R_12.png","img/900/equaldotanddens/L/2_Ratio_900_L_20_R_18.png","img/500/randomdotsizeEA/R/2_Ratio_500_L_3_R_6.png","img/250/equaldotsize/L/15_Ratio_250_L_12_R_3.png","img/500/equaldotsize/L/10_Ratio_500_L_4_R_2.png","img/900/equaldotanddens/L/2_Ratio_900_L_20_R_18.png","img/750/equaldotsize/R/15_Ratio_750_L_9_R_12.png","img/900/equaldotanddens/L/2_Ratio_900_L_20_R_18.png","img/250/equaldotsize/L/5_Ratio_250_L_24_R_6.png","img/500/equaldotsize/L/10_Ratio_500_L_4_R_2.png","img/500/equaldotanddens/R/2_Ratio_500_L_3_R_6.png","img/250/equaldotanddens/R/4_Ratio_250_L_3_R_12.png","img/250/randomdotsizeEA/L/2_Ratio_250_L_16_R_4.png","img/250/equaldotanddens/R/11_Ratio_250_L_3_R_12.png","img/750/equaldotanddens/L/13_Ratio_750_L_8_R_6.png","img/250/equaldotanddens/R/8_Ratio_250_L_1_R_4.png","img/900/randomdotsizeEA/R/6_Ratio_900_L_9_R_10.png","img/750/equaldotanddens/L/6_Ratio_750_L_24_R_18.png","img/250/randomdotsizeEA/L/2_Ratio_250_L_16_R_4.png","img/750/randomdotsizeEA/L/9_Ratio_750_L_4_R_3.png","img/250/randomdotsizeEA/L/7_Ratio_250_L_8_R_2.png","img/900/equaldotsize/L/1_Ratio_900_L_10_R_9.png","img/250/equaldotsize/L/7_Ratio_250_L_8_R_2.png","img/500/equaldotsize/L/13_Ratio_500_L_12_R_6.png","img/900/equaldotsize/L/10_Ratio_900_L_20_R_18.png","img/250/equaldotanddens/R/9_Ratio_250_L_3_R_12.png","img/900/randomdotsizeEA/L/4_Ratio_900_L_20_R_18.png","img/500/equaldotanddens/L/10_Ratio_500_L_4_R_2.png","img/900/equaldotsize/R/3_Ratio_900_L_9_R_10.png","img/500/randomdotsizeEA/L/10_Ratio_500_L_4_R_2.png","img/900/randomdotsizeEA/R/6_Ratio_900_L_9_R_10.png","img/500/randomdotsizeEA/L/7_Ratio_500_L_10_R_5.png","img/900/randomdotsizeEA/R/9_Ratio_900_L_18_R_20.png","img/750/randomdotsizeEA/R/5_Ratio_750_L_15_R_20.png","img/900/equaldotanddens/R/6_Ratio_900_L_9_R_10.png","img/250/randomdotsizeEA/L/5_Ratio_250_L_24_R_6.png","img/750/equaldotsize/L/9_Ratio_750_L_4_R_3.png","img/900/equaldotanddens/L/1_Ratio_900_L_10_R_9.png","img/250/randomdotsizeEA/R/4_Ratio_250_L_3_R_12.png","img/500/randomdotsizeEA/L/11_Ratio_500_L_12_R_6.png","img/500/randomdotsizeEA/R/6_Ratio_500_L_9_R_18.png","img/900/equaldotanddens/L/1_Ratio_900_L_10_R_9.png","img/750/equaldotanddens/L/9_Ratio_750_L_4_R_3.png","img/250/equaldotanddens/L/5_Ratio_250_L_24_R_6.png","img/750/randomdotsizeEA/L/13_Ratio_750_L_8_R_6.png","img/900/randomdotsizeEA/L/8_Ratio_900_L_20_R_18.png","img/900/equaldotsize/R/11_Ratio_900_L_18_R_20.png","img/750/equaldotsize/L/14_Ratio_750_L_8_R_6.png","img/750/equaldotanddens/L/13_Ratio_750_L_8_R_6.png","img/250/randomdotsizeEA/R/13_Ratio_250_L_2_R_8.png","img/500/randomdotsizeEA/L/7_Ratio_500_L_10_R_5.png","img/500/equaldotanddens/R/6_Ratio_500_L_9_R_18.png","img/900/equaldotanddens/L/4_Ratio_900_L_20_R_18.png","img/750/equaldotsize/R/15_Ratio_750_L_9_R_12.png","img/250/equaldotsize/R/13_Ratio_250_L_2_R_8.png","img/900/equaldotsize/L/2_Ratio_900_L_20_R_18.png","img/500/randomdotsizeEA/L/11_Ratio_500_L_12_R_6.png","img/500/equaldotsize/R/1_Ratio_500_L_9_R_18.png","img/900/randomdotsizeEA/L/10_Ratio_900_L_20_R_18.png"],"Rat0":[["12_Ratio_0_L_9_R_0.png","13_Ratio_0_L_6_R_0.png","5_Ratio_0_L_2_R_0.png","6_Ratio_0_L_4_R_0.png","8_Ratio_0_L_6_R_0.png"],["1_Ratio_0_L_0_R_17.png","10_Ratio_0_L_0_R_22.png","11_Ratio_0_L_0_R_1.png","14_Ratio_0_L_0_R_24.png","15_Ratio_0_L_0_R_4.png","2_Ratio_0_L_0_R_5.png","3_Ratio_0_L_0_R_17.png","4_Ratio_0_L_0_R_7.png","7_Ratio_0_L_0_R_19.png","9_Ratio_0_L_0_R_15.png"]],"Rat250":[["1_Ratio_250_L_8_R_2.png","14_Ratio_250_L_12_R_3.png","15_Ratio_250_L_12_R_3.png","2_Ratio_250_L_16_R_4.png","3_Ratio_250_L_8_R_2.png","5_Ratio_250_L_24_R_6.png","7_Ratio_250_L_8_R_2.png"],["10_Ratio_250_L_4_R_16.png","11_Ratio_250_L_3_R_12.png","12_Ratio_250_L_5_R_20.png","13_Ratio_250_L_2_R_8.png","4_Ratio_250_L_3_R_12.png","6_Ratio_250_L_6_R_24.png","8_Ratio_250_L_1_R_4.png","9_Ratio_250_L_3_R_12.png"]],"Rat500":[["10_Ratio_500_L_4_R_2.png","11_Ratio_500_L_12_R_6.png","13_Ratio_500_L_12_R_6.png","4_Ratio_500_L_18_R_9.png","5_Ratio_500_L_4_R_2.png","7_Ratio_500_L_10_R_5.png","8_Ratio_500_L_8_R_4.png"],["1_Ratio_500_L_9_R_18.png","12_Ratio_500_L_1_R_2.png","14_Ratio_500_L_5_R_10.png","15_Ratio_500_L_1_R_2.png","2_Ratio_500_L_3_R_6.png","3_Ratio_500_L_10_R_20.png","6_Ratio_500_L_9_R_18.png","9_Ratio_500_L_2_R_4.png"]],"Rat750":[["1_Ratio_750_L_20_R_15.png","10_Ratio_750_L_4_R_3.png","13_Ratio_750_L_8_R_6.png","14_Ratio_750_L_8_R_6.png","6_Ratio_750_L_24_R_18.png","8_Ratio_750_L_4_R_3.png","9_Ratio_750_L_4_R_3.png"],["11_Ratio_750_L_12_R_16.png","12_Ratio_750_L_3_R_4.png","15_Ratio_750_L_9_R_12.png","2_Ratio_750_L_6_R_8.png","3_Ratio_750_L_15_R_20.png","4_Ratio_750_L_15_R_20.png","5_Ratio_750_L_15_R_20.png","7_Ratio_750_L_3_R_4.png"]],"Rat900":[["1_Ratio_900_L_10_R_9.png","10_Ratio_900_L_20_R_18.png","2_Ratio_900_L_20_R_18.png","4_Ratio_900_L_20_R_18.png","8_Ratio_900_L_20_R_18.png"],["11_Ratio_900_L_18_R_20.png","12_Ratio_900_L_18_R_20.png","13_Ratio_900_L_18_R_20.png","14_Ratio_900_L_18_R_20.png","15_Ratio_900_L_9_R_10.png","3_Ratio_900_L_9_R_10.png","5_Ratio_900_L_9_R_10.png","6_Ratio_900_L_9_R_10.png","7_Ratio_900_L_9_R_10.png","9_Ratio_900_L_18_R_20.png"]],"Rat1000":[["10_Ratio_1000_L_16_R_16.png","11_Ratio_1000_L_6_R_6.png","12_Ratio_1000_L_14_R_14.png","13_Ratio_1000_L_20_R_20.png","15_Ratio_1000_L_15_R_15.png","2_Ratio_1000_L_17_R_17.png","4_Ratio_1000_L_9_R_9.png","5_Ratio_1000_L_6_R_6.png","6_Ratio_1000_L_19_R_19.png","8_Ratio_1000_L_14_R_14.png","9_Ratio_1000_L_25_R_25.png"],["1_Ratio_1000_L_1_R_1.png","14_Ratio_1000_L_17_R_17.png","3_Ratio_1000_L_17_R_17.png","7_Ratio_1000_L_6_R_6.png"]]}},{"start_time":1552073842055,"click_time":1552073843397,"finger_time":1552073842955,"fix_duration":1278.1889428725465,"trial":1,"RT":900,"MT":442,"sideResp":1,"stimulus":"img/750/equaldotanddens/L/10_Ratio_750_L_4_R_3.png","xmouse":[802,802,802,802,802,802,802,802,802,802,802,802,802,802,802,802,802,802,802,802,802,802,802,802,802,802,802,802,802,802,802,802,802,802,802,802,802,802,802,802,802,802,803,803,793,747,705,666,611,560,511,500,498,497,497,497,497,497,497,497,497,497,497,497,497,497,496,494],"ymouse":[510,510,510,510,510,510,510,510,510,510,510,510,510,510,510,510,510,510,510,510,510,510,510,510,510,510,510,510,510,510,510,510,510,510,510,510,510,510,510,510,510,510,509,506,491,441,397,360,283,219,163,145,139,137,137,136,134,130,126,124,120,119,118,116,113,106,102,99],"timestamp_mouse":[9,21,49,61,81,100,121,142,161,181,200,222,241,261,280,301,321,342,361,381,402,420,442,461,481,502,522,541,562,582,602,621,641,661,682,701,721,741,762,782,801,822,841,861,882,900,921,941,961,981,1002,1021,1040,1061,1082,1101,1121,1141,1162,1181,1201,1220,1241,1261,1281,1301,1321,1342],"xSR":741.5,"ySR":469.95,"xT1":424.9,"yT1":0,"xT2":1058.1,"yT2":0,"toosoon":0,"cond_shown":"equaldotanddens","ratio_trial":750,"smaller_num":"3","larger_num":"4","correct_side":1,"subjID":"tomasramirez10","gender":"0","age":"8","school":"4"},{"start_time":1552073845851,"click_time":1552073847357,"finger_time":1552073846756,"fix_duration":1413.6789859814742,"trial":2,"RT":905,"MT":601,"sideResp":2,"stimulus":"img/750/randomdotsizeEA/L/9_Ratio_750_L_4_R_3.png","xmouse":[796,796,796,796,796,796,796,796,796,796,796,796,796,796,796,796,796,796,796,796,796,796,796,796,796,796,796,796,796,796,796,796,796,796,796,796,796,796,796,796,796,797,804,812,826,876,905,939,971,998,1039,1050,1060,1068,1075,1087,1096,1105,1113,1119,1125,1125,1125,1125,1124,1123,1123,1123,1122,1122,1122,1122,1122,1122,1122,1122],"ymouse":[517,517,517,517,517,517,517,517,517,517,517,517,517,517,517,517,517,517,517,517,517,517,517,517,517,517,517,517,517,517,517,517,517,517,517,517,517,517,517,517,517,517,512,508,498,470,454,434,414,399,364,349,335,320,307,281,265,246,226,207,169,156,147,141,134,127,123,120,116,112,108,106,104,103,100,93],"timestamp_mouse":[13,35,45,65,84,104,126,144,164,186,205,226,246,266,284,305,326,345,364,385,405,425,444,464,485,505,525,545,565,586,605,625,646,664,685,705,726,745,765,786,805,824,844,864,884,905,925,945,965,986,1005,1024,1046,1064,1084,1105,1124,1145,1165,1184,1205,1225,1245,1264,1285,1305,1324,1344,1365,1385,1406,1424,1446,1466,1485,1506],"xSR":741.5,"ySR":469.95,"xT1":424.9,"yT1":0,"xT2":1058.1,"yT2":0,"toosoon":0,"cond_shown":"randomdotsizeEA","ratio_trial":750,"smaller_num":"3","larger_num":"4","correct_side":1,"subjID":"tomasramirez10","gender":"0","age":"8","school":"4"},{"start_time":1552073849905,"click_time":1552073851877,"finger_time":1552073851137,"fix_duration":1068.9850354558546,"trial":3,"RT":1232,"MT":740,"sideResp":1,"stimulus":"img/900/randomdotsizeEA/L/4_Ratio_900_L_20_R_18.png","xmouse":[770,770,770,770,770,770,770,770,770,770,770,770,770,770,770,770,770,770,770,770,770,770,770,770,770,770,770,770,770,770,770,770,770,770,770,770,770,770,770,770,770,770,770,770,770,770,770,770,770,770,778,782,784,784,784,780,776,775,775,775,775,773,766,741,719,708,698,690,684,682,680,674,662,656,647,643,638,621,611,593,570,549,549,549,549,549,549,544,544,541,538,537,536,535,533,532,529,526,522],"ymouse":[508,508,508,508,508,508,508,508,508,508,508,508,508,508,508,508,508,508,508,508,508,508,508,508,508,508,508,508,508,508,508,508,508,508,508,508,508,508,508,508,508,508,508,508,508,508,508,508,508,508,501,497,495,495,495,488,483,480,480,480,476,460,440,378,323,299,283,273,265,260,255,244,225,220,208,204,198,172,149,106,50,6,6,6,6,6,6,10,41,54,63,67,68,69,69,69,70,70,70],"timestamp_mouse":[13,37,52,71,92,110,132,152,172,191,212,231,252,271,292,311,331,351,372,392,411,431,451,470,490,512,532,551,572,592,610,630,652,672,692,712,730,750,772,792,810,832,852,870,891,912,932,950,972,991,1012,1031,1050,1072,1090,1112,1131,1152,1171,1191,1212,1232,1250,1270,1291,1311,1330,1351,1371,1391,1411,1432,1453,1471,1491,1511,1531,1553,1570,1590,1618,1630,1650,1671,1690,1711,1732,1751,1771,1791,1811,1831,1852,1871,1892,1912,1932,1951,1972],"xSR":741.5,"ySR":469.95,"xT1":424.9,"yT1":0,"xT2":1058.1,"yT2":0,"toosoon":0,"cond_shown":"randomdotsizeEA","ratio_trial":900,"smaller_num":"18","larger_num":"20","correct_side":1,"subjID":"tomasramirez10","gender":"0","age":"8","school":"4"},{"start_time":1552073854229,"click_time":1552073855578,"finger_time":1552073855137,"fix_duration":1051.2651719865573,"trial":4,"RT":908,"MT":441,"sideResp":2,"stimulus":"img/750/randomdotsizeEA/L/14_Ratio_750_L_8_R_6.png","xmouse":[794,794,794,794,794,794,794,794,794,794,794,794,794,794,794,794,794,794,794,794,794,794,794,794,794,794,794,794,794,794,794,794,794,794,794,794,794,794,794,796,797,798,801,806,814,819,833,856,867,878,887,896,913,921,931,940,948,973,980,984,986,988,990,1003,1016,1032,1050,1063],"ymouse":[510,510,510,510,510,510,510,510,510,510,510,510,510,510,510,510,510,510,510,510,510,510,510,510,510,510,510,510,510,510,510,510,510,510,510,510,510,510,510,509,507,506,498,487,471,451,418,371,352,332,316,300,260,234,212,193,175,143,136,132,128,122,118,108,103,94,82,75],"timestamp_mouse":[13,27,46,67,88,108,126,147,167,187,207,226,247,268,287,307,327,346,368,387,408,428,446,468,487,507,528,547,567,586,607,628,647,668,687,707,727,747,766,787,808,827,847,870,888,908,929,949,969,989,1010,1030,1048,1068,1089,1109,1128,1148,1169,1189,1208,1229,1249,1268,1288,1309,1330,1349],"xSR":741.5,"ySR":469.95,"xT1":424.9,"yT1":0,"xT2":1058.1,"yT2":0,"toosoon":0,"cond_shown":"randomdotsizeEA","ratio_trial":750,"smaller_num":"6","larger_num":"8","correct_side":1,"subjID":"tomasramirez10","gender":"0","age":"8","school":"4"},{"start_time":1552073857474,"click_time":1552073859497,"finger_time":1552073858457,"fix_duration":793.2558971093198,"trial":5,"RT":983,"MT":1040,"sideResp":1,"stimulus":"img/500/randomdotsizeEA/R/3_Ratio_500_L_10_R_20.png","xmouse":[762,762,762,762,762,762,762,762,762,762,762,762,762,762,762,762,762,762,762,762,762,762,762,762,762,762,762,762,762,762,762,762,762,762,762,762,762,762,762,762,762,762,762,762,762,762,764,765,766,767,768,768,767,765,754,742,708,688,664,637,614,571,554,539,534,531,527,525,522,521,520,517,516,510,505,496,455,422,389,370,362,362,362,362,362,365,369,374,379,386,393,398,400,401,401,405,407,408,409,412,415,427],"ymouse":[499,499,499,499,499,499,499,499,499,499,499,499,499,499,499,499,499,499,499,499,499,499,499,499,499,499,499,499,499,499,499,499,499,499,499,499,499,499,499,499,499,499,499,499,499,499,494,484,474,467,455,447,430,421,393,371,327,309,292,275,262,236,224,212,206,200,188,181,176,171,168,162,159,151,145,136,102,76,55,44,38,38,38,38,38,38,38,38,39,42,45,46,46,47,47,48,49,49,50,53,54,57],"timestamp_mouse":[10,25,44,64,83,104,123,144,165,185,204,223,245,264,283,304,323,343,363,384,404,423,443,463,483,504,524,543,563,584,604,624,643,664,685,703,723,744,765,784,804,823,843,863,884,905,925,943,964,983,1005,1023,1043,1063,1084,1105,1123,1144,1164,1183,1203,1223,1243,1263,1284,1303,1323,1343,1363,1383,1404,1423,1443,1463,1484,1503,1523,1544,1564,1583,1605,1623,1644,1664,1684,1705,1723,1745,1763,1784,1804,1823,1843,1863,1884,1904,1923,1943,1964,1984,2004,2023],"xSR":741.5,"ySR":469.95,"xT1":424.9,"yT1":0,"xT2":1058.1,"yT2":0,"toosoon":0,"cond_shown":"randomdotsizeEA","ratio_trial":500,"smaller_num":"10","larger_num":"20","correct_side":2,"subjID":"tomasramirez10","gender":"0","age":"8","school":"4"},{"start_time":1552073861813,"click_time":1552073862598,"finger_time":1552073862198,"fix_duration":972.2127145408654,"trial":6,"RT":385,"MT":400,"sideResp":2,"stimulus":"img/900/randomdotsizeEA/L/8_Ratio_900_L_20_R_18.png","xmouse":[774,774,774,774,774,774,774,774,774,774,774,774,774,774,774,776,785,802,825,892,933,962,985,995,1001,1001,1001,1001,1001,1001,1001,1001,1001,1002,1012,1022,1035,1053,1075,1114],"ymouse":[534,534,534,534,534,534,534,534,534,534,534,534,534,534,534,530,524,512,500,463,444,429,416,408,402,402,402,402,402,402,401,400,396,392,365,342,309,251,175,29],"timestamp_mouse":[19,39,44,65,84,105,124,144,164,185,204,225,244,265,286,304,325,344,365,385,404,425,444,464,485,505,524,544,566,585,606,625,645,664,685,704,724,745,765,785],"xSR":741.5,"ySR":469.95,"xT1":424.9,"yT1":0,"xT2":1058.1,"yT2":0,"toosoon":0,"cond_shown":"randomdotsizeEA","ratio_trial":900,"smaller_num":"18","larger_num":"20","correct_side":1,"subjID":"tomasramirez10","gender":"0","age":"8","school":"4"},{"start_time":1552073863789,"click_time":1552073865399,"finger_time":1552073865017,"fix_duration":250,"trial":7,"RT":1228,"MT":382,"sideResp":2,"stimulus":"img/750/equaldotsize/R/12_Ratio_750_L_3_R_4.png","xmouse":[803,798,794,794,786,784,784,784,783,783,783,783,783,783,783,783,783,783,782,782,782,782,782,782,781,778,776,774,772,771,771,771,771,771,771,771,771,771,771,771,771,771,771,771,771,771,771,771,771,771,771,771,771,771,771,771,771,773,786,801,817,840,849,859,880,917,931,944,956,967,987,997,1007,1014,1020,1031,1034,1037,1039,1046,1069],"ymouse":[516,516,516,516,516,516,516,516,516,516,516,516,516,516,516,516,516,516,516,517,517,517,517,517,517,517,514,509,505,504,504,504,504,504,504,504,504,504,504,504,504,504,504,504,504,504,504,504,504,504,504,504,504,504,504,504,504,502,499,494,490,469,450,426,388,334,312,294,279,266,245,236,227,220,213,196,188,179,169,149,70],"timestamp_mouse":[12,28,56,69,88,108,128,149,168,189,208,228,248,269,289,309,329,348,369,388,408,430,449,469,489,508,529,550,569,588,608,629,648,668,689,708,729,749,769,790,809,829,848,869,888,909,928,949,968,990,1009,1029,1049,1068,1089,1108,1128,1149,1169,1190,1208,1228,1248,1268,1290,1309,1329,1348,1368,1390,1409,1428,1449,1468,1489,1509,1528,1549,1570,1589,1609],"xSR":741.5,"ySR":469.95,"xT1":424.9,"yT1":0,"xT2":1058.1,"yT2":0,"toosoon":0,"cond_shown":"equaldotsize","ratio_trial":750,"smaller_num":"3","larger_num":"4","correct_side":2,"subjID":"tomasramirez10","gender":"0","age":"8","school":"4"},{"start_time":1552073866671,"click_time":1552073867818,"finger_time":1552073867197,"fix_duration":250,"trial":8,"RT":526,"MT":621,"sideResp":2,"stimulus":"img/900/equaldotsize/R/12_Ratio_900_L_18_R_20.png","xmouse":[804,804,804,804,804,804,804,804,804,804,804,808,810,811,811,811,811,811,811,811,811,811,812,819,828,837,847,849,849,849,849,849,852,852,852,852,852,853,853,855,859,869,920,947,960,966,977,983,984,987,988,991,1004,1015,1028,1044,1063,1095],"ymouse":[515,515,515,515,515,515,515,515,515,515,516,519,520,521,522,522,522,522,522,522,522,522,522,521,516,510,506,504,504,504,504,504,500,499,498,497,496,495,492,483,468,436,327,276,251,235,208,193,189,180,175,171,156,147,137,125,114,96],"timestamp_mouse":[10,28,46,67,86,106,127,147,168,187,207,227,247,267,286,306,327,347,367,388,407,426,448,467,486,506,526,546,566,586,607,628,646,668,687,706,727,746,766,786,807,826,846,866,887,907,928,947,967,986,1006,1028,1046,1066,1087,1107,1127,1147],"xSR":741.5,"ySR":469.95,"xT1":424.9,"yT1":0,"xT2":1058.1,"yT2":0,"toosoon":0,"cond_shown":"equaldotsize","ratio_trial":900,"smaller_num":"18","larger_num":"20","correct_side":2,"subjID":"tomasramirez10","gender":"0","age":"8","school":"4"},{"start_time":1552073869270,"click_time":1552073870697,"finger_time":1552073869977,"fix_duration":250,"trial":9,"RT":707,"MT":720,"sideResp":2,"stimulus":"img/250/equaldotsize/R/6_Ratio_250_L_6_R_24.png","xmouse":[818,818,818,818,818,818,818,818,818,818,818,818,818,818,818,818,818,818,818,818,818,818,818,818,818,818,818,818,818,818,818,818,818,817,827,849,873,907,918,925,930,935,952,956,960,966,971,981,983,985,988,992,1008,1017,1023,1029,1033,1042,1046,1049,1052,1054,1056,1056,1056,1056,1056,1056,1056,1056,1056,1059],"ymouse":[515,515,515,515,515,515,515,515,515,515,515,515,515,515,515,515,515,515,515,515,515,515,515,515,515,515,515,515,515,515,515,515,515,514,506,490,474,441,416,401,387,368,323,307,293,277,257,214,200,186,173,161,133,119,112,105,100,91,89,86,83,80,76,76,76,76,76,76,76,76,75,75],"timestamp_mouse":[10,27,47,69,87,108,127,148,168,189,208,227,247,268,287,307,328,349,368,388,408,427,448,467,488,508,527,547,568,587,609,629,647,667,687,707,727,747,768,787,808,829,847,868,888,909,927,947,968,987,1008,1027,1048,1069,1087,1108,1128,1148,1167,1187,1208,1228,1247,1267,1287,1308,1327,1347,1368,1387,1407,1427],"xSR":741.5,"ySR":469.95,"xT1":424.9,"yT1":0,"xT2":1058.1,"yT2":0,"toosoon":0,"cond_shown":"equaldotsize","ratio_trial":250,"smaller_num":"6","larger_num":"24","correct_side":2,"subjID":"tomasramirez10","gender":"0","age":"8","school":"4"},{"start_time":1552073873089,"click_time":1552073874399,"finger_time":1552073873657,"fix_duration":1430.5042929716005,"trial":10,"RT":568,"MT":742,"sideResp":2,"stimulus":"img/250/equaldotsize/R/12_Ratio_250_L_5_R_20.png","xmouse":[767,767,767,767,770,777,778,778,778,778,778,778,778,778,778,778,778,778,778,778,778,778,778,778,778,780,803,826,852,875,893,918,924,932,941,947,963,984,992,998,1004,1012,1017,1025,1039,1055,1078,1097,1102,1108,1112,1115,1115,1117,1117,1119,1120,1120,1120,1120,1120,1120,1120,1120,1120,1120],"ymouse":[535,535,535,535,535,530,529,529,529,529,529,529,529,529,529,529,529,529,529,529,529,529,529,529,529,526,507,488,466,440,416,380,369,357,345,334,316,291,283,277,269,257,249,238,223,208,188,162,153,145,138,132,131,129,125,114,103,102,102,102,102,102,102,101,101,99],"timestamp_mouse":[10,41,48,68,89,108,129,148,169,188,210,229,249,268,290,309,329,349,368,389,410,428,448,469,489,509,529,549,568,589,608,630,648,668,690,708,729,749,768,790,808,830,848,869,889,909,929,948,969,989,1009,1029,1049,1068,1089,1108,1129,1148,1169,1189,1208,1228,1248,1268,1288,1309],"xSR":741.5,"ySR":469.95,"xT1":424.9,"yT1":0,"xT2":1058.1,"yT2":0,"toosoon":0,"cond_shown":"equaldotsize","ratio_trial":250,"smaller_num":"5","larger_num":"20","correct_side":2,"subjID":"tomasramirez10","gender":"0","age":"8","school":"4"},{"start_time":1552073876091,"click_time":1552073877219,"finger_time":1552073876917,"fix_duration":871.1284253846937,"trial":11,"RT":826,"MT":302,"sideResp":2,"stimulus":"img/750/randomdotsizeEA/R/11_Ratio_750_L_12_R_16.png","xmouse":[802,802,802,802,802,802,802,802,802,802,802,802,802,802,802,802,802,802,802,802,802,802,802,802,802,802,802,802,802,802,802,802,802,802,802,802,802,802,806,810,821,837,888,896,914,921,928,930,934,939,946,955,979,1008,1034,1053,1063],"ymouse":[500,500,500,500,500,500,500,500,500,500,500,500,500,500,500,500,500,500,500,500,500,500,500,500,500,500,500,500,500,500,500,500,500,500,500,500,500,500,495,489,476,457,396,385,358,342,320,312,298,284,269,254,217,164,119,87,71],"timestamp_mouse":[13,26,47,67,87,107,126,146,167,187,207,226,246,267,286,306,326,347,366,387,408,427,447,468,486,506,526,546,566,586,606,626,648,666,686,708,726,746,766,787,807,826,846,866,886,907,928,947,966,987,1008,1026,1046,1067,1086,1106,1128],"xSR":741.5,"ySR":469.95,"xT1":424.9,"yT1":0,"xT2":1058.1,"yT2":0,"toosoon":0,"cond_shown":"randomdotsizeEA","ratio_trial":750,"smaller_num":"12","larger_num":"16","correct_side":2,"subjID":"tomasramirez10","gender":"0","age":"8","school":"4"},{"start_time":1552073879337,"click_time":1552073881179,"finger_time":1552073880137,"fix_duration":816.1058880710278,"trial":12,"RT":800,"MT":1042,"sideResp":1,"stimulus":"img/500/equaldotanddens/L/4_Ratio_500_L_18_R_9.png","xmouse":[754,754,754,754,754,754,754,754,754,754,754,754,754,754,754,754,754,754,754,754,754,754,754,754,754,754,754,754,754,754,754,754,754,754,754,754,755,756,756,756,756,754,751,746,740,723,715,707,699,693,673,658,637,613,582,560,549,549,549,549,549,549,549,549,549,550,550,550,549,549,549,549,549,549,549,549,549,546,532,517,503,503,503,503,503,503,503,503,503,503,503,502,501],"ymouse":[498,498,498,498,498,498,498,498,498,498,498,498,498,498,498,498,498,498,498,498,498,498,498,498,498,498,498,498,498,498,498,498,498,498,498,498,492,486,481,477,466,457,446,436,425,402,393,384,375,368,341,326,309,289,244,220,203,199,196,194,185,176,160,139,123,105,101,101,100,100,100,100,100,100,100,100,100,100,100,101,102,102,102,102,102,102,102,102,102,102,102,101,98],"timestamp_mouse":[9,33,40,60,81,101,120,141,160,181,201,220,241,261,281,301,321,340,361,380,400,420,441,460,480,501,521,541,562,581,600,620,641,661,680,700,720,742,760,780,800,821,840,860,880,900,920,940,960,981,1000,1020,1040,1060,1081,1100,1120,1141,1161,1182,1200,1221,1241,1260,1281,1300,1320,1340,1360,1381,1401,1420,1440,1460,1480,1501,1521,1541,1560,1580,1601,1621,1640,1661,1682,1700,1721,1741,1761,1781,1800,1821,1841],"xSR":741.5,"ySR":469.95,"xT1":424.9,"yT1":0,"xT2":1058.1,"yT2":0,"toosoon":0,"cond_shown":"equaldotanddens","ratio_trial":500,"smaller_num":"9","larger_num":"18","correct_side":1,"subjID":"tomasramirez10","gender":"0","age":"8","school":"4"},{"start_time":1552073882550,"click_time":1552073883757,"finger_time":1552073883377,"fix_duration":250,"trial":13,"RT":827,"MT":380,"sideResp":2,"stimulus":"img/500/equaldotanddens/R/14_Ratio_500_L_5_R_10.png","xmouse":[781,781,781,781,781,781,781,781,781,781,781,781,781,780,780,780,780,780,780,780,780,780,780,780,780,780,780,780,780,780,780,780,780,780,780,780,780,780,781,791,801,813,831,857,920,944,964,980,997,1002,1009,1011,1015,1021,1032,1050,1054,1055,1055,1063,1074],"ymouse":[503,503,503,503,503,503,503,503,503,503,503,503,503,504,505,505,505,505,505,505,505,505,505,505,505,505,505,505,505,505,505,505,505,505,505,505,505,505,502,487,472,456,435,409,342,302,261,221,168,150,136,134,133,129,121,106,102,102,102,100,97],"timestamp_mouse":[13,35,48,68,87,107,127,147,167,187,208,228,247,267,288,307,328,348,367,388,409,428,448,468,487,508,528,548,567,588,608,628,647,667,687,708,728,748,768,788,808,827,848,867,888,907,928,949,967,987,1008,1027,1047,1067,1087,1107,1128,1148,1168,1188,1207],"xSR":741.5,"ySR":469.95,"xT1":424.9,"yT1":0,"xT2":1058.1,"yT2":0,"toosoon":0,"cond_shown":"equaldotanddens","ratio_trial":500,"smaller_num":"5","larger_num":"10","correct_side":2,"subjID":"tomasramirez10","gender":"0","age":"8","school":"4"},{"start_time":1552073884977,"click_time":1552073886438,"finger_time":1552073885478,"fix_duration":258.82881486953323,"trial":14,"RT":501,"MT":960,"sideResp":1,"stimulus":"img/250/randomdotsizeEA/L/7_Ratio_250_L_8_R_2.png","xmouse":[829,829,829,829,829,829,829,829,829,830,831,832,834,834,834,834,835,836,837,838,838,838,838,838,840,843,852,860,874,881,884,886,888,888,885,876,855,834,805,715,653,579,509,445,364,351,350,349,344,340,337,335,334,334,334,334,341,347,354,366,370,374,378,381,382,383,385,392,399,407,413,415,421,430],"ymouse":[496,496,496,496,496,496,496,496,496,496,496,496,496,496,496,496,497,498,499,499,499,500,500,500,500,500,490,478,448,433,418,402,383,363,320,299,267,247,231,207,198,188,179,174,161,155,153,146,104,77,59,51,48,48,48,47,46,45,44,43,43,43,43,43,43,43,43,43,43,45,46,46,49,57],"timestamp_mouse":[2,21,50,62,81,101,121,141,161,182,202,220,240,261,280,301,320,341,360,380,401,421,440,461,480,501,521,542,561,581,600,620,641,661,680,700,721,740,760,780,801,821,840,860,880,901,920,941,962,980,1000,1022,1040,1061,1080,1101,1120,1140,1160,1181,1201,1221,1241,1260,1281,1300,1321,1341,1361,1380,1401,1421,1441,1461],"xSR":741.5,"ySR":469.95,"xT1":424.9,"yT1":0,"xT2":1058.1,"yT2":0,"toosoon":0,"cond_shown":"randomdotsizeEA","ratio_trial":250,"smaller_num":"2","larger_num":"8","correct_side":1,"subjID":"tomasramirez10","gender":"0","age":"8","school":"4"},{"start_time":1552073887946,"click_time":1552073889059,"finger_time":1552073888697,"fix_duration":526.0426044849639,"trial":15,"RT":751,"MT":362,"sideResp":1,"stimulus":"img/750/randomdotsizeEA/L/9_Ratio_750_L_4_R_3.png","xmouse":[816,816,816,816,816,816,816,816,816,816,816,816,817,818,820,820,820,820,820,820,820,820,820,820,820,820,820,820,820,820,820,820,820,820,820,820,817,813,807,799,777,763,744,720,694,640,625,617,614,611,601,595,586,573,560,523],"ymouse":[512,512,512,512,512,512,512,512,512,512,510,509,509,508,507,507,507,507,507,507,507,507,507,507,507,507,507,507,507,507,507,507,507,507,505,487,472,458,444,428,391,373,349,320,294,249,237,229,224,218,196,181,164,143,125,91],"timestamp_mouse":[13,40,51,71,91,111,131,152,171,192,211,232,251,272,291,312,331,351,372,392,413,433,451,472,492,511,531,552,571,591,612,632,653,671,692,712,732,751,772,791,811,831,851,871,891,911,932,952,971,992,1012,1031,1051,1072,1093,1112],"xSR":741.5,"ySR":469.95,"xT1":424.9,"yT1":0,"xT2":1058.1,"yT2":0,"toosoon":0,"cond_shown":"randomdotsizeEA","ratio_trial":750,"smaller_num":"3","larger_num":"4","correct_side":1,"subjID":"tomasramirez10","gender":"0","age":"8","school":"4"},{"start_time":1552073893319,"click_time":1552073894578,"finger_time":1552073894159,"fix_duration":1178.1749183626282,"trial":16,"RT":840,"MT":419,"sideResp":1,"stimulus":"img/500/equaldotanddens/L/8_Ratio_500_L_8_R_4.png","xmouse":[825,825,825,825,825,825,825,825,825,825,825,825,825,825,825,825,825,825,825,825,825,825,825,825,825,825,825,825,825,825,825,825,825,825,825,825,825,825,822,810,795,772,735,644,608,574,562,543,540,539,539,540,542,543,543,543,543,543,539,536,534,531,526,522],"ymouse":[523,523,523,523,523,523,523,523,523,523,523,523,523,523,523,523,523,523,523,523,523,523,523,523,523,523,523,523,523,523,523,523,523,523,523,523,523,523,521,514,506,488,459,344,288,229,208,168,154,147,140,131,125,118,117,116,115,113,105,102,99,96,92,89],"timestamp_mouse":[1,19,46,59,78,99,119,139,160,179,198,218,238,259,278,299,318,338,358,379,400,420,439,459,479,499,520,540,559,578,599,618,639,658,680,699,718,739,758,779,800,818,840,858,879,899,918,940,958,979,999,1019,1039,1058,1078,1099,1118,1140,1159,1179,1199,1218,1239,1259],"xSR":741.5,"ySR":469.95,"xT1":424.9,"yT1":0,"xT2":1058.1,"yT2":0,"toosoon":0,"cond_shown":"equaldotanddens","ratio_trial":500,"smaller_num":"4","larger_num":"8","correct_side":1,"subjID":"tomasramirez10","gender":"0","age":"8","school":"4"},{"start_time":1552073899749,"click_time":1552073900678,"finger_time":1552073900597,"fix_duration":250,"trial":17,"RT":848,"MT":81,"sideResp":2,"stimulus":"img/750/equaldotanddens/R/7_Ratio_750_L_3_R_4.png","xmouse":[782,782,782,782,782,782,782,782,782,782,782,782,782,782,782,782,782,782,782,782,782,782,782,782,782,782,782,781,780,780,779,779,779,779,779,779,779,779,779,782,787,828,873,937,1015,1089,1142],"ymouse":[548,546,545,545,545,545,545,545,545,545,545,545,545,545,545,545,545,545,545,545,545,545,545,542,538,535,528,525,523,521,520,520,520,520,520,520,520,520,520,516,512,482,442,367,251,128,7],"timestamp_mouse":[10,29,51,69,89,109,128,148,169,190,209,228,249,268,289,308,328,349,369,390,409,429,449,468,489,510,528,548,569,588,608,629,649,670,689,710,729,749,768,789,808,829,848,868,888,908,929],"xSR":741.5,"ySR":469.95,"xT1":424.9,"yT1":0,"xT2":1058.1,"yT2":0,"toosoon":0,"cond_shown":"equaldotanddens","ratio_trial":750,"smaller_num":"3","larger_num":"4","correct_side":2,"subjID":"tomasramirez10","gender":"0","age":"8","school":"4"},{"start_time":1552073902563,"click_time":1552073903777,"finger_time":1552073903379,"fix_duration":723.862864306849,"trial":18,"RT":816,"MT":398,"sideResp":1,"stimulus":"img/250/randomdotsizeEA/L/15_Ratio_250_L_12_R_3.png","xmouse":[785,785,785,785,785,785,785,785,785,785,785,785,785,785,785,785,785,785,785,785,785,785,785,785,785,785,785,785,785,785,785,785,785,785,785,785,785,785,785,785,781,767,741,695,646,567,567,567,567,567,567,567,567,567,567,567,567,567,567,495,495],"ymouse":[495,495,495,495,495,495,495,495,495,495,495,495,495,495,495,495,495,495,495,495,495,495,495,495,495,495,495,495,495,495,495,495,495,495,495,495,495,495,495,494,467,430,363,260,152,28,28,28,28,28,28,28,28,28,28,28,28,28,28,0,6],"timestamp_mouse":[14,39,54,76,96,115,134,154,175,194,215,234,255,275,295,315,335,355,375,395,414,434,454,476,494,516,535,554,576,595,614,635,655,675,695,715,735,754,774,794,816,834,855,874,895,914,934,954,975,995,1014,1036,1054,1075,1094,1114,1136,1154,1174,1195,1214],"xSR":741.5,"ySR":469.95,"xT1":424.9,"yT1":0,"xT2":1058.1,"yT2":0,"toosoon":0,"cond_shown":"randomdotsizeEA","ratio_trial":250,"smaller_num":"3","larger_num":"12","correct_side":1,"subjID":"tomasramirez10","gender":"0","age":"8","school":"4"},{"start_time":1552073905822,"click_time":1552073907357,"finger_time":1552073906597,"fix_duration":622.1779393244401,"trial":19,"RT":775,"MT":760,"sideResp":2,"stimulus":"img/500/equaldotsize/R/1_Ratio_500_L_9_R_18.png","xmouse":[773,773,773,773,773,773,773,773,773,773,773,773,773,773,773,773,773,773,773,773,773,773,773,773,773,773,773,773,773,773,773,773,773,773,773,774,775,777,785,798,815,835,868,926,955,993,1040,1078,1125,1144,1150,1153,1153,1153,1153,1153,1152,1148,1134,1128,1124,1123,1123,1123,1123,1123,1123,1123,1123,1123,1123,1123,1123,1122,1123,1125,1126],"ymouse":[486,486,486,486,486,486,486,486,486,486,486,486,486,486,486,486,486,486,486,486,486,486,486,486,486,486,486,485,482,481,481,481,481,481,481,479,476,475,466,460,453,445,427,381,356,323,287,254,194,162,145,138,135,134,134,134,134,134,135,136,136,136,136,136,136,136,136,136,136,136,136,136,136,131,117,105,95],"timestamp_mouse":[21,37,57,76,95,116,136,155,176,195,217,235,255,275,295,316,336,356,375,395,415,437,456,475,496,516,536,556,576,596,615,636,656,676,695,716,735,755,775,796,816,837,856,876,896,916,935,955,975,996,1015,1035,1055,1075,1095,1115,1135,1156,1175,1195,1215,1235,1255,1275,1295,1315,1337,1356,1376,1396,1416,1436,1456,1476,1495,1516,1535],"xSR":741.5,"ySR":469.95,"xT1":424.9,"yT1":0,"xT2":1058.1,"yT2":0,"toosoon":0,"cond_shown":"equaldotsize","ratio_trial":500,"smaller_num":"9","larger_num":"18","correct_side":2,"subjID":"tomasramirez10","gender":"0","age":"8","school":"4"},{"start_time":1552073909274,"click_time":1552073910338,"finger_time":1552073909857,"fix_duration":954.4305849270081,"trial":20,"RT":583,"MT":481,"sideResp":2,"stimulus":"img/900/equaldotanddens/L/4_Ratio_900_L_20_R_18.png","xmouse":[757,757,757,758,758,758,758,758,758,758,758,758,758,758,758,758,758,758,758,758,758,758,758,760,762,765,772,786,812,879,925,970,1025,1043,1057,1072,1098,1115,1128,1142,1148,1150,1150,1150,1150,1150,1150,1150,1150,1150,1150,1150,1150,1150],"ymouse":[530,530,530,530,530,530,530,530,530,530,530,530,530,530,530,530,530,530,530,530,530,530,530,530,530,529,520,507,485,432,393,355,295,275,260,243,197,168,144,118,108,102,102,102,102,102,102,102,102,102,102,102,102,99],"timestamp_mouse":[13,24,43,64,84,103,124,144,164,184,204,223,244,263,284,303,324,344,363,385,404,424,443,463,485,503,525,544,563,583,603,624,645,665,683,704,723,743,763,783,804,824,844,864,883,905,924,943,963,983,1004,1025,1045,1064],"xSR":741.5,"ySR":469.95,"xT1":424.9,"yT1":0,"xT2":1058.1,"yT2":0,"toosoon":0,"cond_shown":"equaldotanddens","ratio_trial":900,"smaller_num":"18","larger_num":"20","correct_side":1,"subjID":"tomasramirez10","gender":"0","age":"8","school":"4"},{"start_time":1552073914250,"click_time":1552073915619,"finger_time":1552073915118,"fix_duration":250,"trial":21,"RT":868,"MT":501,"sideResp":1,"stimulus":"img/500/equaldotanddens/L/4_Ratio_500_L_18_R_9.png","xmouse":[829,829,829,829,829,829,829,829,829,829,829,829,829,829,829,829,829,829,829,829,829,829,829,829,829,829,829,829,829,829,829,829,829,829,829,829,829,829,829,828,825,820,813,790,772,740,701,668,621,613,610,608,608,605,600,594,584,573,550,547,545,544,543,541,538,535,531,527,523],"ymouse":[534,534,534,534,534,534,534,534,534,534,534,534,534,534,534,534,534,534,534,534,534,534,534,534,534,534,534,534,534,534,534,534,534,534,534,534,534,534,534,527,511,490,474,433,406,335,264,213,139,126,119,116,115,103,89,71,53,34,20,20,19,19,19,19,19,19,19,19,19],"timestamp_mouse":[13,35,47,69,88,108,128,147,167,188,208,227,247,267,287,307,329,347,367,387,407,427,447,467,487,508,529,548,567,589,608,628,648,667,689,707,727,747,769,788,807,828,849,868,889,909,928,948,969,989,1009,1030,1049,1069,1088,1110,1129,1149,1169,1188,1210,1229,1249,1269,1288,1310,1330,1349,1369],"xSR":741.5,"ySR":469.95,"xT1":424.9,"yT1":0,"xT2":1058.1,"yT2":0,"toosoon":0,"cond_shown":"equaldotanddens","ratio_trial":500,"smaller_num":"9","larger_num":"18","correct_side":1,"subjID":"tomasramirez10","gender":"0","age":"8","school":"4"},{"start_time":1552073917245,"click_time":1552073918538,"finger_time":1552073918219,"fix_duration":545.2695891406175,"trial":22,"RT":974,"MT":319,"sideResp":2,"stimulus":"img/750/equaldotsize/R/12_Ratio_750_L_3_R_4.png","xmouse":[769,769,769,769,769,769,769,769,769,769,769,769,769,769,769,769,769,769,769,769,769,769,769,769,769,769,769,769,769,769,769,769,769,769,773,785,794,797,797,797,797,797,797,797,797,797,797,819,864,983,1040,1089,1125,1148,1159,1160,1160,1160,1160,1160,1160,1160,1160,1157,1154],"ymouse":[503,503,503,503,503,503,503,503,503,503,503,503,503,503,503,503,503,503,503,503,503,503,503,503,503,503,503,503,503,503,503,503,503,503,500,495,492,491,491,491,491,491,491,491,491,491,490,472,445,370,332,287,246,209,168,154,145,138,134,132,129,124,118,101,87],"timestamp_mouse":[14,40,54,73,95,114,135,154,173,194,214,234,254,274,293,314,334,353,374,395,414,434,455,474,495,514,535,555,573,593,614,633,655,673,694,714,734,754,775,794,815,834,854,873,895,915,934,954,974,994,1014,1034,1054,1074,1094,1113,1133,1154,1175,1194,1214,1234,1254,1276,1293],"xSR":741.5,"ySR":469.95,"xT1":424.9,"yT1":0,"xT2":1058.1,"yT2":0,"toosoon":0,"cond_shown":"equaldotsize","ratio_trial":750,"smaller_num":"3","larger_num":"4","correct_side":2,"subjID":"tomasramirez10","gender":"0","age":"8","school":"4"},{"start_time":1552073921721,"click_time":1552073923139,"finger_time":1552073922539,"fix_duration":899.9909865798652,"trial":23,"RT":818,"MT":600,"sideResp":2,"stimulus":"img/900/equaldotanddens/R/9_Ratio_900_L_18_R_20.png","xmouse":[784,784,784,784,784,784,784,784,784,784,784,784,784,784,784,784,784,784,784,784,784,784,784,784,784,784,784,784,784,784,784,784,784,784,784,784,789,793,805,818,884,940,1007,1070,1094,1095,1095,1095,1095,1095,1096,1097,1099,1102,1107,1111,1111,1111,1111,1111,1111,1111,1111,1111,1111,1111,1111,1111,1111,1111,1111],"ymouse":[529,529,529,529,529,529,529,529,529,529,529,529,529,529,529,529,529,529,529,529,529,529,529,529,529,529,529,529,529,529,529,529,529,529,529,529,523,519,509,500,428,361,276,193,156,149,149,149,149,149,145,140,132,125,114,103,103,103,103,103,103,103,103,103,103,103,103,103,103,103,99],"timestamp_mouse":[27,40,58,78,99,119,138,159,177,199,219,237,259,278,298,318,339,358,378,399,419,439,459,478,498,518,539,558,577,598,619,638,657,678,698,717,738,758,778,799,818,839,858,878,898,918,939,957,978,999,1018,1037,1058,1078,1098,1118,1139,1158,1177,1199,1218,1238,1258,1278,1299,1319,1339,1358,1379,1398,1418],"xSR":741.5,"ySR":469.95,"xT1":424.9,"yT1":0,"xT2":1058.1,"yT2":0,"toosoon":0,"cond_shown":"equaldotanddens","ratio_trial":900,"smaller_num":"18","larger_num":"20","correct_side":2,"subjID":"tomasramirez10","gender":"0","age":"8","school":"4"},{"start_time":1552073924431,"click_time":1552073925520,"finger_time":1552073925138,"fix_duration":250,"trial":24,"RT":707,"MT":382,"sideResp":2,"stimulus":"img/500/equaldotsize/R/14_Ratio_500_L_5_R_10.png","xmouse":[777,777,777,777,777,775,773,773,773,773,773,773,773,773,773,773,773,773,773,773,773,773,775,776,781,784,784,784,784,784,784,784,788,797,811,851,880,927,965,998,1063,1091,1114,1123,1124,1124,1124,1125,1126,1126,1127,1127,1127,1126,1124],"ymouse":[500,500,500,500,500,501,501,501,501,501,501,501,501,501,501,501,501,501,501,501,501,501,501,501,500,498,498,498,498,498,498,498,496,491,483,459,437,403,377,348,277,236,192,167,162,162,162,161,159,156,147,136,122,105,87],"timestamp_mouse":[12,40,49,69,88,108,129,147,169,187,208,229,248,269,288,308,327,347,367,388,408,428,448,469,487,508,529,548,567,589,608,628,648,669,689,707,727,748,768,788,809,827,848,868,889,907,929,949,969,989,1008,1027,1048,1068,1089],"xSR":741.5,"ySR":469.95,"xT1":424.9,"yT1":0,"xT2":1058.1,"yT2":0,"toosoon":0,"cond_shown":"equaldotsize","ratio_trial":500,"smaller_num":"5","larger_num":"10","correct_side":2,"subjID":"tomasramirez10","gender":"0","age":"8","school":"4"},{"start_time":1552073926781,"click_time":1552073928420,"finger_time":1552073927219,"fix_duration":341.06907532450003,"trial":25,"RT":438,"MT":1201,"sideResp":1,"stimulus":"img/900/randomdotsizeEA/R/5_Ratio_900_L_9_R_10.png","xmouse":[792,792,792,792,792,792,792,792,792,792,792,792,792,792,794,794,794,798,804,815,831,848,863,881,886,888,891,896,897,899,901,901,901,901,902,903,904,905,907,908,909,909,909,909,907,887,861,822,815,812,805,794,783,766,762,758,749,731,727,725,723,721,712,701,686,657,638,623,604,595,584,576,564,555,549,545,542,539,533,529,527,522],"ymouse":[506,506,506,506,506,506,506,506,506,506,506,506,506,506,506,506,506,506,505,500,494,484,478,470,466,464,461,453,450,445,440,439,438,437,436,432,429,426,418,412,406,405,404,404,403,403,403,403,403,400,391,374,352,275,172,106,66,25,17,14,12,11,8,7,7,7,7,7,7,7,7,7,9,11,12,12,12,13,15,15,17,18],"timestamp_mouse":[18,46,58,79,98,119,139,158,178,198,219,239,258,278,298,317,338,359,378,399,419,438,459,478,498,517,539,559,578,598,617,638,659,678,699,718,738,759,778,798,818,838,859,878,899,918,938,959,980,999,1019,1038,1059,1078,1099,1118,1139,1160,1177,1198,1218,1238,1260,1278,1298,1319,1338,1358,1377,1398,1417,1438,1459,1478,1499,1519,1539,1558,1578,1597,1618,1638],"xSR":741.5,"ySR":469.95,"xT1":424.9,"yT1":0,"xT2":1058.1,"yT2":0,"toosoon":0,"cond_shown":"randomdotsizeEA","ratio_trial":900,"smaller_num":"9","larger_num":"10","correct_side":2,"subjID":"tomasramirez10","gender":"0","age":"8","school":"4"},{"start_time":1552073930959,"click_time":1552073932319,"finger_time":1552073931720,"fix_duration":278.68745250234207,"trial":26,"RT":761,"MT":599,"sideResp":2,"stimulus":"img/250/equaldotsize/R/13_Ratio_250_L_2_R_8.png","xmouse":[806,806,806,806,806,806,806,806,806,806,806,806,806,806,807,810,811,812,815,816,818,819,821,823,824,828,830,831,831,831,831,831,831,831,829,827,826,834,851,880,980,1045,1111,1179,1236,1313,1322,1328,1332,1339,1351,1353,1355,1355,1356,1353,1350,1347,1346,1343,1332,1324,1313,1301,1286,1228,1200,1175,1152],"ymouse":[523,523,523,523,523,523,523,520,516,516,516,516,516,516,516,516,516,516,516,516,516,516,516,516,516,516,516,516,516,516,516,516,516,516,516,517,515,508,495,480,444,416,390,360,335,287,275,258,240,217,169,145,120,99,80,47,42,40,40,40,40,40,40,40,40,40,40,40,40],"timestamp_mouse":[10,20,41,60,80,99,119,140,161,179,201,221,240,260,280,299,320,341,360,381,399,420,441,461,481,499,520,541,560,579,601,620,641,660,681,700,721,741,761,780,800,819,840,859,881,900,921,940,960,981,1000,1021,1040,1061,1081,1100,1121,1141,1160,1180,1200,1219,1240,1260,1280,1300,1321,1340,1360],"xSR":741.5,"ySR":469.95,"xT1":424.9,"yT1":0,"xT2":1058.1,"yT2":0,"toosoon":0,"cond_shown":"equaldotsize","ratio_trial":250,"smaller_num":"2","larger_num":"8","correct_side":2,"subjID":"tomasramirez10","gender":"0","age":"8","school":"4"},{"start_time":1552073936649,"click_time":1552073937919,"finger_time":1552073937520,"fix_duration":588.7862259540263,"trial":27,"RT":871,"MT":399,"sideResp":1,"stimulus":"img/750/randomdotsizeEA/R/2_Ratio_750_L_6_R_8.png","xmouse":[831,831,831,831,831,831,831,831,831,831,831,831,831,831,831,831,831,831,831,831,831,831,831,826,822,813,812,812,812,812,812,812,812,812,812,812,812,812,812,812,812,812,811,811,812,812,809,802,792,787,770,758,745,731,718,689,663,653,622,607,589,548,530,521],"ymouse":[484,484,484,484,484,484,484,484,484,484,484,484,484,484,484,484,484,484,484,484,484,484,484,485,487,493,494,494,494,494,494,494,494,494,494,494,494,494,494,494,493,483,470,448,433,407,336,317,296,284,257,244,231,221,210,190,175,169,157,150,137,95,73,61],"timestamp_mouse":[13,41,50,71,91,110,130,150,171,190,210,231,250,270,291,311,331,350,371,390,411,431,451,471,490,511,529,550,570,590,611,631,650,670,690,711,729,750,769,791,810,829,849,871,890,910,929,950,969,990,1012,1030,1051,1070,1091,1111,1130,1150,1171,1191,1210,1231,1250,1270],"xSR":741.5,"ySR":469.95,"xT1":424.9,"yT1":0,"xT2":1058.1,"yT2":0,"toosoon":0,"cond_shown":"randomdotsizeEA","ratio_trial":750,"smaller_num":"6","larger_num":"8","correct_side":2,"subjID":"tomasramirez10","gender":"0","age":"8","school":"4"},{"start_time":1552073940774,"click_time":1552073942419,"finger_time":1552073941579,"fix_duration":491.75575015572605,"trial":28,"RT":805,"MT":840,"sideResp":2,"stimulus":"img/750/randomdotsizeEA/R/4_Ratio_750_L_15_R_20.png","xmouse":[802,802,802,802,802,802,802,802,802,802,802,802,802,802,802,802,802,802,802,802,802,802,802,802,802,802,802,802,802,802,802,802,802,802,802,802,802,802,802,804,879,952,1037,1111,1158,1195,1201,1205,1207,1210,1228,1234,1238,1240,1240,1218,1203,1203,1203,1203,1203,1203,1203,1203,1203,1203,1203,1203,1203,1203,960,983,1003,1014,1023,1033,1035,1035,1035,1035,1040,1051,1064],"ymouse":[517,517,517,517,517,517,517,517,517,517,517,517,517,517,517,517,517,517,517,517,517,517,517,517,517,517,517,517,517,517,517,517,517,517,517,517,517,517,517,512,402,321,252,197,163,137,134,132,129,123,98,85,70,55,35,4,0,0,0,0,0,0,0,0,0,0,0,0,0,0,28,38,45,48,51,52,53,53,53,53,53,55,56],"timestamp_mouse":[13,39,44,64,85,105,126,146,165,184,204,226,246,266,286,305,326,345,365,385,404,424,445,465,485,506,525,544,565,584,604,626,646,665,685,706,725,745,765,785,805,825,844,866,885,905,925,944,965,986,1005,1026,1046,1065,1085,1105,1125,1144,1165,1186,1205,1225,1245,1265,1285,1304,1325,1346,1365,1386,1406,1426,1446,1465,1486,1506,1526,1546,1564,1584,1605,1625,1645],"xSR":741.5,"ySR":469.95,"xT1":424.9,"yT1":0,"xT2":1058.1,"yT2":0,"toosoon":0,"cond_shown":"randomdotsizeEA","ratio_trial":750,"smaller_num":"15","larger_num":"20","correct_side":2,"subjID":"tomasramirez10","gender":"0","age":"8","school":"4"},{"start_time":1552073945530,"click_time":1552073947760,"finger_time":1552073946560,"fix_duration":1229.3268102807524,"trial":29,"RT":1030,"MT":1200,"sideResp":1,"stimulus":"img/250/equaldotanddens/L/15_Ratio_250_L_12_R_3.png","xmouse":[767,767,767,767,767,767,767,767,767,767,767,767,767,767,767,767,767,767,767,767,767,767,767,767,767,767,767,767,767,767,767,767,767,767,767,767,767,767,767,767,767,767,767,767,767,766,765,761,759,751,742,731,720,698,693,688,685,681,672,668,665,660,657,651,649,645,640,636,621,611,598,587,569,564,561,560,560,560,560,560,560,560,560,560,560,560,560,560,560,560,560,560,560,559,557,555,552,544,536,519,506,490,474,458,456,455,453,452,449,449,449,449],"ymouse":[538,538,538,538,538,538,538,538,538,538,538,538,538,538,538,538,538,538,538,538,538,538,538,538,538,538,538,538,538,538,538,538,538,538,538,538,538,538,538,538,538,538,538,538,538,537,536,532,529,521,511,499,487,469,465,461,457,454,442,436,430,423,419,410,407,402,398,395,381,371,355,343,322,315,311,310,310,310,310,310,310,310,309,292,277,267,257,249,243,243,243,243,243,240,236,231,226,219,214,204,195,184,169,150,145,141,137,131,120,114,107,98],"timestamp_mouse":[21,30,50,68,89,110,129,150,168,189,210,229,250,269,289,309,329,348,369,390,409,430,448,468,490,509,528,550,569,590,608,629,650,669,689,708,729,750,770,788,810,828,850,868,890,908,930,950,968,989,1010,1030,1048,1068,1088,1110,1130,1149,1168,1189,1209,1230,1249,1269,1288,1309,1329,1350,1369,1390,1409,1429,1451,1468,1490,1510,1530,1549,1570,1589,1610,1629,1649,1669,1689,1710,1730,1750,1770,1790,1809,1829,1850,1870,1890,1910,1928,1951,1969,1990,2010,2030,2050,2070,2089,2109,2129,2149,2169,2188,2208,2230],"xSR":741.5,"ySR":469.95,"xT1":424.9,"yT1":0,"xT2":1058.1,"yT2":0,"toosoon":0,"cond_shown":"equaldotanddens","ratio_trial":250,"smaller_num":"3","larger_num":"12","correct_side":1,"subjID":"tomasramirez10","gender":"0","age":"8","school":"4"},{"start_time":1552073952831,"click_time":1552073956240,"finger_time":1552073954319,"fix_duration":1288.6990340141044,"trial":30,"RT":1488,"MT":1921,"sideResp":2,"stimulus":"img/500/equaldotanddens/R/6_Ratio_500_L_9_R_18.png","xmouse":[832,832,832,832,832,832,832,832,832,832,832,832,832,832,832,832,832,832,832,832,832,832,832,832,832,832,832,832,832,832,832,832,832,832,832,832,832,832,832,832,834,837,837,837,837,837,837,837,837,837,837,837,837,837,837,837,837,837,837,837,837,837,837,837,837,837,837,837,837,837,837,837,837,838,844,850,857,866,910,1041,1120,1381,1524,1524,1524,1524,1524,1524,1524,1524,1524,1524,1524,1524,1524,1524,1524,1524,1524,1524,1524,1524,1524,1524,1524,1524,1524,1524,1524,1524,1524,1524,1524,1524,1524,1524,1524,1524,1524,1524,1524,1524,1524,1524,1524,1524,1524,1579,1563,1516,1509,1501,1501,1501,1498,1496,1494,1492,1483,1464,1447,1426,1404,1384,1352,1347,1345,1345,1342,1324,1300,1281,1265,1249,1217,1202,1190,1181,1175,1167,1166,1165,1165,1165,1165,1165,1165,1165,1165,1160,1155],"ymouse":[504,504,504,504,504,504,504,504,504,504,504,504,504,504,504,504,504,504,504,504,504,504,504,504,504,504,504,504,504,504,504,504,504,504,504,504,504,504,504,501,497,492,492,492,492,492,492,492,492,492,492,492,492,492,492,492,492,492,492,492,492,492,492,492,492,492,492,492,492,492,492,492,492,492,491,489,488,487,474,429,398,304,261,261,261,261,261,261,261,261,261,261,261,261,261,261,261,261,261,261,261,261,261,261,261,261,261,261,261,261,261,261,261,261,261,261,261,261,261,261,261,261,261,261,261,261,261,158,151,141,140,139,139,139,138,137,137,136,131,124,116,107,96,84,68,65,64,64,64,64,64,61,60,59,59,59,59,59,59,59,59,59,59,59,59,59,59,59,59,59,57],"timestamp_mouse":[9,29,48,68,87,108,128,148,175,189,209,228,248,267,288,308,328,349,368,387,408,428,448,469,488,508,529,547,568,588,608,627,648,669,688,708,729,747,767,788,809,829,849,868,889,908,927,949,969,989,1009,1028,1049,1068,1089,1109,1128,1149,1167,1188,1209,1228,1249,1267,1288,1309,1327,1348,1369,1389,1408,1428,1455,1467,1488,1508,1528,1548,1570,1588,1609,1627,1648,1668,1688,1709,1727,1748,1769,1788,1808,1828,1848,1869,1888,1908,1929,1948,1969,1988,2009,2029,2049,2068,2087,2108,2129,2149,2168,2188,2208,2228,2247,2269,2288,2309,2329,2348,2369,2388,2408,2429,2449,2468,2488,2508,2529,2548,2568,2587,2608,2629,2649,2668,2688,2708,2728,2748,2770,2788,2809,2828,2847,2867,2887,2908,2928,2948,2969,2988,3009,3029,3048,3068,3089,3109,3128,3148,3168,3188,3207,3227,3249,3268,3288,3309,3328,3348,3367,3387,3409],"xSR":741.5,"ySR":469.95,"xT1":424.9,"yT1":0,"xT2":1058.1,"yT2":0,"toosoon":0,"cond_shown":"equaldotanddens","ratio_trial":500,"smaller_num":"9","larger_num":"18","correct_side":2,"subjID":"tomasramirez10","gender":"0","age":"8","school":"4"},{"start_time":1552073960557,"click_time":1552073962079,"finger_time":1552073961640,"fix_duration":1496.2453364518685,"trial":31,"RT":1083,"MT":439,"sideResp":1,"stimulus":"img/500/equaldotanddens/L/5_Ratio_500_L_4_R_2.png","xmouse":[767,767,767,767,767,767,767,767,767,767,767,767,767,767,767,767,767,767,767,767,767,767,767,767,767,767,767,767,767,767,767,767,767,767,767,767,767,767,767,767,767,767,767,767,767,767,767,767,767,767,768,768,765,755,730,714,695,674,656,635,627,617,615,606,604,602,599,599,596,591,585,581,575,543,532,526,522],"ymouse":[517,517,517,517,517,517,517,517,517,517,517,517,517,517,517,517,517,517,517,517,517,517,517,517,517,517,517,517,517,517,517,517,517,517,517,517,517,517,517,517,517,517,517,517,517,517,517,517,517,517,517,515,507,495,460,433,402,365,335,300,289,275,271,257,251,246,240,236,228,209,187,177,157,83,64,52,46],"timestamp_mouse":[10,23,42,62,83,102,121,143,162,181,202,222,241,262,283,302,322,342,362,383,402,423,442,462,482,501,522,543,561,582,602,623,641,662,683,703,721,742,761,783,803,823,842,862,881,902,923,943,962,982,1003,1023,1043,1062,1083,1102,1123,1143,1162,1182,1202,1221,1241,1264,1281,1301,1323,1342,1363,1382,1402,1421,1441,1463,1482,1503,1522],"xSR":741.5,"ySR":469.95,"xT1":424.9,"yT1":0,"xT2":1058.1,"yT2":0,"toosoon":0,"cond_shown":"equaldotanddens","ratio_trial":500,"smaller_num":"2","larger_num":"4","correct_side":1,"subjID":"tomasramirez10","gender":"0","age":"8","school":"4"},{"start_time":1552073963391,"click_time":1552073964498,"finger_time":1552073964300,"fix_duration":250,"trial":32,"RT":909,"MT":198,"sideResp":2,"stimulus":"img/750/equaldotanddens/R/4_Ratio_750_L_15_R_20.png","xmouse":[776,776,776,776,776,776,776,776,776,776,776,776,776,776,776,776,776,776,776,776,776,776,776,776,776,776,776,776,776,776,776,776,776,776,776,776,776,776,776,776,777,782,782,783,783,787,788,803,832,865,910,951,1030,1061,1082,1104],"ymouse":[531,531,531,531,531,531,531,531,531,531,531,531,531,531,531,531,531,531,531,531,531,531,531,531,531,531,531,531,531,531,531,531,531,531,531,531,531,531,531,531,531,524,514,501,477,467,466,447,408,370,326,280,193,155,127,99],"timestamp_mouse":[22,42,48,68,89,107,128,147,169,187,208,227,248,269,287,309,329,347,367,389,408,429,449,468,488,509,529,549,567,587,608,627,649,669,689,709,727,747,768,789,809,829,847,867,888,909,929,948,968,989,1008,1029,1048,1069,1088,1107],"xSR":741.5,"ySR":469.95,"xT1":424.9,"yT1":0,"xT2":1058.1,"yT2":0,"toosoon":0,"cond_shown":"equaldotanddens","ratio_trial":750,"smaller_num":"15","larger_num":"20","correct_side":2,"subjID":"tomasramirez10","gender":"0","age":"8","school":"4"},{"start_time":1552073966643,"click_time":1552073967339,"finger_time":1552073967099,"fix_duration":702.3915985141492,"trial":33,"RT":456,"MT":240,"sideResp":2,"stimulus":"img/250/randomdotsizeEA/R/13_Ratio_250_L_2_R_8.png","xmouse":[794,794,794,794,794,794,794,794,794,794,794,794,794,794,794,794,794,793,791,791,791,793,796,809,846,870,906,947,995,1063,1081,1092,1099,1106,1125],"ymouse":[509,509,509,509,509,509,509,509,509,509,509,509,509,509,505,501,496,491,486,477,473,470,467,458,439,423,388,342,286,190,164,147,133,123,89],"timestamp_mouse":[16,43,57,77,97,116,136,157,177,197,216,237,256,277,295,317,336,356,376,396,417,436,456,477,495,517,536,557,576,596,615,637,657,676,696],"xSR":741.5,"ySR":469.95,"xT1":424.9,"yT1":0,"xT2":1058.1,"yT2":0,"toosoon":0,"cond_shown":"randomdotsizeEA","ratio_trial":250,"smaller_num":"2","larger_num":"8","correct_side":2,"subjID":"tomasramirez10","gender":"0","age":"8","school":"4"},{"start_time":1552073968777,"click_time":1552073969959,"finger_time":1552073969339,"fix_duration":436.4202958462059,"trial":34,"RT":562,"MT":620,"sideResp":1,"stimulus":"img/250/randomdotsizeEA/L/14_Ratio_250_L_12_R_3.png","xmouse":[804,804,804,804,803,802,802,802,802,802,802,802,802,802,802,802,802,802,802,802,802,802,802,802,802,804,805,808,812,812,806,788,756,667,614,524,498,435,392,380,373,371,370,370,370,370,370,370,370,370,370,370,371,377,395,406,417,421,424,425],"ymouse":[541,541,541,541,538,538,538,538,538,538,538,538,538,538,538,538,538,538,538,538,538,538,538,536,531,521,513,486,431,396,354,309,269,215,194,156,145,109,82,75,72,72,72,72,72,72,72,72,72,72,72,72,72,72,72,72,72,73,73,73],"timestamp_mouse":[9,22,44,62,82,102,122,143,162,183,201,222,243,262,282,302,322,343,362,382,402,422,441,462,483,502,523,543,562,583,602,623,642,662,681,703,722,742,763,781,802,821,841,863,882,901,922,943,963,983,1002,1023,1042,1063,1083,1102,1121,1143,1162,1181],"xSR":741.5,"ySR":469.95,"xT1":424.9,"yT1":0,"xT2":1058.1,"yT2":0,"toosoon":0,"cond_shown":"randomdotsizeEA","ratio_trial":250,"smaller_num":"3","larger_num":"12","correct_side":1,"subjID":"tomasramirez10","gender":"0","age":"8","school":"4"},{"start_time":1552073971132,"click_time":1552073972241,"finger_time":1552073971779,"fix_duration":250,"trial":35,"RT":647,"MT":462,"sideResp":2,"stimulus":"img/750/equaldotsize/L/8_Ratio_750_L_4_R_3.png","xmouse":[795,795,795,795,795,795,795,795,795,795,795,795,795,795,795,795,795,795,795,795,795,795,795,795,795,795,795,795,792,791,786,785,784,783,783,783,783,783,783,783,783,783,783,783,783,786,803,822,857,916,1020,1060,1091,1112,1125],"ymouse":[509,509,509,509,509,509,509,509,509,509,509,509,509,509,509,509,509,509,509,509,509,509,509,509,509,509,508,503,495,488,473,468,464,462,460,458,458,458,458,458,458,458,458,458,456,453,446,434,408,362,244,186,138,101,76],"timestamp_mouse":[32,47,68,88,106,127,148,167,186,207,228,248,268,288,306,327,347,367,387,406,428,448,466,487,506,528,547,567,587,607,628,647,666,688,707,727,748,768,786,808,827,847,867,887,909,927,947,968,987,1007,1026,1047,1068,1087,1109],"xSR":741.5,"ySR":469.95,"xT1":424.9,"yT1":0,"xT2":1058.1,"yT2":0,"toosoon":0,"cond_shown":"equaldotsize","ratio_trial":750,"smaller_num":"3","larger_num":"4","correct_side":1,"subjID":"tomasramirez10","gender":"0","age":"8","school":"4"},{"start_time":1552073974204,"click_time":1552073975341,"finger_time":1552073974920,"fix_duration":1083.5051246306555,"trial":36,"RT":716,"MT":421,"sideResp":1,"stimulus":"img/900/equaldotsize/L/1_Ratio_900_L_10_R_9.png","xmouse":[753,753,753,753,753,753,753,753,753,753,753,753,753,753,753,753,753,753,753,753,753,753,753,753,753,753,753,753,753,753,753,753,753,753,753,752,746,731,719,702,677,637,599,588,579,576,574,570,567,564,559,554,538,532,529,526,523],"ymouse":[529,529,529,529,529,529,529,529,529,529,529,529,529,529,529,529,529,529,529,529,529,529,529,529,529,529,529,529,529,529,529,529,523,509,488,465,446,394,353,298,246,179,140,134,130,129,129,128,127,126,123,119,107,103,99,94,91],"timestamp_mouse":[15,38,55,76,96,114,135,156,175,195,214,235,255,275,294,316,335,356,376,395,415,435,454,476,495,514,536,554,575,595,616,634,654,676,696,716,735,755,775,795,815,835,854,875,894,916,937,957,976,996,1017,1036,1056,1076,1096,1116,1137],"xSR":741.5,"ySR":469.95,"xT1":424.9,"yT1":0,"xT2":1058.1,"yT2":0,"toosoon":0,"cond_shown":"equaldotsize","ratio_trial":900,"smaller_num":"9","larger_num":"10","correct_side":1,"subjID":"tomasramirez10","gender":"0","age":"8","school":"4"},{"start_time":1552073977530,"click_time":1552073978762,"finger_time":1552073978140,"fix_duration":1069.1414176216072,"trial":37,"RT":610,"MT":622,"sideResp":1,"stimulus":"img/900/equaldotanddens/L/10_Ratio_900_L_20_R_18.png","xmouse":[778,778,778,778,778,778,779,780,782,783,784,784,784,784,784,784,784,784,784,784,784,784,784,784,784,784,785,786,787,787,787,778,768,752,732,707,676,665,653,644,634,611,602,590,575,548,537,527,526,525,525,525,525,525,525,525,525,524,522,521,521,521],"ymouse":[510,510,510,510,510,510,514,520,526,531,533,533,533,533,533,533,533,533,533,533,533,533,533,533,533,533,527,516,504,486,464,411,380,347,315,283,248,233,220,208,198,180,176,172,164,152,145,134,131,130,130,130,130,130,130,130,130,128,122,113,103,92],"timestamp_mouse":[20,37,51,71,92,110,130,150,171,190,210,231,251,271,291,310,330,352,370,390,410,430,451,471,491,510,531,551,570,590,610,631,650,670,691,710,731,750,771,790,811,831,850,870,892,911,931,950,971,991,1010,1031,1050,1070,1090,1111,1130,1150,1171,1191,1211,1232],"xSR":741.5,"ySR":469.95,"xT1":424.9,"yT1":0,"xT2":1058.1,"yT2":0,"toosoon":0,"cond_shown":"equaldotanddens","ratio_trial":900,"smaller_num":"18","larger_num":"20","correct_side":1,"subjID":"tomasramirez10","gender":"0","age":"8","school":"4"},{"start_time":1552073980926,"click_time":1552073982601,"finger_time":1552073981541,"fix_duration":863.956800148077,"trial":38,"RT":615,"MT":1060,"sideResp":1,"stimulus":"img/250/equaldotsize/L/2_Ratio_250_L_16_R_4.png","xmouse":[763,763,763,764,764,764,764,764,764,764,764,764,764,764,764,764,764,764,764,764,764,764,764,764,765,765,767,770,771,771,771,762,751,721,693,661,636,611,606,602,591,578,551,540,536,534,533,533,534,536,536,536,536,536,535,535,535,524,517,502,484,465,418,408,405,404,404,404,404,404,405,407,410,410,410,410,410,410,410,410,410,410,413,428],"ymouse":[507,506,506,505,505,505,505,505,505,505,505,505,505,505,505,505,505,505,505,505,505,505,505,505,505,504,502,495,487,477,465,436,420,390,370,345,327,300,287,274,259,249,240,237,237,237,237,233,227,221,219,218,214,210,208,206,204,195,190,182,174,166,144,138,136,132,128,120,115,110,105,99,79,79,79,79,79,79,79,79,79,79,78,78],"timestamp_mouse":[14,52,54,75,96,114,135,154,175,195,216,235,256,274,294,314,335,354,374,394,415,436,456,476,495,516,534,555,575,595,615,636,654,675,694,715,734,754,775,795,814,834,854,874,894,914,934,955,975,994,1014,1034,1054,1076,1095,1114,1134,1154,1174,1194,1214,1235,1255,1274,1294,1314,1336,1354,1374,1394,1414,1434,1454,1475,1494,1515,1534,1554,1575,1594,1614,1635,1654,1675],"xSR":741.5,"ySR":469.95,"xT1":424.9,"yT1":0,"xT2":1058.1,"yT2":0,"toosoon":0,"cond_shown":"equaldotsize","ratio_trial":250,"smaller_num":"4","larger_num":"16","correct_side":1,"subjID":"tomasramirez10","gender":"0","age":"8","school":"4"},{"start_time":1552073984502,"click_time":1552073986520,"finger_time":1552073984522,"fix_duration":521.9404372073398,"trial":39,"RT":20,"MT":1998,"sideResp":1,"stimulus":"img/500/randomdotsizeEA/L/5_Ratio_500_L_4_R_2.png","xmouse":[732,717,717,712,712,712,712,712,712,712,712,712,712,712,717,728,743,761,799,818,833,846,848,850,850,850,850,850,850,850,850,850,849,848,847,845,844,844,842,842,842,840,834,826,823,820,817,815,813,812,811,810,808,806,803,803,802,805,806,806,806,806,813,831,834,834,834,834,834,834,834,834,834,835,835,834,831,826,801,777,748,723,699,680,676,673,668,659,637,635,629,628,621,608,597,585,573,561,537,528,522],"ymouse":[520,514,514,511,511,511,511,511,511,511,511,511,511,511,511,511,515,520,532,537,541,542,543,543,543,543,543,543,537,534,533,532,531,530,529,528,527,527,527,527,527,527,527,527,527,527,527,527,527,527,527,527,527,527,527,526,521,508,504,504,504,500,481,455,454,454,454,454,454,454,454,454,454,453,451,447,442,435,405,384,360,338,317,283,263,243,220,196,158,155,148,145,135,118,105,92,80,72,58,55,52],"timestamp_mouse":[20,48,59,80,99,119,139,158,178,198,219,238,259,278,298,318,338,358,378,398,418,438,459,478,498,519,539,558,579,599,618,638,659,678,699,718,738,759,778,798,819,839,858,878,898,918,939,958,978,999,1018,1039,1059,1078,1099,1119,1139,1159,1178,1199,1219,1239,1258,1279,1298,1319,1339,1359,1378,1398,1418,1439,1458,1478,1498,1518,1538,1558,1579,1598,1619,1638,1658,1678,1698,1719,1739,1758,1781,1799,1819,1839,1858,1879,1898,1918,1938,1959,1978,1998,2018],"xSR":741.5,"ySR":469.95,"xT1":424.9,"yT1":0,"xT2":1058.1,"yT2":0,"toosoon":0,"cond_shown":"randomdotsizeEA","ratio_trial":500,"smaller_num":"2","larger_num":"4","correct_side":1,"subjID":"tomasramirez10","gender":"0","age":"8","school":"4"},{"start_time":1552073988699,"click_time":1552073990360,"finger_time":1552073989340,"fix_duration":916.7492394886624,"trial":40,"RT":641,"MT":1020,"sideResp":1,"stimulus":"img/900/randomdotsizeEA/L/1_Ratio_900_L_10_R_9.png","xmouse":[772,772,772,772,772,772,772,772,772,772,772,772,772,772,772,772,772,772,772,772,772,772,772,772,772,772,773,774,775,777,778,780,780,780,780,780,779,776,772,761,749,739,729,714,700,667,650,632,615,598,564,549,534,524,515,512,512,511,510,510,510,510,510,510,510,510,510,512,520,529,547,547,547,547,547,547,547,547,547,547,547,547,547,445],"ymouse":[523,523,523,523,523,523,523,523,523,523,523,523,523,523,523,523,523,523,523,523,523,523,523,523,523,523,522,519,515,509,498,482,468,452,412,392,371,351,333,303,285,274,266,258,251,236,228,220,213,206,190,181,173,165,158,153,150,144,137,133,129,129,129,129,129,127,125,120,105,78,3,3,3,3,3,3,3,3,3,3,3,3,3,30],"timestamp_mouse":[9,37,43,61,82,101,123,142,162,183,201,221,242,261,282,301,321,341,362,383,401,422,442,461,482,502,521,542,563,581,601,622,641,661,683,701,722,741,762,783,801,821,841,862,881,901,922,942,961,981,1001,1021,1041,1061,1084,1101,1121,1141,1161,1183,1201,1222,1241,1262,1281,1301,1321,1341,1361,1381,1401,1421,1441,1461,1481,1501,1523,1542,1561,1581,1602,1621,1641,1661],"xSR":741.5,"ySR":469.95,"xT1":424.9,"yT1":0,"xT2":1058.1,"yT2":0,"toosoon":0,"cond_shown":"randomdotsizeEA","ratio_trial":900,"smaller_num":"9","larger_num":"10","correct_side":1,"subjID":"tomasramirez10","gender":"0","age":"8","school":"4"},{"start_time":1552073994252,"click_time":1552073995221,"finger_time":1552073994781,"fix_duration":931.7340084824311,"trial":41,"RT":529,"MT":440,"sideResp":2,"stimulus":"img/250/equaldotanddens/R/4_Ratio_250_L_3_R_12.png","xmouse":[754,754,754,754,754,754,754,754,754,754,754,754,754,754,754,754,754,754,754,758,765,769,787,794,800,806,814,828,881,929,984,1056,1124,1145,1164,1174,1176,1177,1177,1177,1177,1177,1177,1176,1175,1172,1167,1159,1134],"ymouse":[521,521,521,521,521,521,521,521,521,521,521,521,521,521,521,521,521,521,521,519,512,509,495,487,480,472,461,449,412,385,357,313,255,228,196,173,162,159,159,159,159,158,153,148,141,130,114,98,71],"timestamp_mouse":[15,30,49,69,90,109,128,148,169,188,208,228,248,269,288,308,328,348,369,389,409,428,448,469,489,509,529,548,568,588,609,629,648,668,690,709,729,749,769,788,808,828,849,870,889,909,928,948,969],"xSR":741.5,"ySR":469.95,"xT1":424.9,"yT1":0,"xT2":1058.1,"yT2":0,"toosoon":0,"cond_shown":"equaldotanddens","ratio_trial":250,"smaller_num":"3","larger_num":"12","correct_side":2,"subjID":"tomasramirez10","gender":"0","age":"8","school":"4"},{"start_time":1552073997339,"click_time":1552073998541,"finger_time":1552073997961,"fix_duration":1197.1818971048028,"trial":42,"RT":622,"MT":580,"sideResp":1,"stimulus":"img/750/randomdotsizeEA/R/15_Ratio_750_L_9_R_12.png","xmouse":[764,764,764,764,764,764,764,764,764,764,764,764,764,764,764,764,764,764,764,764,764,764,764,764,764,764,764,764,769,797,821,840,860,883,888,891,891,886,871,811,763,708,613,613,613,613,613,613,613,613,613,613,613,613,613,613,613,613,613,424,429],"ymouse":[499,499,499,499,499,499,499,499,499,499,499,499,499,499,499,499,499,499,499,499,499,499,499,499,499,499,499,499,497,488,477,464,444,400,376,330,291,245,201,124,95,58,5,5,5,5,5,5,5,5,5,5,5,5,5,5,5,5,5,5,21],"timestamp_mouse":[10,21,46,62,81,101,122,141,162,181,202,223,243,262,281,301,322,341,361,381,402,422,441,461,481,502,521,542,562,582,603,622,642,663,681,702,721,741,762,781,801,821,841,861,881,902,921,941,961,981,1001,1021,1041,1061,1081,1101,1122,1142,1163,1181,1202],"xSR":741.5,"ySR":469.95,"xT1":424.9,"yT1":0,"xT2":1058.1,"yT2":0,"toosoon":0,"cond_shown":"randomdotsizeEA","ratio_trial":750,"smaller_num":"9","larger_num":"12","correct_side":2,"subjID":"tomasramirez10","gender":"0","age":"8","school":"4"},{"start_time":1552074001089,"click_time":1552074002100,"finger_time":1552074001620,"fix_duration":1147.4623497368707,"trial":43,"RT":531,"MT":480,"sideResp":2,"stimulus":"img/750/equaldotsize/R/4_Ratio_750_L_15_R_20.png","xmouse":[806,806,806,806,806,806,806,806,806,806,806,806,806,806,806,806,806,806,806,806,806,806,806,806,817,836,879,896,909,920,926,936,942,947,952,964,986,994,998,1000,1000,1006,1014,1025,1031,1033,1038,1042,1048,1057,1067],"ymouse":[495,495,495,495,495,495,495,495,495,495,495,495,495,495,495,495,495,495,495,495,495,495,495,495,492,480,461,453,445,436,426,408,391,374,350,305,226,201,186,181,175,158,138,121,112,108,102,97,91,84,77],"timestamp_mouse":[11,31,55,71,91,112,131,151,172,192,211,232,253,271,292,312,331,351,372,393,412,432,452,472,492,511,531,551,571,592,612,632,651,672,692,711,732,752,771,791,811,831,852,871,891,911,932,951,971,991,1011],"xSR":741.5,"ySR":469.95,"xT1":424.9,"yT1":0,"xT2":1058.1,"yT2":0,"toosoon":0,"cond_shown":"equaldotsize","ratio_trial":750,"smaller_num":"15","larger_num":"20","correct_side":2,"subjID":"tomasramirez10","gender":"0","age":"8","school":"4"},{"start_time":1552074003684,"click_time":1552074004940,"finger_time":1552074004520,"fix_duration":820.2575178402362,"trial":44,"RT":836,"MT":420,"sideResp":2,"stimulus":"img/750/equaldotanddens/R/12_Ratio_750_L_3_R_4.png","xmouse":[810,810,810,810,810,810,810,810,810,810,810,810,810,810,810,810,810,810,810,810,810,810,810,810,810,810,810,810,810,810,810,810,810,810,810,810,810,810,814,818,824,844,859,874,895,908,920,945,960,971,977,980,983,989,996,1005,1029,1041,1052,1064,1070,1074,1083],"ymouse":[522,522,522,522,522,522,522,522,522,522,522,522,522,522,522,522,522,522,522,522,522,522,522,522,522,522,522,522,522,522,522,522,522,522,522,522,522,522,518,507,494,457,431,405,367,347,331,296,278,263,254,250,247,240,233,222,192,174,155,139,126,114,80],"timestamp_mouse":[16,38,56,76,96,116,137,157,176,198,217,236,258,276,296,318,336,356,377,396,416,436,457,476,497,516,536,556,577,596,616,636,657,677,697,717,737,757,776,797,816,836,856,877,898,917,937,957,977,996,1016,1038,1056,1077,1097,1117,1137,1156,1176,1196,1217,1236,1256],"xSR":741.5,"ySR":469.95,"xT1":424.9,"yT1":0,"xT2":1058.1,"yT2":0,"toosoon":0,"cond_shown":"equaldotanddens","ratio_trial":750,"smaller_num":"3","larger_num":"4","correct_side":2,"subjID":"tomasramirez10","gender":"0","age":"8","school":"4"},{"start_time":1552074006660,"click_time":1552074007921,"finger_time":1552074007421,"fix_duration":1076.9419669357192,"trial":45,"RT":761,"MT":500,"sideResp":1,"stimulus":"img/500/equaldotanddens/L/10_Ratio_500_L_4_R_2.png","xmouse":[793,793,793,793,793,793,793,793,793,793,793,793,793,793,794,792,789,787,782,782,782,782,782,782,782,782,782,782,782,782,782,782,782,782,780,772,765,754,718,691,660,625,588,554,515,503,501,500,499,498,495,494,493,491,491,491,491,491,496,496,496,496,497,499],"ymouse":[541,541,541,541,541,541,541,541,541,541,541,541,541,541,540,537,534,532,529,529,529,529,529,529,529,529,529,529,529,529,529,529,529,529,527,511,494,475,418,370,326,290,260,241,228,225,224,223,222,211,201,193,184,176,159,155,151,148,128,121,116,110,103,93],"timestamp_mouse":[10,21,42,60,81,100,122,140,161,182,200,221,240,260,280,301,320,341,360,381,401,420,440,460,481,501,521,542,560,581,601,621,641,660,680,701,720,741,761,780,801,820,840,860,880,901,920,940,961,980,1001,1020,1040,1061,1080,1100,1120,1140,1162,1180,1201,1221,1240,1261],"xSR":741.5,"ySR":469.95,"xT1":424.9,"yT1":0,"xT2":1058.1,"yT2":0,"toosoon":0,"cond_shown":"equaldotanddens","ratio_trial":500,"smaller_num":"2","larger_num":"4","correct_side":1,"subjID":"tomasramirez10","gender":"0","age":"8","school":"4"},{"start_time":1552074009771,"click_time":1552074010921,"finger_time":1552074010521,"fix_duration":887.8313310239487,"trial":46,"RT":750,"MT":400,"sideResp":1,"stimulus":"img/750/equaldotsize/L/6_Ratio_750_L_24_R_18.png","xmouse":[786,786,786,786,786,786,786,786,786,786,786,786,786,786,786,786,786,786,786,786,786,786,786,786,786,786,786,786,786,786,786,786,786,786,786,786,786,786,786,784,781,778,775,764,754,741,724,707,661,642,623,604,587,563,554,543,531,524],"ymouse":[508,508,508,508,508,508,508,508,508,508,508,508,508,508,508,508,508,508,508,508,508,508,508,508,508,508,508,508,508,508,508,508,508,508,507,503,488,461,424,409,395,384,371,333,308,279,247,219,157,138,121,106,94,75,68,59,50,45],"timestamp_mouse":[22,43,49,70,89,109,130,149,171,189,210,230,249,270,290,310,330,350,369,390,409,429,450,470,489,509,529,549,569,590,609,630,650,669,690,710,729,750,769,789,809,830,850,869,889,909,930,949,969,990,1010,1029,1050,1069,1090,1109,1130,1150],"xSR":741.5,"ySR":469.95,"xT1":424.9,"yT1":0,"xT2":1058.1,"yT2":0,"toosoon":0,"cond_shown":"equaldotsize","ratio_trial":750,"smaller_num":"18","larger_num":"24","correct_side":1,"subjID":"tomasramirez10","gender":"0","age":"8","school":"4"},{"start_time":1552074014185,"click_time":1552074015360,"finger_time":1552074014922,"fix_duration":442.1075655408604,"trial":47,"RT":737,"MT":438,"sideResp":1,"stimulus":"img/750/equaldotanddens/L/1_Ratio_750_L_20_R_15.png","xmouse":[788,788,788,788,788,788,788,788,788,788,788,788,788,788,788,788,788,788,788,788,788,788,788,788,788,788,788,788,788,788,788,788,787,784,779,772,761,719,680,642,603,560,560,560,560,560,560,560,560,560,560,560,560,560,560,560,560,560,479],"ymouse":[556,556,556,556,556,556,556,556,556,556,556,556,556,556,556,556,556,556,556,556,556,556,556,556,556,556,556,556,556,553,552,547,533,519,493,470,437,298,206,110,45,7,7,7,7,7,7,7,7,7,7,7,7,7,7,7,7,7,4],"timestamp_mouse":[16,36,55,75,96,115,136,155,176,195,215,235,255,275,296,316,336,356,375,396,415,435,456,475,496,515,536,556,575,595,616,635,656,676,695,716,737,756,776,796,815,835,857,876,895,915,935,956,975,995,1015,1035,1056,1076,1096,1115,1135,1155,1175],"xSR":741.5,"ySR":469.95,"xT1":424.9,"yT1":0,"xT2":1058.1,"yT2":0,"toosoon":0,"cond_shown":"equaldotanddens","ratio_trial":750,"smaller_num":"15","larger_num":"20","correct_side":1,"subjID":"tomasramirez10","gender":"0","age":"8","school":"4"},{"start_time":1552074018970,"click_time":1552074020680,"finger_time":1552074019840,"fix_duration":1348.6885552893102,"trial":48,"RT":870,"MT":840,"sideResp":1,"stimulus":"img/250/equaldotanddens/L/7_Ratio_250_L_8_R_2.png","xmouse":[774,774,774,774,774,774,774,774,774,774,774,774,774,774,774,774,774,774,774,774,774,774,774,774,774,774,774,774,774,774,774,774,774,774,774,774,774,774,774,774,778,782,784,790,802,804,806,806,806,806,806,806,806,806,803,789,763,730,683,565,511,460,409,361,341,341,340,339,338,338,338,338,338,338,340,344,345,346,346,349,362,375,386,397,424,436],"ymouse":[505,505,505,505,505,505,505,505,505,505,505,505,505,505,505,505,505,505,505,505,505,505,505,505,505,505,505,505,505,505,505,505,505,505,505,505,505,505,505,505,503,493,481,467,434,427,422,418,416,416,416,416,416,416,413,407,392,369,335,233,178,129,89,60,48,48,47,44,40,32,31,30,30,29,29,29,29,29,29,29,33,37,42,46,54,58],"timestamp_mouse":[13,40,50,71,92,110,130,151,170,192,211,230,250,270,292,310,331,350,370,390,410,431,450,471,490,510,531,552,570,590,610,631,652,670,690,710,731,750,771,790,810,830,850,870,890,910,930,950,971,990,1011,1030,1050,1071,1091,1111,1130,1150,1171,1190,1210,1231,1251,1271,1290,1310,1331,1351,1371,1391,1411,1430,1451,1470,1491,1510,1530,1551,1571,1590,1611,1631,1651,1670,1690,1710],"xSR":741.5,"ySR":469.95,"xT1":424.9,"yT1":0,"xT2":1058.1,"yT2":0,"toosoon":0,"cond_shown":"equaldotanddens","ratio_trial":250,"smaller_num":"2","larger_num":"8","correct_side":1,"subjID":"tomasramirez10","gender":"0","age":"8","school":"4"},{"start_time":1552074023698,"click_time":1552074025721,"finger_time":1552074024580,"fix_duration":854.2914920175676,"trial":49,"RT":882,"MT":1141,"sideResp":1,"stimulus":"img/500/equaldotsize/L/5_Ratio_500_L_4_R_2.png","xmouse":[804,804,804,804,804,804,804,804,804,804,804,804,804,804,804,804,804,804,804,804,804,804,804,804,804,804,804,804,804,804,804,804,804,804,804,804,804,804,804,804,804,803,802,794,780,770,759,751,742,728,720,712,702,692,670,647,626,600,532,496,464,441,421,406,397,397,397,397,397,397,397,397,400,405,455,512,539,560,567,569,569,569,569,569,569,569,569,569,569,569,569,569,568,568,559,556,548,540,528,509,502,497],"ymouse":[507,507,507,507,507,507,507,507,507,507,507,507,507,507,507,507,507,507,507,507,507,507,507,507,507,507,507,507,507,507,507,507,507,507,507,507,507,507,507,507,506,504,498,472,431,410,391,374,358,327,310,294,278,264,247,235,225,214,183,164,145,131,117,107,97,95,94,94,94,94,94,94,94,94,110,127,134,141,143,144,144,144,144,144,144,144,144,144,144,144,144,144,144,144,142,140,136,130,122,108,103,99],"timestamp_mouse":[9,23,42,64,82,102,123,143,162,182,202,223,243,263,282,302,327,343,362,382,403,422,443,462,483,503,522,542,564,582,602,623,643,663,684,703,723,742,762,782,802,822,842,864,882,903,924,949,963,982,1002,1022,1042,1062,1082,1102,1122,1143,1164,1182,1202,1222,1242,1262,1282,1303,1322,1342,1362,1383,1403,1423,1443,1462,1482,1502,1522,1542,1563,1583,1602,1622,1642,1664,1682,1702,1722,1742,1763,1783,1803,1823,1843,1862,1882,1903,1923,1942,1963,1982,2002,2023],"xSR":741.5,"ySR":469.95,"xT1":424.9,"yT1":0,"xT2":1058.1,"yT2":0,"toosoon":0,"cond_shown":"equaldotsize","ratio_trial":500,"smaller_num":"2","larger_num":"4","correct_side":1,"subjID":"tomasramirez10","gender":"0","age":"8","school":"4"},{"start_time":1552074029465,"click_time":1552074030981,"finger_time":1552074030460,"fix_duration":943.4187623818175,"trial":50,"RT":995,"MT":521,"sideResp":2,"stimulus":"img/900/equaldotsize/R/13_Ratio_900_L_18_R_20.png","xmouse":[793,793,793,793,793,793,793,793,793,793,793,793,793,793,793,793,793,793,793,793,793,793,793,793,793,793,793,793,793,793,793,793,793,793,793,793,793,793,793,793,793,793,793,793,793,793,796,810,830,851,867,904,926,947,990,1026,1032,1036,1038,1038,1038,1038,1038,1040,1043,1047,1051,1052,1052,1053,1053,1053,1055,1056,1058,1060],"ymouse":[510,510,510,510,510,510,510,510,510,510,510,510,510,510,510,510,510,510,510,510,510,510,510,510,510,510,510,510,510,510,510,510,510,510,510,510,510,510,510,510,510,510,510,510,510,510,508,508,511,514,516,512,499,479,394,244,195,167,142,126,102,93,84,71,64,58,55,55,55,55,55,55,55,55,54,54],"timestamp_mouse":[17,39,57,75,95,115,135,155,176,195,215,237,256,275,296,316,336,355,376,396,415,436,457,476,495,515,536,555,576,595,615,635,655,676,696,715,736,755,775,797,815,837,856,875,896,915,937,956,976,995,1016,1035,1055,1075,1096,1116,1135,1156,1176,1195,1215,1236,1255,1276,1296,1316,1336,1355,1376,1396,1416,1435,1457,1476,1495,1516],"xSR":741.5,"ySR":469.95,"xT1":424.9,"yT1":0,"xT2":1058.1,"yT2":0,"toosoon":0,"cond_shown":"equaldotsize","ratio_trial":900,"smaller_num":"18","larger_num":"20","correct_side":2,"subjID":"tomasramirez10","gender":"0","age":"8","school":"4"},{"start_time":1552074033231,"click_time":1552074034041,"finger_time":1552074033244,"fix_duration":1048.9252632282628,"trial":51,"RT":13,"MT":797,"sideResp":2,"stimulus":"img/900/equaldotsize/R/7_Ratio_900_L_9_R_10.png","xmouse":[843,854,855,856,856,856,856,856,856,856,856,856,856,856,856,856,856,856,856,856,856,856,856,856,856,856,856,856,856,856,856,857,858,875,889,910,934,968,1029,1051,1067],"ymouse":[504,502,501,501,501,501,501,501,501,501,501,501,501,501,501,501,501,501,501,501,501,501,501,501,501,501,501,501,501,501,501,499,492,434,401,355,293,227,111,74,45],"timestamp_mouse":[13,34,49,69,89,109,129,150,170,190,209,229,251,269,290,310,330,350,369,390,409,429,449,470,490,509,530,549,570,589,610,631,649,669,689,709,729,749,769,790,810],"xSR":741.5,"ySR":469.95,"xT1":424.9,"yT1":0,"xT2":1058.1,"yT2":0,"toosoon":0,"cond_shown":"equaldotsize","ratio_trial":900,"smaller_num":"9","larger_num":"10","correct_side":2,"subjID":"tomasramirez10","gender":"0","age":"8","school":"4"},{"start_time":1552074035701,"click_time":1552074037142,"finger_time":1552074036683,"fix_duration":499.70095370077996,"trial":52,"RT":982,"MT":459,"sideResp":1,"stimulus":"img/750/equaldotsize/L/13_Ratio_750_L_8_R_6.png","xmouse":[778,778,778,778,778,778,778,778,778,778,778,778,778,778,778,778,778,778,778,778,778,778,778,778,778,778,778,778,778,778,778,778,778,778,778,778,778,778,778,778,778,778,778,778,779,780,780,780,779,776,760,750,739,726,714,695,684,673,659,645,614,601,590,580,572,561,554,549,541,538,531,525,522],"ymouse":[520,520,520,520,520,520,520,520,520,520,520,520,520,520,520,520,520,520,520,520,520,520,520,520,520,520,520,520,520,520,520,520,520,520,520,520,520,520,520,520,520,520,520,520,519,511,501,488,471,454,382,342,310,281,254,212,192,175,158,141,115,106,100,95,93,88,84,83,80,78,75,73,71],"timestamp_mouse":[10,33,41,60,82,101,121,140,161,181,201,221,240,260,281,301,320,340,362,381,401,420,441,460,480,500,521,540,562,581,602,621,641,661,680,701,720,740,760,781,800,821,841,861,880,900,920,940,961,982,1000,1021,1040,1061,1080,1100,1120,1140,1160,1180,1200,1221,1241,1261,1281,1300,1322,1340,1360,1380,1400,1420,1441],"xSR":741.5,"ySR":469.95,"xT1":424.9,"yT1":0,"xT2":1058.1,"yT2":0,"toosoon":0,"cond_shown":"equaldotsize","ratio_trial":750,"smaller_num":"6","larger_num":"8","correct_side":1,"subjID":"tomasramirez10","gender":"0","age":"8","school":"4"},{"start_time":1552074038759,"click_time":1552074040161,"finger_time":1552074039561,"fix_duration":676.5563934329205,"trial":53,"RT":802,"MT":600,"sideResp":2,"stimulus":"img/250/equaldotsize/R/6_Ratio_250_L_6_R_24.png","xmouse":[826,826,826,826,826,826,826,826,826,826,826,826,826,826,826,826,826,826,826,826,826,826,826,826,826,827,824,822,821,821,821,821,821,821,821,821,821,821,822,830,852,897,1036,1104,1186,1198,1220,1225,1228,1231,1234,1237,1241,1242,1242,1242,1242,1242,1242,1242,1242,1238,1229,1219,1213,1210,1205,1192,1181,1170,1153],"ymouse":[549,549,549,549,549,549,549,549,549,549,549,549,549,549,549,549,549,549,549,549,549,549,549,549,549,548,545,540,539,539,539,539,539,539,539,539,538,535,519,501,464,399,221,144,75,64,45,38,35,30,24,18,5,3,2,2,2,2,2,2,1,2,6,13,18,21,23,31,36,39,44],"timestamp_mouse":[13,23,42,62,83,102,124,142,163,183,203,223,242,262,282,302,323,343,363,383,402,422,442,463,482,502,522,543,563,582,602,623,643,663,683,703,723,742,763,783,802,823,843,863,883,903,922,943,963,982,1002,1023,1043,1062,1082,1103,1123,1143,1163,1182,1203,1222,1242,1263,1282,1303,1323,1343,1362,1382,1402],"xSR":741.5,"ySR":469.95,"xT1":424.9,"yT1":0,"xT2":1058.1,"yT2":0,"toosoon":0,"cond_shown":"equaldotsize","ratio_trial":250,"smaller_num":"6","larger_num":"24","correct_side":2,"subjID":"tomasramirez10","gender":"0","age":"8","school":"4"},{"start_time":1552074041522,"click_time":1552074042642,"finger_time":1552074042241,"fix_duration":297.71180423368406,"trial":54,"RT":719,"MT":401,"sideResp":1,"stimulus":"img/900/equaldotsize/L/10_Ratio_900_L_20_R_18.png","xmouse":[820,820,820,820,820,820,820,820,820,820,820,820,820,820,820,820,820,820,820,820,820,820,820,820,820,820,820,820,820,820,820,820,820,818,809,772,738,720,702,690,671,662,648,636,605,594,583,579,576,575,571,569,564,560,551,530,523],"ymouse":[514,514,514,514,514,514,514,514,514,514,514,514,514,514,514,514,514,514,514,514,514,514,514,514,514,514,514,514,514,514,514,514,514,513,507,487,472,464,454,446,426,414,394,371,313,288,248,225,204,186,151,135,119,104,87,55,49],"timestamp_mouse":[1,31,39,59,79,99,120,139,160,180,199,219,240,259,279,300,319,339,359,379,401,419,440,459,479,500,520,539,559,579,600,619,640,660,680,699,719,739,759,780,799,820,839,860,882,899,919,939,959,980,1001,1019,1039,1061,1079,1100,1120],"xSR":741.5,"ySR":469.95,"xT1":424.9,"yT1":0,"xT2":1058.1,"yT2":0,"toosoon":0,"cond_shown":"equaldotsize","ratio_trial":900,"smaller_num":"18","larger_num":"20","correct_side":1,"subjID":"tomasramirez10","gender":"0","age":"8","school":"4"},{"start_time":1552074043988,"click_time":1552074044942,"finger_time":1552074044801,"fix_duration":544.5297565355805,"trial":55,"RT":813,"MT":141,"sideResp":2,"stimulus":"img/250/equaldotanddens/R/6_Ratio_250_L_6_R_24.png","xmouse":[777,777,777,777,777,777,777,777,777,777,777,777,777,777,777,777,777,777,777,777,777,777,777,778,778,778,778,778,778,779,779,779,780,780,780,781,784,787,795,806,837,909,952,991,1026,1055,1075,1099],"ymouse":[546,546,546,546,546,546,546,546,546,546,546,546,546,546,546,546,546,546,546,546,546,546,546,544,543,543,543,543,543,543,542,542,540,539,538,538,531,522,507,489,436,326,270,224,182,147,125,96],"timestamp_mouse":[13,38,54,74,94,114,134,154,173,194,213,235,254,275,294,313,334,353,374,394,413,434,453,473,493,514,534,553,573,593,613,633,654,673,693,713,733,754,774,793,813,833,854,873,893,913,933,954],"xSR":741.5,"ySR":469.95,"xT1":424.9,"yT1":0,"xT2":1058.1,"yT2":0,"toosoon":0,"cond_shown":"equaldotanddens","ratio_trial":250,"smaller_num":"6","larger_num":"24","correct_side":2,"subjID":"tomasramirez10","gender":"0","age":"8","school":"4"},{"start_time":1552074046173,"click_time":1552074047141,"finger_time":1552074046662,"fix_duration":250,"trial":56,"RT":489,"MT":479,"sideResp":1,"stimulus":"img/500/equaldotsize/L/11_Ratio_500_L_12_R_6.png","xmouse":[762,762,762,762,762,762,762,762,762,762,762,762,762,763,763,763,763,763,763,763,763,763,763,763,758,746,732,708,701,695,692,690,685,678,672,664,656,637,624,610,592,567,550,546,543,540,537,530,520],"ymouse":[522,522,522,522,522,522,522,522,522,522,522,521,521,520,520,520,520,520,520,520,520,520,511,491,461,415,376,321,307,297,289,283,271,260,251,238,224,195,179,161,142,120,100,96,91,86,79,62,50],"timestamp_mouse":[20,28,48,68,88,108,128,148,168,188,208,228,248,268,289,308,328,348,369,388,408,429,449,469,489,508,528,548,568,588,609,628,648,670,688,709,728,749,768,788,808,829,848,869,888,908,929,948,968],"xSR":741.5,"ySR":469.95,"xT1":424.9,"yT1":0,"xT2":1058.1,"yT2":0,"toosoon":0,"cond_shown":"equaldotsize","ratio_trial":500,"smaller_num":"6","larger_num":"12","correct_side":1,"subjID":"tomasramirez10","gender":"0","age":"8","school":"4"},{"start_time":1552074048173,"click_time":1552074048941,"finger_time":1552074048742,"fix_duration":290.1231572407247,"trial":57,"RT":569,"MT":199,"sideResp":2,"stimulus":"img/750/equaldotanddens/R/3_Ratio_750_L_15_R_20.png","xmouse":[798,798,798,798,798,798,798,798,798,798,798,798,798,798,798,798,798,798,798,798,798,798,798,798,798,798,799,804,810,828,847,878,952,991,1024,1055,1078,1094,1120],"ymouse":[503,503,503,503,503,503,503,503,503,503,503,503,503,503,503,503,503,503,503,503,503,503,503,503,503,503,498,481,466,433,408,373,296,252,215,177,146,124,89],"timestamp_mouse":[8,39,48,69,88,109,130,149,169,189,208,229,249,269,288,309,329,348,369,389,408,428,449,469,488,509,529,549,569,588,610,628,649,668,688,709,728,748,768],"xSR":741.5,"ySR":469.95,"xT1":424.9,"yT1":0,"xT2":1058.1,"yT2":0,"toosoon":0,"cond_shown":"equaldotanddens","ratio_trial":750,"smaller_num":"15","larger_num":"20","correct_side":2,"subjID":"tomasramirez10","gender":"0","age":"8","school":"4"},{"start_time":1552074052333,"click_time":1552074054062,"finger_time":1552074053162,"fix_duration":849.3432649643032,"trial":58,"RT":829,"MT":900,"sideResp":1,"stimulus":"img/500/equaldotsize/L/11_Ratio_500_L_12_R_6.png","xmouse":[820,820,820,820,820,820,820,820,820,820,820,820,820,820,820,820,820,820,820,820,820,820,820,820,820,820,820,820,820,820,820,820,820,820,820,820,820,820,814,794,754,730,702,652,593,464,416,387,376,373,374,377,379,382,384,384,387,387,389,391,392,392,394,398,404,417,423,431,440,451,464,470,477,480,481,481,481,481,482,482,483,483,484,485,485,487,489],"ymouse":[517,517,517,517,517,517,517,517,517,517,517,517,517,517,517,517,517,517,517,517,517,517,517,517,517,517,517,517,517,517,517,517,517,517,517,517,517,517,514,502,479,462,440,410,378,293,253,219,191,172,142,133,127,120,115,111,107,105,99,95,93,93,93,93,93,96,101,106,112,118,121,122,123,123,123,123,123,123,123,123,123,121,117,113,110,105,99],"timestamp_mouse":[12,28,48,69,88,108,128,148,169,188,208,228,248,268,289,308,329,348,370,388,409,429,448,469,488,510,529,548,568,588,609,629,648,669,689,710,729,748,769,788,809,829,848,869,888,909,928,949,969,988,1009,1028,1048,1068,1090,1108,1128,1149,1169,1188,1208,1228,1248,1268,1289,1308,1328,1349,1368,1388,1408,1428,1448,1468,1490,1509,1529,1549,1569,1588,1608,1628,1648,1669,1690,1709,1729],"xSR":741.5,"ySR":469.95,"xT1":424.9,"yT1":0,"xT2":1058.1,"yT2":0,"toosoon":0,"cond_shown":"equaldotsize","ratio_trial":500,"smaller_num":"6","larger_num":"12","correct_side":1,"subjID":"tomasramirez10","gender":"0","age":"8","school":"4"},{"start_time":1552074055514,"click_time":1552074056622,"finger_time":1552074056081,"fix_duration":250,"trial":59,"RT":567,"MT":541,"sideResp":2,"stimulus":"img/500/randomdotsizeEA/L/13_Ratio_500_L_12_R_6.png","xmouse":[813,813,813,813,813,813,813,813,813,813,813,813,813,813,813,811,804,803,801,800,800,800,800,800,800,798,796,796,796,796,811,824,838,858,874,901,914,934,943,948,950,950,950,950,950,950,953,963,983,999,1015,1038,1046,1058,1073],"ymouse":[508,508,508,508,508,508,508,508,508,508,508,508,508,508,508,508,509,509,509,510,510,510,510,510,510,504,485,460,430,373,291,249,210,174,152,111,96,79,72,69,68,68,68,68,68,68,68,68,68,68,68,68,68,68,68],"timestamp_mouse":[31,48,67,87,109,128,147,168,187,208,227,247,268,287,308,328,348,367,388,408,427,449,467,488,507,528,548,567,588,607,627,647,668,689,708,728,747,768,788,808,827,847,868,888,908,927,947,968,988,1008,1028,1048,1068,1088,1108],"xSR":741.5,"ySR":469.95,"xT1":424.9,"yT1":0,"xT2":1058.1,"yT2":0,"toosoon":0,"cond_shown":"randomdotsizeEA","ratio_trial":500,"smaller_num":"6","larger_num":"12","correct_side":1,"subjID":"tomasramirez10","gender":"0","age":"8","school":"4"},{"start_time":1552074058782,"click_time":1552074059901,"finger_time":1552074059443,"fix_duration":1079.2181287626777,"trial":60,"RT":661,"MT":458,"sideResp":1,"stimulus":"img/250/equaldotanddens/L/14_Ratio_250_L_12_R_3.png","xmouse":[776,776,776,776,776,776,776,776,776,776,776,777,777,780,782,783,784,785,786,787,787,787,787,787,787,787,787,787,787,787,787,787,768,730,707,678,651,633,609,599,588,577,566,551,551,551,551,551,551,551,551,551,551,551,551,503],"ymouse":[551,551,551,551,551,551,551,551,551,551,551,550,549,546,544,543,542,541,540,540,539,539,539,539,539,539,539,539,539,534,523,507,437,344,295,247,206,177,124,101,76,49,25,0,0,0,0,0,0,0,0,0,0,0,0,4],"timestamp_mouse":[34,41,60,80,100,119,140,159,180,200,220,239,260,280,300,320,339,360,380,399,419,439,460,481,499,520,540,561,580,600,620,640,661,680,700,719,739,760,781,801,819,839,861,880,900,920,940,960,980,1000,1020,1039,1060,1079,1100,1119],"xSR":741.5,"ySR":469.95,"xT1":424.9,"yT1":0,"xT2":1058.1,"yT2":0,"toosoon":0,"cond_shown":"equaldotanddens","ratio_trial":250,"smaller_num":"3","larger_num":"12","correct_side":1,"subjID":"tomasramirez10","gender":"0","age":"8","school":"4"},{"start_time":1552074063175,"click_time":1552074064441,"finger_time":1552074064141,"fix_duration":490.1688627318638,"trial":61,"RT":966,"MT":300,"sideResp":2,"stimulus":"img/250/equaldotsize/R/9_Ratio_250_L_3_R_12.png","xmouse":[816,816,816,816,816,816,816,816,816,816,816,816,816,816,816,816,816,816,816,816,816,816,816,816,816,816,816,816,816,816,816,816,816,816,816,816,816,816,816,816,816,816,816,816,816,818,826,838,855,901,940,979,1017,1056,1109,1148,1155,1157,1158,1158,1158,1158,1158,1158],"ymouse":[505,505,505,505,505,505,505,505,505,505,505,505,505,505,505,505,505,505,505,505,505,505,505,505,505,505,505,505,505,505,505,505,505,505,505,505,505,505,505,505,505,505,505,505,505,505,498,490,481,448,404,342,283,230,170,133,125,124,122,121,115,111,105,97],"timestamp_mouse":[13,35,47,67,86,106,127,147,167,186,207,227,246,267,286,307,327,346,367,387,407,426,447,467,486,507,527,548,567,586,607,627,646,667,687,708,727,747,767,786,807,826,848,866,886,906,927,947,966,988,1006,1027,1046,1066,1087,1106,1126,1148,1166,1186,1206,1227,1247,1266],"xSR":741.5,"ySR":469.95,"xT1":424.9,"yT1":0,"xT2":1058.1,"yT2":0,"toosoon":0,"cond_shown":"equaldotsize","ratio_trial":250,"smaller_num":"3","larger_num":"12","correct_side":2,"subjID":"tomasramirez10","gender":"0","age":"8","school":"4"},{"start_time":1552074066301,"click_time":1552074067621,"finger_time":1552074067082,"fix_duration":937.8375884412169,"trial":62,"RT":781,"MT":539,"sideResp":2,"stimulus":"img/900/equaldotanddens/L/2_Ratio_900_L_20_R_18.png","xmouse":[774,774,774,774,774,774,774,774,774,774,774,774,774,774,774,774,774,774,774,774,776,777,780,783,793,794,794,794,794,794,795,795,795,795,795,795,795,795,799,826,845,861,875,895,902,902,902,902,906,910,919,936,956,976,1016,1030,1040,1047,1051,1056,1057,1058,1059,1068,1078,1104,1136],"ymouse":[506,506,506,506,506,506,506,506,506,506,506,506,506,506,506,506,506,506,506,506,503,503,500,496,489,488,488,488,488,487,486,486,486,486,486,486,483,478,471,438,416,396,377,338,318,316,313,310,298,289,276,260,242,228,207,202,199,197,195,194,193,191,189,174,158,111,53],"timestamp_mouse":[11,20,43,61,80,100,120,140,161,180,201,221,240,260,281,300,321,340,361,381,400,422,441,460,481,500,522,541,561,580,600,621,640,661,681,700,721,741,761,781,801,820,841,862,880,900,920,941,962,980,1000,1020,1041,1061,1080,1100,1121,1140,1160,1181,1200,1220,1241,1262,1280,1300,1320],"xSR":741.5,"ySR":469.95,"xT1":424.9,"yT1":0,"xT2":1058.1,"yT2":0,"toosoon":0,"cond_shown":"equaldotanddens","ratio_trial":900,"smaller_num":"18","larger_num":"20","correct_side":1,"subjID":"tomasramirez10","gender":"0","age":"8","school":"4"},{"start_time":1552074069235,"click_time":1552074070541,"finger_time":1552074069881,"fix_duration":452.4342557074521,"trial":63,"RT":646,"MT":660,"sideResp":1,"stimulus":"img/500/randomdotsizeEA/R/2_Ratio_500_L_3_R_6.png","xmouse":[780,780,780,780,780,780,780,780,780,780,780,780,780,780,780,780,780,780,780,780,780,780,780,780,780,780,780,780,779,777,773,765,745,733,722,712,704,689,682,675,665,653,632,621,611,602,594,578,573,566,562,559,556,555,554,553,551,548,547,545,542,538,524,516,508,502],"ymouse":[506,506,506,506,506,506,506,506,506,506,506,506,506,506,506,506,506,506,506,506,506,506,506,506,506,506,506,506,506,504,497,484,445,422,404,388,376,350,342,332,321,309,290,279,267,256,246,225,218,210,204,199,185,178,172,167,162,153,150,146,141,136,120,111,102,95],"timestamp_mouse":[7,26,46,66,86,107,126,147,166,186,206,228,247,266,286,307,327,346,368,387,406,427,446,467,487,506,526,546,567,586,606,626,646,666,686,708,726,746,766,786,807,826,846,867,886,906,927,947,966,987,1008,1028,1046,1067,1086,110