[{"start_time":1552073113932,"click_time":1552073116717,"finger_time":1552073115757,"fix_duration":772.8888630326651,"trial":0,"RT":1825,"MT":960,"sideResp":2,"stimulus":[],"xmouse":[798,798,798,798,798,798,798,798,798,798,798,798,798,798,798,798,798,798,798,798,798,798,798,798,798,798,798,798,798,798,798,798,798,798,798,797,797,797,797,797,797,797,797,797,797,797,797,797,797,797,797,797,797,797,797,797,797,797,797,797,797,797,797,797,797,797,797,797,797,797,797,797,797,797,797,797,797,797,797,797,797,797,797,797,797,797,797,797,797,797,832,837,841,841,841,842,842,842,842,842,842,831,825,818,814,812,819,832,849,867,892,899,900,906,916,942,956,967,975,981,984,988,989,990,992,1004,1012,1020,1026,1030,1037,1048,1050,1050,1050,1050,1051,1058,1074],"ymouse":[560,560,560,560,560,560,560,560,560,560,560,560,560,560,560,560,560,560,560,560,560,560,560,560,560,560,560,560,560,560,560,560,560,556,544,532,532,532,532,532,532,532,532,532,532,532,532,532,532,532,532,532,532,532,532,532,532,532,532,532,532,532,532,532,532,532,532,532,532,532,532,532,532,532,532,532,532,532,532,532,532,532,532,532,532,532,532,532,526,511,409,386,363,344,342,341,341,341,341,340,340,324,317,304,293,270,253,236,225,217,209,205,204,198,192,173,164,155,147,138,132,124,122,120,118,110,105,102,99,98,94,89,87,87,87,87,87,84,76],"timestamp_mouse":[10,51,63,84,103,124,144,164,183,203,224,245,263,284,304,325,345,365,384,403,423,445,463,485,503,523,545,563,583,605,624,645,665,684,703,723,744,764,784,804,823,845,864,883,904,924,945,964,984,1003,1024,1044,1064,1084,1104,1124,1144,1164,1185,1204,1225,1244,1264,1285,1305,1324,1344,1364,1385,1403,1424,1445,1463,1485,1505,1525,1545,1563,1583,1605,1625,1644,1665,1685,1703,1723,1743,1765,1785,1803,1825,1844,1864,1883,1903,1924,1943,1964,1984,2003,2024,2044,2064,2083,2104,2124,2144,2164,2183,2203,2225,2244,2264,2284,2304,2325,2343,2363,2383,2404,2423,2443,2464,2484,2505,2526,2544,2563,2585,2604,2624,2643,2663,2683,2705,2724,2743,2763,2784],"xSR":741.5,"ySR":501.8,"xT1":424.9,"yT1":0,"xT2":1058.1,"yT2":0,"toosoon":0,"cond_shown":"Incongruent","ratio_trial":200,"L_num":7,"L_den":10,"R_num":8,"R_den":16,"correct_side":1,"subjID":"TOMASRAMIREZ10","gender":"0","age":"8","school":"4","test":{"fix_dur":[250,1500],"timestim":1000,"targets_dim":[100,100],"targets_relative_coord":[0.3,0.7],"size_stim":[880,420],"start_dim":[100,100],"size_start":[300,300],"size_fix":60,"samplingrate":20,"img_types":["Congruent","Incongruent"],"ratios":[100,200,300],"rep_conds":19,"nTrials":120,"trials_to_rest":500,"Trials_order":[33,13,52,14,44,59,87,24,9,47,56,101,70,116,105,86,26,10,42,16,18,32,30,31,93,37,89,85,96,17,113,111,51,22,110,77,21,73,103,8,11,5,43,98,78,29,114,84,27,83,62,45,7,80,119,63,95,28,94,75,69,38,53,35,15,46,65,36,92,71,54,57,0,23,68,3,60,25,2,88,50,91,74,61,97,55,4,102,67,108,112,99,1,12,34,39,66,81,79,41,115,104,40,72,58,118,19,109,82,106,20,117,100,49,107,76,90,6,48,64],"cond_shown":["Incongruent","Incongruent","Congruent","Congruent","Congruent","Incongruent","Incongruent","Congruent","Incongruent","Incongruent","Congruent","Incongruent","Congruent","Congruent","Incongruent","Congruent","Congruent","Congruent","Congruent","Congruent","Congruent","Congruent","Congruent","Incongruent","Incongruent","Incongruent","Incongruent","Incongruent","Congruent","Incongruent","Incongruent","Incongruent","Incongruent","Congruent","Congruent","Incongruent","Incongruent","Incongruent","Incongruent","Congruent","Incongruent","Incongruent","Incongruent","Congruent","Congruent","Incongruent","Congruent","Congruent","Incongruent","Incongruent","Congruent","Incongruent","Incongruent","Congruent","Incongruent","Incongruent","Incongruent","Congruent","Congruent","Incongruent","Incongruent","Congruent","Incongruent","Incongruent","Incongruent","Congruent","Incongruent","Congruent","Congruent","Incongruent","Congruent","Incongruent","Congruent","Incongruent","Congruent","Incongruent","Congruent","Incongruent","Congruent","Congruent","Congruent","Incongruent","Congruent","Incongruent","Incongruent","Incongruent","Congruent","Congruent","Incongruent","Congruent","Congruent","Incongruent","Incongruent","Congruent","Congruent","Incongruent","Congruent","Incongruent","Incongruent","Incongruent","Incongruent","Congruent","Congruent","Congruent","Congruent","Congruent","Incongruent","Incongruent","Congruent","Congruent","Congruent","Incongruent","Congruent","Incongruent","Incongruent","Congruent","Congruent","Congruent","Congruent","Congruent"],"ratio_trial":[200,100,300,200,200,300,200,100,200,300,200,300,300,200,200,200,200,300,100,300,100,200,100,100,200,100,300,100,100,300,300,200,200,300,200,300,200,100,100,200,300,300,100,200,100,300,100,100,200,300,200,200,100,200,300,200,300,300,300,200,200,200,300,300,200,300,300,100,200,300,100,200,100,300,200,200,100,100,200,300,200,100,200,100,100,100,300,100,100,100,300,200,100,100,300,200,100,200,100,300,100,200,300,100,300,300,100,100,300,300,200,200,300,100,300,300,100,100,100,300],"left_num":[7,9,20,12,6,13,11,8,3,8,3,8,5,11,14,7,3,1,12,20,9,6,11,1,14,9,8,1,2,8,2,4,11,2,6,13,1,8,6,8,13,13,9,7,9,13,10,7,1,8,8,4,3,4,4,6,1,2,3,6,1,6,3,4,6,8,1,2,11,7,3,1,3,4,1,9,6,9,12,20,3,10,4,9,12,13,4,12,4,15,1,6,9,10,1,9,4,3,6,13,13,3,1,3,3,24,12,12,8,20,6,7,1,10,8,1,6,9,1,18],"right_num":[8,13,14,6,11,12,3,2,11,14,9,14,7,3,12,18,14,19,13,13,8,7,6,8,12,13,9,8,6,14,6,1,3,10,11,12,3,6,3,7,12,12,13,18,8,12,3,9,2,9,2,14,4,3,2,3,2,12,4,3,2,7,4,2,3,10,3,11,3,8,2,3,4,2,21,8,5,13,6,13,11,8,3,14,2,6,13,13,8,13,6,3,6,3,19,8,6,11,3,12,12,11,8,4,4,8,2,9,1,5,3,4,19,8,14,7,15,8,18,9],"left_den":[10,15,25,20,20,26,20,16,4,10,12,10,25,22,30,15,10,3,30,25,15,12,22,2,30,15,10,2,5,10,4,30,20,20,20,26,2,16,12,15,26,26,15,15,15,26,25,14,3,10,15,6,6,8,20,20,2,10,6,20,3,12,6,20,20,15,2,5,22,10,6,2,20,20,2,15,20,15,15,25,10,25,8,15,30,26,20,30,8,25,5,20,18,25,3,15,8,4,12,26,26,10,30,20,6,30,30,24,16,25,15,15,3,25,10,20,12,15,2,20],"right_den":[16,26,28,15,22,15,4,5,20,28,20,28,14,10,18,27,28,30,26,26,16,10,15,20,18,26,18,20,12,28,30,3,4,25,22,15,10,10,5,21,15,15,26,27,16,15,10,15,15,18,6,30,10,10,4,6,10,24,5,6,15,10,20,4,6,12,15,22,10,20,5,10,16,4,30,10,25,26,10,26,22,16,10,28,4,10,26,26,20,26,12,6,10,10,30,10,10,20,5,15,20,22,24,16,5,16,4,15,5,10,15,6,30,16,28,20,25,16,30,15],"correct_side":[1,1,1,1,2,2,2,1,1,1,2,1,2,1,2,2,2,2,2,1,1,2,1,1,2,1,1,1,2,1,1,2,2,2,2,2,1,2,2,1,2,2,1,2,1,2,1,2,1,1,1,1,1,1,2,2,1,2,2,2,1,2,1,2,2,2,1,2,1,1,1,1,2,2,2,2,1,1,1,1,2,2,1,1,2,2,2,2,1,1,2,2,2,1,2,2,2,1,2,2,2,2,2,2,2,1,2,2,1,1,1,2,2,2,1,2,2,1,2,1],"img_shown":["img2/200/Incongruent/L/I_Dist_200_LN_7_LD_10_RN_8_RD_16_0.png","img2/100/Incongruent/L/I_Dist_100_LN_9_LD_15_RN_13_RD_26_0.png","img2/300/Congruent/L/C_Dist_300_LN_20_LD_25_RN_14_RD_28_0.png","img2/200/Congruent/L/C_Dist_200_LN_12_LD_20_RN_6_RD_15_0.png","img2/200/Congruent/R/C_Dist_200_LN_6_LD_20_RN_11_RD_22_1.png","img2/300/Incongruent/R/I_Dist_300_LN_13_LD_26_RN_12_RD_15_1.png","img2/200/Incongruent/R/I_Dist_200_LN_11_LD_20_RN_3_RD_4_1.png","img2/100/Congruent/L/C_Dist_100_LN_8_LD_16_RN_2_RD_5_0.png","img2/200/Incongruent/L/I_Dist_200_LN_3_LD_4_RN_11_RD_20_0.png","img2/300/Incongruent/L/I_Dist_300_LN_8_LD_10_RN_14_RD_28_0.png","img2/200/Congruent/R/C_Dist_200_LN_3_LD_12_RN_9_RD_20_1.png","img2/300/Incongruent/L/I_Dist_300_LN_8_LD_10_RN_14_RD_28_0.png","img2/300/Congruent/R/C_Dist_300_LN_5_LD_25_RN_7_RD_14_1.png","img2/200/Congruent/L/C_Dist_200_LN_11_LD_22_RN_3_RD_10_0.png","img2/200/Incongruent/R/I_Dist_200_LN_14_LD_30_RN_12_RD_18_1.png","img2/200/Congruent/R/C_Dist_200_LN_7_LD_15_RN_18_RD_27_1.png","img2/200/Congruent/R/C_Dist_200_LN_3_LD_10_RN_14_RD_28_1.png","img2/300/Congruent/R/C_Dist_300_LN_1_LD_3_RN_19_RD_30_1.png","img2/100/Congruent/R/C_Dist_100_LN_12_LD_30_RN_13_RD_26_1.png","img2/300/Congruent/L/C_Dist_300_LN_20_LD_25_RN_13_RD_26_0.png","img2/100/Congruent/L/C_Dist_100_LN_9_LD_15_RN_8_RD_16_0.png","img2/200/Congruent/R/C_Dist_200_LN_6_LD_12_RN_7_RD_10_1.png","img2/100/Congruent/L/C_Dist_100_LN_11_LD_22_RN_6_RD_15_0.png","img2/100/Incongruent/L/I_Dist_100_LN_1_LD_2_RN_8_RD_20_0.png","img2/200/Incongruent/R/I_Dist_200_LN_14_LD_30_RN_12_RD_18_1.png","img2/100/Incongruent/L/I_Dist_100_LN_9_LD_15_RN_13_RD_26_0.png","img2/300/Incongruent/L/I_Dist_300_LN_8_LD_10_RN_9_RD_18_0.png","img2/100/Incongruent/L/I_Dist_100_LN_1_LD_2_RN_8_RD_20_0.png","img2/100/Congruent/R/C_Dist_100_LN_2_LD_5_RN_6_RD_12_1.png","img2/300/Incongruent/L/I_Dist_300_LN_8_LD_10_RN_14_RD_28_0.png","img2/300/Incongruent/L/I_Dist_300_LN_2_LD_4_RN_6_RD_30_0.png","img2/200/Incongruent/R/I_Dist_200_LN_4_LD_30_RN_1_RD_3_1.png","img2/200/Incongruent/R/I_Dist_200_LN_11_LD_20_RN_3_RD_4_1.png","img2/300/Congruent/R/C_Dist_300_LN_2_LD_20_RN_10_RD_25_1.png","img2/200/Congruent/R/C_Dist_200_LN_6_LD_20_RN_11_RD_22_1.png","img2/300/Incongruent/R/I_Dist_300_LN_13_LD_26_RN_12_RD_15_1.png","img2/200/Incongruent/L/I_Dist_200_LN_1_LD_2_RN_3_RD_10_0.png","img2/100/Incongruent/R/I_Dist_100_LN_8_LD_16_RN_6_RD_10_1.png","img2/100/Incongruent/R/I_Dist_100_LN_6_LD_12_RN_3_RD_5_1.png","img2/200/Congruent/L/C_Dist_200_LN_8_LD_15_RN_7_RD_21_0.png","img2/300/Incongruent/R/I_Dist_300_LN_13_LD_26_RN_12_RD_15_1.png","img2/300/Incongruent/R/I_Dist_300_LN_13_LD_26_RN_12_RD_15_1.png","img2/100/Incongruent/L/I_Dist_100_LN_9_LD_15_RN_13_RD_26_0.png","img2/200/Congruent/R/C_Dist_200_LN_7_LD_15_RN_18_RD_27_1.png","img2/100/Congruent/L/C_Dist_100_LN_9_LD_15_RN_8_RD_16_0.png","img2/300/Incongruent/R/I_Dist_300_LN_13_LD_26_RN_12_RD_15_1.png","img2/100/Congruent/L/C_Dist_100_LN_10_LD_25_RN_3_RD_10_0.png","img2/100/Congruent/R/C_Dist_100_LN_7_LD_14_RN_9_RD_15_1.png","img2/200/Incongruent/L/I_Dist_200_LN_1_LD_3_RN_2_RD_15_0.png","img2/300/Incongruent/L/I_Dist_300_LN_8_LD_10_RN_9_RD_18_0.png","img2/200/Congruent/L/C_Dist_200_LN_8_LD_15_RN_2_RD_6_0.png","img2/200/Incongruent/L/I_Dist_200_LN_4_LD_6_RN_14_RD_30_0.png","img2/100/Incongruent/L/I_Dist_100_LN_3_LD_6_RN_4_RD_10_0.png","img2/200/Congruent/L/C_Dist_200_LN_4_LD_8_RN_3_RD_10_0.png","img2/300/Incongruent/R/I_Dist_300_LN_4_LD_20_RN_2_RD_4_1.png","img2/200/Incongruent/R/I_Dist_200_LN_6_LD_20_RN_3_RD_6_1.png","img2/300/Incongruent/L/I_Dist_300_LN_1_LD_2_RN_2_RD_10_0.png","img2/300/Congruent/R/C_Dist_300_LN_2_LD_10_RN_12_RD_24_1.png","img2/300/Congruent/R/C_Dist_300_LN_3_LD_6_RN_4_RD_5_1.png","img2/200/Incongruent/R/I_Dist_200_LN_6_LD_20_RN_3_RD_6_1.png","img2/200/Incongruent/L/I_Dist_200_LN_1_LD_3_RN_2_RD_15_0.png","img2/200/Congruent/R/C_Dist_200_LN_6_LD_12_RN_7_RD_10_1.png","img2/300/Incongruent/L/I_Dist_300_LN_3_LD_6_RN_4_RD_20_0.png","img2/300/Incongruent/R/I_Dist_300_LN_4_LD_20_RN_2_RD_4_1.png","img2/200/Incongruent/R/I_Dist_200_LN_6_LD_20_RN_3_RD_6_1.png","img2/300/Congruent/R/C_Dist_300_LN_8_LD_15_RN_10_RD_12_1.png","img2/300/Incongruent/L/I_Dist_300_LN_1_LD_2_RN_3_RD_15_0.png","img2/100/Congruent/R/C_Dist_100_LN_2_LD_5_RN_11_RD_22_1.png","img2/200/Congruent/L/C_Dist_200_LN_11_LD_22_RN_3_RD_10_0.png","img2/300/Incongruent/L/I_Dist_300_LN_7_LD_10_RN_8_RD_20_0.png","img2/100/Congruent/L/C_Dist_100_LN_3_LD_6_RN_2_RD_5_0.png","img2/200/Incongruent/L/I_Dist_200_LN_1_LD_2_RN_3_RD_10_0.png","img2/100/Congruent/R/C_Dist_100_LN_3_LD_20_RN_4_RD_16_1.png","img2/300/Incongruent/R/I_Dist_300_LN_4_LD_20_RN_2_RD_4_1.png","img2/200/Congruent/R/C_Dist_200_LN_1_LD_2_RN_21_RD_30_1.png","img2/200/Incongruent/R/I_Dist_200_LN_9_LD_15_RN_8_RD_10_1.png","img2/100/Congruent/L/C_Dist_100_LN_6_LD_20_RN_5_RD_25_0.png","img2/100/Incongruent/L/I_Dist_100_LN_9_LD_15_RN_13_RD_26_0.png","img2/200/Congruent/L/C_Dist_200_LN_12_LD_15_RN_6_RD_10_0.png","img2/300/Congruent/L/C_Dist_300_LN_20_LD_25_RN_13_RD_26_0.png","img2/200/Congruent/R/C_Dist_200_LN_3_LD_10_RN_11_RD_22_1.png","img2/100/Incongruent/R/I_Dist_100_LN_10_LD_25_RN_8_RD_16_1.png","img2/200/Congruent/L/C_Dist_200_LN_4_LD_8_RN_3_RD_10_0.png","img2/100/Incongruent/L/I_Dist_100_LN_9_LD_15_RN_14_RD_28_0.png","img2/100/Incongruent/R/I_Dist_100_LN_12_LD_30_RN_2_RD_4_1.png","img2/100/Incongruent/R/I_Dist_100_LN_13_LD_26_RN_6_RD_10_1.png","img2/300/Congruent/R/C_Dist_300_LN_4_LD_20_RN_13_RD_26_1.png","img2/100/Congruent/R/C_Dist_100_LN_12_LD_30_RN_13_RD_26_1.png","img2/100/Incongruent/L/I_Dist_100_LN_4_LD_8_RN_8_RD_20_0.png","img2/100/Congruent/L/C_Dist_100_LN_15_LD_25_RN_13_RD_26_0.png","img2/300/Congruent/R/C_Dist_300_LN_1_LD_5_RN_6_RD_12_1.png","img2/200/Incongruent/R/I_Dist_200_LN_6_LD_20_RN_3_RD_6_1.png","img2/100/Incongruent/R/I_Dist_100_LN_9_LD_18_RN_6_RD_10_1.png","img2/100/Congruent/L/C_Dist_100_LN_10_LD_25_RN_3_RD_10_0.png","img2/300/Congruent/R/C_Dist_300_LN_1_LD_3_RN_19_RD_30_1.png","img2/200/Incongruent/R/I_Dist_200_LN_9_LD_15_RN_8_RD_10_1.png","img2/100/Congruent/R/C_Dist_100_LN_4_LD_8_RN_6_RD_10_1.png","img2/200/Incongruent/L/I_Dist_200_LN_3_LD_4_RN_11_RD_20_0.png","img2/100/Incongruent/R/I_Dist_100_LN_6_LD_12_RN_3_RD_5_1.png","img2/300/Incongruent/R/I_Dist_300_LN_13_LD_26_RN_12_RD_15_1.png","img2/100/Incongruent/R/I_Dist_100_LN_13_LD_26_RN_12_RD_20_1.png","img2/200/Congruent/R/C_Dist_200_LN_3_LD_10_RN_11_RD_22_1.png","img2/300/Congruent/R/C_Dist_300_LN_1_LD_30_RN_8_RD_24_1.png","img2/100/Congruent/R/C_Dist_100_LN_3_LD_20_RN_4_RD_16_1.png","img2/300/Congruent/R/C_Dist_300_LN_3_LD_6_RN_4_RD_5_1.png","img2/300/Congruent/L/C_Dist_300_LN_24_LD_30_RN_8_RD_16_0.png","img2/100/Incongruent/R/I_Dist_100_LN_12_LD_30_RN_2_RD_4_1.png","img2/100/Incongruent/R/I_Dist_100_LN_12_LD_24_RN_9_RD_15_1.png","img2/300/Congruent/L/C_Dist_300_LN_8_LD_16_RN_1_RD_5_0.png","img2/300/Congruent/L/C_Dist_300_LN_20_LD_25_RN_5_RD_10_0.png","img2/200/Congruent/L/C_Dist_200_LN_6_LD_15_RN_3_RD_15_0.png","img2/200/Incongruent/R/I_Dist_200_LN_7_LD_15_RN_4_RD_6_1.png","img2/300/Congruent/R/C_Dist_300_LN_1_LD_3_RN_19_RD_30_1.png","img2/100/Incongruent/R/I_Dist_100_LN_10_LD_25_RN_8_RD_16_1.png","img2/300/Incongruent/L/I_Dist_300_LN_8_LD_10_RN_14_RD_28_0.png","img2/300/Congruent/R/C_Dist_300_LN_1_LD_20_RN_7_RD_20_1.png","img2/100/Congruent/R/C_Dist_100_LN_6_LD_12_RN_15_RD_25_1.png","img2/100/Congruent/L/C_Dist_100_LN_9_LD_15_RN_8_RD_16_0.png","img2/100/Congruent/R/C_Dist_100_LN_1_LD_2_RN_18_RD_30_1.png","img2/300/Congruent/L/C_Dist_300_LN_18_LD_20_RN_9_RD_15_0.png"],"dist100_C":[["C_Dist_100_LN_10_LD_25_RN_3_RD_10_0.png","C_Dist_100_LN_11_LD_22_RN_4_RD_10_0.png","C_Dist_100_LN_11_LD_22_RN_6_RD_15_0.png","C_Dist_100_LN_15_LD_25_RN_13_RD_26_0.png","C_Dist_100_LN_3_LD_6_RN_2_RD_5_0.png","C_Dist_100_LN_6_LD_20_RN_5_RD_25_0.png","C_Dist_100_LN_8_LD_16_RN_2_RD_5_0.png","C_Dist_100_LN_9_LD_15_RN_8_RD_16_0.png"],["C_Dist_100_LN_1_LD_2_RN_18_RD_30_1.png","C_Dist_100_LN_1_LD_2_RN_3_RD_5_1.png","C_Dist_100_LN_12_LD_30_RN_13_RD_26_1.png","C_Dist_100_LN_2_LD_5_RN_11_RD_22_1.png","C_Dist_100_LN_2_LD_5_RN_6_RD_12_1.png","C_Dist_100_LN_3_LD_20_RN_4_RD_16_1.png","C_Dist_100_LN_4_LD_10_RN_15_RD_30_1.png","C_Dist_100_LN_4_LD_8_RN_6_RD_10_1.png","C_Dist_100_LN_6_LD_12_RN_15_RD_25_1.png","C_Dist_100_LN_7_LD_14_RN_15_RD_25_1.png","C_Dist_100_LN_7_LD_14_RN_9_RD_15_1.png"]],"dist100_I":[["I_Dist_100_LN_1_LD_2_RN_8_RD_20_0.png","I_Dist_100_LN_2_LD_4_RN_6_RD_15_0.png","I_Dist_100_LN_2_LD_4_RN_8_RD_20_0.png","I_Dist_100_LN_3_LD_5_RN_11_RD_22_0.png","I_Dist_100_LN_3_LD_5_RN_8_RD_16_0.png","I_Dist_100_LN_3_LD_6_RN_4_RD_10_0.png","I_Dist_100_LN_3_LD_9_RN_7_RD_30_0.png","I_Dist_100_LN_4_LD_8_RN_8_RD_20_0.png","I_Dist_100_LN_6_LD_10_RN_11_RD_22_0.png","I_Dist_100_LN_6_LD_10_RN_13_RD_26_0.png","I_Dist_100_LN_6_LD_10_RN_7_RD_14_0.png","I_Dist_100_LN_9_LD_10_RN_20_RD_25_0.png","I_Dist_100_LN_9_LD_15_RN_13_RD_26_0.png","I_Dist_100_LN_9_LD_15_RN_14_RD_28_0.png"],["I_Dist_100_LN_10_LD_25_RN_8_RD_16_1.png","I_Dist_100_LN_10_LD_25_RN_9_RD_18_1.png","I_Dist_100_LN_11_LD_22_RN_9_RD_15_1.png","I_Dist_100_LN_12_LD_24_RN_9_RD_15_1.png","I_Dist_100_LN_12_LD_30_RN_2_RD_4_1.png","I_Dist_100_LN_13_LD_26_RN_12_RD_20_1.png","I_Dist_100_LN_13_LD_26_RN_6_RD_10_1.png","I_Dist_100_LN_17_LD_30_RN_10_RD_15_1.png","I_Dist_100_LN_6_LD_12_RN_3_RD_5_1.png","I_Dist_100_LN_8_LD_16_RN_6_RD_10_1.png","I_Dist_100_LN_8_LD_20_RN_1_RD_2_1.png","I_Dist_100_LN_9_LD_18_RN_6_RD_10_1.png"]],"dist100_S":[["E_Dist_100_LN_2_LD_12_RN_2_RD_30_0.png","E_Dist_100_LN_6_LD_10_RN_6_RD_12_0.png"],["E_Dist_100_LN_6_LD_12_RN_6_RD_10_1.png"]],"dist200_C":[["C_Dist_200_LN_11_LD_22_RN_3_RD_10_0.png","C_Dist_200_LN_12_LD_15_RN_6_RD_10_0.png","C_Dist_200_LN_12_LD_20_RN_6_RD_15_0.png","C_Dist_200_LN_14_LD_28_RN_6_RD_20_0.png","C_Dist_200_LN_15_LD_25_RN_4_RD_10_0.png","C_Dist_200_LN_16_LD_20_RN_12_RD_20_0.png","C_Dist_200_LN_16_LD_30_RN_9_RD_27_0.png","C_Dist_200_LN_20_LD_25_RN_9_RD_15_0.png","C_Dist_200_LN_21_LD_30_RN_2_RD_4_0.png","C_Dist_200_LN_4_LD_10_RN_3_RD_15_0.png","C_Dist_200_LN_4_LD_8_RN_3_RD_10_0.png","C_Dist_200_LN_6_LD_15_RN_3_RD_15_0.png","C_Dist_200_LN_7_LD_21_RN_2_RD_15_0.png","C_Dist_200_LN_8_LD_15_RN_2_RD_6_0.png","C_Dist_200_LN_8_LD_15_RN_3_RD_9_0.png","C_Dist_200_LN_8_LD_15_RN_7_RD_21_0.png","C_Dist_200_LN_9_LD_20_RN_4_RD_16_0.png"],["C_Dist_200_LN_1_LD_2_RN_21_RD_30_1.png","C_Dist_200_LN_13_LD_26_RN_14_RD_20_1.png","C_Dist_200_LN_3_LD_10_RN_11_RD_22_1.png","C_Dist_200_LN_3_LD_10_RN_14_RD_28_1.png","C_Dist_200_LN_3_LD_10_RN_7_RD_14_1.png","C_Dist_200_LN_3_LD_12_RN_9_RD_20_1.png","C_Dist_200_LN_3_LD_6_RN_14_RD_20_1.png","C_Dist_200_LN_5_LD_10_RN_14_RD_20_1.png","C_Dist_200_LN_6_LD_12_RN_7_RD_10_1.png","C_Dist_200_LN_6_LD_20_RN_11_RD_22_1.png","C_Dist_200_LN_7_LD_15_RN_18_RD_27_1.png","C_Dist_200_LN_9_LD_30_RN_13_RD_26_1.png"]],"dist200_I":[["I_Dist_200_LN_1_LD_2_RN_3_RD_10_0.png","I_Dist_200_LN_1_LD_3_RN_2_RD_15_0.png","I_Dist_200_LN_3_LD_4_RN_11_RD_20_0.png","I_Dist_200_LN_4_LD_5_RN_6_RD_10_0.png","I_Dist_200_LN_4_LD_6_RN_14_RD_30_0.png","I_Dist_200_LN_7_LD_10_RN_12_RD_24_0.png","I_Dist_200_LN_7_LD_10_RN_14_RD_28_0.png","I_Dist_200_LN_7_LD_10_RN_8_RD_16_0.png"],["I_Dist_200_LN_11_LD_20_RN_3_RD_4_1.png","I_Dist_200_LN_14_LD_30_RN_12_RD_18_1.png","I_Dist_200_LN_14_LD_30_RN_6_RD_9_1.png","I_Dist_200_LN_3_LD_10_RN_1_RD_2_1.png","I_Dist_200_LN_4_LD_30_RN_1_RD_3_1.png","I_Dist_200_LN_6_LD_20_RN_3_RD_6_1.png","I_Dist_200_LN_7_LD_15_RN_4_RD_6_1.png","I_Dist_200_LN_7_LD_15_RN_6_RD_9_1.png","I_Dist_200_LN_9_LD_15_RN_8_RD_10_1.png"]],"dist200_S":[["E_Dist_200_LN_3_LD_6_RN_3_RD_10_0.png"],["E_Dist_200_LN_3_LD_10_RN_3_RD_6_1.png"]],"dist300_C":[["C_Dist_300_LN_11_LD_22_RN_1_RD_5_0.png","C_Dist_300_LN_11_LD_22_RN_2_RD_10_0.png","C_Dist_300_LN_11_LD_22_RN_4_RD_20_0.png","C_Dist_300_LN_12_LD_24_RN_2_RD_10_0.png","C_Dist_300_LN_18_LD_20_RN_9_RD_15_0.png","C_Dist_300_LN_20_LD_25_RN_13_RD_26_0.png","C_Dist_300_LN_20_LD_25_RN_14_RD_28_0.png","C_Dist_300_LN_20_LD_25_RN_5_RD_10_0.png","C_Dist_300_LN_20_LD_25_RN_8_RD_16_0.png","C_Dist_300_LN_20_LD_25_RN_9_RD_18_0.png","C_Dist_300_LN_24_LD_30_RN_2_RD_4_0.png","C_Dist_300_LN_24_LD_30_RN_8_RD_16_0.png","C_Dist_300_LN_3_LD_6_RN_2_RD_10_0.png","C_Dist_300_LN_4_LD_10_RN_1_RD_10_0.png","C_Dist_300_LN_4_LD_5_RN_2_RD_4_0.png","C_Dist_300_LN_8_LD_16_RN_1_RD_5_0.png","C_Dist_300_LN_9_LD_10_RN_3_RD_5_0.png"],["C_Dist_300_LN_1_LD_20_RN_7_RD_20_1.png","C_Dist_300_LN_1_LD_3_RN_19_RD_30_1.png","C_Dist_300_LN_1_LD_30_RN_8_RD_24_1.png","C_Dist_300_LN_1_LD_5_RN_11_RD_22_1.png","C_Dist_300_LN_1_LD_5_RN_3_RD_6_1.png","C_Dist_300_LN_1_LD_5_RN_6_RD_12_1.png","C_Dist_300_LN_2_LD_10_RN_12_RD_24_1.png","C_Dist_300_LN_2_LD_20_RN_10_RD_25_1.png","C_Dist_300_LN_3_LD_12_RN_11_RD_20_1.png","C_Dist_300_LN_3_LD_6_RN_4_RD_5_1.png","C_Dist_300_LN_4_LD_20_RN_13_RD_26_1.png","C_Dist_300_LN_5_LD_25_RN_6_RD_12_1.png","C_Dist_300_LN_5_LD_25_RN_7_RD_14_1.png","C_Dist_300_LN_7_LD_14_RN_20_RD_25_1.png","C_Dist_300_LN_8_LD_15_RN_10_RD_12_1.png"]],"dist300_I":[["I_Dist_300_LN_1_LD_2_RN_2_RD_10_0.png","I_Dist_300_LN_1_LD_2_RN_3_RD_15_0.png","I_Dist_300_LN_2_LD_4_RN_6_RD_30_0.png","I_Dist_300_LN_3_LD_6_RN_4_RD_20_0.png","I_Dist_300_LN_4_LD_5_RN_6_RD_12_0.png","I_Dist_300_LN_4_LD_5_RN_8_RD_16_0.png","I_Dist_300_LN_7_LD_10_RN_8_RD_20_0.png","I_Dist_300_LN_8_LD_10_RN_14_RD_28_0.png","I_Dist_300_LN_8_LD_10_RN_9_RD_18_0.png"],["I_Dist_300_LN_13_LD_26_RN_12_RD_15_1.png","I_Dist_300_LN_4_LD_20_RN_2_RD_4_1.png"]],"dist300_S":[["E_Dist_300_LN_9_LD_12_RN_9_RD_20_0.png"],["E_Dist_300_LN_18_LD_30_RN_18_RD_20_1.png","E_Dist_300_LN_3_LD_10_RN_3_RD_5_1.png","E_Dist_300_LN_9_LD_20_RN_9_RD_12_1.png"]],"dist500_C":[["C_Dist_500_LN_10_LD_13_RN_7_RD_26_0.png","C_Dist_500_LN_10_LD_15_RN_4_RD_24_0.png","C_Dist_500_LN_12_LD_16_RN_3_RD_12_0.png","C_Dist_500_LN_12_LD_18_RN_4_RD_24_0.png","C_Dist_500_LN_15_LD_18_RN_5_RD_15_0.png","C_Dist_500_LN_15_LD_20_RN_1_RD_4_0.png","C_Dist_500_LN_18_LD_27_RN_1_RD_6_0.png","C_Dist_500_LN_20_LD_24_RN_1_RD_3_0.png","C_Dist_500_LN_20_LD_24_RN_3_RD_9_0.png","C_Dist_500_LN_20_LD_24_RN_7_RD_21_0.png","C_Dist_500_LN_20_LD_28_RN_3_RD_14_0.png","C_Dist_500_LN_21_LD_28_RN_6_RD_24_0.png","C_Dist_500_LN_22_LD_28_RN_2_RD_7_0.png","C_Dist_500_LN_25_LD_30_RN_9_RD_27_0.png","C_Dist_500_LN_4_LD_6_RN_1_RD_6_0.png","C_Dist_500_LN_5_LD_6_RN_2_RD_6_0.png","C_Dist_500_LN_6_LD_9_RN_1_RD_6_0.png","C_Dist_500_LN_7_LD_10_RN_1_RD_5_0.png","C_Dist_500_LN_8_LD_12_RN_1_RD_6_0.png","C_Dist_500_LN_8_LD_12_RN_4_RD_24_0.png"],["C_Dist_500_LN_1_LD_4_RN_12_RD_16_1.png","C_Dist_500_LN_1_LD_4_RN_9_RD_12_1.png","C_Dist_500_LN_1_LD_9_RN_11_RD_18_1.png","C_Dist_500_LN_10_LD_24_RN_22_RD_24_1.png","C_Dist_500_LN_2_LD_12_RN_10_RD_15_1.png","C_Dist_500_LN_2_LD_12_RN_12_RD_18_1.png","C_Dist_500_LN_2_LD_12_RN_4_RD_6_1.png","C_Dist_500_LN_2_LD_24_RN_7_RD_12_1.png","C_Dist_500_LN_2_LD_5_RN_18_RD_20_1.png","C_Dist_500_LN_2_LD_5_RN_9_RD_10_1.png","C_Dist_500_LN_2_LD_8_RN_12_RD_16_1.png","C_Dist_500_LN_2_LD_8_RN_21_RD_28_1.png","C_Dist_500_LN_3_LD_10_RN_4_RD_5_1.png","C_Dist_500_LN_3_LD_12_RN_15_RD_20_1.png","C_Dist_500_LN_3_LD_30_RN_6_RD_10_1.png","C_Dist_500_LN_3_LD_8_RN_14_RD_16_1.png","C_Dist_500_LN_4_LD_16_RN_15_RD_20_1.png","C_Dist_500_LN_4_LD_24_RN_12_RD_18_1.png","C_Dist_500_LN_5_LD_14_RN_6_RD_7_1.png","C_Dist_500_LN_7_LD_21_RN_20_RD_24_1.png","C_Dist_500_LN_7_LD_28_RN_12_RD_16_1.png","C_Dist_500_LN_7_LD_28_RN_9_RD_12_1.png","C_Dist_500_LN_9_LD_27_RN_20_RD_24_1.png"]],"dist500_I":[["I_Dist_500_LN_2_LD_3_RN_4_RD_24_0.png","I_Dist_500_LN_5_LD_6_RN_6_RD_18_0.png","I_Dist_500_LN_7_LD_8_RN_9_RD_24_0.png"],["I_Dist_500_LN_7_LD_21_RN_5_RD_6_1.png"]],"dist500_S":[["E_Dist_500_LN_6_LD_8_RN_6_RD_24_0.png"],["E_Dist_500_LN_2_LD_12_RN_2_RD_3_1.png","E_Dist_500_LN_6_LD_24_RN_6_RD_8_1.png"]]}},{"start_time":1552073120554,"click_time":1552073122577,"finger_time":1552073121837,"fix_duration":817.8992792752167,"trial":1,"RT":1283,"MT":740,"sideResp":1,"stimulus":[],"xmouse":[800,800,800,800,800,800,800,800,800,800,800,800,800,800,800,800,800,800,800,800,800,800,800,800,800,800,800,800,800,800,800,800,800,800,800,800,800,800,800,800,800,800,800,800,800,800,800,800,800,800,800,800,800,800,800,800,800,800,800,800,800,794,782,770,761,754,741,734,723,713,699,670,668,668,668,668,668,668,668,668,668,668,668,664,648,616,563,563,563,563,563,563,563,563,563,563,563,563,563,563,563,428],"ymouse":[510,510,510,510,510,510,510,510,510,510,510,510,510,510,510,510,510,510,510,510,510,510,510,510,510,510,510,510,510,510,510,510,510,510,510,510,510,510,510,510,510,510,510,510,510,510,510,510,510,510,510,510,510,510,510,510,510,510,510,510,510,502,489,477,466,457,438,425,408,390,374,355,354,354,354,354,354,354,354,354,354,354,351,323,251,145,11,11,11,11,11,11,11,11,11,11,11,11,11,11,11,8],"timestamp_mouse":[10,22,41,62,81,103,122,141,162,182,203,223,242,261,281,303,322,342,362,383,401,421,443,463,483,502,521,542,561,582,603,623,643,661,683,702,721,743,763,781,802,822,843,861,883,903,923,942,961,981,1003,1023,1042,1063,1082,1101,1122,1143,1161,1181,1203,1221,1241,1262,1283,1302,1323,1341,1361,1383,1402,1422,1442,1461,1482,1501,1522,1541,1561,1581,1602,1622,1642,1661,1681,1702,1722,1742,1761,1782,1801,1822,1841,1863,1882,1902,1922,1942,1962,1982,2001,2023],"xSR":741.5,"ySR":469.95,"xT1":424.9,"yT1":0,"xT2":1058.1,"yT2":0,"toosoon":0,"cond_shown":"Incongruent","ratio_trial":100,"L_num":9,"L_den":15,"R_num":13,"R_den":26,"correct_side":1,"subjID":"TOMASRAMIREZ10","gender":"0","school":"4","age":"8"},{"start_time":1552073125272,"click_time":1552073127217,"finger_time":1552073126316,"fix_duration":613.9323194917645,"trial":2,"RT":1044,"MT":901,"sideResp":1,"stimulus":[],"xmouse":[752,752,752,752,752,752,752,752,752,752,752,752,752,752,752,752,752,752,752,752,752,752,752,752,752,752,752,752,752,752,752,752,752,752,752,752,752,752,752,752,752,752,752,752,752,752,752,752,752,752,752,757,765,767,753,654,601,573,564,564,562,562,562,562,562,562,562,562,561,558,555,547,542,540,539,539,539,539,539,539,539,539,539,536,535,535,531,529,527,527,527,527,527,527,527,527,526,522],"ymouse":[516,516,516,516,516,516,516,516,516,516,516,516,516,516,516,516,516,516,516,516,516,516,516,516,516,516,516,516,516,516,516,516,516,516,516,516,516,516,516,516,516,516,516,516,516,516,516,516,516,515,513,494,433,368,286,139,98,80,73,70,64,50,49,44,43,42,42,42,42,41,41,41,41,41,41,41,41,41,41,41,41,41,41,41,41,41,41,41,41,41,41,41,41,41,41,41,41,41],"timestamp_mouse":[13,27,45,64,84,103,125,144,165,183,203,225,244,265,284,304,323,343,365,383,404,424,444,464,484,505,523,543,564,584,605,624,643,663,684,705,724,744,764,785,805,825,844,864,883,905,923,943,965,983,1003,1023,1044,1064,1084,1106,1124,1144,1163,1183,1203,1224,1244,1264,1284,1304,1323,1343,1365,1384,1403,1423,1444,1463,1483,1504,1523,1545,1565,1585,1604,1623,1644,1664,1683,1704,1723,1744,1764,1783,1805,1824,1844,1865,1883,1904,1923,1944],"xSR":741.5,"ySR":469.95,"xT1":424.9,"yT1":0,"xT2":1058.1,"yT2":0,"toosoon":0,"cond_shown":"Congruent","ratio_trial":300,"L_num":20,"L_den":25,"R_num":14,"R_den":28,"correct_side":1,"subjID":"TOMASRAMIREZ10","gender":"0","school":"4","age":"8"},{"start_time":1552073129294,"click_time":1552073130477,"finger_time":1552073130096,"fix_duration":376.36893481121047,"trial":3,"RT":802,"MT":381,"sideResp":1,"stimulus":[],"xmouse":[786,786,786,786,786,786,786,786,786,786,786,786,786,786,786,786,786,786,786,786,786,786,786,786,786,786,786,786,786,786,786,786,786,786,786,786,786,786,780,777,762,760,754,745,732,702,687,679,674,672,671,671,671,671,669,651,630,605,574,515],"ymouse":[526,526,526,526,526,526,526,526,526,526,526,526,526,526,526,526,526,526,526,526,526,526,526,526,526,526,526,526,526,526,526,526,526,526,526,526,526,526,513,503,419,386,342,302,272,220,204,196,193,190,190,190,190,190,189,170,156,138,119,84],"timestamp_mouse":[9,22,42,66,81,101,121,141,161,182,201,223,241,262,283,303,322,341,362,381,401,421,442,462,483,501,523,542,561,583,601,622,641,663,681,701,723,742,762,782,802,822,842,862,882,902,921,942,962,983,1002,1022,1042,1061,1081,1102,1121,1142,1163,1182],"xSR":741.5,"ySR":469.95,"xT1":424.9,"yT1":0,"xT2":1058.1,"yT2":0,"toosoon":0,"cond_shown":"Congruent","ratio_trial":200,"L_num":12,"L_den":20,"R_num":6,"R_den":15,"correct_side":1,"subjID":"TOMASRAMIREZ10","gender":"0","school":"4","age":"8"},{"start_time":1552073133312,"click_time":1552073135116,"finger_time":1552073134716,"fix_duration":992.2593545472747,"trial":4,"RT":1404,"MT":400,"sideResp":1,"stimulus":[],"xmouse":[782,782,782,782,782,782,782,782,782,782,782,782,782,782,782,782,782,782,782,782,782,782,782,782,782,782,782,782,782,782,782,782,782,782,782,782,782,782,782,782,782,782,782,782,782,782,782,782,782,782,782,782,782,782,782,782,782,782,782,782,782,782,782,782,782,782,782,782,780,777,759,737,707,669,591,571,571,571,571,571,571,571,571,571,571,571,571,571,571,571,484],"ymouse":[508,508,508,508,508,508,508,508,508,508,508,508,508,508,508,508,508,508,508,508,508,508,508,508,508,508,508,508,508,508,508,508,508,508,508,508,508,508,508,508,508,508,508,508,508,508,508,508,508,508,508,508,508,508,508,508,508,508,508,508,508,508,508,508,508,508,508,508,507,492,441,392,327,255,110,34,34,34,34,34,34,34,34,34,34,34,34,34,34,34,41],"timestamp_mouse":[10,24,43,65,83,103,123,145,164,183,204,224,243,263,283,303,324,344,364,384,405,423,444,465,483,503,523,543,563,583,603,625,643,663,684,704,725,744,764,785,803,825,844,864,885,904,923,945,963,985,1004,1025,1043,1064,1083,1104,1125,1143,1164,1184,1205,1223,1244,1265,1283,1303,1324,1345,1364,1383,1404,1423,1445,1465,1485,1504,1523,1544,1563,1583,1603,1623,1643,1664,1683,1703,1724,1743,1764,1783,1803],"xSR":741.5,"ySR":469.95,"xT1":424.9,"yT1":0,"xT2":1058.1,"yT2":0,"toosoon":0,"cond_shown":"Congruent","ratio_trial":200,"L_num":6,"L_den":20,"R_num":11,"R_den":22,"correct_side":2,"subjID":"TOMASRAMIREZ10","gender":"0","school":"4","age":"8"},{"start_time":1552073138080,"click_time":1552073139257,"finger_time":1552073138816,"fix_duration":1443.4252599493173,"trial":5,"RT":736,"MT":441,"sideResp":2,"stimulus":[],"xmouse":[810,810,810,810,810,810,810,810,810,810,810,810,810,810,810,810,810,810,810,810,810,810,810,810,810,810,810,810,810,810,810,810,810,810,817,824,870,892,916,938,962,1017,1037,1054,1066,1073,1082,1085,1086,1086,1086,1086,1086,1086,1087,1089,1093,1094,1094],"ymouse":[525,525,525,525,525,525,525,525,525,525,525,525,525,525,525,525,525,525,525,525,525,525,525,525,525,525,525,525,525,525,525,525,525,525,521,519,500,491,481,470,456,424,409,396,383,369,329,314,308,302,301,291,282,268,248,221,185,114,90],"timestamp_mouse":[16,38,55,75,95,115,135,156,177,195,216,235,256,275,297,315,335,356,375,397,417,436,456,475,496,517,536,557,576,596,615,635,655,677,697,716,736,755,775,796,817,836,855,876,895,915,936,956,977,995,1015,1035,1055,1077,1096,1115,1136,1157,1177],"xSR":741.5,"ySR":469.95,"xT1":424.9,"yT1":0,"xT2":1058.1,"yT2":0,"toosoon":0,"cond_shown":"Incongruent","ratio_trial":300,"L_num":13,"L_den":26,"R_num":12,"R_den":15,"correct_side":2,"subjID":"TOMASRAMIREZ10","gender":"0","school":"4","age":"8"},{"start_time":1552073141045,"click_time":1552073142256,"finger_time":1552073141797,"fix_duration":626.1989254546972,"trial":6,"RT":752,"MT":459,"sideResp":2,"stimulus":[],"xmouse":[770,770,770,770,770,770,770,770,770,770,770,770,770,770,770,770,770,770,770,770,770,770,770,770,770,770,770,770,770,770,770,770,770,770,770,781,806,843,891,999,1043,1074,1089,1095,1102,1112,1118,1147,1179,1186,1186,1186,1186,1186,1186,1186,1186,1177,1148,1128,1110],"ymouse":[498,498,498,498,498,498,498,498,498,498,498,498,498,498,498,498,498,498,498,498,498,498,498,498,498,498,498,498,498,498,498,498,498,498,498,497,488,475,456,409,387,369,356,345,320,291,277,218,158,146,146,146,146,146,146,145,143,140,123,111,98],"timestamp_mouse":[13,39,50,71,91,110,130,152,171,191,210,230,251,271,291,311,331,352,370,390,412,432,451,471,490,510,531,551,571,590,610,631,652,671,690,711,732,752,770,792,810,830,850,871,890,910,930,950,972,990,1010,1030,1051,1071,1092,1110,1130,1151,1172,1190,1211],"xSR":741.5,"ySR":469.95,"xT1":424.9,"yT1":0,"xT2":1058.1,"yT2":0,"toosoon":0,"cond_shown":"Incongruent","ratio_trial":200,"L_num":11,"L_den":20,"R_num":3,"R_den":4,"correct_side":2,"subjID":"TOMASRAMIREZ10","gender":"0","school":"4","age":"8"},{"start_time":1552073144551,"click_time":1552073145857,"finger_time":1552073145435,"fix_duration":1133.7331593830984,"trial":7,"RT":884,"MT":422,"sideResp":1,"stimulus":[],"xmouse":[776,776,776,776,776,776,776,776,776,776,776,776,776,776,776,776,776,776,776,776,776,776,776,776,776,776,776,776,776,776,776,776,776,776,776,776,776,776,776,776,776,776,775,774,769,761,740,714,675,675,675,675,675,675,675,675,675,675,675,675,675,675,675,675,675,502],"ymouse":[504,504,504,506,506,506,506,506,506,506,506,506,506,506,506,506,506,506,506,506,506,506,506,506,506,506,506,506,506,506,506,506,506,506,506,506,506,506,506,506,506,502,495,487,466,419,294,134,10,10,10,10,10,10,10,10,10,10,10,10,10,10,10,10,10,5],"timestamp_mouse":[4,39,46,65,85,104,125,145,165,184,204,225,244,265,286,306,324,344,364,385,405,425,446,465,484,504,526,546,565,585,605,626,644,665,684,706,725,745,765,785,806,825,844,864,884,904,926,946,966,986,1006,1026,1045,1065,1084,1105,1124,1145,1166,1185,1204,1224,1244,1265,1284,1306],"xSR":741.5,"ySR":469.95,"xT1":424.9,"yT1":0,"xT2":1058.1,"yT2":0,"toosoon":0,"cond_shown":"Congruent","ratio_trial":100,"L_num":8,"L_den":16,"R_num":2,"R_den":5,"correct_side":1,"subjID":"TOMASRAMIREZ10","gender":"0","school":"4","age":"8"},{"start_time":1552073148653,"click_time":1552073149856,"finger_time":1552073149436,"fix_duration":1273.3895389444692,"trial":8,"RT":783,"MT":420,"sideResp":2,"stimulus":[],"xmouse":[775,775,775,775,775,775,775,775,775,775,775,775,775,775,775,775,775,775,775,775,775,775,775,775,775,775,775,775,775,775,775,775,775,775,775,775,775,784,793,844,884,936,976,1017,1029,1041,1045,1048,1049,1057,1061,1063,1067,1073,1076,1079,1081,1083,1092,1113,1123],"ymouse":[511,511,511,511,511,511,511,511,511,511,511,511,511,511,511,511,511,511,511,511,511,511,511,511,511,511,511,511,511,511,511,511,511,511,511,511,511,504,497,439,398,338,304,272,263,253,246,242,236,219,209,206,200,191,189,179,174,166,148,102,80],"timestamp_mouse":[9,23,43,63,83,103,123,144,164,183,203,223,243,262,283,304,323,342,362,383,404,422,443,462,483,504,524,543,563,583,603,624,644,663,683,703,723,742,762,783,803,823,842,862,882,903,923,942,963,983,1003,1023,1042,1062,1082,1102,1123,1143,1164,1183,1202],"xSR":741.5,"ySR":469.95,"xT1":424.9,"yT1":0,"xT2":1058.1,"yT2":0,"toosoon":0,"cond_shown":"Incongruent","ratio_trial":200,"L_num":3,"L_den":4,"R_num":11,"R_den":20,"correct_side":1,"subjID":"TOMASRAMIREZ10","gender":"0","school":"4","age":"8"},{"start_time":1552073152396,"click_time":1552073153756,"finger_time":1552073153318,"fix_duration":1099.058325217341,"trial":9,"RT":922,"MT":438,"sideResp":1,"stimulus":[],"xmouse":[761,761,761,761,761,761,761,761,761,761,761,761,761,761,761,761,761,761,761,761,761,761,761,761,761,761,761,761,761,761,761,761,762,763,763,763,763,764,764,764,764,764,764,765,765,765,765,762,735,717,694,669,649,626,625,625,625,625,625,625,624,623,621,615,605,593,574,551,509],"ymouse":[496,496,496,496,496,496,496,496,496,496,496,496,496,496,497,497,498,498,498,498,498,498,498,498,498,498,498,498,498,498,498,498,498,497,497,495,495,494,493,493,493,492,492,488,484,477,462,441,384,352,315,270,221,125,70,48,35,29,26,26,26,25,25,24,24,24,27,33,47],"timestamp_mouse":[12,20,40,60,80,100,121,140,161,180,201,221,240,262,280,301,321,340,361,382,402,421,440,461,482,501,521,541,561,580,600,620,640,661,680,701,720,741,760,780,801,822,841,861,880,900,922,942,960,981,1000,1021,1041,1060,1080,1101,1120,1141,1160,1181,1202,1222,1241,1260,1280,1301,1322,1342,1360],"xSR":741.5,"ySR":469.95,"xT1":424.9,"yT1":0,"xT2":1058.1,"yT2":0,"toosoon":0,"cond_shown":"Incongruent","ratio_trial":300,"L_num":8,"L_den":10,"R_num":14,"R_den":28,"correct_side":1,"subjID":"TOMASRAMIREZ10","gender":"0","school":"4","age":"8"},{"start_time":1552073155794,"click_time":1552073157337,"finger_time":1552073156856,"fix_duration":754.9711853007518,"trial":10,"RT":1062,"MT":481,"sideResp":2,"stimulus":[],"xmouse":[798,798,798,798,798,798,798,798,798,798,798,798,798,798,798,798,798,798,798,798,798,798,798,798,798,798,798,798,798,798,798,798,798,798,798,798,798,798,798,798,798,798,798,798,798,798,798,798,798,798,798,798,808,832,971,1058,1132,1173,1204,1210,1215,1220,1226,1232,1232,1232,1232,1232,1232,1232,1232,1232,1232,1232,1195,1180,1164,1152],"ymouse":[533,533,533,533,533,533,533,533,533,533,533,533,533,533,533,533,533,533,533,533,533,533,533,533,533,533,533,533,533,533,533,533,532,525,521,520,520,520,520,520,520,520,520,520,520,520,520,520,520,520,520,519,501,463,326,247,173,129,80,65,52,40,28,4,4,4,4,4,4,4,4,4,4,4,6,18,27,35],"timestamp_mouse":[12,24,43,62,82,102,122,142,162,183,203,223,242,262,282,302,322,344,363,382,402,422,443,462,483,502,524,543,562,583,604,622,643,662,683,703,722,742,763,783,802,823,842,862,882,902,923,942,962,982,1002,1023,1042,1062,1083,1103,1123,1144,1163,1182,1202,1223,1243,1263,1282,1302,1322,1342,1363,1383,1403,1422,1443,1463,1483,1504,1523,1543],"xSR":741.5,"ySR":469.95,"xT1":424.9,"yT1":0,"xT2":1058.1,"yT2":0,"toosoon":0,"cond_shown":"Congruent","ratio_trial":200,"L_num":3,"L_den":12,"R_num":9,"R_den":20,"correct_side":2,"subjID":"TOMASRAMIREZ10","gender":"0","school":"4","age":"8"},{"start_time":1552073161868,"click_time":1552073163237,"finger_time":1552073162776,"fix_duration":1329.7723715737875,"trial":11,"RT":908,"MT":461,"sideResp":1,"stimulus":[],"xmouse":[795,795,795,795,795,795,795,795,795,795,795,795,795,795,795,795,795,795,795,795,795,795,795,795,795,795,795,795,795,795,795,795,795,795,795,795,795,795,795,795,795,795,795,794,790,757,733,716,702,692,687,686,685,682,679,666,657,647,640,633,623,618,610,599,586,544,528,517,508],"ymouse":[501,501,501,501,501,501,501,501,501,501,501,501,501,501,501,501,501,501,501,501,501,501,501,501,501,501,501,501,501,501,501,501,501,501,501,501,501,501,501,501,501,501,501,501,494,459,440,429,420,415,411,405,394,381,366,303,274,255,243,232,217,210,199,185,167,122,109,100,94],"timestamp_mouse":[14,39,48,68,89,110,129,148,168,188,209,228,248,268,290,310,329,349,370,388,410,429,449,468,488,508,528,549,569,589,610,628,648,669,688,709,730,749,769,789,808,828,849,868,888,908,930,948,968,989,1009,1028,1048,1070,1089,1109,1129,1149,1168,1189,1208,1229,1248,1268,1289,1308,1330,1348,1369],"xSR":741.5,"ySR":469.95,"xT1":424.9,"yT1":0,"xT2":1058.1,"yT2":0,"toosoon":0,"cond_shown":"Incongruent","ratio_trial":300,"L_num":8,"L_den":10,"R_num":14,"R_den":28,"correct_side":1,"subjID":"TOMASRAMIREZ10","gender":"0","school":"4","age":"8"},{"start_time":1552073166050,"click_time":1552073167796,"finger_time":1552073167177,"fix_duration":250,"trial":12,"RT":1127,"MT":619,"sideResp":2,"stimulus":[],"xmouse":[768,768,768,768,768,768,768,768,768,768,768,768,768,768,768,768,768,768,768,768,768,768,768,768,768,768,768,768,768,768,768,768,768,768,768,768,768,768,768,768,768,768,768,768,768,768,768,768,768,768,768,768,768,768,770,786,867,924,981,1007,1019,1021,1021,1021,1021,1021,1008,999,989,984,984,986,989,994,1003,1006,1010,1011,1013,1013,1013,1013,1013,1015,1021,1036,1054,1059],"ymouse":[500,500,500,500,500,500,500,500,500,500,500,500,500,500,500,500,500,500,500,500,500,500,500,500,500,500,500,500,500,500,500,500,500,500,500,500,500,500,500,500,500,500,500,500,500,500,500,500,500,500,500,500,500,500,500,498,476,459,443,436,430,428,423,414,401,378,327,275,220,179,146,116,107,98,85,83,73,71,70,70,70,70,69,68,68,66,60,58],"timestamp_mouse":[10,26,51,67,86,107,126,146,167,188,208,227,247,266,288,308,327,346,366,386,407,427,447,466,486,507,526,546,567,586,608,627,647,666,688,707,727,746,766,786,807,827,847,867,886,908,927,952,967,987,1006,1027,1047,1066,1086,1107,1127,1146,1167,1186,1208,1227,1247,1267,1287,1308,1327,1346,1366,1387,1408,1428,1446,1466,1486,1507,1528,1546,1567,1586,1607,1627,1646,1667,1686,1707,1728,1746],"xSR":741.5,"ySR":469.95,"xT1":424.9,"yT1":0,"xT2":1058.1,"yT2":0,"toosoon":0,"cond_shown":"Congruent","ratio_trial":300,"L_num":5,"L_den":25,"R_num":7,"R_den":14,"correct_side":2,"subjID":"TOMASRAMIREZ10","gender":"0","school":"4","age":"8"},{"start_time":1552073170329,"click_time":1552073171956,"finger_time":1552073171477,"fix_duration":831.5508804489667,"trial":13,"RT":1148,"MT":479,"sideResp":1,"stimulus":[],"xmouse":[793,793,793,793,793,793,793,793,793,793,793,793,793,793,793,793,793,793,793,793,793,793,793,793,793,793,793,793,793,793,793,793,793,793,793,793,793,793,793,792,794,797,798,798,798,798,798,798,798,798,798,798,798,798,794,788,779,769,729,712,698,687,679,665,655,639,616,589,557,549,548,548,547,547,547,547,547,547,547,544,536,524],"ymouse":[535,535,535,535,535,535,535,535,535,535,535,535,535,535,535,535,535,535,535,535,535,535,535,535,535,535,535,535,535,535,535,535,535,535,535,535,535,535,535,535,531,528,526,525,525,525,525,525,525,525,525,523,520,510,500,486,471,454,404,384,365,349,335,305,281,252,205,164,91,48,31,24,21,21,21,21,21,21,21,21,29,39],"timestamp_mouse":[12,35,48,68,87,107,128,148,168,188,207,227,247,269,288,308,328,347,369,388,409,428,448,469,487,507,528,547,568,589,608,629,648,667,687,708,727,748,767,788,807,827,849,868,888,907,927,947,968,987,1008,1027,1047,1069,1087,1108,1127,1148,1167,1187,1207,1227,1248,1268,1287,1307,1328,1347,1367,1389,1408,1428,1448,1468,1488,1508,1528,1548,1567,1588,1608,1627],"xSR":741.5,"ySR":469.95,"xT1":424.9,"yT1":0,"xT2":1058.1,"yT2":0,"toosoon":0,"cond_shown":"Congruent","ratio_trial":200,"L_num":11,"L_den":22,"R_num":3,"R_den":10,"correct_side":1,"subjID":"TOMASRAMIREZ10","gender":"0","school":"4","age":"8"},{"start_time":1552073173383,"click_time":1552073174497,"finger_time":1552073174156,"fix_duration":585.4383920566306,"trial":14,"RT":773,"MT":341,"sideResp":1,"stimulus":[],"xmouse":[801,801,801,801,801,801,801,801,801,801,801,801,801,801,801,801,801,801,801,801,801,801,801,801,801,801,801,801,801,801,801,801,801,801,799,784,770,754,742,728,701,685,674,662,647,635,590,564,545,535,527,526,524,523,521,513],"ymouse":[541,541,541,541,541,541,541,541,541,541,541,541,541,541,541,541,541,541,541,541,541,541,541,541,541,541,541,541,541,541,541,541,541,541,541,522,499,478,461,448,425,411,398,382,362,341,273,237,203,182,151,142,129,118,103,76],"timestamp_mouse":[13,44,53,74,95,114,134,153,175,194,213,233,255,273,293,313,333,354,373,393,413,433,453,473,493,513,534,554,575,594,613,633,653,674,693,714,734,753,773,793,815,833,853,873,894,913,935,954,974,994,1016,1033,1054,1073,1094,1114],"xSR":741.5,"ySR":469.95,"xT1":424.9,"yT1":0,"xT2":1058.1,"yT2":0,"toosoon":0,"cond_shown":"Incongruent","ratio_trial":200,"L_num":14,"L_den":30,"R_num":12,"R_den":18,"correct_side":2,"subjID":"TOMASRAMIREZ10","gender":"0","school":"4","age":"8"},{"start_time":1552073178316,"click_time":1552073179398,"finger_time":1552073179316,"fix_duration":797.4427780354138,"trial":15,"RT":1000,"MT":82,"sideResp":2,"stimulus":[],"xmouse":[754,754,754,754,754,754,754,754,754,754,754,754,754,754,754,754,754,754,754,754,754,754,754,754,754,754,754,754,754,754,754,754,754,754,754,754,754,754,754,754,754,754,754,754,754,754,754,754,758,776,853,916,993,1066,1134],"ymouse":[537,537,537,537,537,537,537,537,537,537,537,537,537,537,537,537,537,537,537,537,537,537,537,537,537,537,537,537,537,537,537,537,537,537,537,537,537,537,537,537,537,537,537,537,537,537,537,537,534,513,414,335,238,150,81],"timestamp_mouse":[11,36,41,60,81,100,121,140,160,181,201,221,240,261,280,301,321,341,361,380,400,420,440,461,480,500,520,540,561,580,600,621,640,660,680,700,721,740,760,780,801,821,840,861,880,901,920,940,961,980,1000,1020,1040,1061,1081],"xSR":741.5,"ySR":469.95,"xT1":424.9,"yT1":0,"xT2":1058.1,"yT2":0,"toosoon":0,"cond_shown":"Congruent","ratio_trial":200,"L_num":7,"L_den":15,"R_num":18,"R_den":27,"correct_side":2,"subjID":"TOMASRAMIREZ10","gender":"0","school":"4","age":"8"},{"start_time":1552073181891,"click_time":1552073183336,"finger_time":1552073183016,"fix_duration":1294.6866464408674,"trial":16,"RT":1125,"MT":320,"sideResp":1,"stimulus":[],"xmouse":[801,801,801,801,801,801,801,801,801,801,801,801,801,801,801,801,801,801,801,801,801,801,801,801,801,801,801,801,801,801,801,801,801,801,801,801,801,801,801,801,801,801,801,801,801,801,801,801,801,801,801,801,801,801,800,797,777,748,714,685,654,615,605,600,598,594,584,566,556,546,535,518,514],"ymouse":[485,485,485,485,485,485,485,485,485,485,485,485,485,485,485,485,485,485,485,485,485,485,485,485,485,485,485,485,485,485,485,485,485,485,485,485,485,485,485,485,485,485,485,485,485,485,485,485,485,485,485,485,485,485,481,472,424,375,333,302,281,257,249,245,240,233,216,185,171,157,141,112,98],"timestamp_mouse":[13,43,46,66,85,106,125,147,167,186,206,226,246,266,285,306,325,345,365,387,406,425,445,466,486,506,525,547,567,586,606,625,647,666,685,706,725,746,766,785,807,826,847,865,886,905,925,945,965,985,1005,1025,1045,1066,1085,1106,1125,1145,1165,1185,1206,1226,1245,1266,1286,1306,1326,1347,1367,1386,1406,1426,1445],"xSR":741.5,"ySR":469.95,"xT1":424.9,"yT1":0,"xT2":1058.1,"yT2":0,"toosoon":0,"cond_shown":"Congruent","ratio_trial":200,"L_num":3,"L_den":10,"R_num":14,"R_den":28,"correct_side":2,"subjID":"TOMASRAMIREZ10","gender":"0","school":"4","age":"8"},{"start_time":1552073184868,"click_time":1552073185818,"finger_time":1552073185496,"fix_duration":250,"trial":17,"RT":628,"MT":322,"sideResp":2,"stimulus":[],"xmouse":[782,783,783,783,783,783,783,783,783,783,783,783,783,783,783,783,783,783,783,783,783,783,783,783,783,783,783,783,797,812,829,848,884,897,911,923,959,1034,1071,1101,1122,1134,1148,1148,1148,1142,1135,1116],"ymouse":[564,562,562,562,562,562,562,562,562,562,562,562,562,562,562,561,561,561,561,561,561,561,561,561,561,561,561,560,550,543,534,523,507,497,485,471,434,369,339,314,297,278,189,162,153,126,106,60],"timestamp_mouse":[10,28,49,68,90,109,129,148,168,188,209,228,249,268,289,309,328,349,369,389,409,428,449,470,490,508,528,550,569,588,609,628,649,669,690,708,728,750,768,789,809,828,849,868,889,909,929,950],"xSR":741.5,"ySR":469.95,"xT1":424.9,"yT1":0,"xT2":1058.1,"yT2":0,"toosoon":0,"cond_shown":"Congruent","ratio_trial":300,"L_num":1,"L_den":3,"R_num":19,"R_den":30,"correct_side":2,"subjID":"TOMASRAMIREZ10","gender":"0","school":"4","age":"8"},{"start_time":1552073188173,"click_time":1552073190737,"finger_time":1552073189836,"fix_duration":1055.6187685130053,"trial":18,"RT":1663,"MT":901,"sideResp":2,"stimulus":[],"xmouse":[794,794,794,794,794,794,794,794,794,794,794,794,794,794,794,794,794,794,794,794,794,794,794,794,794,794,794,794,794,794,794,794,794,794,794,794,794,794,794,794,794,794,794,794,794,794,794,794,794,794,794,794,794,794,794,794,794,794,794,794,794,794,794,794,794,794,794,794,794,794,794,794,794,794,794,794,794,794,794,794,794,794,811,948,1076,1210,1326,1413,1455,1455,1455,1455,1455,1456,1440,1420,1398,1375,1324,1307,1293,1280,1273,1269,1269,1269,1269,1269,1269,1263,1250,1227,1187,1048,974,922,898,895,895,895,895,895,895,910,932,963,995,1039,1146],"ymouse":[503,503,503,503,503,503,503,503,503,503,503,503,503,503,503,503,503,503,503,503,503,503,503,503,503,503,503,503,503,503,503,503,503,503,503,503,503,503,503,503,503,503,503,503,503,503,503,503,503,503,503,503,503,503,503,503,503,503,503,503,503,503,503,503,503,503,503,503,503,503,503,503,503,503,503,503,503,503,503,503,503,503,490,405,339,281,231,205,190,190,190,190,190,182,156,140,126,111,83,75,69,65,62,61,61,61,61,61,61,61,61,61,57,24,11,4,1,1,1,1,1,1,1,1,1,1,4,10,30],"timestamp_mouse":[11,38,44,63,85,104,124,143,163,184,203,225,243,264,283,304,324,343,365,383,404,423,443,464,484,503,523,543,564,584,603,624,644,664,683,704,723,744,763,783,805,824,843,863,883,904,924,943,964,983,1004,1023,1043,1065,1084,1104,1125,1144,1163,1183,1204,1223,1245,1263,1283,1304,1324,1343,1365,1383,1403,1424,1443,1465,1483,1503,1524,1543,1563,1584,1603,1624,1643,1663,1684,1704,1723,1744,1763,1784,1803,1823,1844,1863,1885,1903,1923,1943,1964,1985,2003,2024,2044,2063,2085,2104,2123,2144,2165,2184,2203,2223,2243,2264,2284,2303,2323,2344,2364,2385,2404,2423,2444,2463,2483,2503,2523,2544,2564],"xSR":741.5,"ySR":469.95,"xT1":424.9,"yT1":0,"xT2":1058.1,"yT2":0,"toosoon":0,"cond_shown":"Congruent","ratio_trial":100,"L_num":12,"L_den":30,"R_num":13,"R_den":26,"correct_side":2,"subjID":"TOMASRAMIREZ10","gender":"0","school":"4","age":"8"},{"start_time":1552073192671,"click_time":1552073193877,"finger_time":1552073193496,"fix_duration":572.9447226988505,"trial":19,"RT":825,"MT":381,"sideResp":1,"stimulus":[],"xmouse":[803,803,803,803,803,803,803,803,803,803,803,803,803,803,803,803,803,803,803,803,803,803,803,803,803,803,803,803,803,803,803,803,803,803,803,803,803,803,803,803,803,810,815,812,806,796,782,770,757,723,702,683,669,654,648,644,635,624,576,537,499],"ymouse":[490,490,490,490,490,490,490,490,490,490,490,490,490,490,490,490,490,490,490,490,490,490,490,490,490,490,490,490,490,490,490,490,490,490,490,490,490,490,490,490,480,455,435,414,403,389,370,354,338,306,280,261,244,220,210,200,185,166,105,62,25],"timestamp_mouse":[10,41,45,66,85,107,125,145,166,185,206,225,246,266,287,307,326,347,366,385,406,426,447,466,485,506,527,546,566,585,605,625,646,666,686,706,726,746,766,785,806,825,846,867,885,905,926,947,966,986,1005,1026,1045,1067,1087,1105,1125,1146,1167,1187,1206],"xSR":741.5,"ySR":469.95,"xT1":424.9,"yT1":0,"xT2":1058.1,"yT2":0,"toosoon":0,"cond_shown":"Congruent","ratio_trial":300,"L_num":20,"L_den":25,"R_num":13,"R_den":26,"correct_side":1,"subjID":"TOMASRAMIREZ10","gender":"0","school":"4","age":"8"},{"start_time":1552073196053,"click_time":1552073197078,"finger_time":1552073196678,"fix_duration":614.2247448681775,"trial":20,"RT":625,"MT":400,"sideResp":1,"stimulus":[],"xmouse":[791,791,791,791,791,791,791,791,791,791,791,791,791,791,791,791,791,791,791,791,791,791,793,794,794,794,794,794,794,794,794,781,767,753,738,718,710,705,699,694,676,659,647,635,627,612,606,597,588,570,525,505],"ymouse":[513,514,514,514,514,514,514,514,514,514,514,514,514,514,514,514,514,514,514,514,514,512,508,505,504,504,504,504,504,502,489,453,426,396,367,334,325,315,305,293,250,225,203,182,167,147,140,130,120,105,73,58],"timestamp_mouse":[12,35,45,63,84,104,125,144,164,184,204,225,244,264,284,303,323,344,363,383,403,423,443,464,485,503,524,544,564,583,604,625,643,663,685,703,723,743,763,783,804,823,843,863,883,903,923,943,963,985,1005,1025],"xSR":741.5,"ySR":469.95,"xT1":424.9,"yT1":0,"xT2":1058.1,"yT2":0,"toosoon":0,"cond_shown":"Congruent","ratio_trial":100,"L_num":9,"L_den":15,"R_num":8,"R_den":16,"correct_side":1,"subjID":"TOMASRAMIREZ10","gender":"0","school":"4","age":"8"},{"start_time":1552073200601,"click_time":1552073202597,"finger_time":1552073201857,"fix_duration":1002.77685560876,"trial":21,"RT":1256,"MT":740,"sideResp":1,"stimulus":[],"xmouse":[816,816,816,816,816,816,816,816,816,816,816,816,816,816,816,816,816,816,816,816,816,816,816,816,816,816,816,816,816,816,816,816,816,816,816,816,816,816,816,816,816,816,816,816,816,816,816,816,816,816,816,816,816,816,816,816,816,816,816,816,816,816,811,810,810,810,810,810,810,810,810,810,809,799,788,775,762,743,736,729,718,710,696,691,688,685,682,672,664,654,636,619,584,568,555,543,533,522,517,509],"ymouse":[478,478,478,478,478,478,478,478,478,478,478,478,478,478,478,478,478,478,478,478,478,478,478,478,478,478,478,478,478,478,478,478,478,478,478,478,478,478,478,478,478,478,478,478,478,478,478,478,478,478,478,478,478,478,478,478,478,478,478,478,478,476,468,466,466,466,466,466,466,466,466,466,465,449,430,408,392,371,362,350,322,295,242,224,210,201,193,175,166,155,138,129,117,112,110,108,106,104,102,99],"timestamp_mouse":[16,37,56,76,95,116,137,155,176,195,216,235,256,276,295,315,337,356,375,397,417,436,455,477,496,515,536,556,576,595,615,636,656,676,696,716,736,756,776,795,817,835,856,876,897,916,936,956,977,996,1015,1036,1055,1076,1097,1116,1135,1156,1176,1197,1217,1235,1256,1275,1295,1316,1336,1356,1377,1396,1416,1435,1457,1475,1497,1516,1536,1557,1575,1595,1615,1636,1657,1675,1697,1717,1736,1756,1775,1796,1815,1857,1860,1876,1896,1915,1935,1956,1976,1996],"xSR":741.5,"ySR":469.95,"xT1":424.9,"yT1":0,"xT2":1058.1,"yT2":0,"toosoon":0,"cond_shown":"Congruent","ratio_trial":200,"L_num":6,"L_den":12,"R_num":7,"R_den":10,"correct_side":2,"subjID":"TOMASRAMIREZ10","gender":"0","school":"4","age":"8"},{"start_time":1552073205004,"click_time":1552073205777,"finger_time":1552073205436,"fix_duration":1225.6767344568902,"trial":22,"RT":432,"MT":341,"sideResp":2,"stimulus":[],"xmouse":[811,811,811,811,811,811,811,811,811,811,811,811,811,811,811,811,811,811,811,811,826,850,885,961,991,1014,1028,1041,1055,1055,1055,1055,1055,1055,1055,1055,1055,1056,1060],"ymouse":[507,507,507,507,507,507,507,507,507,507,507,507,507,507,507,507,507,507,507,507,495,475,428,277,195,129,89,62,36,36,36,36,36,36,36,36,36,40,64],"timestamp_mouse":[12,32,52,73,92,112,132,152,174,194,214,232,253,273,293,313,332,353,373,392,413,432,452,473,492,513,532,552,572,593,612,632,653,672,692,713,733,753,773],"xSR":741.5,"ySR":469.95,"xT1":424.9,"yT1":0,"xT2":1058.1,"yT2":0,"toosoon":0,"cond_shown":"Congruent","ratio_trial":100,"L_num":11,"L_den":22,"R_num":6,"R_den":15,"correct_side":1,"subjID":"TOMASRAMIREZ10","gender":"0","school":"4","age":"8"},{"start_time":1552073207229,"click_time":1552073208198,"finger_time":1552073207776,"fix_duration":250,"trial":23,"RT":547,"MT":422,"sideResp":1,"stimulus":[],"xmouse":[763,763,763,763,763,763,763,763,763,763,763,763,763,763,763,763,763,763,763,763,763,763,763,763,763,763,763,763,763,761,753,735,697,677,661,649,642,636,634,631,627,621,615,611,604,595,579,525,503],"ymouse":[486,486,486,486,486,486,486,486,486,486,486,486,486,486,486,486,486,486,486,486,486,486,486,486,486,486,486,466,433,385,328,271,184,150,127,110,97,80,75,68,62,54,49,48,47,46,46,53,60],"timestamp_mouse":[14,28,49,67,87,107,128,149,167,188,209,228,247,267,287,308,328,349,368,388,407,428,447,468,489,508,528,547,567,588,607,628,647,668,688,707,727,747,768,788,808,827,847,867,887,907,927,947,969],"xSR":741.5,"ySR":469.95,"xT1":424.9,"yT1":0,"xT2":1058.1,"yT2":0,"toosoon":0,"cond_shown":"Incongruent","ratio_trial":100,"L_num":1,"L_den":2,"R_num":8,"R_den":20,"correct_side":1,"subjID":"TOMASRAMIREZ10","gender":"0","school":"4","age":"8"},{"start_time":1552073209590,"click_time":1552073211798,"finger_time":1552073211056,"fix_duration":250,"trial":24,"RT":1466,"MT":742,"sideResp":2,"stimulus":[],"xmouse":[765,765,765,765,765,765,765,765,765,765,765,765,765,765,765,765,765,765,765,765,765,765,765,765,765,765,765,765,765,765,765,765,765,765,765,765,765,765,766,766,766,767,767,767,767,767,767,767,767,767,767,767,767,767,767,767,767,767,767,767,767,767,767,767,767,767,767,767,767,767,767,775,792,813,834,873,893,912,931,940,954,960,962,964,965,969,977,981,984,987,999,1005,1009,1013,1017,1023,1024,1026,1028,1033,1042,1043,1045,1046,1047,1050,1053,1055,1057,1058,1060],"ymouse":[488,488,488,488,488,488,488,488,488,488,488,488,488,488,488,488,488,488,488,488,488,488,488,488,488,488,488,488,488,488,488,488,488,488,488,488,488,489,489,489,489,489,489,489,489,489,489,489,489,489,489,489,489,489,489,489,489,489,489,489,489,489,489,489,489,489,489,489,489,489,489,487,475,461,439,385,348,302,242,214,186,178,175,173,171,168,165,164,162,161,151,145,139,132,125,117,115,113,109,104,91,88,86,85,84,82,81,79,77,77,76],"timestamp_mouse":[13,39,46,66,87,106,126,146,167,186,206,226,246,268,287,306,327,346,368,387,406,426,446,466,487,507,527,547,566,586,607,627,646,666,687,707,726,747,767,787,806,827,847,867,887,907,927,948,967,986,1006,1027,1047,1066,1086,1106,1126,1147,1166,1187,1207,1226,1246,1267,1286,1307,1326,1347,1366,1387,1407,1427,1447,1466,1486,1506,1527,1546,1567,1587,1607,1626,1646,1667,1686,1706,1726,1746,1766,1786,1806,1826,1846,1867,1888,1907,1926,1946,1967,1986,2006,2026,2046,2066,2086,2106,2126,2147,2166,2188,2208],"xSR":741.5,"ySR":469.95,"xT1":424.9,"yT1":0,"xT2":1058.1,"yT2":0,"toosoon":0,"cond_shown":"Incongruent","ratio_trial":200,"L_num":14,"L_den":30,"R_num":12,"R_den":18,"correct_side":2,"subjID":"TOMASRAMIREZ10","gender":"0","school":"4","age":"8"},{"start_time":1552073214689,"click_time":1552073216417,"finger_time":1552073215977,"fix_duration":250,"trial":25,"RT":1288,"MT":440,"sideResp":1,"stimulus":[],"xmouse":[813,813,813,813,813,813,813,813,813,813,813,813,813,813,813,813,813,813,813,813,813,813,813,813,813,813,813,813,813,813,813,813,813,813,813,813,813,813,813,813,813,813,813,813,813,813,813,813,813,813,813,813,813,813,813,813,813,813,813,813,809,801,788,773,752,697,676,660,648,641,634,633,630,627,622,607,598,592,587,584,584,584,583,581,569,535,520],"ymouse":[538,538,538,538,538,538,538,538,538,538,538,538,538,538,538,538,538,538,538,538,538,538,538,538,538,538,538,538,538,538,538,538,538,538,538,538,538,538,538,538,538,538,538,538,538,538,538,538,538,538,538,538,538,538,538,538,538,538,538,538,537,521,500,478,446,369,338,316,295,280,257,246,231,213,190,141,121,109,102,98,98,98,97,97,94,84,80],"timestamp_mouse":[15,32,47,69,88,109,128,149,169,188,209,228,247,269,288,308,329,349,369,387,409,428,448,468,488,509,528,549,568,589,607,627,647,668,688,709,728,749,767,789,808,828,849,869,888,908,928,949,968,988,1008,1028,1047,1068,1088,1108,1127,1149,1168,1188,1208,1228,1249,1269,1288,1308,1328,1348,1368,1389,1408,1429,1449,1468,1488,1508,1528,1548,1569,1589,1608,1628,1649,1669,1688,1709,1728],"xSR":741.5,"ySR":469.95,"xT1":424.9,"yT1":0,"xT2":1058.1,"yT2":0,"toosoon":0,"cond_shown":"Incongruent","ratio_trial":100,"L_num":9,"L_den":15,"R_num":13,"R_den":26,"correct_side":1,"subjID":"TOMASRAMIREZ10","gender":"0","school":"4","age":"8"},{"start_time":1552073218509,"click_time":1552073220477,"finger_time":1552073220077,"fix_duration":969.8632573001155,"trial":26,"RT":1568,"MT":400,"sideResp":1,"stimulus":[],"xmouse":[773,773,773,773,773,773,773,773,773,773,773,773,773,773,773,773,773,773,773,773,773,773,773,773,773,773,773,773,773,773,773,773,773,773,773,773,773,773,773,773,773,773,773,773,773,773,773,773,773,773,773,773,773,773,773,773,773,773,773,773,773,773,773,773,773,773,771,770,769,768,768,768,768,768,768,768,768,768,767,756,685,616,616,616,616,616,616,616,616,616,616,616,616,616,616,616,616,616,483],"ymouse":[481,481,481,481,481,481,481,481,481,481,481,481,481,481,481,481,481,481,481,481,481,481,481,481,481,481,481,481,481,481,481,481,481,481,481,481,481,481,481,481,481,481,481,481,481,481,481,481,481,481,481,481,481,481,481,481,481,481,481,481,481,481,481,481,481,481,480,478,472,471,471,471,471,471,471,471,471,471,466,423,164,31,31,31,31,31,31,31,31,31,31,31,31,31,31,31,31,31,19],"timestamp_mouse":[9,29,47,71,88,109,129,148,168,188,208,228,249,267,288,309,327,349,369,389,409,428,448,467,489,508,528,549,568,588,608,628,649,668,688,709,728,749,769,789,808,828,848,869,887,908,928,949,968,988,1007,1029,1048,1069,1088,1109,1129,1148,1168,1188,1207,1229,1248,1269,1289,1309,1329,1347,1369,1388,1409,1429,1448,1469,1489,1508,1529,1549,1568,1588,1609,1628,1649,1669,1687,1709,1728,1747,1768,1789,1808,1828,1847,1868,1889,1909,1929,1949,1968],"xSR":741.5,"ySR":469.95,"xT1":424.9,"yT1":0,"xT2":1058.1,"yT2":0,"toosoon":0,"cond_shown":"Incongruent","ratio_trial":300,"L_num":8,"L_den":10,"R_num":9,"R_den":18,"correct_side":1,"subjID":"TOMASRAMIREZ10","gender":"0","school":"4","age":"8"},{"start_time":1552073222669,"click_time":1552073224117,"finger_time":1552073223516,"fix_duration":510.0567032929768,"trial":27,"RT":847,"MT":601,"sideResp":2,"stimulus":[],"xmouse":[773,773,773,773,773,773,773,773,773,773,773,773,773,773,773,773,773,773,773,773,773,773,773,773,773,773,773,773,773,773,773,773,773,773,773,773,773,773,773,777,791,809,843,853,856,856,856,857,860,866,876,887,912,931,956,980,997,1017,1025,1035,1047,1059,1075,1079,1080,1080,1081,1081,1081,1084,1089,1094,1100],"ymouse":[483,483,483,483,483,483,483,483,483,483,483,483,483,483,483,483,483,483,483,483,483,483,483,483,483,483,483,483,483,483,483,483,483,483,483,483,483,483,483,485,485,480,469,466,466,466,466,465,462,457,448,439,413,382,332,292,261,232,222,211,196,182,158,150,145,144,143,142,138,128,116,101,84],"timestamp_mouse":[14,29,49,69,87,109,129,149,168,188,208,228,249,267,289,309,328,348,368,387,407,429,448,469,488,508,529,549,568,587,608,627,649,669,689,708,727,749,768,788,809,827,847,868,888,908,928,948,968,988,1008,1028,1048,1067,1088,1108,1129,1147,1169,1188,1209,1229,1247,1269,1289,1308,1327,1347,1367,1389,1408,1428,1448],"xSR":741.5,"ySR":469.95,"xT1":424.9,"yT1":0,"xT2":1058.1,"yT2":0,"toosoon":0,"cond_shown":"Incongruent","ratio_trial":100,"L_num":1,"L_den":2,"R_num":8,"R_den":20,"correct_side":1,"subjID":"TOMASRAMIREZ10","gender":"0","school":"4","age":"8"},{"start_time":1552073225549,"click_time":1552073226577,"finger_time":1552073226117,"fix_duration":250,"trial":28,"RT":568,"MT":460,"sideResp":1,"stimulus":[],"xmouse":[763,763,763,763,763,763,763,763,763,763,763,763,763,763,763,763,763,763,763,763,763,763,763,763,763,762,762,760,755,750,747,737,730,714,702,691,680,668,658,636,625,616,600,579,571,564,561,558,547,539,531,524],"ymouse":[495,495,495,495,495,495,495,495,495,495,495,495,495,495,495,495,495,495,495,495,495,495,495,495,495,487,483,475,459,449,438,416,395,341,311,284,262,241,221,183,166,152,133,107,98,92,90,89,86,84,81,80],"timestamp_mouse":[13,38,48,67,89,109,128,149,168,188,209,227,248,268,289,308,327,349,368,389,407,428,448,469,488,508,529,549,568,588,608,629,648,668,688,708,728,748,768,788,808,828,848,869,887,908,928,949,969,987,1007,1028],"xSR":741.5,"ySR":469.95,"xT1":424.9,"yT1":0,"xT2":1058.1,"yT2":0,"toosoon":0,"cond_shown":"Congruent","ratio_trial":100,"L_num":2,"L_den":5,"R_num":6,"R_den":12,"correct_side":2,"subjID":"TOMASRAMIREZ10","gender":"0","school":"4","age":"8"},{"start_time":1552073229486,"click_time":1552073231538,"finger_time":1552073231157,"fix_duration":527.4569393311162,"trial":29,"RT":1671,"MT":381,"sideResp":1,"stimulus":[],"xmouse":[787,787,787,787,787,787,787,787,787,787,787,787,787,787,787,787,787,787,787,787,787,787,787,787,787,787,787,787,787,787,787,787,787,787,787,787,787,787,787,787,787,787,787,787,787,787,787,787,787,787,787,787,787,787,787,787,787,787,787,787,787,787,787,787,787,787,787,787,787,787,787,787,787,787,787,787,787,787,787,787,787,787,790,790,784,759,729,658,658,658,658,658,658,658,658,658,658,658,658,658,658,545,496],"ymouse":[521,521,521,521,521,521,521,521,521,521,521,521,521,521,521,521,521,521,521,521,521,521,521,521,521,521,521,521,521,521,521,521,521,521,521,521,521,521,521,521,521,521,521,521,521,521,521,521,521,521,521,521,521,521,521,521,521,521,521,521,521,521,521,521,521,521,521,521,521,521,521,521,521,521,521,521,521,521,521,521,521,521,501,428,342,258,168,14,14,14,14,14,14,14,14,14,14,14,14,14,14,15,71],"timestamp_mouse":[21,46,51,70,91,112,132,150,172,191,212,230,251,272,290,312,332,352,370,392,412,431,450,471,492,511,531,550,572,590,610,631,652,672,692,711,730,751,772,792,812,830,852,871,892,911,932,951,971,992,1011,1031,1052,1072,1091,1111,1132,1152,1170,1191,1211,1232,1251,1272,1292,1312,1331,1352,1372,1391,1412,1431,1452,1471,1490,1511,1532,1551,1571,1592,1611,1630,1651,1671,1691,1711,1731,1751,1771,1792,1812,1832,1851,1871,1891,1911,1931,1952,1971,1992,2012,2032,2052],"xSR":741.5,"ySR":469.95,"xT1":424.9,"yT1":0,"xT2":1058.1,"yT2":0,"toosoon":0,"cond_shown":"Incongruent","ratio_trial":300,"L_num":8,"L_den":10,"R_num":14,"R_den":28,"correct_side":1,"subjID":"TOMASRAMIREZ10","gender":"0","school":"4","age":"8"},{"start_time":1552073233416,"click_time":1552073234637,"finger_time":1552073234337,"fix_duration":616.7276937479542,"trial":30,"RT":921,"MT":300,"sideResp":1,"stimulus":[],"xmouse":[753,753,753,753,753,753,753,753,753,753,753,753,753,753,753,753,753,753,753,753,753,753,753,753,753,753,753,753,753,753,753,753,753,753,753,753,753,753,753,753,753,753,753,753,753,753,761,762,762,762,761,757,746,736,718,689,642,580,558,544,536,521],"ymouse":[518,518,518,518,518,518,518,518,518,518,518,518,518,518,518,518,518,518,518,518,518,518,518,518,518,518,518,518,518,518,518,518,518,518,518,518,518,518,518,518,518,518,518,518,518,515,464,434,413,397,382,367,343,325,296,257,188,105,72,51,32,6],"timestamp_mouse":[10,38,40,60,82,102,120,142,162,182,201,221,241,261,282,302,320,342,361,382,401,421,441,461,482,500,521,542,560,580,602,621,641,662,682,700,721,742,762,781,802,821,842,862,882,902,921,942,960,981,1001,1021,1042,1061,1082,1102,1121,1141,1161,1182,1202,1221],"xSR":741.5,"ySR":469.95,"xT1":424.9,"yT1":0,"xT2":1058.1,"yT2":0,"toosoon":0,"cond_shown":"Incongruent","ratio_trial":300,"L_num":2,"L_den":4,"R_num":6,"R_den":30,"correct_side":1,"subjID":"TOMASRAMIREZ10","gender":"0","school":"4","age":"8"},{"start_time":1552073238650,"click_time":1552073240298,"finger_time":1552073239757,"fix_duration":850.3838067686398,"trial":31,"RT":1107,"MT":541,"sideResp":2,"stimulus":[],"xmouse":[833,833,833,833,833,833,833,833,833,833,833,833,833,833,833,833,833,833,833,833,833,833,833,833,833,833,833,833,833,833,833,833,833,833,833,833,833,833,833,833,833,833,833,833,833,833,833,833,833,833,833,833,833,833,834,845,867,893,922,944,966,966,966,966,967,980,999,1027,1060,1086,1113,1121,1122,1123,1123,1123,1124,1125,1127,1131,1141,1142,1142],"ymouse":[487,487,487,487,487,487,487,487,487,487,487,487,487,487,487,487,487,487,487,487,487,487,487,487,487,487,487,486,486,486,486,486,486,486,486,486,486,486,486,486,486,486,486,486,486,486,486,486,486,486,486,486,486,486,486,477,459,444,428,415,398,395,393,389,380,342,309,263,219,183,148,138,137,135,135,135,134,131,126,119,103,100,98],"timestamp_mouse":[15,34,47,67,88,108,128,147,168,188,207,227,247,268,288,307,328,347,367,388,407,427,446,467,486,507,527,548,567,588,607,627,647,667,686,708,727,748,767,788,807,826,847,868,888,908,928,947,968,987,1007,1027,1047,1067,1087,1107,1127,1147,1167,1188,1207,1227,1248,1267,1288,1306,1328,1347,1368,1387,1407,1428,1447,1467,1487,1507,1527,1547,1567,1587,1607,1628,1648],"xSR":741.5,"ySR":469.95,"xT1":424.9,"yT1":0,"xT2":1058.1,"yT2":0,"toosoon":0,"cond_shown":"Incongruent","ratio_trial":200,"L_num":4,"L_den":30,"R_num":1,"R_den":3,"correct_side":2,"subjID":"TOMASRAMIREZ10","gender":"0","school":"4","age":"8"},{"start_time":1552073244395,"click_time":1552073245758,"finger_time":1552073245418,"fix_duration":355.22042907616657,"trial":32,"RT":1023,"MT":340,"sideResp":2,"stimulus":[],"xmouse":[763,763,763,763,763,763,763,763,763,763,763,763,763,763,763,763,763,763,763,763,763,763,763,763,763,763,763,763,763,763,763,763,763,763,763,763,763,763,763,763,763,763,763,762,764,774,785,797,815,826,841,856,893,917,926,932,938,943,957,969,973,986,998,1010,1027,1035,1045,1057,1096],"ymouse":[525,525,525,525,525,525,525,525,525,525,525,525,525,525,525,525,525,525,525,525,525,525,525,525,525,525,525,525,525,525,525,525,525,525,525,525,525,525,525,525,525,525,525,524,521,516,511,504,494,487,474,454,401,356,339,325,311,298,270,255,250,230,214,198,169,155,138,123,88],"timestamp_mouse":[13,22,42,63,81,103,122,141,163,182,203,223,242,262,283,303,321,342,362,383,402,423,442,462,482,503,523,543,562,582,603,623,643,662,682,701,721,743,763,783,802,822,841,862,882,903,921,943,962,981,1002,1023,1043,1063,1082,1102,1122,1143,1163,1182,1202,1222,1243,1262,1283,1303,1323,1342,1362],"xSR":741.5,"ySR":469.95,"xT1":424.9,"yT1":0,"xT2":1058.1,"yT2":0,"toosoon":0,"cond_shown":"Incongruent","ratio_trial":200,"L_num":11,"L_den":20,"R_num":3,"R_den":4,"correct_side":2,"subjID":"TOMASRAMIREZ10","gender":"0","school":"4","age":"8"},{"start_time":1552073247579,"click_time":1552073249237,"finger_time":1552073248437,"fix_duration":599.5426309773932,"trial":33,"RT":858,"MT":800,"sideResp":2,"stimulus":[],"xmouse":[771,771,771,771,771,771,771,771,771,771,771,771,771,771,771,771,771,771,771,771,771,771,771,771,771,771,771,771,771,771,771,771,771,771,771,771,771,771,771,774,787,799,815,831,855,863,872,879,890,913,928,937,945,950,961,968,974,979,984,993,999,1005,1011,1018,1046,1063,1082,1098,1108,1124,1127,1127,1127,1127,1127,1127,1127,1127,1127,1127,1127,1127,1127],"ymouse":[494,494,494,494,494,494,494,494,494,494,494,494,494,494,494,494,494,494,494,494,494,494,494,494,494,494,494,494,494,494,494,494,494,494,494,494,494,494,494,492,482,473,464,456,441,434,428,422,412,391,379,369,362,355,330,311,290,270,252,226,215,207,199,193,174,161,146,132,124,110,106,106,106,106,106,106,106,106,106,105,103,101,99],"timestamp_mouse":[18,44,59,79,98,117,138,159,179,199,219,239,258,279,299,319,337,358,379,399,418,439,458,478,499,518,539,558,578,599,618,638,659,679,699,718,737,758,779,797,818,839,858,878,897,918,938,958,978,997,1018,1038,1058,1079,1098,1118,1139,1158,1179,1197,1217,1237,1259,1279,1297,1319,1339,1358,1379,1398,1418,1438,1459,1478,1499,1518,1539,1559,1579,1598,1618,1638,1658],"xSR":741.5,"ySR":469.95,"xT1":424.9,"yT1":0,"xT2":1058.1,"yT2":0,"toosoon":0,"cond_shown":"Congruent","ratio_trial":300,"L_num":2,"L_den":20,"R_num":10,"R_den":25,"correct_side":2,"subjID":"TOMASRAMIREZ10","gender":"0","school":"4","age":"8"},{"start_time":1552073255088,"click_time":1552073256757,"finger_time":1552073256296,"fix_duration":250,"trial":34,"RT":1208,"MT":461,"sideResp":1,"stimulus":[],"xmouse":[800,800,800,800,800,800,800,800,800,800,800,800,800,800,800,800,800,800,800,800,800,800,800,800,800,800,800,800,800,800,800,800,800,800,800,800,800,800,800,800,800,800,800,800,800,800,800,800,800,800,800,800,800,800,800,800,800,800,800,800,799,781,753,715,679,631,622,621,621,621,621,621,621,619,617,615,614,614,612,608,586,556,535,517],"ymouse":[486,486,486,486,486,486,486,486,486,486,486,486,486,486,486,486,486,486,486,486,486,486,486,486,486,486,486,486,486,486,486,486,486,486,486,486,486,486,486,486,486,486,486,486,486,486,486,486,486,486,486,486,486,486,486,486,486,486,486,486,466,393,308,227,180,143,138,138,138,138,138,138,137,135,130,127,126,126,126,124,116,103,95,89],"timestamp_mouse":[13,37,50,70,90,109,130,149,169,190,209,230,249,268,290,310,330,349,369,390,409,428,449,470,489,510,530,550,569,588,610,629,650,670,689,710,730,750,769,790,810,830,850,870,890,909,929,950,969,988,1009,1029,1049,1069,1088,1108,1130,1149,1170,1188,1208,1229,1249,1270,1289,1309,1329,1348,1369,1390,1409,1429,1450,1469,1490,1510,1529,1549,1570,1589,1609,1629,1650,1669],"xSR":741.5,"ySR":469.95,"xT1":424.9,"yT1":0,"xT2":1058.1,"yT2":0,"toosoon":0,"cond_shown":"Congruent","ratio_trial":200,"L_num":6,"L_den":20,"R_num":11,"R_den":22,"correct_side":2,"subjID":"TOMASRAMIREZ10","gender":"0","school":"4","age":"8"},{"start_time":1552073260453,"click_time":1552073261517,"finger_time":1552073261097,"fix_duration":713.1605957588604,"trial":35,"RT":644,"MT":420,"sideResp":2,"stimulus":[],"xmouse":[829,829,829,829,829,829,829,829,829,829,829,829,829,829,829,829,829,829,829,829,829,829,829,829,829,829,829,829,829,829,831,833,847,859,876,910,946,991,998,1000,1002,1002,1002,1004,1006,1009,1013,1018,1030,1040,1057,1067,1082,1088],"ymouse":[500,500,500,500,500,500,500,500,500,500,500,500,500,500,500,500,500,500,500,500,500,500,500,500,500,500,500,500,500,500,498,495,471,455,434,393,359,332,328,326,320,305,285,275,265,252,238,220,185,164,135,119,101,95],"timestamp_mouse":[14,24,44,65,85,103,123,143,164,185,203,224,244,265,284,304,324,343,365,384,405,424,444,464,485,505,524,544,564,585,603,625,644,664,683,704,724,744,763,784,804,824,843,864,884,904,924,944,965,985,1004,1024,1044,1063],"xSR":741.5,"ySR":469.95,"xT1":424.9,"yT1":0,"xT2":1058.1,"yT2":0,"toosoon":0,"cond_shown":"Incongruent","ratio_trial":300,"L_num":13,"L_den":26,"R_num":12,"R_den":15,"correct_side":2,"subjID":"TOMASRAMIREZ10","gender":"0","school":"4","age":"8"},{"start_time":1552073263731,"click_time":1552073265999,"finger_time":1552073265617,"fix_duration":949.8268392894419,"trial":36,"RT":1886,"MT":382,"sideResp":2,"stimulus":[],"xmouse":[779,779,779,779,779,779,779,779,779,779,779,779,779,779,779,779,779,779,779,779,779,779,779,778,772,771,770,770,770,770,770,770,770,770,770,770,770,770,770,770,770,770,770,770,770,770,770,770,770,770,770,770,770,770,770,770,770,770,770,770,770,770,770,770,770,770,770,770,770,770,770,770,770,770,770,770,770,770,770,770,770,770,770,770,770,770,770,770,770,770,770,770,770,771,799,834,894,963,1031,1144,1183,1212,1224,1228,1228,1228,1228,1228,1228,1224,1213,1197,1181,1152],"ymouse":[505,505,505,505,505,505,505,505,505,505,505,505,505,505,505,505,505,505,505,505,505,505,501,497,479,476,475,475,475,475,475,475,475,475,475,475,475,475,475,475,475,475,475,475,475,475,475,475,475,475,475,475,475,475,475,475,475,475,475,475,475,475,475,475,475,475,475,475,475,475,475,475,475,475,475,475,475,475,475,475,475,475,475,475,475,475,475,475,475,475,475,475,475,473,450,425,384,334,286,201,171,153,143,140,140,140,140,139,133,126,122,115,108,99],"timestamp_mouse":[12,35,45,67,86,106,126,147,167,187,205,226,247,266,287,306,327,347,367,387,407,427,446,467,487,506,526,547,567,586,607,626,647,667,686,707,726,746,767,786,807,827,846,866,886,906,927,947,966,987,1006,1027,1046,1066,1086,1107,1126,1147,1165,1187,1207,1226,1247,1267,1286,1306,1326,1346,1367,1386,1407,1427,1447,1467,1486,1506,1527,1545,1566,1587,1607,1626,1645,1665,1685,1707,1727,1747,1767,1785,1807,1826,1846,1866,1886,1906,1927,1946,1966,1986,2007,2026,2047,2066,2085,2107,2127,2146,2167,2185,2206,2226,2246,2268],"xSR":741.5,"ySR":469.95,"xT1":424.9,"yT1":0,"xT2":1058.1,"yT2":0,"toosoon":0,"cond_shown":"Incongruent","ratio_trial":200,"L_num":1,"L_den":2,"R_num":3,"R_den":10,"correct_side":1,"subjID":"TOMASRAMIREZ10","gender":"0","school":"4","age":"8"},{"start_time":1552073267908,"click_time":1552073270097,"finger_time":1552073269617,"fix_duration":250,"trial":37,"RT":1709,"MT":480,"sideResp":1,"stimulus":[],"xmouse":[802,802,802,802,802,802,802,802,802,802,802,802,802,802,802,802,802,802,802,802,802,803,804,804,804,804,804,805,805,805,805,805,805,805,805,805,805,805,805,805,805,805,805,805,805,805,805,805,805,805,805,805,805,805,805,805,805,805,805,805,805,805,805,805,805,805,805,805,805,805,805,805,805,805,805,805,805,805,805,805,805,805,805,805,799,752,706,665,641,622,612,611,611,611,611,610,610,608,606,603,593,587,577,567,546,518,504,495,491,490],"ymouse":[509,509,509,509,509,509,509,509,509,509,509,509,509,509,509,509,509,509,509,509,509,509,509,509,509,509,509,508,508,508,508,506,506,505,505,505,505,505,505,505,505,505,505,505,505,505,505,505,505,505,505,505,505,505,505,505,505,505,505,505,505,505,505,505,505,505,505,505,505,505,505,505,505,505,505,505,505,505,505,505,505,505,505,501,497,422,345,271,228,194,166,165,165,165,165,160,156,151,145,141,132,130,127,125,121,112,107,103,100,99],"timestamp_mouse":[9,34,50,69,89,109,130,150,170,190,210,229,250,270,290,310,329,350,370,390,409,428,449,469,490,509,530,549,569,589,609,629,649,670,689,710,728,749,770,789,809,829,850,869,888,908,930,949,970,990,1009,1029,1050,1070,1089,1109,1130,1150,1170,1190,1208,1229,1249,1270,1290,1309,1329,1350,1368,1389,1409,1429,1450,1469,1489,1509,1529,1550,1569,1589,1609,1629,1648,1669,1689,1709,1736,1749,1770,1789,1809,1828,1850,1869,1889,1909,1928,1949,1970,1990,2010,2029,2049,2068,2089,2109,2129,2149,2170,2189],"xSR":741.5,"ySR":469.95,"xT1":424.9,"yT1":0,"xT2":1058.1,"yT2":0,"toosoon":0,"cond_shown":"Incongruent","ratio_trial":100,"L_num":8,"L_den":16,"R_num":6,"R_den":10,"correct_side":2,"subjID":"TOMASRAMIREZ10","gender":"0","school":"4","age":"8"},{"start_time":1552073272978,"click_time":1552073274077,"finger_time":1552073273419,"fix_duration":280.9885283081086,"trial":38,"RT":441,"MT":658,"sideResp":2,"stimulus":[],"xmouse":[799,799,799,799,799,799,807,816,817,818,818,818,818,818,818,818,818,818,818,818,822,883,955,1022,1064,1082,1085,1088,1097,1104,1117,1130,1158,1163,1165,1165,1165,1164,1158,1150,1143,1136,1126,1123,1122,1122,1122,1120,1118,1117,1116,1116,1116,1118,1120],"ymouse":[495,495,495,495,495,495,495,495,495,495,495,495,495,495,495,495,495,495,495,495,494,471,444,429,416,408,405,396,378,361,338,311,263,249,241,237,232,222,212,201,192,184,171,168,167,166,166,163,158,152,143,133,111,102,97],"timestamp_mouse":[19,41,60,80,99,120,140,159,181,200,219,240,259,280,300,320,340,360,379,400,420,441,459,479,499,519,539,559,579,599,619,639,659,681,699,720,739,759,780,799,820,840,860,879,899,920,940,959,979,999,1020,1039,1060,1079,1099],"xSR":741.5,"ySR":469.95,"xT1":424.9,"yT1":0,"xT2":1058.1,"yT2":0,"toosoon":0,"cond_shown":"Incongruent","ratio_trial":100,"L_num":6,"L_den":12,"R_num":3,"R_den":5,"correct_side":2,"subjID":"TOMASRAMIREZ10","gender":"0","school":"4","age":"8"},{"start_time":1552073278429,"click_time":1552073280239,"finger_time":1552073279597,"fix_duration":1428.71444319372,"trial":39,"RT":1168,"MT":642,"sideResp":1,"stimulus":[],"xmouse":[795,795,795,795,795,795,795,795,795,795,795,795,795,795,795,795,795,795,795,795,795,795,795,795,795,795,795,795,795,795,795,795,795,795,795,795,795,795,795,795,795,795,795,795,795,795,795,795,795,795,795,795,795,795,795,788,778,767,756,745,727,719,711,701,692,664,650,638,626,614,585,569,554,541,532,531,529,529,529,529,529,529,529,529,529,529,529,529,529,528,516],"ymouse":[524,524,524,524,524,524,524,524,524,524,524,524,524,524,524,524,524,524,524,524,524,524,524,524,524,524,524,524,524,524,524,524,524,524,524,524,524,524,524,524,524,524,524,524,524,524,524,524,524,524,524,524,524,524,524,507,490,470,452,433,399,382,363,339,317,257,232,210,190,174,131,114,100,91,87,86,86,86,86,86,86,86,86,86,86,86,86,86,86,85,82],"timestamp_mouse":[10,28,49,68,88,108,129,150,168,188,208,228,248,268,288,308,328,349,370,390,408,430,448,468,488,508,529,548,570,588,609,628,649,668,688,708,729,749,769,789,809,829,849,869,889,909,928,948,969,988,1008,1028,1048,1069,1090,1109,1129,1148,1168,1188,1209,1228,1248,1268,1288,1308,1328,1349,1368,1388,1410,1428,1448,1468,1488,1509,1529,1549,1569,1588,1609,1628,1648,1668,1688,1709,1728,1748,1769,1789,1809],"xSR":741.5,"ySR":469.95,"xT1":424.9,"yT1":0,"xT2":1058.1,"yT2":0,"toosoon":0,"cond_shown":"Congruent","ratio_trial":200,"L_num":8,"L_den":15,"R_num":7,"R_den":21,"correct_side":1,"subjID":"TOMASRAMIREZ10","gender":"0","school":"4","age":"8"},{"start_time":1552073282909,"click_time":1552073284557,"finger_time":1552073284257,"fix_duration":309.3513588849338,"trial":40,"RT":1348,"MT":300,"sideResp":2,"stimulus":[],"xmouse":[776,776,776,776,776,776,776,776,776,776,776,776,776,776,776,776,776,776,776,776,776,776,776,776,776,776,776,776,776,776,776,776,776,776,776,776,776,776,776,776,776,776,776,776,776,776,776,776,776,776,776,776,776,776,776,776,776,776,776,776,776,776,776,779,786,801,823,852,858,861,862,862,862,863,863,864,865,884,904,932,976,1022,1102],"ymouse":[504,504,504,504,504,504,504,504,504,504,504,504,504,504,504,504,504,504,504,504,504,504,504,504,504,504,504,504,504,504,504,504,504,504,504,504,504,504,504,504,504,504,504,504,504,504,504,504,504,504,504,504,504,504,504,504,504,504,504,504,504,504,504,503,501,498,492,481,478,477,477,476,476,475,475,473,468,415,366,304,224,139,22],"timestamp_mouse":[14,39,49,68,88,109,128,148,168,188,209,228,249,270,288,308,328,349,369,390,409,429,449,468,488,509,528,550,569,588,609,628,649,670,689,709,728,749,768,788,808,828,849,868,890,909,928,949,968,989,1008,1030,1049,1069,1089,1109,1129,1150,1168,1189,1208,1228,1248,1268,1289,1308,1329,1348,1369,1388,1408,1429,1448,1470,1489,1508,1529,1549,1568,1588,1609,1628,1648],"xSR":741.5,"ySR":469.95,"xT1":424.9,"yT1":0,"xT2":1058.1,"yT2":0,"toosoon":0,"cond_shown":"Incongruent","ratio_trial":300,"L_num":13,"L_den":26,"R_num":12,"R_den":15,"correct_side":2,"subjID":"TOMASRAMIREZ10","gender":"0","school":"4","age":"8"},{"start_time":1552073286772,"click_time":1552073288058,"finger_time":1552073287297,"fix_duration":752.0540831466612,"trial":41,"RT":525,"MT":761,"sideResp":2,"stimulus":[],"xmouse":[804,804,804,804,804,804,804,804,804,804,804,804,804,804,804,804,804,804,804,804,804,804,804,804,803,808,813,816,820,820,820,820,820,820,820,820,820,820,820,830,839,850,867,886,955,983,1007,1025,1042,1064,1071,1076,1079,1083,1095,1099,1103,1104,1104,1104,1104,1106,1110,1117,1125],"ymouse":[498,498,498,498,498,498,498,498,498,498,498,498,498,498,498,498,498,498,498,498,498,498,498,498,492,479,467,457,451,449,449,449,449,449,449,449,449,449,449,434,420,403,383,361,295,270,249,235,221,199,190,184,178,171,155,149,144,141,141,141,139,136,125,109,91],"timestamp_mouse":[8,25,45,66,85,106,126,146,166,185,206,226,246,265,285,306,326,345,366,385,405,425,445,465,485,506,525,546,566,586,606,625,645,665,686,707,726,745,766,786,805,825,846,865,885,906,925,945,966,986,1006,1026,1045,1065,1086,1105,1125,1145,1166,1186,1205,1225,1245,1266,1285],"xSR":741.5,"ySR":469.95,"xT1":424.9,"yT1":0,"xT2":1058.1,"yT2":0,"toosoon":0,"cond_shown":"Incongruent","ratio_trial":300,"L_num":13,"L_den":26,"R_num":12,"R_den":15,"correct_side":2,"subjID":"TOMASRAMIREZ10","gender":"0","school":"4","age":"8"},{"start_time":1552073289589,"click_time":1552073292477,"finger_time":1552073292138,"fix_duration":250,"trial":42,"RT":2549,"MT":339,"sideResp":2,"stimulus":[],"xmouse":[803,803,803,803,803,803,803,803,803,803,803,803,803,803,803,803,803,803,803,803,803,803,803,803,803,803,803,803,803,803,803,803,803,803,803,803,803,803,803,803,803,803,803,803,803,803,803,803,803,803,803,803,803,803,803,803,803,803,803,803,803,803,803,803,803,803,803,803,803,803,803,803,803,803,803,803,803,803,803,803,803,803,803,803,803,803,803,803,803,803,803,803,803,803,803,803,803,803,803,803,803,803,803,803,803,803,803,803,803,803,803,803,803,803,803,803,803,803,803,803,803,803,803,803,803,803,809,818,831,861,879,897,919,946,989,1006,1014,1018,1019,1019,1019,1020,1023,1032,1063],"ymouse":[505,505,505,505,505,505,505,505,505,505,505,505,505,505,505,505,505,505,505,505,505,505,505,505,505,505,505,505,505,505,505,505,505,505,505,505,505,505,505,505,505,505,505,505,505,505,505,505,505,505,505,505,505,505,505,505,505,505,505,505,505,505,505,505,505,505,505,505,505,505,505,505,505,505,505,505,505,505,505,505,505,505,505,505,505,505,505,505,505,505,505,505,505,505,505,505,505,505,505,505,505,505,505,505,505,505,505,505,505,505,505,505,505,505,505,505,505,505,505,505,505,505,505,505,504,495,476,459,440,399,371,338,299,249,146,108,88,76,72,70,70,69,66,60,45],"timestamp_mouse":[11,33,49,69,89,108,129,148,169,189,209,229,249,268,289,308,328,348,369,388,410,429,449,469,488,508,528,548,570,589,608,629,649,669,690,710,729,749,769,789,810,829,848,869,888,910,929,949,969,988,1009,1028,1048,1069,1089,1109,1128,1148,1169,1189,1209,1229,1249,1269,1289,1309,1330,1349,1369,1389,1409,1429,1448,1468,1489,1509,1528,1549,1568,1588,1608,1628,1648,1668,1689,1710,1728,1749,1768,1790,1808,1829,1849,1868,1889,1909,1928,1948,1969,1990,2009,2029,2050,2069,2089,2108,2129,2148,2168,2189,2210,2229,2248,2268,2288,2309,2330,2349,2368,2388,2410,2429,2449,2469,2489,2509,2529,2549,2569,2588,2609,2628,2648,2669,2689,2708,2728,2748,2768,2788,2809,2829,2848,2868,2888],"xSR":741.5,"ySR":469.95,"xT1":424.9,"yT1":0,"xT2":1058.1,"yT2":0,"toosoon":0,"cond_shown":"Incongruent","ratio_trial":100,"L_num":9,"L_den":15,"R_num":13,"R_den":26,"correct_side":1,"subjID":"TOMASRAMIREZ10","gender":"0","school":"4","age":"8"},{"start_time":1552073294537,"click_time":1552073296258,"finger_time":1552073295717,"fix_duration":859.6158162282051,"trial":43,"RT":1180,"MT":541,"sideResp":2,"stimulus":[],"xmouse":[827,827,827,827,827,827,827,827,827,827,827,827,827,827,827,827,827,827,827,827,827,827,827,827,827,827,827,827,827,827,827,827,827,827,827,827,827,827,827,827,827,827,827,827,827,827,827,827,827,827,827,827,827,827,827,827,827,828,836,859,909,920,953,955,955,955,955,957,959,963,970,984,1013,1037,1058,1077,1087,1093,1095,1097,1098,1103,1113,1118,1123,1126,1137],"ymouse":[531,531,531,531,531,531,531,531,531,531,531,531,531,531,531,531,531,531,531,531,531,531,531,531,531,531,531,531,531,531,531,531,531,531,531,531,531,531,531,531,531,531,531,531,531,531,531,531,531,531,531,531,531,531,531,531,531,532,517,476,386,370,332,330,330,330,330,328,326,322,318,307,283,266,252,241,235,227,223,219,215,207,183,165,141,100,19],"timestamp_mouse":[11,20,40,60,81,100,121,141,160,182,200,220,240,260,282,301,320,340,361,380,401,420,440,461,481,500,521,540,560,582,601,621,640,661,680,702,721,742,760,781,801,821,840,861,882,901,921,940,961,981,1001,1021,1041,1061,1080,1101,1120,1140,1160,1180,1200,1220,1241,1260,1280,1300,1321,1341,1362,1382,1401,1421,1440,1460,1481,1501,1520,1541,1560,1580,1601,1620,1644,1660,1681,1700,1721],"xSR":741.5,"ySR":469.95,"xT1":424.9,"yT1":0,"xT2":1058.1,"yT2":0,"toosoon":0,"cond_shown":"Congruent","ratio_trial":200,"L_num":7,"L_den":15,"R_num":18,"R_den":27,"correct_side":2,"subjID":"TOMASRAMIREZ10","gender":"0","school":"4","age":"8"},{"start_time":1552073298012,"click_time":1552073299479,"finger_time":1552073298958,"fix_duration":733.2656855447356,"trial":44,"RT":946,"MT":521,"sideResp":1,"stimulus":[],"xmouse":[795,795,795,795,795,795,795,795,795,795,795,795,795,795,795,795,795,795,795,795,795,795,795,795,795,795,795,795,795,795,795,795,795,795,795,795,795,795,795,796,798,798,798,798,799,802,805,808,818,819,819,819,819,810,801,792,783,772,744,727,707,707,707,707,707,707,707,707,707,707,707,707,528,521],"ymouse":[537,537,537,537,537,537,537,537,537,537,537,537,537,537,537,537,537,537,537,537,537,537,537,537,537,537,537,537,537,537,537,537,537,537,537,537,537,537,537,535,529,528,528,528,524,508,493,468,377,321,272,239,213,179,157,143,125,105,59,32,2,2,2,2,2,2,2,2,2,2,2,2,22,52],"timestamp_mouse":[13,36,45,66,86,105,125,146,166,185,206,225,245,266,287,307,326,346,365,386,405,425,446,467,486,505,526,545,566,585,605,626,645,665,686,707,727,745,766,785,806,826,847,866,885,905,926,946,967,985,1006,1025,1045,1067,1085,1107,1126,1146,1167,1185,1205,1225,1246,1267,1285,1305,1325,1345,1365,1385,1407,1426,1447,1467],"xSR":741.5,"ySR":469.95,"xT1":424.9,"yT1":0,"xT2":1058.1,"yT2":0,"toosoon":0,"cond_shown":"Congruent","ratio_trial":100,"L_num":9,"L_den":15,"R_num":8,"R_den":16,"correct_side":1,"subjID":"TOMASRAMIREZ10","gender":"0","school":"4","age":"8"},{"start_time":1552073301602,"click_time":1552073302699,"finger_time":1552073302197,"fix_duration":842.0248703184282,"trial":45,"RT":595,"MT":502,"sideResp":2,"stimulus":[],"xmouse":[762,762,762,762,762,762,762,762,762,762,762,762,762,762,762,762,762,762,762,762,762,762,762,762,772,780,791,803,816,850,870,895,936,991,1032,1041,1044,1047,1049,1051,1052,1052,1052,1052,1052,1052,1052,1052,1052,1052,1052,1052,1052,1052,1084],"ymouse":[514,514,514,514,514,514,514,514,514,514,514,514,514,514,514,514,514,514,514,514,514,514,514,514,512,509,504,499,490,467,444,406,329,202,58,33,19,12,10,4,1,1,1,1,1,1,1,1,1,1,1,1,1,1,79],"timestamp_mouse":[15,44,56,76,96,115,136,156,175,195,215,236,255,277,297,316,336,356,375,396,416,436,456,475,495,516,536,555,575,595,616,635,655,676,696,715,735,755,775,796,816,836,855,875,895,915,936,955,975,996,1015,1037,1056,1076,1096],"xSR":741.5,"ySR":469.95,"xT1":424.9,"yT1":0,"xT2":1058.1,"yT2":0,"toosoon":0,"cond_shown":"Incongruent","ratio_trial":300,"L_num":13,"L_den":26,"R_num":12,"R_den":15,"correct_side":2,"subjID":"TOMASRAMIREZ10","gender":"0","school":"4","age":"8"},{"start_time":1552073305404,"click_time":1552073307599,"finger_time":1552073306458,"fix_duration":1244.7400961523508,"trial":46,"RT":1054,"MT":1141,"sideResp":2,"stimulus":[],"xmouse":[763,763,763,763,763,763,763,763,763,763,763,763,763,763,763,763,763,763,763,763,763,763,763,763,763,763,763,763,763,763,763,763,763,763,763,763,763,763,763,763,763,763,763,763,763,763,764,768,778,802,817,834,854,866,888,901,914,926,933,939,952,957,959,965,968,976,978,980,983,989,1001,1008,1010,1011,1011,1011,1011,1011,1011,1011,1011,1011,1011,1011,1011,1011,1011,1013,1018,1028,1058,1078,1087,1093,1099,1100,1102,1103,1103,1103,1103,1103,1103,1103,1103,1103,1103,1103,1103,1106],"ymouse":[501,501,501,501,501,501,501,501,501,501,501,501,501,501,501,501,501,501,501,501,501,501,501,501,501,501,501,501,501,501,501,501,501,501,501,501,501,501,501,501,501,501,501,501,501,501,501,500,498,491,487,482,473,464,437,413,385,361,342,327,307,298,295,286,281,269,266,261,255,247,228,218,214,213,213,213,213,213,213,213,213,213,213,213,213,213,213,210,205,194,159,134,124,115,107,105,102,101,100,100,100,100,100,100,100,100,100,100,100,93],"timestamp_mouse":[19,35,54,73,94,113,134,154,175,194,214,235,254,274,293,313,333,354,373,393,415,433,454,473,493,513,533,553,573,594,613,633,653,673,694,713,733,755,775,794,814,834,853,873,894,915,934,954,974,994,1013,1034,1054,1074,1095,1113,1133,1153,1173,1193,1213,1233,1254,1273,1293,1313,1334,1353,1373,1395,1413,1433,1453,1473,1495,1514,1533,1553,1574,1594,1613,1634,1655,1673,1694,1713,1733,1754,1773,1794,1815,1835,1854,1873,1894,1913,1933,1954,1973,1993,2014,2034,2055,2074,2094,2113,2133,2154,2174,2194],"xSR":741.5,"ySR":469.95,"xT1":424.9,"yT1":0,"xT2":1058.1,"yT2":0,"toosoon":0,"cond_shown":"Congruent","ratio_trial":100,"L_num":10,"L_den":25,"R_num":3,"R_den":10,"correct_side":1,"subjID":"TOMASRAMIREZ10","gender":"0","school":"4","age":"8"},{"start_time":1552073309095,"click_time":1552073310417,"finger_time":1552073309758,"fix_duration":536.003172837894,"trial":47,"RT":663,"MT":659,"sideResp":1,"stimulus":[],"xmouse":[781,781,781,781,781,781,781,781,781,781,781,781,781,781,781,781,781,781,781,781,781,781,781,781,781,781,781,781,781,781,781,778,771,763,752,740,714,698,690,682,674,658,648,639,632,624,612,610,606,604,603,595,587,581,573,566,549,545,540,535,529,519,516,514,513,513,513],"ymouse":[507,507,507,507,507,507,507,507,507,507,507,507,507,507,507,507,507,507,507,507,507,507,507,507,507,507,507,507,507,507,507,504,487,469,451,431,394,373,361,349,336,299,278,258,238,221,197,192,189,187,186,180,175,170,166,162,153,150,145,140,134,124,119,114,110,106,95],"timestamp_mouse":[13,32,42,63,83,104,123,142,162,182,203,222,242,263,283,302,324,343,362,382,403,424,443,462,482,502,523,542,562,582,602,623,642,663,683,702,722,743,763,783,803,822,842,863,883,902,922,942,963,982,1002,1022,1042,1063,1083,1104,1122,1142,1163,1183,1203,1223,1242,1262,1282,1302,1322],"xSR":741.5,"ySR":469.95,"xT1":424.9,"yT1":0,"xT2":1058.1,"yT2":0,"toosoon":0,"cond_shown":"Congruent","ratio_trial":100,"L_num":7,"L_den":14,"R_num":9,"R_den":15,"correct_side":2,"subjID":"TOMASRAMIREZ10","gender":"0","school":"4","age":"8"},{"start_time":1552073312328,"click_time":1552073314098,"finger_time":1552073313458,"fix_duration":969.3480430729711,"trial":48,"RT":1130,"MT":640,"sideResp":1,"stimulus":[],"xmouse":[769,769,769,769,769,769,769,769,769,769,769,769,769,769,769,769,769,769,769,769,769,769,771,772,776,777,778,779,781,789,792,794,794,794,794,794,794,794,794,794,794,794,794,794,794,794,794,794,794,794,794,794,794,794,788,778,767,746,715,654,609,598,581,572,571,571,571,571,571,571,571,571,569,568,568,568,566,564,562,560,556,554,551,545,538,509,494,479,471],"ymouse":[541,541,541,541,541,541,541,541,541,541,541,541,541,541,541,541,541,541,541,541,538,537,534,530,523,522,521,518,516,510,508,508,508,508,508,508,508,508,508,508,508,508,508,508,508,508,508,508,508,508,508,508,507,501,488,478,469,456,438,407,387,382,373,366,364,362,359,352,344,313,292,265,239,205,184,156,146,140,134,131,126,125,123,122,120,111,107,101,97],"timestamp_mouse":[9,29,50,69,90,110,130,151,169,189,209,231,250,270,290,309,330,350,369,391,409,430,450,470,489,509,530,550,570,589,609,629,650,669,689,710,729,750,769,789,810,830,850,870,889,910,929,949,971,990,1009,1030,1051,1070,1089,1110,1130,1150,1170,1190,1210,1229,1249,1269,1289,1310,1330,1350,1369,1389,1409,1430,1449,1470,1489,1510,1530,1549,1569,1589,1609,1629,1649,1670,1689,1709,1730,1750,1770],"xSR":741.5,"ySR":469.95,"xT1":424.9,"yT1":0,"xT2":1058.1,"yT2":0,"toosoon":0,"cond_shown":"Incongruent","ratio_trial":200,"L_num":1,"L_den":3,"R_num":2,"R_den":15,"correct_side":1,"subjID":"TOMASRAMIREZ10","gender":"0","school":"4","age":"8"},{"start_time":1552073315730,"click_time":1552073317637,"finger_time":1552073316777,"fix_duration":750.0472949522482,"trial":49,"RT":1047,"MT":860,"sideResp":1,"stimulus":[],"xmouse":[761,761,761,761,761,761,761,761,761,761,761,761,761,761,761,761,761,761,761,761,761,761,761,761,761,761,761,761,761,761,761,761,761,761,761,761,761,761,761,761,761,761,761,761,761,761,761,761,761,761,762,766,771,773,774,774,774,773,771,768,737,698,671,648,631,616,614,614,614,614,612,607,603,600,599,597,596,595,593,587,572,554,544,536,528,524,524,524,523,522,522,521,520,519,517,515],"ymouse":[513,513,513,513,513,513,513,513,513,513,513,513,513,513,513,513,513,513,513,513,513,513,513,513,513,513,513,513,513,513,513,513,513,513,513,513,513,513,513,513,513,513,513,513,513,513,513,513,513,513,505,476,441,411,386,383,382,382,380,377,367,354,342,329,316,294,287,276,266,251,217,195,186,179,176,173,172,171,169,164,156,146,139,133,128,125,125,125,123,121,118,114,112,109,102,97],"timestamp_mouse":[13,39,47,67,88,108,127,148,168,188,207,229,248,269,287,308,328,347,367,388,408,427,448,467,489,507,528,549,567,588,608,628,647,668,687,708,727,747,767,788,807,829,848,867,889,909,927,948,968,988,1007,1027,1047,1068,1089,1107,1127,1147,1168,1187,1207,1228,1247,1267,1288,1307,1328,1349,1368,1387,1408,1428,1447,1467,1488,1507,1527,1547,1568,1588,1607,1628,1647,1668,1688,1707,1727,1748,1768,1788,1807,1827,1848,1868,1889,1907],"xSR":741.5,"ySR":469.95,"xT1":424.9,"yT1":0,"xT2":1058.1,"yT2":0,"toosoon":0,"cond_shown":"Incongruent","ratio_trial":300,"L_num":8,"L_den":10,"R_num":9,"R_den":18,"correct_side":1,"subjID":"TOMASRAMIREZ10","gender":"0","school":"4","age":"8"},{"start_time":1552073320113,"click_time":1552073321777,"finger_time":1552073321678,"fix_duration":1492.6721797018367,"trial":50,"RT":1565,"MT":99,"sideResp":1,"stimulus":[],"xmouse":[757,757,757,757,757,757,757,757,757,757,757,757,757,757,757,757,757,757,757,757,757,757,757,757,757,757,757,757,757,757,757,757,757,757,757,757,757,757,757,757,757,757,757,757,757,757,757,757,757,757,757,757,757,757,757,757,757,757,757,757,757,757,757,757,757,757,757,757,759,760,761,761,761,761,761,762,764,765,764,740,712,615,541,466],"ymouse":[522,522,522,522,522,522,522,522,522,522,522,522,522,522,522,522,522,522,522,522,522,522,522,522,522,522,522,522,522,522,522,522,522,522,522,522,522,522,522,522,522,522,522,522,522,522,522,522,522,522,522,522,522,522,522,522,522,522,522,522,522,522,522,522,522,522,522,522,521,520,520,520,520,520,520,518,504,488,463,392,339,210,136,72],"timestamp_mouse":[12,38,45,65,84,104,124,146,166,186,205,224,246,264,285,305,324,345,364,384,404,426,444,464,486,505,524,544,564,584,606,624,644,665,685,706,724,744,764,785,804,826,844,865,885,904,924,944,965,986,1005,1025,1045,1064,1085,1105,1124,1145,1165,1184,1204,1224,1244,1266,1284,1304,1325,1345,1364,1385,1406,1425,1445,1466,1486,1505,1524,1545,1565,1585,1604,1625,1644,1664],"xSR":741.5,"ySR":469.95,"xT1":424.9,"yT1":0,"xT2":1058.1,"yT2":0,"toosoon":0,"cond_shown":"Congruent","ratio_trial":200,"L_num":8,"L_den":15,"R_num":2,"R_den":6,"correct_side":1,"subjID":"TOMASRAMIREZ10","gender":"0","school":"4","age":"8"},{"start_time":1552073330627,"click_time":1552073332577,"finger_time":1552073331458,"fix_duration":1246.350221253114,"trial":51,"RT":831,"MT":1119,"sideResp":2,"stimulus":[],"xmouse":[799,799,799,799,799,799,799,799,799,799,799,799,799,799,799,799,799,799,799,799,799,799,799,799,799,799,799,799,799,799,799,799,799,799,799,799,799,800,800,799,797,792,792,792,792,792,794,797,797,797,797,797,797,797,797,797,797,797,797,797,797,814,835,860,888,918,958,961,961,961,961,961,965,970,977,985,1001,1012,1022,1027,1033,1035,1036,1037,1040,1043,1045,1053,1061,1064,1066,1067,1068,1070,1077,1091,1105,1126],"ymouse":[514,514,514,514,514,514,514,514,514,514,514,514,514,514,514,514,514,514,514,514,514,514,514,514,514,514,514,514,514,514,514,514,514,514,514,514,514,510,496,484,473,454,434,414,400,391,383,374,374,374,374,374,374,374,374,374,374,374,374,374,372,372,372,372,372,372,372,372,372,372,372,372,366,357,345,330,296,278,257,240,222,211,208,203,197,190,182,160,144,139,135,128,127,123,117,110,105,98],"timestamp_mouse":[13,38,51,71,92,112,131,150,171,190,210,230,251,271,291,310,330,351,370,391,411,430,451,471,490,510,530,552,570,591,611,630,652,671,690,711,731,751,771,790,811,831,850,870,890,910,931,952,970,991,1012,1030,1051,1070,1092,1111,1131,1150,1170,1192,1211,1232,1252,1271,1291,1311,1332,1350,1370,1390,1411,1431,1452,1470,1490,1511,1532,1550,1570,1591,1610,1631,1651,1671,1691,1712,1730,1751,1770,1791,1810,1831,1850,1871,1891,1911,1930,1950],"xSR":741.5,"ySR":469.95,"xT1":424.9,"yT1":0,"xT2":1058.1,"yT2":0,"toosoon":0,"cond_shown":"Incongruent","ratio_trial":200,"L_num":4,"L_den":6,"R_num":14,"R_den":30,"correct_side":1,"subjID":"TOMASRAMIREZ10","gender":"0","school":"4","age":"8"},{"start_time":1552073335157,"click_time":1552073335761,"finger_time":1552073335617,"fix_duration":1437.6698033584216,"trial":52,"RT":460,"MT":144,"sideResp":1,"stimulus":[],"xmouse":[804,804,804,804,804,804,804,804,804,804,804,804,804,804,804,804,804,804,804,804,804,803,777,713,641,590,530,514,507,504,502],"ymouse":[520,520,520,520,520,520,520,520,520,520,520,520,520,520,520,520,520,520,520,520,520,520,494,414,328,250,156,130,117,106,93],"timestamp_mouse":[11,34,42,61,82,100,122,141,162,182,202,222,241,260,280,300,322,340,362,382,401,421,440,460,480,500,521,542,561,581,603],"xSR":741.5,"ySR":469.95,"xT1":424.9,"yT1":0,"xT2":1058.1,"yT2":0,"toosoon":0,"cond_shown":"Incongruent","ratio_trial":100,"L_num":3,"L_den":6,"R_num":4,"R_den":10,"correct_side":1,"subjID":"TOMASRAMIREZ10","gender":"0","school":"4","age":"8"},{"start_time":1552073337150,"click_time":1552073339078,"finger_time":1552073338618,"fix_duration":250,"trial":53,"RT":1468,"MT":460,"sideResp":1,"stimulus":[],"xmouse":[801,801,801,801,801,801,801,801,801,801,801,801,801,801,801,801,801,801,801,801,801,801,801,801,801,801,801,801,801,801,801,801,801,801,801,801,801,801,801,801,801,801,801,801,801,801,801,801,801,801,801,801,801,801,801,801,801,801,801,801,801,801,801,801,801,801,801,801,801,801,801,793,779,756,725,691,602,551,525,511,505,500,499,498,498,498,498,498,498,498,498,499,499,499,499,499,500],"ymouse":[510,510,510,510,510,510,510,510,510,510,510,510,510,510,510,510,510,510,510,510,510,510,510,510,510,510,510,510,510,510,510,510,510,510,510,510,510,510,510,510,510,510,510,510,510,510,510,510,510,510,510,510,510,510,510,510,510,510,510,510,510,510,510,510,510,510,510,510,510,510,509,494,475,449,412,372,253,196,167,151,140,130,128,125,124,123,120,120,120,119,119,118,116,114,109,104,83],"timestamp_mouse":[7,40,48,68,89,109,128,149,167,188,209,227,249,269,287,308,329,349,367,388,407,427,449,469,487,508,529,547,569,589,608,627,649,667,688,709,729,747,769,789,808,827,849,869,887,908,928,949,968,988,1008,1027,1049,1069,1087,1109,1129,1147,1167,1188,1209,1227,1247,1269,1289,1308,1327,1348,1369,1387,1408,1428,1448,1468,1488,1509,1528,1548,1567,1587,1608,1628,1648,1668,1689,1708,1728,1747,1768,1788,1808,1828,1848,1868,1888,1907,1928],"xSR":741.5,"ySR":469.95,"xT1":424.9,"yT1":0,"xT2":1058.1,"yT2":0,"toosoon":0,"cond_shown":"Congruent","ratio_trial":200,"L_num":4,"L_den":8,"R_num":3,"R_den":10,"correct_side":1,"subjID":"TOMASRAMIREZ10","gender":"0","school":"4","age":"8"},{"start_time":1552073342267,"click_time":1552073343637,"finger_time":1552073343397,"fix_duration":807.4846282833324,"trial":54,"RT":1130,"MT":240,"sideResp":2,"stimulus":[],"xmouse":[829,829,829,829,829,829,829,829,829,829,829,829,829,829,829,829,829,829,829,829,829,829,829,829,829,829,829,829,829,829,829,829,829,829,829,829,829,829,829,829,829,829,829,829,829,829,829,829,829,829,829,829,829,829,828,830,898,954,1001,1027,1043,1069,1079,1082,1084,1085,1085,1085,1087],"ymouse":[531,531,531,531,531,531,531,531,531,531,531,531,531,531,531,531,531,531,531,531,531,531,531,531,531,531,531,531,531,531,531,531,531,531,531,531,531,531,531,531,531,531,531,531,531,531,531,531,531,531,531,531,531,531,529,519,407,349,311,285,261,198,162,146,132,122,112,104,93],"timestamp_mouse":[13,43,51,71,92,111,131,151,170,190,210,231,251,270,290,311,332,350,370,390,412,432,450,470,491,511,530,550,572,592,612,632,651,671,692,712,731,751,771,792,812,831,850,872,892,911,931,951,972,990,1010,1032,1051,1071,1090,1112,1130,1152,1172,1190,1213,1230,1251,1270,1290,1311,1331,1351,1370],"xSR":741.5,"ySR":469.95,"xT1":424.9,"yT1":0,"xT2":1058.1,"yT2":0,"toosoon":0,"cond_shown":"Incongruent","ratio_trial":300,"L_num":4,"L_den":20,"R_num":2,"R_den":4,"correct_side":2,"subjID":"TOMASRAMIREZ10","gender":"0","school":"4","age":"8"},{"start_time":1552073345712,"click_time":1552073346998,"finger_time":1552073346538,"fix_duration":1052.1261636813106,"trial":55,"RT":826,"MT":460,"sideResp":2,"stimulus":[],"xmouse":[766,766,766,766,766,766,766,766,766,766,766,766,766,766,766,766,766,766,766,766,766,766,766,766,766,766,766,766,766,766,766,766,766,766,766,766,766,769,773,795,811,828,860,908,1023,1066,1089,1102,1108,1114,1117,1121,1128,1133,1136,1137,1137,1137,1137,1137,1137,1137,1136,1128,1103],"ymouse":[523,523,523,523,523,523,523,523,523,523,523,523,523,523,523,523,523,523,523,523,523,523,523,523,523,523,523,523,523,523,523,523,523,523,523,523,523,522,519,498,484,461,417,358,254,226,216,210,208,205,200,192,180,168,158,148,147,147,147,147,147,146,140,119,25],"timestamp_mouse":[13,37,46,65,85,105,127,146,166,186,206,225,247,266,285,305,326,347,366,385,406,425,445,467,486,505,525,546,565,587,607,625,645,665,685,707,727,746,767,786,806,826,846,866,885,905,925,946,966,986,1005,1025,1046,1066,1085,1105,1126,1146,1167,1187,1207,1226,1245,1266,1286],"xSR":741.5,"ySR":469.95,"xT1":424.9,"yT1