[{"start_time":1552069258625,"click_time":1552069259138,"finger_time":1552069258643,"fix_duration":1481.616633390909,"trial":0,"RT":18,"MT":495,"sideResp":2,"stimulus":"img/500/randomdotsizeEA/L/5_Ratio_500_L_4_R_2.png","xmouse":[769,769,769,769,769,769,769,769,769,769,769,769,769,769,769,777,809,895,925,1003,1056,1071,1080,1088,1094],"ymouse":[571,571,571,571,571,571,571,571,571,571,571,571,571,571,571,559,508,378,335,233,169,143,121,106,96],"timestamp_mouse":[18,55,73,94,114,134,154,173,193,214,234,252,273,293,313,333,353,373,394,413,434,453,474,494,513],"xSR":741.5,"ySR":500.5,"xT1":424.9,"yT1":0,"xT2":1058.1,"yT2":0,"toosoon":0,"cond_shown":"randomdotsizeEA","ratio_trial":500,"smaller_num":"2","larger_num":"4","correct_side":1,"subjID":"ValentinaGarzonCampos7","gender":"1","age":"8","school":"4","test":{"fix_dur":[250,1500],"timestim":300,"targets_dim":[100,100],"targets_relative_coord":[0.3,0.7],"size_stim":[880,420],"start_dim":[100,100],"size_start":[300,300],"size_fix":60,"samplingrate":20,"img_types":["equaldotsize","equaldotanddens","randomdotsizeEA"],"ratios":[250,500,750,900],"rep_conds":9,"nTrials":120,"trials_to_rest":500,"Trials_order":[17,11,76,75,37,5,52,44,39,34,84,46,48,40,97,109,41,2,9,79,117,85,20,65,54,94,87,57,24,110,27,69,14,19,43,50,90,49,12,101,36,80,82,67,92,47,21,31,30,33,29,113,15,70,119,74,77,106,112,23,38,116,73,13,3,61,6,91,62,18,71,63,66,60,0,95,22,114,105,118,103,78,1,55,108,83,51,96,25,28,42,7,64,32,81,68,8,89,104,35,72,107,56,115,111,58,99,86,45,93,98,53,26,100,59,88,4,16,10,102],"cond_shown":["randomdotsizeEA","randomdotsizeEA","equaldotanddens","equaldotsize","equaldotanddens","randomdotsizeEA","equaldotanddens","randomdotsizeEA","equaldotsize","equaldotanddens","equaldotsize","equaldotanddens","equaldotsize","equaldotanddens","equaldotanddens","equaldotanddens","randomdotsizeEA","randomdotsizeEA","equaldotsize","equaldotanddens","equaldotsize","equaldotanddens","randomdotsizeEA","randomdotsizeEA","equaldotsize","equaldotanddens","equaldotsize","equaldotsize","equaldotsize","randomdotsizeEA","equaldotsize","equaldotsize","randomdotsizeEA","equaldotanddens","equaldotanddens","randomdotsizeEA","equaldotsize","equaldotanddens","equaldotsize","randomdotsizeEA","equaldotsize","randomdotsizeEA","equaldotanddens","equaldotanddens","randomdotsizeEA","randomdotsizeEA","equaldotsize","equaldotanddens","equaldotsize","equaldotsize","randomdotsizeEA","randomdotsizeEA","equaldotsize","equaldotanddens","randomdotsizeEA","randomdotsizeEA","randomdotsizeEA","equaldotanddens","equaldotanddens","randomdotsizeEA","randomdotsizeEA","randomdotsizeEA","equaldotanddens","equaldotanddens","equaldotsize","equaldotanddens","equaldotsize","equaldotanddens","randomdotsizeEA","equaldotsize","randomdotsizeEA","equaldotsize","equaldotsize","equaldotsize","equaldotsize","randomdotsizeEA","equaldotanddens","equaldotsize","equaldotsize","equaldotanddens","equaldotanddens","equaldotsize","equaldotanddens","equaldotanddens","equaldotsize","randomdotsizeEA","equaldotsize","equaldotsize","equaldotanddens","equaldotanddens","equaldotsize","equaldotanddens","equaldotanddens","randomdotsizeEA","equaldotsize","randomdotsizeEA","randomdotsizeEA","randomdotsizeEA","randomdotsizeEA","randomdotsizeEA","equaldotsize","randomdotsizeEA","randomdotsizeEA","equaldotanddens","equaldotsize","equaldotanddens","equaldotsize","randomdotsizeEA","equaldotsize","equaldotsize","randomdotsizeEA","randomdotsizeEA","randomdotsizeEA","equaldotanddens","randomdotsizeEA","equaldotanddens","equaldotanddens","equaldotanddens","equaldotanddens","equaldotsize"],"ratio_trial":[500,900,500,500,250,500,500,750,500,900,250,900,250,500,250,250,500,250,900,750,900,250,750,500,750,900,500,900,250,250,500,900,250,750,750,250,750,250,250,500,250,750,900,750,750,900,900,750,750,900,500,500,500,900,900,250,500,900,500,900,250,750,250,250,500,250,750,750,250,750,900,500,750,250,250,900,900,750,900,900,750,750,250,750,250,900,500,250,250,500,750,750,500,750,900,750,750,500,750,900,250,900,750,750,500,900,500,250,900,900,250,500,250,500,900,500,500,500,900,750],"smaller_num":["2","18","3","5","3","3","6","15","10","18","6","9","3","3","4","6","1","5","18","15","18","3","9","6","3","9","3","9","5","2","5","18","3","15","12","3","3","6","4","2","3","12","18","3","9","18","9","3","15","9","2","3","2","18","9","5","2","9","6","18","3","3","4","2","3","4","15","3","6","3","18","2","3","4","1","18","18","12","9","18","15","15","3","3","3","9","5","3","6","2","3","15","2","3","9","6","6","1","15","18","1","9","9","15","2","18","9","3","9","18","6","1","3","5","9","6","1","6","18","6"],"larger_num":["4","20","6","10","12","6","12","20","20","20","24","10","12","6","16","24","2","20","20","20","20","12","12","12","4","10","6","10","20","8","10","20","12","20","16","12","4","24","16","4","12","16","20","4","12","20","10","4","20","10","4","6","4","20","10","20","4","10","12","20","12","4","16","8","6","16","20","4","24","4","20","4","4","16","4","20","20","16","10","20","20","20","12","4","12","10","10","12","24","4","4","20","4","4","10","8","8","2","20","20","4","10","12","20","4","20","18","12","10","20","24","2","12","10","10","12","2","12","20","8"],"correct_side":[1,1,2,2,1,2,1,2,2,1,1,2,1,2,2,1,2,2,2,2,1,2,2,1,1,2,2,2,2,2,1,2,2,2,2,2,1,2,1,1,2,2,1,2,2,2,2,2,2,2,1,2,1,2,1,2,1,2,1,2,2,1,1,2,2,2,1,1,1,2,2,1,1,2,2,1,2,2,2,1,2,1,1,1,2,1,1,2,1,1,1,2,1,1,2,2,1,2,2,2,2,1,2,2,1,2,1,2,2,2,2,2,2,2,1,1,2,1,1,1],"img_shown":["img/500/randomdotsizeEA/L/5_Ratio_500_L_4_R_2.png","img/900/randomdotsizeEA/L/2_Ratio_900_L_20_R_18.png","img/500/equaldotanddens/R/2_Ratio_500_L_3_R_6.png","img/500/equaldotsize/R/14_Ratio_500_L_5_R_10.png","img/250/equaldotanddens/L/14_Ratio_250_L_12_R_3.png","img/500/randomdotsizeEA/R/2_Ratio_500_L_3_R_6.png","img/500/equaldotanddens/L/11_Ratio_500_L_12_R_6.png","img/750/randomdotsizeEA/R/4_Ratio_750_L_15_R_20.png","img/500/equaldotsize/R/3_Ratio_500_L_10_R_20.png","img/900/equaldotanddens/L/10_Ratio_900_L_20_R_18.png","img/250/equaldotsize/L/5_Ratio_250_L_24_R_6.png","img/900/equaldotanddens/R/7_Ratio_900_L_9_R_10.png","img/250/equaldotsize/L/15_Ratio_250_L_12_R_3.png","img/500/equaldotanddens/R/2_Ratio_500_L_3_R_6.png","img/250/equaldotanddens/R/10_Ratio_250_L_4_R_16.png","img/250/equaldotanddens/L/5_Ratio_250_L_24_R_6.png","img/500/randomdotsizeEA/R/12_Ratio_500_L_1_R_2.png","img/250/randomdotsizeEA/R/12_Ratio_250_L_5_R_20.png","img/900/equaldotsize/R/13_Ratio_900_L_18_R_20.png","img/750/equaldotanddens/R/3_Ratio_750_L_15_R_20.png","img/900/equaldotsize/L/10_Ratio_900_L_20_R_18.png","img/250/equaldotanddens/R/9_Ratio_250_L_3_R_12.png","img/750/randomdotsizeEA/R/15_Ratio_750_L_9_R_12.png","img/500/randomdotsizeEA/L/13_Ratio_500_L_12_R_6.png","img/750/equaldotsize/L/9_Ratio_750_L_4_R_3.png","img/900/equaldotanddens/R/7_Ratio_900_L_9_R_10.png","img/500/equaldotsize/R/2_Ratio_500_L_3_R_6.png","img/900/equaldotsize/R/7_Ratio_900_L_9_R_10.png","img/250/equaldotsize/R/12_Ratio_250_L_5_R_20.png","img/250/randomdotsizeEA/R/13_Ratio_250_L_2_R_8.png","img/500/equaldotsize/L/7_Ratio_500_L_10_R_5.png","img/900/equaldotsize/R/13_Ratio_900_L_18_R_20.png","img/250/randomdotsizeEA/R/11_Ratio_250_L_3_R_12.png","img/750/equaldotanddens/R/5_Ratio_750_L_15_R_20.png","img/750/equaldotanddens/R/11_Ratio_750_L_12_R_16.png","img/250/randomdotsizeEA/R/4_Ratio_250_L_3_R_12.png","img/750/equaldotsize/L/10_Ratio_750_L_4_R_3.png","img/250/equaldotanddens/R/6_Ratio_250_L_6_R_24.png","img/250/equaldotsize/L/2_Ratio_250_L_16_R_4.png","img/500/randomdotsizeEA/L/10_Ratio_500_L_4_R_2.png","img/250/equaldotsize/R/9_Ratio_250_L_3_R_12.png","img/750/randomdotsizeEA/R/11_Ratio_750_L_12_R_16.png","img/900/equaldotanddens/L/8_Ratio_900_L_20_R_18.png","img/750/equaldotanddens/R/7_Ratio_750_L_3_R_4.png","img/750/randomdotsizeEA/R/15_Ratio_750_L_9_R_12.png","img/900/randomdotsizeEA/R/13_Ratio_900_L_18_R_20.png","img/900/equaldotsize/R/15_Ratio_900_L_9_R_10.png","img/750/equaldotanddens/R/12_Ratio_750_L_3_R_4.png","img/750/equaldotsize/R/4_Ratio_750_L_15_R_20.png","img/900/equaldotsize/R/6_Ratio_900_L_9_R_10.png","img/500/randomdotsizeEA/L/10_Ratio_500_L_4_R_2.png","img/500/randomdotsizeEA/R/2_Ratio_500_L_3_R_6.png","img/500/equaldotsize/L/10_Ratio_500_L_4_R_2.png","img/900/equaldotanddens/R/12_Ratio_900_L_18_R_20.png","img/900/randomdotsizeEA/L/1_Ratio_900_L_10_R_9.png","img/250/randomdotsizeEA/R/12_Ratio_250_L_5_R_20.png","img/500/randomdotsizeEA/L/10_Ratio_500_L_4_R_2.png","img/900/equaldotanddens/R/15_Ratio_900_L_9_R_10.png","img/500/equaldotanddens/L/11_Ratio_500_L_12_R_6.png","img/900/randomdotsizeEA/R/12_Ratio_900_L_18_R_20.png","img/250/randomdotsizeEA/R/11_Ratio_250_L_3_R_12.png","img/750/randomdotsizeEA/L/8_Ratio_750_L_4_R_3.png","img/250/equaldotanddens/L/2_Ratio_250_L_16_R_4.png","img/250/equaldotanddens/R/13_Ratio_250_L_2_R_8.png","img/500/equaldotsize/R/2_Ratio_500_L_3_R_6.png","img/250/equaldotanddens/R/10_Ratio_250_L_4_R_16.png","img/750/equaldotsize/L/1_Ratio_750_L_20_R_15.png","img/750/equaldotanddens/L/9_Ratio_750_L_4_R_3.png","img/250/randomdotsizeEA/L/5_Ratio_250_L_24_R_6.png","img/750/equaldotsize/R/12_Ratio_750_L_3_R_4.png","img/900/randomdotsizeEA/R/11_Ratio_900_L_18_R_20.png","img/500/equaldotsize/L/5_Ratio_500_L_4_R_2.png","img/750/equaldotsize/L/8_Ratio_750_L_4_R_3.png","img/250/equaldotsize/R/10_Ratio_250_L_4_R_16.png","img/250/equaldotsize/R/8_Ratio_250_L_1_R_4.png","img/900/randomdotsizeEA/L/2_Ratio_900_L_20_R_18.png","img/900/equaldotanddens/R/9_Ratio_900_L_18_R_20.png","img/750/equaldotsize/R/11_Ratio_750_L_12_R_16.png","img/900/equaldotsize/R/7_Ratio_900_L_9_R_10.png","img/900/equaldotanddens/L/8_Ratio_900_L_20_R_18.png","img/750/equaldotanddens/R/4_Ratio_750_L_15_R_20.png","img/750/equaldotsize/L/1_Ratio_750_L_20_R_15.png","img/250/equaldotanddens/L/14_Ratio_250_L_12_R_3.png","img/750/equaldotanddens/L/10_Ratio_750_L_4_R_3.png","img/250/equaldotsize/R/11_Ratio_250_L_3_R_12.png","img/900/randomdotsizeEA/L/1_Ratio_900_L_10_R_9.png","img/500/equaldotsize/L/7_Ratio_500_L_10_R_5.png","img/250/equaldotsize/R/9_Ratio_250_L_3_R_12.png","img/250/equaldotanddens/L/5_Ratio_250_L_24_R_6.png","img/500/equaldotanddens/L/10_Ratio_500_L_4_R_2.png","img/750/equaldotsize/L/10_Ratio_750_L_4_R_3.png","img/750/equaldotanddens/R/3_Ratio_750_L_15_R_20.png","img/500/equaldotanddens/L/5_Ratio_500_L_4_R_2.png","img/750/randomdotsizeEA/L/8_Ratio_750_L_4_R_3.png","img/900/equaldotsize/R/6_Ratio_900_L_9_R_10.png","img/750/randomdotsizeEA/R/2_Ratio_750_L_6_R_8.png","img/750/randomdotsizeEA/L/14_Ratio_750_L_8_R_6.png","img/500/randomdotsizeEA/R/12_Ratio_500_L_1_R_2.png","img/750/randomdotsizeEA/R/5_Ratio_750_L_15_R_20.png","img/900/randomdotsizeEA/R/13_Ratio_900_L_18_R_20.png","img/250/equaldotsize/R/8_Ratio_250_L_1_R_4.png","img/900/randomdotsizeEA/L/1_Ratio_900_L_10_R_9.png","img/750/randomdotsizeEA/R/15_Ratio_750_L_9_R_12.png","img/750/equaldotanddens/R/5_Ratio_750_L_15_R_20.png","img/500/equaldotsize/L/5_Ratio_500_L_4_R_2.png","img/900/equaldotanddens/R/11_Ratio_900_L_18_R_20.png","img/500/equaldotsize/L/4_Ratio_500_L_18_R_9.png","img/250/randomdotsizeEA/R/4_Ratio_250_L_3_R_12.png","img/900/equaldotsize/R/7_Ratio_900_L_9_R_10.png","img/900/equaldotsize/R/9_Ratio_900_L_18_R_20.png","img/250/randomdotsizeEA/R/6_Ratio_250_L_6_R_24.png","img/500/randomdotsizeEA/R/15_Ratio_500_L_1_R_2.png","img/250/randomdotsizeEA/R/9_Ratio_250_L_3_R_12.png","img/500/equaldotanddens/R/14_Ratio_500_L_5_R_10.png","img/900/randomdotsizeEA/L/1_Ratio_900_L_10_R_9.png","img/500/equaldotanddens/L/13_Ratio_500_L_12_R_6.png","img/500/equaldotanddens/R/15_Ratio_500_L_1_R_2.png","img/500/equaldotanddens/L/13_Ratio_500_L_12_R_6.png","img/900/equaldotanddens/L/4_Ratio_900_L_20_R_18.png","img/750/equaldotsize/L/13_Ratio_750_L_8_R_6.png"],"Rat0":[["12_Ratio_0_L_9_R_0.png","13_Ratio_0_L_6_R_0.png","5_Ratio_0_L_2_R_0.png","6_Ratio_0_L_4_R_0.png","8_Ratio_0_L_6_R_0.png"],["1_Ratio_0_L_0_R_17.png","10_Ratio_0_L_0_R_22.png","11_Ratio_0_L_0_R_1.png","14_Ratio_0_L_0_R_24.png","15_Ratio_0_L_0_R_4.png","2_Ratio_0_L_0_R_5.png","3_Ratio_0_L_0_R_17.png","4_Ratio_0_L_0_R_7.png","7_Ratio_0_L_0_R_19.png","9_Ratio_0_L_0_R_15.png"]],"Rat250":[["1_Ratio_250_L_8_R_2.png","14_Ratio_250_L_12_R_3.png","15_Ratio_250_L_12_R_3.png","2_Ratio_250_L_16_R_4.png","3_Ratio_250_L_8_R_2.png","5_Ratio_250_L_24_R_6.png","7_Ratio_250_L_8_R_2.png"],["10_Ratio_250_L_4_R_16.png","11_Ratio_250_L_3_R_12.png","12_Ratio_250_L_5_R_20.png","13_Ratio_250_L_2_R_8.png","4_Ratio_250_L_3_R_12.png","6_Ratio_250_L_6_R_24.png","8_Ratio_250_L_1_R_4.png","9_Ratio_250_L_3_R_12.png"]],"Rat500":[["10_Ratio_500_L_4_R_2.png","11_Ratio_500_L_12_R_6.png","13_Ratio_500_L_12_R_6.png","4_Ratio_500_L_18_R_9.png","5_Ratio_500_L_4_R_2.png","7_Ratio_500_L_10_R_5.png","8_Ratio_500_L_8_R_4.png"],["1_Ratio_500_L_9_R_18.png","12_Ratio_500_L_1_R_2.png","14_Ratio_500_L_5_R_10.png","15_Ratio_500_L_1_R_2.png","2_Ratio_500_L_3_R_6.png","3_Ratio_500_L_10_R_20.png","6_Ratio_500_L_9_R_18.png","9_Ratio_500_L_2_R_4.png"]],"Rat750":[["1_Ratio_750_L_20_R_15.png","10_Ratio_750_L_4_R_3.png","13_Ratio_750_L_8_R_6.png","14_Ratio_750_L_8_R_6.png","6_Ratio_750_L_24_R_18.png","8_Ratio_750_L_4_R_3.png","9_Ratio_750_L_4_R_3.png"],["11_Ratio_750_L_12_R_16.png","12_Ratio_750_L_3_R_4.png","15_Ratio_750_L_9_R_12.png","2_Ratio_750_L_6_R_8.png","3_Ratio_750_L_15_R_20.png","4_Ratio_750_L_15_R_20.png","5_Ratio_750_L_15_R_20.png","7_Ratio_750_L_3_R_4.png"]],"Rat900":[["1_Ratio_900_L_10_R_9.png","10_Ratio_900_L_20_R_18.png","2_Ratio_900_L_20_R_18.png","4_Ratio_900_L_20_R_18.png","8_Ratio_900_L_20_R_18.png"],["11_Ratio_900_L_18_R_20.png","12_Ratio_900_L_18_R_20.png","13_Ratio_900_L_18_R_20.png","14_Ratio_900_L_18_R_20.png","15_Ratio_900_L_9_R_10.png","3_Ratio_900_L_9_R_10.png","5_Ratio_900_L_9_R_10.png","6_Ratio_900_L_9_R_10.png","7_Ratio_900_L_9_R_10.png","9_Ratio_900_L_18_R_20.png"]],"Rat1000":[["10_Ratio_1000_L_16_R_16.png","11_Ratio_1000_L_6_R_6.png","12_Ratio_1000_L_14_R_14.png","13_Ratio_1000_L_20_R_20.png","15_Ratio_1000_L_15_R_15.png","2_Ratio_1000_L_17_R_17.png","4_Ratio_1000_L_9_R_9.png","5_Ratio_1000_L_6_R_6.png","6_Ratio_1000_L_19_R_19.png","8_Ratio_1000_L_14_R_14.png","9_Ratio_1000_L_25_R_25.png"],["1_Ratio_1000_L_1_R_1.png","14_Ratio_1000_L_17_R_17.png","3_Ratio_1000_L_17_R_17.png","7_Ratio_1000_L_6_R_6.png"]]}},{"start_time":1552069263829,"click_time":1552069265919,"finger_time":1552069265378,"fix_duration":1368.7377849162212,"trial":1,"RT":1549,"MT":541,"sideResp":1,"stimulus":"img/900/randomdotsizeEA/L/2_Ratio_900_L_20_R_18.png","xmouse":[784,784,784,784,784,784,784,784,784,784,784,784,784,784,784,784,784,784,784,784,784,784,784,784,784,784,784,784,784,784,784,784,784,784,784,784,784,784,784,784,784,784,784,784,784,780,777,777,777,777,777,777,777,777,777,777,777,777,777,777,777,777,777,777,777,777,777,777,777,777,777,777,777,777,777,777,777,775,753,733,720,710,708,708,708,708,706,704,697,689,674,635,622,607,594,587,575,566,557,546,542,538,533,528,521],"ymouse":[612,612,612,612,612,612,612,612,612,612,612,612,612,612,612,612,612,612,612,612,612,612,612,612,612,612,612,612,612,612,612,612,612,612,612,612,612,612,612,612,612,612,612,612,612,609,606,606,606,606,606,606,606,606,606,606,606,606,606,606,606,606,606,606,606,606,606,606,606,606,606,606,606,606,606,606,606,550,469,420,400,368,349,321,285,261,240,235,228,221,210,171,155,143,136,132,126,120,113,104,99,98,96,94,90],"timestamp_mouse":[10,36,49,69,90,110,129,150,170,190,208,228,249,269,290,310,329,349,370,388,409,429,448,469,489,508,529,548,569,589,610,629,650,670,689,709,729,749,770,790,810,829,849,870,888,909,929,949,970,989,1010,1029,1049,1070,1090,1110,1130,1149,1170,1190,1208,1229,1248,1269,1290,1310,1330,1350,1369,1390,1410,1429,1448,1468,1489,1510,1530,1549,1570,1589,1610,1629,1649,1670,1690,1710,1730,1750,1770,1789,1810,1829,1849,1869,1890,1910,1929,1949,1970,1989,2010,2029,2048,2069,2090],"xSR":741.5,"ySR":573.95,"xT1":424.9,"yT1":0,"xT2":1058.1,"yT2":0,"toosoon":0,"cond_shown":"randomdotsizeEA","ratio_trial":900,"smaller_num":"18","larger_num":"20","correct_side":1,"subjID":"ValentinaGarzonCampos7","gender":"1","age":"8","school":"4"},{"start_time":1552069268711,"click_time":1552069270498,"finger_time":1552069270199,"fix_duration":250,"trial":2,"RT":1488,"MT":299,"sideResp":2,"stimulus":"img/500/equaldotanddens/R/2_Ratio_500_L_3_R_6.png","xmouse":[765,765,765,765,765,765,765,765,765,765,765,765,765,765,765,765,765,765,765,765,765,765,765,765,765,765,765,765,765,765,765,765,765,765,765,765,765,765,765,765,765,765,765,765,765,765,765,765,765,765,765,765,765,765,765,765,765,765,765,765,765,765,765,765,765,765,765,765,765,765,765,765,765,803,879,921,958,988,1006,1038,1071,1112,1148,1150,1151,1153,1158,1161,1159,1155],"ymouse":[658,658,658,658,658,658,658,658,658,658,658,658,658,658,658,658,658,658,658,658,658,658,658,658,658,658,658,658,658,658,658,658,658,658,658,658,658,658,658,658,658,658,658,658,658,658,658,658,658,658,658,658,658,658,658,658,658,658,658,658,658,658,658,658,658,658,658,658,658,658,658,658,658,622,535,478,414,352,323,283,247,207,168,162,153,141,111,83,44,38],"timestamp_mouse":[10,27,47,68,88,108,127,147,168,188,207,227,248,267,288,308,328,348,368,388,408,428,448,467,487,507,527,548,568,588,608,628,647,668,687,707,728,748,767,788,807,827,847,868,887,906,926,947,967,987,1007,1027,1047,1068,1087,1108,1126,1148,1168,1187,1207,1228,1247,1266,1287,1307,1327,1348,1368,1388,1407,1426,1447,1468,1488,1508,1528,1547,1568,1587,1608,1628,1648,1667,1688,1707,1726,1747,1768,1787],"xSR":741.5,"ySR":573.95,"xT1":424.9,"yT1":0,"xT2":1058.1,"yT2":0,"toosoon":0,"cond_shown":"equaldotanddens","ratio_trial":500,"smaller_num":"3","larger_num":"6","correct_side":2,"subjID":"ValentinaGarzonCampos7","gender":"1","age":"8","school":"4"},{"start_time":1552069271871,"click_time":1552069273698,"finger_time":1552069273398,"fix_duration":250,"trial":3,"RT":1527,"MT":300,"sideResp":2,"stimulus":"img/500/equaldotsize/R/14_Ratio_500_L_5_R_10.png","xmouse":[775,775,775,775,775,775,775,775,775,776,776,776,776,776,776,776,776,776,776,776,776,776,776,776,776,776,776,776,776,776,776,776,776,776,776,776,776,776,776,776,776,776,776,776,776,776,776,776,776,776,776,776,776,776,776,776,776,776,776,776,776,776,776,776,776,776,776,776,776,776,776,776,776,776,776,786,826,880,1004,1073,1083,1090,1097,1107,1113,1113,1113,1113,1114,1125,1132,1137],"ymouse":[637,637,637,637,637,637,637,638,638,638,638,638,638,638,638,638,638,638,638,638,638,638,638,638,638,638,638,638,638,638,638,638,638,638,638,638,638,638,638,638,638,638,638,638,638,638,638,638,638,638,638,638,638,638,638,638,638,638,638,638,638,638,638,638,638,638,638,638,638,638,638,638,638,638,638,634,571,475,309,205,190,182,176,167,161,161,161,161,160,134,113,96],"timestamp_mouse":[16,29,46,67,86,107,128,147,167,187,207,227,247,267,287,307,327,347,367,388,407,428,446,468,488,506,527,548,566,587,608,628,648,667,688,707,728,747,767,788,807,828,847,868,888,908,928,947,968,987,1007,1027,1047,1068,1087,1108,1128,1148,1167,1187,1207,1228,1248,1267,1287,1308,1327,1346,1368,1386,1407,1427,1448,1468,1488,1507,1527,1548,1568,1587,1607,1627,1647,1667,1687,1707,1727,1748,1767,1786,1807,1827],"xSR":741.5,"ySR":573.95,"xT1":424.9,"yT1":0,"xT2":1058.1,"yT2":0,"toosoon":0,"cond_shown":"equaldotsize","ratio_trial":500,"smaller_num":"5","larger_num":"10","correct_side":2,"subjID":"ValentinaGarzonCampos7","gender":"1","age":"8","school":"4"},{"start_time":1552069276013,"click_time":1552069277318,"finger_time":1552069276799,"fix_duration":1132.8347041198294,"trial":4,"RT":786,"MT":519,"sideResp":1,"stimulus":"img/250/equaldotanddens/L/14_Ratio_250_L_12_R_3.png","xmouse":[789,789,789,789,789,789,789,789,789,789,789,789,789,789,789,789,789,789,789,789,789,789,789,789,789,789,789,789,789,789,789,789,789,789,789,789,789,789,781,711,711,708,676,683,684,684,684,684,684,684,686,687,661,641,625,615,608,600,596,586,573,555,541,535,529,521],"ymouse":[617,617,617,617,617,617,617,617,617,617,617,617,617,617,617,617,617,617,617,617,617,617,617,617,617,617,617,617,617,617,617,617,617,617,617,617,617,617,617,557,557,547,436,431,431,431,431,431,431,430,420,375,247,189,153,131,119,111,108,103,98,91,84,81,77,73],"timestamp_mouse":[9,26,49,66,85,106,126,146,165,186,204,225,245,265,285,306,326,345,366,384,405,426,445,466,485,506,525,546,566,584,605,625,646,664,685,705,726,746,766,786,805,825,845,864,885,905,926,945,965,986,1006,1024,1045,1066,1085,1106,1126,1145,1165,1185,1206,1226,1245,1265,1286,1305],"xSR":741.5,"ySR":573.95,"xT1":424.9,"yT1":0,"xT2":1058.1,"yT2":0,"toosoon":0,"cond_shown":"equaldotanddens","ratio_trial":250,"smaller_num":"3","larger_num":"12","correct_side":1,"subjID":"ValentinaGarzonCampos7","gender":"1","age":"8","school":"4"},{"start_time":1552069280162,"click_time":1552069281778,"finger_time":1552069281458,"fix_duration":621.1735149394594,"trial":5,"RT":1296,"MT":320,"sideResp":2,"stimulus":"img/500/randomdotsizeEA/R/2_Ratio_500_L_3_R_6.png","xmouse":[775,775,775,775,775,775,775,775,775,775,775,775,775,775,775,775,775,775,775,775,775,775,775,775,775,775,775,775,775,775,775,775,775,775,775,775,775,775,775,775,775,775,775,775,775,775,775,775,775,775,775,775,775,775,775,775,775,775,775,775,775,775,780,817,884,918,954,986,1009,1067,1096,1118,1128,1139,1152,1158,1161,1161,1161,1159,1155],"ymouse":[641,641,641,641,641,641,641,641,641,641,641,641,641,641,641,641,641,641,641,641,641,641,641,641,641,641,641,641,641,641,641,641,641,641,641,641,641,641,641,641,641,641,641,641,641,641,641,641,641,641,641,641,641,641,641,641,641,641,641,641,641,641,640,614,565,540,507,460,413,310,257,220,204,187,164,145,128,109,97,87,83],"timestamp_mouse":[16,45,56,76,97,116,137,156,176,195,216,235,257,277,297,317,335,356,376,395,417,436,456,477,495,516,537,557,575,597,617,636,657,676,696,717,735,757,776,796,817,835,856,877,897,915,937,956,976,997,1017,1037,1057,1076,1097,1116,1137,1157,1177,1196,1217,1236,1257,1276,1296,1317,1337,1356,1377,1396,1416,1437,1456,1477,1496,1517,1536,1556,1576,1596,1616],"xSR":741.5,"ySR":573.95,"xT1":424.9,"yT1":0,"xT2":1058.1,"yT2":0,"toosoon":0,"cond_shown":"randomdotsizeEA","ratio_trial":500,"smaller_num":"3","larger_num":"6","correct_side":2,"subjID":"ValentinaGarzonCampos7","gender":"1","age":"8","school":"4"},{"start_time":1552069285048,"click_time":1552069286119,"finger_time":1552069285839,"fix_duration":987.7907090011862,"trial":6,"RT":791,"MT":280,"sideResp":1,"stimulus":"img/500/equaldotanddens/L/11_Ratio_500_L_12_R_6.png","xmouse":[795,795,795,795,795,795,795,795,795,795,795,795,795,795,795,795,795,795,795,795,795,795,795,795,795,795,795,795,795,795,795,795,795,795,795,795,792,768,753,737,681,649,622,603,584,553,531,509,496,491,492,498,503,504],"ymouse":[653,653,653,653,653,653,653,653,653,653,653,653,653,653,653,653,653,653,653,653,653,653,653,653,653,653,653,653,653,653,653,653,653,653,653,653,653,660,663,665,669,668,651,624,574,438,359,273,214,176,141,120,101,79],"timestamp_mouse":[26,47,50,71,90,110,131,151,170,190,210,230,251,271,291,310,330,351,370,391,409,431,451,471,490,509,530,551,571,590,611,630,651,670,691,710,730,750,770,791,810,830,851,871,890,911,931,951,971,989,1011,1031,1050,1071],"xSR":741.5,"ySR":573.95,"xT1":424.9,"yT1":0,"xT2":1058.1,"yT2":0,"toosoon":0,"cond_shown":"equaldotanddens","ratio_trial":500,"smaller_num":"6","larger_num":"12","correct_side":1,"subjID":"ValentinaGarzonCampos7","gender":"1","age":"8","school":"4"},{"start_time":1552069287410,"click_time":1552069288538,"finger_time":1552069288298,"fix_duration":250,"trial":7,"RT":888,"MT":240,"sideResp":2,"stimulus":"img/750/randomdotsizeEA/R/4_Ratio_750_L_15_R_20.png","xmouse":[778,778,778,778,778,778,778,778,778,778,778,778,778,778,778,778,778,778,778,778,778,778,778,778,778,778,778,778,778,778,778,778,778,778,778,778,778,778,778,778,778,778,784,807,850,904,962,1098,1127,1131,1131,1131,1132,1135,1142,1147,1156],"ymouse":[630,630,630,630,630,630,630,630,630,630,630,630,630,630,630,630,630,630,630,630,630,630,630,630,630,630,630,630,630,630,630,630,630,630,630,630,630,630,630,630,630,630,620,586,533,475,415,276,230,216,213,212,201,182,157,131,96],"timestamp_mouse":[10,32,49,68,88,108,128,148,168,189,208,228,249,267,288,308,328,348,369,389,407,428,448,469,487,508,528,548,568,589,608,628,649,669,689,708,729,749,769,789,807,829,848,868,888,909,929,949,968,989,1008,1028,1048,1069,1088,1109,1128],"xSR":741.5,"ySR":573.95,"xT1":424.9,"yT1":0,"xT2":1058.1,"yT2":0,"toosoon":0,"cond_shown":"randomdotsizeEA","ratio_trial":750,"smaller_num":"15","larger_num":"20","correct_side":2,"subjID":"ValentinaGarzonCampos7","gender":"1","age":"8","school":"4"},{"start_time":1552069289610,"click_time":1552069290980,"finger_time":1552069290479,"fix_duration":250,"trial":8,"RT":869,"MT":501,"sideResp":2,"stimulus":"img/500/equaldotsize/R/3_Ratio_500_L_10_R_20.png","xmouse":[779,779,779,779,779,779,779,779,779,779,779,779,779,779,779,779,779,779,779,779,779,779,779,779,779,779,779,779,779,779,779,779,779,779,779,779,779,779,779,779,779,782,818,835,852,872,889,909,918,926,935,953,971,979,989,999,1004,1009,1011,1017,1029,1048,1080,1090,1093,1094,1094,1095,1098],"ymouse":[633,633,633,633,633,633,633,633,633,633,633,633,633,633,633,633,633,633,633,633,633,633,633,633,633,633,633,633,633,633,633,633,633,633,633,633,633,633,633,633,633,633,582,544,511,481,459,436,425,413,399,356,297,277,257,237,225,209,204,193,177,153,120,111,108,106,106,105,98],"timestamp_mouse":[14,28,63,69,88,108,128,148,167,188,209,229,248,269,287,308,328,348,368,388,409,428,448,467,488,508,527,548,569,589,609,629,649,669,688,708,728,748,769,787,808,829,848,869,888,909,928,949,968,988,1008,1029,1048,1068,1088,1108,1128,1149,1168,1189,1208,1228,1248,1268,1288,1309,1328,1348,1369],"xSR":741.5,"ySR":573.95,"xT1":424.9,"yT1":0,"xT2":1058.1,"yT2":0,"toosoon":0,"cond_shown":"equaldotsize","ratio_trial":500,"smaller_num":"10","larger_num":"20","correct_side":2,"subjID":"ValentinaGarzonCampos7","gender":"1","age":"8","school":"4"},{"start_time":1552069292614,"click_time":1552069294299,"finger_time":1552069293798,"fix_duration":534.0858202894201,"trial":9,"RT":1184,"MT":501,"sideResp":1,"stimulus":"img/900/equaldotanddens/L/10_Ratio_900_L_20_R_18.png","xmouse":[773,773,773,773,773,773,773,773,773,773,773,773,773,773,773,773,773,773,773,773,773,773,773,773,773,773,773,773,773,773,773,773,773,773,773,773,773,773,773,773,773,773,773,773,773,773,773,773,773,773,773,773,773,773,773,773,773,773,773,743,703,545,369,330,323,323,324,329,331,334,337,348,365,374,379,382,384,391,392,394,398,404,419,424,427],"ymouse":[609,609,609,609,609,609,609,609,609,609,609,609,609,609,609,609,609,609,609,609,609,609,609,609,609,609,609,609,609,609,609,609,609,609,609,609,609,609,609,609,609,609,609,609,609,609,609,609,609,609,609,609,609,609,609,609,609,609,609,567,513,329,146,87,59,47,43,34,28,16,5,0,0,0,0,0,0,1,2,3,5,8,17,19,22],"timestamp_mouse":[10,24,45,64,85,105,124,143,165,185,204,224,245,265,285,304,324,344,365,385,405,425,444,465,484,505,525,544,564,584,604,624,644,663,685,704,724,744,765,785,805,823,844,864,885,904,925,945,965,985,1005,1025,1044,1064,1085,1104,1124,1145,1163,1184,1204,1225,1244,1265,1284,1304,1325,1343,1364,1384,1403,1423,1445,1465,1484,1504,1525,1545,1564,1584,1604,1623,1645,1665,1685],"xSR":741.5,"ySR":573.95,"xT1":424.9,"yT1":0,"xT2":1058.1,"yT2":0,"toosoon":0,"cond_shown":"equaldotanddens","ratio_trial":900,"smaller_num":"18","larger_num":"20","correct_side":1,"subjID":"ValentinaGarzonCampos7","gender":"1","age":"8","school":"4"},{"start_time":1552069296607,"click_time":1552069298437,"finger_time":1552069297357,"fix_duration":1188.9885163386734,"trial":10,"RT":750,"MT":1080,"sideResp":1,"stimulus":"img/250/equaldotsize/L/5_Ratio_250_L_24_R_6.png","xmouse":[786,786,786,786,786,786,786,786,786,786,786,786,786,786,786,786,786,786,786,786,786,786,786,786,786,786,786,786,786,786,786,786,786,786,786,786,780,702,615,507,389,253,216,216,216,216,219,233,242,253,264,275,285,295,314,337,360,383,387,389,393,395,400,401,404,408,412,417,420,422,422,422,422,422,422,422,422,422,422,422,422,422,422,422,422,422,422,422,422,422,424,426],"ymouse":[617,617,617,617,617,617,617,617,617,617,617,617,617,617,617,617,617,617,617,617,617,617,617,617,617,617,617,617,617,617,617,617,617,617,617,617,611,437,300,164,37,0,0,0,0,0,0,0,0,0,0,1,5,9,18,32,45,56,57,57,57,57,53,51,47,40,37,36,36,36,36,36,36,36,36,36,36,36,36,36,36,36,36,36,36,36,36,36,36,36,36,36],"timestamp_mouse":[12,42,50,71,90,110,131,150,170,191,210,230,250,270,290,310,331,351,370,391,410,431,450,471,490,511,530,550,571,590,611,631,651,671,691,710,731,750,770,791,810,831,852,870,891,910,931,951,970,990,1011,1030,1050,1070,1090,1110,1130,1150,1170,1189,1211,1231,1250,1271,1290,1310,1330,1350,1371,1391,1410,1431,1450,1471,1490,1511,1530,1551,1570,1590,1611,1630,1651,1670,1691,1711,1731,1750,1770,1791,1811,1830],"xSR":741.5,"ySR":573.95,"xT1":424.9,"yT1":0,"xT2":1058.1,"yT2":0,"toosoon":0,"cond_shown":"equaldotsize","ratio_trial":250,"smaller_num":"6","larger_num":"24","correct_side":1,"subjID":"ValentinaGarzonCampos7","gender":"1","age":"8","school":"4"},{"start_time":1552069299619,"click_time":1552069300897,"finger_time":1552069300478,"fix_duration":280.95866617017253,"trial":11,"RT":859,"MT":419,"sideResp":2,"stimulus":"img/900/equaldotanddens/R/7_Ratio_900_L_9_R_10.png","xmouse":[813,813,813,813,813,813,813,813,813,813,813,813,813,813,813,813,813,813,813,813,813,813,813,813,813,813,813,813,813,813,813,813,813,813,813,813,813,813,813,813,813,823,881,923,971,1007,1046,1065,1086,1100,1112,1114,1114,1114,1115,1118,1121,1121,1121,1121,1121,1127,1130,1132],"ymouse":[627,627,627,627,627,627,627,627,627,627,627,627,627,627,627,627,627,627,627,627,627,627,627,627,627,627,627,627,627,627,627,627,627,627,627,627,627,627,627,627,625,615,566,524,480,450,414,393,373,353,326,301,288,272,250,229,190,173,157,146,137,120,108,96],"timestamp_mouse":[18,47,58,79,98,118,138,159,178,198,219,239,258,279,299,318,338,358,378,398,418,438,458,479,498,519,538,559,579,599,618,638,659,679,699,719,738,759,778,799,818,838,859,878,899,919,938,958,978,998,1019,1038,1058,1079,1098,1118,1139,1158,1179,1198,1218,1238,1258,1278],"xSR":741.5,"ySR":573.95,"xT1":424.9,"yT1":0,"xT2":1058.1,"yT2":0,"toosoon":0,"cond_shown":"equaldotanddens","ratio_trial":900,"smaller_num":"9","larger_num":"10","correct_side":2,"subjID":"ValentinaGarzonCampos7","gender":"1","age":"8","school":"4"},{"start_time":1552069305012,"click_time":1552069306157,"finger_time":1552069305937,"fix_duration":1492.3179157147736,"trial":12,"RT":925,"MT":220,"sideResp":1,"stimulus":"img/250/equaldotsize/L/15_Ratio_250_L_12_R_3.png","xmouse":[785,785,785,785,785,785,785,785,785,785,785,785,785,785,785,785,785,785,785,785,785,785,785,785,785,785,785,785,785,785,785,785,785,785,785,785,785,785,785,785,785,785,785,784,774,743,692,604,570,558,553,552,552,552,552,548,541,524],"ymouse":[610,610,610,610,610,610,610,610,610,610,610,610,610,610,610,610,610,610,610,610,610,610,610,610,610,610,610,610,610,610,610,610,610,610,610,610,610,610,610,610,610,610,610,609,603,578,534,443,389,355,326,295,260,236,204,166,132,89],"timestamp_mouse":[10,25,46,66,85,105,125,145,165,185,205,226,245,265,286,305,325,346,366,386,406,425,445,465,485,506,526,545,566,585,605,625,645,665,685,705,726,746,765,786,806,826,845,866,885,906,925,946,966,985,1006,1025,1045,1065,1085,1106,1125,1145],"xSR":741.5,"ySR":573.95,"xT1":424.9,"yT1":0,"xT2":1058.1,"yT2":0,"toosoon":0,"cond_shown":"equaldotsize","ratio_trial":250,"smaller_num":"3","larger_num":"12","correct_side":1,"subjID":"ValentinaGarzonCampos7","gender":"1","age":"8","school":"4"},{"start_time":1552069307439,"click_time":1552069308318,"finger_time":1552069308097,"fix_duration":379.6015562376379,"trial":13,"RT":658,"MT":221,"sideResp":2,"stimulus":"img/500/equaldotanddens/R/2_Ratio_500_L_3_R_6.png","xmouse":[805,805,805,805,805,805,805,805,805,805,805,805,805,805,805,805,805,805,805,805,805,805,805,805,805,805,805,805,805,805,805,807,828,877,936,989,1019,1019,1019,1023,1027,1035,1040,1050,1060],"ymouse":[628,628,628,628,628,628,628,628,628,628,628,628,628,628,628,628,628,628,628,628,628,628,628,628,628,628,628,628,628,628,628,626,598,537,431,327,192,140,111,91,79,66,60,51,44],"timestamp_mouse":[1,18,38,58,78,99,118,138,158,179,198,219,239,259,279,299,318,339,358,378,398,436,438,458,479,498,518,539,558,579,598,618,639,658,678,699,719,739,759,779,799,818,838,858,879],"xSR":741.5,"ySR":573.95,"xT1":424.9,"yT1":0,"xT2":1058.1,"yT2":0,"toosoon":0,"cond_shown":"equaldotanddens","ratio_trial":500,"smaller_num":"3","larger_num":"6","correct_side":2,"subjID":"ValentinaGarzonCampos7","gender":"1","age":"8","school":"4"},{"start_time":1552069311011,"click_time":1552069312217,"finger_time":1552069311638,"fix_duration":411.3513723258406,"trial":14,"RT":627,"MT":579,"sideResp":2,"stimulus":"img/250/equaldotanddens/R/10_Ratio_250_L_4_R_16.png","xmouse":[805,805,805,805,805,805,805,805,805,805,805,805,805,805,805,805,805,805,805,805,805,805,805,805,805,805,805,805,805,809,823,855,949,989,1002,1005,1008,1013,1013,1015,1015,1016,1019,1023,1026,1030,1034,1040,1042,1043,1046,1053,1064,1076,1089,1097,1105,1115,1117,1123,1124],"ymouse":[623,623,623,623,623,623,623,623,623,623,623,623,623,623,623,623,623,623,623,623,623,623,623,623,623,623,623,623,623,623,601,543,380,308,282,266,254,240,235,228,224,221,213,209,204,199,194,188,186,185,182,177,167,155,143,137,131,117,111,100,98],"timestamp_mouse":[9,38,46,66,86,107,127,146,168,186,207,226,247,267,287,307,327,346,367,386,407,427,446,466,486,507,526,546,567,587,607,627,646,666,686,706,726,747,767,787,807,826,847,867,887,907,926,946,967,987,1007,1026,1046,1066,1086,1107,1127,1146,1166,1186,1206],"xSR":741.5,"ySR":573.95,"xT1":424.9,"yT1":0,"xT2":1058.1,"yT2":0,"toosoon":0,"cond_shown":"equaldotanddens","ratio_trial":250,"smaller_num":"4","larger_num":"16","correct_side":2,"subjID":"ValentinaGarzonCampos7","gender":"1","age":"8","school":"4"},{"start_time":1552069314809,"click_time":1552069315837,"finger_time":1552069315517,"fix_duration":1270.1922681575818,"trial":15,"RT":708,"MT":320,"sideResp":1,"stimulus":"img/250/equaldotanddens/L/5_Ratio_250_L_24_R_6.png","xmouse":[796,796,796,796,796,796,796,796,796,796,796,796,796,796,796,796,796,796,796,796,796,796,796,796,796,796,796,796,796,796,796,796,796,796,779,733,699,669,666,661,655,636,605,590,577,563,547,525,517,507,494,492],"ymouse":[625,625,625,625,625,625,625,625,625,625,625,625,625,625,625,625,625,625,625,625,625,625,625,625,625,625,625,625,625,625,625,625,625,625,603,533,470,381,356,337,320,290,249,231,217,203,191,171,160,145,118,98],"timestamp_mouse":[15,28,49,68,88,108,129,149,168,188,209,229,248,268,289,308,328,349,369,389,408,429,449,469,489,509,529,549,569,588,609,628,648,668,689,708,729,749,768,788,808,829,848,868,888,909,928,949,968,989,1009,1028],"xSR":741.5,"ySR":573.95,"xT1":424.9,"yT1":0,"xT2":1058.1,"yT2":0,"toosoon":0,"cond_shown":"equaldotanddens","ratio_trial":250,"smaller_num":"6","larger_num":"24","correct_side":1,"subjID":"ValentinaGarzonCampos7","gender":"1","age":"8","school":"4"},{"start_time":1552069318258,"click_time":1552069320218,"finger_time":1552069319778,"fix_duration":1458.1459878190801,"trial":16,"RT":1520,"MT":440,"sideResp":2,"stimulus":"img/500/randomdotsizeEA/R/12_Ratio_500_L_1_R_2.png","xmouse":[773,773,773,773,773,773,773,773,773,773,773,773,773,773,773,773,773,773,773,773,773,773,773,773,773,773,773,773,773,773,773,773,773,773,773,773,773,773,773,773,773,773,773,773,773,773,773,773,773,773,773,773,773,773,773,773,773,773,773,773,773,773,773,773,773,773,773,773,773,773,773,773,773,773,774,794,843,905,961,1023,1071,1085,1097,1109,1118,1131,1134,1135,1135,1135,1134,1134,1134,1132,1131,1131,1133,1134,1135],"ymouse":[621,621,621,621,621,621,621,621,621,621,621,621,621,621,621,621,621,621,621,621,621,621,621,621,621,621,621,621,621,621,621,621,621,621,621,621,621,621,621,621,621,621,621,621,621,621,621,621,621,621,621,621,621,621,621,621,621,621,621,621,621,621,621,621,621,621,621,621,621,621,621,621,621,621,621,611,579,534,502,464,428,411,391,368,344,293,269,242,219,193,180,175,171,161,150,127,115,106,93],"timestamp_mouse":[2,20,39,59,80,99,119,140,160,179,200,219,240,260,279,300,319,339,360,379,399,420,439,460,480,499,520,540,559,579,600,620,639,659,680,699,719,739,760,780,799,820,839,860,880,900,920,939,960,980,999,1020,1039,1060,1079,1099,1120,1139,1160,1179,1200,1219,1240,1260,1280,1299,1319,1339,1360,1380,1400,1420,1440,1460,1479,1499,1520,1540,1559,1579,1599,1619,1639,1659,1680,1700,1720,1740,1759,1779,1799,1819,1839,1859,1880,1899,1920,1940,1960],"xSR":741.5,"ySR":573.95,"xT1":424.9,"yT1":0,"xT2":1058.1,"yT2":0,"toosoon":0,"cond_shown":"randomdotsizeEA","ratio_trial":500,"smaller_num":"1","larger_num":"2","correct_side":2,"subjID":"ValentinaGarzonCampos7","gender":"1","age":"8","school":"4"},{"start_time":1552069322633,"click_time":1552069323579,"finger_time":1552069323457,"fix_duration":1373.4592421558966,"trial":17,"RT":824,"MT":122,"sideResp":2,"stimulus":"img/250/randomdotsizeEA/R/12_Ratio_250_L_5_R_20.png","xmouse":[779,779,779,779,779,779,779,779,779,779,779,779,779,779,779,779,779,779,779,779,779,779,779,779,779,779,779,779,779,779,779,779,779,779,779,779,779,774,774,791,809,843,861,889,930,970,1054,1086],"ymouse":[647,647,647,647,647,647,647,647,647,647,647,647,647,647,647,647,647,647,647,647,647,647,647,647,647,647,647,647,647,647,647,647,647,647,647,647,647,651,655,659,660,656,642,599,525,429,186,57],"timestamp_mouse":[20,36,44,65,85,105,124,144,164,184,204,225,244,265,284,305,324,345,364,385,405,424,445,465,485,504,524,544,565,585,604,624,645,665,685,704,725,745,764,784,805,824,844,864,884,904,924,945],"xSR":741.5,"ySR":573.95,"xT1":424.9,"yT1":0,"xT2":1058.1,"yT2":0,"toosoon":0,"cond_shown":"randomdotsizeEA","ratio_trial":250,"smaller_num":"5","larger_num":"20","correct_side":2,"subjID":"ValentinaGarzonCampos7","gender":"1","age":"8","school":"4"},{"start_time":1552069326921,"click_time":1552069327678,"finger_time":1552069327618,"fix_duration":841.5536174405211,"trial":18,"RT":697,"MT":60,"sideResp":2,"stimulus":"img/900/equaldotsize/R/13_Ratio_900_L_18_R_20.png","xmouse":[778,778,778,778,778,778,778,778,778,778,778,778,778,778,778,778,778,778,778,778,778,778,778,778,778,778,778,778,778,778,778,778,797,823,880,974,1072,1088],"ymouse":[663,663,663,663,663,663,663,663,663,663,663,663,663,663,663,663,663,663,663,663,663,663,663,663,663,663,663,663,663,663,663,663,632,582,475,305,129,97],"timestamp_mouse":[16,42,56,76,96,116,136,156,177,197,217,237,257,276,296,317,336,356,376,396,417,436,456,476,496,516,536,556,576,596,617,636,657,677,697,716,736,757],"xSR":741.5,"ySR":573.95,"xT1":424.9,"yT1":0,"xT2":1058.1,"yT2":0,"toosoon":0,"cond_shown":"equaldotsize","ratio_trial":900,"smaller_num":"18","larger_num":"20","correct_side":2,"subjID":"ValentinaGarzonCampos7","gender":"1","age":"8","school":"4"},{"start_time":1552069329668,"click_time":1552069330979,"finger_time":1552069330617,"fix_duration":1110.5416783266562,"trial":19,"RT":949,"MT":362,"sideResp":2,"stimulus":"img/750/equaldotanddens/R/3_Ratio_750_L_15_R_20.png","xmouse":[781,781,781,781,781,781,781,781,781,781,781,781,781,781,781,781,781,781,781,781,781,781,781,781,781,781,781,781,781,781,781,781,781,781,781,781,781,781,781,781,781,781,781,781,781,782,791,863,925,997,1018,1030,1050,1076,1109,1116,1121,1123,1123,1123,1123,1122,1122,1120,1106,1097],"ymouse":[638,638,638,638,638,638,638,638,638,638,638,638,638,638,638,638,638,638,638,638,638,638,638,638,638,638,638,638,638,638,638,638,638,638,638,638,638,638,638,638,638,638,638,638,638,637,630,554,489,405,381,363,333,299,242,220,202,179,165,131,115,111,110,109,101,95],"timestamp_mouse":[11,29,49,69,89,109,130,149,169,190,209,230,250,270,290,309,329,350,370,389,410,429,450,469,489,510,530,550,570,590,609,630,649,670,689,709,730,749,770,789,810,830,849,870,890,910,930,949,969,989,1010,1029,1049,1069,1089,1109,1130,1149,1170,1190,1210,1230,1249,1269,1289,1310],"xSR":741.5,"ySR":573.95,"xT1":424.9,"yT1":0,"xT2":1058.1,"yT2":0,"toosoon":0,"cond_shown":"equaldotanddens","ratio_trial":750,"smaller_num":"15","larger_num":"20","correct_side":2,"subjID":"ValentinaGarzonCampos7","gender":"1","age":"8","school":"4"},{"start_time":1552069332333,"click_time":1552069334038,"finger_time":1552069333798,"fix_duration":313.9926249245667,"trial":20,"RT":1465,"MT":240,"sideResp":1,"stimulus":"img/900/equaldotsize/L/10_Ratio_900_L_20_R_18.png","xmouse":[811,811,811,811,811,811,811,811,811,811,811,811,811,811,811,811,811,811,811,811,811,811,811,811,811,811,811,811,811,811,811,811,811,811,811,811,811,811,811,811,811,811,811,811,811,811,811,811,811,811,811,811,811,811,811,811,811,811,811,811,811,811,811,811,811,811,811,811,811,811,810,802,768,723,681,660,639,631,627,627,619,580,565,551,536,524],"ymouse":[659,659,659,659,659,659,659,659,659,659,659,659,659,659,659,659,659,659,659,659,659,659,659,659,659,659,659,659,659,659,659,659,659,659,659,659,659,659,659,659,659,659,659,659,659,659,659,659,659,659,659,659,659,659,659,659,659,659,659,659,659,659,659,659,659,659,659,659,659,659,658,638,575,497,442,413,386,370,336,274,214,142,126,115,101,78],"timestamp_mouse":[10,39,44,65,84,104,124,144,165,185,204,224,244,264,285,304,324,344,365,384,405,425,445,465,484,505,525,545,564,584,605,625,645,664,685,705,725,745,765,784,804,824,844,864,884,905,924,944,965,984,1005,1024,1044,1064,1085,1104,1124,1144,1164,1184,1204,1225,1245,1265,1284,1305,1324,1345,1364,1384,1404,1425,1445,1465,1484,1505,1524,1545,1564,1585,1605,1624,1645,1664,1685,1705],"xSR":741.5,"ySR":573.95,"xT1":424.9,"yT1":0,"xT2":1058.1,"yT2":0,"toosoon":0,"cond_shown":"equaldotsize","ratio_trial":900,"smaller_num":"18","larger_num":"20","correct_side":1,"subjID":"ValentinaGarzonCampos7","gender":"1","age":"8","school":"4"},{"start_time":1552069335841,"click_time":1552069336718,"finger_time":1552069336457,"fix_duration":782.0609901562228,"trial":21,"RT":616,"MT":261,"sideResp":2,"stimulus":"img/250/equaldotanddens/R/9_Ratio_250_L_3_R_12.png","xmouse":[777,777,777,777,777,777,777,777,777,777,777,777,777,777,777,777,777,777,777,777,777,777,777,777,777,777,777,777,778,780,867,926,971,1005,1020,1032,1036,1041,1046,1053,1056,1057,1057,1060],"ymouse":[609,609,609,609,609,609,609,609,609,609,609,609,609,609,609,609,609,609,609,609,609,609,609,609,609,609,609,609,609,609,491,407,344,297,270,241,228,210,189,163,132,120,109,96],"timestamp_mouse":[17,43,56,76,97,116,137,157,176,196,216,236,256,276,296,317,336,356,377,397,416,437,457,477,497,516,537,557,576,596,616,637,656,677,697,716,736,757,776,796,815,837,856,877],"xSR":741.5,"ySR":573.95,"xT1":424.9,"yT1":0,"xT2":1058.1,"yT2":0,"toosoon":0,"cond_shown":"equaldotanddens","ratio_trial":250,"smaller_num":"3","larger_num":"12","correct_side":2,"subjID":"ValentinaGarzonCampos7","gender":"1","age":"8","school":"4"},{"start_time":1552069338904,"click_time":1552069340538,"finger_time":1552069340338,"fix_duration":1205.4298799451224,"trial":22,"RT":1434,"MT":200,"sideResp":2,"stimulus":"img/750/randomdotsizeEA/R/15_Ratio_750_L_9_R_12.png","xmouse":[798,798,798,798,798,798,798,798,798,798,798,798,798,798,798,798,798,798,798,798,798,798,798,798,798,798,798,798,798,798,798,798,798,798,798,798,798,798,798,798,798,798,798,798,798,798,798,798,798,798,798,798,798,798,798,798,798,798,798,798,798,798,798,798,798,798,798,798,809,820,832,856,928,962,992,1014,1033,1045,1047,1052,1064,1087],"ymouse":[634,634,634,634,634,634,634,634,634,634,634,634,634,634,634,634,634,634,634,634,634,634,634,634,634,634,634,634,634,634,634,634,634,634,634,634,634,634,634,634,634,634,634,634,634,634,634,634,634,634,634,634,634,634,634,634,634,634,634,634,634,634,634,634,634,634,634,634,627,617,600,568,443,372,295,232,188,166,163,151,130,88],"timestamp_mouse":[14,49,54,74,94,113,133,154,174,193,213,233,254,274,293,314,334,353,373,394,413,433,453,473,494,514,534,553,574,593,614,633,654,673,694,713,733,753,774,794,813,834,853,873,894,914,933,953,974,993,1013,1034,1053,1073,1093,1113,1134,1154,1174,1193,1213,1233,1253,1273,1294,1313,1333,1353,1374,1393,1414,1434,1454,1474,1494,1514,1533,1553,1574,1593,1613,1634],"xSR":741.5,"ySR":573.95,"xT1":424.9,"yT1":0,"xT2":1058.1,"yT2":0,"toosoon":0,"cond_shown":"randomdotsizeEA","ratio_trial":750,"smaller_num":"9","larger_num":"12","correct_side":2,"subjID":"ValentinaGarzonCampos7","gender":"1","age":"8","school":"4"},{"start_time":1552069342525,"click_time":1552069343418,"finger_time":1552069343317,"fix_duration":1046.5764960084903,"trial":23,"RT":792,"MT":101,"sideResp":2,"stimulus":"img/500/randomdotsizeEA/L/13_Ratio_500_L_12_R_6.png","xmouse":[801,801,801,801,801,801,801,801,801,801,801,801,801,801,801,801,801,801,801,801,801,801,801,801,801,801,801,801,801,801,801,801,801,801,801,801,801,801,832,861,927,1044,1085,1124,1153],"ymouse":[635,635,635,635,635,635,635,635,635,635,635,635,635,635,635,635,635,635,635,635,635,635,635,635,635,635,635,635,635,635,635,635,635,635,635,635,635,635,601,560,470,277,200,128,68],"timestamp_mouse":[12,40,53,71,91,112,133,152,173,192,213,233,252,273,292,313,333,352,373,393,412,432,452,472,493,512,533,553,572,592,613,633,652,673,692,712,733,753,773,792,812,833,853,873,893],"xSR":741.5,"ySR":573.95,"xT1":424.9,"yT1":0,"xT2":1058.1,"yT2":0,"toosoon":0,"cond_shown":"randomdotsizeEA","ratio_trial":500,"smaller_num":"6","larger_num":"12","correct_side":1,"subjID":"ValentinaGarzonCampos7","gender":"1","age":"8","school":"4"},{"start_time":1552069351009,"click_time":1552069354418,"finger_time":1552069353638,"fix_duration":250,"trial":24,"RT":2629,"MT":780,"sideResp":1,"stimulus":"img/750/equaldotsize/L/9_Ratio_750_L_4_R_3.png","xmouse":[755,755,755,755,755,755,755,755,755,755,755,755,755,755,755,755,755,755,755,755,755,755,755,755,755,755,755,755,755,755,755,755,755,755,755,755,755,755,755,755,755,755,755,755,755,755,755,755,755,755,755,755,755,755,755,755,755,755,755,755,755,755,755,755,755,755,755,755,755,757,760,761,761,761,763,763,764,766,767,768,768,768,768,768,768,768,768,768,768,768,768,768,768,768,768,768,768,768,768,768,768,768,768,768,768,768,768,768,768,768,768,768,768,768,768,768,768,768,768,768,768,768,768,768,768,768,768,768,768,769,765,750,643,554,463,401,378,373,374,380,381,383,393,397,416,430,437,438,438,438,438,438,438,438,438,438,438,438,438,438,438,438,438,438,438,438,438,438,438,439,451],"ymouse":[615,615,615,615,615,615,615,615,615,615,615,615,615,615,615,615,615,615,615,615,615,615,615,615,615,615,615,615,615,615,615,615,615,615,615,615,615,615,615,615,615,615,615,615,615,615,615,615,615,615,615,615,615,615,615,615,615,615,615,615,615,615,615,615,615,615,615,615,615,615,615,615,615,615,617,618,618,619,620,621,621,621,621,621,621,621,621,621,621,621,621,621,621,621,621,621,621,621,621,621,621,621,621,621,621,621,621,621,621,621,621,621,621,621,621,621,621,621,621,621,621,621,621,621,621,621,621,621,621,617,604,544,351,252,177,127,104,73,55,43,40,33,11,5,0,0,0,0,0,0,0,0,0,0,0,0,0,0,0,0,0,0,0,0,0,0,0,0,0,0,6],"timestamp_mouse":[10,44,49,69,89,108,128,149,169,189,209,229,249,268,290,309,328,349,368,388,408,428,448,469,488,509,528,549,569,589,608,629,648,669,688,708,729,748,768,788,808,828,850,868,888,908,929,949,969,989,1009,1028,1049,1069,1088,1109,1129,1149,1168,1189,1209,1229,1248,1268,1288,1308,1328,1349,1368,1389,1408,1428,1448,1469,1488,1508,1528,1548,1569,1588,1608,1628,1649,1668,1689,1709,1728,1749,1768,1789,1809,1829,1849,1868,1888,1909,1929,1948,1969,1988,2008,2028,2049,2068,2089,2108,2128,2148,2168,2189,2209,2228,2249,2268,2289,2308,2328,2349,2368,2389,2408,2428,2448,2468,2489,2508,2529,2548,2569,2589,2608,2629,2648,2668,2688,2710,2729,2748,2768,2789,2809,2829,2848,2868,2888,2908,2929,2949,2968,2989,3009,3028,3049,3069,3089,3108,3129,3148,3168,3188,3209,3228,3249,3268,3288,3308,3328,3349,3368,3389,3409],"xSR":741.5,"ySR":573.95,"xT1":424.9,"yT1":0,"xT2":1058.1,"yT2":0,"toosoon":0,"cond_shown":"equaldotsize","ratio_trial":750,"smaller_num":"3","larger_num":"4","correct_side":1,"subjID":"ValentinaGarzonCampos7","gender":"1","age":"8","school":"4"},{"start_time":1552069355750,"click_time":1552069357216,"finger_time":1552069356718,"fix_duration":250,"trial":25,"RT":968,"MT":498,"sideResp":2,"stimulus":"img/900/equaldotanddens/R/7_Ratio_900_L_9_R_10.png","xmouse":[770,770,770,770,770,770,770,770,770,770,770,770,770,770,770,770,770,770,770,770,770,770,770,770,770,770,770,770,770,770,770,770,770,770,770,770,770,770,770,770,770,770,770,770,770,770,778,814,838,848,853,853,853,853,854,873,902,946,981,1006,1023,1033,1042,1055,1071,1078,1080,1081,1084,1090,1101,1108,1114,1117],"ymouse":[636,636,636,636,636,636,636,636,636,636,636,636,636,636,636,636,636,636,636,636,636,636,636,636,636,636,636,636,636,636,636,636,636,636,636,636,636,636,636,636,636,636,636,636,636,636,630,589,560,544,539,539,539,539,537,516,488,443,401,363,323,302,280,255,226,210,198,191,180,167,138,119,101,88],"timestamp_mouse":[13,37,47,67,87,108,127,148,169,187,208,227,248,268,287,307,329,347,368,387,408,427,447,468,488,507,528,547,568,588,608,627,648,667,688,708,728,747,768,788,809,828,848,867,888,907,927,947,968,986,1006,1027,1046,1066,1088,1107,1128,1146,1166,1186,1206,1228,1247,1267,1286,1306,1328,1347,1367,1387,1406,1426,1447,1466],"xSR":741.5,"ySR":573.95,"xT1":424.9,"yT1":0,"xT2":1058.1,"yT2":0,"toosoon":0,"cond_shown":"equaldotanddens","ratio_trial":900,"smaller_num":"9","larger_num":"10","correct_side":2,"subjID":"ValentinaGarzonCampos7","gender":"1","age":"8","school":"4"},{"start_time":1552069360915,"click_time":1552069366837,"finger_time":1552069366556,"fix_duration":1437.0654211742622,"trial":26,"RT":5641,"MT":281,"sideResp":1,"stimulus":"img/500/equaldotsize/R/2_Ratio_500_L_3_R_6.png","xmouse":[813,813,813,813,813,813,813,813,813,813,813,813,813,813,813,813,813,813,813,813,813,813,813,813,813,813,813,813,813,813,813,813,813,813,813,813,813,813,813,813,813,813,813,813,813,813,813,813,813,813,813,813,813,813,813,813,813,813,813,813,813,813,813,813,813,812,810,804,800,798,797,794,793,793,793,793,793,793,793,793,793,793,793,793,793,793,793,793,793,793,793,793,793,793,793,793,793,793,793,793,793,793,793,793,793,793,793,793,793,793,793,793,793,793,793,793,793,793,793,793,793,793,793,793,793,793,793,793,793,793,793,793,793,793,793,793,793,793,793,793,793,792,789,788,787,786,786,786,786,786,786,786,786,786,786,786,786,786,786,786,786,786,786,786,786,786,786,786,786,786,786,786,786,786,786,786,786,786,786,786,786,786,786,786,786,786,786,786,786,786,786,786,786,786,786,786,786,786,786,786,786,786,786,786,786,786,786,786,786,786,786,786,786,786,786,786,786,786,786,786,786,786,786,786,786,786,786,786,786,786,786,786,786,786,786,786,786,786,786,786,786,786,786,786,786,786,786,786,786,786,786,786,786,786,786,786,786,786,786,786,786,786,786,786,786,786,786,786,786,786,786,786,786,786,786,786,786,786,786,786,778,770,732,712,675,631,578,551,547,545,543,543,542,539,533,526,510],"ymouse":[650,650,650,650,650,650,650,650,650,650,650,650,650,650,650,650,650,650,650,650,650,650,650,650,650,650,650,650,650,650,650,650,650,650,650,650,650,650,650,650,650,650,650,650,650,650,650,650,650,650,650,650,650,650,650,650,650,650,650,650,650,650,650,650,650,649,648,645,642,641,641,640,639,639,639,639,639,639,639,639,639,639,639,639,639,639,639,639,639,639,639,639,639,639,639,639,639,639,639,639,639,639,639,639,639,639,639,639,639,639,639,639,639,639,639,639,639,639,639,639,639,639,639,639,639,639,639,639,639,639,639,639,639,639,639,639,639,639,639,639,639,634,625,622,619,618,616,616,616,616,616,616,616,616,616,616,616,616,616,616,616,616,616,616,616,616,616,616,616,616,616,616,616,616,616,616,616,616,616,616,616,616,616,616,616,616,616,616,616,616,616,616,616,616,616,616,616,616,616,616,616,616,616,616,616,616,616,616,616,616,616,616,616,616,616,616,616,616,616,616,616,616,616,616,616,616,616,616,616,616,616,616,616,616,616,616,616,616,616,616,616,616,616,616,616,616,616,616,616,616,616,616,616,616,616,616,616,616,616,616,616,616,616,616,616,616,616,616,616,616,616,616,616,616,616,616,616,616,616,616,606,593,513,467,415,364,303,255,244,235,225,219,196,178,156,131,95],"timestamp_mouse":[10,22,50,63,83,103,121,143,162,182,201,222,243,262,281,302,322,343,363,382,401,422,442,462,482,503,522,541,561,583,602,622,642,661,682,703,723,742,762,783,802,822,842,862,882,903,921,942,961,983,1003,1023,1042,1061,1083,1102,1122,1141,1162,1183,1202,1223,1242,1262,1281,1302,1322,1342,1362,1382,1402,1421,1443,1462,1481,1502,1522,1543,1562,1582,1601,1623,1642,1662,1681,1701,1722,1742,1763,1782,1802,1822,1843,1863,1882,1903,1923,1941,1962,1981,2002,2022,2041,2061,2082,2102,2123,2142,2161,2183,2201,2222,2241,2263,2282,2303,2322,2343,2361,2383,2403,2422,2441,2462,2483,2503,2521,2542,2563,2581,2601,2623,2641,2661,2683,2702,2722,2742,2763,2781,2802,2822,2842,2861,2881,2902,2921,2942,2963,2982,3001,3021,3042,3063,3081,3101,3123,3142,3163,3182,3203,3222,3242,3262,3283,3302,3322,3342,3363,3383,3402,3422,3441,3463,3482,3502,3522,3541,3561,3582,3601,3622,3643,3661,3681,3701,3721,3742,3762,3782,3802,3822,3842,3862,3881,3901,3923,3943,3962,3983,4002,4023,4043,4062,4081,4102,4123,4142,4161,4182,4203,4222,4243,4262,4281,4301,4322,4343,4362,4383,4401,4422,4442,4463,4482,4502,4522,4542,4563,4581,4602,4621,4642,4663,4681,4702,4721,4742,4761,4782,4802,4822,4843,4861,4881,4901,4923,4942,4963,4983,5002,5022,5041,5062,5082,5102,5121,5141,5161,5181,5201,5221,5243,5262,5282,5302,5321,5341,5362,5381,5402,5423,5443,5461,5482,5502,5521,5542,5562,5581,5602,5623,5641,5662,5682,5701,5722,5741,5761,5782,5802,5822,5842,5862,5883,5901,5922],"xSR":741.5,"ySR":573.95,"xT1":424.9,"yT1":0,"xT2":1058.1,"yT2":0,"toosoon":0,"cond_shown":"equaldotsize","ratio_trial":500,"smaller_num":"3","larger_num":"6","correct_side":2,"subjID":"ValentinaGarzonCampos7","gender":"1","age":"8","school":"4"},{"start_time":1552069368994,"click_time":1552069370596,"finger_time":1552069370256,"fix_duration":1235.0777875540898,"trial":27,"RT":1262,"MT":340,"sideResp":2,"stimulus":"img/900/equaldotsize/R/7_Ratio_900_L_9_R_10.png","xmouse":[775,775,775,775,775,775,775,775,775,775,775,775,775,775,775,775,775,775,775,775,775,775,775,775,775,775,775,775,775,775,775,775,775,775,775,775,775,775,775,775,775,775,775,775,775,775,775,775,775,775,775,775,775,775,775,775,775,775,775,775,775,775,776,898,979,1037,1065,1076,1081,1081,1081,1086,1095,1095,1095,1095,1095,1095,1092,1089,1088],"ymouse":[608,608,608,608,608,608,608,608,608,608,608,608,608,608,608,608,608,608,608,608,608,608,608,608,608,608,608,608,608,608,608,608,608,608,608,608,608,608,608,608,608,608,608,608,608,608,608,608,608,608,608,608,608,608,608,608,608,608,608,608,608,608,608,490,398,331,294,276,259,253,239,219,183,178,176,175,173,172,159,133,98],"timestamp_mouse":[9,22,43,62,82,102,124,142,164,183,202,223,243,262,284,302,323,344,363,383,403,422,443,463,483,503,522,543,564,583,603,623,642,663,683,703,724,742,763,782,802,822,844,863,884,903,923,943,963,983,1002,1023,1043,1064,1083,1102,1124,1142,1163,1184,1203,1223,1243,1262,1283,1302,1323,1344,1363,1383,1403,1423,1444,1463,1483,1504,1523,1542,1563,1582,1602],"xSR":741.5,"ySR":573.95,"xT1":424.9,"yT1":0,"xT2":1058.1,"yT2":0,"toosoon":0,"cond_shown":"equaldotsize","ratio_trial":900,"smaller_num":"9","larger_num":"10","correct_side":2,"subjID":"ValentinaGarzonCampos7","gender":"1","age":"8","school":"4"},{"start_time":1552069372808,"click_time":1552069373658,"finger_time":1552069373537,"fix_duration":250,"trial":28,"RT":729,"MT":121,"sideResp":2,"stimulus":"img/250/equaldotsize/R/12_Ratio_250_L_5_R_20.png","xmouse":[782,782,782,782,782,782,782,782,782,782,782,782,782,782,782,782,782,782,782,782,782,782,782,782,782,782,782,782,782,782,782,782,782,782,782,790,804,899,950,981,1022,1050,1090],"ymouse":[622,622,622,622,622,622,622,622,622,622,622,622,622,622,622,622,622,622,622,622,622,622,622,622,622,622,622,622,622,622,622,622,622,622,622,593,559,384,301,250,178,128,59],"timestamp_mouse":[14,29,49,69,90,108,130,150,170,189,209,230,249,268,289,308,329,350,370,388,408,428,450,469,490,510,528,548,568,589,608,629,649,670,690,708,729,749,769,789,808,830,850],"xSR":741.5,"ySR":573.95,"xT1":424.9,"yT1":0,"xT2":1058.1,"yT2":0,"toosoon":0,"cond_shown":"equaldotsize","ratio_trial":250,"smaller_num":"5","larger_num":"20","correct_side":2,"subjID":"ValentinaGarzonCampos7","gender":"1","age":"8","school":"4"},{"start_time":1552069376075,"click_time":1552069377258,"finger_time":1552069376957,"fix_duration":1035.2233254070484,"trial":29,"RT":882,"MT":301,"sideResp":2,"stimulus":"img/250/randomdotsizeEA/R/13_Ratio_250_L_2_R_8.png","xmouse":[789,789,789,789,789,789,789,789,789,789,789,789,789,789,789,789,789,789,789,789,789,789,789,789,789,789,789,789,789,789,789,789,789,789,789,789,789,789,789,789,789,789,789,792,871,942,1015,1090,1210,1270,1272,1272,1270,1264,1253,1251,1248,1248,1228,1128],"ymouse":[621,621,621,621,621,621,621,621,621,621,621,621,621,621,621,621,621,621,621,621,621,621,621,621,621,621,621,621,621,621,621,621,621,621,621,621,621,621,621,621,621,621,621,620,520,439,358,275,139,53,44,40,35,26,0,0,0,0,0,32],"timestamp_mouse":[10,21,41,62,83,103,123,141,162,182,203,221,241,262,281,302,321,342,361,382,403,422,442,461,482,501,521,541,562,581,603,622,642,661,683,702,722,742,763,783,802,821,842,863,882,903,922,941,961,981,1002,1022,1042,1061,1081,1102,1122,1141,1162,1182],"xSR":741.5,"ySR":573.95,"xT1":424.9,"yT1":0,"xT2":1058.1,"yT2":0,"toosoon":0,"cond_shown":"randomdotsizeEA","ratio_trial":250,"smaller_num":"2","larger_num":"8","correct_side":2,"subjID":"ValentinaGarzonCampos7","gender":"1","age":"8","school":"4"},{"start_time":1552069379773,"click_time":1552069380877,"finger_time":1552069380657,"fix_duration":1173.005713679125,"trial":30,"RT":884,"MT":220,"sideResp":1,"stimulus":"img/500/equaldotsize/L/7_Ratio_500_L_10_R_5.png","xmouse":[787,787,787,787,787,787,787,787,787,787,787,787,787,787,787,787,787,787,787,787,787,787,787,787,787,787,787,787,787,787,787,787,787,787,787,787,787,787,787,787,787,787,785,777,628,574,539,520,511,506,506,503,492,482,463,455],"ymouse":[606,606,606,606,606,606,606,606,606,606,606,606,606,606,606,606,606,606,606,606,606,606,606,606,606,606,606,606,606,606,606,606,606,606,606,606,606,606,606,606,606,606,606,603,492,432,383,349,321,280,255,227,186,160,112,94],"timestamp_mouse":[13,29,44,64,83,103,125,144,164,183,204,224,245,265,285,303,324,344,365,383,405,425,444,464,485,504,524,544,565,584,604,625,644,664,683,703,725,744,763,785,803,823,844,864,884,904,924,944,965,983,1005,1024,1043,1064,1083,1104],"xSR":741.5,"ySR":573.95,"xT1":424.9,"yT1":0,"xT2":1058.1,"yT2":0,"toosoon":0,"cond_shown":"equaldotsize","ratio_trial":500,"smaller_num":"5","larger_num":"10","correct_side":1,"subjID":"ValentinaGarzonCampos7","gender":"1","age":"8","school":"4"},{"start_time":1552069382667,"click_time":1552069384357,"finger_time":1552069383437,"fix_duration":727.5341782116227,"trial":31,"RT":770,"MT":920,"sideResp":2,"stimulus":"img/900/equaldotsize/R/13_Ratio_900_L_18_R_20.png","xmouse":[780,780,780,780,780,780,780,780,780,780,780,780,780,780,780,780,780,780,780,780,780,780,780,780,780,780,780,780,780,780,780,780,780,780,780,780,780,797,871,1188,1273,1305,1312,1312,1313,1313,1313,1313,1309,1285,1267,1248,1230,1219,1209,1206,1206,1205,1204,1203,1203,1200,1189,1178,1169,1166,1165,1164,1164,1163,1163,1163,1163,1163,1163,1163,1163,1163,1163,1163,1163,1163,1163,1162,1136],"ymouse":[614,614,614,614,614,614,614,614,614,614,614,614,614,614,614,614,614,614,614,614,614,614,614,614,614,614,614,614,614,614,614,614,614,614,614,614,614,602,537,232,142,111,101,94,87,87,87,86,83,72,65,57,53,51,50,50,49,49,49,49,49,49,49,49,46,44,44,44,44,44,44,44,44,44,44,44,44,44,44,44,44,44,44,44,43],"timestamp_mouse":[11,36,50,69,89,109,129,151,171,191,209,231,250,269,290,310,331,349,371,390,409,429,451,470,491,510,530,550,571,590,610,629,650,671,690,709,731,750,770,790,811,830,851,870,889,909,929,950,970,990,1009,1030,1050,1071,1090,1110,1130,1150,1171,1191,1210,1231,1251,1270,1290,1310,1330,1349,1369,1389,1409,1430,1449,1470,1491,1510,1530,1549,1571,1590,1611,1629,1649,1669,1690],"xSR":741.5,"ySR":573.95,"xT1":424.9,"yT1":0,"xT2":1058.1,"yT2":0,"toosoon":0,"cond_shown":"equaldotsize","ratio_trial":900,"smaller_num":"18","larger_num":"20","correct_side":2,"subjID":"ValentinaGarzonCampos7","gender":"1","age":"8","school":"4"},{"start_time":1552069386790,"click_time":1552069388137,"finger_time":1552069387837,"fix_duration":1492.8006456709293,"trial":32,"RT":1047,"MT":300,"sideResp":2,"stimulus":"img/250/randomdotsizeEA/R/11_Ratio_250_L_3_R_12.png","xmouse":[775,775,775,775,775,775,775,775,775,775,775,775,775,775,775,775,775,775,775,775,775,775,775,775,775,775,775,775,775,775,775,775,775,775,775,775,775,775,775,775,775,775,775,775,775,775,775,775,775,775,780,804,912,1063,1119,1157,1177,1190,1202,1204,1213,1216,1218,1208,1199,1187,1169,1147],"ymouse":[635,635,635,635,635,635,635,635,635,635,635,635,635,635,635,635,635,635,635,635,635,635,635,635,635,635,635,635,635,635,635,635,635,635,635,635,635,635,635,635,635,635,635,635,635,635,635,635,635,635,633,613,519,388,330,275,243,215,167,149,119,110,80,48,39,36,35,34],"timestamp_mouse":[13,41,47,67,87,107,126,147,167,187,206,227,246,267,287,307,327,348,367,386,406,426,446,467,486,508,528,547,567,587,606,628,647,667,687,706,727,747,768,787,807,826,846,868,888,908,927,947,967,988,1007,1027,1047,1066,1088,1107,1127,1147,1167,1188,1207,1227,1247,1267,1287,1307,1327,1347],"xSR":741.5,"ySR":573.95,"xT1":424.9,"yT1":0,"xT2":1058.1,"yT2":0,"toosoon":0,"cond_shown":"randomdotsizeEA","ratio_trial":250,"smaller_num":"3","larger_num":"12","correct_side":2,"subjID":"ValentinaGarzonCampos7","gender":"1","age":"8","school":"4"},{"start_time":1552069390106,"click_time":1552069391338,"finger_time":1552069390977,"fix_duration":1068.0213342397635,"trial":33,"RT":871,"MT":361,"sideResp":2,"stimulus":"img/750/equaldotanddens/R/5_Ratio_750_L_15_R_20.png","xmouse":[791,791,791,791,791,791,791,791,791,791,791,791,791,791,791,791,791,791,791,791,791,791,791,791,791,791,791,791,791,791,791,791,791,791,791,791,791,791,791,791,791,791,792,816,850,860,870,885,891,898,905,909,915,919,927,941,972,1003,1018,1033,1049,1063],"ymouse":[608,608,608,608,608,608,608,608,608,608,608,608,608,608,608,608,608,608,608,608,608,608,608,608,608,608,608,608,608,608,608,608,608,608,608,608,608,608,608,608,608,608,601,560,508,490,473,439,422,407,391,381,359,343,322,290,231,182,162,141,120,99],"timestamp_mouse":[10,32,50,71,90,110,130,150,171,190,211,231,251,271,290,311,332,351,371,391,411,430,450,471,492,511,532,552,570,591,612,632,652,670,690,711,731,751,771,790,811,830,851,871,891,911,932,950,970,991,1012,1031,1051,1070,1091,1110,1130,1150,1171,1192,1212,1232],"xSR":741.5,"ySR":573.95,"xT1":424.9,"yT1":0,"xT2":1058.1,"yT2":0,"toosoon":0,"cond_shown":"equaldotanddens","ratio_trial":750,"smaller_num":"15","larger_num":"20","correct_side":2,"subjID":"ValentinaGarzonCampos7","gender":"1","age":"8","school":"4"},{"start_time":1552069393538,"click_time":1552069395176,"finger_time":1552069394377,"fix_duration":1339.7966037756082,"trial":34,"RT":839,"MT":799,"sideResp":2,"stimulus":"img/750/equaldotanddens/R/11_Ratio_750_L_12_R_16.png","xmouse":[781,781,781,781,781,781,781,781,781,781,781,781,781,781,781,781,781,781,781,781,781,781,781,781,781,781,781,781,781,781,781,781,781,781,781,781,781,781,781,781,781,787,802,828,865,911,942,951,953,955,959,972,981,989,997,1011,1024,1031,1041,1050,1062,1080,1085,1090,1096,1100,1100,1100,1100,1100,1100,1100,1100,1100,1100,1100,1100,1100,1100,1100,1100,1100,1100],"ymouse":[594,594,594,594,594,594,594,594,594,594,594,594,594,594,594,594,594,594,594,594,594,594,594,594,594,594,594,594,594,594,594,594,594,594,594,594,594,594,594,594,594,587,567,531,488,441,415,408,405,401,390,355,337,319,300,263,216,199,185,172,158,136,129,120,112,104,104,104,104,104,104,104,104,104,104,104,104,104,104,104,104,104,91],"timestamp_mouse":[1,19,38,59,79,100,120,139,159,179,199,220,240,259,279,300,319,338,358,378,399,419,438,460,479,499,520,539,560,580,599,619,639,658,679,699,720,740,758,779,799,818,839,859,879,900,918,938,958,979,999,1019,1038,1059,1079,1099,1118,1139,1159,1179,1199,1218,1239,1258,1280,1300,1319,1339,1358,1378,1398,1419,1439,1458,1478,1499,1519,1539,1559,1579,1598,1618,1638],"xSR":741.5,"ySR":573.95,"xT1":424.9,"yT1":0,"xT2":1058.1,"yT2":0,"toosoon":0,"cond_shown":"equaldotanddens","ratio_trial":750,"smaller_num":"12","larger_num":"16","correct_side":2,"subjID":"ValentinaGarzonCampos7","gender":"1","age":"8","school":"4"},{"start_time":1552069396269,"click_time":1552069397436,"finger_time":1552069397057,"fix_duration":250,"trial":35,"RT":788,"MT":379,"sideResp":2,"stimulus":"img/250/randomdotsizeEA/R/4_Ratio_250_L_3_R_12.png","xmouse":[781,781,781,781,781,781,781,781,781,781,781,781,781,781,781,781,781,781,781,781,781,781,781,781,781,781,781,781,781,781,781,781,781,781,781,781,781,782,796,841,871,903,931,949,976,984,990,991,995,1008,1018,1030,1043,1057,1081,1089,1094,1099,1107],"ymouse":[645,645,645,645,645,645,645,645,645,645,645,645,645,645,645,645,645,645,645,645,645,645,645,645,645,645,645,645,645,645,645,645,645,645,645,645,645,644,627,573,536,496,460,432,390,374,362,359,344,315,291,263,232,202,149,130,118,109,93],"timestamp_mouse":[10,28,47,67,88,107,127,149,169,188,208,227,249,269,288,308,327,347,369,388,407,427,447,468,489,508,528,547,569,587,607,628,648,669,689,707,727,747,768,788,807,827,848,867,888,909,928,949,969,987,1008,1028,1048,1068,1088,1107,1128,1148,1167],"xSR":741.5,"ySR":573.95,"xT1":424.9,"yT1":0,"xT2":1058.1,"yT2":0,"toosoon":0,"cond_shown":"randomdotsizeEA","ratio_trial":250,"smaller_num":"3","larger_num":"12","correct_side":2,"subjID":"ValentinaGarzonCampos7","gender":"1","age":"8","school":"4"},{"start_time":1552069398929,"click_time":1552069400137,"finger_time":1552069399817,"fix_duration":608.9699018298487,"trial":36,"RT":888,"MT":320,"sideResp":1,"stimulus":"img/750/equaldotsize/L/10_Ratio_750_L_4_R_3.png","xmouse":[808,808,808,808,808,808,808,808,808,808,808,808,808,808,808,808,808,808,808,808,808,808,808,808,808,808,808,808,808,808,808,808,808,808,808,808,808,808,808,808,805,797,785,767,680,609,519,493,466,440,417,379,371,368,368,368,370,377,386,405,426],"ymouse":[640,640,640,640,640,640,640,640,640,640,640,640,640,640,640,640,640,640,640,640,640,640,640,640,640,640,640,640,640,640,640,640,640,640,640,640,640,640,640,640,639,633,623,600,512,443,339,294,239,187,140,76,60,51,46,39,36,34,33,32,32],"timestamp_mouse":[14,36,48,67,87,107,128,148,168,189,209,228,249,269,288,308,327,348,367,389,408,428,448,469,489,508,527,548,568,587,609,629,649,667,688,708,729,749,768,788,808,827,848,868,888,907,927,949,968,987,1008,1028,1049,1068,1087,1108,1127,1148,1167,1188,1208],"xSR":741.5,"ySR":573.95,"xT1":424.9,"yT1":0,"xT2":1058.1,"yT2":0,"toosoon":0,"cond_shown":"equaldotsize","ratio_trial":750,"smaller_num":"3","larger_num":"4","correct_side":1,"subjID":"ValentinaGarzonCampos7","gender":"1","age":"8","school":"4"},{"start_time":1552069401909,"click_time":1552069402756,"finger_time":1552069402517,"fix_duration":910.3937697343849,"trial":37,"RT":608,"MT":239,"sideResp":2,"stimulus":"img/250/equaldotanddens/R/6_Ratio_250_L_6_R_24.png","xmouse":[790,790,790,790,790,790,790,790,790,790,790,790,790,790,790,790,790,790,790,790,790,790,790,790,790,790,790,790,790,804,830,877,969,1009,1040,1056,1067,1087,1098,1103,1104,1104,1104],"ymouse":[608,608,608,608,608,608,608,608,608,608,608,608,608,608,608,608,608,608,608,608,608,608,608,608,608,608,608,608,608,594,570,525,424,376,334,307,274,210,174,150,130,117,91],"timestamp_mouse":[10,38,49,68,87,107,127,147,168,189,208,228,249,267,288,308,327,348,367,389,408,428,448,469,487,507,528,547,568,587,608,629,647,667,687,708,728,749,767,789,808,828,847],"xSR":741.5,"ySR":573.95,"xT1":424.9,"yT1":0,"xT2":1058.1,"yT2":0,"toosoon":0,"cond_shown":"equaldotanddens","ratio_trial":250,"smaller_num":"6","larger_num":"24","correct_side":2,"subjID":"ValentinaGarzonCampos7","gender":"1","age":"8","school":"4"},{"start_time":1552069404156,"click_time":1552069405357,"finger_time":1552069405057,"fix_duration":496.9138487939995,"trial":38,"RT":901,"MT":300,"sideResp":1,"stimulus":"img/250/equaldotsize/L/2_Ratio_250_L_16_R_4.png","xmouse":[805,805,805,805,805,805,805,805,805,805,805,805,805,805,805,805,805,805,805,805,805,805,805,805,805,805,805,805,805,805,805,805,805,805,805,805,805,805,805,805,805,805,805,805,801,671,552,454,381,333,316,316,327,354,362,380,389,399,409,417,436],"ymouse":[624,624,624,624,624,624,624,624,624,624,624,624,624,624,624,624,624,624,624,624,624,624,624,624,624,624,624,624,624,624,624,624,624,624,624,624,624,624,624,624,624,624,624,624,624,626,609,559,493,425,377,356,314,251,227,193,174,150,126,104,68],"timestamp_mouse":[12,25,44,60,82,100,120,140,160,182,200,222,241,260,282,301,321,341,361,382,401,422,440,462,481,500,520,542,562,580,602,621,641,660,680,700,721,741,760,781,801,822,841,861,881,901,920,940,961,980,1001,1021,1041,1062,1081,1102,1121,1140,1160,1181,1201],"xSR":741.5,"ySR":573.95,"xT1":424.9,"yT1":0,"xT2":1058.1,"yT2":0,"toosoon":0,"cond_shown":"equaldotsize","ratio_trial":250,"smaller_num":"4","larger_num":"16","correct_side":1,"subjID":"ValentinaGarzonCampos7","gender":"1","age":"8","school":"4"},{"start_time":1552069408981,"click_time":1552069411037,"finger_time":1552069410797,"fix_duration":1421.8757639809637,"trial":39,"RT":1816,"MT":240,"sideResp":1,"stimulus":"img/500/randomdotsizeEA/L/10_Ratio_500_L_4_R_2.png","xmouse":[801,801,801,801,801,801,801,801,801,801,801,801,801,801,801,801,801,801,801,801,801,801,801,801,801,801,801,801,801,801,801,801,801,801,801,801,801,801,801,801,801,801,801,801,801,801,801,801,801,801,801,801,801,801,801,801,801,801,801,801,801,801,801,801,801,801,801,801,801,801,801,801,801,801,801,801,801,801,801,801,801,801,801,801,801,801,801,801,798,772,727,644,621,550,542,539,537,529,475,430,407,415,426],"ymouse":[631,631,631,631,631,631,631,631,631,631,631,631,631,631,631,631,631,631,631,631,631,631,631,631,631,631,631,631,631,631,631,631,631,631,631,631,631,631,631,631,631,631,631,631,631,631,631,631,631,631,631,631,631,631,631,631,631,631,631,631,631,631,631,631,631,631,631,631,631,631,631,631,631,631,631,631,631,631,631,631,631,631,631,631,631,631,631,631,629,582,516,432,411,344,333,327,323,309,236,182,140,112,99],"timestamp_mouse":[15,39,56,76,97,115,135,156,177,196,215,237,256,275,296,317,337,355,377,396,416,435,457,476,496,515,536,555,576,596,616,635,655,677,695,716,737,757,776,796,817,836,856,877,896,915,935,956,976,996,1015,1036,1055,1077,1095,1115,1135,1157,1177,1196,1216,1235,1256,1276,1295,1316,1335,1356,1376,1395,1417,1435,1457,1475,1497,1515,1535,1556,1576,1595,1616,1637,1656,1675,1696,1717,1736,1756,1776,1797,1816,1835,1857,1877,1896,1915,1936,1955,1976,1997,2016,2036,2056],"xSR":741.5,"ySR":573.95,"xT1":424.9,"yT1":0,"xT2":1058.1,"yT2":0,"toosoon":0,"cond_shown":"randomdotsizeEA","ratio_trial":500,"smaller_num":"2","larger_num":"4","correct_side":1,"subjID":"ValentinaGarzonCampos7","gender":"1","age":"8","school":"4"},{"start_time":1552069413368,"click_time":1552069414798,"finger_time":1552069414057,"fix_duration":1350.9291103169187,"trial":40,"RT":689,"MT":741,"sideResp":2,"stimulus":"img/250/equaldotsize/R/9_Ratio_250_L_3_R_12.png","xmouse":[779,779,779,779,779,779,779,779,779,779,779,779,779,779,779,779,779,779,779,779,779,779,779,779,779,779,779,779,779,779,779,779,787,802,855,887,913,930,949,955,958,959,961,965,979,985,990,996,1002,1020,1039,1058,1074,1089,1095,1095,1095,1095,1095,1095,1095,1095,1095,1095,1095,1095,1095,1095,1095,1095,1095,1097],"ymouse":[640,640,640,640,640,640,640,640,640,640,640,640,640,640,640,640,640,640,640,640,640,640,640,640,640,640,640,640,640,640,640,640,631,611,536,490,447,423,375,352,329,309,288,273,242,225,208,194,182,160,149,140,133,122,111,111,110,110,110,110,110,110,110,110,110,110,110,110,110,110,110,99],"timestamp_mouse":[11,39,50,69,88,109,128,148,170,189,209,228,249,268,290,310,328,348,369,388,409,430,448,470,488,509,528,549,570,589,608,629,649,669,689,709,729,749,770,789,810,829,848,869,890,909,928,950,970,989,1010,1029,1049,1069,1088,1110,1130,1148,1169,1190,1208,1228,1249,1268,1289,1309,1328,1349,1368,1389,1408,1429],"xSR":741.5,"ySR":573.95,"xT1":424.9,"yT1":0,"xT2":1058.1,"yT2":0,"toosoon":0,"cond_shown":"equaldotsize","ratio_trial":250,"smaller_num":"3","larger_num":"12","correct_side":2,"subjID":"ValentinaGarzonCampos7","gender":"1","age":"8","school":"4"},{"start_time":1552069416772,"click_time":1552069417978,"finger_time":1552069417697,"fix_duration":1074.0359970908248,"trial":41,"RT":925,"MT":281,"sideResp":2,"stimulus":"img/750/randomdotsizeEA/R/11_Ratio_750_L_12_R_16.png","xmouse":[796,796,796,796,796,796,796,796,796,796,796,796,796,796,796,796,796,796,796,796,796,796,796,796,796,796,796,796,796,796,796,796,796,796,796,796,796,796,796,796,796,796,796,796,802,817,841,873,903,955,969,979,993,1004,1033,1045,1058,1067,1071,1071,1071],"ymouse":[614,614,614,614,614,614,614,614,614,614,614,614,614,614,614,614,614,614,614,614,614,614,614,614,614,614,614,614,614,614,614,614,614,614,614,614,614,614,614,614,614,614,614,614,606,583,543,490,432,342,316,298,273,255,209,183,160,142,128,106,98],"timestamp_mouse":[9,38,44,65,84,104,124,145,165,185,205,225,244,264,285,304,325,344,364,385,404,425,445,465,485,505,524,544,565,584,604,625,645,665,684,704,725,744,764,784,804,824,844,864,884,904,925,944,964,984,1004,1024,1045,1065,1084,1104,1124,1145,1164,1184,1205],"xSR":741.5,"ySR":573.95,"xT1":424.9,"yT1":0,"xT2":1058.1,"yT2":0,"toosoon":0,"cond_shown":"randomdotsizeEA","ratio_trial":750,"smaller_num":"12","larger_num":"16","correct_side":2,"subjID":"ValentinaGarzonCampos7","gender":"1","age":"8","school":"4"},{"start_time":1552069419641,"click_time":1552069421156,"finger_time":1552069420617,"fix_duration":802.260848571909,"trial":42,"RT":976,"MT":539,"sideResp":1,"stimulus":"img/900/equaldotanddens/L/8_Ratio_900_L_20_R_18.png","xmouse":[783,783,783,783,783,783,783,783,783,783,783,783,783,783,783,783,783,783,783,783,783,783,783,783,783,783,783,783,783,783,783,783,783,783,783,783,783,783,783,783,783,783,783,783,783,783,780,769,740,726,715,708,703,699,692,675,670,666,661,657,642,630,613,593,577,560,558,556,551,548,540,539,538,535,526,497],"ymouse":[625,625,625,625,625,625,625,625,625,625,625,625,625,625,625,625,625,625,625,625,625,625,625,625,625,625,625,625,625,625,625,625,625,625,625,625,625,625,625,625,625,625,625,625,625,625,625,625,619,605,558,516,470,432,396,334,315,300,282,272,249,237,225,213,202,189,182,166,135,117,96,95,94,89,76,42],"timestamp_mouse":[15,41,55,75,96,116,135,155,176,196,216,235,255,276,296,315,335,356,375,395,416,436,455,476,496,516,535,556,576,595,616,636,656,676,696,715,735,756,776,795,816,836,856,876,896,917,935,956,976,995,1015,1036,1056,1076,1095,1115,1135,1156,1175,1195,1215,1235,1256,1275,1296,1315,1335,1356,1375,1396,1416,1435,1455,1476,1496,1515],"xSR":741.5,"ySR":573.95,"xT1":424.9,"yT1":0,"xT2":1058.1,"yT2":0,"toosoon":0,"cond_shown":"equaldotanddens","ratio_trial":900,"smaller_num":"18","larger_num":"20","correct_side":1,"subjID":"ValentinaGarzonCampos7","gender":"1","age":"8","school":"4"},{"start_time":1552069423583,"click_time":1552069424476,"finger_time":1552069424356,"fix_duration":1125.497817785021,"trial":43,"RT":773,"MT":120,"sideResp":2,"stimulus":"img/750/equaldotanddens/R/7_Ratio_750_L_3_R_4.png","xmouse":[780,780,780,780,780,780,780,780,780,780,780,780,780,780,780,780,780,780,780,780,780,780,780,780,780,780,780,780,780,780,780,780,780,780,784,789,804,821,872,907,942,996,1027,1064,1068],"ymouse":[617,617,617,617,617,617,617,617,617,617,617,617,617,617,617,617,617,617,617,617,617,617,617,617,617,617,617,617,617,617,617,617,617,617,615,611,600,587,542,490,427,326,251,119,93],"timestamp_mouse":[13,33,53,73,94,113,133,154,173,194,213,234,254,274,294,314,334,354,373,393,413,434,453,473,494,513,534,554,573,594,613,634,654,674,693,713,733,753,773,794,813,833,854,874,893],"xSR":741.5,"ySR":573.95,"xT1":424.9,"yT1":0,"xT2":1058.1,"yT2":0,"toosoon":0,"cond_shown":"equaldotanddens","ratio_trial":750,"smaller_num":"3","larger_num":"4","correct_side":2,"subjID":"ValentinaGarzonCampos7","gender":"1","age":"8","school":"4"},{"start_time":1552069426541,"click_time":1552069428796,"finger_time":1552069428416,"fix_duration":1062.8662688709692,"trial":44,"RT":1875,"MT":380,"sideResp":2,"stimulus":"img/750/randomdotsizeEA/R/15_Ratio_750_L_9_R_12.png","xmouse":[777,777,777,777,777,777,777,777,777,777,777,777,777,777,777,777,777,777,777,777,777,777,777,777,777,777,777,777,777,777,777,777,777,777,777,777,777,777,777,777,777,777,777,777,777,777,777,777,777,777,777,777,777,777,777,777,777,777,777,777,777,777,777,777,777,777,777,777,777,777,777,777,777,777,777,777,777,777,777,777,777,777,777,777,777,777,777,777,777,777,777,785,794,805,824,840,846,852,862,879,930,952,969,984,1003,1049,1069,1084,1099,1128,1142,1152,1156],"ymouse":[604,604,604,604,604,604,604,604,604,604,604,604,604,604,604,604,604,604,604,604,604,604,604,604,604,604,604,604,604,604,604,604,604,604,604,604,604,604,604,604,604,604,604,604,604,604,604,604,604,604,604,604,604,604,604,604,604,604,604,604,604,604,604,604,604,604,604,604,604,604,604,604,604,604,604,604,604,604,604,604,604,604,604,604,604,604,604,604,604,604,605,592,580,565,543,520,511,500,483,459,397,377,357,338,311,234,206,186,169,135,116,103,92],"timestamp_mouse":[16,36,55,76,95,116,135,156,176,195,215,236,255,275,295,315,335,356,375,396,416,436,456,476,496,516,536,556,576,596,615,636,656,676,695,715,735,756,776,796,816,835,855,877,896,915,935,956,975,995,1015,1035,1055,1075,1095,1116,1135,1155,1175,1196,1216,1235,1256,1276,1296,1315,1336,1356,1375,1396,1416,1436,1455,1476,1496,1516,1536,1555,1575,1595,1616,1636,1656,1676,1696,1715,1735,1755,1776,1795,1815,1836,1855,1875,1895,1915,1936,1955,1976,1996,2015,2036,2055,2075,2096,2116,2135,2155,2175,2197,2215,2236,2255],"xSR":741.5,"ySR":573.95,"xT1":424.9,"yT1":0,"xT2":1058.1,"yT2":0,"toosoon":0,"cond_shown":"randomdotsizeEA","ratio_trial":750,"smaller_num":"9","larger_num":"12","correct_side":2,"subjID":"ValentinaGarzonCampos7","gender":"1","age":"8","school":"4"},{"start_time":1552069431833,"click_time":1552069432676,"finger_time":1552069432517,"fix_duration":1215.989958705157,"trial":45,"RT":684,"MT":159,"sideResp":2,"stimulus":"img/900/randomdotsizeEA/R/13_Ratio_900_L_18_R_20.png","xmouse":[767,767,768,769,769,769,769,769,769,769,769,769,769,769,769,769,769,769,769,769,769,769,769,769,769,769,769,769,769,769,769,769,776,790,826,870,969,1006,1035,1042,1057,1069,1072],"ymouse":[655,655,655,655,655,655,655,655,655,655,655,655,655,655,655,655,655,655,655,655,655,655,655,655,655,655,655,655,655,655,655,655,642,613,549,479,308,229,163,150,124,102,93],"timestamp_mouse":[11,33,43,64,83,103,124,144,163,184,204,224,244,263,284,303,324,344,363,384,404,424,443,463,484,504,524,544,563,584,604,624,643,664,684,704,723,744,764,784,803,823,843],"xSR":741.5,"ySR":573.95,"xT1":424.9,"yT1":0,"xT2":1058.1,"yT2":0,"toosoon":0,"cond_shown":"randomdotsizeEA","ratio_trial":900,"smaller_num":"18","larger_num":"20","correct_side":2,"subjID":"ValentinaGarzonCampos7","gender":"1","age":"8","school":"4"},{"start_time":1552069434522,"click_time":1552069435637,"finger_time":1552069435337,"fix_duration":764.5032354220783,"trial":46,"RT":815,"MT":300,"sideResp":2,"stimulus":"img/900/equaldotsize/R/15_Ratio_900_L_9_R_10.png","xmouse":[753,753,753,753,753,753,753,753,753,753,753,753,753,753,753,753,753,753,753,753,753,753,753,753,753,753,753,753,753,753,753,753,753,753,753,753,753,753,761,770,792,850,868,882,904,922,959,978,992,1000,1005,1022,1034,1044,1053,1068],"ymouse":[621,621,621,621,621,621,621,621,621,621,621,621,621,621,621,621,621,621,621,621,621,621,621,621,621,621,621,621,621,621,621,621,621,621,621,621,621,621,611,597,557,458,420,386,338,308,261,237,215,196,181,151,134,120,107,86],"timestamp_mouse":[14,43,55,74,94,114,135,154,175,194,215,235,254,275,295,314,335,354,375,394,415,435,454,475,494,515,535,555,574,595,614,635,655,676,694,716,734,755,775,795,815,834,854,874,894,915,934,954,975,994,1015,1034,1055,1075,1094,1115],"xSR":741.5,"ySR":573.95,"xT1":424.9,"yT1":0,"xT2":1058.1,"yT2":0,"toosoon":0,"cond_shown":"equaldotsize","ratio_trial":900,"smaller_num":"9","larger_num":"10","correct_side":2,"subjID":"ValentinaGarzonCampos7","gender":"1","age":"8","school":"4"},{"start_time":1552069437295,"click_time":1552069438257,"finger_time":1552069437897,"fix_duration":878.8109142476292,"trial":47,"RT":602,"MT":360,"sideResp":2,"stimulus":"img/750/equaldotanddens/R/12_Ratio_750_L_3_R_4.png","xmouse":[794,794,794,794,794,794,794,794,794,794,794,794,794,794,794,794,794,794,794,794,794,794,794,794,794,794,794,794,802,824,860,898,902,923,938,949,955,958,961,962,966,973,987,1022,1035,1043,1057,1071,1098],"ymouse":[640,640,640,640,640,640,640,640,640,640,640,640,640,640,640,640,640,640,640,640,640,640,640,640,640,640,640,640,630,593,522,438,426,389,352,320,304,296,284,279,271,260,242,200,184,172,151,135,98],"timestamp_mouse":[6,34,41,61,81,102,121,141,162,181,201,222,242,261,281,301,322,342,362,382,401,422,442,462,482,501,522,541,562,581,602,621,642,661,682,701,721,741,762,781,801,821,842,861,881,901,922,941,962],"xSR":741.5,"ySR":573.95,"xT1":424.9,"yT1":0,"xT2":1058.1,"yT2":0,"toosoon":0,"cond_shown":"equaldotanddens","ratio_trial":750,"smaller_num":"3","larger_num":"4","correct_side":2,"subjID":"ValentinaGarzonCampos7","gender":"1","age":"8","school":"4"},{"start_time":1552069440729,"click_time":1552069441997,"finger_time":1552069441676,"fix_duration":250,"trial":48,"RT":947,"MT":321,"sideResp":2,"stimulus":"img/750/equaldotsize/R/4_Ratio_750_L_15_R_20.png","xmouse":[795,795,795,795,795,795,795,795,795,795,795,795,795,795,795,795,795,795,795,795,795,795,795,795,795,795,795,795,795,795,795,795,795,795,795,795,795,795,795,795,795,795,795,795,795,795,798,860,949,1023,1069,1080,1077,1071,1069,1064,1064,1066,1069,1071,1073,1077,1080,1083],"ymouse":[643,643,643,643,643,643,643,643,643,643,643,643,643,643,643,643,643,643,643,643,643,643,643,643,643,643,643,643,643,643,643,643,643,643,643,643,643,643,643,643,643,643,643,643,643,643,631,522,392,291,223,185,180,176,174,167,150,135,126,117,111,105,101,96],"timestamp_mouse":[10,27,48,75,87,107,128,147,168,188,207,227,248,268,288,307,327,348,368,388,408,427,449,468,488,508,528,548,567,588,607,628,649,667,688,707,728,748,767,787,807,828,848,868,887,907,927,947,967,987,1008,1027,1047,1067,1089,1107,1127,1147,1168,1187,1207,1227,1247,1268],"xSR":741.5,"ySR":573.95,"xT1":424.9,"yT1":0,"xT2":1058.1,"yT2":0,"toosoon":0,"cond_shown":"equaldotsize","ratio_trial":750,"smaller_num":"15","larger_num":"20","correct_side":2,"subjID":"ValentinaGarzonCampos7","gender":"1","age":"8","school":"4"},{"start_time":1552069445144,"click_time":1552069446556,"finger_time":1552069445996,"fix_duration":825.6009732938326,"trial":49,"RT":852,"MT":560,"sideResp":2,"stimulus":"img/900/equaldotsize/R/6_Ratio_900_L_9_R_10.png","xmouse":[781,781,781,781,781,781,781,781,781,781,781,781,781,781,781,781,781,781,781,781,781,781,781,781,781,781,781,781,781,781,781,781,781,781,781,781,781,781,781,784,806,835,888,917,933,949,954,957,958,958,946,945,952,979,1005,1056,1070,1073,1074,1077,1111,1133,1143,1144,1144,1144,1144,1144,1144,1144,1136],"ymouse":[654,654,654,654,654,654,654,654,654,654,654,654,654,654,654,654,654,654,654,654,654,654,654,654,654,654,654,654,654,654,654,654,654,654,654,654,654,654,654,654,633,601,531,492,468,440,423,400,375,342,272,238,211,174,160,143,139,138,137,136,125,119,112,110,110,110,110,110,110,107,96],"timestamp_mouse":[12,37,52,72,92,113,132,153,173,193,212,232,253,272,293,313,332,354,373,392,412,433,453,472,492,513,532,554,573,592,613,633,653,672,693,713,732,752,772,792,812,832,852,872,893,912,932,953,972,992,1012,1032,1052,1072,1092,1112,1133,1152,1173,1193,1212,1233,1252,1272,1293,1313,1332,1352,1372,1392,1412],"xSR":741.5,"ySR":573.95,"xT1":424.9,"yT1":0,"xT2":1058.1,"yT2":0,"toosoon":0,"cond_shown":"equaldotsize","ratio_trial":900,"smaller_num":"9","larger_num":"10","correct_side":2,"subjID":"ValentinaGarzonCampos7","gender":"1","age":"8","school":"4"},{"start_time":1552069448446,"click_time":1552069450216,"finger_time":1552069449916,"fix_duration":848.6786221463991,"trial":50,"RT":1470,"MT":300,"sideResp":1,"stimulus":"img/500/randomdotsizeEA/L/10_Ratio_500_L_4_R_2.png","xmouse":[790,790,790,790,790,790,790,790,790,790,790,790,790,790,790,790,790,790,790,790,790,790,790,790,790,790,790,790,790,790,790,790,790,790,790,790,790,790,790,790,790,790,790,790,790,790,790,790,790,790,790,790,790,790,790,790,790,790,790,790,790,790,790,790,790,790,790,790,790,790,790,790,772,754,716,647,622,608,607,607,593,581,569,561,554,545,542,534,522],"ymouse":[625,625,625,625,625,625,625,625,625,625,625,625,625,625,625,625,625,625,625,625,625,625,625,625,625,625,625,625,625,625,625,625,625,625,625,625,625,625,625,625,625,625,625,625,625,625,625,625,625,625,625,625,625,625,625,625,625,625,625,625,625,625,625,625,625,625,625,625,625,625,625,625,592,558,492,362,310,258,245,212,173,156,138,126,114,102,97,92,86],"timestamp_mouse":[13,42,50,70,90,111,130,151,171,190,211,231,251,271,290,310,330,351,371,391,412,430,450,470,491,511,531,550,570,591,611,631,651,671,691,710,731,751,770,791,810,830,850,870,891,910,930,951,971,990,1010,1030,1050,1071,1090,1111,1131,1151,1170,1190,1210,1231,1250,1271,1291,1310,1330,1350,1371,1391,1411,1431,1450,1470,1492,1510,1531,1551,1571,1590,1610,1630,1650,1670,1691,1710,1730,1750,1770],"xSR":741.5,"ySR":573.95,"xT1":424.9,"yT1":0,"xT2":1058.1,"yT2":0,"toosoon":0,"cond_shown":"randomdotsizeEA","ratio_trial":500,"smaller_num":"2","larger_num":"4","correct_side":1,"subjID":"ValentinaGarzonCampos7","gender":"1","age":"8","school":"4"},{"start_time":1552069452437,"click_time":1552069453517,"finger_time":1552069453237,"fix_duration":1280.2723243211876,"trial":51,"RT":800,"MT":280,"sideResp":2,"stimulus":"img/500/randomdotsizeEA/R/2_Ratio_500_L_3_R_6.png","xmouse":[787,787,787,787,787,787,787,787,787,787,787,787,787,787,787,787,787,787,787,787,787,787,787,787,787,787,787,787,787,787,787,787,787,787,787,787,787,788,792,812,840,860,890,920,951,992,1006,1016,1019,1026,1031,1043,1058,1080],"ymouse":[594,594,594,594,594,594,594,594,594,594,594,594,594,594,594,594,594,594,594,594,594,594,594,594,594,594,594,594,594,594,594,594,594,594,594,594,594,594,589,568,533,505,461,426,395,348,334,322,317,306,286,234,160,71],"timestamp_mouse":[19,39,59,79,99,120,140,159,179,200,219,240,260,280,300,320,339,360,379,400,420,439,459,479,499,519,540,560,579,600,619,641,659,680,699,719,739,759,780,800,819,839,859,879,899,919,940,959,980,999,1020,1040,1059,1080],"xSR":741.5,"ySR":573.95,"xT1":424.9,"yT1":0,"xT2":1058.1,"yT2":0,"toosoon":0,"cond_shown":"randomdotsizeEA","ratio_trial":500,"smaller_num":"3","larger_num":"6","correct_side":2,"subjID":"ValentinaGarzonCampos7","gender":"1","age":"8","school":"4"},{"start_time":1552069455869,"click_time":1552069457416,"finger_time":1552069456897,"fix_duration":1431.1735771418994,"trial":52,"RT":1028,"MT":519,"sideResp":1,"stimulus":"img/500/equaldotsize/L/10_Ratio_500_L_4_R_2.png","xmouse":[777,777,777,777,777,777,777,777,777,777,777,777,777,777,777,777,777,777,777,777,777,777,777,777,777,777,777,777,777,777,777,777,777,777,777,777,777,777,777,777,777,777,777,777,777,777,777,777,777,777,777,740,684,545,344,307,287,287,287,287,287,287,288,288,295,311,328,337,367,389,393,396,400,402,410,413,418,428],"ymouse":[625,625,625,625,625,625,625,625,625,625,625,625,625,625,625,625,625,625,625,625,625,625,625,625,625,625,625,625,625,625,625,625,625,625,625,625,625,625,625,625,625,625,625,625,625,625,625,625,625,625,625,606,566,460,277,204,133,30,0,0,0,0,0,0,0,0,0,0,0,3,5,6,8,9,14,16,19,24],"timestamp_mouse":[9,28,47,77,87,108,128,149,168,188,208,227,247,267,288,307,327,348,368,387,408,428,448,468,488,507,528,548,567,589,607,628,648,668,687,708,728,748,768,787,807,827,848,868,887,907,927,947,968,988,1008,1028,1048,1068,1087,1107,1127,1147,1167,1188,1207,1228,1247,1267,1287,1307,1327,1348,1367,1387,1407,1427,1447,1467,1487,1507,1528,1547],"xSR":741.5,"ySR":573.95,"xT1":424.9,"yT1":0,"xT2":1058.1,"yT2":0,"toosoon":0,"cond_shown":"equaldotsize","ratio_trial":500,"smaller_num":"2","larger_num":"4","correct_side":1,"subjID":"ValentinaGarzonCampos7","gender":"1","age":"8","school":"4"},{"start_time":1552069460329,"click_time":1552069461356,"finger_time":1552069461058,"fix_duration":330.9599158194194,"trial":53,"RT":729,"MT":298,"sideResp":2,"stimulus":"img/900/equaldotanddens/R/12_Ratio_900_L_18_R_20.png","xmouse":[796,796,796,796,796,796,796,796,796,796,796,796,796,796,796,796,796,796,796,796,796,796,796,796,796,796,796,796,796,796,796,796,796,801,810,816,833,837,840,846,860,915,935,945,956,962,997,1032,1072,1109,1134,1156],"ymouse":[635,635,635,635,635,635,635,635,635,635,635,635,635,635,635,635,635,635,635,635,635,635,635,635,635,635,635,635,635,635,635,635,635,616,597,578,545,537,529,516,493,409,373,346,318,298,246,210,176,146,123,84],"timestamp_mouse":[9,40,48,67,88,108,128,147,168,187,207,228,247,268,287,307,328,347,368,387,407,427,448,468,487,508,528,548,567,588,608,628,648,667,688,707,729,747,767,787,807,827,847,868,888,907,927,947,967,988,1008,1027],"xSR":741.5,"ySR":573.95,"xT1":424.9,"yT1":0,"xT2":1058.1,"yT2":0,"toosoon":0,"cond_shown":"equaldotanddens","ratio_trial":900,"smaller_num":"18","larger_num":"20","correct_side":2,"subjID":"ValentinaGarzonCampos7","gender":"1","age":"8","school":"4"},{"start_time":1552069464834,"click_time":1552069467196,"finger_time":1552069466056,"fix_duration":996.0419059667898,"trial":54,"RT":1222,"MT":1140,"sideResp":1,"stimulus":"img/900/randomdotsizeEA/L/1_Ratio_900_L_10_R_9.png","xmouse":[796,796,796,796,796,796,796,796,796,796,796,796,796,796,796,796,796,796,796,796,796,796,796,796,796,796,796,796,796,796,796,796,796,796,796,796,796,796,796,796,796,796,796,796,796,796,796,796,796,796,796,796,796,796,796,795,789,787,784,783,760,697,673,664,663,664,675,677,677,675,672,640,630,627,627,627,627,627,633,634,638,640,643,646,650,653,660,663,665,666,667,668,668,668,668,668,668,668,668,661,642,609,593,583,575,568,558,554,553,554,569,577,577,572,565,550,497,464,441],"ymouse":[630,630,630,630,630,630,630,630,630,630,630,630,630,630,630,630,630,630,630,630,630,630,630,630,630,630,630,630,630,630,630,630,630,630,630,630,630,630,630,630,630,630,630,630,630,630,630,630,630,630,630,630,630,630,630,629,631,632,634,635,636,623,612,606,604,601,590,587,582,563,554,501,489,485,485,485,485,486,496,499,504,508,512,517,523,527,534,537,539,540,541,541,541,541,541,541,541,541,541,541,526,494,475,461,444,422,382,362,330,275,228,202,199,194,188,173,132,102,73],"timestamp_mouse":[12,23,45,62,82,102,122,143,162,183,203,223,243,263,282,302,323,342,363,382,402,422,443,463,483,503,522,542,563,583,602,623,642,663,683,703,724,742,762,783,802,823,843,862,882,903,922,942,963,983,1003,1024,1043,1062,1082,1102,1122,1143,1162,1182,1203,1222,1243,1262,1282,1303,1322,1343,1362,1382,1403,1422,1442,1462,1483,1502,1522,1543,1563,1583,1603,1623,1642,1662,1682,1703,1722,1744,1762,1782,1802,1823,1843,1863,1882,1903,1922,1943,1962,1982,2002,2023,2043,2063,2082,2102,2122,2142,2163,2182,2203,2224,2242,2263,2283,2303,2322,2343,2362],"xSR":741.5,"ySR":573.95,"xT1":424.9,"yT1":0,"xT2":1058.1,"yT2":0,"toosoon":0,"cond_shown":"randomdotsizeEA","ratio_trial":900,"smaller_num":"9","larger_num":"10","correct_side":1,"subjID":"ValentinaGarzonCampos7","gender":"1","age":"8","school":"4"},{"start_time":1552069468951,"click_time":1552069470497,"finger_time":1552069469836,"fix_duration":792.7126907779844,"trial":55,"RT":885,"MT":661,"sideResp":2,"stimulus":"img/250/randomdotsizeEA/R/12_Ratio_250_L_5_R_20.png","xmouse":[766,766,766,766,766,766,766,766,766,766,766,766,766,766,766,766,766,766,766,766,766,766,766,766,766,766,766,766,766,766,766,766,766,766,766,766,766,766,766,766,766,766,764,778,817,852,867,882,891,896,901,906,917,948,976,1039,1058,1069,1072,1073,1073,1073,1076,1082,1082,1073,1072,1073,1081,1094,1110,1113,1113,1114,1114,1114,1115,1118],"ymouse":[621,621,621,621,621,621,621,621,621,621,621,621,621,621,621,621,621,621,621,621,621,621,621,621,621,621,621,621,621,621,621,621,621,621,621,621,621,621,621,621,621,621,605,579,510,450,429,409,395,385,371,365,354,337,327,304,294,287,285,283,279,274,264,240,225,201,187,172,157,139,120,116,114,113,113,108,104,98],"timestamp_mouse":[13,36,45,65,86,106,125,146,165,185,205,225,246,266,286,306,326,345,366,385,405,426,446,465,485,506,526,545,566,586,605,626,645,666,685,706,725,745,765,785,805,825,845,865,885,905,926,945,965,985,1005,1025,1045,1065,1085,1105,1126,1145,1165,1186,1205,1225,1245,1265,1285,1306,1326,1345,1365,1385,1405,1425,1446,1465,1485,1505,1525,1546],"xSR":741.5,"ySR":573.95,"xT1":424.9,"yT1":0,"xT2":1058.1,"yT2":0,"toosoon":0,"cond_shown":"randomdotsizeEA","ratio_trial":250,"smaller_num":"5","larger_num":"20","correct_side":2,"subjID":"ValentinaGarzonCampos7","gender":"1","age":"8","school":"4"},{"start_time":1552069472480,"click_time":1552069473596,"finger_time":1552069473298,"fix_duration":1140.392110748378,"trial":56,"RT":818,"MT":298,"sideResp":1,"stimulus":"img/500/randomdotsizeEA/L/10_Ratio_500_L_4_R_2.png","xmouse":[806,806,806,806,806,806,806,806,806,806,806,806,806,806,806,806,806,806,806,806,806,806,806,806,806,806,806,806,806,806,806,806,806,806,806,806,806,806,806,780,674,553,474,408,400,400,409,429,451,461,469,476,479,479,479,470],"ymouse":[623,623,623,623,623,623,623,623,623,623,623,623,623,623,623,623,623,623,623,623,623,623,623,623,623,623,623,623,623,623,623,623,623,623,623,623,623,623,623,623,623,611,585,527,485,436,390,334,284,262,237,210,183,133,111,85],"timestamp_mouse":[16,42,56,77,97,117,138,156,177,196,216,236,257,276,296,318,337,357,376,396,416,436,457,477,496,516,537,556,577,596,616,636,656,676,696,716,737,757,777,796,818,837,858,876,896,916,937,957,976,997,1018,1036,1056,1076,1097,1116],"xSR":741.5,"ySR":573.95,"xT1":424.9,"yT1":0,"xT2":1058.1,"yT2":0,"toosoon":0,"cond_shown":"randomdotsizeEA","ratio_trial":500,"smaller_num":"2","larger_num":"4","correct_side":1,"subjID":"ValentinaGarzonCampos7","gender":"1","age":"8","school":"4"},{"start_time":1552069474849,"click_time":1552069476077,"finger_time":1552069475636,"fix_duration":250,"trial":57,"RT":787,"MT":441,"sideResp":2,"stimulus":"img/900/equaldotanddens/R/15_Ratio_900_L_9_R_10.png","xmouse":[770,770,770,770,770,770,770,770,770,770,770,770,770,770,770,770,770,770,770,770,770,770,770,770,770,770,770,770,770,770,770,770,770,770,770,770,770,770,772,815,969,1023,1054,1070,1079,1086,1090,1095,1104,1108,1120,1132,1141,1146,1149,1149,1149,1149,1149,1149,1149,1147],"ymouse":[627,627,627,627,627,627,627,627,627,627,627,627,627,627,627,627,627,627,627,627,627,627,627,627,627,627,627,627,627,627,627,627,627,627,627,627,627,627,624,562,379,322,291,272,259,242,234,227,218,213,198,179,162,149,141,129,123,117,112,108,102,99],"timestamp_mouse":[10,35,47,67,87,108,128,148,168,187,208,227,248,267,287,307,327,347,368,387,408,427,449,468,488,508,528,547,567,588,607,627,648,667,688,707,728,747,768,787,807,827,847,867,888,907,927,947,968,987,1007,1027,1047,1067,1087,1107,1127,1147,1167,1187,1207,1227],"xSR":741.5,"ySR":573.95,"xT1":424.9,"yT1":0,"xT2":1058.1,"yT2":0,"toosoon":0,"cond_shown":"equaldotanddens","ratio_trial":900,"smaller_num":"9","larger_num":"10","correct_side":2,"subjID":"ValentinaGarzonCampos7","gender":"1","age":"8","school":"4"},{"start_time":1552069478043,"click_time":1552069479177,"finger_time":1552069478896,"fix_duration":783.774435468014,"trial":58,"RT":853,"MT":281,"sideResp":1,"stimulus":"img/500/equaldotanddens/L/11_Ratio_500_L_12_R_6.png","xmouse":[793,793,793,792,792,791,791,791,791,791,791,791,791,791,790,786,784,783,783,783,783,783,783,783,783,783,783,783,783,783,783,783,783,783,783,783,783,783,783,783,780,746,674,580,474,369,364,364,368,370,374,377,380,387,393,415,428],"ymouse":[621,621,621,621,622,622,622,622,622,622,622,622,622,622,623,625,626,627,627,627,627,627,627,627,627,627,627,627,627,627,627,627,627,627,627,627,627,627,627,627,627,620,591,531,459,350,321,300,265,250,221,204,182,158,136,88,67],"timestamp_mouse":[13,43,54,72,93,114,134,153,173,193,213,234,252,273,294,313,333,352,373,392,413,434,453,474,493,513,532,554,573,593,613,633,654,673,694,713,733,754,772,794,813,833,853,873,892,912,933,953,974,993,1013,1033,1053,1073,1094,1113,1133],"xSR":741.5,"ySR":573.95,"xT1":424.9,"yT1":0,"xT2":1058.1,"yT2":0,"toosoon":0,"cond_shown":"equaldotanddens","ratio_trial":500,"smaller_num":"6","larger_num":"12","correct_side":1,"subjID":"ValentinaGarzonCampos7","gender":"1","age":"8","school":"4"},{"start_time":1552069480719,"click_time":1552069481896,"finger_time":1552069481836,"fix_duration":601.9227402359013,"trial":59,"RT":1117,"MT":60,"sideResp":2,"stimulus":"img/900/randomdotsizeEA/R/12_Ratio_900_L_18_R_20.png","xmouse":[767,767,767,767,767,767,767,767,767,767,767,767,767,767,767,767,767,767,767,767,767,767,767,767,767,767,767,767,767,767,767,767,767,767,767,767,767,767,767,767,767,767,767,767,767,767,767,767,767,767,767,767,767,767,777,851,1005,1060,1090],"ymouse":[647,647,647,647,647,647,647,647,647,647,647,647,647,647,647,647,647,647,647,647,647,647,647,647,647,647,647,647,647,647,647,647,647,647,647,647,647,647,647,647,647,647,647,647,647,647,647,647,647,647,647,647,646,644,604,463,251,163,85],"timestamp_mouse":[18,39,57,76,98,118,136,156,178,197,217,237,257,278,298,317,338,357,376,398,418,437,458,478,497,517,537,557,578,597,618,636,656,678,697,717,737,757,777,796,818,838,858,878,898,916,936,956,978,997,1018,1038,1057,1077,1097,1117,1137,1158,1177],"xSR":741.5,"ySR":573.95,"xT1":424.9,"yT1":0,"xT2":1058.1,"yT2":0,"toosoon":0,"cond_shown":"randomdotsizeEA","ratio_trial":900,"smaller_num":"18","larger_num":"20","correct_side":2,"subjID":"ValentinaGarzonCampos7","gender":"1","age":"8","school":"4"},{"start_time":1552069483748,"click_time":1552069484617,"finger_time":1552069484496,"fix_duration":870.4369906016964,"trial":60,"RT":748,"MT":121,"sideResp":2,"stimulus":"img/250/randomdotsizeEA/R/11_Ratio_250_L_3_R_12.png","xmouse":[808,808,808,808,808,808,808,808,808,808,808,808,808,808,808,808,808,808,808,808,808,808,808,808,808,808,808,808,808,808,808,808,808,808,808,808,825,856,906,963,1052,1066,1069,1070],"ymouse":[649,649,649,649,649,649,649,649,649,649,649,649,649,649,649,649,649,649,649,649,649,649,649,649,649,649,649,649,649,649,649,649,649,649,649,647,624,566,471,362,180,138,114,94],"timestamp_mouse":[14,39,47,68,88,108,127,147,168,187,209,228,247,267,288,308,329,349,369,388,409,429,449,469,489,509,527,548,568,588,607,629,647,668,688,708,728,748,768,787,808,828,849,869],"xSR":741.5,"ySR":573.95,"xT1":424.9,"yT1":0,"xT2":1058.1,"yT2":0,"toosoon":0,"cond_shown":"randomdotsizeEA","ratio_trial":250,"smaller_num":"3","larger_num":"12","correct_side":2,"subjID":"ValentinaGarzonCampos7","gender":"1","age":"8","school":"4"},{"start_time":1552069487230,"click_time":1552069488596,"finger_time":1552069488216,"fix_duration":370.10311689257856,"trial":61,"RT":986,"MT":380,"sideResp":2,"stimulus":"img/750/randomdotsizeEA/L/8_Ratio_750_L_4_R_3.png","xmouse":[801,801,801,801,801,801,801,801,801,801,801,801,801,801,801,801,801,801,801,801,801,801,801,801,801,801,801,801,801,801,801,801,801,801,801,801,801,801,801,801,801,801,801,801,801,801,801,801,811,835,896,926,959,990,1021,1040,1069,1080,1088,1092,1098,1122,1130,1131,1129,1127,1119,1110,1096],"ymouse":[616,616,616,616,616,616,616,616,616,616,616,616,616,616,616,616,616,616,616,616,616,616,616,616,616,616,616,616,616,616,616,616,616,616,616,616,616,616,616,616,616,616,616,616,616,616,616,616,604,570,497,465,427,383,341,307,251,232,223,218,211,176,148,119,106,104,103,102,95],"timestamp_mouse":[15,31,46,66,86,107,125,146,166,186,206,227,246,266,286,306,326,347,367,385,406,426,446,467,486,507,526,547,566,586,607,627,646,665,686,706,727,746,766,787,806,826,845,867,886,906,927,945,966,986,1007,1026,1045,1066,1086,1105,1126,1146,1166,1186,1205,1226,1246,1266,1286,1305,132