[{"start_time":1552054725933,"click_time":1552054731397,"finger_time":1552054725944,"fix_duration":331.0101350171554,"trial":0,"RT":11,"MT":5453,"sideResp":2,"stimulus":"img/500/equaldotsize/R/2_Ratio_500_L_3_R_6.png","xmouse":[736,736,736,736,736,736,736,736,736,722,698,652,608,516,490,475,469,466,459,450,449,449,449,449,449,448,447,446,441,437,430,414,396,340,301,253,204,161,108,103,101,101,101,101,101,101,101,101,102,102,102,102,99,99,99,98,98,97,97,96,96,95,95,94,94,93,90,88,85,85,84,82,77,70,65,61,57,53,50,49,49,49,49,49,49,49,49,49,49,49,49,49,49,49,49,49,49,49,49,49,49,49,49,49,49,49,49,49,49,49,49,49,49,49,49,49,49,49,49,49,49,49,49,49,49,49,49,49,49,49,49,49,49,49,49,49,49,49,49,49,49,49,49,49,49,49,49,49,49,49,49,49,49,49,49,49,49,49,49,49,49,49,49,49,49,49,49,49,49,49,49,49,49,49,49,49,49,49,49,49,49,49,49,49,49,49,49,49,49,49,49,49,49,49,49,49,49,49,49,49,49,49,49,49,49,49,49,49,49,49,49,49,49,49,49,49,49,49,49,56,70,88,112,151,224,245,264,275,284,285,287,293,300,327,349,376,409,450,548,587,670,727,784,878,909,930,946,964,1001,1029,1037,1057,1066,1073,1074,1074,1075,1075,1080,1084,1086,1092,1095,1097,1097,1097,1097,1097,1097,1097,1100,1103,1104,1105],"ymouse":[587,587,587,587,587,587,587,587,587,587,586,586,594,592,584,578,573,567,558,550,549,549,549,549,549,549,549,546,540,539,539,536,533,520,513,503,497,493,492,489,489,489,489,489,489,489,487,480,473,473,473,472,472,472,472,470,467,465,465,465,465,465,465,465,465,465,465,466,467,467,467,468,470,475,477,480,482,485,485,485,485,485,485,485,485,485,485,485,485,485,485,485,485,485,485,485,485,485,485,486,486,486,486,486,486,486,486,486,486,486,486,486,486,486,486,486,486,486,486,486,486,486,486,486,486,486,486,486,486,486,486,486,486,486,486,486,486,486,486,486,486,486,486,486,486,486,486,486,486,486,486,486,486,486,486,486,486,486,486,486,486,486,486,486,486,486,486,486,486,486,486,486,486,486,486,486,486,486,486,486,486,486,486,486,486,486,486,486,486,486,486,486,486,486,486,486,486,486,486,486,486,486,486,486,486,486,486,486,486,486,486,486,486,486,486,486,486,486,486,494,505,519,540,571,622,638,651,657,661,661,660,655,649,639,634,628,623,618,612,611,607,601,593,571,559,549,542,531,504,476,465,432,414,380,363,349,338,332,313,298,293,275,263,230,217,206,200,197,187,168,153,136,121,96],"timestamp_mouse":[10,25,43,64,84,104,123,143,163,184,204,224,244,263,284,304,323,344,363,382,403,424,443,464,483,504,523,543,564,582,604,624,644,663,683,704,724,743,763,783,803,823,843,864,883,904,925,944,963,984,1003,1023,1043,1063,1084,1104,1124,1144,1164,1183,1203,1223,1243,1263,1283,1304,1324,1343,1363,1384,1404,1423,1443,1463,1483,1504,1523,1544,1563,1583,1604,1624,1643,1663,1683,1704,1723,1744,1763,1783,1804,1823,1844,1864,1884,1903,1923,1944,1963,1983,2004,2023,2044,2063,2084,2103,2124,2144,2163,2182,2204,2224,2244,2264,2284,2304,2324,2343,2363,2383,2403,2424,2443,2464,2484,2504,2523,2544,2563,2584,2604,2623,2644,2663,2684,2703,2724,2743,2764,2784,2803,2822,2844,2864,2884,2904,2924,2943,2964,2984,3004,3024,3044,3063,3084,3103,3124,3143,3164,3183,3204,3224,3243,3264,3285,3303,3324,3343,3364,3384,3403,3423,3443,3464,3483,3503,3523,3543,3564,3583,3604,3623,3644,3664,3684,3703,3723,3744,3764,3784,3804,3824,3843,3863,3884,3904,3923,3944,3964,3984,4003,4024,4044,4063,4084,4103,4124,4144,4163,4183,4204,4223,4244,4264,4284,4304,4324,4343,4363,4383,4403,4424,4443,4463,4483,4503,4524,4543,4563,4583,4604,4624,4644,4664,4684,4704,4724,4744,4764,4784,4804,4823,4843,4863,4883,4903,4923,4943,4963,4982,5004,5023,5043,5063,5084,5104,5124,5143,5163,5183,5204,5224,5243,5263,5283,5304,5323,5343,5363,5383,5403,5423,5443,5464],"xSR":741.5,"ySR":501.8,"xT1":424.9,"yT1":0,"xT2":1058.1,"yT2":0,"toosoon":0,"cond_shown":"equaldotsize","ratio_trial":500,"smaller_num":"3","larger_num":"6","correct_side":2,"subjID":"valentinaramirez7","gender":"1","age":"9","school":"4","test":{"fix_dur":[250,1500],"timestim":300,"targets_dim":[100,100],"targets_relative_coord":[0.3,0.7],"size_stim":[880,420],"start_dim":[100,100],"size_start":[300,300],"size_fix":60,"samplingrate":20,"img_types":["equaldotsize","equaldotanddens","randomdotsizeEA"],"ratios":[250,500,750,900],"rep_conds":9,"nTrials":120,"trials_to_rest":500,"Trials_order":[15,61,74,88,40,30,106,52,62,92,13,58,87,83,81,68,41,11,2,35,63,95,100,29,4,23,39,53,38,112,91,50,1,117,105,22,85,33,86,36,69,3,72,59,70,21,54,109,14,65,37,31,67,25,18,49,10,114,94,64,9,79,115,26,90,80,119,78,27,28,56,24,103,108,66,12,19,104,6,118,73,116,48,77,102,32,5,111,34,96,110,82,113,101,76,20,71,44,16,46,99,57,84,89,97,7,55,75,17,98,51,42,0,43,8,93,47,107,60,45],"cond_shown":["equaldotsize","equaldotanddens","randomdotsizeEA","equaldotanddens","equaldotanddens","equaldotsize","equaldotanddens","equaldotanddens","randomdotsizeEA","randomdotsizeEA","equaldotanddens","equaldotanddens","equaldotsize","randomdotsizeEA","equaldotsize","randomdotsizeEA","randomdotsizeEA","randomdotsizeEA","randomdotsizeEA","randomdotsizeEA","equaldotsize","randomdotsizeEA","equaldotanddens","randomdotsizeEA","equaldotanddens","randomdotsizeEA","equaldotsize","randomdotsizeEA","randomdotsizeEA","equaldotanddens","equaldotanddens","randomdotsizeEA","equaldotanddens","equaldotsize","equaldotsize","equaldotanddens","equaldotanddens","equaldotsize","randomdotsizeEA","equaldotsize","equaldotsize","equaldotsize","equaldotsize","randomdotsizeEA","equaldotanddens","equaldotsize","equaldotsize","equaldotanddens","randomdotsizeEA","randomdotsizeEA","equaldotanddens","equaldotanddens","equaldotanddens","equaldotanddens","equaldotsize","equaldotanddens","equaldotanddens","equaldotsize","equaldotanddens","equaldotanddens","equaldotsize","equaldotanddens","equaldotanddens","randomdotsizeEA","equaldotsize","randomdotsizeEA","randomdotsizeEA","equaldotsize","equaldotsize","equaldotanddens","randomdotsizeEA","equaldotsize","equaldotanddens","equaldotsize","equaldotsize","equaldotsize","equaldotanddens","randomdotsizeEA","equaldotsize","equaldotanddens","equaldotanddens","randomdotsizeEA","equaldotsize","randomdotsizeEA","equaldotsize","randomdotsizeEA","randomdotsizeEA","equaldotsize","equaldotanddens","equaldotsize","randomdotsizeEA","equaldotanddens","randomdotsizeEA","randomdotsizeEA","equaldotanddens","randomdotsizeEA","randomdotsizeEA","randomdotsizeEA","equaldotanddens","equaldotanddens","equaldotsize","equaldotsize","equaldotsize","randomdotsizeEA","equaldotanddens","equaldotanddens","equaldotanddens","equaldotsize","randomdotsizeEA","randomdotsizeEA","equaldotsize","equaldotsize","equaldotsize","equaldotanddens","randomdotsizeEA","equaldotsize","randomdotsizeEA","randomdotsizeEA","equaldotsize","equaldotsize"],"ratio_trial":[500,250,250,500,500,750,900,500,250,750,250,900,500,900,900,750,500,900,250,900,500,900,500,500,500,900,500,500,250,500,750,250,250,900,900,900,250,900,250,250,900,500,250,900,900,900,750,250,250,500,250,750,750,250,750,250,900,750,900,500,900,750,750,250,750,750,900,750,500,500,750,250,750,250,750,250,750,750,750,900,250,750,250,500,750,750,500,500,900,250,250,900,500,500,500,750,900,750,500,900,500,900,250,500,250,750,750,500,500,250,500,750,250,750,750,900,900,900,250,900],"smaller_num":["3","2","6","2","2","6","18","5","3","12","2","9","1","18","9","3","2","18","3","18","6","18","10","5","5","18","2","4","3","6","15","2","1","18","18","9","2","18","2","3","9","9","4","18","9","18","6","3","4","1","1","12","3","2","6","2","9","15","18","2","18","15","3","6","12","18","18","6","5","9","3","3","3","2","15","4","3","12","15","18","6","3","1","9","15","3","5","10","18","5","5","18","3","5","2","6","18","3","9","18","1","9","2","3","4","15","6","9","9","3","5","15","5","3","15","18","18","18","2","18"],"larger_num":["6","8","24","4","4","8","20","10","12","16","8","10","2","20","10","4","4","20","12","20","12","20","20","10","10","20","4","8","12","12","20","8","4","20","20","10","8","20","8","12","10","18","16","20","10","20","8","12","16","2","4","16","4","8","8","8","10","20","20","4","20","20","4","24","16","24","20","8","10","18","4","12","4","8","20","16","4","16","20","20","24","4","4","18","20","4","10","20","20","20","20","20","6","10","4","8","20","4","18","20","2","10","8","6","16","20","8","18","18","12","10","20","20","4","20","20","20","20","8","20"],"correct_side":[2,1,2,2,1,1,1,2,1,2,1,1,2,1,2,1,1,1,2,1,1,1,2,1,2,2,1,1,2,1,1,1,2,1,1,1,1,1,1,1,2,1,1,1,1,2,1,2,2,2,2,2,1,1,1,2,2,2,2,2,2,2,2,1,2,1,2,1,2,2,1,2,1,1,2,1,2,2,2,1,1,2,2,2,2,1,2,2,1,2,2,1,2,2,2,1,2,2,1,1,2,2,1,2,1,1,1,2,2,2,2,2,2,2,1,1,1,2,1,1],"img_shown":["img/500/equaldotsize/R/2_Ratio_500_L_3_R_6.png","img/250/equaldotanddens/L/1_Ratio_250_L_8_R_2.png","img/250/randomdotsizeEA/R/6_Ratio_250_L_6_R_24.png","img/500/equaldotanddens/R/9_Ratio_500_L_2_R_4.png","img/500/equaldotanddens/L/5_Ratio_500_L_4_R_2.png","img/750/equaldotsize/L/14_Ratio_750_L_8_R_6.png","img/900/equaldotanddens/L/10_Ratio_900_L_20_R_18.png","img/500/equaldotanddens/R/14_Ratio_500_L_5_R_10.png","img/250/randomdotsizeEA/L/15_Ratio_250_L_12_R_3.png","img/750/randomdotsizeEA/R/11_Ratio_750_L_12_R_16.png","img/250/equaldotanddens/L/7_Ratio_250_L_8_R_2.png","img/900/equaldotanddens/L/1_Ratio_900_L_10_R_9.png","img/500/equaldotsize/R/12_Ratio_500_L_1_R_2.png","img/900/randomdotsizeEA/L/2_Ratio_900_L_20_R_18.png","img/900/equaldotsize/R/3_Ratio_900_L_9_R_10.png","img/750/randomdotsizeEA/L/8_Ratio_750_L_4_R_3.png","img/500/randomdotsizeEA/L/5_Ratio_500_L_4_R_2.png","img/900/randomdotsizeEA/L/4_Ratio_900_L_20_R_18.png","img/250/randomdotsizeEA/R/4_Ratio_250_L_3_R_12.png","img/900/randomdotsizeEA/L/2_Ratio_900_L_20_R_18.png","img/500/equaldotsize/L/11_Ratio_500_L_12_R_6.png","img/900/randomdotsizeEA/L/8_Ratio_900_L_20_R_18.png","img/500/equaldotanddens/R/3_Ratio_500_L_10_R_20.png","img/500/randomdotsizeEA/L/7_Ratio_500_L_10_R_5.png","img/500/equaldotanddens/R/14_Ratio_500_L_5_R_10.png","img/900/randomdotsizeEA/R/12_Ratio_900_L_18_R_20.png","img/500/equaldotsize/L/5_Ratio_500_L_4_R_2.png","img/500/randomdotsizeEA/L/8_Ratio_500_L_8_R_4.png","img/250/randomdotsizeEA/R/9_Ratio_250_L_3_R_12.png","img/500/equaldotanddens/L/13_Ratio_500_L_12_R_6.png","img/750/equaldotanddens/L/1_Ratio_750_L_20_R_15.png","img/250/randomdotsizeEA/L/1_Ratio_250_L_8_R_2.png","img/250/equaldotanddens/R/8_Ratio_250_L_1_R_4.png","img/900/equaldotsize/L/4_Ratio_900_L_20_R_18.png","img/900/equaldotsize/L/2_Ratio_900_L_20_R_18.png","img/900/equaldotanddens/L/1_Ratio_900_L_10_R_9.png","img/250/equaldotanddens/L/1_Ratio_250_L_8_R_2.png","img/900/equaldotsize/L/2_Ratio_900_L_20_R_18.png","img/250/randomdotsizeEA/L/7_Ratio_250_L_8_R_2.png","img/250/equaldotsize/L/15_Ratio_250_L_12_R_3.png","img/900/equaldotsize/R/6_Ratio_900_L_9_R_10.png","img/500/equaldotsize/L/4_Ratio_500_L_18_R_9.png","img/250/equaldotsize/L/2_Ratio_250_L_16_R_4.png","img/900/randomdotsizeEA/L/2_Ratio_900_L_20_R_18.png","img/900/equaldotanddens/L/1_Ratio_900_L_10_R_9.png","img/900/equaldotsize/R/11_Ratio_900_L_18_R_20.png","img/750/equaldotsize/L/13_Ratio_750_L_8_R_6.png","img/250/equaldotanddens/R/4_Ratio_250_L_3_R_12.png","img/250/randomdotsizeEA/R/10_Ratio_250_L_4_R_16.png","img/500/randomdotsizeEA/R/12_Ratio_500_L_1_R_2.png","img/250/equaldotanddens/R/8_Ratio_250_L_1_R_4.png","img/750/equaldotanddens/R/11_Ratio_750_L_12_R_16.png","img/750/equaldotanddens/L/10_Ratio_750_L_4_R_3.png","img/250/equaldotanddens/L/3_Ratio_250_L_8_R_2.png","img/750/equaldotsize/L/14_Ratio_750_L_8_R_6.png","img/250/equaldotanddens/R/13_Ratio_250_L_2_R_8.png","img/900/equaldotanddens/R/15_Ratio_900_L_9_R_10.png","img/750/equaldotsize/R/4_Ratio_750_L_15_R_20.png","img/900/equaldotanddens/R/9_Ratio_900_L_18_R_20.png","img/500/equaldotanddens/R/9_Ratio_500_L_2_R_4.png","img/900/equaldotsize/R/12_Ratio_900_L_18_R_20.png","img/750/equaldotanddens/R/4_Ratio_750_L_15_R_20.png","img/750/equaldotanddens/R/7_Ratio_750_L_3_R_4.png","img/250/randomdotsizeEA/L/5_Ratio_250_L_24_R_6.png","img/750/equaldotsize/R/11_Ratio_750_L_12_R_16.png","img/750/randomdotsizeEA/L/6_Ratio_750_L_24_R_18.png","img/900/randomdotsizeEA/R/11_Ratio_900_L_18_R_20.png","img/750/equaldotsize/L/14_Ratio_750_L_8_R_6.png","img/500/equaldotsize/R/14_Ratio_500_L_5_R_10.png","img/500/equaldotanddens/R/6_Ratio_500_L_9_R_18.png","img/750/randomdotsizeEA/L/10_Ratio_750_L_4_R_3.png","img/250/equaldotsize/R/11_Ratio_250_L_3_R_12.png","img/750/equaldotanddens/L/9_Ratio_750_L_4_R_3.png","img/250/equaldotsize/L/1_Ratio_250_L_8_R_2.png","img/750/equaldotsize/R/3_Ratio_750_L_15_R_20.png","img/250/equaldotsize/L/2_Ratio_250_L_16_R_4.png","img/750/equaldotanddens/R/12_Ratio_750_L_3_R_4.png","img/750/randomdotsizeEA/R/11_Ratio_750_L_12_R_16.png","img/750/equaldotsize/R/4_Ratio_750_L_15_R_20.png","img/900/equaldotanddens/L/10_Ratio_900_L_20_R_18.png","img/250/equaldotanddens/L/5_Ratio_250_L_24_R_6.png","img/750/randomdotsizeEA/R/12_Ratio_750_L_3_R_4.png","img/250/equaldotsize/R/8_Ratio_250_L_1_R_4.png","img/500/randomdotsizeEA/R/1_Ratio_500_L_9_R_18.png","img/750/equaldotsize/R/3_Ratio_750_L_15_R_20.png","img/750/randomdotsizeEA/L/10_Ratio_750_L_4_R_3.png","img/500/randomdotsizeEA/R/14_Ratio_500_L_5_R_10.png","img/500/equaldotsize/R/3_Ratio_500_L_10_R_20.png","img/900/equaldotanddens/L/8_Ratio_900_L_20_R_18.png","img/250/equaldotsize/R/12_Ratio_250_L_5_R_20.png","img/250/randomdotsizeEA/R/12_Ratio_250_L_5_R_20.png","img/900/equaldotanddens/L/8_Ratio_900_L_20_R_18.png","img/500/randomdotsizeEA/R/2_Ratio_500_L_3_R_6.png","img/500/randomdotsizeEA/R/14_Ratio_500_L_5_R_10.png","img/500/equaldotanddens/R/9_Ratio_500_L_2_R_4.png","img/750/randomdotsizeEA/L/14_Ratio_750_L_8_R_6.png","img/900/randomdotsizeEA/R/9_Ratio_900_L_18_R_20.png","img/750/randomdotsizeEA/R/12_Ratio_750_L_3_R_4.png","img/500/equaldotanddens/L/4_Ratio_500_L_18_R_9.png","img/900/equaldotanddens/L/10_Ratio_900_L_20_R_18.png","img/500/equaldotsize/R/15_Ratio_500_L_1_R_2.png","img/900/equaldotsize/R/5_Ratio_900_L_9_R_10.png","img/250/equaldotsize/L/1_Ratio_250_L_8_R_2.png","img/500/randomdotsizeEA/R/2_Ratio_500_L_3_R_6.png","img/250/equaldotanddens/L/2_Ratio_250_L_16_R_4.png","img/750/equaldotanddens/L/1_Ratio_750_L_20_R_15.png","img/750/equaldotanddens/L/13_Ratio_750_L_8_R_6.png","img/500/equaldotsize/R/1_Ratio_500_L_9_R_18.png","img/500/randomdotsizeEA/R/6_Ratio_500_L_9_R_18.png","img/250/randomdotsizeEA/R/11_Ratio_250_L_3_R_12.png","img/500/equaldotsize/R/14_Ratio_500_L_5_R_10.png","img/750/equaldotsize/R/5_Ratio_750_L_15_R_20.png","img/250/equaldotsize/R/12_Ratio_250_L_5_R_20.png","img/750/equaldotanddens/R/12_Ratio_750_L_3_R_4.png","img/750/randomdotsizeEA/L/1_Ratio_750_L_20_R_15.png","img/900/equaldotsize/L/4_Ratio_900_L_20_R_18.png","img/900/randomdotsizeEA/L/2_Ratio_900_L_20_R_18.png","img/900/randomdotsizeEA/R/11_Ratio_900_L_18_R_20.png","img/250/equaldotsize/L/3_Ratio_250_L_8_R_2.png","img/900/equaldotsize/L/2_Ratio_900_L_20_R_18.png"],"Rat0":[["12_Ratio_0_L_9_R_0.png","13_Ratio_0_L_6_R_0.png","5_Ratio_0_L_2_R_0.png","6_Ratio_0_L_4_R_0.png","8_Ratio_0_L_6_R_0.png"],["1_Ratio_0_L_0_R_17.png","10_Ratio_0_L_0_R_22.png","11_Ratio_0_L_0_R_1.png","14_Ratio_0_L_0_R_24.png","15_Ratio_0_L_0_R_4.png","2_Ratio_0_L_0_R_5.png","3_Ratio_0_L_0_R_17.png","4_Ratio_0_L_0_R_7.png","7_Ratio_0_L_0_R_19.png","9_Ratio_0_L_0_R_15.png"]],"Rat250":[["1_Ratio_250_L_8_R_2.png","14_Ratio_250_L_12_R_3.png","15_Ratio_250_L_12_R_3.png","2_Ratio_250_L_16_R_4.png","3_Ratio_250_L_8_R_2.png","5_Ratio_250_L_24_R_6.png","7_Ratio_250_L_8_R_2.png"],["10_Ratio_250_L_4_R_16.png","11_Ratio_250_L_3_R_12.png","12_Ratio_250_L_5_R_20.png","13_Ratio_250_L_2_R_8.png","4_Ratio_250_L_3_R_12.png","6_Ratio_250_L_6_R_24.png","8_Ratio_250_L_1_R_4.png","9_Ratio_250_L_3_R_12.png"]],"Rat500":[["10_Ratio_500_L_4_R_2.png","11_Ratio_500_L_12_R_6.png","13_Ratio_500_L_12_R_6.png","4_Ratio_500_L_18_R_9.png","5_Ratio_500_L_4_R_2.png","7_Ratio_500_L_10_R_5.png","8_Ratio_500_L_8_R_4.png"],["1_Ratio_500_L_9_R_18.png","12_Ratio_500_L_1_R_2.png","14_Ratio_500_L_5_R_10.png","15_Ratio_500_L_1_R_2.png","2_Ratio_500_L_3_R_6.png","3_Ratio_500_L_10_R_20.png","6_Ratio_500_L_9_R_18.png","9_Ratio_500_L_2_R_4.png"]],"Rat750":[["1_Ratio_750_L_20_R_15.png","10_Ratio_750_L_4_R_3.png","13_Ratio_750_L_8_R_6.png","14_Ratio_750_L_8_R_6.png","6_Ratio_750_L_24_R_18.png","8_Ratio_750_L_4_R_3.png","9_Ratio_750_L_4_R_3.png"],["11_Ratio_750_L_12_R_16.png","12_Ratio_750_L_3_R_4.png","15_Ratio_750_L_9_R_12.png","2_Ratio_750_L_6_R_8.png","3_Ratio_750_L_15_R_20.png","4_Ratio_750_L_15_R_20.png","5_Ratio_750_L_15_R_20.png","7_Ratio_750_L_3_R_4.png"]],"Rat900":[["1_Ratio_900_L_10_R_9.png","10_Ratio_900_L_20_R_18.png","2_Ratio_900_L_20_R_18.png","4_Ratio_900_L_20_R_18.png","8_Ratio_900_L_20_R_18.png"],["11_Ratio_900_L_18_R_20.png","12_Ratio_900_L_18_R_20.png","13_Ratio_900_L_18_R_20.png","14_Ratio_900_L_18_R_20.png","15_Ratio_900_L_9_R_10.png","3_Ratio_900_L_9_R_10.png","5_Ratio_900_L_9_R_10.png","6_Ratio_900_L_9_R_10.png","7_Ratio_900_L_9_R_10.png","9_Ratio_900_L_18_R_20.png"]],"Rat1000":[["10_Ratio_1000_L_16_R_16.png","11_Ratio_1000_L_6_R_6.png","12_Ratio_1000_L_14_R_14.png","13_Ratio_1000_L_20_R_20.png","15_Ratio_1000_L_15_R_15.png","2_Ratio_1000_L_17_R_17.png","4_Ratio_1000_L_9_R_9.png","5_Ratio_1000_L_6_R_6.png","6_Ratio_1000_L_19_R_19.png","8_Ratio_1000_L_14_R_14.png","9_Ratio_1000_L_25_R_25.png"],["1_Ratio_1000_L_1_R_1.png","14_Ratio_1000_L_17_R_17.png","3_Ratio_1000_L_17_R_17.png","7_Ratio_1000_L_6_R_6.png"]]}},{"start_time":1552054735712,"click_time":1552054741598,"finger_time":1552054740296,"fix_duration":1332.2074969599064,"trial":1,"RT":4584,"MT":1302,"sideResp":1,"stimulus":"img/250/equaldotanddens/L/1_Ratio_250_L_8_R_2.png","xmouse":[782,782,782,782,782,782,782,782,782,782,782,782,782,782,782,782,782,782,782,782,782,782,782,782,782,782,782,782,782,782,782,782,782,782,782,782,782,782,782,782,782,782,782,782,782,782,782,782,782,782,782,782,782,782,782,782,782,782,782,782,782,782,782,782,782,782,782,782,782,782,782,782,782,782,782,782,782,782,782,782,782,782,782,782,782,782,782,782,782,782,782,782,782,782,782,782,782,782,782,782,782,782,782,782,782,782,782,782,782,782,782,782,782,782,782,782,782,782,782,782,782,782,782,782,782,782,782,782,782,782,782,782,782,782,782,782,782,782,782,782,782,782,782,782,782,782,782,782,782,782,782,782,782,782,782,782,782,782,782,782,782,782,782,782,782,782,782,782,782,782,782,782,782,782,782,782,782,782,782,782,782,782,782,782,782,782,782,782,782,782,782,782,782,782,782,782,782,782,782,782,782,782,782,782,782,782,782,782,782,782,782,782,782,782,782,782,782,782,782,782,782,782,782,786,789,792,796,800,803,803,803,803,801,797,795,791,786,777,738,710,680,643,633,626,620,609,595,589,587,587,587,586,585,579,568,565,564,564,563,563,563,563,563,563,563,562,561,560,557,555,552,550,547,545,544,544,544,544,544,544,544,542,541,541,541,541,541,541,541,541,541,536,530,523],"ymouse":[622,622,622,622,622,622,622,622,622,622,622,622,622,622,622,622,622,622,622,622,622,622,622,622,622,622,622,622,622,622,622,622,622,622,622,622,622,622,622,622,622,622,622,622,622,622,622,622,622,622,622,622,622,622,622,622,622,622,622,622,622,622,622,622,622,622,622,622,622,622,622,622,622,622,622,622,622,622,622,622,622,622,622,622,622,622,622,622,622,622,622,622,622,622,622,622,622,622,622,622,622,622,622,622,622,622,622,622,622,622,622,622,622,622,622,622,622,622,622,622,622,622,622,622,622,622,622,622,622,622,622,622,622,622,622,622,622,622,622,622,622,622,622,622,622,622,622,622,622,622,622,622,622,622,622,622,622,622,622,622,622,622,622,622,622,622,622,622,622,622,622,622,622,622,622,622,622,622,622,622,622,622,622,622,622,622,622,622,622,622,622,622,622,622,622,622,622,622,622,622,622,622,622,622,622,622,622,622,622,622,622,622,622,622,622,622,622,622,622,622,622,622,622,614,606,596,586,575,549,535,525,512,493,465,449,430,408,383,296,229,164,77,39,0,0,0,0,0,0,0,0,0,0,3,12,15,16,18,19,19,19,19,19,20,20,21,21,22,23,24,26,27,29,31,32,32,32,32,32,32,33,35,35,35,35,35,35,35,35,35,35,36,37,39],"timestamp_mouse":[14,45,65,84,105,124,144,165,185,205,225,244,264,285,304,325,344,365,384,404,424,445,464,486,505,525,544,564,584,605,625,645,665,685,704,724,745,764,784,805,824,845,864,884,905,924,945,965,984,1005,1025,1044,1064,1085,1104,1124,1144,1165,1184,1205,1225,1244,1264,1284,1305,1325,1345,1364,1385,1404,1425,1444,1465,1485,1505,1525,1545,1565,1584,1605,1624,1645,1665,1685,1705,1724,1745,1764,1784,1804,1825,1845,1864,1885,1904,1924,1945,1964,1984,2005,2025,2045,2064,2084,2104,2125,2144,2165,2185,2204,2224,2245,2264,2284,2305,2325,2344,2364,2384,2405,2425,2445,2464,2484,2505,2525,2545,2564,2584,2604,2624,2644,2664,2684,2704,2724,2744,2765,2784,2804,2824,2844,2864,2884,2904,2924,2944,2964,2984,3005,3024,3045,3064,3085,3105,3124,3145,3165,3184,3205,3225,3244,3264,3285,3304,3326,3344,3364,3384,3405,3425,3444,3465,3484,3505,3525,3545,3564,3584,3605,3625,3645,3664,3685,3705,3724,3745,3764,3784,3804,3825,3844,3864,3884,3905,3924,3945,3965,3985,4005,4024,4045,4065,4084,4105,4125,4144,4165,4184,4205,4224,4245,4265,4285,4305,4324,4345,4364,4385,4405,4424,4445,4465,4484,4505,4524,4545,4564,4584,4605,4625,4644,4664,4683,4705,4725,4744,4764,4784,4805,4824,4845,4865,4885,4906,4924,4944,4965,4984,5004,5025,5044,5064,5085,5104,5124,5145,5165,5185,5205,5224,5245,5264,5284,5305,5325,5344,5365,5384,5405,5425,5444,5465,5484,5504,5524,5545,5565,5585,5605,5625,5644,5665,5684,5704,5725,5745,5765,5785,5805,5825,5845,5865,5885],"xSR":741.5,"ySR":573.95,"xT1":424.9,"yT1":0,"xT2":1058.1,"yT2":0,"toosoon":0,"cond_shown":"equaldotanddens","ratio_trial":250,"smaller_num":"2","larger_num":"8","correct_side":1,"subjID":"valentinaramirez7","gender":"1","age":"9","school":"4"},{"start_time":1552054763199,"click_time":1552054765598,"finger_time":1552054763996,"fix_duration":702.6591315756489,"trial":2,"RT":797,"MT":1602,"sideResp":1,"stimulus":"img/250/randomdotsizeEA/R/6_Ratio_250_L_6_R_24.png","xmouse":[771,771,771,771,771,771,771,771,771,771,771,771,771,771,771,771,771,771,771,771,771,771,771,771,771,771,771,771,771,771,771,771,771,771,771,771,771,765,747,722,718,717,717,717,717,717,717,717,718,719,719,719,719,719,714,693,674,646,607,562,560,559,559,559,559,559,559,559,559,559,559,559,559,559,568,585,648,717,789,859,944,955,962,967,980,980,978,964,954,928,911,893,864,814,669,571,542,527,523,521,519,515,510,505,499,496,496,496,496,496,496,496,496,496,496,496,495,494,492,489],"ymouse":[634,634,634,634,634,634,634,634,634,634,634,634,634,634,634,634,634,634,634,634,634,634,634,634,634,634,634,634,634,634,634,634,634,634,634,634,634,632,618,589,584,582,582,582,581,581,580,580,580,580,580,580,580,580,577,569,560,548,534,521,521,521,521,521,521,521,521,521,521,521,521,521,521,520,510,490,402,321,236,157,65,48,33,15,0,0,0,0,0,0,0,0,0,0,0,0,0,0,0,0,0,0,0,0,0,0,0,0,0,0,0,0,0,0,0,0,0,0,0,3],"timestamp_mouse":[18,37,56,77,98,118,137,157,178,197,218,238,258,277,298,318,338,357,377,397,418,438,458,477,498,517,538,558,577,598,617,637,657,678,698,718,738,757,777,797,817,837,857,877,897,918,938,957,978,997,1017,1037,1058,1077,1097,1116,1137,1157,1177,1197,1217,1238,1258,1278,1297,1318,1337,1357,1377,1397,1418,1438,1458,1477,1498,1517,1538,1558,1577,1597,1618,1637,1658,1677,1700,1717,1737,1757,1777,1799,1817,1837,1857,1877,1898,1917,1937,1958,1977,1997,2017,2038,2058,2078,2098,2117,2138,2158,2178,2198,2218,2237,2258,2277,2297,2318,2337,2358,2377,2399],"xSR":741.5,"ySR":573.95,"xT1":424.9,"yT1":0,"xT2":1058.1,"yT2":0,"toosoon":0,"cond_shown":"randomdotsizeEA","ratio_trial":250,"smaller_num":"6","larger_num":"24","correct_side":2,"subjID":"valentinaramirez7","gender":"1","age":"9","school":"4"},{"start_time":1552054955478,"click_time":1552054957053,"finger_time":1552054956213,"fix_duration":301.81300398332786,"trial":3,"RT":735,"MT":840,"sideResp":2,"stimulus":"img/500/equaldotanddens/R/9_Ratio_500_L_2_R_4.png","xmouse":[799,799,799,798,798,798,798,798,798,798,798,798,798,798,798,798,798,798,798,798,798,798,798,798,798,798,798,798,798,798,798,798,798,801,812,840,857,870,889,908,947,966,987,1009,1020,1034,1042,1052,1062,1083,1092,1102,1108,1112,1115,1129,1139,1150,1157,1170,1174,1177,1178,1179,1179,1179,1179,1179,1179,1179,1179,1178,1174,1172,1166,1165,1162,1159,1153],"ymouse":[640,640,640,640,640,640,640,640,640,640,640,640,640,640,640,640,640,640,640,640,640,640,640,640,640,640,640,640,640,640,640,639,634,623,608,592,584,579,571,561,533,518,500,476,461,434,426,418,408,374,359,343,327,316,303,286,278,271,260,232,218,209,205,201,201,200,193,180,164,131,116,104,84,78,59,55,52,51,49],"timestamp_mouse":[16,46,56,75,96,115,135,155,177,195,215,235,256,275,296,316,336,355,376,395,415,435,455,475,496,515,535,555,576,596,617,637,656,675,695,715,735,755,775,795,816,836,855,875,895,915,935,955,976,996,1017,1035,1055,1075,1095,1116,1135,1156,1176,1197,1215,1236,1255,1276,1295,1315,1335,1355,1376,1396,1415,1435,1456,1476,1496,1515,1535,1555,1575],"xSR":741.5,"ySR":573.95,"xT1":424.9,"yT1":0,"xT2":1058.1,"yT2":0,"toosoon":0,"cond_shown":"equaldotanddens","ratio_trial":500,"smaller_num":"2","larger_num":"4","correct_side":2,"subjID":"valentinaramirez7","gender":"1","age":"9","school":"4"},{"start_time":1552054959300,"click_time":1552054960473,"finger_time":1552054959893,"fix_duration":1045.6792047176054,"trial":4,"RT":593,"MT":580,"sideResp":1,"stimulus":"img/500/equaldotanddens/L/5_Ratio_500_L_4_R_2.png","xmouse":[769,769,769,769,769,769,769,769,769,769,769,769,769,769,769,769,769,769,769,769,769,769,769,769,769,769,769,770,772,772,772,772,772,772,779,780,780,780,772,770,764,757,742,736,700,685,669,651,631,591,579,569,565,560,555,543,537,530,523],"ymouse":[613,613,613,613,613,613,613,613,613,613,613,613,613,613,613,613,613,613,613,613,613,613,613,613,613,613,612,611,594,522,476,419,367,330,251,231,216,204,179,172,164,154,138,133,101,89,76,60,45,11,1,0,0,0,0,4,9,15,24],"timestamp_mouse":[13,39,54,74,94,114,133,154,173,194,214,233,254,274,293,313,333,354,374,394,413,434,454,474,494,513,534,553,575,593,614,633,653,674,693,714,733,754,774,793,814,833,853,873,893,913,933,954,974,993,1014,1034,1053,1073,1093,1113,1134,1153,1173],"xSR":741.5,"ySR":573.95,"xT1":424.9,"yT1":0,"xT2":1058.1,"yT2":0,"toosoon":0,"cond_shown":"equaldotanddens","ratio_trial":500,"smaller_num":"2","larger_num":"4","correct_side":1,"subjID":"valentinaramirez7","gender":"1","age":"9","school":"4"},{"start_time":1552054961626,"click_time":1552054963253,"finger_time":1552054962733,"fix_duration":250,"trial":5,"RT":1107,"MT":520,"sideResp":1,"stimulus":"img/750/equaldotsize/L/14_Ratio_750_L_8_R_6.png","xmouse":[789,789,789,789,789,789,789,789,789,789,789,789,789,789,789,789,789,789,789,789,789,789,789,789,789,789,789,789,789,789,789,789,789,789,789,789,789,789,789,789,789,789,789,790,795,803,807,811,813,813,814,815,816,819,821,821,814,808,803,803,803,803,801,796,793,789,781,769,743,733,725,719,714,704,693,669,642,609,557,540,525,514],"ymouse":[636,636,636,636,636,636,636,636,636,636,636,636,636,636,636,636,636,636,636,636,636,636,636,636,636,636,636,636,636,636,636,636,636,636,636,636,636,636,636,636,636,636,636,636,636,635,632,629,626,625,623,620,614,605,574,531,489,437,335,294,260,232,211,193,187,184,179,170,153,150,149,146,145,140,133,114,94,71,36,27,18,15],"timestamp_mouse":[13,39,48,67,87,109,127,147,168,188,207,228,247,268,287,307,327,348,368,388,407,427,448,467,487,507,527,547,568,587,607,627,647,668,687,708,729,748,767,788,808,828,847,867,888,907,929,947,967,988,1009,1027,1048,1067,1088,1107,1127,1147,1167,1187,1207,1228,1248,1267,1287,1307,1327,1348,1367,1388,1407,1428,1448,1467,1488,1508,1527,1547,1567,1587,1607,1627],"xSR":741.5,"ySR":573.95,"xT1":424.9,"yT1":0,"xT2":1058.1,"yT2":0,"toosoon":0,"cond_shown":"equaldotsize","ratio_trial":750,"smaller_num":"6","larger_num":"8","correct_side":1,"subjID":"valentinaramirez7","gender":"1","age":"9","school":"4"},{"start_time":1552054966269,"click_time":1552054967813,"finger_time":1552054967293,"fix_duration":1354.2386224997574,"trial":6,"RT":1024,"MT":520,"sideResp":1,"stimulus":"img/900/equaldotanddens/L/10_Ratio_900_L_20_R_18.png","xmouse":[756,756,756,756,756,756,756,756,756,756,756,756,756,756,756,756,756,756,756,756,756,756,756,756,756,756,756,756,756,756,756,756,756,756,756,756,756,756,756,756,756,756,756,756,758,761,769,772,775,778,780,786,793,805,814,821,835,840,845,848,851,856,860,863,869,872,877,877,877,874,866,838,809,734,670,604,484,443],"ymouse":[617,617,617,617,617,617,617,617,617,617,617,617,617,617,617,617,617,617,617,617,617,617,617,617,617,617,617,617,617,617,617,617,617,617,617,617,617,617,617,617,617,617,617,617,615,613,602,599,595,590,585,570,554,526,507,488,461,452,447,443,441,438,435,433,425,416,395,385,377,369,361,339,320,267,226,180,109,90],"timestamp_mouse":[13,35,45,64,84,104,124,144,164,184,205,225,244,265,284,305,325,345,365,384,405,424,444,465,485,504,525,544,564,585,605,625,645,665,685,704,724,744,765,785,805,826,844,865,884,904,924,944,965,984,1004,1024,1046,1064,1085,1105,1124,1144,1164,1184,1204,1224,1245,1264,1284,1304,1324,1344,1364,1384,1404,1424,1444,1465,1484,1504,1524,1544],"xSR":741.5,"ySR":573.95,"xT1":424.9,"yT1":0,"xT2":1058.1,"yT2":0,"toosoon":0,"cond_shown":"equaldotanddens","ratio_trial":900,"smaller_num":"18","larger_num":"20","correct_side":1,"subjID":"valentinaramirez7","gender":"1","age":"9","school":"4"},{"start_time":1552054970709,"click_time":1552054971833,"finger_time":1552054971393,"fix_duration":574.457933166972,"trial":7,"RT":684,"MT":440,"sideResp":2,"stimulus":"img/500/equaldotanddens/R/14_Ratio_500_L_5_R_10.png","xmouse":[805,805,805,805,806,806,806,806,806,806,806,806,806,806,806,806,806,806,806,806,806,806,806,806,806,806,806,806,807,810,813,821,829,840,871,889,909,928,947,982,999,1017,1041,1053,1064,1066,1067,1067,1068,1069,1071,1077,1085,1093,1112,1118,1121],"ymouse":[648,647,647,644,639,639,638,638,637,637,637,636,636,636,636,636,636,636,636,636,636,636,636,636,636,636,636,636,635,628,623,611,601,586,546,525,502,480,460,422,406,385,359,346,327,322,319,317,316,307,293,266,238,208,142,116,96],"timestamp_mouse":[13,36,45,64,84,104,125,144,165,184,205,224,244,264,284,305,324,344,364,384,404,424,445,465,484,504,525,544,564,584,604,624,644,664,684,705,724,744,764,784,805,825,844,864,884,904,924,944,964,984,1005,1025,1045,1064,1084,1104,1124],"xSR":741.5,"ySR":573.95,"xT1":424.9,"yT1":0,"xT2":1058.1,"yT2":0,"toosoon":0,"cond_shown":"equaldotanddens","ratio_trial":500,"smaller_num":"5","larger_num":"10","correct_side":2,"subjID":"valentinaramirez7","gender":"1","age":"9","school":"4"},{"start_time":1552054973479,"click_time":1552054974833,"finger_time":1552054974293,"fix_duration":484.5850185841477,"trial":8,"RT":814,"MT":540,"sideResp":1,"stimulus":"img/250/randomdotsizeEA/L/15_Ratio_250_L_12_R_3.png","xmouse":[770,770,770,770,770,770,770,770,770,770,770,770,770,770,770,770,770,770,770,770,770,770,770,770,770,770,770,770,770,770,770,772,775,778,779,781,782,783,784,787,794,799,802,811,815,817,805,789,776,767,755,751,742,728,711,683,667,652,635,617,582,569,551,545,540,530,525,521],"ymouse":[596,596,596,596,596,596,596,596,596,596,596,596,596,596,596,596,596,596,596,596,596,596,596,596,596,596,596,596,596,596,596,596,595,593,592,591,590,588,585,579,549,508,494,448,407,319,256,201,157,126,85,69,53,39,27,10,3,0,0,0,0,0,0,0,1,6,9,11],"timestamp_mouse":[15,35,55,75,95,114,135,155,174,195,215,234,254,275,294,314,335,354,375,394,414,435,455,474,494,515,534,555,574,596,614,635,654,675,695,714,734,754,774,795,814,834,854,874,894,914,934,955,974,994,1014,1035,1054,1074,1095,1114,1134,1154,1174,1194,1214,1234,1254,1275,1294,1316,1334,1354],"xSR":741.5,"ySR":573.95,"xT1":424.9,"yT1":0,"xT2":1058.1,"yT2":0,"toosoon":0,"cond_shown":"randomdotsizeEA","ratio_trial":250,"smaller_num":"3","larger_num":"12","correct_side":1,"subjID":"valentinaramirez7","gender":"1","age":"9","school":"4"},{"start_time":1552054976422,"click_time":1552054978653,"finger_time":1552054977154,"fix_duration":527.6587158709631,"trial":9,"RT":732,"MT":1499,"sideResp":2,"stimulus":"img/750/randomdotsizeEA/R/11_Ratio_750_L_12_R_16.png","xmouse":[792,792,792,792,792,792,792,792,792,792,792,792,792,792,792,792,792,792,792,792,792,792,792,792,792,792,792,792,792,792,792,793,796,813,824,834,846,849,852,852,852,852,853,856,860,862,864,865,865,865,865,865,865,865,865,865,865,865,865,865,865,865,865,863,863,863,863,863,863,863,863,863,863,863,863,863,863,862,862,862,862,862,862,862,860,860,860,860,859,859,859,863,871,904,930,1039,1120,1186,1258,1273,1282,1285,1287,1290,1290,1288,1285,1281,1251,1216,1167,1106],"ymouse":[629,629,629,629,629,629,629,629,629,629,629,629,629,629,629,629,629,629,629,629,629,629,629,629,629,629,629,629,629,629,629,629,629,623,616,608,597,594,591,591,591,591,589,584,578,573,568,566,564,564,564,564,564,564,564,564,564,564,564,564,563,562,560,557,557,557,557,557,557,555,547,533,514,482,466,460,455,452,448,447,446,444,441,429,422,420,418,413,411,409,407,402,391,368,349,306,282,262,220,204,188,177,167,148,137,124,118,112,90,71,49,27],"timestamp_mouse":[13,38,51,72,92,112,131,151,171,192,212,232,251,271,291,312,331,351,373,392,412,431,451,473,492,511,532,552,572,591,611,631,652,671,691,711,732,751,771,792,811,831,852,871,891,912,932,952,972,993,1011,1033,1052,1071,1092,1111,1131,1152,1172,1191,1211,1232,1251,1271,1293,1313,1331,1351,1371,1391,1412,1432,1451,1471,1491,1511,1531,1552,1571,1591,1611,1632,1651,1671,1691,1711,1732,1751,1771,1791,1811,1831,1852,1871,1891,1911,1931,1951,1971,1991,2011,2032,2052,2071,2091,2112,2132,2151,2171,2191,2212,2231],"xSR":741.5,"ySR":573.95,"xT1":424.9,"yT1":0,"xT2":1058.1,"yT2":0,"toosoon":0,"cond_shown":"randomdotsizeEA","ratio_trial":750,"smaller_num":"12","larger_num":"16","correct_side":2,"subjID":"valentinaramirez7","gender":"1","age":"9","school":"4"},{"start_time":1552054982042,"click_time":1552054983393,"finger_time":1552054982893,"fix_duration":947.5465703334459,"trial":10,"RT":851,"MT":500,"sideResp":1,"stimulus":"img/250/equaldotanddens/L/7_Ratio_250_L_8_R_2.png","xmouse":[802,802,802,802,802,802,802,802,802,802,802,802,802,802,802,802,802,802,802,802,802,802,802,802,802,802,802,802,802,802,802,802,802,802,802,802,802,802,802,802,802,802,802,796,792,787,781,771,766,760,748,732,685,651,601,573,553,538,538,538,538,536,526,523,522,520,519,513],"ymouse":[611,611,611,611,611,611,611,611,611,611,611,611,611,611,611,611,611,611,611,611,611,611,611,611,611,611,611,611,611,611,611,611,611,611,611,611,611,611,611,611,610,606,569,535,506,476,454,418,403,388,370,342,279,241,197,174,160,149,149,149,147,145,134,129,125,120,117,97],"timestamp_mouse":[18,40,52,72,91,111,132,152,172,192,211,232,252,272,291,312,331,352,372,391,413,432,451,472,491,512,533,553,572,591,611,632,651,673,692,711,732,752,772,792,811,831,851,871,891,911,932,951,971,991,1012,1033,1052,1072,1092,1111,1132,1151,1171,1191,1211,1231,1251,1271,1291,1312,1331,1351],"xSR":741.5,"ySR":573.95,"xT1":424.9,"yT1":0,"xT2":1058.1,"yT2":0,"toosoon":0,"cond_shown":"equaldotanddens","ratio_trial":250,"smaller_num":"2","larger_num":"8","correct_side":1,"subjID":"valentinaramirez7","gender":"1","age":"9","school":"4"},{"start_time":1552054987484,"click_time":1552054988875,"finger_time":1552054988333,"fix_duration":1169.028620128978,"trial":11,"RT":849,"MT":542,"sideResp":2,"stimulus":"img/900/equaldotanddens/L/1_Ratio_900_L_10_R_9.png","xmouse":[806,806,806,806,806,806,806,806,806,806,806,806,806,806,806,806,806,806,806,806,806,806,806,806,806,806,806,806,806,806,806,806,806,807,810,813,813,815,819,822,833,840,858,874,895,943,962,977,988,994,996,996,996,996,997,1004,1009,1013,1015,1019,1029,1035,1044,1049,1056,1072,1084,1094,1108,1119],"ymouse":[645,645,645,645,645,645,645,645,645,645,645,645,645,645,645,645,645,645,645,645,645,645,645,645,645,645,645,645,645,645,645,645,645,643,641,637,636,633,628,623,607,596,573,554,533,494,476,461,445,432,427,427,427,427,424,404,393,380,368,354,325,304,273,252,229,183,156,130,102,77],"timestamp_mouse":[13,41,49,69,90,109,129,150,170,190,210,230,249,270,291,310,329,349,369,389,409,430,449,470,489,509,530,550,571,590,609,630,650,669,689,709,729,749,769,789,809,829,849,869,889,909,929,950,970,990,1009,1030,1049,1069,1090,1109,1129,1150,1170,1190,1209,1230,1249,1270,1289,1309,1329,1349,1369,1390],"xSR":741.5,"ySR":573.95,"xT1":424.9,"yT1":0,"xT2":1058.1,"yT2":0,"toosoon":0,"cond_shown":"equaldotanddens","ratio_trial":900,"smaller_num":"9","larger_num":"10","correct_side":1,"subjID":"valentinaramirez7","gender":"1","age":"9","school":"4"},{"start_time":1552054993098,"click_time":1552054994413,"finger_time":1552054994013,"fix_duration":1282.5910711878514,"trial":12,"RT":915,"MT":400,"sideResp":2,"stimulus":"img/500/equaldotsize/R/12_Ratio_500_L_1_R_2.png","xmouse":[809,809,809,809,809,809,809,809,809,809,809,809,809,809,809,809,809,809,809,809,809,809,809,809,809,809,809,809,809,809,809,809,809,809,809,809,809,809,809,809,810,810,817,824,837,843,851,862,878,931,960,984,991,997,1008,1012,1019,1024,1030,1040,1045,1056,1066,1077,1111,1138],"ymouse":[654,654,654,654,654,654,654,654,654,654,654,654,654,654,654,654,654,654,654,654,654,654,654,654,654,654,654,654,654,654,654,654,654,654,654,654,654,654,654,654,652,650,635,620,593,580,563,540,511,421,373,326,309,294,272,264,255,247,237,220,210,193,179,164,122,90],"timestamp_mouse":[15,43,56,76,96,115,136,157,175,196,216,236,255,276,295,316,336,356,376,395,416,436,455,476,495,515,536,556,576,596,616,635,657,676,696,716,735,755,776,797,816,835,855,875,896,915,935,955,975,995,1015,1035,1055,1076,1096,1115,1135,1156,1175,1195,1216,1235,1255,1276,1296,1315],"xSR":741.5,"ySR":573.95,"xT1":424.9,"yT1":0,"xT2":1058.1,"yT2":0,"toosoon":0,"cond_shown":"equaldotsize","ratio_trial":500,"smaller_num":"1","larger_num":"2","correct_side":2,"subjID":"valentinaramirez7","gender":"1","age":"9","school":"4"},{"start_time":1552054995887,"click_time":1552054997614,"finger_time":1552054996593,"fix_duration":250,"trial":13,"RT":706,"MT":1021,"sideResp":1,"stimulus":"img/900/randomdotsizeEA/L/2_Ratio_900_L_20_R_18.png","xmouse":[788,788,788,788,788,788,788,788,788,788,788,788,788,788,788,788,788,788,788,788,788,788,788,788,788,788,788,788,788,788,788,788,789,791,793,793,793,793,793,789,782,782,779,771,767,765,765,765,765,765,761,759,758,758,758,748,736,725,725,725,725,725,725,725,725,723,722,722,718,699,620,595,568,560,556,552,548,544,542,540,539,538,538,537,535,527,524],"ymouse":[601,601,601,601,601,601,601,601,602,602,602,602,602,602,602,602,602,602,602,602,602,602,602,602,602,602,602,602,602,602,602,602,599,593,587,569,555,538,515,485,407,350,291,230,197,145,125,108,95,86,68,62,61,61,61,57,54,52,52,52,52,52,52,52,51,51,51,51,51,51,40,35,33,33,33,33,33,33,34,34,34,34,34,35,35,37,38],"timestamp_mouse":[15,42,46,66,87,106,126,147,168,187,206,226,247,267,286,306,326,347,366,387,407,427,447,467,486,507,526,547,567,587,606,626,646,668,687,706,726,747,766,787,806,826,846,866,886,907,926,947,967,987,1006,1026,1046,1066,1086,1106,1126,1146,1166,1187,1206,1227,1247,1267,1286,1306,1327,1346,1367,1386,1406,1426,1446,1467,1487,1506,1526,1546,1566,1586,1606,1627,1646,1667,1687,1706,1726],"xSR":741.5,"ySR":573.95,"xT1":424.9,"yT1":0,"xT2":1058.1,"yT2":0,"toosoon":0,"cond_shown":"randomdotsizeEA","ratio_trial":900,"smaller_num":"18","larger_num":"20","correct_side":1,"subjID":"valentinaramirez7","gender":"1","age":"9","school":"4"},{"start_time":1552055000344,"click_time":1552055003013,"finger_time":1552055001353,"fix_duration":1448.588710907325,"trial":14,"RT":1009,"MT":1660,"sideResp":2,"stimulus":"img/900/equaldotsize/R/3_Ratio_900_L_9_R_10.png","xmouse":[783,783,783,783,783,783,783,783,783,783,783,783,783,783,783,783,783,783,783,783,783,783,783,783,783,783,783,783,783,783,783,783,783,783,783,783,783,783,783,783,783,783,783,783,783,783,783,789,798,806,822,837,866,884,900,915,929,947,951,952,953,955,962,964,966,966,966,966,966,959,939,920,867,831,805,779,756,708,669,622,576,567,566,566,566,566,566,566,566,566,566,566,566,566,566,566,566,566,566,566,566,566,566,567,573,580,589,611,625,639,666,688,750,799,851,908,952,1008,1023,1030,1033,1034,1040,1042,1043,1045,1045,1045,1046,1049,1053,1056,1061,1064],"ymouse":[631,631,631,631,631,631,631,631,631,631,631,631,631,631,631,631,631,631,631,631,631,631,631,631,631,631,631,631,631,631,631,631,631,631,631,631,631,631,631,631,631,631,631,631,631,631,628,617,605,594,570,548,508,485,465,446,430,407,400,400,397,395,385,381,379,378,378,378,377,377,370,361,332,314,301,289,276,258,244,227,208,204,203,203,203,203,203,203,203,203,203,203,202,195,188,180,169,153,148,144,143,143,143,143,143,143,143,143,143,143,142,138,135,135,135,135,135,127,125,125,125,125,124,124,123,122,122,122,121,119,113,109,101,96],"timestamp_mouse":[12,35,49,70,90,111,131,151,170,189,210,229,249,270,289,310,330,350,370,390,410,430,450,469,489,510,530,549,570,590,609,629,650,670,689,710,729,750,769,789,811,829,850,869,890,909,930,949,969,990,1009,1029,1049,1069,1089,1109,1130,1149,1169,1189,1210,1229,1249,1269,1290,1309,1330,1350,1369,1390,1409,1430,1450,1470,1490,1510,1530,1549,1570,1589,1609,1630,1650,1669,1690,1709,1730,1749,1769,1789,1809,1829,1850,1869,1890,1909,1930,1949,1970,1989,2009,2029,2050,2069,2089,2109,2130,2149,2169,2190,2209,2230,2251,2269,2290,2310,2330,2349,2369,2389,2409,2430,2451,2469,2489,2509,2529,2549,2569,2589,2609,2630,2650,2669],"xSR":741.5,"ySR":573.95,"xT1":424.9,"yT1":0,"xT2":1058.1,"yT2":0,"toosoon":0,"cond_shown":"equaldotsize","ratio_trial":900,"smaller_num":"9","larger_num":"10","correct_side":2,"subjID":"valentinaramirez7","gender":"1","age":"9","school":"4"},{"start_time":1552055004708,"click_time":1552055008733,"finger_time":1552055006594,"fix_duration":492.41722386363773,"trial":15,"RT":1886,"MT":2139,"sideResp":1,"stimulus":"img/750/randomdotsizeEA/L/8_Ratio_750_L_4_R_3.png","xmouse":[794,794,794,794,794,794,794,794,795,795,795,795,795,795,795,795,795,795,795,795,795,795,795,795,795,795,795,795,795,795,795,795,795,795,795,795,795,795,795,795,795,795,795,795,795,795,795,795,795,795,795,795,795,795,795,795,795,795,795,795,795,795,795,795,795,795,795,795,795,795,795,795,795,795,795,795,795,795,795,795,795,795,795,795,795,795,797,797,797,798,799,799,799,799,794,793,790,789,787,781,774,766,752,741,715,701,693,685,677,657,641,618,608,605,604,604,604,604,604,604,604,604,604,604,604,604,604,603,595,554,543,542,542,542,542,541,538,534,533,533,533,533,533,533,533,533,533,533,533,533,533,533,533,533,533,533,533,533,533,533,533,533,533,533,533,533,533,533,533,532,530,529,529,527,527,527,527,527,527,527,526,526,526,526,525,525,525,525,525,525,525,525,525,525,525,525,525,525,525,525,525,523],"ymouse":[639,639,639,639,639,639,639,639,639,639,639,639,639,639,639,639,638,638,638,638,638,638,638,638,638,638,638,638,638,638,638,638,638,638,638,638,638,638,638,638,638,638,638,638,638,638,638,638,638,638,638,638,638,638,638,638,638,638,638,638,638,638,638,638,638,638,638,638,638,638,638,638,638,638,638,638,638,638,638,638,638,638,638,638,638,638,636,633,632,630,627,618,607,592,550,530,509,491,479,454,437,419,392,372,334,315,299,279,252,196,167,128,113,104,101,100,98,98,98,98,98,98,98,98,98,98,98,96,90,67,59,58,58,58,58,58,58,58,57,57,57,57,57,57,57,57,57,57,57,57,57,57,57,57,57,57,57,57,57,57,57,57,57,57,57,57,57,57,57,57,58,59,63,65,68,70,70,72,72,74,75,75,75,76,77,78,79,79,79,79,79,80,80,80,80,80,80,80,80,80,81,82],"timestamp_mouse":[11,38,46,66,86,105,126,145,165,185,205,226,245,265,286,305,326,345,365,385,406,426,445,465,486,505,526,546,565,587,605,626,646,666,686,706,727,746,766,785,806,825,846,865,886,905,926,946,965,986,1005,1030,1045,1065,1086,1106,1125,1145,1165,1186,1205,1226,1245,1266,1286,1307,1325,1345,1365,1385,1405,1426,1446,1466,1487,1506,1526,1545,1565,1587,1606,1626,1647,1665,1685,1705,1726,1745,1765,1785,1805,1825,1846,1865,1886,1905,1926,1946,1965,1985,2005,2025,2045,2065,2085,2105,2125,2146,2166,2185,2206,2225,2245,2266,2285,2305,2325,2345,2366,2386,2406,2426,2446,2466,2486,2507,2525,2546,2565,2585,2606,2625,2646,2666,2685,2705,2725,2745,2766,2786,2806,2827,2846,2866,2886,2905,2926,2947,2966,2985,3005,3025,3045,3066,3086,3105,3126,3145,3166,3186,3206,3226,3245,3266,3285,3306,3325,3345,3366,3385,3405,3425,3447,3466,3485,3505,3525,3546,3566,3585,3606,3625,3646,3665,3685,3705,3725,3745,3766,3786,3806,3825,3846,3865,3886,3905,3926,3946,3965,3985,4006,4025],"xSR":741.5,"ySR":573.95,"xT1":424.9,"yT1":0,"xT2":1058.1,"yT2":0,"toosoon":0,"cond_shown":"randomdotsizeEA","ratio_trial":750,"smaller_num":"3","larger_num":"4","correct_side":1,"subjID":"valentinaramirez7","gender":"1","age":"9","school":"4"},{"start_time":1552055011036,"click_time":1552055012194,"finger_time":1552055011793,"fix_duration":961.994474136339,"trial":16,"RT":757,"MT":401,"sideResp":1,"stimulus":"img/500/randomdotsizeEA/L/5_Ratio_500_L_4_R_2.png","xmouse":[776,776,776,776,776,776,776,776,776,776,776,776,776,776,776,776,776,776,776,776,776,776,776,776,776,776,776,776,776,776,776,776,776,776,776,777,778,773,745,713,679,648,606,601,601,601,600,600,600,595,586,579,569,564,559,554,544,522],"ymouse":[652,652,652,652,652,652,652,652,652,652,652,652,652,652,652,652,652,652,652,652,652,652,652,652,652,652,652,652,652,652,652,652,652,652,652,644,620,493,385,280,191,131,78,75,75,75,75,75,75,75,75,75,75,75,75,75,74,68],"timestamp_mouse":[18,37,57,77,97,117,138,157,178,198,218,237,257,277,297,317,337,358,377,397,417,438,457,479,497,518,538,558,577,597,618,638,658,678,697,718,737,757,777,799,818,838,857,877,898,919,937,958,977,997,1017,1038,1057,1078,1097,1118,1137,1158],"xSR":741.5,"ySR":573.95,"xT1":424.9,"yT1":0,"xT2":1058.1,"yT2":0,"toosoon":0,"cond_shown":"randomdotsizeEA","ratio_trial":500,"smaller_num":"2","larger_num":"4","correct_side":1,"subjID":"valentinaramirez7","gender":"1","age":"9","school":"4"},{"start_time":1552055013190,"click_time":1552055015074,"finger_time":1552055014475,"fix_duration":314.5608493659979,"trial":17,"RT":1285,"MT":599,"sideResp":2,"stimulus":"img/900/randomdotsizeEA/L/4_Ratio_900_L_20_R_18.png","xmouse":[792,792,792,792,792,792,792,792,792,792,792,792,792,792,792,792,792,792,792,792,792,792,792,792,792,792,792,792,792,792,792,792,792,792,792,792,792,792,792,792,792,792,792,792,792,792,792,792,792,792,792,792,792,792,792,792,792,792,792,794,804,812,820,829,850,863,873,887,898,906,917,925,935,946,956,968,973,978,985,1000,1025,1042,1055,1067,1077,1097,1105,1112,1119,1126,1134,1137,1140,1143,1149],"ymouse":[623,623,623,623,623,623,623,623,623,623,623,623,623,623,623,623,623,623,623,623,623,623,623,623,623,623,623,623,623,623,623,623,623,623,623,623,623,623,623,623,623,623,623,623,623,623,623,623,623,623,623,623,623,623,623,623,623,623,623,623,613,601,590,576,548,537,521,505,490,480,471,465,458,448,438,421,413,406,399,381,349,330,312,295,281,251,240,228,213,190,155,138,121,100,65],"timestamp_mouse":[11,36,43,65,83,103,123,143,163,183,204,223,243,263,283,303,323,343,363,384,405,423,444,465,483,504,523,544,563,583,604,625,644,663,683,703,724,743,763,784,803,823,843,864,884,903,923,943,963,983,1005,1023,1043,1063,1083,1103,1123,1143,1164,1183,1204,1223,1243,1263,1284,1304,1324,1343,1363,1383,1403,1423,1444,1464,1484,1503,1523,1543,1564,1583,1604,1624,1643,1663,1684,1703,1724,1743,1763,1783,1803,1823,1844,1863,1884],"xSR":741.5,"ySR":573.95,"xT1":424.9,"yT1":0,"xT2":1058.1,"yT2":0,"toosoon":0,"cond_shown":"randomdotsizeEA","ratio_trial":900,"smaller_num":"18","larger_num":"20","correct_side":1,"subjID":"valentinaramirez7","gender":"1","age":"9","school":"4"},{"start_time":1552055018464,"click_time":1552055019773,"finger_time":1552055019212,"fix_duration":1429.3664189338124,"trial":18,"RT":748,"MT":561,"sideResp":2,"stimulus":"img/250/randomdotsizeEA/R/4_Ratio_250_L_3_R_12.png","xmouse":[797,797,797,797,797,797,797,797,797,797,797,797,797,797,797,797,797,797,797,797,797,797,797,797,797,797,797,797,797,797,797,797,797,797,800,808,834,849,866,886,903,946,963,977,997,1013,1071,1092,1112,1134,1165,1202,1208,1211,1211,1211,1211,1211,1209,1205,1204,1195,1189,1181,1167,1154],"ymouse":[636,636,636,636,636,636,636,636,636,636,636,636,636,636,636,636,636,636,636,636,636,636,636,636,636,636,636,636,636,636,636,636,636,636,635,626,596,578,560,532,508,453,433,414,389,366,286,253,216,177,135,67,45,30,22,20,20,20,18,17,16,14,13,12,12,18],"timestamp_mouse":[12,41,50,69,89,109,128,150,169,190,209,229,249,269,290,310,329,349,369,390,409,430,449,469,490,509,529,549,568,590,610,630,649,668,689,709,730,748,769,789,809,828,849,869,889,908,929,949,970,989,1008,1028,1049,1068,1088,1108,1129,1148,1170,1189,1208,1228,1249,1270,1288,1309],"xSR":741.5,"ySR":573.95,"xT1":424.9,"yT1":0,"xT2":1058.1,"yT2":0,"toosoon":0,"cond_shown":"randomdotsizeEA","ratio_trial":250,"smaller_num":"3","larger_num":"12","correct_side":2,"subjID":"valentinaramirez7","gender":"1","age":"9","school":"4"},{"start_time":1552055022401,"click_time":1552055025074,"finger_time":1552055024533,"fix_duration":407.0760927779561,"trial":19,"RT":2132,"MT":541,"sideResp":1,"stimulus":"img/900/randomdotsizeEA/L/2_Ratio_900_L_20_R_18.png","xmouse":[827,827,827,827,827,827,827,827,827,827,827,827,827,827,827,827,827,827,827,827,827,827,827,827,827,827,827,827,827,827,827,827,827,827,827,827,827,827,827,827,827,827,827,827,827,827,827,827,827,827,827,827,827,827,827,827,827,825,822,812,811,811,811,811,811,811,811,811,811,811,811,811,811,811,811,811,811,811,811,811,811,811,811,811,811,811,811,811,811,811,811,811,811,811,811,811,811,811,811,811,811,810,813,819,821,822,824,824,824,824,824,818,812,805,784,774,759,744,722,700,693,686,676,657,648,636,621,599,584,563,550,538,528,510],"ymouse":[604,604,604,604,604,604,604,604,604,604,604,604,604,604,604,604,604,604,604,604,604,604,604,604,604,604,604,604,604,604,604,604,604,604,604,604,604,604,604,604,604,604,604,604,604,604,604,604,604,604,604,604,604,604,604,604,604,604,604,603,603,603,603,603,603,603,603,603,603,603,603,603,603,603,603,603,603,603,603,603,603,603,603,603,603,603,603,603,603,603,603,603,603,603,603,603,603,603,603,603,603,601,597,587,581,575,570,566,553,523,505,485,462,437,371,335,300,265,229,204,196,190,185,170,161,152,141,125,117,99,88,76,65,50],"timestamp_mouse":[13,34,53,72,92,112,131,151,173,191,211,232,253,272,292,312,333,351,372,393,412,431,452,473,492,511,532,552,573,593,612,632,652,672,691,712,733,752,772,792,812,833,853,872,891,911,932,952,973,993,1011,1033,1053,1072,1092,1111,1133,1153,1172,1192,1211,1233,1252,1272,1291,1313,1333,1352,1372,1393,1411,1433,1452,1472,1492,1512,1533,1552,1573,1591,1612,1631,1652,1673,1693,1713,1732,1752,1771,1792,1813,1832,1852,1872,1891,1911,1933,1953,1972,1991,2011,2033,2051,2073,2091,2112,2132,2152,2171,2191,2212,2233,2251,2271,2291,2313,2332,2352,2372,2392,2412,2433,2452,2473,2492,2511,2531,2552,2572,2592,2612,2632,2651,2672],"xSR":741.5,"ySR":573.95,"xT1":424.9,"yT1":0,"xT2":1058.1,"yT2":0,"toosoon":0,"cond_shown":"randomdotsizeEA","ratio_trial":900,"smaller_num":"18","larger_num":"20","correct_side":1,"subjID":"valentinaramirez7","gender":"1","age":"9","school":"4"},{"start_time":1552055026935,"click_time":1552055027953,"finger_time":1552055027612,"fix_duration":1059.4809667790119,"trial":20,"RT":677,"MT":341,"sideResp":1,"stimulus":"img/500/equaldotsize/L/11_Ratio_500_L_12_R_6.png","xmouse":[776,776,776,776,776,776,776,776,776,776,776,776,776,776,776,776,776,776,776,776,776,776,776,776,776,776,776,776,776,776,776,776,778,778,774,752,691,653,619,596,586,586,585,585,583,582,576,571,549,529,519],"ymouse":[613,613,613,613,613,613,613,613,613,613,613,613,613,613,613,613,613,613,613,613,613,613,613,613,613,613,613,613,613,613,613,613,589,556,498,417,244,163,106,71,52,50,49,49,47,46,44,42,36,30,25],"timestamp_mouse":[18,37,58,78,99,119,137,158,177,198,217,238,259,278,299,319,337,359,377,397,419,437,458,479,498,518,538,557,577,599,618,637,658,677,698,717,739,757,778,797,818,837,858,878,898,919,938,973,978,999,1018],"xSR":741.5,"ySR":573.95,"xT1":424.9,"yT1":0,"xT2":1058.1,"yT2":0,"toosoon":0,"cond_shown":"equaldotsize","ratio_trial":500,"smaller_num":"6","larger_num":"12","correct_side":1,"subjID":"valentinaramirez7","gender":"1","age":"9","school":"4"},{"start_time":1552055029616,"click_time":1552055031313,"finger_time":1552055030912,"fix_duration":680.1932389438174,"trial":21,"RT":1296,"MT":401,"sideResp":2,"stimulus":"img/900/randomdotsizeEA/L/8_Ratio_900_L_20_R_18.png","xmouse":[781,781,781,781,781,781,781,781,781,781,781,781,781,781,781,781,781,781,781,781,781,781,781,781,781,781,781,781,781,781,781,781,781,781,781,781,781,781,781,781,781,781,781,781,781,781,781,781,781,781,781,781,781,781,781,783,784,794,800,804,809,815,831,837,843,846,849,861,873,887,903,921,967,995,1016,1032,1045,1056,1080,1087,1094,1099,1116,1128,1138],"ymouse":[626,626,626,626,626,626,626,626,626,626,626,626,626,626,626,626,626,626,626,626,626,626,626,626,626,626,626,626,626,626,626,626,626,626,626,626,626,626,626,626,626,626,626,626,626,626,626,626,626,626,626,626,626,626,626,626,624,617,612,607,604,598,582,575,568,561,556,534,518,500,478,459,404,372,345,324,305,288,249,231,213,196,155,126,95],"timestamp_mouse":[16,42,56,76,96,118,136,157,177,197,216,237,256,277,298,317,337,357,377,398,416,438,456,477,497,516,537,556,578,596,617,638,657,676,697,717,736,758,777,798,817,837,857,878,897,918,937,957,977,996,1018,1038,1057,1077,1097,1116,1138,1157,1178,1196,1216,1236,1257,1276,1296,1317,1336,1357,1376,1396,1417,1437,1457,1477,1496,1517,1536,1556,1577,1597,1616,1637,1658,1677,1697],"xSR":741.5,"ySR":573.95,"xT1":424.9,"yT1":0,"xT2":1058.1,"yT2":0,"toosoon":0,"cond_shown":"randomdotsizeEA","ratio_trial":900,"smaller_num":"18","larger_num":"20","correct_side":1,"subjID":"valentinaramirez7","gender":"1","age":"9","school":"4"},{"start_time":1552055034331,"click_time":1552055036112,"finger_time":1552055035012,"fix_duration":1458.257341628155,"trial":22,"RT":681,"MT":1100,"sideResp":2,"stimulus":"img/500/equaldotanddens/R/3_Ratio_500_L_10_R_20.png","xmouse":[791,791,791,791,791,791,791,791,791,791,791,791,791,791,791,791,791,791,791,791,791,791,791,791,791,791,791,791,791,791,791,791,791,773,763,748,729,667,643,630,619,615,612,606,606,604,603,598,595,591,588,588,588,588,588,588,588,588,588,588,588,588,592,607,621,641,664,710,736,767,795,840,902,927,951,969,990,1030,1048,1064,1077,1080,1081,1081,1082,1085,1087,1091,1100,1107],"ymouse":[642,642,642,642,642,642,642,642,642,642,642,642,642,642,642,642,642,642,642,642,642,642,642,642,642,642,642,642,642,642,640,635,621,576,552,519,476,367,333,311,296,291,287,282,280,276,271,254,244,235,228,227,227,227,227,227,227,227,227,227,227,227,226,233,239,245,251,261,264,264,264,252,235,228,221,215,204,183,173,161,151,149,147,147,145,141,136,127,102,88],"timestamp_mouse":[10,21,42,61,82,101,121,142,161,182,201,221,242,263,283,301,322,343,362,382,401,423,443,463,482,502,523,543,563,582,601,622,642,663,681,702,722,742,761,781,801,822,842,862,882,903,922,942,961,982,1002,1022,1042,1062,1082,1103,1122,1141,1162,1182,1201,1222,1242,1262,1283,1302,1321,1343,1361,1382,1401,1423,1442,1461,1481,1503,1523,1542,1561,1582,1601,1621,1643,1663,1681,1701,1722,1742,1761,1781],"xSR":741.5,"ySR":573.95,"xT1":424.9,"yT1":0,"xT2":1058.1,"yT2":0,"toosoon":0,"cond_shown":"equaldotanddens","ratio_trial":500,"smaller_num":"10","larger_num":"20","correct_side":2,"subjID":"valentinaramirez7","gender":"1","age":"9","school":"4"},{"start_time":1552055038384,"click_time":1552055039793,"finger_time":1552055039273,"fix_duration":1010.8698833172573,"trial":23,"RT":889,"MT":520,"sideResp":1,"stimulus":"img/500/randomdotsizeEA/L/7_Ratio_500_L_10_R_5.png","xmouse":[761,761,761,761,761,761,761,761,761,761,761,761,761,761,761,761,761,761,761,761,761,761,761,761,761,761,761,761,761,761,761,761,761,761,761,761,761,761,761,761,761,763,765,768,775,778,781,781,781,769,761,751,741,730,720,703,695,683,666,642,592,579,572,566,560,560,557,553,548,529,518],"ymouse":[600,600,600,600,600,600,600,600,600,600,600,600,600,600,600,600,600,600,600,600,600,600,600,600,600,600,600,600,600,600,600,600,600,600,600,600,600,600,600,600,600,600,595,587,563,544,517,488,463,390,366,335,312,291,273,245,235,220,203,179,121,106,98,93,87,87,84,79,72,64,61],"timestamp_mouse":[12,37,49,68,89,109,128,150,169,189,210,229,249,270,290,308,328,349,370,389,408,430,450,469,489,508,530,549,569,590,609,630,649,669,690,709,728,749,769,790,809,828,849,869,889,908,929,949,969,989,1009,1029,1049,1069,1089,1108,1129,1149,1169,1189,1208,1229,1248,1268,1289,1308,1329,1349,1369,1389,1409],"xSR":741.5,"ySR":573.95,"xT1":424.9,"yT1":0,"xT2":1058.1,"yT2":0,"toosoon":0,"cond_shown":"randomdotsizeEA","ratio_trial":500,"smaller_num":"5","larger_num":"10","correct_side":1,"subjID":"valentinaramirez7","gender":"1","age":"9","school":"4"},{"start_time":1552055041663,"click_time":1552055043212,"finger_time":1552055042833,"fix_duration":869.5860654478223,"trial":24,"RT":1170,"MT":379,"sideResp":2,"stimulus":"img/500/equaldotanddens/R/14_Ratio_500_L_5_R_10.png","xmouse":[766,766,766,768,768,768,768,768,768,769,769,772,775,777,778,778,778,778,778,778,778,778,778,778,778,778,778,778,778,778,778,778,778,778,778,778,778,778,778,778,778,778,778,778,778,778,778,778,778,778,778,778,778,779,785,796,818,833,849,867,889,967,1000,1023,1030,1032,1034,1034,1034,1034,1038,1048,1055,1062,1080,1091,1118,1127],"ymouse":[613,613,613,613,613,613,613,613,613,613,613,613,615,616,617,617,617,617,617,617,617,617,617,617,617,617,617,617,617,617,617,617,617,617,617,617,617,617,617,617,617,617,617,617,617,617,617,617,617,617,617,617,617,617,615,611,598,587,576,561,543,454,411,378,367,361,357,356,354,347,339,312,288,261,212,178,112,74],"timestamp_mouse":[13,43,49,69,89,111,130,150,170,191,210,229,250,269,290,310,331,349,370,390,410,430,450,469,490,510,529,549,569,591,610,630,649,670,690,709,729,749,770,790,809,829,849,870,889,909,929,949,971,989,1010,1030,1050,1069,1090,1110,1130,1149,1170,1190,1210,1229,1250,1270,1291,1309,1329,1349,1370,1390,1410,1429,1451,1470,1491,1510,1529,1549],"xSR":741.5,"ySR":573.95,"xT1":424.9,"yT1":0,"xT2":1058.1,"yT2":0,"toosoon":0,"cond_shown":"equaldotanddens","ratio_trial":500,"smaller_num":"5","larger_num":"10","correct_side":2,"subjID":"valentinaramirez7","gender":"1","age":"9","school":"4"},{"start_time":1552055045267,"click_time":1552055047632,"finger_time":1552055046913,"fix_duration":773.2030268030337,"trial":25,"RT":1646,"MT":719,"sideResp":2,"stimulus":"img/900/randomdotsizeEA/R/12_Ratio_900_L_18_R_20.png","xmouse":[816,816,816,816,816,816,816,816,816,816,816,816,816,816,816,816,816,816,816,816,816,816,816,816,816,816,816,816,816,816,816,816,816,816,816,816,816,816,816,816,816,816,816,816,816,816,816,816,816,816,816,816,816,816,816,816,817,817,817,817,818,818,818,819,819,819,819,819,819,819,819,819,819,819,819,819,819,819,820,821,823,831,832,836,846,854,875,891,904,917,928,947,951,960,980,996,1044,1055,1062,1067,1067,1068,1068,1074,1079,1084,1092,1096,1100,1102,1103,1107,1108,1108,1108,1108,1108,1109,1110],"ymouse":[593,593,593,593,593,593,594,594,594,594,594,594,594,594,594,594,594,594,594,594,594,594,594,594,594,594,594,594,594,594,594,594,594,594,594,594,594,594,594,594,594,594,594,594,594,594,594,594,594,594,594,594,594,594,594,594,594,594,593,592,592,591,589,588,587,587,587,587,587,587,587,587,587,587,587,587,587,587,585,584,582,574,573,568,556,546,511,485,463,444,428,402,396,384,359,340,276,261,249,239,234,232,231,216,202,189,161,148,135,129,124,113,111,110,110,110,108,104,99],"timestamp_mouse":[13,41,45,65,86,105,127,145,165,187,207,226,245,267,287,306,326,346,366,386,407,427,445,466,487,507,525,546,566,585,605,625,645,665,686,707,727,746,766,785,806,826,846,867,886,905,927,946,966,986,1007,1026,1045,1065,1086,1105,1126,1146,1166,1186,1206,1225,1246,1266,1286,1306,1325,1346,1365,1387,1407,1426,1446,1467,1485,1507,1525,1546,1567,1586,1607,1626,1646,1665,1686,1706,1726,1745,1766,1786,1806,1826,1845,1865,1886,1906,1926,1946,1966,1986,2006,2025,2046,2067,2086,2106,2125,2145,2166,2185,2206,2226,2246,2266,2286,2307,2326,2345,2365],"xSR":741.5,"ySR":573.95,"xT1":424.9,"yT1":0,"xT2":1058.1,"yT2":0,"toosoon":0,"cond_shown":"randomdotsizeEA","ratio_trial":900,"smaller_num":"18","larger_num":"20","correct_side":2,"subjID":"valentinaramirez7","gender":"1","age":"9","school":"4"},{"start_time":1552055051492,"click_time":1552055052673,"finger_time":1552055052193,"fix_duration":837.5970511572773,"trial":26,"RT":701,"MT":480,"sideResp":1,"stimulus":"img/500/equaldotsize/L/5_Ratio_500_L_4_R_2.png","xmouse":[775,775,775,775,775,775,775,775,775,775,775,775,775,775,775,775,775,775,775,775,775,775,775,775,775,775,775,775,775,775,775,775,775,777,777,774,768,759,745,729,686,663,635,624,619,616,616,615,614,610,601,594,583,576,571,556,547,535,526,520],"ymouse":[616,616,616,616,616,616,616,616,616,616,616,616,616,616,616,616,616,616,616,616,616,616,616,616,616,616,616,616,616,616,616,612,610,600,590,562,538,505,449,382,255,208,166,152,145,139,137,135,129,121,102,93,78,69,63,54,51,47,43,42],"timestamp_mouse":[9,34,41,60,80,100,122,141,161,182,202,220,241,261,280,301,321,342,361,380,400,422,442,461,480,500,522,541,560,581,600,621,640,661,681,701,721,740,760,780,800,821,841,860,881,901,921,941,960,981,1000,1021,1041,1062,1081,1101,1120,1142,1161,1181],"xSR":741.5,"ySR":573.95,"xT1":424.9,"yT1":0,"xT2":1058.1,"yT2":0,"toosoon":0,"cond_shown":"equaldotsize","ratio_trial":500,"smaller_num":"2","larger_num":"4","correct_side":1,"subjID":"valentinaramirez7","gender":"1","age":"9","school":"4"},{"start_time":1552055054911,"click_time":1552055056092,"finger_time":1552055055692,"fix_duration":1117.870874536084,"trial":27,"RT":781,"MT":400,"sideResp":1,"stimulus":"img/500/randomdotsizeEA/L/8_Ratio_500_L_8_R_4.png","xmouse":[785,785,785,785,785,785,785,785,785,785,785,785,785,785,785,785,785,785,785,785,785,785,785,785,785,785,785,785,785,785,785,785,785,785,785,786,788,789,789,784,781,778,762,741,662,623,600,591,589,588,588,588,588,587,572,560,547,535,528,523],"ymouse":[650,650,650,650,650,650,650,650,650,650,650,650,650,650,650,650,650,650,650,650,650,650,650,650,650,650,650,650,650,650,650,650,650,650,648,632,615,595,580,561,553,542,499,452,302,225,169,146,133,125,125,124,124,122,105,92,82,75,73,71],"timestamp_mouse":[11,37,43,62,81,103,122,143,163,182,202,221,242,262,283,302,322,342,361,381,403,423,441,463,482,503,522,542,563,583,602,622,642,662,682,701,722,742,762,781,801,821,842,862,882,901,922,942,962,981,1002,1022,1042,1062,1082,1101,1122,1142,1163,1181],"xSR":741.5,"ySR":573.95,"xT1":424.9,"yT1":0,"xT2":1058.1,"yT2":0,"toosoon":0,"cond_shown":"randomdotsizeEA","ratio_trial":500,"smaller_num":"4","larger_num":"8","correct_side":1,"subjID":"valentinaramirez7","gender":"1","age":"9","school":"4"},{"start_time":1552055058544,"click_time":1552055059753,"finger_time":1552055059292,"fix_duration":850.1001530205808,"trial":28,"RT":748,"MT":461,"sideResp":2,"stimulus":"img/250/randomdotsizeEA/R/9_Ratio_250_L_3_R_12.png","xmouse":[814,814,814,814,814,814,814,814,814,814,814,814,814,814,814,814,814,814,814,814,814,814,814,814,814,814,814,814,814,814,814,814,814,814,817,820,825,847,861,876,895,907,927,937,946,957,970,998,1015,1021,1034,1043,1064,1074,1082,1088,1092,1100,1104,1107,1111],"ymouse":[614,614,614,614,614,614,614,614,614,614,614,614,614,614,614,614,614,614,614,614,614,614,614,614,614,614,614,614,614,614,614,614,614,614,612,609,604,581,569,556,534,519,493,477,463,443,421,374,344,334,302,280,227,200,179,160,146,125,115,106,98],"timestamp_mouse":[20,29,50,69,88,109,128,149,169,188,208,228,248,269,290,308,330,348,368,389,410,429,449,470,489,508,529,550,570,590,608,628,648,668,690,709,729,748,769,788,810,829,850,868,889,909,929,948,968,988,1008,1029,1049,1069,1089,1108,1129,1148,1168,1189,1208],"xSR":741.5,"ySR":573.95,"xT1":424.9,"yT1":0,"xT2":1058.1,"yT2":0,"toosoon":0,"cond_shown":"randomdotsizeEA","ratio_trial":250,"smaller_num":"3","larger_num":"12","correct_side":2,"subjID":"valentinaramirez7","gender":"1","age":"9","school":"4"},{"start_time":1552055061449,"click_time":1552055062552,"finger_time":1552055062052,"fix_duration":555.8322861360643,"trial":29,"RT":603,"MT":500,"sideResp":1,"stimulus":"img/500/equaldotanddens/L/13_Ratio_500_L_12_R_6.png","xmouse":[746,746,746,746,746,747,747,747,748,749,749,749,749,749,749,749,749,749,749,749,749,749,749,749,749,749,751,755,756,757,757,757,752,735,729,715,706,678,665,656,646,636,632,632,631,628,620,590,573,562,549,539,529,527,525,524],"ymouse":[619,619,619,619,619,618,618,618,617,617,617,616,616,616,616,616,616,616,616,616,616,616,616,616,616,616,614,601,593,584,568,544,471,398,377,298,258,186,165,147,138,132,129,129,129,126,120,105,99,95,91,88,86,86,86,86],"timestamp_mouse":[12,25,44,64,85,104,125,143,164,184,203,225,245,263,284,303,325,343,365,383,404,424,443,465,484,504,524,543,563,585,603,625,643,665,684,703,724,744,763,783,803,825,845,864,883,903,924,943,963,984,1004,1023,1044,1064,1084,1103],"xSR":741.5,"ySR":573.95,"xT1":424.9,"yT1":0,"xT2":1058.1,"yT2":0,"toosoon":0,"cond_shown":"equaldotanddens","ratio_trial":500,"smaller_num":"6","larger_num":"12","correct_side":1,"subjID":"valentinaramirez7","gender":"1","age":"9","school":"4"},{"start_time":1552055064841,"click_time":1552055065692,"finger_time":1552055065492,"fix_duration":1246.9071338624826,"trial":30,"RT":651,"MT":200,"sideResp":1,"stimulus":"img/750/equaldotanddens/L/1_Ratio_750_L_20_R_15.png","xmouse":[796,796,796,796,796,796,796,796,796,796,796,796,796,796,796,796,796,796,796,796,796,796,796,796,796,796,796,796,796,796,796,796,780,762,714,673,634,574,557,542,533,528,519],"ymouse":[613,613,613,613,613,613,613,613,613,613,613,613,613,613,613,613,613,613,613,613,613,613,613,613,613,613,613,613,613,613,611,604,541,466,349,284,234,155,133,114,101,92,87],"timestamp_mouse":[22,37,51,72,92,111,132,151,172,191,213,232,252,272,292,313,332,352,372,392,411,431,452,471,493,512,531,553,572,592,611,632,651,673,691,713,732,753,771,791,811,833,851],"xSR":741.5,"ySR":573.95,"xT1":424.9,"yT1":0,"xT2":1058.1,"yT2":0,"toosoon":0,"cond_shown":"equaldotanddens","ratio_trial":750,"smaller_num":"15","larger_num":"20","correct_side":1,"subjID":"valentinaramirez7","gender":"1","age":"9","school":"4"},{"start_time":1552055067638,"click_time":1552055068674,"finger_time":1552055068292,"fix_duration":344.9794097907514,"trial":31,"RT":654,"MT":382,"sideResp":1,"stimulus":"img/250/randomdotsizeEA/L/1_Ratio_250_L_8_R_2.png","xmouse":[768,768,768,768,768,768,768,768,768,768,768,768,768,768,768,768,770,771,771,771,771,771,771,771,772,772,772,772,772,772,770,768,743,729,706,698,688,657,637,617,594,567,560,555,550,543,539,513,503,501,501,500],"ymouse":[601,601,601,601,601,601,601,601,601,601,601,601,601,601,601,601,601,601,601,601,601,601,601,601,601,601,601,601,601,601,596,593,567,551,516,479,414,280,217,156,100,29,7,0,0,0,0,0,0,0,0,1],"timestamp_mouse":[15,35,54,75,96,116,134,156,176,194,214,236,255,275,294,314,336,355,375,394,415,436,456,476,495,515,536,555,576,594,614,635,654,674,695,714,734,755,774,795,815,836,854,875,895,915,936,955,975,995,1016,1036],"xSR":741.5,"ySR":573.95,"xT1":424.9,"yT1":0,"xT2":1058.1,"yT2":0,"toosoon":0,"cond_shown":"randomdotsizeEA","ratio_trial":250,"smaller_num":"2","larger_num":"8","correct_side":1,"subjID":"valentinaramirez7","gender":"1","age":"9","school":"4"},{"start_time":1552055070725,"click_time":1552055072074,"finger_time":1552055071513,"fix_duration":569.7626278800099,"trial":32,"RT":788,"MT":561,"sideResp":2,"stimulus":"img/250/equaldotanddens/R/8_Ratio_250_L_1_R_4.png","xmouse":[792,792,792,792,792,792,792,792,792,792,792,792,792,792,792,792,792,792,792,792,792,792,792,792,792,792,792,792,792,792,792,792,792,792,794,796,798,803,818,830,842,855,871,904,921,938,951,969,1008,1031,1044,1056,1067,1088,1097,1103,1104,1104,1104,1104,1105,1105,1105,1105,1106,1107,1110,1116],"ymouse":[620,620,620,620,620,620,620,620,620,620,620,620,620,620,620,620,620,620,620,620,620,620,620,620,620,620,620,620,620,620,620,620,620,620,617,615,610,602,578,558,539,521,492,416,385,356,326,296,241,207,188,172,160,144,137,132,130,130,130,129,129,127,127,126,123,119,110,93],"timestamp_mouse":[26,38,47,68,87,109,128,149,169,187,207,228,247,269,288,307,327,347,369,387,408,429,448,468,487,507,529,549,568,587,609,628,648,667,688,707,727,749,767,788,807,829,848,868,887,907,928,948,967,988,1008,1028,1048,1067,1087,1108,1129,1149,1169,1187,1208,1228,1247,1269,1287,1308,1327,1349],"xSR":741.5,"ySR":573.95,"xT1":424.9,"yT1":0,"xT2":1058.1,"yT2":0,"toosoon":0,"cond_shown":"equaldotanddens","ratio_trial":250,"smaller_num":"1","larger_num":"4","correct_side":2,"subjID":"valentinaramirez7","gender":"1","age":"9","school":"4"},{"start_time":1552055073575,"click_time":1552055074773,"finger_time":1552055074353,"fix_duration":960.7397263162391,"trial":33,"RT":778,"MT":420,"sideResp":1,"stimulus":"img/900/equaldotsize/L/4_Ratio_900_L_20_R_18.png","xmouse":[809,809,809,809,809,809,809,809,809,809,809,809,809,809,809,809,809,809,809,809,809,809,809,809,809,809,809,809,809,809,809,809,808,803,790,758,754,745,740,736,713,693,666,631,601,552,534,527,516,506,482,474,471,470,470,470,470,470,472,474],"ymouse":[616,616,616,616,616,616,616,616,616,616,616,616,616,616,616,616,616,616,616,616,616,616,616,616,616,616,616,616,616,616,616,616,616,613,605,585,581,574,570,564,534,512,473,431,392,332,299,271,238,200,141,125,118,115,115,114,113,109,102,94],"timestamp_mouse":[19,37,57,78,99,119,138,158,179,197,218,239,259,279,297,318,339,358,379,398,419,437,459,479,498,517,538,558,579,599,617,637,658,677,699,718,737,757,778,798,817,838,858,877,897,918,938,958,979,998,1018,1037,1059,1078,1099,1118,1138,1158,1177,1198],"xSR":741.5,"ySR":573.95,"xT1":424.9,"yT1":0,"xT2":1058.1,"yT2":0,"toosoon":0,"cond_shown":"equaldotsize","ratio_trial":900,"smaller_num":"18","larger_num":"20","correct_side":1,"subjID":"valentinaramirez7","gender":"1","age":"9","school":"4"},{"start_time":1552055076731,"click_time":1552055079852,"finger_time":1552055077652,"fix_duration":457.90127822455474,"trial":34,"RT":921,"MT":2200,"sideResp":2,"stimulus":"img/900/equaldotsize/L/2_Ratio_900_L_20_R_18.png","xmouse":[778,778,778,778,778,778,778,778,778,778,778,778,778,778,778,778,778,778,778,778,778,778,778,778,778,778,778,778,778,778,778,776,775,775,775,775,775,775,775,775,775,775,775,775,775,775,776,779,784,788,792,795,797,799,799,799,799,800,803,808,813,819,827,839,844,849,854,858,866,870,877,883,889,900,905,911,917,921,929,932,934,935,937,939,939,940,941,942,942,942,941,937,928,903,889,874,854,836,810,802,802,800,800,800,800,800,800,799,799,798,792,786,781,771,765,756,746,733,716,712,709,709,709,707,707,706,706,706,716,728,750,767,778,790,794,795,795,800,826,843,856,863,868,876,880,885,891,900,917,928,941,957,977,1011,1028,1045,1064],"ymouse":[662,662,662,662,662,662,662,662,662,662,662,662,662,662,662,662,662,662,662,662,662,662,662,662,662,662,662,662,658,643,634,626,622,618,616,612,606,600,590,587,583,581,580,580,577,575,572,568,559,552,548,543,540,537,537,537,535,534,529,523,516,508,500,485,481,474,468,463,453,446,433,422,410,392,382,373,362,357,341,334,330,327,324,318,315,310,302,297,286,281,274,270,261,243,230,218,201,183,157,149,148,146,146,146,146,146,146,145,145,144,141,136,132,126,123,119,114,108,102,100,100,100,100,100,100,100,100,100,108,113,119,125,126,130,130,130,130,130,131,131,131,131,130,130,130,130,130,130,129,125,123,117,111,97,90,82,75],"timestamp_mouse":[13,21,42,61,81,101,121,142,161,181,202,221,241,262,282,301,321,342,361,381,400,421,442,462,481,502,522,542,561,582,600,622,641,661,681,700,721,742,760,781,801,821,842,860,881,901,921,940,960,980,1001,1021,1042,1062,1081,1102,1122,1142,1160,1182,1201,1221,1241,1260,1281,1301,1321,1342,1361,1381,1401,1421,1440,1461,1480,1502,1521,1541,1561,1580,1601,1620,1642,1660,1680,1702,1721,1740,1760,1782,1801,1821,1841,1860,1881,1901,1921,1941,1961,1981,2001,2022,2042,2062,2081,2102,2120,2142,2162,2181,2201,2221,2241,2261,2281,2302,2321,2341,2360,2380,2402,2422,2441,2462,2481,2500,2521,2541,2560,2582,2601,2621,2641,2661,2681,2702,2721,2742,2761,2780,2801,2822,2841,2861,2881,2901,2921,2941,2961,2980,3001,3022,3041,3061,3081,3102,3121],"xSR":741.5,"ySR":573.95,"xT1":424.9,"yT1":0,"xT2":1058.1,"yT2":0,"toosoon":0,"cond_shown":"equaldotsize","ratio_trial":900,"smaller_num":"18","larger_num":"20","correct_side":1,"subjID":"valentinaramirez7","gender":"1","age":"9","school":"4"},{"start_time":1552055084037,"click_time":1552055085251,"finger_time":1552055084772,"fix_duration":1383.3495264090677,"trial":35,"RT":735,"MT":479,"sideResp":1,"stimulus":"img/900/equaldotanddens/L/1_Ratio_900_L_10_R_9.png","xmouse":[768,768,768,768,768,768,768,768,768,768,768,768,768,768,768,768,768,768,768,768,768,768,768,768,768,768,768,768,768,768,768,768,768,769,769,769,764,742,715,691,676,668,664,660,647,631,615,586,576,571,568,565,559,554,554,546,541,536,535,531,524],"ymouse":[620,620,620,620,620,620,620,620,620,620,620,620,620,620,620,620,620,620,620,620,620,620,620,620,620,620,620,620,620,620,620,620,619,611,600,589,573,506,461,422,397,381,359,346,319,295,273,233,221,214,208,198,163,115,99,45,23,15,14,14,14],"timestamp_mouse":[16,39,55,75,96,116,136,156,174,195,216,235,254,276,295,315,335,356,376,396,415,434,456,475,495,515,536,555,574,595,615,636,655,675,694,716,735,755,775,795,815,836,855,876,895,915,935,955,975,995,1015,1035,1054,1076,1095,1115,1135,1156,1175,1195,1214],"xSR":741.5,"ySR":573.95,"xT1":424.9,"yT1":0,"xT2":1058.1,"yT2":0,"toosoon":0,"cond_shown":"equaldotanddens","ratio_trial":900,"smaller_num":"9","larger_num":"10","correct_side":1,"subjID":"valentinaramirez7","gender":"1","age":"9","school":"4"},{"start_time":1552055087792,"click_time":1552055088932,"finger_time":1552055088573,"fix_duration":1278.3084183249373,"trial":36,"RT":781,"MT":359,"sideResp":1,"stimulus":"img/250/equaldotanddens/L/1_Ratio_250_L_8_R_2.png","xmouse":[811,811,811,811,811,811,811,811,811,811,811,811,811,811,811,811,811,811,811,811,811,811,811,811,811,811,811,811,811,811,811,811,811,811,811,811,811,811,811,811,792,781,772,766,751,703,679,645,637,599,558,554,554,554,554,544,530,524],"ymouse":[595,595,595,595,595,595,595,595,595,595,595,595,595,595,595,595,595,595,595,595,595,595,595,595,595,595,595,595,595,595,595,595,595,595,595,595,595,595,586,561,490,452,424,378,318,173,112,37,17,0,0,0,0,0,0,2,7,10],"timestamp_mouse":[10,36,40,60,81,100,121,141,160,180,201,220,241,261,281,300,320,341,361,381,400,420,441,461,481,499,519,541,561,580,599,619,640,661,680,701,720,739,760,781,800,820,840,860,881,899,920,940,960,980,1001,1020,1040,1060,1080,1099,1121,1140],"xSR":741.5,"ySR":573.95,"xT1":424.9,"yT1":0,"xT2":1058.1,"yT2":0,"toosoon":0,"cond_shown":"equaldotanddens","ratio_trial":250,"smaller_num":"2","larger_num":"8","correct_side":1,"subjID":"valentinaramirez7","gender":"1","age":"9","school":"4"},{"start_time":1552055091256,"click_time":1552055093432,"finger_time":1552055092411,"fix_duration":1101.2587941803292,"trial":37,"RT":1155,"MT":1021,"sideResp":2,"stimulus":"img/900/equaldotsize/L/2_Ratio_900_L_20_R_18.png","xmouse":[775,775,775,775,775,775,775,775,775,775,775,775,775,775,775,775,775,775,775,775,775,775,775,775,775,775,775,775,775,775,775,775,775,775,775,775,775,775,775,775,775,774,773,771,771,771,771,771,771,771,771,771,771,771,771,771,772,774,776,778,781,786,789,796,799,802,808,808,809,809,810,814,819,824,830,837,844,846,847,847,847,850,856,858,865,872,889,897,910,921,933,959,975,996,1011,1027,1059,1076,1092,1102,1107,1109,1109,1109,1109,1112,1115,1117,1119],"ymouse":[637,637,637,637,637,637,637,637,637,637,637,637,637,637,637,637,637,637,637,637,637,637,637,637,637,637,637,637,637,637,637,637,637,637,637,637,632,628,624,619,616,603,596,588,587,586,586,586,586,586,586,585,585,584,582,581,575,570,563,555,548,531,523,510,502,495,483,481,479,479,477,470,461,453,442,430,420,416,416,414,414,412,408,406,399,391,372,362,349,338,327,305,292,274,263,248,214,195,175,162,152,149,149,148,145,136,118,109,99],"timestamp_mouse":[15,38,56,77,95,117,137,156,177,197,217,237,256,277,297,316,337,357,377,396,416,435,457,477,497,516,537,556,577,596,617,636,657,676,696,715,736,755,776,796,816,836,857,875,897,917,936,956,977,996,1017,1036,1057,1075,1096,1117,1136,1155,1177,1196,1217,1236,1256,1276,1296,1316,1336,1356,1377,1396,1416,1436,1455,1476,1496,1516,1536,1556,1577,1596,1616,1636,1655,1676,1697,1716,1736,1755,1777,1796,1817,1836,1856,1876,1897,1916,1935,1956,1977,1996,2016,2036,2056,2075,2096,2116,2136,2156,2176],"xSR":741.5,"ySR":573.95,"xT1":424.9,"yT1":0,"xT2":1058.1,"yT2":0,"toosoon":0,"cond_shown":"equaldotsize","ratio_trial":900,"smaller_num":"18","larger_num":"20","correct_side":1,"subjID":"valentinaramirez7","gender":"1","age":"9","school":"4"},{"start_time":1552055095140,"click_time":1552055096672,"finger_time":1552055095792,"fix_duration":464.5963636489525,"trial":38,"RT":652,"MT":880,"sideResp":1,"stimulus":"img/250/randomdotsizeEA/L/7_Ratio_250_L_8_R_2.png","xmouse":[797,797,797,797,797,797,797,797,797,797,797,797,797,797,797,797,797,797,797,797,797,797,797,797,797,797,797,797,797,797,797,797,809,815,819,819,819,814,814,814,814,814,814,814,813,808,793,743,705,688,680,675,670,665,660,653,644,633,630,626,624,620,612,607,602,598,591,587,580,573,562,553,538,532,529,526,523],"ymouse":[616,616,616,616,616,616,616,616,616,616,616,616,616,616,616,616,616,615,615,615,615,615,615,615,615,615,615,615,615,615,614,603,495,380,247,134,52,8,6,6,6,6,6,5,5,2,0,0,0,0,0,1,4,6,7,8,9,10,10,10,11,12,12,12,12,12,12,14,14,14,14,14,14,14,16,18,22],"timestamp_mouse":[13,35,52,73,92,112,132,152,172,193,212,232,253,273,292,313,333,352,373,392,412,433,453,473,492,513,532,552,571,593,613,632,652,671,692,712,733,752,772,792,812,833,852,872,892,912,932,953,973,992,1012,1032,1052,1072,1093,1113,1133,1152,1172,1192,1212,1233,1252,1272,1292,1312,1333,1352,1372,1392,1413,1432,1452,1471,1492,1512,1532],"xSR":741.5,"ySR":573.95,"xT1":424.9,"yT1":0,"xT2":1058.1,"yT2":0,"toosoon":0,"cond_shown":"randomdotsizeEA","ratio_trial":250,"smaller_num":"2","larger_num":"8","correct_side":1,"subjID":"valentinaramirez7","gender":"1","age":"9","school":"4"},{"start_time":1552055098954,"click_time":1552055099852,"finger_time":1552055099553,"fix_duration":959.3309175730726,"trial":39,"RT":599,"MT":299,"sideResp":1,"stimulus":"img/250/equaldotsize/L/15_Ratio_250_L_12_R_3.png","xmouse":[757,757,757,757,757,757,757,757,757,757,757,757,757,757,757,757,757,758,758,758,758,758,758,758,758,758,759,761,761,761,761,761,756,747,726,686,644,603,598,598,597,591,553,523,487,455],"ymouse":[583,583,583,583,583,583,583,583,583,583,583,583,583,583,583,583,583,583,583,583,583,583,583,583,583,583,583,580,578,575,571,564,530,504,448,388,333,288,283,282,278,267,211,172,131,94],"timestamp_mouse":[1,19,39,58,79,98,119,138,159,178,199,219,237,258,279,299,318,338,358,379,399,419,438,458,479,499,518,538,559,577,599,618,638,658,678,698,719,738,760,778,799,818,837,858,878,898],"xSR":741.5,"ySR":573.95,"xT1":424.9,"yT1":0,"xT2":1058.1,"yT2":0,"toosoon":0,"cond_shown":"equaldotsize","ratio_trial":250,"smaller_num":"3","larger_num":"12","correct_side":1,"subjID":"valentinaramirez7","gender":"1","age":"9","school":"4"},{"start_time":1552055102146,"click_time":1552055103972,"finger_time":1552055103292,"fix_duration":1292.7430609668784,"trial":40,"RT":1146,"MT":680,"sideResp":2,"stimulus":"img/900/equaldotsize/R/6_Ratio_900_L_9_R_10.png","xmouse":[797,797,797,797,797,797,797,797,797,797,797,797,797,797,797,797,797,797,797,793,790,786,783,783,783,783,783,783,783,783,783,783,783,783,783,783,783,783,783,783,783,783,783,783,783,783,783,783,783,783,783,783,783,783,784,787,799,895,920,958,972,979,984,985,986,987,988,996,1001,1011,1020,1028,1044,1056,1068,1078,1085,1093,1094,1094,1094,1094,1094,1094,1094,1094,1094,1094,1094,1094,1095,1097],"ymouse":[630,630,630,630,630,630,630,630,630,630,630,630,630,630,630,630,630,630,630,628,624,621,620,620,620,620,620,620,620,620,620,620,620,620,620,620,620,620,620,620,620,620,620,620,620,620,620,620,620,620,620,620,620,619,618,617,610,568,557,542,536,531,522,520,515,506,493,443,404,345,312,285,233,206,179,153,132,110,109,109,109,109,109,109,109,109,109,109,109,109,106,96],"timestamp_mouse":[12,26,46,66,86,106,126,147,166,186,207,227,247,266,287,306,327,346,366,385,406,426,447,467,486,506,527,547,567,586,607,627,646,666,687,706,727,746,767,787,807,827,846,867,886,907,927,947,966,987,1007,1027,1047,1066,1085,1106,1126,1146,1166,1185,1207,1226,1246,1265,1286,1306,1326,1346,1365,1386,1407,1426,1446,1466,1486,1506,1527,1545,1566,1586,1607,1627,1646,1666,1687,1707,1726,1747,1766,1785,1806,1826],"xSR":741.5,"ySR":573.95,"xT1":424.9,"yT1":0,"xT2":1058.1,"yT2":0,"toosoon":0,"cond_shown":"equaldotsize","ratio_trial":900,"smaller_num":"9","larger_num":"10","correct_side":2,"subjID":"valentinaramirez7","gender":"1","age":"9","school":"4"},{"start_time":1552055105354,"click_time":1552055106472,"finger_time":1552055106131,"fix_duration":299.77821665145296,"trial":41,"RT":777,"MT":341,"sideResp":1,"stimulus":"img/500/equaldotsize/L/4_Ratio_500_L_18_R_9.png","xmouse":[771,771,771,771,771,771,771,771,771,771,771,771,771,771,771,771,771,771,771,771,771,771,771,771,771,771,771,771,771,771,771,771,771,771,771,768,757,744,722,699,682,644,624,602,574,546,489,470,463,463,463,473,489,505,515,516],"ymouse":[658,658,658,658,658,658,658,658,658,658,658,658,658,658,658,658,658,658,658,658,658,658,658,658,658,658,658,658,658,658,658,658,658,658,658,647,623,602,567,534,511,466,446,429,410,393,359,350,346,346,340,294,234,165,102,60],"timestamp_mouse":[18,39,58,78,98,119,138,159,179,198,217,239,258,278,299,317,338,358,379,399,419,438,459,478,499,518,538,558,578,598,618,638,658,678,697,718,737,759,777,798,818,839,858,878,898,918,938,959,978,998,1018,1038,1058,1078,1098,1118],"xSR":741.5,"ySR":573.95,"xT1":424.9,"yT1":0,"xT2":1058.1,"yT2":0,"toosoon":0,"cond_shown":"equaldotsize","ratio_trial":500,"smaller_num":"9","larger_num":"18","correct_side":1,"subjID":"valentinaramirez7","gender":"1","age":"9","school":"4"},{"start_time":1552055109661,"click_time":1552055110872,"finger_time":1552055110252,"fix_duration":1287.0950466982124,"trial":42,"RT":591,"MT":620,"sideResp":1,"stimulus":"img/250/equaldotsize/L/2_Ratio_250_L_16_R_4.png","xmouse":[793,793,793,793,793,793,793,793,793,793,793,793,793,793,793,793,793,793,793,793,793,793,793,793,793,793,792,786,762,728,667,529,479,453,449,449,449,446,443,436,426,408,401,396,396,395,395,394,394,394,394,394,394,394,394,397,404,408,414,422,433],"ymouse":[620,620,620,620,620,620,620,620,620,620,620,620,620,620,620,620,620,620,620,620,620,620,620,620,620,620,620,612,580,524,461,350,314,292,288,287,279,266,252,237,218,187,173,164,161,159,157,154,150,148,147,147,146,146,141,135,119,111,98,83,64],"timestamp_mouse":[13,35,52,72,92,111,131,151,172,192,212,232,251,271,292,311,332,351,371,391,411,431,452,472,492,511,532,550,571,591,611,631,651,671,692,710,731,751,771,791,812,831,852,872,891,912,931,951,971,991,1011,1031,1050,1071,1092,1111,1130,1151,1171,1191,1211],"xSR":741.5,"ySR":573.95,"xT1":424.9,"yT1":0,"xT2":1058.1,"yT2":0,"toosoon":0,"cond_shown":"equaldotsize","ratio_trial":250,"smaller_num":"4","larger_num":"16","correct_side":1,"subjID":"valentinaramirez7","gender":"1","age":"9","school":"4"},{"start_time":1552055114392,"click_time":1552055116052,"finger_time":1552055115452,"fix_duration":337.7701029327059,"trial":43,"RT":1060,"MT":600,"sideResp":1,"stimulus":"img/900/randomdotsizeEA/L/2_Ratio_900_L_20_R_18.png","xmouse":[809,809,809,809,809,809,809,809,809,809,809,809,809,809,809,809,809,809,809,809,809,809,809,809,809,809,809,809,809,809,809,809,809,809,809,809,809,809,809,809,809,809,809,809,809,809,809,809,809,804,795,783,756,719,645,624,608,604,603,599,593,586,578,571,566,564,562,562,562,562,562,562,562,562,560,559,558,554,550,532,518,500,485],"ymouse":[617,617,617,617,617,617,617,617,617,617,617,617,617,617,617,617,617,617,617,617,617,617,617,617,617,617,617,617,617,617,617,617,617,617,617,617,617,617,617,617,617,617,617,617,617,617,617,617,617,610,594,577,535,485,392,368,347,342,338,328,317,298,271,245,200,187,181,180,180,180,180,179,179,178,175,174,172,168,163,146,128,108,92],"timestamp_mouse":[20,47,60,80,100,120,140,160,180,199,220,240,260,281,300,320,341,361,381,401,421,439,461,480,499,519,541,561,580,601,621,641,661,681,701,721,740,761,779,800,820,841,861,880,899,921,940,961,981,1000,1020,1040,1060,1080,1100,1120,1140,1160,1181,1200,1220,1240,1261,1280,1299,1321,1340,1360,1380,1400,1420,1440,1459,1481,1500,1520,1539,1561,1580,1600,1620,1640,1660],"xSR":741.5,"ySR":573.95,"xT1":424.9,"yT1":0,"xT2":1058.1,"yT2":0,"toosoon":0,"cond_shown":"randomdotsizeEA","ratio_trial":900,"smaller_num":"18","larger_num":"20","correct_side":1,"subjID":"valentinaramirez7","gender":"1","age":"9","school":"4"},{"start_time":1552055117365,"click_time":1552055118993,"finger_time":1552055118452,"fix_duration":250,"trial":44,"RT":1087,"MT":541,"sideResp":2,"stimulus":"img/900/equaldotanddens/L/1_Ratio_900_L_10_R_9.png","xmouse":[777,777,777,778,778,778,778,778,778,778,778,778,778,778,778,778,778,779,779,779,779,779,779,779,779,779,779,779,779,779,779,779,779,779,779,779,779,779,779,779,780,781,783,787,788,791,793,793,797,798,802,813,824,835,850,870,913,960,976,1023,1044,1079,1091,1099,1107,1115,1116,1117,1119,1122,1123,1124,1124,1124,1124,1124,1124,1126,1127,1129,1130,1130],"ymouse":[637,638,638,638,638,638,638,638,638,638,638,638,638,638,638,638,638,639,639,639,639,639,639,639,639,639,639,639,639,639,639,639,639,639,639,639,639,639,639,639,639,639,639,638,637,636,635,634,632,630,626,616,605,594,579,561,518,470,453,411,394,357,343,329,315,296,288,280,269,258,247,224,212,202,196,189,179,171,158,141,125,85],"timestamp_mouse":[12,39,47,68,88,107,128,147,167,187,207,228,247,267,288,307,326,347,368,388,407,428,447,468,488,507,527,547,568,587,608,626,647,667,687,708,727,748,767,787,808,827,846,867,887,907,927,946,967,988,1007,1027,1047,1067,1087,1107,1127,1148,1167,1188,1207,1227,1247,1267,1287,1308,1328,1348,1367,1388,1407,1428,1447,1467,1487,1508,1527,1547,1567,1587,1607,1628],"xSR":741.5,"ySR":573.95,"xT1":424.9,"yT1":0,"xT2":1058.1,"yT2":0,"toosoon":0,"cond_shown":"equaldotanddens","ratio_trial":900,"smaller_num":"9","larger_num":"10","correct_side":1,"subjID":"valentinaramirez7","gender":"1","age":"9","school":"4"},{"start_time":1552055121905,"click_time":1552055123812,"finger_time":1552055122553,"fix_duration":892.5838612309991,"trial":45,"RT":648,"MT":1259,"sideResp":1,"stimulus":"img/900/equaldotsize/R/11_Ratio_900_L_18_R_20.png","xmouse":[778,778,778,778,778,778,778,778,778,778,778,778,778,778,778,778,778,778,778,779,779,779,779,780,780,780,780,780,780,780,780,779,773,766,739,713,688,672,665,663,662,662,661,661,661,661,660,658,640,625,610,591,580,573,570,570,569,566,555,540,539,539,539,539,536,534,533,533,533,533,532,532,530,529,528,528,528,528,528,528,528,528,528,528,528,528,528,528,528,528,528,528,528,528,525,524],"ymouse":[637,637,637,637,637,637,637,637,637,637,637,637,637,637,637,637,637,637,637,632,630,629,628,626,622,620,618,617,615,610,603,589,562,523,367,288,231,204,192,185,183,183,183,183,183,182,181,178,158,137,114,83,64,51,46,46,46,45,43,39,39,39,39,39,39,39,39,39,39,39,39,39,39,40,40,40,40,40,40,40,40,40,40,40,40,40,40,40,40,40,40,40,40,40,43,45],"timestamp_mouse":[20,37,47,67,86,107,127,148,168,187,207,227,247,266,286,307,327,348,368,386,407,426,447,467,488,506,528,548,568,587,608,627,647,667,687,706,727,747,768,788,807,827,848,867,888,908,928,947,968,986,1008,1027,1047,1067,1087,1107,1128,1147,1167,1186,1207,1227,1247,1268,1287,1307,1328,1347,1368,1387,1406,1427,1447,1466,1487,1507,1527,1547,1567,1588,1607,1628,1648,1667,1687,1707,1727,1748,1768,1787,1807,1828,1846,1868,1887,1907],"xSR":741.5,"ySR":573.95,"xT1":424.9,"yT1":0,"xT2":1058.1,"yT2":0,"toosoon":0,"cond_shown":"equaldotsize","ratio_trial":900,"smaller_num":"18","larger_num":"20","correct_side":2,"subjID":"valentinaramirez7","gender":"1","age":"9","school":"4"},{"start_time":1552055125545,"click_time":1552055127312,"finger_time":1552055126432,"fix_duration":250,"trial":46,"RT":887,"MT":880,"sideResp":1,"stimulus":"img/750/equaldotsize/L/13_Ratio_750_L_8_R_6.png","xmouse":[797,797,797,797,797,797,797,797,797,797,797,797,797,797,797,797,797,797,797,797,797,797,797,797,797,797,797,797,797,797,797,797,797,797,797,797,797,797,797,797,797,797,797,801,806,815,851,879,898,911,917,918,918,918,918,918,918,907,900,891,877,843,774,741,720,701,688,678,678,678,678,678,671,657,646,636,628,624,623,620,619,615,613,612,608,600,586,546,522],"ymouse":[586,586,586,586,586,586,586,586,586,586,586,586,586,586,586,586,586,586,586,586,586,586,586,586,586,586,586,586,586,586,586,586,586,586,586,586,586,586,586,586,586,586,586,577,572,562,530,502,482,465,448,442,433,431,431,430,429,412,395,377,351,297,210,172,148,129,116,108,108,108,108,108,107,105,104,102,99,99,99,98,98,97,97,97,97,95,92,80,74],"timestamp_mouse":[12,27,48,67,87,108,128,148,168,188,206,228,248,266,288,307,327,348,368,388,406,428,448,468,487,508,528,548,567,588,608,628,648,667,688,707,728,748,767,788,808,828,848,867,886,907,928,946,968,987,1007,1026,1048,1068,1088,1107,1127,1147,1168,1186,1207,1227,1248,1267,1287,1307,1328,1347,1367,1387,1407,1427,1448,1467,1487,1507,1528,1547,1567,1586,1607,1627,1648,1668,1688,1707,1727,1747,1767],"xSR":741.5,"ySR":573.95,"xT1":424.9,"yT1":0,"xT2":1058.1,"yT2":0,"toosoon":0,"cond_shown":"equaldotsize","ratio_trial":750,"smaller_num":"6","larger_num":"8","correct_side":1,"subjID":"valentinaramirez7","gender":"1","age":"9","school":"4"},{"start_time":1552055129949,"click_time":1552055131353,"finger_time":1552055130652,"fix_duration":1336.7942842660682,"trial":47,"RT":703,"MT":701,"sideResp":2,"stimulus":"img/250/equaldotanddens/R/4_Ratio_250_L_3_R_12.png","xmouse":[812,812,812,812,812,812,812,812,812,812,812,812,812,812,812,812,812,812,812,812,812,812,812,812,812,812,812,812,812,812,812,812,811,822,835,848,863,893,903,915,919,923,936,943,947,952,974,990,1003,1015,1029,1038,1056,1065,1078,1092,1106,1130,1133,1133,1133,1133,1133,1133,1133,1133,1133,1134,1135,1139,1146],"ymouse":[653,653,653,653,653,653,653,653,653,653,653,653,653,653,653,653,653,653,653,653,653,653,653,653,653,653,653,653,653,653,653,653,643,626,606,584,560,492,471,445,434,425,406,398,393,386,352,329,310,295,277,264,241,231,216,199,180,143,137,137,137,137,137,137,137,137,137,136,130,111,86],"timestamp_mouse":[21,22,43,63,84,103,123,143,164,183,203,223,243,264,284,303,323,342,363,383,403,424,443,463,484,504,523,543,562,584,604,624,643,663,683,703,723,743,763,783,803,823,843,863,882,903,924,942,963,983,1003,1023,1044,1063,1083,1103,1123,1143,1163,1184,1203,1223,1243,1263,1283,1303,1323,1342,1363,1383,1404],"xSR":741.5,"ySR":573.95,"xT1":424.9,"yT1":0,"xT2":1058.1,"yT2":0,"toosoon":0,"cond_shown":"equaldotanddens","ratio_trial":250,"smaller_num":"3","larger_num":"12","correct_side":2,"subjID":"valentinaramirez7","gender":"1","age":"9","school":"4"},{"start_time":1552055134314,"click_time":1552055136172,"finger_time":1552055135092,"fix_duration":438.9650849262664,"trial":48,"RT":778,"MT":1080,"sideResp":2,"stimulus":"img/250/randomdotsizeEA/R/10_Ratio_250_L_4_R_16.png","xmouse":[767,767,767,767,767,767,767,767,767,767,767,767,767,767,767,767,767,767,767,767,767,767,767,767,767,767,767,767,767,767,767,767,767,767,767,767,769,771,777,794,805,814,826,836,866,877,890,906,925,955,970,981,991,993,995,996,998,1001,1012,1019,1023,1027,1029,1030,1031,1031,1032,1032,1035,1038,1041,1045,1048,1054,1061,1064,1067,1069,1069,1071,1072,1075,1077,1079,1079,1079,1079,1080,1080,1082,1082,1083,1084,1085],"ymouse":[588,588,588,588,588,588,588,588,588,588,588,588,588,588,588,588,588,588,588,588,588,588,588,588,588,588,588,588,588,588,588,588,588,588,588,588,588,584,575,548,529,514,496,480,442,431,420,409,397,378,368,359,351,348,342,335,324,307,263,241,226,213,204,203,201,200,198,197,192,186,181,174,168,158,142,135,130,127,126,123,122,118,113,108,107,107,107,106,106,103,102,101,100,98],"timestamp_mouse":[1,19,40,58,77,98,119,138,157,179,199,218,239,259,279,299,318,338,358,379,398,419,439,459,479,498,517,538,559,579,598,619,638,658,679,698,718,738,759,778,798,818,837,857,879,898,918,938,958,977,998,1018,1038,1058,1078,1098,1119,1138,1159,1177,1198,1218,1239,1258,1279,1298,1319,1338,1359,1378,1398,1418,1438,1458,1478,1499,1519,1539,1558,1578,1598,1618,1639,1659,1678,1698,1718,1737,1758,1778,1798,1818,1838,1858],"xSR":741.5,"ySR":573.95,"xT1":424.9,"yT1":0,"xT2":1058.1,"yT2":0,"toosoon":0,"cond_shown":"randomdotsizeEA","ratio_trial":250,"smaller_num":"4","larger_num":"16","correct_side":2,"subjID":"valentinaramirez7","gender":"1","age":"9","school":"4"},{"start_time":1552055138745,"click_time":1552055139932,"finger_time":1552055139573,"fix_duration":250,"trial":49,"RT":828,"MT":359,"sideResp":2,"stimulus":"img/500/randomdotsizeEA/R/12_Ratio_500_L_1_R_2.png","xmouse":[804,804,804,804,804,804,804,804,804,804,804,804,804,804,804,804,804,804,804,804,804,804,804,804,804,804,804,804,804,804,804,804,804,804,804,804,804,804,805,809,814,834,847,868,890,922,977,1006,1029,1045,1064,1069,1075,1075,1076,1077,1084,1090,1097,1105],"ymouse":[606,606,606,606,606,606,606,606,606,606,606,606,606,606,606,606,606,606,606,606,606,606,606,606,606,606,606,606,606,606,606,606,606,606,606,605,605,604,602,594,581,534,509,472,435,379,288,246,213,191,161,150,141,140,139,137,128,121,110,99],"timestamp_mouse":[13,27,47,66,86,108,127,147,167,187,208,226,247,266,287,308,326,347,366,387,408,428,447,467,486,508,528,548,568,586,607,627,646,667,688,707,726,747,767,787,808,828,846,866,886,906,928,947,967,987,1007,1026,1047,1067,1088,1107,1128,1147,1167,1187],"xSR":741.5,"ySR":573.95,"xT1":424.9,"yT1":0,"xT2":1058.1,"yT2":0,"toosoon":0,"cond_shown":"randomdotsizeEA","ratio_trial":500,"smaller_num":"1","larger_num":"2","correct_side":2,"subjID":"valentinaramirez7","gender":"1","age":"9","school":"4"},{"start_time":1552055141391,"click_time":1552055142492,"finger_time":1552055142172,"fix_duration":597.6822108123386,"trial":50,"RT":781,"MT":320,"sideResp":2,"stimulus":"img/250/equaldotanddens/R/8_Ratio_250_L_1_R_4.png","xmouse":[788,788,788,788,788,788,788,788,788,788,788,788,788,788,788,788,788,788,788,788,788,788,788,788,788,788,788,788,788,788,788,788,788,788,788,788,788,794,800,830,840,850,862,880,928,947,959,976,993,1017,1050,1076,1099,1118,1140,1145],"ymouse":[632,632,632,632,632,632,632,632,632,632,632,632,632,632,632,632,632,632,632,632,632,632,632,632,632,632,632,632,632,632,632,632,632,632,632,632,632,621,611,563,547,530,512,484,418,390,370,342,310,272,224,188,155,133,100,90],"timestamp_mouse":[11,27,41,62,81,102,122,141,161,181,201,221,241,261,282,300,322,340,360,381,402,421,441,460,481,501,521,540,561,582,601,620,641,661,681,702,721,740,761,781,800,821,842,861,882,900,920,940,962,981,1001,1021,1041,1061,1082,1101],"xSR":741.5,"ySR":573.95,"xT1":424.9,"yT1":0,"xT2":1058.1,"yT2":0,"toosoon":0,"cond_shown":"equaldotanddens","ratio_trial":250,"smaller_num":"1","larger_num":"4","correct_side":2,"subjID":"valentinaramirez7","gender":"1","age":"9","school":"4"},{"start_time":1552055143786,"click_time":1552055148772,"finger_time":1552055144672,"fix_duration":251.0487391281181,"trial":51,"RT":886,"MT":4100,"sideResp":2,"stimulus":"img/750/equaldotanddens/R/11_Ratio_750_L_12_R_16.png","xmouse":[820,820,820,820,820,820,820,820,820,820,820,820,820,820,820,820,820,820,820,820,820,820,820,820,820,820,820,820,820,820,820,820,820,820,820,820,820,820,820,820,821,826,832,840,854,857,860,863,870,876,901,913,926,938,962,974,976,982,988,990,990,990,990,990,991,991,993,996,998,1002,1012,1018,1023,1028,1034,1034,1035,1035,1035,1035,1035,1035,1035,1035,1035,1035,1035,1035,1035,1035,1035,1036,1037,1037,1039,1041,1042,1042,1042,1044,1044,1045,1046,1046,1047,1049,1051,1051,1051,1051,1051,1051,1051,1051,1051,1051,1051,1051,1051,1051,1051,1051,1051,1051,1051,1051,1051,1051,1044,1032,1000,988,984,980,979,979,979,979,977,954,903,880,861,845,834,824,822,821,818,813,795,787,778,768,761,750,744,736,735,731,726,722,717,712,706,705,705,704,701,699,687,682,678,674,670,663,660,653,648,643,642,642,642,642,641,636,630,625,621,620,619,619,619,619,619,619,619,619,619,619,626,631,638,648,693,717,732,743,754,772,821,849,869,882,893,895,896,896,896,896,896,897,905,913,919,923,925,925,925,931,957,976,988,994,999,1000,1002,1003,1006,1011,1022,1028,1031,1035,1037,1037,1037,1038,1042,1065],"ymouse":[611,611,611,611,611,611,611,611,611,611,611,611,611,611,611,611,611,611,611,611,611,611,611,611,611,611,611,611,611,611,611,611,611,611,611,611,611,611,611,611,611,605,597,584,565,560,557,553,546,539,510,495,480,467,435,417,412,399,385,382,382,381,381,381,379,378,374,364,361,349,318,296,276,258,227,222,220,220,220,220,220,220,220,220,220,220,220,220,220,220,218,214,212,209,203,194,190,185,183,177,171,165,162,158,150,143,137,136,135,135,135,135,135,135,135,135,135,135,135,135,135,135,135,135,135,134,134,133,131,127,118,115,115,115,115,115,115,115,115,109,95,88,85,83,81,80,80,80,80,80,80,80,80,80,80,80,81,82,82,82,82,82,82,82,82,82,82,82,82,82,82,82,82,82,82,82,82,84,85,85,85,85,85,85,86,86,86,86,86,86,86,86,86,86,86,86,86,86,86,86,86,88,89,91,94,96,97,97,97,97,97,97,97,97,97,97,97,97,97,97,97,97,94,93,91,90,90,90,90,88,84,84,84,82,82,82,81,81,80,78,75,72,72,70,70,70,70,70,69,68],"timestamp_mouse":[14,36,46,67,86,106,126,147,167,186,206,226,247,266,285,306,326,347,365,385,406,425,446,465,486,506,525,546,566,585,605,625,646,666,686,707,725,745,765,785,806,825,845,866,886,905,926,946,966,986,1006,1025,1046,1066,1087,1106,1126,1146,1167,1186,1205,1226,1247,1267,1286,1305,1326,1345,1366,1386,1406,1425,1447,1466,1487,1506,1526,1547,1566,1585,1606,1627,1646,1666,1686,1706,1727,1747,1765,1785,1805,1826,1845,1866,1885,1905,1926,1946,1967,1985,2005,2025,2046,2066,2086,2105,2126,2145,2167,2186,2207,2225,2246,2266,2285,2306,2325,2346,2365,2386,2407,2427,2446,2467,2486,2506,2527,2545,2565,2585,2606,2626,2646,2666,2686,2706,2725,2746,2767,2786,2806,2826,2846,2866,2885,2905,2926,2946,2965,2986,3006,3025,3047,3066,3086,3105,3125,3145,3166,3186,3206,3226,3246,3266,3286,3305,3326,3346,3365,3385,3405,3425,3446,3465,3486,3506,3526,3546,3566,3586,3606,3626,3646,3665,3686,3706,3727,3746,3767,3785,3806,3826,3846,3865,3886,3907,3927,3947,3967,3985,4005,4026,4046,4066,4086,4105,4125,4145,4165,4186,4207,4226,4246,4266,4286,4305,4327,4346,4365,4386,4405,4425,4446,4465,4485,4505,4526,4545,4565,4585,4605,4626,4646,4666,4686,4705,4725,4745,4767,4786,4807,4825,4846,4865,4886,4906,4925,4945,4965,4985],"xSR":741.5,"ySR":573.95,"xT1":424.9,"yT1":0,"xT2":1058.1,"yT2":0,"toosoon":0,"cond_shown":"equaldotanddens","ratio_trial":750,"smaller_num":"12","larger_num":"16","correct_side":2,"subjID":"valentinaramirez7","gender":"1","age":"9","school":"4"},{"start_time":1552055151201,"click_time":1552055152532,"finger_time":1552055151992,"fix_duration":1206.810326211229,"trial":52,"RT":791,"MT":540,"sideResp":1,"stimulus":"img/750/equaldotanddens/L/10_Ratio_750_L_4_R_3.png","xmouse":[767,767,767,767,767,767,767,767,767,767,767,767,767,767,767,767,767,767,767,767,767,767,767,767,767,767,767,767,767,767,767,767,767,767,767,767,769,771,772,769,762,752,743,726,722,719,719,716,706,682,665,639,620,605,604,600,596,587,582,581,581,581,581,566,553,534,519],"ymouse":[628,628,628,628,628,628,628,628,628,628,628,628,628,628,628,628,628,629,629,629,629,629,629,629,629,629,629,629,629,629,629,629,629,629,629,629,626,619,583,561,541,516,494,456,443,433,427,418,400,366,343,307,279,232,213,189,169,152,145,143,143,143,142,123,110,98,90],"timestamp_mouse":[13,43,52,71,90,112,130,152,171,191,210,231,251,270,291,310,331,352,371,390,410,431,451,472,492,511,531,550,571,591,611,631,651,670,690,710,731,752,771,791,810,832,851,871,890,912,930,951,970,990,1011,1031,1051,1071,1090,1111,1131,1151,1170,1191,1211,1231,1251,1271,1290,1312,1331],"xSR":741.5,"ySR":573.95,"xT1":424.9,"yT1":0,"xT2":1058.1,"yT2":0,"toosoon":0,"cond_shown":"equaldotanddens","ratio_trial":750,"smaller_num":"3","larger_num":"4","correct_side":1,"subjID":"valentinaramirez7","gender":"1","age":"9","school":"4"},{"start_time":1552055154044,"click_time":1552055155572,"finger_time":1552055154751,"fix_duration":250,"trial":53,"RT":707,"MT":821,"sideResp":1,"stimulus":"img/250/equaldotanddens/L/3_Ratio_250_L_8_R_2.png","xmouse":[763,763,763,76