[{"start_time":1552054116800,"click_time":1552054119237,"finger_time":1552054116811,"fix_duration":1378.4116634096063,"trial":0,"RT":11,"MT":2426,"sideResp":2,"stimulus":[],"xmouse":[781,781,781,781,781,781,781,781,781,781,780,780,780,780,780,780,780,780,780,780,780,780,780,780,780,780,780,780,780,780,780,780,780,780,780,780,780,780,780,780,780,780,780,780,780,780,780,780,780,780,780,780,780,780,780,780,780,780,780,780,780,780,780,780,780,780,780,780,780,780,780,780,780,780,780,780,780,780,780,780,780,780,780,780,780,780,780,780,780,780,780,780,780,780,780,780,780,779,785,790,794,798,809,812,814,818,821,835,852,865,880,891,915,924,931,942,955,987,1010,1021,1031,1040,1068],"ymouse":[554,554,554,554,554,554,554,554,554,554,554,554,554,554,554,554,554,554,554,554,554,554,554,554,554,554,554,554,554,554,554,554,554,554,554,554,554,554,554,554,554,554,554,554,554,554,554,554,554,554,554,554,554,554,554,554,554,554,554,554,554,554,554,554,554,554,554,554,554,554,554,554,554,554,554,554,554,554,554,554,554,554,554,554,554,554,554,554,554,554,554,554,554,554,554,554,554,547,531,520,510,500,470,456,446,437,430,422,419,413,406,396,361,342,319,299,278,236,191,164,141,122,95],"timestamp_mouse":[11,24,36,56,76,96,117,136,157,176,197,216,237,257,277,297,317,336,356,375,396,417,437,456,477,497,517,537,557,577,596,616,636,657,677,697,717,736,757,777,797,816,837,857,877,896,916,936,956,977,996,1016,1037,1057,1077,1097,1116,1136,1156,1177,1197,1216,1237,1257,1277,1296,1317,1336,1356,1376,1395,1417,1436,1456,1476,1496,1517,1537,1557,1577,1597,1617,1636,1656,1677,1697,1717,1737,1757,1777,1796,1817,1837,1857,1876,1896,1916,1937,1956,1976,1996,2017,2036,2056,2077,2096,2117,2136,2158,2176,2197,2216,2236,2257,2277,2296,2317,2336,2356,2376,2397,2417,2436],"xSR":741.5,"ySR":501.8,"xT1":424.9,"yT1":0,"xT2":1058.1,"yT2":0,"toosoon":0,"cond_shown":"Incongruent","ratio_trial":300,"L_num":4,"L_den":20,"R_num":2,"R_den":4,"correct_side":2,"subjID":"valentinaramirez7","gender":"1","age":"9","school":"4","test":{"fix_dur":[250,1500],"timestim":1000,"targets_dim":[100,100],"targets_relative_coord":[0.3,0.7],"size_stim":[880,420],"start_dim":[100,100],"size_start":[300,300],"size_fix":60,"samplingrate":20,"img_types":["Congruent","Incongruent"],"ratios":[100,200,300],"rep_conds":19,"nTrials":120,"trials_to_rest":500,"Trials_order":[17,70,87,75,61,98,84,52,38,15,20,26,119,77,104,40,94,90,28,34,13,88,118,44,91,42,73,0,106,51,48,24,46,12,29,31,80,9,93,55,56,19,95,72,32,96,68,59,2,105,82,69,3,110,6,65,43,10,79,23,63,57,37,49,76,14,71,35,97,62,114,78,39,113,27,30,18,54,81,101,45,102,41,33,109,16,64,111,112,67,50,117,100,103,36,1,107,5,47,25,74,99,108,58,85,86,11,4,115,53,21,83,60,89,116,22,92,8,66,7],"cond_shown":["Incongruent","Congruent","Incongruent","Incongruent","Incongruent","Congruent","Congruent","Congruent","Congruent","Incongruent","Congruent","Congruent","Incongruent","Incongruent","Congruent","Congruent","Congruent","Congruent","Congruent","Congruent","Incongruent","Congruent","Congruent","Congruent","Incongruent","Congruent","Incongruent","Congruent","Congruent","Incongruent","Congruent","Congruent","Congruent","Congruent","Incongruent","Incongruent","Congruent","Incongruent","Incongruent","Incongruent","Congruent","Incongruent","Incongruent","Congruent","Congruent","Congruent","Congruent","Incongruent","Congruent","Incongruent","Congruent","Incongruent","Incongruent","Congruent","Congruent","Incongruent","Incongruent","Congruent","Incongruent","Incongruent","Incongruent","Incongruent","Incongruent","Incongruent","Congruent","Congruent","Incongruent","Incongruent","Incongruent","Congruent","Congruent","Congruent","Incongruent","Incongruent","Incongruent","Congruent","Congruent","Congruent","Incongruent","Incongruent","Incongruent","Congruent","Incongruent","Incongruent","Incongruent","Congruent","Congruent","Incongruent","Congruent","Incongruent","Congruent","Incongruent","Congruent","Incongruent","Congruent","Incongruent","Incongruent","Incongruent","Incongruent","Incongruent","Congruent","Incongruent","Congruent","Congruent","Incongruent","Congruent","Incongruent","Congruent","Incongruent","Incongruent","Incongruent","Incongruent","Congruent","Incongruent","Congruent","Congruent","Congruent","Congruent","Congruent","Incongruent"],"ratio_trial":[300,300,200,200,100,200,100,300,200,200,200,200,300,300,200,300,300,100,300,300,100,300,300,200,100,100,100,100,300,200,100,100,300,100,300,100,200,200,200,100,200,100,300,100,200,100,200,300,200,200,300,200,200,200,100,300,100,300,100,300,200,200,100,100,300,200,300,300,100,200,100,100,200,300,200,100,100,100,200,300,200,100,300,200,100,300,300,200,300,100,200,200,300,100,100,100,300,300,300,100,200,200,100,300,100,200,300,300,100,300,200,300,100,300,200,300,200,200,100,100],"left_num":[4,5,4,4,6,20,3,8,8,6,9,21,13,4,4,12,24,7,3,3,8,20,20,3,3,7,10,11,2,4,3,6,5,3,1,11,13,11,4,2,7,9,8,3,3,4,12,4,6,14,1,7,7,16,8,13,3,8,4,8,1,7,8,4,3,7,13,13,2,5,7,1,7,2,4,1,3,4,7,13,7,3,13,4,10,1,20,7,20,2,12,1,3,17,11,6,2,4,1,6,6,11,3,20,9,6,4,9,2,13,4,8,12,4,14,4,8,3,8,8],"right_num":[2,6,1,6,13,9,2,10,3,3,4,2,12,2,3,2,8,9,4,2,1,5,14,14,8,15,9,4,12,14,2,5,7,4,2,9,14,3,14,8,2,14,14,4,11,6,6,6,3,12,8,12,6,12,2,12,7,1,8,9,2,14,1,8,2,2,12,12,8,14,15,18,14,6,6,3,2,15,4,12,12,4,12,14,9,6,9,14,5,8,6,3,4,10,6,3,6,2,2,3,11,3,4,8,14,11,2,3,8,12,6,9,13,2,6,2,2,14,2,1],"left_den":[20,25,30,5,10,25,6,15,15,20,20,30,26,20,10,24,30,14,6,6,20,25,25,10,5,14,25,22,10,6,6,20,25,20,2,22,26,20,6,4,21,15,10,20,10,8,20,5,15,30,30,10,15,20,16,26,9,16,8,10,3,10,20,8,6,21,26,26,4,10,14,2,10,4,5,2,6,10,15,26,10,20,26,6,25,5,25,10,25,4,15,2,6,30,22,12,4,20,2,12,20,20,20,25,15,20,20,10,4,26,5,10,30,20,28,5,15,10,16,20],"right_den":[4,12,3,10,26,15,5,12,9,6,16,4,15,4,15,10,16,15,5,10,2,10,28,28,16,25,18,10,24,30,5,25,14,16,10,15,20,4,30,20,15,28,28,16,22,10,15,12,15,18,24,24,9,20,5,15,30,5,20,18,15,28,2,20,10,15,15,15,20,20,25,30,28,30,10,5,5,30,6,15,24,16,15,30,18,12,18,28,10,20,10,10,5,15,15,5,30,4,10,5,22,4,16,16,28,22,4,5,20,15,10,18,26,4,20,4,6,28,5,2],"correct_side":[2,2,2,1,1,1,1,2,1,2,1,1,2,2,1,1,1,2,2,1,2,1,1,2,1,2,2,1,2,1,1,1,2,2,1,2,2,2,1,1,1,1,1,2,2,2,1,1,1,2,2,1,2,1,1,2,1,1,1,1,1,1,2,1,1,1,2,2,1,2,2,2,1,1,1,2,1,2,2,2,1,2,2,1,2,2,1,1,1,1,1,1,2,2,1,2,1,2,1,2,2,2,2,1,1,2,2,1,1,2,1,1,2,2,1,1,1,2,1,2],"img_shown":["img2/300/Incongruent/R/I_Dist_300_LN_4_LD_20_RN_2_RD_4_1.png","img2/300/Congruent/R/C_Dist_300_LN_5_LD_25_RN_6_RD_12_1.png","img2/200/Incongruent/R/I_Dist_200_LN_4_LD_30_RN_1_RD_3_1.png","img2/200/Incongruent/L/I_Dist_200_LN_4_LD_5_RN_6_RD_10_0.png","img2/100/Incongruent/L/I_Dist_100_LN_6_LD_10_RN_13_RD_26_0.png","img2/200/Congruent/L/C_Dist_200_LN_20_LD_25_RN_9_RD_15_0.png","img2/100/Congruent/L/C_Dist_100_LN_3_LD_6_RN_2_RD_5_0.png","img2/300/Congruent/R/C_Dist_300_LN_8_LD_15_RN_10_RD_12_1.png","img2/200/Congruent/L/C_Dist_200_LN_8_LD_15_RN_3_RD_9_0.png","img2/200/Incongruent/R/I_Dist_200_LN_6_LD_20_RN_3_RD_6_1.png","img2/200/Congruent/L/C_Dist_200_LN_9_LD_20_RN_4_RD_16_0.png","img2/200/Congruent/L/C_Dist_200_LN_21_LD_30_RN_2_RD_4_0.png","img2/300/Incongruent/R/I_Dist_300_LN_13_LD_26_RN_12_RD_15_1.png","img2/300/Incongruent/R/I_Dist_300_LN_4_LD_20_RN_2_RD_4_1.png","img2/200/Congruent/L/C_Dist_200_LN_4_LD_10_RN_3_RD_15_0.png","img2/300/Congruent/L/C_Dist_300_LN_12_LD_24_RN_2_RD_10_0.png","img2/300/Congruent/L/C_Dist_300_LN_24_LD_30_RN_8_RD_16_0.png","img2/100/Congruent/R/C_Dist_100_LN_7_LD_14_RN_9_RD_15_1.png","img2/300/Congruent/R/C_Dist_300_LN_3_LD_6_RN_4_RD_5_1.png","img2/300/Congruent/L/C_Dist_300_LN_3_LD_6_RN_2_RD_10_0.png","img2/100/Incongruent/R/I_Dist_100_LN_8_LD_20_RN_1_RD_2_1.png","img2/300/Congruent/L/C_Dist_300_LN_20_LD_25_RN_5_RD_10_0.png","img2/300/Congruent/L/C_Dist_300_LN_20_LD_25_RN_14_RD_28_0.png","img2/200/Congruent/R/C_Dist_200_LN_3_LD_10_RN_14_RD_28_1.png","img2/100/Incongruent/L/I_Dist_100_LN_3_LD_5_RN_8_RD_16_0.png","img2/100/Congruent/R/C_Dist_100_LN_7_LD_14_RN_15_RD_25_1.png","img2/100/Incongruent/R/I_Dist_100_LN_10_LD_25_RN_9_RD_18_1.png","img2/100/Congruent/L/C_Dist_100_LN_11_LD_22_RN_4_RD_10_0.png","img2/300/Congruent/R/C_Dist_300_LN_2_LD_10_RN_12_RD_24_1.png","img2/200/Incongruent/L/I_Dist_200_LN_4_LD_6_RN_14_RD_30_0.png","img2/100/Congruent/L/C_Dist_100_LN_3_LD_6_RN_2_RD_5_0.png","img2/100/Congruent/L/C_Dist_100_LN_6_LD_20_RN_5_RD_25_0.png","img2/300/Congruent/R/C_Dist_300_LN_5_LD_25_RN_7_RD_14_1.png","img2/100/Congruent/R/C_Dist_100_LN_3_LD_20_RN_4_RD_16_1.png","img2/300/Incongruent/L/I_Dist_300_LN_1_LD_2_RN_2_RD_10_0.png","img2/100/Incongruent/R/I_Dist_100_LN_11_LD_22_RN_9_RD_15_1.png","img2/200/Congruent/R/C_Dist_200_LN_13_LD_26_RN_14_RD_20_1.png","img2/200/Incongruent/R/I_Dist_200_LN_11_LD_20_RN_3_RD_4_1.png","img2/200/Incongruent/L/I_Dist_200_LN_4_LD_6_RN_14_RD_30_0.png","img2/100/Incongruent/L/I_Dist_100_LN_2_LD_4_RN_8_RD_20_0.png","img2/200/Congruent/L/C_Dist_200_LN_7_LD_21_RN_2_RD_15_0.png","img2/100/Incongruent/L/I_Dist_100_LN_9_LD_15_RN_14_RD_28_0.png","img2/300/Incongruent/L/I_Dist_300_LN_8_LD_10_RN_14_RD_28_0.png","img2/100/Congruent/R/C_Dist_100_LN_3_LD_20_RN_4_RD_16_1.png","img2/200/Congruent/R/C_Dist_200_LN_3_LD_10_RN_11_RD_22_1.png","img2/100/Congruent/R/C_Dist_100_LN_4_LD_8_RN_6_RD_10_1.png","img2/200/Congruent/L/C_Dist_200_LN_12_LD_20_RN_6_RD_15_0.png","img2/300/Incongruent/L/I_Dist_300_LN_4_LD_5_RN_6_RD_12_0.png","img2/200/Congruent/L/C_Dist_200_LN_6_LD_15_RN_3_RD_15_0.png","img2/200/Incongruent/R/I_Dist_200_LN_14_LD_30_RN_12_RD_18_1.png","img2/300/Congruent/R/C_Dist_300_LN_1_LD_30_RN_8_RD_24_1.png","img2/200/Incongruent/L/I_Dist_200_LN_7_LD_10_RN_12_RD_24_0.png","img2/200/Incongruent/R/I_Dist_200_LN_7_LD_15_RN_6_RD_9_1.png","img2/200/Congruent/L/C_Dist_200_LN_16_LD_20_RN_12_RD_20_0.png","img2/100/Congruent/L/C_Dist_100_LN_8_LD_16_RN_2_RD_5_0.png","img2/300/Incongruent/R/I_Dist_300_LN_13_LD_26_RN_12_RD_15_1.png","img2/100/Incongruent/L/I_Dist_100_LN_3_LD_9_RN_7_RD_30_0.png","img2/300/Congruent/L/C_Dist_300_LN_8_LD_16_RN_1_RD_5_0.png","img2/100/Incongruent/L/I_Dist_100_LN_4_LD_8_RN_8_RD_20_0.png","img2/300/Incongruent/L/I_Dist_300_LN_8_LD_10_RN_9_RD_18_0.png","img2/200/Incongruent/L/I_Dist_200_LN_1_LD_3_RN_2_RD_15_0.png","img2/200/Incongruent/L/I_Dist_200_LN_7_LD_10_RN_14_RD_28_0.png","img2/100/Incongruent/R/I_Dist_100_LN_8_LD_20_RN_1_RD_2_1.png","img2/100/Incongruent/L/I_Dist_100_LN_4_LD_8_RN_8_RD_20_0.png","img2/300/Congruent/L/C_Dist_300_LN_3_LD_6_RN_2_RD_10_0.png","img2/200/Congruent/L/C_Dist_200_LN_7_LD_21_RN_2_RD_15_0.png","img2/300/Incongruent/R/I_Dist_300_LN_13_LD_26_RN_12_RD_15_1.png","img2/300/Incongruent/R/I_Dist_300_LN_13_LD_26_RN_12_RD_15_1.png","img2/100/Incongruent/L/I_Dist_100_LN_2_LD_4_RN_8_RD_20_0.png","img2/200/Congruent/R/C_Dist_200_LN_5_LD_10_RN_14_RD_20_1.png","img2/100/Congruent/R/C_Dist_100_LN_7_LD_14_RN_15_RD_25_1.png","img2/100/Congruent/R/C_Dist_100_LN_1_LD_2_RN_18_RD_30_1.png","img2/200/Incongruent/L/I_Dist_200_LN_7_LD_10_RN_14_RD_28_0.png","img2/300/Incongruent/L/I_Dist_300_LN_2_LD_4_RN_6_RD_30_0.png","img2/200/Incongruent/L/I_Dist_200_LN_4_LD_5_RN_6_RD_10_0.png","img2/100/Congruent/R/C_Dist_100_LN_1_LD_2_RN_3_RD_5_1.png","img2/100/Congruent/L/C_Dist_100_LN_3_LD_6_RN_2_RD_5_0.png","img2/100/Congruent/R/C_Dist_100_LN_4_LD_10_RN_15_RD_30_1.png","img2/200/Incongruent/R/I_Dist_200_LN_7_LD_15_RN_4_RD_6_1.png","img2/300/Incongruent/R/I_Dist_300_LN_13_LD_26_RN_12_RD_15_1.png","img2/200/Incongruent/L/I_Dist_200_LN_7_LD_10_RN_12_RD_24_0.png","img2/100/Congruent/R/C_Dist_100_LN_3_LD_20_RN_4_RD_16_1.png","img2/300/Incongruent/R/I_Dist_300_LN_13_LD_26_RN_12_RD_15_1.png","img2/200/Incongruent/L/I_Dist_200_LN_4_LD_6_RN_14_RD_30_0.png","img2/100/Incongruent/R/I_Dist_100_LN_10_LD_25_RN_9_RD_18_1.png","img2/300/Congruent/R/C_Dist_300_LN_1_LD_5_RN_6_RD_12_1.png","img2/300/Congruent/L/C_Dist_300_LN_20_LD_25_RN_9_RD_18_0.png","img2/200/Incongruent/L/I_Dist_200_LN_7_LD_10_RN_14_RD_28_0.png","img2/300/Congruent/L/C_Dist_300_LN_20_LD_25_RN_5_RD_10_0.png","img2/100/Incongruent/L/I_Dist_100_LN_2_LD_4_RN_8_RD_20_0.png","img2/200/Congruent/L/C_Dist_200_LN_12_LD_15_RN_6_RD_10_0.png","img2/200/Incongruent/L/I_Dist_200_LN_1_LD_2_RN_3_RD_10_0.png","img2/300/Congruent/R/C_Dist_300_LN_3_LD_6_RN_4_RD_5_1.png","img2/100/Incongruent/R/I_Dist_100_LN_17_LD_30_RN_10_RD_15_1.png","img2/100/Congruent/L/C_Dist_100_LN_11_LD_22_RN_6_RD_15_0.png","img2/100/Incongruent/R/I_Dist_100_LN_6_LD_12_RN_3_RD_5_1.png","img2/300/Incongruent/L/I_Dist_300_LN_2_LD_4_RN_6_RD_30_0.png","img2/300/Incongruent/R/I_Dist_300_LN_4_LD_20_RN_2_RD_4_1.png","img2/300/Incongruent/L/I_Dist_300_LN_1_LD_2_RN_2_RD_10_0.png","img2/100/Incongruent/R/I_Dist_100_LN_6_LD_12_RN_3_RD_5_1.png","img2/200/Congruent/R/C_Dist_200_LN_6_LD_20_RN_11_RD_22_1.png","img2/200/Incongruent/R/I_Dist_200_LN_11_LD_20_RN_3_RD_4_1.png","img2/100/Congruent/R/C_Dist_100_LN_3_LD_20_RN_4_RD_16_1.png","img2/300/Congruent/L/C_Dist_300_LN_20_LD_25_RN_8_RD_16_0.png","img2/100/Incongruent/L/I_Dist_100_LN_9_LD_15_RN_14_RD_28_0.png","img2/200/Congruent/R/C_Dist_200_LN_6_LD_20_RN_11_RD_22_1.png","img2/300/Incongruent/R/I_Dist_300_LN_4_LD_20_RN_2_RD_4_1.png","img2/300/Congruent/L/C_Dist_300_LN_9_LD_10_RN_3_RD_5_0.png","img2/100/Incongruent/L/I_Dist_100_LN_2_LD_4_RN_8_RD_20_0.png","img2/300/Incongruent/R/I_Dist_300_LN_13_LD_26_RN_12_RD_15_1.png","img2/200/Incongruent/L/I_Dist_200_LN_4_LD_5_RN_6_RD_10_0.png","img2/300/Incongruent/L/I_Dist_300_LN_8_LD_10_RN_9_RD_18_0.png","img2/100/Congruent/R/C_Dist_100_LN_12_LD_30_RN_13_RD_26_1.png","img2/300/Incongruent/R/I_Dist_300_LN_4_LD_20_RN_2_RD_4_1.png","img2/200/Congruent/L/C_Dist_200_LN_14_LD_28_RN_6_RD_20_0.png","img2/300/Congruent/L/C_Dist_300_LN_4_LD_5_RN_2_RD_4_0.png","img2/200/Congruent/L/C_Dist_200_LN_8_LD_15_RN_2_RD_6_0.png","img2/200/Congruent/R/C_Dist_200_LN_3_LD_10_RN_14_RD_28_1.png","img2/100/Congruent/L/C_Dist_100_LN_8_LD_16_RN_2_RD_5_0.png","img2/100/Incongruent/R/I_Dist_100_LN_8_LD_20_RN_1_RD_2_1.png"],"dist100_C":[["C_Dist_100_LN_10_LD_25_RN_3_RD_10_0.png","C_Dist_100_LN_11_LD_22_RN_4_RD_10_0.png","C_Dist_100_LN_11_LD_22_RN_6_RD_15_0.png","C_Dist_100_LN_15_LD_25_RN_13_RD_26_0.png","C_Dist_100_LN_3_LD_6_RN_2_RD_5_0.png","C_Dist_100_LN_6_LD_20_RN_5_RD_25_0.png","C_Dist_100_LN_8_LD_16_RN_2_RD_5_0.png","C_Dist_100_LN_9_LD_15_RN_8_RD_16_0.png"],["C_Dist_100_LN_1_LD_2_RN_18_RD_30_1.png","C_Dist_100_LN_1_LD_2_RN_3_RD_5_1.png","C_Dist_100_LN_12_LD_30_RN_13_RD_26_1.png","C_Dist_100_LN_2_LD_5_RN_11_RD_22_1.png","C_Dist_100_LN_2_LD_5_RN_6_RD_12_1.png","C_Dist_100_LN_3_LD_20_RN_4_RD_16_1.png","C_Dist_100_LN_4_LD_10_RN_15_RD_30_1.png","C_Dist_100_LN_4_LD_8_RN_6_RD_10_1.png","C_Dist_100_LN_6_LD_12_RN_15_RD_25_1.png","C_Dist_100_LN_7_LD_14_RN_15_RD_25_1.png","C_Dist_100_LN_7_LD_14_RN_9_RD_15_1.png"]],"dist100_I":[["I_Dist_100_LN_1_LD_2_RN_8_RD_20_0.png","I_Dist_100_LN_2_LD_4_RN_6_RD_15_0.png","I_Dist_100_LN_2_LD_4_RN_8_RD_20_0.png","I_Dist_100_LN_3_LD_5_RN_11_RD_22_0.png","I_Dist_100_LN_3_LD_5_RN_8_RD_16_0.png","I_Dist_100_LN_3_LD_6_RN_4_RD_10_0.png","I_Dist_100_LN_3_LD_9_RN_7_RD_30_0.png","I_Dist_100_LN_4_LD_8_RN_8_RD_20_0.png","I_Dist_100_LN_6_LD_10_RN_11_RD_22_0.png","I_Dist_100_LN_6_LD_10_RN_13_RD_26_0.png","I_Dist_100_LN_6_LD_10_RN_7_RD_14_0.png","I_Dist_100_LN_9_LD_10_RN_20_RD_25_0.png","I_Dist_100_LN_9_LD_15_RN_13_RD_26_0.png","I_Dist_100_LN_9_LD_15_RN_14_RD_28_0.png"],["I_Dist_100_LN_10_LD_25_RN_8_RD_16_1.png","I_Dist_100_LN_10_LD_25_RN_9_RD_18_1.png","I_Dist_100_LN_11_LD_22_RN_9_RD_15_1.png","I_Dist_100_LN_12_LD_24_RN_9_RD_15_1.png","I_Dist_100_LN_12_LD_30_RN_2_RD_4_1.png","I_Dist_100_LN_13_LD_26_RN_12_RD_20_1.png","I_Dist_100_LN_13_LD_26_RN_6_RD_10_1.png","I_Dist_100_LN_17_LD_30_RN_10_RD_15_1.png","I_Dist_100_LN_6_LD_12_RN_3_RD_5_1.png","I_Dist_100_LN_8_LD_16_RN_6_RD_10_1.png","I_Dist_100_LN_8_LD_20_RN_1_RD_2_1.png","I_Dist_100_LN_9_LD_18_RN_6_RD_10_1.png"]],"dist100_S":[["E_Dist_100_LN_2_LD_12_RN_2_RD_30_0.png","E_Dist_100_LN_6_LD_10_RN_6_RD_12_0.png"],["E_Dist_100_LN_6_LD_12_RN_6_RD_10_1.png"]],"dist200_C":[["C_Dist_200_LN_11_LD_22_RN_3_RD_10_0.png","C_Dist_200_LN_12_LD_15_RN_6_RD_10_0.png","C_Dist_200_LN_12_LD_20_RN_6_RD_15_0.png","C_Dist_200_LN_14_LD_28_RN_6_RD_20_0.png","C_Dist_200_LN_15_LD_25_RN_4_RD_10_0.png","C_Dist_200_LN_16_LD_20_RN_12_RD_20_0.png","C_Dist_200_LN_16_LD_30_RN_9_RD_27_0.png","C_Dist_200_LN_20_LD_25_RN_9_RD_15_0.png","C_Dist_200_LN_21_LD_30_RN_2_RD_4_0.png","C_Dist_200_LN_4_LD_10_RN_3_RD_15_0.png","C_Dist_200_LN_4_LD_8_RN_3_RD_10_0.png","C_Dist_200_LN_6_LD_15_RN_3_RD_15_0.png","C_Dist_200_LN_7_LD_21_RN_2_RD_15_0.png","C_Dist_200_LN_8_LD_15_RN_2_RD_6_0.png","C_Dist_200_LN_8_LD_15_RN_3_RD_9_0.png","C_Dist_200_LN_8_LD_15_RN_7_RD_21_0.png","C_Dist_200_LN_9_LD_20_RN_4_RD_16_0.png"],["C_Dist_200_LN_1_LD_2_RN_21_RD_30_1.png","C_Dist_200_LN_13_LD_26_RN_14_RD_20_1.png","C_Dist_200_LN_3_LD_10_RN_11_RD_22_1.png","C_Dist_200_LN_3_LD_10_RN_14_RD_28_1.png","C_Dist_200_LN_3_LD_10_RN_7_RD_14_1.png","C_Dist_200_LN_3_LD_12_RN_9_RD_20_1.png","C_Dist_200_LN_3_LD_6_RN_14_RD_20_1.png","C_Dist_200_LN_5_LD_10_RN_14_RD_20_1.png","C_Dist_200_LN_6_LD_12_RN_7_RD_10_1.png","C_Dist_200_LN_6_LD_20_RN_11_RD_22_1.png","C_Dist_200_LN_7_LD_15_RN_18_RD_27_1.png","C_Dist_200_LN_9_LD_30_RN_13_RD_26_1.png"]],"dist200_I":[["I_Dist_200_LN_1_LD_2_RN_3_RD_10_0.png","I_Dist_200_LN_1_LD_3_RN_2_RD_15_0.png","I_Dist_200_LN_3_LD_4_RN_11_RD_20_0.png","I_Dist_200_LN_4_LD_5_RN_6_RD_10_0.png","I_Dist_200_LN_4_LD_6_RN_14_RD_30_0.png","I_Dist_200_LN_7_LD_10_RN_12_RD_24_0.png","I_Dist_200_LN_7_LD_10_RN_14_RD_28_0.png","I_Dist_200_LN_7_LD_10_RN_8_RD_16_0.png"],["I_Dist_200_LN_11_LD_20_RN_3_RD_4_1.png","I_Dist_200_LN_14_LD_30_RN_12_RD_18_1.png","I_Dist_200_LN_14_LD_30_RN_6_RD_9_1.png","I_Dist_200_LN_3_LD_10_RN_1_RD_2_1.png","I_Dist_200_LN_4_LD_30_RN_1_RD_3_1.png","I_Dist_200_LN_6_LD_20_RN_3_RD_6_1.png","I_Dist_200_LN_7_LD_15_RN_4_RD_6_1.png","I_Dist_200_LN_7_LD_15_RN_6_RD_9_1.png","I_Dist_200_LN_9_LD_15_RN_8_RD_10_1.png"]],"dist200_S":[["E_Dist_200_LN_3_LD_6_RN_3_RD_10_0.png"],["E_Dist_200_LN_3_LD_10_RN_3_RD_6_1.png"]],"dist300_C":[["C_Dist_300_LN_11_LD_22_RN_1_RD_5_0.png","C_Dist_300_LN_11_LD_22_RN_2_RD_10_0.png","C_Dist_300_LN_11_LD_22_RN_4_RD_20_0.png","C_Dist_300_LN_12_LD_24_RN_2_RD_10_0.png","C_Dist_300_LN_18_LD_20_RN_9_RD_15_0.png","C_Dist_300_LN_20_LD_25_RN_13_RD_26_0.png","C_Dist_300_LN_20_LD_25_RN_14_RD_28_0.png","C_Dist_300_LN_20_LD_25_RN_5_RD_10_0.png","C_Dist_300_LN_20_LD_25_RN_8_RD_16_0.png","C_Dist_300_LN_20_LD_25_RN_9_RD_18_0.png","C_Dist_300_LN_24_LD_30_RN_2_RD_4_0.png","C_Dist_300_LN_24_LD_30_RN_8_RD_16_0.png","C_Dist_300_LN_3_LD_6_RN_2_RD_10_0.png","C_Dist_300_LN_4_LD_10_RN_1_RD_10_0.png","C_Dist_300_LN_4_LD_5_RN_2_RD_4_0.png","C_Dist_300_LN_8_LD_16_RN_1_RD_5_0.png","C_Dist_300_LN_9_LD_10_RN_3_RD_5_0.png"],["C_Dist_300_LN_1_LD_20_RN_7_RD_20_1.png","C_Dist_300_LN_1_LD_3_RN_19_RD_30_1.png","C_Dist_300_LN_1_LD_30_RN_8_RD_24_1.png","C_Dist_300_LN_1_LD_5_RN_11_RD_22_1.png","C_Dist_300_LN_1_LD_5_RN_3_RD_6_1.png","C_Dist_300_LN_1_LD_5_RN_6_RD_12_1.png","C_Dist_300_LN_2_LD_10_RN_12_RD_24_1.png","C_Dist_300_LN_2_LD_20_RN_10_RD_25_1.png","C_Dist_300_LN_3_LD_12_RN_11_RD_20_1.png","C_Dist_300_LN_3_LD_6_RN_4_RD_5_1.png","C_Dist_300_LN_4_LD_20_RN_13_RD_26_1.png","C_Dist_300_LN_5_LD_25_RN_6_RD_12_1.png","C_Dist_300_LN_5_LD_25_RN_7_RD_14_1.png","C_Dist_300_LN_7_LD_14_RN_20_RD_25_1.png","C_Dist_300_LN_8_LD_15_RN_10_RD_12_1.png"]],"dist300_I":[["I_Dist_300_LN_1_LD_2_RN_2_RD_10_0.png","I_Dist_300_LN_1_LD_2_RN_3_RD_15_0.png","I_Dist_300_LN_2_LD_4_RN_6_RD_30_0.png","I_Dist_300_LN_3_LD_6_RN_4_RD_20_0.png","I_Dist_300_LN_4_LD_5_RN_6_RD_12_0.png","I_Dist_300_LN_4_LD_5_RN_8_RD_16_0.png","I_Dist_300_LN_7_LD_10_RN_8_RD_20_0.png","I_Dist_300_LN_8_LD_10_RN_14_RD_28_0.png","I_Dist_300_LN_8_LD_10_RN_9_RD_18_0.png"],["I_Dist_300_LN_13_LD_26_RN_12_RD_15_1.png","I_Dist_300_LN_4_LD_20_RN_2_RD_4_1.png"]],"dist300_S":[["E_Dist_300_LN_9_LD_12_RN_9_RD_20_0.png"],["E_Dist_300_LN_18_LD_30_RN_18_RD_20_1.png","E_Dist_300_LN_3_LD_10_RN_3_RD_5_1.png","E_Dist_300_LN_9_LD_20_RN_9_RD_12_1.png"]],"dist500_C":[["C_Dist_500_LN_10_LD_13_RN_7_RD_26_0.png","C_Dist_500_LN_10_LD_15_RN_4_RD_24_0.png","C_Dist_500_LN_12_LD_16_RN_3_RD_12_0.png","C_Dist_500_LN_12_LD_18_RN_4_RD_24_0.png","C_Dist_500_LN_15_LD_18_RN_5_RD_15_0.png","C_Dist_500_LN_15_LD_20_RN_1_RD_4_0.png","C_Dist_500_LN_18_LD_27_RN_1_RD_6_0.png","C_Dist_500_LN_20_LD_24_RN_1_RD_3_0.png","C_Dist_500_LN_20_LD_24_RN_3_RD_9_0.png","C_Dist_500_LN_20_LD_24_RN_7_RD_21_0.png","C_Dist_500_LN_20_LD_28_RN_3_RD_14_0.png","C_Dist_500_LN_21_LD_28_RN_6_RD_24_0.png","C_Dist_500_LN_22_LD_28_RN_2_RD_7_0.png","C_Dist_500_LN_25_LD_30_RN_9_RD_27_0.png","C_Dist_500_LN_4_LD_6_RN_1_RD_6_0.png","C_Dist_500_LN_5_LD_6_RN_2_RD_6_0.png","C_Dist_500_LN_6_LD_9_RN_1_RD_6_0.png","C_Dist_500_LN_7_LD_10_RN_1_RD_5_0.png","C_Dist_500_LN_8_LD_12_RN_1_RD_6_0.png","C_Dist_500_LN_8_LD_12_RN_4_RD_24_0.png"],["C_Dist_500_LN_1_LD_4_RN_12_RD_16_1.png","C_Dist_500_LN_1_LD_4_RN_9_RD_12_1.png","C_Dist_500_LN_1_LD_9_RN_11_RD_18_1.png","C_Dist_500_LN_10_LD_24_RN_22_RD_24_1.png","C_Dist_500_LN_2_LD_12_RN_10_RD_15_1.png","C_Dist_500_LN_2_LD_12_RN_12_RD_18_1.png","C_Dist_500_LN_2_LD_12_RN_4_RD_6_1.png","C_Dist_500_LN_2_LD_24_RN_7_RD_12_1.png","C_Dist_500_LN_2_LD_5_RN_18_RD_20_1.png","C_Dist_500_LN_2_LD_5_RN_9_RD_10_1.png","C_Dist_500_LN_2_LD_8_RN_12_RD_16_1.png","C_Dist_500_LN_2_LD_8_RN_21_RD_28_1.png","C_Dist_500_LN_3_LD_10_RN_4_RD_5_1.png","C_Dist_500_LN_3_LD_12_RN_15_RD_20_1.png","C_Dist_500_LN_3_LD_30_RN_6_RD_10_1.png","C_Dist_500_LN_3_LD_8_RN_14_RD_16_1.png","C_Dist_500_LN_4_LD_16_RN_15_RD_20_1.png","C_Dist_500_LN_4_LD_24_RN_12_RD_18_1.png","C_Dist_500_LN_5_LD_14_RN_6_RD_7_1.png","C_Dist_500_LN_7_LD_21_RN_20_RD_24_1.png","C_Dist_500_LN_7_LD_28_RN_12_RD_16_1.png","C_Dist_500_LN_7_LD_28_RN_9_RD_12_1.png","C_Dist_500_LN_9_LD_27_RN_20_RD_24_1.png"]],"dist500_I":[["I_Dist_500_LN_2_LD_3_RN_4_RD_24_0.png","I_Dist_500_LN_5_LD_6_RN_6_RD_18_0.png","I_Dist_500_LN_7_LD_8_RN_9_RD_24_0.png"],["I_Dist_500_LN_7_LD_21_RN_5_RD_6_1.png"]],"dist500_S":[["E_Dist_500_LN_6_LD_8_RN_6_RD_24_0.png"],["E_Dist_500_LN_2_LD_12_RN_2_RD_3_1.png","E_Dist_500_LN_6_LD_24_RN_6_RD_8_1.png"]]}},{"start_time":1552054126144,"click_time":1552054127857,"finger_time":1552054127436,"fix_duration":786.4179266947366,"trial":1,"RT":1292,"MT":421,"sideResp":1,"stimulus":[],"xmouse":[766,766,766,766,766,766,766,766,766,766,766,766,766,766,766,766,766,766,766,766,766,766,766,766,766,766,766,766,766,766,766,766,766,766,766,766,766,766,766,766,766,766,766,766,766,766,766,766,766,766,766,766,766,766,766,766,766,766,766,764,763,762,758,749,711,683,659,640,630,625,625,625,623,621,620,620,620,618,615,608,606,603,598,588,539,512],"ymouse":[630,630,630,630,630,630,630,630,630,630,630,630,630,630,630,630,630,630,630,630,630,630,630,630,630,630,630,630,630,630,630,630,630,630,630,630,630,630,630,630,630,630,630,630,630,630,630,630,630,630,630,630,630,630,630,630,630,630,629,627,624,615,599,576,516,477,442,403,370,317,301,282,270,257,238,225,206,183,163,135,130,122,114,106,89,85],"timestamp_mouse":[16,47,53,72,92,112,133,153,172,192,213,233,252,273,292,313,333,352,372,393,413,433,453,472,492,512,532,552,573,593,612,632,653,672,693,712,733,752,772,793,812,833,852,872,893,912,932,952,972,992,1012,1032,1053,1073,1093,1113,1133,1153,1172,1191,1212,1232,1252,1272,1292,1312,1333,1352,1373,1392,1412,1432,1452,1472,1492,1513,1532,1553,1573,1592,1612,1631,1652,1672,1693,1711],"xSR":741.5,"ySR":573.95,"xT1":424.9,"yT1":0,"xT2":1058.1,"yT2":0,"toosoon":0,"cond_shown":"Congruent","ratio_trial":300,"L_num":5,"L_den":25,"R_num":6,"R_den":12,"correct_side":2,"subjID":"valentinaramirez7","gender":"1","school":"4","age":"9"},{"start_time":1552054133038,"click_time":1552054137317,"finger_time":1552054134557,"fix_duration":660.4250668321351,"trial":2,"RT":1519,"MT":2760,"sideResp":2,"stimulus":[],"xmouse":[794,794,794,794,794,794,794,794,794,794,794,794,794,794,794,794,794,794,794,794,794,794,794,794,794,794,794,794,794,794,794,794,794,794,794,794,794,794,794,794,794,794,794,794,794,794,794,794,794,794,794,794,794,794,794,794,794,794,794,794,794,794,794,794,794,794,794,794,794,794,794,794,795,799,820,854,879,896,907,911,911,911,911,911,911,911,911,911,911,911,911,911,911,911,911,911,911,911,909,901,899,897,896,896,896,898,906,912,919,932,936,938,940,940,940,940,940,940,940,940,940,940,940,940,940,940,940,940,940,940,940,940,940,940,938,938,938,938,938,938,938,938,938,938,938,938,938,938,937,933,932,928,920,913,901,898,898,898,898,898,898,898,898,898,898,898,896,896,895,891,888,887,887,887,887,887,887,887,889,892,893,895,895,899,900,902,905,910,914,926,934,944,953,962,973,977,979,997,1010,1041,1045,1045,1046,1046,1046,1048,1049,1049,1049,1049,1049,1051,1055,1065],"ymouse":[624,624,624,624,624,624,624,624,624,624,624,624,624,624,624,624,624,624,624,624,624,624,624,624,624,624,624,624,624,624,624,624,624,624,624,624,624,624,624,624,624,624,624,624,624,624,624,624,624,624,624,624,624,624,624,624,624,624,624,624,624,624,624,624,624,624,624,624,624,624,624,624,622,616,579,518,474,446,431,425,425,425,425,425,425,425,425,425,425,425,425,425,425,425,425,425,424,423,419,402,390,379,369,358,328,306,270,247,226,198,188,182,177,175,175,175,175,175,175,175,175,175,175,175,175,175,175,175,175,175,175,174,174,174,175,175,175,175,175,175,175,175,175,175,175,175,175,175,175,173,171,169,165,160,154,153,153,153,153,153,153,153,153,153,153,153,152,151,151,150,149,149,149,149,149,149,149,149,149,149,149,148,147,142,140,138,135,131,127,111,100,89,78,70,64,62,61,57,53,44,42,42,42,42,42,42,42,42,42,42,42,42,43,47],"timestamp_mouse":[18,38,59,78,99,118,139,159,178,198,218,239,258,279,298,318,339,359,378,399,418,439,459,478,498,518,539,559,578,599,618,639,659,679,698,719,739,759,778,799,818,838,859,879,899,919,939,959,979,999,1018,1038,1058,1078,1099,1118,1139,1159,1179,1199,1219,1238,1258,1279,1298,1319,1339,1359,1379,1399,1419,1438,1458,1478,1498,1519,1538,1559,1578,1599,1619,1639,1659,1678,1699,1718,1738,1759,1778,1799,1819,1838,1858,1878,1899,1919,1938,1959,1978,1999,2019,2038,2058,2080,2098,2119,2139,2159,2178,2198,2219,2238,2258,2278,2299,2318,2338,2358,2379,2398,2418,2439,2459,2478,2498,2518,2538,2558,2579,2599,2619,2639,2658,2678,2698,2718,2739,2758,2778,2798,2819,2838,2859,2878,2898,2918,2938,2958,2979,2998,3020,3038,3058,3079,3098,3118,3138,3158,3179,3199,3219,3238,3259,3279,3298,3319,3337,3358,3378,3398,3419,3439,3458,3479,3499,3518,3538,3559,3578,3598,3618,3638,3658,3680,3698,3718,3738,3758,3778,3798,3819,3839,3858,3878,3898,3918,3938,3958,3978,3998,4019,4039,4059,4078,4099,4118,4138,4159,4178,4198,4218,4239,4258,4279],"xSR":741.5,"ySR":573.95,"xT1":424.9,"yT1":0,"xT2":1058.1,"yT2":0,"toosoon":0,"cond_shown":"Incongruent","ratio_trial":200,"L_num":4,"L_den":30,"R_num":1,"R_den":3,"correct_side":2,"subjID":"valentinaramirez7","gender":"1","school":"4","age":"9"},{"start_time":1552054140210,"click_time":1552054142337,"finger_time":1552054141616,"fix_duration":1253.6514354383216,"trial":3,"RT":1406,"MT":721,"sideResp":1,"stimulus":[],"xmouse":[786,786,786,786,786,786,786,786,786,786,786,786,786,786,786,786,786,786,786,786,786,786,786,786,786,786,786,786,786,786,786,786,786,786,786,786,786,786,786,786,786,786,786,786,786,786,786,786,786,786,786,786,786,786,786,786,786,786,786,786,786,786,786,786,786,786,785,781,767,745,721,668,650,642,639,636,631,625,615,607,598,584,577,565,549,526,461,437,414,409,407,408,410,414,417,418,421,421,422,424,426,427,427,427,428,428,431],"ymouse":[604,604,604,604,604,604,604,604,604,604,604,604,604,604,604,604,604,604,604,604,604,604,604,604,604,604,604,604,604,604,604,604,604,604,604,604,604,604,604,604,604,604,604,604,604,604,604,604,604,604,604,604,604,604,604,604,604,604,604,604,604,604,604,604,604,604,605,606,606,606,604,594,586,581,578,575,569,564,556,550,541,517,498,462,407,353,239,194,149,127,110,82,66,46,26,9,0,0,0,0,0,0,0,0,0,0,6],"timestamp_mouse":[13,41,46,66,86,107,127,147,166,187,207,227,247,266,287,306,326,346,367,386,406,427,446,467,486,506,527,546,566,587,607,626,647,667,686,706,727,747,766,787,807,827,847,867,887,907,926,946,966,987,1007,1027,1047,1067,1086,1107,1127,1148,1167,1187,1206,1226,1247,1267,1287,1307,1326,1346,1366,1387,1406,1426,1448,1467,1486,1507,1526,1546,1566,1587,1606,1626,1647,1666,1686,1706,1726,1746,1766,1786,1806,1826,1846,1866,1887,1906,1926,1946,1967,1986,2007,2026,2046,2066,2086,2106,2127],"xSR":741.5,"ySR":573.95,"xT1":424.9,"yT1":0,"xT2":1058.1,"yT2":0,"toosoon":0,"cond_shown":"Incongruent","ratio_trial":200,"L_num":4,"L_den":5,"R_num":6,"R_den":10,"correct_side":1,"subjID":"valentinaramirez7","gender":"1","school":"4","age":"9"},{"start_time":1552054144873,"click_time":1552054148298,"finger_time":1552054147936,"fix_duration":753.7830140709452,"trial":4,"RT":3063,"MT":362,"sideResp":2,"stimulus":[],"xmouse":[776,776,776,776,776,776,776,776,776,776,776,776,776,776,776,776,776,776,776,776,776,776,776,776,776,776,776,776,776,776,776,776,776,776,776,776,776,776,776,776,776,776,776,776,776,776,776,776,776,776,776,776,776,776,776,776,776,776,776,776,776,776,776,776,776,776,776,776,776,776,776,776,776,776,776,776,776,776,776,776,776,776,776,776,776,776,776,777,777,778,778,779,779,779,779,779,779,779,779,779,779,779,779,779,779,779,779,779,779,779,779,779,779,779,779,779,779,779,779,779,779,779,779,779,779,779,779,779,779,779,779,779,779,779,779,779,779,780,780,781,781,781,781,781,781,781,781,782,782,782,783,784,788,798,807,817,831,851,901,927,944,957,973,1002,1015,1028,1029,1030,1036,1043,1052,1062],"ymouse":[616,616,616,616,616,616,616,616,616,616,616,616,616,616,616,616,616,616,616,616,616,616,616,616,616,616,616,616,616,616,616,616,616,616,616,616,616,616,616,616,616,616,616,616,616,616,616,616,616,616,616,616,616,616,616,616,616,616,616,616,616,616,616,616,616,616,616,616,616,616,616,616,616,616,616,616,616,616,616,616,616,616,616,616,616,616,616,615,615,614,613,612,611,610,609,609,609,609,609,609,609,609,609,609,609,609,609,609,609,609,609,609,609,609,609,609,609,609,609,609,609,609,609,609,609,609,609,609,609,609,609,609,609,609,609,609,609,609,608,606,605,604,604,603,603,603,602,602,602,601,600,595,585,553,523,493,454,410,323,289,264,246,225,179,165,150,149,148,136,120,100,78],"timestamp_mouse":[12,24,43,64,83,103,124,144,165,183,204,224,243,263,283,304,323,344,363,383,404,424,443,464,483,504,523,543,564,583,603,624,644,663,683,704,724,744,763,783,804,824,844,864,883,903,923,944,964,983,1003,1024,1043,1063,1084,1104,1123,1144,1163,1184,1203,1224,1244,1264,1284,1303,1324,1344,1363,1383,1404,1423,1443,1464,1483,1504,1524,1543,1564,1583,1604,1624,1643,1664,1684,1704,1724,1743,1764,1783,1804,1823,1844,1864,1883,1904,1924,1944,1964,1984,2004,2024,2044,2064,2084,2104,2123,2144,2163,2183,2203,2223,2243,2264,2283,2303,2324,2344,2363,2383,2404,2424,2443,2463,2483,2504,2523,2544,2564,2583,2604,2624,2643,2664,2684,2703,2724,2744,2763,2782,2804,2823,2844,2863,2884,2904,2924,2943,2963,2983,3003,3023,3044,3063,3083,3103,3123,3143,3163,3183,3204,3223,3243,3264,3283,3303,3324,3343,3363,3383,3403,3424],"xSR":741.5,"ySR":573.95,"xT1":424.9,"yT1":0,"xT2":1058.1,"yT2":0,"toosoon":0,"cond_shown":"Incongruent","ratio_trial":100,"L_num":6,"L_den":10,"R_num":13,"R_den":26,"correct_side":1,"subjID":"valentinaramirez7","gender":"1","school":"4","age":"9"},{"start_time":1552054150108,"click_time":1552054152238,"finger_time":1552054151536,"fix_duration":250,"trial":5,"RT":1428,"MT":702,"sideResp":1,"stimulus":[],"xmouse":[771,771,771,771,771,771,771,771,771,771,771,771,771,771,771,771,771,771,771,771,771,771,771,771,771,771,771,771,771,771,771,771,771,771,771,771,771,771,771,771,771,771,771,771,771,771,771,771,771,771,771,771,771,771,771,771,771,771,771,771,771,771,771,771,771,771,771,771,771,768,760,690,667,618,609,603,593,591,587,576,557,514,498,484,477,465,412,399,396,396,396,400,400,400,400,400,400,400,400,400,400,400,400,400,400,403,437],"ymouse":[630,630,630,630,630,630,630,630,630,630,630,630,630,630,630,630,630,630,630,630,630,630,630,630,630,630,630,630,630,630,630,630,630,630,630,630,630,630,630,630,630,630,630,630,630,630,630,630,630,630,630,630,630,630,630,630,630,630,630,630,630,630,630,630,630,630,630,630,630,623,605,470,433,350,329,306,263,248,232,218,205,185,177,167,156,138,89,77,72,69,60,48,46,46,45,45,45,45,45,45,45,45,45,45,45,45,46],"timestamp_mouse":[12,43,48,68,88,109,129,149,169,189,209,229,248,268,289,309,329,348,368,389,408,429,448,469,489,508,529,548,569,588,608,628,648,668,688,708,728,749,769,789,809,829,848,870,889,909,928,948,968,988,1008,1028,1048,1068,1088,1109,1128,1149,1169,1188,1209,1228,1248,1269,1288,1309,1328,1348,1369,1388,1408,1428,1448,1468,1488,1508,1528,1549,1568,1588,1609,1628,1648,1668,1689,1709,1728,1750,1769,1788,1808,1828,1848,1868,1888,1908,1928,1948,1969,1989,2009,2028,2048,2068,2088,2108,2130],"xSR":741.5,"ySR":573.95,"xT1":424.9,"yT1":0,"xT2":1058.1,"yT2":0,"toosoon":0,"cond_shown":"Congruent","ratio_trial":200,"L_num":20,"L_den":25,"R_num":9,"R_den":15,"correct_side":1,"subjID":"valentinaramirez7","gender":"1","school":"4","age":"9"},{"start_time":1552054154150,"click_time":1552054157437,"finger_time":1552054157097,"fix_duration":272.09843034761593,"trial":6,"RT":2947,"MT":340,"sideResp":1,"stimulus":[],"xmouse":[774,774,774,774,774,774,774,774,774,774,774,774,774,774,774,774,774,774,774,774,774,774,774,774,774,774,774,774,774,774,774,774,774,774,774,774,774,774,774,774,774,774,774,774,774,774,774,774,774,774,774,774,774,774,774,774,774,774,774,774,774,774,774,774,774,774,774,774,774,774,774,774,774,774,774,774,774,774,774,774,774,774,774,774,774,774,774,774,774,774,774,774,774,774,774,774,774,774,774,774,774,774,774,774,774,774,774,774,774,774,774,774,774,774,774,774,774,774,774,774,774,774,774,774,774,774,774,774,774,774,774,774,774,774,774,774,774,774,774,774,774,774,774,774,774,774,774,774,774,754,730,719,693,688,679,678,674,659,621,579,531,527,527,525,522],"ymouse":[636,636,636,636,636,636,636,636,636,636,636,636,636,636,636,636,636,636,636,636,636,636,636,636,636,636,636,636,636,636,636,636,636,636,636,636,636,636,636,636,636,636,636,636,636,636,636,636,636,636,636,636,636,636,636,636,636,636,636,636,636,636,636,636,636,636,636,636,636,636,636,636,636,636,636,636,636,636,636,636,636,636,636,636,636,636,636,636,636,636,636,636,636,636,636,636,636,636,636,636,636,636,636,636,636,636,636,636,636,636,636,636,636,636,636,636,636,636,636,636,636,636,636,636,636,636,636,636,636,636,636,636,636,636,636,636,636,636,636,636,636,636,636,632,621,609,589,560,508,333,174,123,21,7,0,0,0,0,0,0,0,1,1,4,12],"timestamp_mouse":[12,34,46,67,87,107,127,146,167,187,206,226,246,267,287,307,327,347,367,386,406,427,447,467,487,506,527,547,567,587,607,626,647,667,687,707,726,746,767,786,807,826,847,867,886,907,927,947,966,987,1006,1027,1047,1067,1086,1107,1126,1147,1167,1186,1207,1227,1246,1267,1286,1307,1326,1347,1367,1387,1407,1426,1446,1467,1487,1506,1526,1546,1566,1586,1606,1626,1647,1666,1687,1706,1727,1746,1766,1787,1807,1826,1847,1867,1887,1906,1926,1946,1966,1986,2007,2026,2047,2067,2086,2108,2126,2147,2166,2187,2207,2227,2246,2267,2286,2307,2327,2347,2367,2386,2406,2427,2446,2467,2487,2506,2527,2547,2567,2586,2607,2626,2647,2666,2686,2707,2727,2747,2767,2787,2807,2827,2846,2866,2887,2906,2926,2947,2967,2986,3007,3026,3047,3068,3087,3106,3128,3147,3167,3186,3206,3227,3246,3267,3287],"xSR":741.5,"ySR":573.95,"xT1":424.9,"yT1":0,"xT2":1058.1,"yT2":0,"toosoon":0,"cond_shown":"Congruent","ratio_trial":100,"L_num":3,"L_den":6,"R_num":2,"R_den":5,"correct_side":1,"subjID":"valentinaramirez7","gender":"1","school":"4","age":"9"},{"start_time":1552054159656,"click_time":1552054161656,"finger_time":1552054161136,"fix_duration":899.6697103002911,"trial":7,"RT":1480,"MT":520,"sideResp":2,"stimulus":[],"xmouse":[778,778,778,778,778,778,778,778,778,778,778,778,778,778,778,778,778,778,778,778,778,778,778,778,778,778,778,778,778,778,778,778,778,778,778,778,778,778,778,778,778,778,778,778,778,778,778,778,778,778,778,778,778,778,778,778,778,778,778,778,778,778,778,778,778,778,778,778,778,778,778,783,785,793,835,860,885,902,919,942,953,964,976,989,1017,1020,1027,1029,1031,1033,1041,1050,1058,1065,1073,1076,1076,1077,1077,1077,1077],"ymouse":[618,618,618,618,618,618,618,618,618,618,618,618,618,618,618,618,618,618,618,618,618,618,618,618,618,618,618,618,618,618,618,618,618,618,618,618,618,618,618,618,618,618,618,618,618,618,618,618,618,618,618,618,618,618,618,618,618,618,618,618,618,618,618,618,618,618,618,618,618,618,618,607,601,586,511,464,416,381,341,285,264,247,229,212,168,162,147,142,140,139,136,133,126,119,107,102,100,100,100,100,99],"timestamp_mouse":[19,20,43,61,81,100,120,141,161,180,200,220,241,261,281,300,320,341,361,380,400,421,440,461,480,500,520,540,561,581,600,621,641,661,681,700,721,740,760,780,800,820,840,860,880,901,920,940,960,980,1000,1021,1040,1061,1081,1100,1121,1140,1161,1181,1200,1220,1240,1260,1281,1301,1321,1340,1360,1381,1401,1421,1440,1461,1480,1501,1520,1541,1560,1580,1600,1620,1640,1661,1680,1700,1720,1741,1760,1780,1801,1820,1840,1860,1880,1900,1920,1941,1961,1980,2000],"xSR":741.5,"ySR":573.95,"xT1":424.9,"yT1":0,"xT2":1058.1,"yT2":0,"toosoon":0,"cond_shown":"Congruent","ratio_trial":300,"L_num":8,"L_den":15,"R_num":10,"R_den":12,"correct_side":2,"subjID":"valentinaramirez7","gender":"1","school":"4","age":"9"},{"start_time":1552054164342,"click_time":1552054166896,"finger_time":1552054166597,"fix_duration":1484.0342924503689,"trial":8,"RT":2255,"MT":299,"sideResp":1,"stimulus":[],"xmouse":[782,782,782,782,782,782,782,782,782,782,782,782,782,782,782,782,782,782,782,782,782,782,782,782,782,782,782,782,782,782,782,782,782,782,782,782,782,782,782,782,782,782,782,782,782,782,782,782,782,782,782,782,782,782,782,782,782,782,782,782,782,782,782,782,782,782,782,782,782,782,782,782,782,782,782,782,782,782,782,782,782,782,782,782,782,782,782,782,782,782,782,782,782,782,782,782,782,782,782,782,782,782,782,782,782,782,782,782,782,783,783,783,782,779,772,768,761,757,754,752,740,720,686,646,553,505,461,428],"ymouse":[630,630,630,630,630,630,630,630,630,630,630,630,630,630,630,630,630,630,630,630,630,630,630,630,630,630,630,630,630,630,630,630,630,630,630,630,630,630,630,630,630,630,630,630,630,630,630,630,630,630,630,630,630,630,630,630,630,630,630,630,630,630,630,630,630,630,630,630,630,630,630,630,630,630,630,630,630,630,630,630,630,630,630,630,630,630,630,630,630,630,630,630,630,630,630,630,630,630,630,630,630,630,630,630,630,630,630,630,630,614,596,574,555,543,525,515,505,501,498,497,483,461,421,378,265,200,139,90],"timestamp_mouse":[15,37,54,74,95,114,134,155,175,194,215,234,254,275,295,314,334,354,374,394,415,435,454,474,494,514,535,555,574,595,614,635,654,675,694,714,734,755,775,795,814,834,854,876,894,914,934,954,974,994,1015,1034,1055,1074,1094,1114,1135,1154,1175,1195,1214,1234,1255,1275,1295,1314,1335,1354,1374,1395,1414,1435,1454,1474,1495,1514,1534,1555,1574,1594,1614,1634,1654,1674,1694,1715,1734,1755,1774,1794,1814,1835,1854,1875,1894,1915,1934,1955,1975,1995,2015,2035,2054,2075,2095,2115,2134,2154,2174,2194,2214,2234,2255,2275,2294,2315,2334,2355,2374,2394,2414,2434,2455,2475,2494,2514,2534,2554],"xSR":741.5,"ySR":573.95,"xT1":424.9,"yT1":0,"xT2":1058.1,"yT2":0,"toosoon":0,"cond_shown":"Congruent","ratio_trial":200,"L_num":8,"L_den":15,"R_num":3,"R_den":9,"correct_side":1,"subjID":"valentinaramirez7","gender":"1","school":"4","age":"9"},{"start_time":1552054169426,"click_time":1552054172916,"finger_time":1552054172136,"fix_duration":907.5114714269333,"trial":9,"RT":2710,"MT":780,"sideResp":2,"stimulus":[],"xmouse":[794,794,794,794,794,794,794,794,794,794,794,794,794,794,794,794,794,794,794,794,794,794,794,794,794,794,794,794,794,794,794,794,794,794,794,794,794,794,794,794,794,794,794,794,794,794,794,794,794,794,794,794,794,794,794,794,794,794,794,794,794,794,794,794,794,794,794,794,794,794,794,794,794,794,794,794,794,794,794,794,794,794,794,794,794,794,794,794,794,794,794,794,794,794,794,794,794,794,794,794,794,794,794,794,794,794,794,794,794,794,794,794,794,794,794,794,794,794,794,794,794,794,794,794,794,795,796,797,797,797,797,797,797,797,798,802,808,813,824,836,858,865,869,869,869,871,874,877,880,887,897,902,911,925,945,993,1052,1093,1134,1166,1189,1190,1190,1190,1190,1190,1190,1190,1190,1190,1190,1188,1176,1163,1151],"ymouse":[626,626,626,626,626,626,626,626,626,626,626,626,626,626,626,626,626,626,626,626,626,626,626,626,626,626,626,626,626,626,626,626,626,626,626,626,626,626,626,626,626,626,626,626,626,626,626,626,626,626,626,626,626,626,626,626,626,626,626,626,626,626,626,626,626,626,626,626,626,626,626,626,626,626,626,626,626,626,626,626,626,626,626,626,626,626,626,626,626,626,626,626,626,626,626,626,626,626,626,626,626,626,626,626,626,626,626,626,626,626,626,626,626,626,626,626,626,626,626,626,626,626,626,626,623,618,610,604,599,595,592,591,589,584,577,545,508,461,388,306,192,170,165,164,164,163,160,156,152,149,147,147,147,147,147,147,139,127,106,82,42,27,20,19,19,19,19,19,19,19,19,17,15,12,11],"timestamp_mouse":[13,41,50,71,90,111,130,150,170,190,211,229,251,271,291,310,330,350,371,390,409,431,450,470,491,511,531,551,571,591,611,631,651,671,691,710,731,751,771,790,811,830,850,870,891,910,930,950,970,991,1010,1030,1049,1071,1091,1111,1131,1150,1170,1190,1210,1231,1250,1270,1290,1311,1330,1351,1371,1390,1411,1430,1451,1470,1491,1511,1530,1551,1571,1590,1610,1631,1650,1671,1691,1710,1731,1750,1771,1791,1810,1829,1851,1871,1891,1910,1931,1951,1970,1989,2011,2030,2049,2070,2091,2111,2131,2150,2171,2190,2211,2230,2250,2269,2291,2309,2331,2350,2371,2391,2410,2431,2451,2471,2491,2510,2531,2550,2571,2591,2610,2630,2651,2670,2691,2710,2730,2749,2770,2791,2809,2830,2850,2871,2890,2910,2930,2950,2970,2990,3010,3030,3050,3071,3090,3109,3130,3149,3170,3191,3210,3230,3251,3270,3291,3310,3330,3350,3371,3390,3410,3431,3450,3470,3490],"xSR":741.5,"ySR":573.95,"xT1":424.9,"yT1":0,"xT2":1058.1,"yT2":0,"toosoon":0,"cond_shown":"Incongruent","ratio_trial":200,"L_num":6,"L_den":20,"R_num":3,"R_den":6,"correct_side":2,"subjID":"valentinaramirez7","gender":"1","school":"4","age":"9"},{"start_time":1552054174335,"click_time":1552054176236,"finger_time":1552054175875,"fix_duration":497.9122639859203,"trial":10,"RT":1540,"MT":361,"sideResp":1,"stimulus":[],"xmouse":[796,796,796,796,796,796,796,796,796,796,796,796,796,796,796,796,796,796,796,796,796,796,796,796,796,796,796,796,796,796,796,796,796,796,796,796,796,796,796,796,796,796,796,796,796,796,796,796,796,796,796,796,796,796,796,796,796,796,796,796,796,796,796,796,796,796,796,796,796,796,796,796,796,796,794,788,773,744,700,649,585,572,559,552,547,539,532,523,523,518,506,499,494,486,477,455],"ymouse":[645,645,645,645,645,645,645,645,645,645,645,645,645,645,645,645,645,645,645,645,645,645,645,645,645,645,645,645,645,645,645,645,645,645,645,645,645,645,645,645,645,645,645,645,645,645,645,645,645,645,645,645,645,645,645,645,645,645,645,645,645,645,645,645,645,645,645,645,645,645,645,645,645,645,642,626,601,562,522,488,440,420,391,371,355,324,308,281,281,266,226,206,182,153,122,64],"timestamp_mouse":[10,34,42,61,82,102,122,142,162,182,202,221,241,261,281,301,321,342,361,381,402,422,442,462,480,502,520,541,561,582,601,620,641,661,682,701,721,741,761,781,802,821,840,862,882,902,921,941,961,982,1002,1022,1041,1062,1081,1101,1121,1141,1161,1182,1202,1222,1242,1261,1282,1302,1322,1341,1361,1382,1402,1422,1441,1461,1481,1502,1522,1540,1560,1582,1601,1622,1640,1662,1681,1701,1746,1748,1762,1781,1801,1821,1841,1861,1881,1901],"xSR":741.5,"ySR":573.95,"xT1":424.9,"yT1":0,"xT2":1058.1,"yT2":0,"toosoon":0,"cond_shown":"Congruent","ratio_trial":200,"L_num":9,"L_den":20,"R_num":4,"R_den":16,"correct_side":1,"subjID":"valentinaramirez7","gender":"1","school":"4","age":"9"},{"start_time":1552054178201,"click_time":1552054180437,"finger_time":1552054179718,"fix_duration":584.1902515315081,"trial":11,"RT":1517,"MT":719,"sideResp":1,"stimulus":[],"xmouse":[784,784,784,784,784,784,784,784,784,784,784,784,784,784,784,784,784,784,784,784,784,784,784,784,784,784,784,784,784,784,784,784,784,784,784,784,784,784,784,784,784,784,784,784,784,784,784,784,784,784,784,784,784,784,784,784,784,784,784,784,784,784,784,784,784,784,784,784,784,785,785,783,780,777,771,749,737,720,709,693,668,658,648,638,625,614,599,594,590,583,575,557,551,543,538,534,530,530,530,530,530,530,530,530,530,530,530,530,529,529,527,517],"ymouse":[614,614,614,614,614,614,614,614,614,614,614,614,614,614,614,614,614,614,614,614,614,614,614,614,614,614,614,614,614,614,614,614,614,614,614,614,614,614,614,614,614,614,614,614,614,614,614,614,614,614,614,614,614,614,614,614,614,614,614,614,614,614,614,614,614,614,614,614,614,614,611,605,602,595,586,553,535,505,478,447,404,388,369,345,316,294,265,248,231,205,183,135,116,94,78,66,57,57,57,57,57,57,57,57,57,57,57,57,56,55,55,54],"timestamp_mouse":[15,36,56,75,96,116,135,155,175,195,215,235,255,276,296,316,335,355,376,396,415,435,455,475,496,516,535,555,576,595,614,636,655,676,695,716,736,755,775,795,816,835,855,876,896,916,936,956,974,996,1016,1036,1056,1075,1095,1116,1136,1155,1174,1195,1215,1236,1256,1275,1296,1316,1335,1355,1374,1395,1415,1435,1455,1475,1496,1517,1534,1556,1574,1595,1617,1635,1656,1676,1696,1715,1735,1755,1775,1795,1815,1836,1856,1875,1895,1915,1936,1955,1974,1995,2015,2036,2056,2076,2095,2115,2135,2155,2176,2195,2214,2235],"xSR":741.5,"ySR":573.95,"xT1":424.9,"yT1":0,"xT2":1058.1,"yT2":0,"toosoon":0,"cond_shown":"Congruent","ratio_trial":200,"L_num":21,"L_den":30,"R_num":2,"R_den":4,"correct_side":1,"subjID":"valentinaramirez7","gender":"1","school":"4","age":"9"},{"start_time":1552054182171,"click_time":1552054183797,"finger_time":1552054183417,"fix_duration":433.47278146512525,"trial":12,"RT":1246,"MT":380,"sideResp":2,"stimulus":[],"xmouse":[793,793,793,793,793,793,793,793,793,793,793,793,793,793,793,793,793,793,793,793,793,793,793,793,793,793,793,793,793,793,793,793,793,793,792,792,792,792,792,792,792,792,792,792,792,792,792,792,792,792,792,792,792,792,792,792,792,792,792,795,801,804,816,826,838,858,875,892,918,943,957,972,983,1010,1025,1038,1049,1053,1056,1056,1057,1060],"ymouse":[622,622,622,622,622,622,622,622,622,622,622,622,622,622,622,622,622,622,622,622,622,622,622,622,622,622,622,622,622,622,622,622,622,622,622,622,622,622,622,622,622,622,622,622,622,622,622,622,622,622,622,622,622,622,622,622,622,622,619,617,605,596,572,553,524,487,449,409,345,295,271,245,219,157,120,85,61,52,47,46,43,40],"timestamp_mouse":[4,25,46,66,86,105,125,146,166,186,205,225,246,265,286,306,325,346,366,386,405,425,446,466,486,504,526,546,566,585,605,625,646,666,685,706,726,745,764,785,805,825,845,866,885,906,924,946,965,985,1005,1025,1044,1066,1085,1105,1125,1146,1165,1185,1205,1225,1246,1265,1286,1305,1325,1345,1365,1385,1405,1424,1445,1466,1486,1505,1524,1546,1566,1587,1605,1626],"xSR":741.5,"ySR":573.95,"xT1":424.9,"yT1":0,"xT2":1058.1,"yT2":0,"toosoon":0,"cond_shown":"Incongruent","ratio_trial":300,"L_num":13,"L_den":26,"R_num":12,"R_den":15,"correct_side":2,"subjID":"valentinaramirez7","gender":"1","school":"4","age":"9"},{"start_time":1552054185922,"click_time":1552054187857,"finger_time":1552054187336,"fix_duration":1164.2866597908246,"trial":13,"RT":1414,"MT":521,"sideResp":2,"stimulus":[],"xmouse":[800,800,800,800,800,800,800,800,800,800,800,800,800,800,799,799,799,799,799,799,799,799,799,799,799,799,799,799,799,799,799,799,799,799,799,799,799,799,799,799,799,799,799,799,798,798,798,798,798,798,798,798,798,798,798,798,798,798,798,798,798,798,798,798,798,798,798,798,798,799,803,806,810,815,827,850,861,879,891,904,925,939,950,960,980,989,999,1009,1020,1031,1041,1043,1043,1044,1044,1053,1061],"ymouse":[601,601,601,601,601,601,601,601,601,601,601,601,601,601,601,600,600,600,600,600,600,600,600,600,600,600,600,600,600,600,600,600,600,600,600,600,600,600,599,599,599,599,599,599,598,598,598,598,597,596,596,596,596,595,595,595,595,595,595,595,595,595,595,595,595,595,593,591,586,576,553,519,496,468,404,260,216,183,164,147,121,105,90,81,66,61,59,58,58,58,58,59,59,59,59,59,59],"timestamp_mouse":[14,44,54,74,95,114,133,155,174,194,215,234,255,275,295,315,334,354,375,395,415,434,455,475,495,513,534,555,574,594,614,634,655,674,694,714,734,755,775,795,814,834,854,875,895,915,934,955,975,995,1014,1034,1053,1074,1094,1115,1134,1155,1175,1194,1214,1235,1255,1274,1295,1314,1334,1355,1374,1394,1414,1435,1454,1474,1494,1514,1534,1554,1575,1594,1614,1634,1654,1674,1695,1714,1734,1754,1773,1794,1814,1834,1854,1874,1895,1914,1934],"xSR":741.5,"ySR":573.95,"xT1":424.9,"yT1":0,"xT2":1058.1,"yT2":0,"toosoon":0,"cond_shown":"Incongruent","ratio_trial":300,"L_num":4,"L_den":20,"R_num":2,"R_den":4,"correct_side":2,"subjID":"valentinaramirez7","gender":"1","school":"4","age":"9"},{"start_time":1552054189538,"click_time":1552054191736,"finger_time":1552054191477,"fix_duration":558.6837195508749,"trial":14,"RT":1939,"MT":259,"sideResp":1,"stimulus":[],"xmouse":[793,793,793,793,793,793,793,793,793,793,793,793,793,793,793,793,793,793,793,793,793,793,793,793,793,793,793,793,793,793,793,793,793,793,793,793,793,793,793,793,793,793,793,793,793,793,793,793,793,793,793,793,793,793,793,793,793,793,793,793,793,793,793,793,793,793,793,793,793,793,793,793,793,793,793,793,793,793,793,793,793,793,793,793,793,793,793,793,793,793,793,793,793,793,792,789,785,781,777,770,760,752,738,711,697,683,669,651,623,524],"ymouse":[611,611,611,611,611,611,611,611,611,611,611,611,611,611,611,611,611,611,611,611,611,611,611,611,611,611,611,611,611,611,611,611,611,611,611,611,611,611,611,611,611,611,611,611,611,611,611,611,611,611,611,611,611,611,611,611,611,611,611,611,611,611,611,611,611,611,611,611,611,611,611,611,611,611,611,611,611,611,611,611,611,611,611,611,611,611,611,611,611,611,611,611,611,604,594,583,571,558,546,511,472,443,408,341,311,285,259,230,186,87],"timestamp_mouse":[24,43,59,78,98,118,139,158,179,198,218,238,257,278,298,318,339,358,378,398,419,438,459,478,499,518,538,559,578,598,618,638,659,678,699,718,737,758,778,799,818,839,858,878,899,918,939,958,979,999,1018,1038,1059,1079,1099,1118,1139,1158,1177,1199,1219,1239,1259,1279,1299,1319,1338,1357,1378,1399,1419,1439,1459,1477,1498,1519,1538,1559,1578,1598,1617,1639,1658,1679,1698,1719,1738,1759,1779,1798,1819,1838,1859,1879,1899,1918,1939,1958,1978,1999,2019,2038,2058,2079,2098,2119,2138,2159,2179,2198],"xSR":741.5,"ySR":573.95,"xT1":424.9,"yT1":0,"xT2":1058.1,"yT2":0,"toosoon":0,"cond_shown":"Congruent","ratio_trial":200,"L_num":4,"L_den":10,"R_num":3,"R_den":15,"correct_side":1,"subjID":"valentinaramirez7","gender":"1","school":"4","age":"9"},{"start_time":1552054194310,"click_time":1552054196257,"finger_time":1552054195576,"fix_duration":1252.6370818831153,"trial":15,"RT":1266,"MT":681,"sideResp":1,"stimulus":[],"xmouse":[759,759,759,759,759,759,759,759,759,759,759,759,759,759,759,759,759,759,759,759,759,759,759,759,759,759,759,759,759,759,759,759,759,759,759,759,759,759,759,759,759,759,759,759,759,759,759,759,759,758,756,756,756,756,756,756,756,756,756,756,756,754,745,740,723,708,685,681,679,674,663,631,616,590,548,483,334,312,310,310,309,309,309,309,312,320,341,353,365,375,379,380,381,383,390,405,417,425],"ymouse":[609,609,609,609,609,609,609,609,609,609,609,609,609,609,609,609,609,609,609,609,609,609,609,609,609,609,609,609,609,609,609,609,609,609,609,609,609,609,609,609,609,609,609,609,609,609,607,605,603,600,597,596,595,595,595,595,595,595,595,595,595,593,577,568,541,525,502,499,494,477,448,375,338,277,220,160,80,71,70,70,68,66,66,65,65,65,65,65,66,67,68,68,68,68,68,68,68,68],"timestamp_mouse":[13,38,46,67,87,107,126,146,167,186,207,225,246,267,286,307,326,345,367,387,407,426,445,467,487,507,526,546,567,587,607,625,646,667,686,707,726,746,766,787,807,826,847,867,886,907,926,946,965,986,1008,1026,1047,1065,1086,1107,1126,1146,1167,1187,1206,1225,1247,1266,1287,1305,1326,1347,1366,1385,1406,1426,1446,1466,1486,1506,1526,1546,1567,1586,1606,1626,1646,1666,1686,1706,1726,1747,1766,1785,1806,1827,1847,1866,1887,1907,1925,1946],"xSR":741.5,"ySR":573.95,"xT1":424.9,"yT1":0,"xT2":1058.1,"yT2":0,"toosoon":0,"cond_shown":"Congruent","ratio_trial":300,"L_num":12,"L_den":24,"R_num":2,"R_den":10,"correct_side":1,"subjID":"valentinaramirez7","gender":"1","school":"4","age":"9"},{"start_time":1552054198081,"click_time":1552054199857,"finger_time":1552054199416,"fix_duration":484.96017069654516,"trial":16,"RT":1335,"MT":441,"sideResp":1,"stimulus":[],"xmouse":[760,760,760,760,760,760,760,760,760,760,760,760,760,760,760,760,760,760,760,760,760,760,760,760,760,760,760,760,760,760,760,760,760,760,760,760,760,760,760,760,760,760,760,760,760,760,760,760,760,760,760,760,760,760,760,760,760,760,760,760,760,760,760,760,758,751,743,724,716,704,687,666,603,564,547,533,515,487,483,482,480,480,480,480,481,481,481,481,481],"ymouse":[598,598,598,598,598,598,598,598,598,598,598,598,598,598,598,598,598,598,598,598,598,598,598,598,598,598,598,598,598,598,598,598,598,598,598,598,598,598,598,598,598,598,598,598,598,598,598,598,598,598,598,598,598,598,598,598,598,598,598,598,598,598,598,598,594,577,561,527,505,481,440,396,315,272,253,237,221,195,191,185,179,172,170,165,159,147,139,114,97],"timestamp_mouse":[15,37,55,75,95,115,134,156,175,196,214,236,255,276,295,316,335,356,375,395,415,436,456,475,495,516,535,556,575,595,615,636,655,675,695,714,736,756,775,795,816,834,856,875,895,915,936,955,975,995,1015,1036,1056,1075,1096,1115,1136,1156,1176,1195,1215,1236,1256,1275,1296,1315,1335,1354,1375,1395,1416,1435,1455,1476,1495,1514,1535,1556,1576,1596,1616,1636,1655,1675,1695,1716,1735,1755,1776],"xSR":741.5,"ySR":573.95,"xT1":424.9,"yT1":0,"xT2":1058.1,"yT2":0,"toosoon":0,"cond_shown":"Congruent","ratio_trial":300,"L_num":24,"L_den":30,"R_num":8,"R_den":16,"correct_side":1,"subjID":"valentinaramirez7","gender":"1","school":"4","age":"9"},{"start_time":1552054202122,"click_time":1552054203936,"finger_time":1552054203536,"fix_duration":1304.783347272441,"trial":17,"RT":1414,"MT":400,"sideResp":2,"stimulus":[],"xmouse":[795,795,795,795,795,795,795,795,795,795,795,795,795,795,795,795,795,795,795,795,795,795,795,795,795,795,795,795,795,795,795,795,795,795,795,795,795,795,795,795,795,795,795,795,795,795,795,795,795,795,795,795,795,795,795,795,795,795,795,795,795,795,795,795,795,795,795,795,794,794,796,802,807,815,826,858,870,890,912,935,978,996,1005,1010,1015,1018,1022,1029,1041,1052,1067],"ymouse":[610,610,610,610,610,610,610,610,610,610,610,610,610,610,610,610,610,610,610,610,610,610,610,610,610,610,610,610,610,610,610,610,610,610,610,610,610,610,610,610,610,610,610,610,610,610,610,610,610,610,610,610,610,610,610,610,610,610,610,610,610,610,610,610,610,610,610,610,608,600,564,537,520,492,454,381,351,312,273,228,169,142,125,113,105,96,90,79,67,53,34],"timestamp_mouse":[13,46,54,74,95,115,134,155,175,195,214,234,255,275,295,314,335,355,374,395,415,435,455,475,494,515,534,555,574,594,614,635,654,674,694,714,734,755,775,795,815,834,854,875,895,915,935,954,974,994,1014,1034,1055,1075,1095,1115,1135,1154,1175,1194,1214,1235,1255,1273,1294,1315,1335,1354,1374,1394,1414,1435,1454,1474,1495,1514,1533,1553,1574,1596,1614,1635,1654,1674,1694,1714,1735,1754,1773,1794,1814],"xSR":741.5,"ySR":573.95,"xT1":424.9,"yT1":0,"xT2":1058.1,"yT2":0,"toosoon":0,"cond_shown":"Congruent","ratio_trial":100,"L_num":7,"L_den":14,"R_num":9,"R_den":15,"correct_side":2,"subjID":"valentinaramirez7","gender":"1","school":"4","age":"9"},{"start_time":1552054207086,"click_time":1552054209017,"finger_time":1552054208117,"fix_duration":1028.3097501016834,"trial":18,"RT":1031,"MT":900,"sideResp":2,"stimulus":[],"xmouse":[794,794,794,794,794,794,794,794,794,794,794,794,794,794,794,794,794,794,794,794,794,794,794,794,794,794,794,794,794,794,794,794,794,794,794,794,794,794,794,794,794,794,794,794,794,794,794,794,797,804,808,811,813,814,823,833,848,892,922,956,993,1027,1087,1115,1154,1181,1204,1221,1222,1222,1222,1222,1222,1222,1222,1221,1220,1216,1214,1213,1211,1210,1205,1199,1193,1186,1181,1179,1179,1179,1179,1179,1179,1179,1178,1172,1156],"ymouse":[619,619,619,619,619,619,619,619,619,619,619,619,619,619,619,619,619,619,619,619,619,619,619,619,619,619,619,619,619,619,619,619,619,619,619,619,619,619,619,619,619,619,619,619,619,619,619,618,605,590,576,565,556,553,531,506,475,387,322,256,182,117,0,0,0,0,0,0,0,0,0,0,0,0,0,0,1,10,12,13,16,18,24,31,36,40,43,45,45,45,45,45,45,45,45,45,47],"timestamp_mouse":[19,31,50,70,90,111,131,150,171,189,211,230,251,271,290,311,330,350,371,389,411,430,449,470,491,511,530,551,571,590,611,629,651,670,690,711,730,751,771,790,810,830,851,871,891,911,930,949,970,990,1010,1031,1050,1070,1090,1110,1130,1151,1170,1190,1211,1231,1250,1270,1291,1311,1330,1351,1371,1391,1411,1430,1450,1471,1491,1511,1530,1551,1570,1590,1610,1630,1649,1671,1690,1710,1731,1750,1770,1791,1811,1831,1850,1871,1891,1910,1931],"xSR":741.5,"ySR":573.95,"xT1":424.9,"yT1":0,"xT2":1058.1,"yT2":0,"toosoon":0,"cond_shown":"Congruent","ratio_trial":300,"L_num":3,"L_den":6,"R_num":4,"R_den":5,"correct_side":2,"subjID":"valentinaramirez7","gender":"1","school":"4","age":"9"},{"start_time":1552054212624,"click_time":1552054214756,"finger_time":1552054214336,"fix_duration":1345.3347278093916,"trial":19,"RT":1712,"MT":420,"sideResp":1,"stimulus":[],"xmouse":[786,786,786,786,786,786,786,786,786,786,786,786,786,786,786,786,786,785,785,785,785,785,785,785,785,785,785,785,785,785,785,785,785,785,785,785,785,785,785,785,785,785,785,785,785,785,785,785,785,785,785,785,785,785,785,785,785,785,785,785,785,785,785,785,785,785,785,785,785,785,785,785,785,785,785,785,785,785,785,785,785,785,784,781,778,750,697,653,612,578,526,513,505,502,502,496,494,493,493,492,492,492,492,492,491,483,469],"ymouse":[626,626,626,626,626,626,626,626,626,626,626,626,626,626,626,626,626,626,626,626,626,626,626,626,626,626,626,626,626,626,626,626,626,626,626,626,626,626,626,626,626,626,626,626,626,626,626,626,626,626,626,626,626,626,626,626,626,626,626,626,626,626,626,626,626,626,626,626,626,626,626,626,626,626,626,626,626,626,626,626,626,626,625,618,614,558,477,417,362,315,245,227,215,208,202,184,175,172,170,169,169,169,167,158,148,119,77],"timestamp_mouse":[13,44,52,72,93,112,131,151,173,193,213,233,253,272,293,313,332,352,373,392,413,433,451,472,492,513,532,553,572,593,613,632,651,673,693,712,732,753,772,792,813,832,853,872,893,912,933,952,973,993,1013,1032,1053,1072,1093,1113,1132,1153,1172,1193,1213,1232,1252,1272,1292,1313,1333,1352,1373,1393,1413,1431,1452,1472,1493,1512,1532,1552,1573,1593,1613,1633,1653,1673,1692,1712,1733,1751,1772,1793,1812,1833,1852,1872,1893,1912,1934,1952,1972,1992,2012,2032,2053,2073,2093,2112,2132],"xSR":741.5,"ySR":573.95,"xT1":424.9,"yT1":0,"xT2":1058.1,"yT2":0,"toosoon":0,"cond_shown":"Congruent","ratio_trial":300,"L_num":3,"L_den":6,"R_num":2,"R_den":10,"correct_side":1,"subjID":"valentinaramirez7","gender":"1","school":"4","age":"9"},{"start_time":1552054216616,"click_time":1552054218796,"finger_time":1552054218477,"fix_duration":576.6584581855687,"trial":20,"RT":1861,"MT":319,"sideResp":2,"stimulus":[],"xmouse":[797,797,797,797,797,797,797,797,797,797,797,797,797,797,797,797,797,797,797,797,797,797,797,797,797,797,797,797,797,797,797,797,797,797,797,797,797,797,797,797,797,797,797,797,797,797,797,797,797,797,797,797,797,797,797,797,797,797,797,797,797,797,797,797,797,797,797,797,797,797,797,797,797,797,797,797,797,797,797,797,797,797,797,797,797,797,797,797,797,798,800,803,803,807,809,815,841,886,931,978,1010,1038,1043,1046,1050,1056,1073,1075,1084,1090],"ymouse":[607,607,607,607,607,607,607,607,607,607,607,607,607,607,607,607,607,607,607,607,607,607,607,607,607,607,607,607,607,607,607,607,607,607,607,607,607,607,607,607,607,607,607,607,607,607,607,607,607,607,607,607,607,607,607,607,607,607,607,607,607,607,607,607,607,607,607,607,607,607,607,607,607,607,607,607,607,607,607,607,607,607,607,607,607,607,607,607,607,607,600,582,574,564,557,543,488,424,364,310,270,221,205,194,183,173,136,130,107,92],"timestamp_mouse":[10,34,40,60,80,101,120,140,160,180,200,221,239,261,281,301,321,339,360,380,401,421,440,461,481,499,521,540,559,580,601,621,640,661,680,700,719,740,759,780,800,821,839,861,881,901,921,941,961,980,1001,1021,1041,1060,1081,1100,1120,1141,1159,1180,1201,1220,1241,1261,1279,1301,1321,1341,1361,1379,1401,1421,1441,1461,1480,1501,1521,1541,1561,1579,1601,1621,1639,1660,1681,1701,1721,1741,1761,1780,1800,1821,1841,1861,1881,1900,1920,1941,1960,1980,2000,2020,2041,2061,2080,2101,2119,2140,2160,2180],"xSR":741.5,"ySR":573.95,"xT1":424.9,"yT1":0,"xT2":1058.1,"yT2":0,"toosoon":0,"cond_shown":"Incongruent","ratio_trial":100,"L_num":8,"L_den":20,"R_num":1,"R_den":2,"correct_side":2,"subjID":"valentinaramirez7","gender":"1","school":"4","age":"9"},{"start_time":1552054220269,"click_time":1552054221897,"finger_time":1552054221617,"fix_duration":250,"trial":21,"RT":1348,"MT":280,"sideResp":1,"stimulus":[],"xmouse":[818,818,818,818,818,818,818,818,818,818,818,818,818,818,818,818,818,818,818,818,818,818,818,818,818,818,818,818,818,818,818,818,818,818,818,818,818,818,818,818,818,818,818,818,818,818,818,818,818,818,818,818,818,818,818,818,818,818,818,818,818,817,817,816,815,807,794,775,740,726,711,694,679,642,629,614,604,591,542,514,492,474],"ymouse":[616,616,616,616,616,616,616,616,616,616,616,616,616,616,616,616,616,616,616,616,616,616,616,616,616,616,616,616,616,616,616,616,616,616,616,616,616,616,616,616,616,616,616,616,616,616,616,616,616,616,616,616,616,616,616,616,616,616,616,616,616,616,616,616,615,602,583,562,511,489,469,446,419,345,313,277,255,228,157,124,102,86],"timestamp_mouse":[12,33,47,67,88,108,127,148,168,188,207,228,248,268,287,306,327,348,368,387,407,428,448,467,487,507,527,547,567,587,608,627,648,666,687,706,727,747,767,786,807,827,848,868,886,908,927,948,968,987,1008,1028,1048,1067,1088,1108,1127,1148,1168,1187,1208,1228,1247,1267,1288,1308,1328,1348,1367,1387,1407,1427,1447,1467,1487,1507,1528,1547,1567,1587,1606,1628],"xSR":741.5,"ySR":573.95,"xT1":424.9,"yT1":0,"xT2":1058.1,"yT2":0,"toosoon":0,"cond_shown":"Congruent","ratio_trial":300,"L_num":20,"L_den":25,"R_num":5,"R_den":10,"correct_side":1,"subjID":"valentinaramirez7","gender":"1","school":"4","age":"9"},{"start_time":1552054223348,"click_time":1552054225198,"finger_time":1552054224696,"fix_duration":250,"trial":22,"RT":1348,"MT":502,"sideResp":1,"stimulus":[],"xmouse":[762,762,762,762,762,762,762,762,762,762,762,762,762,762,762,762,762,762,762,762,762,762,762,762,762,762,762,762,762,762,762,762,762,762,762,762,762,762,762,762,762,762,762,762,762,762,762,762,762,762,762,762,762,762,762,762,762,762,762,762,762,762,762,762,762,762,756,741,686,654,636,625,621,618,606,596,580,559,533,528,527,517,503,490,480,480,479,479,479,481,482,485,487],"ymouse":[608,608,608,608,608,608,608,608,608,608,608,608,608,608,608,608,608,608,608,608,608,608,608,608,608,608,608,608,608,608,608,608,608,608,608,608,608,608,608,608,608,608,608,608,608,608,608,608,608,608,608,608,608,608,608,608,608,608,608,608,608,608,608,608,608,603,590,570,514,483,461,427,403,378,330,305,281,257,232,223,220,199,181,163,144,140,138,137,136,126,122,103,94],"timestamp_mouse":[15,37,48,68,88,108,128,148,169,188,208,229,248,268,289,308,329,349,367,388,408,427,448,469,488,508,528,548,569,588,608,629,649,669,689,708,729,747,769,789,807,829,849,868,889,908,929,949,969,989,1008,1028,1049,1068,1089,1109,1128,1149,1169,1189,1208,1228,1249,1267,1289,1309,1329,1348,1369,1387,1408,1428,1449,1469,1488,1508,1529,1548,1570,1588,1607,1628,1649,1669,1688,1708,1728,1749,1768,1788,1808,1828,1849],"xSR":741.5,"ySR":573.95,"xT1":424.9,"yT1":0,"xT2":1058.1,"yT2":0,"toosoon":0,"cond_shown":"Congruent","ratio_trial":300,"L_num":20,"L_den":25,"R_num":14,"R_den":28,"correct_side":1,"subjID":"valentinaramirez7","gender":"1","school":"4","age":"9"},{"start_time":1552054227160,"click_time":1552054228877,"finger_time":1552054228536,"fix_duration":442.2342691097458,"trial":23,"RT":1376,"MT":341,"sideResp":2,"stimulus":[],"xmouse":[806,806,806,806,806,806,806,806,806,806,806,806,806,806,806,806,806,806,806,806,806,806,806,806,806,806,806,806,806,806,806,806,806,806,806,806,806,806,806,806,806,806,806,806,806,806,806,806,806,806,806,806,806,806,806,806,806,806,806,806,806,806,806,806,806,807,808,810,818,828,846,863,879,925,964,1001,1029,1043,1049,1051,1051,1052,1055,1056,1058,1060],"ymouse":[615,615,615,615,615,615,615,615,615,615,615,615,615,615,615,615,615,615,615,615,615,615,615,615,615,615,615,615,615,615,615,615,615,615,615,615,615,615,615,615,615,615,615,615,615,615,615,615,615,615,615,615,615,615,615,615,615,615,615,615,615,615,615,615,615,612,606,592,548,519,485,453,424,344,292,237,207,183,163,153,142,132,118,112,104,95],"timestamp_mouse":[16,42,57,77,96,117,136,156,177,196,217,237,256,276,297,316,337,356,377,397,417,437,457,476,496,517,536,555,577,596,616,637,656,676,696,717,735,755,777,797,817,837,856,877,896,917,937,956,975,996,1016,1036,1057,1077,1097,1115,1137,1157,1175,1197,1217,1237,1257,1275,1297,1317,1336,1356,1376,1397,1416,1437,1457,1476,1496,1516,1536,1556,1576,1597,1616,1637,1657,1676,1697,1717],"xSR":741.5,"ySR":573.95,"xT1":424.9,"yT1":0,"xT2":1058.1,"yT2":0,"toosoon":0,"cond_shown":"Congruent","ratio_trial":200,"L_num":3,"L_den":10,"R_num":14,"R_den":28,"correct_side":2,"subjID":"valentinaramirez7","gender":"1","school":"4","age":"9"},{"start_time":1552054230839,"click_time":1552054232616,"finger_time":1552054232436,"fix_duration":302.2567918638983,"trial":24,"RT":1597,"MT":180,"sideResp":1,"stimulus":[],"xmouse":[819,819,819,819,819,819,819,819,819,819,819,819,819,819,819,819,819,819,819,819,819,819,819,819,819,819,819,819,819,819,819,819,819,819,819,819,819,819,819,819,819,819,819,819,819,819,819,819,819,819,819,819,819,819,819,819,819,819,819,819,819,819,819,819,819,819,819,819,819,819,819,819,819,819,818,818,817,816,812,793,777,749,706,630,599,566,519,487,465],"ymouse":[599,599,599,599,599,599,599,599,599,599,599,599,599,599,599,599,599,599,599,599,599,599,599,599,599,599,599,599,599,599,599,599,599,599,599,599,599,599,599,599,599,600,600,600,600,600,600,600,600,600,600,600,600,600,600,600,600,600,600,600,600,600,600,600,600,600,600,600,600,600,600,600,600,600,600,600,600,600,595,568,550,516,467,372,321,262,178,127,87],"timestamp_mouse":[17,42,57,77,97,117,136,158,178,198,218,238,257,278,298,317,337,357,377,398,417,437,457,478,497,517,536,557,578,597,617,637,658,677,696,716,738,758,777,797,816,838,857,878,898,916,936,957,978,998,1017,1038,1057,1078,1098,1118,1138,1158,1177,1196,1218,1237,1258,1277,1298,1317,1336,1358,1377,1398,1418,1438,1458,1478,1497,1517,1538,1557,1577,1597,1617,1636,1656,1678,1697,1717,1737,1757,1777],"xSR":741.5,"ySR":573.95,"xT1":424.9,"yT1":0,"xT2":1058.1,"yT2":0,"toosoon":0,"cond_shown":"Incongruent","ratio_trial":100,"L_num":3,"L_den":5,"R_num":8,"R_den":16,"correct_side":1,"subjID":"valentinaramirez7","gender":"1","school":"4","age":"9"},{"start_time":1552054234269,"click_time":1552054235957,"finger_time":1552054235577,"fix_duration":250,"trial":25,"RT":1308,"MT":380,"sideResp":2,"stimulus":[],"xmouse":[782,782,782,782,782,782,782,782,782,782,782,782,782,782,782,782,782,782,782,782,782,782,782,782,782,782,782,782,782,782,782,782,782,782,782,782,782,782,782,782,782,782,782,782,782,782,782,782,782,782,782,782,782,782,782,782,782,782,782,782,782,782,782,786,788,795,796,800,829,852,871,880,887,889,890,894,909,941,957,975,992,1007,1022,1048,1059],"ymouse":[593,593,593,593,593,593,593,593,593,593,593,593,593,593,593,593,593,593,593,593,593,593,593,593,593,593,593,593,593,593,593,593,593,593,593,593,593,593,593,593,593,593,593,593,593,593,593,593,593,593,593,593,593,593,593,593,593,593,593,593,593,593,593,584,577,553,538,512,429,387,350,333,317,313,311,306,288,253,236,221,201,180,157,113,89],"timestamp_mouse":[13,38,47,66,87,108,128,146,168,187,207,228,247,268,288,308,328,347,368,387,407,427,448,467,487,508,528,547,568,588,607,628,648,668,687,708,727,748,767,787,808,827,847,868,888,908,927,946,968,987,1007,1027,1047,1068,1087,1107,1128,1147,1168,1186,1208,1227,1247,1267,1287,1308,1327,1347,1366,1387,1407,1426,1448,1467,1487,1507,1528,1548,1567,1587,1607,1627,1648,1667,1688],"xSR":741.5,"ySR":573.95,"xT1":424.9,"yT1":0,"xT2":1058.1,"yT2":0,"toosoon":0,"cond_shown":"Congruent","ratio_trial":100,"L_num":7,"L_den":14,"R_num":15,"R_den":25,"correct_side":2,"subjID":"valentinaramirez7","gender":"1","school":"4","age":"9"},{"start_time":1552054237168,"click_time":1552054239276,"finger_time":1552054238597,"fix_duration":250,"trial":26,"RT":1429,"MT":679,"sideResp":2,"stimulus":[],"xmouse":[814,814,814,814,814,814,814,814,814,814,814,814,814,814,814,814,814,814,814,814,814,814,814,814,814,814,814,814,814,814,814,814,814,814,814,814,814,814,814,814,814,814,814,814,814,814,814,814,814,814,814,814,814,814,814,814,814,814,814,814,814,814,814,814,814,814,814,814,819,832,835,846,854,870,881,892,908,935,947,960,969,986,1005,1014,1024,1031,1035,1038,1045,1054,1058,1062,1069,1071,1071,1071,1071,1071,1071,1071,1071,1071,1071,1071,1071,1071],"ymouse":[648,648,648,648,648,648,648,648,648,648,648,648,648,648,648,648,648,648,648,648,648,648,648,648,648,648,648,648,648,648,648,648,648,648,648,648,648,648,648,648,648,648,648,648,648,648,648,648,648,648,648,648,648,648,648,648,648,648,648,648,648,648,648,648,648,648,647,645,625,594,587,564,549,514,492,469,443,392,367,337,311,265,204,173,142,117,89,62,15,0,0,0,0,0,0,0,0,0,0,0,0,0,0,0,0,1],"timestamp_mouse":[12,34,48,68,88,107,128,149,169,188,207,229,248,269,288,309,328,347,369,389,409,429,449,469,488,509,529,549,568,589,608,629,649,669,688,709,729,748,769,789,809,828,848,869,888,908,928,949,968,988,1008,1029,1049,1067,1089,1108,1129,1149,1168,1189,1209,1228,1249,1268,1289,1309,1327,1349,1369,1389,1407,1429,1449,1468,1488,1507,1529,1550,1567,1588,1607,1629,1649,1668,1688,1708,1728,1748,1768,1788,1808,1829,1852,1870,1888,1908,1928,1948,1968,1988,2007,2028,2048,2069,2087,2108],"xSR":741.5,"ySR":573.95,"xT1":424.9,"yT1":0,"xT2":1058.1,"yT2":0,"toosoon":0,"cond_shown":"Incongruent","ratio_trial":100,"L_num":10,"L_den":25,"R_num":9,"R_den":18,"correct_side":2,"subjID":"valentinaramirez7","gender":"1","school":"4","age":"9"},{"start_time":1552054241324,"click_time":1552054243596,"finger_time":1552054243056,"fix_duration":884.5931772978843,"trial":27,"RT":1732,"MT":540,"sideResp":1,"stimulus":[],"xmouse":[784,784,784,784,784,784,784,784,784,784,784,784,784,784,784,784,784,784,784,784,784,784,784,784,784,784,784,784,784,784,784,784,784,784,784,784,784,784,784,784,784,784,784,784,784,784,784,784,784,784,784,784,784,784,784,784,784,784,784,784,784,784,784,784,784,784,784,784,784,784,784,784,784,784,784,784,784,784,784,784,783,781,780,778,775,760,750,741,734,727,701,692,661,638,611,606,596,587,578,568,562,562,560,557,555,551,548,545,542,537,524,521,518,513],"ymouse":[640,639,639,639,639,639,638,638,638,638,638,638,638,638,638,638,638,638,638,638,638,638,638,638,638,638,638,638,638,638,638,638,638,638,638,638,638,638,638,638,638,638,638,638,638,638,638,638,638,638,638,638,638,638,638,638,638,638,638,638,638,638,638,638,638,638,638,638,638,638,638,638,638,638,638,638,638,638,638,636,630,623,618,614,603,574,559,543,529,512,457,440,378,340,290,272,253,235,218,201,188,183,171,161,154,147,143,139,134,127,112,107,103,96],"timestamp_mouse":[13,45,52,73,93,111,131,152,171,192,213,232,253,272,291,313,332,352,372,393,413,433,452,473,493,512,531,552,573,593,613,632,651,671,691,711,733,753,773,793,813,833,852,873,892,912,932,952,972,992,1012,1032,1053,1072,1092,1112,1133,1153,1173,1193,1213,1233,1251,1272,1293,1313,1333,1352,1373,1392,1413,1432,1452,1473,1492,1512,1531,1553,1571,1593,1612,1633,1653,1672,1692,1712,1732,1753,1771,1791,1811,1832,1851,1873,1894,1911,1931,1952,1972,1992,2012,2032,2052,2073,2093,2112,2132,2152,2173,2193,2213,2234,2251,2272],"xSR":741.5,"ySR":573.95,"xT1":424.9,"yT1":0,"xT2":1058.1,"yT2":0,"toosoon":0,"cond_shown":"Congruent","ratio_trial":100,"L_num":11,"L_den":22,"R_num":4,"R_den":10,"correct_side":1,"subjID":"valentinaramirez7","gender":"1","school":"4","age":"9"},{"start_time":1552054245287,"click_time":1552054246916,"finger_time":1552054246496,"fix_duration":547.6704118471351,"trial":28,"RT":1209,"MT":420,"sideResp":2,"stimulus":[],"xmouse":[772,772,772,772,772,772,772,772,772,772,773,773,773,773,773,773,773,773,773,774,774,774,774,774,774,774,774,774,774,774,774,774,774,774,774,774,774,774,774,774,774,774,774,774,774,774,774,774,774,774,774,774,774,774,774,774,774,777,781,791,810,844,939,993,1009,1013,1014,1014,1014,1014,1014,1014,1014,1019,1024,1031,1045,1053,1060,1068,1076,1080],"ymouse":[603,603,603,603,603,603,603,603,603,603,603,603,603,603,603,603,603,603,603,603,603,603,603,603,603,603,603,603,603,603,603,603,603,603,603,603,603,603,603,603,603,603,603,603,603,603,603,603,603,603,603,603,603,603,603,603,603,600,594,581,559,525,440,389,375,366,361,347,341,337,330,324,299,269,246,223,182,162,143,126,105,86],"timestamp_mouse":[13,35,49,70,90,109,129,150,168,190,209,229,249,270,289,309,329,350,368,389,409,428,449,469,489,509,529,550,570,588,608,630,650,669,689,709,730,749,769,790,810,829,850,869,890,908,930,949,969,989,1009,1029,1050,1070,1090,1110,1128,1149,1170,1188,1209,1230,1249,1269,1289,1309,1328,1349,1370,1389,1409,1429,1449,1469,1489,1510,1530,1550,1570,1589,1609,1629],"xSR":741.5,"ySR":573.95,"xT1":424.9,"yT1":0,"xT2":1058.1,"yT2":0,"toosoon":0,"cond_shown":"Congruent","ratio_trial":300,"L_num":2,"L_den":10,"R_num":12,"R_den":24,"correct_side":2,"subjID":"valentinaramirez7","gender":"1","school":"4","age":"9"},{"start_time":1552054249160,"click_time":1552054251696,"finger_time":1552054251256,"fix_duration":1002.7217347858223,"trial":29,"RT":2096,"MT":440,"sideResp":2,"stimulus":[],"xmouse":[799,799,799,799,799,799,799,799,799,799,799,799,799,799,799,799,799,799,799,799,799,799,799,799,799,799,799,799,799,799,799,799,799,799,799,799,799,799,799,799,799,799,799,799,799,799,799,799,799,799,799,799,799,799,799,799,799,799,799,799,799,799,799,799,799,799,799,799,799,799,799,799,799,799,799,799,799,799,799,799,799,799,799,799,799,799,799,799,799,799,799,799,799,799,799,799,799,799,799,799,799,799,801,806,814,826,840,858,891,911,921,930,937,951,960,968,978,987,1002,1011,1017,1021,1026,1038,1047,1054,1064],"ymouse":[615,615,615,615,615,615,615,615,615,615,615,615,615,615,615,615,615,615,615,615,615,615,615,615,615,615,615,615,615,615,615,615,615,615,615,615,615,615,615,615,615,615,615,615,615,615,615,615,615,615,615,615,615,615,615,615,615,615,615,615,615,615,615,615,615,615,615,615,615,615,615,615,615,615,615,615,615,615,614,614,614,614,614,614,614,614,614,614,614,614,614,614,614,614,614,614,614,614,614,614,611,610,599,588,572,550,526,500,453,417,393,371,348,308,287,259,232,201,150,121,108,100,93,78,65,53,39],"timestamp_mouse":[17,42,55,76,96,117,135,156,176,195,217,237,257,277,297,315,337,357,375,396,416,436,456,477,497,516,535,556,577,597,617,636,656,677,696,717,736,756,775,797,817,836,856,877,895,916,937,957,976,996,1017,1037,1057,1076,1097,1117,1137,1156,1176,1196,1215,1237,1256,1276,1296,1317,1337,1355,1377,1396,1415,1437,1457,1477,1495,1516,1537,1555,1576,1596,1616,1636,1656,1677,1696,1715,1736,1756,1776,1796,1816,1836,1857,1877,1896,1917,1937,1957,1975,1996,2015,2037,2057,2076,2096,2115,2136,2157,2176,2196,2216,2236,2256,2277,2296,2317,2335,2356,2376,2396,2415,2436,2457,2476,2497,2516,2536],"xSR":741.5,"ySR":573.95,"xT1":424.9,"yT1":0,"xT2":1058.1,"yT2":0,"toosoon":0,"cond_shown":"Incongruent","ratio_trial":200,"L_num":4,"L_den":6,"R_num":14,"R_den":30,"correct_side":1,"subjID":"valentinaramirez7","gender":"1","school":"4","age":"9"},{"start_time":1552054254395,"click_time":1552054256457,"finger_time":1552054256037,"fix_duration":275.59646599275413,"trial":30,"RT":1642,"MT":420,"sideResp":1,"stimulus":[],"xmouse":[790,790,790,790,790,790,790,790,790,790,790,790,790,790,790,790,790,790,790,790,790,790,790,790,790,790,790,790,790,790,790,790,790,790,790,790,790,790,790,790,790,790,790,790,790,790,790,790,790,790,790,790,790,790,790,790,790,790,790,790,790,790,790,790,790,790,790,790,790,790,790,790,790,790,790,790,790,790,790,790,788,780,711,670,634,601,569,494,468,446,440,439,437,436,436,436,436,436,436,436,436,438,439,440],"ymouse":[627,627,627,627,627,627,627,627,627,627,627,627,627,627,627,627,627,627,627,627,627,627,627,627,627,627,627,627,627,627,627,627,627,627,627,627,627,627,627,627,627,627,627,627,627,627,627,627,627,627,627,627,627,627,627,627,627,627,627,627,627,627,627,627,627,627,627,627,627,627,627,627,627,627,627,627,627,627,627,627,623,614,552,514,473,424,378,266,226,189,176,170,158,155,152,148,139,132,129,125,119,113,103,97],"timestamp_mouse":[11,21,42,62,80,102,122,142,161,181,201,222,241,261,281,301,321,341,361,382,402,420,442,462,480,501,521,541,561,582,602,622,641,662,681,702,721,741,761,782,801,822,842,861,882,902,920,942,961,980,1001,1022,1041,1061,1080,1102,1121,1142,1161,1182,1202,1221,1242,1260,1282,1301,1321,1341,1361,1382,1402,1421,1442,1461,1482,1502,1522,1542,1562,1581,1600,1622,1642,1662,1682,1702,1721,1741,1760,1781,1802,1821,1841,1861,1881,1901,1922,1941,1961,1982,2001,2021,2041,2061],"xSR":741.5,"ySR":573.95,"xT1":424.9,"yT1":0,"xT2":1058.1,"yT2":0,"toosoon":0,"cond_shown":"Congruent","ratio_trial":100,"L_num":3,"L_den":6,"R_num":2,"R_den":5,"correct_side":1,"subjID":"valentinaramirez7","gender":"1","school":"4","age":"9"},{"start_time":1552054258602,"click_time":1552054263077,"finger_time":1552054262636,"fix_duration":985.9434036179188,"trial":31,"RT":4034,"MT":441,"sideResp":1,"stimulus":[],"xmouse":[765,765,765,765,765,765,765,765,765,765,765,765,765,765,765,765,765,765,765,765,765,765,765,765,765,765,765,765,765,765,765,765,765,765,765,765,765,765,765,765,765,765,765,765,765,765,765,765,765,765,765,765,765,765,765,765,765,765,765,765,765,765,765,765,765,765,765,765,765,765,765,765,765,765,765,765,765,765,765,765,765,765,765,765,765,765,765,765,765,765,765,765,765,765,765,765,765,765,765,765,765,765,765,765,765,765,765,765,765,765,765,765,765,765,765,765,765,765,765,765,765,765,765,765,765,765,765,765,765,765,765,765,765,765,765,765,765,765,765,765,765,765,765,765,765,765,765,765,765,765,765,765,765,765,765,765,765,765,765,765,765,765,765,765,765,765,765,765,765,765,765,765,765,765,765,765,765,765,765,765,765,765,765,765,765,765,765,765,765,765,765,765,765,765,765,765,765,765,763,761,748,736,727,719,710,705,690,677,655,630,609,598,597,594,592,587,570,566,563,560,559,550,537,522],"ymouse":[631,631,631,631,631,631,631,631,631,631,631,631,631,631,631,631,631,631,631,631,631,631,631,631,631,631,631,631,631,631,631,631,631,631,631,631,631,631,631,631,631,631,631,631,631,631,631,631,631,631,631,631,631,631,631,631,631,631,631,631,631,631,631,631,631,631,631,631,631,631,631,631,631,631,631,631,631,631,631,631,631,631,631,631,631,631,631,631,631,631,631,631,631,631,631,631,631,631,631,631,631,631,631,631,631,631,631,631,631,631,631,631,631,631,631,631,631,631,631,631,631,631,631,631,631,631,631,631,631,631,631,631,631,631,631,631,631,631,631,631,631,631,631,631,631,631,631,631,631,631,631,631,631,631,631,631,631,631,631,631,631,631,631,631,631,631,631,631,631,631,631,631,631,631,631,631,631,631,631,631,631,631,631,631,631,631,631,631,631,631,631,631,631,631,631,631,631,628,622,612,578,557,540,522,502,482,433,411,383,353,330,314,310,305,298,285,239,228,201,184,173,141,117,91],"timestamp_mouse":[20,41,54,74,94,115,134,154,174,195,214,234,255,275,294,315,334,354,374,395,415,434,454,473,495,515,535,555,575,594,615,634,655,674,695,715,734,754,775,795,815,833,855,875,895,915,935,955,975,995,1014,1035,1055,1075,1095,1115,1134,1155,1175,1193,1215,1234,1255,1275,1294,1315,1335,1355,1374,1394,1414,1435,1454,1473,1495,1514,1535,1554,1574,1593,1614,1635,1655,1674,1695,1714,1735,1755,1774,1794,1815,1834,1855,1874,1894,1915,1934,1955,1974,1994,2015,2033,2054,2074,2094,2114,2135,2155,2174,2194,2215,2235,2255,2273,2295,2314,2335,2354,2375,2395,2414,2434,2455,2475,2495,2515,2535,2554,2575,2594,2614,2634,2655,2674,2695,2714,2735,2754,2775,2794,2815,2835,2855,2873,2893,2914,2935,2955,2975,2995,3014,3035,3054,3075,3095,3115,3134,3155,3173,3195,3214,3234,3254,3273,3295,3315,3335,3355,3375,3394,3414,3433,3455,3475,3493,3515,3535,3555,3575,3593,3615,3635,3654,3673,3695,3714,3735,3753,3775,3794,3815,3835,3853,3875,3894,3915,3934,3955,3975,3994,4015,4034,4054,4074,4094,4115,4133,4154,4173,4194,4214,4234,4255,4274,4294,4314,4334,4354,4374,4395,4414,4433,4454,4475],"xSR":741.5,"ySR":573.95,"xT1":424.9,"yT1":0,"xT2":1058.1,"yT2":0,"toosoon":0,"cond_shown":"Congruent","ratio_trial":100,"L_num":6,"L_den":20,"R_num":5,"R_den":25,"correct_side":1,"subjID":"valentinaramirez7","gender":"1","school":"4","age":"9"},{"start_time":1552054264449,"click_time":1552054266217,"finger_time":1552054265776,"fix_duration":250,"trial":32,"RT":1327,"MT":441,"sideResp":2,"stimulus":[],"xmouse":[780,780,780,780,780,780,780,780,780,780,780,780,780,780,780,780,780,780,780,780,780,780,780,780,780,780,780,780,780,780,780,780,780,780,780,780,780,780,780,780,780,780,780,780,780,780,780,780,780,780,780,780,780,780,780,780,780,780,780,780,780,780,780,780,785,794,807,821,833,864,882,900,923,968,988,994,1002,1007,1011,1025,1032,1042,1054,1064,1088,1099,1110,1118,1129],"ymouse":[607,607,607,607,607,607,607,607,607,607,607,607,607,607,607,607,607,607,607,607,607,607,607,607,607,607,607,607,607,607,607,607,607,607,607,607,607,607,607,607,607,607,607,607,607,607,607,607,607,607,607,607,607,607,607,607,607,607,607,607,607,607,607,605,594,581,556,534,513,472,447,422,391,335,310,303,285,278,270,249,238,224,208,190,156,141,118,101,74],"timestamp_mouse":[12,34,48,67,87,107,127,147,166,188,207,226,248,267,287,308,328,348,367,387,407,427,448,468,488,507,527,546,568,587,607,627,646,668,688,707,728,747,766,787,806,828,848,867,887,907,926,946,968,988,1007,1027,1048,1068,1087,1108,1127,1148,1168,1186,1208,1227,1248,1268,1288,1308,1327,1347,1368,1387,1408,1427,1448,1468,1487,1507,1526,1548,1567,1587,1608,1628,1648,1667,1687,1707,1727,1748,1768],"xSR":741.5,"ySR":573.95,"xT1":424.9,"yT1":0,"xT2":1058.1,"yT2":0,"toosoon":0,"cond_shown":"Congruent","ratio_trial":300,"L_num":5,"L_den":25,"R_num":7,"R_den":14,"correct_side":2,"subjID":"valentinaramirez7","gender":"1","school":"4","age":"9"},{"start_time":1552054267631,"click_time":1552054270417,"finger_time":1552054270016,"fix_duration":254.7141240253965,"trial":33,"RT":2385,"MT":401,"sideResp":2,"stimulus":[],"xmouse":[789,789,789,789,789,789,789,789,789,789,789,789,789,789,789,789,789,789,789,789,789,789,789,789,789,789,789,789,789,789,789,789,789,789,789,789,789,789,789,789,789,789,789,789,789,789,789,789,789,789,789,789,789,789,789,789,789,789,789,789,789,789,789,789,789,789,789,789,789,789,789,789,789,789,789,789,789,789,789,789,789,789,789,789,789,789,789,789,789,789,789,789,789,789,789,789,789,789,789,789,789,789,789,789,789,789,789,789,789,789,789,789,789,789,789,789,793,802,813,826,860,877,892,903,916,932,943,949,953,968,976,983,991,999,1014,1019,1025,1036,1045,1065],"ymouse":[605,605,605,605,605,605,605,605,605,605,605,605,605,605,605,605,605,605,605,605,605,605,605,605,605,605,605,605,605,605,605,605,605,605,605,605,605,605,605,605,605,605,605,605,605,605,605,605,605,605,605,605,605,605,605,605,605,605,605,605,605,605,605,605,605,605,605,605,605,605,605,605,605,605,605,605,605,605,605,605,605,605,605,605,605,605,605,605,605,605,605,605,605,605,605,605,605,605,605,605,605,605,605,605,605,605,605,605,605,605,605,605,605,605,605,605,601,594,584,570,512,481,461,444,427,385,344,317,289,237,209,183,159,137,104,96,87,71,60,38],"timestamp_mouse":[15,38,45,66,86,104,125,146,166,186,205,225,246,265,285,304,325,346,366,385,406,425,445,466,485,504,525,546,566,585,605,625,646,664,685,706,725,746,764,786,806,826,846,866,886,905,925,946,965,984,1004,1026,1045,1066,1086,1104,1126,1145,1166,1185,1206,1226,1246,1264,1286,1304,1325,1346,1366,1385,1405,1424,1445,1466,1485,1505,1526,1545,1566,1585,1604,1624,1645,1666,1686,1705,1726,1745,1765,1786,1806,1825,1846,1865,1885,1906,1925,1945,1966,1985,2006,2025,2044,2066,2085,2104,2126,2146,2166,2186,2204,2226,2246,2265,2286,2305,2325,2346,2364,2385,2406,2425,2445,2464,2485,2506,2525,2545,2565,2586,2605,2626,2645,2665,2687,2705,2725,2745,2766,2786],"xSR":741.5,"ySR":573.95,"xT1":424.9,"yT1":0,"xT2":1058.1,"yT2":0,"toosoon":0,"cond_shown":"Congruent","ratio_trial":100,"L_num":3,"L_den":20,"R_num":4,"R_den":16,"correct_side":2,"subjID":"valentinaramirez7","gender":"1","school":"4","age":"9"},{"start_time":1552054272283,"click_time":1552054274076,"finger_time":1552054273676,"fix_duration":546.4436410688968,"trial":34,"RT":1393,"MT":400,"sideResp":2,"stimulus":[],"xmouse":[789,789,789,789,789,789,789,789,789,789,789,789,789,789,789,789,789,789,789,789,789,789,789,789,789,789,789,789,789,789,789,789,789,789,789,789,789,789,789,789,789,789,789,789,789,789,789,789,789,789,789,789,789,789,789,789,789,789,789,789,789,789,789,789,789,789,789,795,803,815,834,851,871,881,893,899,906,921,930,940,952,965,991,1006,1016,1023,1038,1047,1056,1065],"ymouse":[646,646,646,646,646,646,646,646,646,646,646,646,646,646,646,646,646,646,646,646,646,646,646,646,646,646,646,646,646,646,646,646,646,646,646,646,646,646,646,646,646,646,646,646,646,646,646,646,646,646,646,646,646,646,646,646,646,646,646,646,646,646,646,646,646,643,636,602,576,540,492,452,388,359,330,314,301,275,260,243,223,204,171,155,148,140,124,113,99,86],"timestamp_mouse":[13,33,54,72,93,112,134,154,173,194,213,234,253,274,294,313,334,354,373,394,413,434,454,473,493,512,533,553,574,593,613,633,653,672,693,714,734,754,773,793,814,834,853,872,893,914,934,954,973,993,1013,1033,1053,1073,1093,1113,1134,1154,1173,1194,1213,1233,1254,1274,1294,1313,1332,1353,1374,1393,1414,1434,1453,1473,1493,1513,1533,1553,1574,1593,1613,1633,1654,1673,1694,1713,1734,1752,1774,1793],"xSR":741.5,"ySR":573.95,"xT1":424.9,"yT1":0,"xT2":1058.1,"yT2":0,"toosoon":0,"cond_shown":"Incongruent","ratio_trial":300,"L_num":1,"L_den":2,"R_num":2,"R_den":10,"correct_side":1,"subjID":"valentinaramirez7","gender":"1","school":"4","age":"9"},{"start_time":1552054276301,"click_time":1552054278196,"finger_time":1552054277777,"fix_duration":682.2776214425184,"trial":35,"RT":1476,"MT":419,"sideResp":2,"stimulus":[],"xmouse":[786,786,786,786,786,786,786,786,786,786,786,786,786,786,786,786,786,786,786,786,786,786,786,786,786,786,786,786,786,786,786,786,786,786,786,786,786,786,786,786,786,786,786,786,786,786,786,786,786,786,786,786,786,786,786,786,786,786,786,786,786,786,786,786,786,786,786,786,786,791,797,822,830,844,852,858,872,882,897,922,947,997,1013,1029,1042,1048,1051,1052,1052,1052,1052,1053,1053,1055,1062],"ymouse":[644,644,644,644,644,644,644,644,644,644,644,644,644,644,644,644,644,644,644,644,644,644,644,644,644,644,644,644,644,644,644,644,644,644,644,644,644,644,644,644,644,644,644,644,644,644,644,644,644,644,644,644,644,644,644,644,644,644,644,644,644,644,644,644,644,644,644,644,644,633,625,597,585,561,545,533,507,485,446,391,335,224,172,115,61,20,14,12,12,12,12,11,11,11,11],"timestamp_mouse":[15,37,55,75,96,115,135,156,174,195,215,235,254,274,296,316,334,355,376,394,415,436,456,474,496,516,535,555,575,596,616,635,656,674,695,716,735,755,775,796,815,836,856,875,895,915,936,956,975,996,1015,1035,1055,1075,1095,1116,1136,1155,1174,1195,1216,1236,1254,1276,1295,1315,1336,1355,1374,1396,1415,1435,1455,1476,1495,1515,1535,1556,1575,1596,1616,1635,1655,1676,1695,1716,1735,1755,1775,1795,1815,1835,1854,1875,1895],"xSR":741.5,"ySR":573.95,"xT1":424.9,"yT1":0,"xT2":1058.1,"yT2":0,"toosoon":0,"cond_shown":"Incongruent","ratio_trial":100,"L_num":11,"L_den":22,"R_num":9,"R_den":15,"correct_side":2,"subjID":"valentinaramirez7","gender":"1","school":"4","age":"9"},{"start_time":1552054280883,"click_time":1552054282817,"finger_time":1552054282157,"fix_duration":1405.7780701045135,"trial":36,"RT":1274,"MT":660,"sideResp":2,"stimulus":[],"xmouse":[779,779,779,779,779,779,779,779,779,779,779,779,779,779,779,779,779,779,779,779,779,779,779,779,779,779,779,779,779,779,779,779,779,779,779,779,779,779,779,779,779,779,779,779,779,779,779,779,779,779,779,779,779,779,779,780,785,786,787,788,791,805,817,827,843,855,868,897,910,920,927,935,948,955,967,975,982,999,1006,1014,1020,1026,1036,1043,1045,1049,1051,1054,1056,1059,1063,1067,1075,1078,1085,1089,1095],"ymouse":[616,616,616,616,616,616,616,616,616,616,616,616,616,616,616,616,616,616,616,616,616,616,616,616,616,616,616,616,616,616,616,616,616,616,616,616,616,616,616,616,616,616,616,616,616,616,616,616,616,616,616,616,616,616,616,613,607,606,604,602,600,591,581,568,543,522,494,436,415,399,388,379,355,341,315,297,284,258,248,236,224,214,196,184,181,174,171,165,161,156,151,145,134,127,116,107,96],"timestamp_mouse":[13,36,54,73,94,113,134,153,172,194,213,234,254,272,293,313,334,353,373,392,414,433,454,472,493,514,534,554,573,594,613,633,654,673,694,713,733,754,773,794,813,833,854,874,893,913,934,954,973,993,1013,1034,1054,1073,1092,1113,1133,1154,1174,1194,1214,1234,1253,1274,1293,1313,1333,1353,1373,1393,1413,1433,1454,1473,1493,1513,1533,1554,1573,1593,1613,1633,1654,1673,1693,1714,1733,1754,1773,1793,1812,1833,1854,1873,1893,1913,1934],"xSR":741.5,"ySR":573.95,"xT1":424.9,"yT1":0,"xT2":1058.1,"yT2":0,"toosoon":0,"cond_shown":"Congruent","ratio_trial":200,"L_num":13,"L_den":26,"R_num":14,"R_den":20,"correct_side":2,"subjID":"valentinaramirez7","gender":"1","school":"4","age":"9"},{"start_time":1552054288809,"click_time":1552054291935,"finger_time":1552054291676,"fix_duration":1352.4709026906603,"trial":37,"RT":2867,"MT":259,"sideResp":2,"stimulus":[],"xmouse":[799,799,799,799,799,799,799,799,799,799,799,799,799,799,799,799,799,799,799,799,799,799,799,799,799,799,799,799,799,799,799,799,799,799,799,799,799,799,799,799,799,799,799,799,799,799,799,799,799,799,799,799,799,799,799,799,799,799,799,799,799,799,799,799,799,799,799,799,799,799,799,799,799,799,799,799,799,799,799,799,799,799,799,799,799,799,799,799,799,799,799,799,799,799,799,799,799,799,799,799,799,799,799,799,799,799,799,799,799,799,799,799,799,799,799,799,799,799,799,799,799,799,799,799,799,799,799,799,799,799,799,799,799,799,799,799,799,799,799,799,798,798,803,808,819,830,860,891,900,935,960,994,1007,1021,1034,1058,1067],"ymouse":[629,629,629,629,629,629,629,629,629,629,629,629,629,629,629,629,629,629,629,629,629,629,629,629,629,629,629,629,629,629,629,629,629,629,629,629,629,629,629,629,629,629,629,629,629,629,629,629,629,629,629,629,629,629,629,629,629,629,629,629,629,629,629,629,629,629,629,629,629,629,629,629,629,629,629,629,629,629,629,629,629,629,629,629,629,629,629,629,629,629,629,629,629,629,629,629,629,629,629,629,629,629,629,629,629,629,629,629,629,629,629,629,629,629,629,629,629,629,629,629,629,629,629,629,629,629,629,629,629,629,629,629,629,629,629,629,629,629,629,629,628,606,590,569,542,516,451,382,359,284,244,188,165,140,119,80,66],"timestamp_mouse":[12,39,47,68,87,108,128,147,167,187,207,226,248,266,287,307,328,346,367,388,406,428,447,467,488,506,527,547,566,588,607,628,648,667,688,708,728,748,766,787,808,827,846,868,888,906,926,946,968,988,1008,1027,1047,1066,1087,1107,1128,1148,1167,1188,1207,1227,1248,1267,1288,1307,1327,1348,1367,1387,1406,1428,1447,1468,1487,1508,1526,1546,1566,1586,1606,1628,1646,1666,1687,1708,1726,1747,1767,1788,1808,1827,1847,1868,1888,1907,1928,1948,1966,1987,2007,2026,2048,2068,2087,2107,2128,2148,2168,2187,2207,2227,2248,2268,2288,2307,2327,2346,2367,2387,2408,2427,2448,2467,2486,2508,2528,2546,2567,2587,2608,2627,2646,2666,2688,2707,2728,2746,2767,2788,2806,2827,2847,2867,2887,2907,2928,2947,2968,2987,3006,3027,3046,3067,3088,3108,3126],"xSR":741.5,"ySR":573.95,"xT1":424.9,"yT1":0,"xT2":1058.1,"yT2":0,"toosoon":0,"cond_shown":"Incongruent","ratio_trial":200,"L_num":11,"L_den":20,"R_num":3,"R_den":4,"correct_side":2,"subjID":"valentinaramirez7","gender":"1","school":"4","age":"9"},{"start_time":1552054294372,"click_time":1552054296497,"finger_time":1552054296057,"fix_duration":935.4285457709569,"trial":38,"RT":1685,"MT":440,"sideResp":1,"stimulus":[],"xmouse":[798,798,798,798,798,798,798,797,797,797,797,797,797,797,797,797,797,797,797,797,797,797,797,797,797,797,797,797,797,797,797,797,797,797,797,797,797,797,797,797,797,797,797,797,797,797,797,797,797,797,797,797,796,796,795,795,793,789,788,786,785,785,785,784,784,784,784,784,784,784,784,784,784,784,784,784,784,784,784,783,783,780,774,758,747,737,725,716,703,696,686,660,629,619,613,608,603,597,595,595,593,590,583,572,559,543,524],"ymouse":[622,622,622,622,622,622,622,623,623,623,623,623,623,623,623,623,623,623,623,623,623,623,623,623,623,623,623,623,623,623,623,623,623,623,623,623,623,623,623,623,623,623,623,623,623,623,623,623,623,623,623,623,623,623,623,623,622,619,618,617,616,616,616,616,616,615,615,615,615,615,615,615,615,615,615,615,615,615,615,614,612,609,601,577,559,543,526,510,471,448,422,383,346,334,326,317,306,286,276,268,257,230,180,148,124,104,86],"timestamp_mouse":[12,24,44,63,84,104,124,145,165,185,203,225,244,264,283,304,325,345,364,383,405,425,445,464,483,504,525,544,564,584,605,625,644,665,683,704,725,743,763,783,805,825,845,864,884,904,925,944,965,985,1004,1024,1044,1064,1084,1103,1124,1144,1164,1184,1203,1225,1243,1263,1284,1305,1325,1345,1363,1385,1405,1423,1444,1464,1484,1505,1523,1543,1563,1583,1605,1625,1643,1664,1685,1704,1723,1744,1763,1784,1804,1824,1844,1863,1884,1903,1923,1944,1964,1984,2004,2023,2043,2063,2084,2105,2125],"xSR":741.5,"ySR":573.95,"xT1":424.9,"yT1":0,"xT2":1058.1,"yT2":0,"toosoon":0,"cond_shown":"Incongruent","ratio_trial":200,"L_num":4,"L_den":6,"R_num":14,"R_den":30,"correct_side":1,"subjID":"valentinaramirez7","gender":"1","school":"4","age":"9"},{"start_time":1552054298262,"click_time":1552054300156,"finger_time":1552054299556,"fix_duration":625.6020206743792,"trial":39,"RT":1294,"MT":600,"sideResp":2,"stimulus":[],"xmouse":[791,791,791,791,791,791,791,791,791,791,791,791,791,791,791,791,791,792,792,792,792,792,792,792,792,792,792,792,792,792,792,792,792,792,792,792,792,792,792,792,792,792,792,792,792,792,792,792,792,792,792,792,792,792,792,792,792,792,792,792,795,796,807,817,828,839,854,870,874,883,890,898,914,922,932,949,956,977,980,984,989,995,1003,1007,1009,1011,1012,1013,1028,1041,1053,1060,1069,1081,1084],"ymouse":[620,620,620,620,620,620,620,620,620,620,620,620,620,620,620,620,620,621,621,621,621,621,621,621,621,621,621,621,621,621,621,621,621,621,621,621,621,621,621,621,621,621,621,621,621,621,621,621,621,621,621,621,621,621,621,621,621,621,621,621,619,615,593,578,564,548,521,487,475,462,450,438,417,407,389,359,347,311,305,299,289,278,256,244,232,221,216,212,191,176,157,139,121,101,96],"timestamp_mouse":[14,36,54,74,94,114,135,154,173,194,214,233,255,275,293,314,335,355,374,393,414,433,455,474,495,515,535,554,575,595,615,634,654,674,693,714,734,754,775,795,814,835,854,874,894,914,934,953,973,995,1015,1033,1053,1074,1095,1114,1134,1153,1174,1195,1214,1234,1254,1275,1294,1315,1334,1354,1373,1393,1413,1434,1454,1473,1495,1513,1534,1554,1573,1594,1615,1635,1654,1673,1693,1714,1733,1754,1773,1794,1815,1834,1853,1873,1893],"xSR":741.5,"ySR":573.95,"xT1":424.9,"yT1":0,"xT2":1058.1,"yT2":0,"toosoon":0,"cond_shown":"Incongruent","ratio_trial":100,"L_num":2,"L_den":4,"R_num":8,"R_den":20,"correct_side":1,"subjID":"valentinaramirez7","gender":"1","school":"4","age":"9"},{"start_time":1552054302237,"click_time":1552054304215,"finger_time":1552054303616,"fix_duration":637.3653889070414,"trial":40,"RT":1379,"MT":599,"sideResp":1,"stimulus":[],"xmouse":[815,815,813,810,808,807,807,806,806,806,806,806,806,805,805,805,805,804,804,804,804,804,804,804,804,804,804,804,804,804,804,804,804,804,804,804,804,802,801,800,799,799,798,797,797,796,796,796,796,796,796,795,795,795,795,795,795,795,795,795,795,795,795,795,795,793,789,777,761,709,694,683,672,662,641,631,624,620,618,616,613,610,608,605,597,589,581,556,546,528,520,519,516,512,500,494,489,481,479,474],"ymouse":[651,651,650,650,650,649,649,649,649,649,649,649,649,648,648,648,648,648,648,648,648,648,648,648,648,648,648,648,648,648,648,648,648,647,647,647,647,647,647,647,646,646,646,646,646,646,646,646,646,646,646,645,645,645,645,645,645,645,645,645,645,645,645,645,645,645,643,637,628,583,560,537,516,497,467,452,442,432,424,415,409,404,397,391,370,352,332,291,277,245,221,212,200,187,161,150,137,115,101,73],"timestamp_mouse":[1,19,44,59,78,99,119,140,160,178,200,220,238,259,279,299,318,339,358,378,400,419,438,459,480,500,518,539,559,578,598,620,639,659,679,700,720,738,760,778,799,820,840,858,879,900,919,940,958,979,999,1020,1039,1059,1080,1100,1119,1139,1158,1178,1200,1218,1239,1259,1279,1300,1320,1340,1359,1379,1398,1418,1439,1459,1479,1499,1519,1539,1558,1578,1598,1619,1639,1658,1679,1700,1719,1739,1758,1778,1799,1818,1839,1859,1878,1900,1919,1940,1960,1978],"xSR":741.5,"ySR":573.95,"xT1":424.9,"yT1":0,"xT2":1058.1,"yT2":0,"toosoon":0,"cond_shown":"Congruent","ratio_trial":200,"L_num":7,"L_den":21,"R_num":2,"R_den":15,"correct_side":1,"subjID":"valentinaramirez7","gender":"1","school":"4","age":"9"},{"start_time":1552054307967,"click_time":1552054309916,"finger_time":1552054309257,"fix_duration":869.4050550052602,"trial":41,"RT":1290,"MT":659,"sideResp":1,"stimulus":[],"xmouse":[787,787,787,787,787,787,787,787,787,787,787,787,787,787,787,787,787,787,787,787,787,787,787,787,787,787,787,787,787,787,787,787,787,787,787,787,787,787,787,787,787,787,787,787,787,787,787,787,787,787,787,787,787,787,787,787,787,787,787,787,787,786,779,768,755,742,729,707,700,692,684,667,651,645,638,630,617,586,573,563,556,553,553,553,553,553,553,553,553,553,553,553,550,547,542,534,528,520],"ymouse":[620,620,620,620,620,620,620,620,620,620,620,620,620,620,620,620,620,620,620,620,620,620,620,620,620,620,620,620,620,620,620,620,620,620,620,620,620,620,620,620,620,620,620,620,620,620,620,620,620,620,620,620,620,620,620,620,620,620,620,620,620,619,605,589,571,552,535,495,477,455,425,375,328,306,283,254,222,158,135,117,104,96,96,96,96,96,96,96,96,96,96,95,93,91,87,82,80,76],"timestamp_mouse":[12,37,50,69,89,110,130,149,170,189,210,229,249,269,289,308,329,350,370,389,409,430,449,470,489,510,530,548,570,590,608,630,650,669,690,710,728,750,768,788,810,828,850,869,890,908,929,950,969,989,1010,1028,1048,1070,1089,1109,1128,1148,1168,1190,1209,1229,1249,1270,1290,1310,1330,1349,1369,1389,1408,1429,1449,1469,1489,1509,1530,1549,1568,1588,1608,1628,1649,1669,1690,1709,1730,1749,1769,1788,1810,1829,1849,1869,1889,1909,1930,1949],"xSR":741.5,"ySR":573.95,"xT1":424.9,"yT1":0,"xT2":1058.1,"yT2":0,"toosoon":0,"cond_shown":"Incongruent","ratio_trial":100,"L_num":9,"L_den":15,"R_num":14,"R_den":28,"correct_side":1,"subjID":"valentinaramirez7","gender":"1","school":"4","age":"9"},{"start_time":1552054312271,"click_time":1552054314196,"finger_time":1552054313237,"fix_duration":1334.2353646468437,"trial":42,"RT":966,"MT":959,"sideResp":1,"stimulus":[],"xmouse":[784,784,784,784,784,784,784,784,784,784,784,784,784,784,784,784,784,784,784,784,784,784,784,784,784,784,784,784,784,784,784,784,784,784,784,784,784,784,784,784,784,784,784,780,777,772,764,745,731,717,704,694,689,686,686,684,682,674,670,664,655,645,621,607,587,568,556,544,544,544,544,543,537,531,526,520,518,517,517,512,497,480,467,467,467,467,467,467,467,467,467,467,467,467,467,467,467],"ymouse":[625,625,625,625,625,625,625,625,625,625,625,625,625,625,625,625,625,625,625,625,625,625,625,625,625,625,625,625,625,625,625,625,625,625,625,625,625,625,625,625,625,625,625,625,625,625,625,618,613,607,600,592,588,576,571,563,556,532,523,513,500,484,440,410,377,343,318,260,239,220,203,185,151,135,124,116,111,110,110,110,109,106,102,102,102,102,102,102,102,102,102,102,102,102,102,100,97],"timestamp_mouse":[21,39,46,65,85,104,124,144,165,184,204,224,245,265,286,304,325,346,365,384,405,426,445,466,486,504,526,546,564,585,606,625,646,665,685,704,724,745,764,786,805,824,845,864,885,905,925,945,966,984,1006,1026,1045,1065,1085,1106,1126,1145,1164,1184,1206,1226,1245,1265,1285,1306,1325,1344,1366,1385,1406,1425,1445,1464,1485,1506,1526,1545,1565,1585,1606,1625,1645,1666,1685,1704,1725,1746,1765,1785,1804,1824,1845,1865,1884,1906,1925],"xSR":741.5,"ySR":573.95,"xT1":424.9,"yT1":0,"xT2":1058.1,"yT2":0,"toosoon":0,"cond_shown":"Incongruent","ratio_trial":300,"L_num":8,"L_den":10,"R_num":14,"R_den