[{"start_time":1552308659683,"click_time":1552308667618,"finger_time":1552308659698,"fix_duration":561.4118950743587,"trial":0,"RT":15,"MT":7920,"sideResp":1,"stimulus":[],"xmouse":[809,809,809,813,814,814,815,816,816,816,816,816,816,816,815,814,812,810,810,809,809,809,809,809,809,808,808,806,805,805,805,803,802,802,802,802,802,802,802,802,802,802,802,802,802,802,802,802,802,802,801,801,801,801,800,800,798,795,793,793,791,790,790,790,790,790,790,791,795,795,795,795,795,795,795,795,795,795,795,795,795,796,796,796,796,796,796,796,796,796,796,796,796,796,796,796,796,796,796,796,796,796,796,796,796,796,796,796,796,796,796,796,796,796,796,796,796,796,796,796,796,796,796,796,796,796,796,796,796,795,795,795,795,795,795,795,795,795,795,795,795,795,795,795,795,795,795,795,795,795,795,795,795,795,795,795,795,795,795,795,795,795,793,792,792,792,792,792,792,792,792,792,792,792,792,792,792,792,792,792,792,792,792,792,792,792,792,792,792,792,792,792,792,792,792,792,792,792,792,792,792,792,792,792,792,792,792,792,791,791,791,791,791,791,791,791,791,791,789,789,789,789,789,789,789,789,789,789,789,789,789,789,789,789,789,789,789,789,789,789,789,789,789,789,789,789,789,789,789,789,789,789,789,789,789,789,789,790,791,791,791,788,786,784,784,784,784,784,784,784,784,784,784,784,784,784,784,784,784,784,784,784,784,784,784,784,784,784,784,784,784,784,784,784,784,784,784,784,784,784,784,784,784,784,784,784,784,784,784,784,784,784,784,784,784,784,784,784,784,784,784,784,784,784,784,784,784,784,784,784,784,784,784,784,784,784,784,784,784,783,789,792,789,788,783,780,772,762,760,760,760,760,760,760,760,760,760,760,760,760,760,760,760,760,760,760,760,760,758,756,755,753,746,743,740,736,733,729,719,713,705,698,681,663,650,639,633,620,613,607,600,593,576,556,543,529,518],"ymouse":[568,568,567,568,568,568,568,568,568,568,568,568,568,568,568,568,568,567,567,567,567,567,567,567,567,567,567,567,569,570,571,573,577,580,581,581,581,581,582,582,583,584,585,586,586,586,586,587,588,588,589,589,589,589,591,594,597,607,610,612,615,616,616,616,616,616,616,616,616,616,616,616,616,616,616,616,616,616,616,616,616,616,616,616,617,617,617,617,617,617,617,617,617,617,617,617,617,617,617,617,617,617,617,617,617,617,617,617,617,617,617,617,617,617,617,617,617,617,617,617,617,617,617,617,617,617,617,618,618,618,618,618,618,618,618,618,618,618,618,618,618,618,618,618,618,618,618,618,618,618,618,618,618,618,618,618,618,618,618,618,618,618,619,619,619,619,619,619,619,619,619,619,619,619,619,619,619,619,619,619,619,619,619,619,619,619,619,619,619,619,619,619,619,619,619,619,619,619,619,619,619,619,619,619,619,619,619,619,619,619,619,619,619,619,619,617,617,617,616,616,616,616,616,616,616,616,616,616,616,616,616,616,616,616,616,616,616,616,616,616,616,616,616,616,616,616,616,616,616,616,616,616,616,616,616,616,616,615,614,614,613,616,619,621,621,621,621,621,621,621,621,621,621,621,621,621,621,621,621,621,621,621,621,621,621,621,621,621,621,621,621,621,621,621,621,621,621,621,621,621,621,621,621,621,621,621,621,621,621,621,621,621,621,621,621,621,621,621,621,621,621,621,621,621,621,621,621,621,621,621,621,621,621,621,621,621,621,621,621,620,611,607,603,603,603,603,603,602,602,602,602,602,602,602,602,602,602,602,602,602,602,602,602,602,602,602,602,602,598,595,589,580,552,529,513,497,480,463,418,390,362,339,294,256,229,206,187,156,142,132,120,107,78,51,33,16,4],"timestamp_mouse":[15,35,55,74,94,114,134,155,174,195,215,236,256,276,296,315,335,355,374,395,415,435,456,476,495,516,535,554,574,595,616,634,654,674,695,715,735,755,774,795,814,835,854,875,895,914,935,956,975,994,1015,1035,1055,1076,1095,1115,1134,1155,1175,1194,1215,1236,1255,1274,1295,1314,1334,1354,1375,1394,1414,1434,1455,1474,1495,1514,1535,1555,1574,1594,1614,1636,1654,1676,1695,1714,1735,1755,1775,1794,1815,1834,1855,1875,1894,1915,1936,1955,1975,1996,2015,2034,2055,2074,2094,2114,2136,2155,2174,2194,2216,2234,2255,2276,2294,2315,2336,2355,2374,2395,2414,2434,2456,2474,2495,2514,2536,2555,2575,2595,2615,2635,2655,2674,2696,2714,2735,2756,2774,2796,2815,2835,2856,2874,2894,2914,2936,2955,2974,2995,3016,3035,3054,3076,3095,3116,3134,3155,3176,3195,3216,3235,3255,3275,3295,3315,3335,3356,3374,3394,3416,3434,3454,3474,3495,3516,3535,3555,3575,3596,3615,3634,3656,3676,3695,3715,3735,3755,3776,3794,3815,3836,3855,3876,3894,3915,3935,3956,3976,3995,4016,4035,4055,4075,4096,4115,4135,4156,4175,4196,4214,4234,4256,4275,4295,4316,4336,4354,4374,4395,4416,4435,4455,4474,4496,4514,4536,4555,4575,4594,4616,4634,4655,4675,4695,4714,4734,4754,4774,4794,4815,4834,4855,4876,4894,4914,4936,4955,4975,4994,5014,5035,5056,5074,5096,5114,5134,5156,5174,5196,5215,5235,5254,5275,5295,5316,5334,5354,5376,5395,5414,5434,5455,5475,5495,5515,5536,5555,5575,5594,5615,5634,5654,5676,5695,5716,5734,5756,5774,5796,5814,5836,5854,5874,5896,5915,5935,5955,5975,5996,6015,6036,6056,6074,6096,6115,6136,6155,6175,6196,6216,6235,6256,6275,6295,6315,6335,6354,6376,6394,6415,6436,6455,6474,6496,6514,6536,6555,6575,6595,6615,6636,6655,6676,6695,6715,6735,6756,6775,6795,6815,6836,6855,6874,6894,6915,6934,6954,6975,6996,7015,7035,7056,7074,7095,7116,7134,7155,7174,7196,7215,7235,7255,7274,7295,7316,7336,7354,7375,7394,7415,7435,7455,7475,7495,7515,7535,7555,7574,7594,7615,7636,7655,7674,7695,7714,7735,7755,7774,7795,7815,7835,7855,7874,7895,7916,7934],"xSR":741.5,"ySR":500.5,"xT1":424.9,"yT1":0,"xT2":1058.1,"yT2":0,"toosoon":0,"cond_shown":"Incongruent","ratio_trial":100,"L_num":13,"L_den":26,"R_num":12,"R_den":20,"correct_side":2,"subjID":"ValeriaBautistaRoman4G","gender":"1","age":"9","school":"4","test":{"fix_dur":[250,1500],"timestim":1000,"targets_dim":[100,100],"targets_relative_coord":[0.3,0.7],"size_stim":[880,420],"start_dim":[100,100],"size_start":[300,300],"size_fix":60,"samplingrate":20,"img_types":["Congruent","Incongruent"],"ratios":[100,200,300],"rep_conds":19,"nTrials":120,"trials_to_rest":500,"Trials_order":[19,28,91,73,8,1,11,94,67,83,98,82,71,57,118,32,33,85,13,15,14,38,119,66,77,52,29,30,25,104,42,36,9,65,69,81,56,92,88,95,26,3,87,70,55,60,40,23,84,17,45,116,103,111,99,53,76,115,80,72,59,63,96,37,90,31,49,0,68,24,12,117,79,43,113,114,106,61,105,10,100,89,6,110,50,51,109,44,64,2,7,54,21,101,18,48,93,34,75,16,112,62,4,35,41,86,39,74,22,27,108,47,97,78,102,58,5,107,20,46],"cond_shown":["Incongruent","Congruent","Incongruent","Incongruent","Congruent","Incongruent","Incongruent","Congruent","Incongruent","Incongruent","Congruent","Congruent","Incongruent","Incongruent","Congruent","Congruent","Incongruent","Incongruent","Incongruent","Incongruent","Congruent","Congruent","Incongruent","Congruent","Incongruent","Congruent","Incongruent","Congruent","Incongruent","Congruent","Congruent","Congruent","Incongruent","Incongruent","Incongruent","Incongruent","Congruent","Congruent","Congruent","Incongruent","Congruent","Incongruent","Incongruent","Congruent","Incongruent","Congruent","Congruent","Incongruent","Congruent","Incongruent","Incongruent","Congruent","Incongruent","Incongruent","Incongruent","Incongruent","Congruent","Incongruent","Congruent","Congruent","Incongruent","Incongruent","Congruent","Incongruent","Congruent","Incongruent","Incongruent","Congruent","Congruent","Congruent","Congruent","Incongruent","Incongruent","Incongruent","Incongruent","Congruent","Congruent","Incongruent","Incongruent","Congruent","Congruent","Incongruent","Congruent","Congruent","Congruent","Incongruent","Incongruent","Congruent","Congruent","Congruent","Incongruent","Congruent","Incongruent","Incongruent","Congruent","Congruent","Incongruent","Congruent","Incongruent","Congruent","Congruent","Congruent","Congruent","Incongruent","Incongruent","Congruent","Incongruent","Congruent","Congruent","Incongruent","Congruent","Incongruent","Incongruent","Congruent","Congruent","Congruent","Incongruent","Incongruent","Congruent","Congruent"],"ratio_trial":[100,300,100,100,200,100,300,300,100,300,200,300,300,200,300,200,200,100,100,200,200,200,300,100,300,300,300,100,100,200,100,100,200,300,200,200,200,200,300,300,200,200,200,300,100,100,300,300,100,300,200,200,100,200,200,300,300,100,200,100,300,200,100,100,100,100,100,100,200,100,100,200,100,100,300,100,300,100,200,300,300,300,100,200,200,200,100,200,300,200,100,100,200,300,100,100,200,300,200,300,300,200,300,300,300,200,200,200,300,200,100,300,100,100,100,300,300,300,200,300],"left_num":[13,5,2,3,15,3,4,2,1,4,16,1,4,4,1,16,3,3,17,3,3,14,7,3,13,8,4,9,6,8,6,11,9,4,14,7,16,9,1,4,9,4,7,4,6,6,2,1,15,4,9,16,13,7,3,7,20,3,3,11,1,7,2,6,12,9,6,2,15,7,3,14,8,3,2,10,3,2,7,8,11,2,1,12,3,6,8,3,1,3,1,11,3,1,9,15,7,8,14,11,8,1,18,4,4,12,1,8,4,1,10,2,11,4,8,1,4,8,7,3],"right_num":[12,6,8,7,4,11,2,12,8,2,12,7,6,6,7,12,1,11,10,11,7,6,8,2,12,10,2,8,3,3,5,6,8,2,12,14,12,13,7,8,4,6,8,2,11,5,12,2,13,2,8,12,12,4,11,8,13,4,7,6,3,6,11,13,13,20,3,6,4,9,4,6,6,7,6,3,2,8,12,1,4,6,18,6,9,3,6,9,11,11,8,4,11,2,8,13,8,10,12,2,1,21,9,2,2,6,3,7,13,3,3,6,9,6,2,11,2,9,18,11],"left_den":[26,25,4,9,25,5,20,10,2,20,20,20,5,5,20,20,10,5,30,4,10,28,10,6,26,15,20,15,12,15,20,22,15,20,30,10,20,30,20,5,20,5,10,5,10,20,10,2,25,20,15,20,26,15,4,10,25,6,10,22,2,15,5,10,30,10,12,5,25,14,20,30,16,9,4,25,6,4,10,16,22,4,2,20,12,20,16,12,5,10,2,22,4,2,15,25,10,15,30,22,16,2,20,20,20,20,2,15,20,2,25,4,22,8,16,5,20,10,15,12],"right_den":[20,12,20,30,10,22,4,24,20,4,20,20,12,10,20,20,2,22,15,20,14,20,20,5,15,12,4,16,5,9,25,15,10,4,18,28,20,26,20,16,16,10,16,4,22,25,24,10,26,4,10,20,20,6,20,20,26,10,14,15,15,9,22,26,26,25,5,12,10,15,16,9,10,30,30,10,10,20,24,5,20,30,30,15,20,6,10,20,22,22,20,10,20,10,16,26,16,12,18,10,5,30,15,4,4,15,10,21,26,10,10,30,15,10,5,22,4,18,27,20],"correct_side":[2,2,1,1,1,1,2,2,1,2,1,2,1,1,2,1,2,1,2,1,2,1,1,1,2,2,2,1,2,1,1,1,2,2,2,1,1,2,2,1,1,1,1,1,1,1,2,1,1,2,2,1,2,2,1,1,1,1,2,1,1,2,2,1,2,1,2,2,1,2,2,2,2,1,1,1,1,1,1,1,1,1,2,1,2,2,2,2,2,2,1,1,1,1,1,1,1,2,2,1,1,2,1,2,2,1,1,1,2,1,1,1,2,2,1,2,2,1,2,2],"img_shown":["img2/100/Incongruent/R/I_Dist_100_LN_13_LD_26_RN_12_RD_20_1.png","img2/300/Congruent/R/C_Dist_300_LN_5_LD_25_RN_6_RD_12_1.png","img2/100/Incongruent/L/I_Dist_100_LN_2_LD_4_RN_8_RD_20_0.png","img2/100/Incongruent/L/I_Dist_100_LN_3_LD_9_RN_7_RD_30_0.png","img2/200/Congruent/L/C_Dist_200_LN_15_LD_25_RN_4_RD_10_0.png","img2/100/Incongruent/L/I_Dist_100_LN_3_LD_5_RN_11_RD_22_0.png","img2/300/Incongruent/R/I_Dist_300_LN_4_LD_20_RN_2_RD_4_1.png","img2/300/Congruent/R/C_Dist_300_LN_2_LD_10_RN_12_RD_24_1.png","img2/100/Incongruent/L/I_Dist_100_LN_1_LD_2_RN_8_RD_20_0.png","img2/300/Incongruent/R/I_Dist_300_LN_4_LD_20_RN_2_RD_4_1.png","img2/200/Congruent/L/C_Dist_200_LN_16_LD_20_RN_12_RD_20_0.png","img2/300/Congruent/R/C_Dist_300_LN_1_LD_20_RN_7_RD_20_1.png","img2/300/Incongruent/L/I_Dist_300_LN_4_LD_5_RN_6_RD_12_0.png","img2/200/Incongruent/L/I_Dist_200_LN_4_LD_5_RN_6_RD_10_0.png","img2/300/Congruent/R/C_Dist_300_LN_1_LD_20_RN_7_RD_20_1.png","img2/200/Congruent/L/C_Dist_200_LN_16_LD_20_RN_12_RD_20_0.png","img2/200/Incongruent/R/I_Dist_200_LN_3_LD_10_RN_1_RD_2_1.png","img2/100/Incongruent/L/I_Dist_100_LN_3_LD_5_RN_11_RD_22_0.png","img2/100/Incongruent/R/I_Dist_100_LN_17_LD_30_RN_10_RD_15_1.png","img2/200/Incongruent/L/I_Dist_200_LN_3_LD_4_RN_11_RD_20_0.png","img2/200/Congruent/R/C_Dist_200_LN_3_LD_10_RN_7_RD_14_1.png","img2/200/Congruent/L/C_Dist_200_LN_14_LD_28_RN_6_RD_20_0.png","img2/300/Incongruent/L/I_Dist_300_LN_7_LD_10_RN_8_RD_20_0.png","img2/100/Congruent/L/C_Dist_100_LN_3_LD_6_RN_2_RD_5_0.png","img2/300/Incongruent/R/I_Dist_300_LN_13_LD_26_RN_12_RD_15_1.png","img2/300/Congruent/R/C_Dist_300_LN_8_LD_15_RN_10_RD_12_1.png","img2/300/Incongruent/R/I_Dist_300_LN_4_LD_20_RN_2_RD_4_1.png","img2/100/Congruent/L/C_Dist_100_LN_9_LD_15_RN_8_RD_16_0.png","img2/100/Incongruent/R/I_Dist_100_LN_6_LD_12_RN_3_RD_5_1.png","img2/200/Congruent/L/C_Dist_200_LN_8_LD_15_RN_3_RD_9_0.png","img2/100/Congruent/L/C_Dist_100_LN_6_LD_20_RN_5_RD_25_0.png","img2/100/Congruent/L/C_Dist_100_LN_11_LD_22_RN_6_RD_15_0.png","img2/200/Incongruent/R/I_Dist_200_LN_9_LD_15_RN_8_RD_10_1.png","img2/300/Incongruent/R/I_Dist_300_LN_4_LD_20_RN_2_RD_4_1.png","img2/200/Incongruent/R/I_Dist_200_LN_14_LD_30_RN_12_RD_18_1.png","img2/200/Incongruent/L/I_Dist_200_LN_7_LD_10_RN_14_RD_28_0.png","img2/200/Congruent/L/C_Dist_200_LN_16_LD_20_RN_12_RD_20_0.png","img2/200/Congruent/R/C_Dist_200_LN_9_LD_30_RN_13_RD_26_1.png","img2/300/Congruent/R/C_Dist_300_LN_1_LD_20_RN_7_RD_20_1.png","img2/300/Incongruent/L/I_Dist_300_LN_4_LD_5_RN_8_RD_16_0.png","img2/200/Congruent/L/C_Dist_200_LN_9_LD_20_RN_4_RD_16_0.png","img2/200/Incongruent/L/I_Dist_200_LN_4_LD_5_RN_6_RD_10_0.png","img2/200/Incongruent/L/I_Dist_200_LN_7_LD_10_RN_8_RD_16_0.png","img2/300/Congruent/L/C_Dist_300_LN_4_LD_5_RN_2_RD_4_0.png","img2/100/Incongruent/L/I_Dist_100_LN_6_LD_10_RN_11_RD_22_0.png","img2/100/Congruent/L/C_Dist_100_LN_6_LD_20_RN_5_RD_25_0.png","img2/300/Congruent/R/C_Dist_300_LN_2_LD_10_RN_12_RD_24_1.png","img2/300/Incongruent/L/I_Dist_300_LN_1_LD_2_RN_2_RD_10_0.png","img2/100/Congruent/L/C_Dist_100_LN_15_LD_25_RN_13_RD_26_0.png","img2/300/Incongruent/R/I_Dist_300_LN_4_LD_20_RN_2_RD_4_1.png","img2/200/Incongruent/R/I_Dist_200_LN_9_LD_15_RN_8_RD_10_1.png","img2/200/Congruent/L/C_Dist_200_LN_16_LD_20_RN_12_RD_20_0.png","img2/100/Incongruent/R/I_Dist_100_LN_13_LD_26_RN_12_RD_20_1.png","img2/200/Incongruent/R/I_Dist_200_LN_7_LD_15_RN_4_RD_6_1.png","img2/200/Incongruent/L/I_Dist_200_LN_3_LD_4_RN_11_RD_20_0.png","img2/300/Incongruent/L/I_Dist_300_LN_7_LD_10_RN_8_RD_20_0.png","img2/300/Congruent/L/C_Dist_300_LN_20_LD_25_RN_13_RD_26_0.png","img2/100/Incongruent/L/I_Dist_100_LN_3_LD_6_RN_4_RD_10_0.png","img2/200/Congruent/R/C_Dist_200_LN_3_LD_10_RN_7_RD_14_1.png","img2/100/Congruent/L/C_Dist_100_LN_11_LD_22_RN_6_RD_15_0.png","img2/300/Incongruent/L/I_Dist_300_LN_1_LD_2_RN_3_RD_15_0.png","img2/200/Incongruent/R/I_Dist_200_LN_7_LD_15_RN_6_RD_9_1.png","img2/100/Congruent/R/C_Dist_100_LN_2_LD_5_RN_11_RD_22_1.png","img2/100/Incongruent/L/I_Dist_100_LN_6_LD_10_RN_13_RD_26_0.png","img2/100/Congruent/R/C_Dist_100_LN_12_LD_30_RN_13_RD_26_1.png","img2/100/Incongruent/L/I_Dist_100_LN_9_LD_10_RN_20_RD_25_0.png","img2/100/Incongruent/R/I_Dist_100_LN_6_LD_12_RN_3_RD_5_1.png","img2/100/Congruent/R/C_Dist_100_LN_2_LD_5_RN_6_RD_12_1.png","img2/200/Congruent/L/C_Dist_200_LN_15_LD_25_RN_4_RD_10_0.png","img2/100/Congruent/R/C_Dist_100_LN_7_LD_14_RN_9_RD_15_1.png","img2/100/Congruent/R/C_Dist_100_LN_3_LD_20_RN_4_RD_16_1.png","img2/200/Incongruent/R/I_Dist_200_LN_14_LD_30_RN_6_RD_9_1.png","img2/100/Incongruent/R/I_Dist_100_LN_8_LD_16_RN_6_RD_10_1.png","img2/100/Incongruent/L/I_Dist_100_LN_3_LD_9_RN_7_RD_30_0.png","img2/300/Incongruent/L/I_Dist_300_LN_2_LD_4_RN_6_RD_30_0.png","img2/100/Congruent/L/C_Dist_100_LN_10_LD_25_RN_3_RD_10_0.png","img2/300/Congruent/L/C_Dist_300_LN_3_LD_6_RN_2_RD_10_0.png","img2/100/Incongruent/L/I_Dist_100_LN_2_LD_4_RN_8_RD_20_0.png","img2/200/Incongruent/L/I_Dist_200_LN_7_LD_10_RN_12_RD_24_0.png","img2/300/Congruent/L/C_Dist_300_LN_8_LD_16_RN_1_RD_5_0.png","img2/300/Congruent/L/C_Dist_300_LN_11_LD_22_RN_4_RD_20_0.png","img2/300/Incongruent/L/I_Dist_300_LN_2_LD_4_RN_6_RD_30_0.png","img2/100/Congruent/R/C_Dist_100_LN_1_LD_2_RN_18_RD_30_1.png","img2/200/Congruent/L/C_Dist_200_LN_12_LD_20_RN_6_RD_15_0.png","img2/200/Congruent/R/C_Dist_200_LN_3_LD_12_RN_9_RD_20_1.png","img2/200/Incongruent/R/I_Dist_200_LN_6_LD_20_RN_3_RD_6_1.png","img2/100/Incongruent/R/I_Dist_100_LN_8_LD_16_RN_6_RD_10_1.png","img2/200/Congruent/R/C_Dist_200_LN_3_LD_12_RN_9_RD_20_1.png","img2/300/Congruent/R/C_Dist_300_LN_1_LD_5_RN_11_RD_22_1.png","img2/200/Congruent/R/C_Dist_200_LN_3_LD_10_RN_11_RD_22_1.png","img2/100/Incongruent/L/I_Dist_100_LN_1_LD_2_RN_8_RD_20_0.png","img2/100/Congruent/L/C_Dist_100_LN_11_LD_22_RN_4_RD_10_0.png","img2/200/Incongruent/L/I_Dist_200_LN_3_LD_4_RN_11_RD_20_0.png","img2/300/Incongruent/L/I_Dist_300_LN_1_LD_2_RN_2_RD_10_0.png","img2/100/Congruent/L/C_Dist_100_LN_9_LD_15_RN_8_RD_16_0.png","img2/100/Congruent/L/C_Dist_100_LN_15_LD_25_RN_13_RD_26_0.png","img2/200/Incongruent/L/I_Dist_200_LN_7_LD_10_RN_8_RD_16_0.png","img2/300/Congruent/R/C_Dist_300_LN_8_LD_15_RN_10_RD_12_1.png","img2/200/Incongruent/R/I_Dist_200_LN_14_LD_30_RN_12_RD_18_1.png","img2/300/Congruent/L/C_Dist_300_LN_11_LD_22_RN_2_RD_10_0.png","img2/300/Congruent/L/C_Dist_300_LN_8_LD_16_RN_1_RD_5_0.png","img2/200/Congruent/R/C_Dist_200_LN_1_LD_2_RN_21_RD_30_1.png","img2/300/Congruent/L/C_Dist_300_LN_18_LD_20_RN_9_RD_15_0.png","img2/300/Incongruent/R/I_Dist_300_LN_4_LD_20_RN_2_RD_4_1.png","img2/300/Incongruent/R/I_Dist_300_LN_4_LD_20_RN_2_RD_4_1.png","img2/200/Congruent/L/C_Dist_200_LN_12_LD_20_RN_6_RD_15_0.png","img2/200/Incongruent/L/I_Dist_200_LN_1_LD_2_RN_3_RD_10_0.png","img2/200/Congruent/L/C_Dist_200_LN_8_LD_15_RN_7_RD_21_0.png","img2/300/Congruent/R/C_Dist_300_LN_4_LD_20_RN_13_RD_26_1.png","img2/200/Incongruent/L/I_Dist_200_LN_1_LD_2_RN_3_RD_10_0.png","img2/100/Congruent/L/C_Dist_100_LN_10_LD_25_RN_3_RD_10_0.png","img2/300/Incongruent/L/I_Dist_300_LN_2_LD_4_RN_6_RD_30_0.png","img2/100/Incongruent/R/I_Dist_100_LN_11_LD_22_RN_9_RD_15_1.png","img2/100/Congruent/R/C_Dist_100_LN_4_LD_8_RN_6_RD_10_1.png","img2/100/Congruent/L/C_Dist_100_LN_8_LD_16_RN_2_RD_5_0.png","img2/300/Congruent/R/C_Dist_300_LN_1_LD_5_RN_11_RD_22_1.png","img2/300/Incongruent/R/I_Dist_300_LN_4_LD_20_RN_2_RD_4_1.png","img2/300/Incongruent/L/I_Dist_300_LN_8_LD_10_RN_9_RD_18_0.png","img2/200/Congruent/R/C_Dist_200_LN_7_LD_15_RN_18_RD_27_1.png","img2/300/Congruent/R/C_Dist_300_LN_3_LD_12_RN_11_RD_20_1.png"],"dist100_C":[["C_Dist_100_LN_10_LD_25_RN_3_RD_10_0.png","C_Dist_100_LN_11_LD_22_RN_4_RD_10_0.png","C_Dist_100_LN_11_LD_22_RN_6_RD_15_0.png","C_Dist_100_LN_15_LD_25_RN_13_RD_26_0.png","C_Dist_100_LN_3_LD_6_RN_2_RD_5_0.png","C_Dist_100_LN_6_LD_20_RN_5_RD_25_0.png","C_Dist_100_LN_8_LD_16_RN_2_RD_5_0.png","C_Dist_100_LN_9_LD_15_RN_8_RD_16_0.png"],["C_Dist_100_LN_1_LD_2_RN_18_RD_30_1.png","C_Dist_100_LN_1_LD_2_RN_3_RD_5_1.png","C_Dist_100_LN_12_LD_30_RN_13_RD_26_1.png","C_Dist_100_LN_2_LD_5_RN_11_RD_22_1.png","C_Dist_100_LN_2_LD_5_RN_6_RD_12_1.png","C_Dist_100_LN_3_LD_20_RN_4_RD_16_1.png","C_Dist_100_LN_4_LD_10_RN_15_RD_30_1.png","C_Dist_100_LN_4_LD_8_RN_6_RD_10_1.png","C_Dist_100_LN_6_LD_12_RN_15_RD_25_1.png","C_Dist_100_LN_7_LD_14_RN_15_RD_25_1.png","C_Dist_100_LN_7_LD_14_RN_9_RD_15_1.png"]],"dist100_I":[["I_Dist_100_LN_1_LD_2_RN_8_RD_20_0.png","I_Dist_100_LN_2_LD_4_RN_6_RD_15_0.png","I_Dist_100_LN_2_LD_4_RN_8_RD_20_0.png","I_Dist_100_LN_3_LD_5_RN_11_RD_22_0.png","I_Dist_100_LN_3_LD_5_RN_8_RD_16_0.png","I_Dist_100_LN_3_LD_6_RN_4_RD_10_0.png","I_Dist_100_LN_3_LD_9_RN_7_RD_30_0.png","I_Dist_100_LN_4_LD_8_RN_8_RD_20_0.png","I_Dist_100_LN_6_LD_10_RN_11_RD_22_0.png","I_Dist_100_LN_6_LD_10_RN_13_RD_26_0.png","I_Dist_100_LN_6_LD_10_RN_7_RD_14_0.png","I_Dist_100_LN_9_LD_10_RN_20_RD_25_0.png","I_Dist_100_LN_9_LD_15_RN_13_RD_26_0.png","I_Dist_100_LN_9_LD_15_RN_14_RD_28_0.png"],["I_Dist_100_LN_10_LD_25_RN_8_RD_16_1.png","I_Dist_100_LN_10_LD_25_RN_9_RD_18_1.png","I_Dist_100_LN_11_LD_22_RN_9_RD_15_1.png","I_Dist_100_LN_12_LD_24_RN_9_RD_15_1.png","I_Dist_100_LN_12_LD_30_RN_2_RD_4_1.png","I_Dist_100_LN_13_LD_26_RN_12_RD_20_1.png","I_Dist_100_LN_13_LD_26_RN_6_RD_10_1.png","I_Dist_100_LN_17_LD_30_RN_10_RD_15_1.png","I_Dist_100_LN_6_LD_12_RN_3_RD_5_1.png","I_Dist_100_LN_8_LD_16_RN_6_RD_10_1.png","I_Dist_100_LN_8_LD_20_RN_1_RD_2_1.png","I_Dist_100_LN_9_LD_18_RN_6_RD_10_1.png"]],"dist100_S":[["E_Dist_100_LN_2_LD_12_RN_2_RD_30_0.png","E_Dist_100_LN_6_LD_10_RN_6_RD_12_0.png"],["E_Dist_100_LN_6_LD_12_RN_6_RD_10_1.png"]],"dist200_C":[["C_Dist_200_LN_11_LD_22_RN_3_RD_10_0.png","C_Dist_200_LN_12_LD_15_RN_6_RD_10_0.png","C_Dist_200_LN_12_LD_20_RN_6_RD_15_0.png","C_Dist_200_LN_14_LD_28_RN_6_RD_20_0.png","C_Dist_200_LN_15_LD_25_RN_4_RD_10_0.png","C_Dist_200_LN_16_LD_20_RN_12_RD_20_0.png","C_Dist_200_LN_16_LD_30_RN_9_RD_27_0.png","C_Dist_200_LN_20_LD_25_RN_9_RD_15_0.png","C_Dist_200_LN_21_LD_30_RN_2_RD_4_0.png","C_Dist_200_LN_4_LD_10_RN_3_RD_15_0.png","C_Dist_200_LN_4_LD_8_RN_3_RD_10_0.png","C_Dist_200_LN_6_LD_15_RN_3_RD_15_0.png","C_Dist_200_LN_7_LD_21_RN_2_RD_15_0.png","C_Dist_200_LN_8_LD_15_RN_2_RD_6_0.png","C_Dist_200_LN_8_LD_15_RN_3_RD_9_0.png","C_Dist_200_LN_8_LD_15_RN_7_RD_21_0.png","C_Dist_200_LN_9_LD_20_RN_4_RD_16_0.png"],["C_Dist_200_LN_1_LD_2_RN_21_RD_30_1.png","C_Dist_200_LN_13_LD_26_RN_14_RD_20_1.png","C_Dist_200_LN_3_LD_10_RN_11_RD_22_1.png","C_Dist_200_LN_3_LD_10_RN_14_RD_28_1.png","C_Dist_200_LN_3_LD_10_RN_7_RD_14_1.png","C_Dist_200_LN_3_LD_12_RN_9_RD_20_1.png","C_Dist_200_LN_3_LD_6_RN_14_RD_20_1.png","C_Dist_200_LN_5_LD_10_RN_14_RD_20_1.png","C_Dist_200_LN_6_LD_12_RN_7_RD_10_1.png","C_Dist_200_LN_6_LD_20_RN_11_RD_22_1.png","C_Dist_200_LN_7_LD_15_RN_18_RD_27_1.png","C_Dist_200_LN_9_LD_30_RN_13_RD_26_1.png"]],"dist200_I":[["I_Dist_200_LN_1_LD_2_RN_3_RD_10_0.png","I_Dist_200_LN_1_LD_3_RN_2_RD_15_0.png","I_Dist_200_LN_3_LD_4_RN_11_RD_20_0.png","I_Dist_200_LN_4_LD_5_RN_6_RD_10_0.png","I_Dist_200_LN_4_LD_6_RN_14_RD_30_0.png","I_Dist_200_LN_7_LD_10_RN_12_RD_24_0.png","I_Dist_200_LN_7_LD_10_RN_14_RD_28_0.png","I_Dist_200_LN_7_LD_10_RN_8_RD_16_0.png"],["I_Dist_200_LN_11_LD_20_RN_3_RD_4_1.png","I_Dist_200_LN_14_LD_30_RN_12_RD_18_1.png","I_Dist_200_LN_14_LD_30_RN_6_RD_9_1.png","I_Dist_200_LN_3_LD_10_RN_1_RD_2_1.png","I_Dist_200_LN_4_LD_30_RN_1_RD_3_1.png","I_Dist_200_LN_6_LD_20_RN_3_RD_6_1.png","I_Dist_200_LN_7_LD_15_RN_4_RD_6_1.png","I_Dist_200_LN_7_LD_15_RN_6_RD_9_1.png","I_Dist_200_LN_9_LD_15_RN_8_RD_10_1.png"]],"dist200_S":[["E_Dist_200_LN_3_LD_6_RN_3_RD_10_0.png"],["E_Dist_200_LN_3_LD_10_RN_3_RD_6_1.png"]],"dist300_C":[["C_Dist_300_LN_11_LD_22_RN_1_RD_5_0.png","C_Dist_300_LN_11_LD_22_RN_2_RD_10_0.png","C_Dist_300_LN_11_LD_22_RN_4_RD_20_0.png","C_Dist_300_LN_12_LD_24_RN_2_RD_10_0.png","C_Dist_300_LN_18_LD_20_RN_9_RD_15_0.png","C_Dist_300_LN_20_LD_25_RN_13_RD_26_0.png","C_Dist_300_LN_20_LD_25_RN_14_RD_28_0.png","C_Dist_300_LN_20_LD_25_RN_5_RD_10_0.png","C_Dist_300_LN_20_LD_25_RN_8_RD_16_0.png","C_Dist_300_LN_20_LD_25_RN_9_RD_18_0.png","C_Dist_300_LN_24_LD_30_RN_2_RD_4_0.png","C_Dist_300_LN_24_LD_30_RN_8_RD_16_0.png","C_Dist_300_LN_3_LD_6_RN_2_RD_10_0.png","C_Dist_300_LN_4_LD_10_RN_1_RD_10_0.png","C_Dist_300_LN_4_LD_5_RN_2_RD_4_0.png","C_Dist_300_LN_8_LD_16_RN_1_RD_5_0.png","C_Dist_300_LN_9_LD_10_RN_3_RD_5_0.png"],["C_Dist_300_LN_1_LD_20_RN_7_RD_20_1.png","C_Dist_300_LN_1_LD_3_RN_19_RD_30_1.png","C_Dist_300_LN_1_LD_30_RN_8_RD_24_1.png","C_Dist_300_LN_1_LD_5_RN_11_RD_22_1.png","C_Dist_300_LN_1_LD_5_RN_3_RD_6_1.png","C_Dist_300_LN_1_LD_5_RN_6_RD_12_1.png","C_Dist_300_LN_2_LD_10_RN_12_RD_24_1.png","C_Dist_300_LN_2_LD_20_RN_10_RD_25_1.png","C_Dist_300_LN_3_LD_12_RN_11_RD_20_1.png","C_Dist_300_LN_3_LD_6_RN_4_RD_5_1.png","C_Dist_300_LN_4_LD_20_RN_13_RD_26_1.png","C_Dist_300_LN_5_LD_25_RN_6_RD_12_1.png","C_Dist_300_LN_5_LD_25_RN_7_RD_14_1.png","C_Dist_300_LN_7_LD_14_RN_20_RD_25_1.png","C_Dist_300_LN_8_LD_15_RN_10_RD_12_1.png"]],"dist300_I":[["I_Dist_300_LN_1_LD_2_RN_2_RD_10_0.png","I_Dist_300_LN_1_LD_2_RN_3_RD_15_0.png","I_Dist_300_LN_2_LD_4_RN_6_RD_30_0.png","I_Dist_300_LN_3_LD_6_RN_4_RD_20_0.png","I_Dist_300_LN_4_LD_5_RN_6_RD_12_0.png","I_Dist_300_LN_4_LD_5_RN_8_RD_16_0.png","I_Dist_300_LN_7_LD_10_RN_8_RD_20_0.png","I_Dist_300_LN_8_LD_10_RN_14_RD_28_0.png","I_Dist_300_LN_8_LD_10_RN_9_RD_18_0.png"],["I_Dist_300_LN_13_LD_26_RN_12_RD_15_1.png","I_Dist_300_LN_4_LD_20_RN_2_RD_4_1.png"]],"dist300_S":[["E_Dist_300_LN_9_LD_12_RN_9_RD_20_0.png"],["E_Dist_300_LN_18_LD_30_RN_18_RD_20_1.png","E_Dist_300_LN_3_LD_10_RN_3_RD_5_1.png","E_Dist_300_LN_9_LD_20_RN_9_RD_12_1.png"]],"dist500_C":[["C_Dist_500_LN_10_LD_13_RN_7_RD_26_0.png","C_Dist_500_LN_10_LD_15_RN_4_RD_24_0.png","C_Dist_500_LN_12_LD_16_RN_3_RD_12_0.png","C_Dist_500_LN_12_LD_18_RN_4_RD_24_0.png","C_Dist_500_LN_15_LD_18_RN_5_RD_15_0.png","C_Dist_500_LN_15_LD_20_RN_1_RD_4_0.png","C_Dist_500_LN_18_LD_27_RN_1_RD_6_0.png","C_Dist_500_LN_20_LD_24_RN_1_RD_3_0.png","C_Dist_500_LN_20_LD_24_RN_3_RD_9_0.png","C_Dist_500_LN_20_LD_24_RN_7_RD_21_0.png","C_Dist_500_LN_20_LD_28_RN_3_RD_14_0.png","C_Dist_500_LN_21_LD_28_RN_6_RD_24_0.png","C_Dist_500_LN_22_LD_28_RN_2_RD_7_0.png","C_Dist_500_LN_25_LD_30_RN_9_RD_27_0.png","C_Dist_500_LN_4_LD_6_RN_1_RD_6_0.png","C_Dist_500_LN_5_LD_6_RN_2_RD_6_0.png","C_Dist_500_LN_6_LD_9_RN_1_RD_6_0.png","C_Dist_500_LN_7_LD_10_RN_1_RD_5_0.png","C_Dist_500_LN_8_LD_12_RN_1_RD_6_0.png","C_Dist_500_LN_8_LD_12_RN_4_RD_24_0.png"],["C_Dist_500_LN_1_LD_4_RN_12_RD_16_1.png","C_Dist_500_LN_1_LD_4_RN_9_RD_12_1.png","C_Dist_500_LN_1_LD_9_RN_11_RD_18_1.png","C_Dist_500_LN_10_LD_24_RN_22_RD_24_1.png","C_Dist_500_LN_2_LD_12_RN_10_RD_15_1.png","C_Dist_500_LN_2_LD_12_RN_12_RD_18_1.png","C_Dist_500_LN_2_LD_12_RN_4_RD_6_1.png","C_Dist_500_LN_2_LD_24_RN_7_RD_12_1.png","C_Dist_500_LN_2_LD_5_RN_18_RD_20_1.png","C_Dist_500_LN_2_LD_5_RN_9_RD_10_1.png","C_Dist_500_LN_2_LD_8_RN_12_RD_16_1.png","C_Dist_500_LN_2_LD_8_RN_21_RD_28_1.png","C_Dist_500_LN_3_LD_10_RN_4_RD_5_1.png","C_Dist_500_LN_3_LD_12_RN_15_RD_20_1.png","C_Dist_500_LN_3_LD_30_RN_6_RD_10_1.png","C_Dist_500_LN_3_LD_8_RN_14_RD_16_1.png","C_Dist_500_LN_4_LD_16_RN_15_RD_20_1.png","C_Dist_500_LN_4_LD_24_RN_12_RD_18_1.png","C_Dist_500_LN_5_LD_14_RN_6_RD_7_1.png","C_Dist_500_LN_7_LD_21_RN_20_RD_24_1.png","C_Dist_500_LN_7_LD_28_RN_12_RD_16_1.png","C_Dist_500_LN_7_LD_28_RN_9_RD_12_1.png","C_Dist_500_LN_9_LD_27_RN_20_RD_24_1.png"]],"dist500_I":[["I_Dist_500_LN_2_LD_3_RN_4_RD_24_0.png","I_Dist_500_LN_5_LD_6_RN_6_RD_18_0.png","I_Dist_500_LN_7_LD_8_RN_9_RD_24_0.png"],["I_Dist_500_LN_7_LD_21_RN_5_RD_6_1.png"]],"dist500_S":[["E_Dist_500_LN_6_LD_8_RN_6_RD_24_0.png"],["E_Dist_500_LN_2_LD_12_RN_2_RD_3_1.png","E_Dist_500_LN_6_LD_24_RN_6_RD_8_1.png"]]}},{"start_time":1552308669988,"click_time":1552308675018,"finger_time":1552308672397,"fix_duration":1088.8919656050973,"trial":1,"RT":2409,"MT":2621,"sideResp":2,"stimulus":[],"xmouse":[793,793,793,793,793,793,793,793,793,793,793,793,793,793,793,793,793,793,793,793,793,793,793,793,793,793,793,793,793,793,793,793,793,793,793,793,793,793,793,793,793,793,793,793,793,793,793,793,793,793,793,793,793,793,793,793,793,793,793,793,793,793,793,793,793,793,793,793,793,793,793,793,793,793,793,793,793,793,793,793,793,793,793,793,793,793,793,793,793,793,793,793,793,793,793,793,793,793,793,793,793,793,793,794,791,788,786,785,784,784,784,784,784,784,783,782,782,778,778,778,778,778,778,778,778,778,778,778,778,778,778,778,778,778,778,778,778,778,778,778,778,778,778,778,778,778,778,778,778,778,778,778,778,778,778,778,778,778,778,778,778,778,778,778,778,778,778,778,778,778,778,778,778,778,778,778,778,778,778,778,778,778,778,778,778,778,778,778,778,778,778,778,778,778,778,778,778,778,778,778,778,778,779,789,796,804,811,822,827,829,832,836,842,847,853,858,867,875,895,910,916,920,932,939,946,952,959,968,994,1017,1030,1045,1079,1098,1115,1129,1138,1158,1170,1175,1179,1181,1182,1182,1182,1182,1182,1182,1175,1167,1159,1149],"ymouse":[607,607,607,607,607,607,607,607,607,607,607,607,607,607,607,607,607,607,607,607,607,607,607,607,607,607,607,607,607,607,607,607,607,607,607,607,607,607,607,607,607,607,607,607,607,607,607,607,607,607,607,607,607,607,607,607,607,607,607,607,607,607,607,607,607,607,607,607,607,607,607,607,607,607,607,607,607,607,607,607,607,607,607,607,607,607,607,607,607,607,607,607,607,607,607,607,607,607,607,607,607,607,607,605,596,591,587,585,585,585,585,585,585,585,584,582,580,575,574,574,573,573,573,573,573,573,573,573,573,573,573,573,573,573,573,573,573,573,573,573,573,573,573,573,573,573,573,573,573,573,573,573,573,573,573,573,573,573,573,573,573,573,573,573,573,573,573,573,573,573,573,573,573,573,573,573,573,573,573,573,573,573,573,573,573,573,573,573,573,573,573,573,573,573,573,573,573,573,573,573,573,573,570,564,560,554,549,540,537,535,532,530,525,521,516,513,505,499,483,470,464,459,449,443,437,432,426,418,395,376,362,347,316,299,282,264,244,209,185,172,161,154,141,136,130,127,124,119,101,88,78,64],"timestamp_mouse":[9,29,49,71,90,111,129,151,170,190,209,229,250,271,289,310,331,350,370,390,411,429,449,469,491,509,531,550,569,591,609,629,651,671,690,710,730,749,770,790,810,829,851,869,890,911,931,950,970,991,1010,1030,1050,1070,1089,1109,1131,1149,1169,1191,1210,1229,1251,1270,1289,1309,1329,1351,1370,1391,1410,1430,1449,1469,1489,1510,1531,1551,1569,1590,1611,1629,1651,1669,1689,1709,1731,1750,1771,1790,1809,1830,1850,1871,1890,1909,1929,1951,1971,1990,2010,2030,2049,2070,2090,2110,2131,2150,2170,2190,2210,2230,2250,2270,2290,2310,2330,2350,2369,2389,2409,2431,2450,2469,2489,2509,2531,2550,2571,2589,2610,2629,2650,2669,2691,2710,2730,2749,2769,2789,2809,2831,2850,2870,2890,2910,2929,2949,2969,2990,3011,3031,3049,3069,3089,3110,3130,3150,3169,3189,3211,3229,3250,3271,3290,3309,3330,3350,3370,3390,3411,3431,3450,3470,3489,3509,3530,3550,3569,3590,3609,3630,3650,3670,3690,3711,3729,3750,3769,3790,3811,3830,3850,3869,3890,3910,3930,3950,3969,3990,4011,4030,4049,4070,4089,4111,4131,4150,4169,4189,4209,4231,4250,4269,4289,4311,4329,4350,4369,4390,4410,4431,4450,4470,4489,4510,4529,4550,4570,4591,4610,4630,4650,4669,4690,4710,4730,4750,4769,4789,4810,4831,4850,4870,4889,4911,4931,4950,4969,4990,5010,5030],"xSR":741.5,"ySR":573.95,"xT1":424.9,"yT1":0,"xT2":1058.1,"yT2":0,"toosoon":0,"cond_shown":"Congruent","ratio_trial":300,"L_num":5,"L_den":25,"R_num":6,"R_den":12,"correct_side":2,"subjID":"ValeriaBautistaRoman4G","gender":"1","school":"4","age":"9"},{"start_time":1552308677054,"click_time":1552308679857,"finger_time":1552308679238,"fix_duration":414.11405103243993,"trial":2,"RT":2184,"MT":619,"sideResp":1,"stimulus":[],"xmouse":[782,782,782,782,782,782,782,782,782,782,782,782,782,782,782,782,782,782,782,782,782,782,782,782,782,784,784,784,785,785,785,785,785,785,785,785,785,785,785,785,785,785,785,785,785,785,785,785,785,785,785,785,785,785,785,785,785,785,785,785,785,785,785,785,785,785,785,785,785,785,785,785,785,785,785,785,785,785,785,785,785,785,785,783,782,780,780,780,780,780,780,780,780,780,780,780,780,780,780,780,780,780,780,780,780,779,779,777,776,770,766,760,754,750,735,725,702,687,673,659,641,634,628,624,612,607,604,600,597,587,581,575,570,565,560,559,557,553,545,526,512],"ymouse":[605,605,605,605,605,605,605,605,605,605,605,605,605,605,605,605,605,605,605,605,605,605,605,605,604,603,603,602,602,602,602,602,602,602,602,602,602,602,602,602,602,602,602,602,602,602,602,602,602,602,602,602,602,602,602,602,602,602,602,602,602,602,602,602,602,602,602,602,602,602,602,602,602,602,602,602,602,602,602,601,600,600,600,599,599,598,598,598,598,598,598,598,598,598,598,598,598,598,598,598,598,598,598,598,598,598,595,590,585,571,559,545,528,511,463,430,368,330,293,263,212,191,173,158,129,118,110,101,94,74,64,54,47,40,35,34,34,32,28,23,21],"timestamp_mouse":[9,24,44,65,83,104,125,144,164,184,205,223,244,264,285,303,324,344,365,384,404,424,443,463,485,504,524,544,563,583,603,623,645,663,684,705,724,744,765,784,804,824,844,864,883,903,925,943,965,983,1003,1023,1044,1064,1084,1103,1124,1145,1165,1184,1204,1225,1244,1264,1285,1303,1325,1343,1365,1384,1404,1425,1444,1464,1485,1503,1524,1545,1565,1585,1603,1623,1644,1664,1683,1703,1724,1745,1764,1784,1803,1825,1844,1864,1884,1903,1925,1943,1964,1985,2003,2025,2044,2064,2084,2104,2124,2144,2164,2184,2203,2223,2243,2263,2284,2303,2323,2345,2364,2383,2403,2424,2444,2464,2485,2503,2525,2544,2565,2584,2604,2623,2644,2663,2684,2703,2724,2743,2764,2784,2803],"xSR":741.5,"ySR":573.95,"xT1":424.9,"yT1":0,"xT2":1058.1,"yT2":0,"toosoon":0,"cond_shown":"Incongruent","ratio_trial":100,"L_num":2,"L_den":4,"R_num":8,"R_den":20,"correct_side":1,"subjID":"ValeriaBautistaRoman4G","gender":"1","school":"4","age":"9"},{"start_time":1552308686703,"click_time":1552308688657,"finger_time":1552308687977,"fix_duration":943.2386012048682,"trial":3,"RT":1274,"MT":680,"sideResp":1,"stimulus":[],"xmouse":[796,796,796,796,796,796,796,796,796,796,796,796,796,796,796,796,796,796,796,796,796,796,796,796,796,796,796,796,796,796,796,796,796,796,796,796,796,796,796,796,796,796,796,796,796,796,796,796,796,796,796,797,793,789,782,781,774,771,770,769,768,765,762,753,746,736,710,690,678,666,654,642,635,631,627,624,615,612,611,610,610,610,603,598,592,583,577,562,557,555,552,549,548,545,543,536,527,524],"ymouse":[637,637,637,637,637,637,637,637,637,637,637,637,637,637,637,637,637,637,637,637,637,637,637,637,637,637,637,637,637,637,637,637,637,637,637,637,637,637,637,637,637,637,637,637,637,637,637,637,637,637,637,636,632,628,619,617,610,605,603,602,599,593,586,569,554,530,468,422,381,340,299,234,183,157,134,115,86,80,78,77,77,77,76,74,73,71,70,66,66,66,65,65,64,64,64,63,63,63],"timestamp_mouse":[15,36,65,75,95,115,135,155,175,195,215,235,255,274,295,316,336,354,375,395,415,434,454,476,494,515,536,555,574,595,615,635,655,675,695,715,736,754,775,794,815,836,854,876,895,914,934,955,975,994,1014,1034,1055,1075,1094,1114,1135,1154,1174,1195,1214,1235,1254,1274,1295,1314,1335,1355,1374,1395,1414,1435,1454,1474,1496,1516,1535,1554,1574,1595,1615,1635,1655,1675,1695,1715,1734,1755,1774,1795,1815,1835,1854,1875,1895,1916,1935,1954],"xSR":741.5,"ySR":573.95,"xT1":424.9,"yT1":0,"xT2":1058.1,"yT2":0,"toosoon":0,"cond_shown":"Incongruent","ratio_trial":100,"L_num":3,"L_den":9,"R_num":7,"R_den":30,"correct_side":1,"subjID":"ValeriaBautistaRoman4G","gender":"1","school":"4","age":"9"},{"start_time":1552308693700,"click_time":1552308696178,"finger_time":1552308695438,"fix_duration":1119.5882653908443,"trial":4,"RT":1738,"MT":740,"sideResp":2,"stimulus":[],"xmouse":[814,814,814,814,814,814,812,812,811,811,811,811,811,811,811,811,811,811,811,811,811,810,808,806,805,805,805,805,805,805,805,805,805,805,805,805,805,805,805,805,805,805,803,802,802,802,801,801,801,801,801,801,801,801,801,801,800,799,799,799,799,799,799,799,799,799,799,799,800,801,801,801,801,801,801,801,801,801,801,801,802,803,803,803,804,807,819,826,833,842,852,870,884,897,910,923,935,956,965,973,980,991,1011,1016,1020,1026,1037,1040,1042,1044,1045,1047,1048,1048,1049,1050,1051,1053,1054,1056,1058,1062,1073,1074],"ymouse":[599,599,599,599,599,599,600,600,600,600,600,600,600,600,600,600,600,600,600,600,600,600,600,601,601,601,601,601,601,601,601,601,601,601,601,601,601,601,601,601,601,601,601,601,601,601,602,602,602,602,602,602,602,602,602,602,602,602,602,602,602,602,602,602,602,602,603,603,604,606,606,606,606,606,606,606,606,606,606,606,606,600,600,600,598,593,573,562,550,537,522,493,471,453,434,415,399,366,350,333,320,303,265,255,247,238,216,208,200,195,192,185,180,175,171,168,159,153,147,141,135,124,104,99],"timestamp_mouse":[18,38,66,78,97,118,138,158,179,198,219,239,257,277,298,317,337,359,379,399,417,438,457,479,498,518,539,557,578,598,617,638,659,678,698,719,739,757,778,798,818,838,857,878,898,918,937,957,978,999,1018,1038,1059,1078,1098,1119,1138,1158,1178,1197,1218,1238,1257,1278,1298,1317,1338,1358,1379,1397,1418,1439,1459,1477,1499,1518,1538,1558,1578,1598,1619,1639,1659,1678,1698,1717,1738,1758,1778,1797,1818,1838,1857,1878,1898,1919,1937,1958,1977,1998,2018,2038,2058,2077,2098,2119,2138,2158,2177,2198,2218,2238,2257,2277,2298,2319,2338,2357,2377,2397,2417,2437,2458,2478],"xSR":741.5,"ySR":573.95,"xT1":424.9,"yT1":0,"xT2":1058.1,"yT2":0,"toosoon":0,"cond_shown":"Congruent","ratio_trial":200,"L_num":15,"L_den":25,"R_num":4,"R_den":10,"correct_side":1,"subjID":"ValeriaBautistaRoman4G","gender":"1","school":"4","age":"9"},{"start_time":1552308697565,"click_time":1552308699479,"finger_time":1552308698877,"fix_duration":546.34772992925,"trial":5,"RT":1312,"MT":602,"sideResp":1,"stimulus":[],"xmouse":[785,785,785,782,781,781,781,781,781,781,781,781,781,781,781,781,781,781,781,781,781,781,781,781,781,781,781,781,781,781,781,781,781,781,781,781,781,781,781,781,781,781,781,781,781,781,781,781,781,781,781,781,781,781,781,781,781,781,781,781,781,781,776,764,748,729,710,692,667,660,650,641,634,622,618,614,608,602,589,585,575,567,559,552,537,532,527,523,517,515,513,510,509,506,495,489],"ymouse":[603,604,605,605,605,605,605,605,605,605,605,605,605,605,605,605,605,605,605,605,605,605,605,605,605,605,605,605,605,605,605,605,605,605,605,605,605,605,605,605,605,605,605,605,605,605,605,605,605,605,605,605,605,605,605,605,605,605,605,605,605,605,604,593,580,565,551,537,513,501,483,468,453,425,411,394,375,354,309,290,261,242,225,207,180,171,163,157,148,143,139,134,129,123,102,87],"timestamp_mouse":[12,33,53,73,92,113,132,154,173,193,213,232,252,272,293,313,334,354,373,393,413,434,454,473,494,512,533,554,573,592,614,634,653,672,692,713,734,753,773,794,814,832,853,872,894,913,932,953,974,994,1013,1033,1054,1074,1094,1112,1134,1153,1172,1193,1214,1232,1253,1273,1293,1312,1332,1353,1373,1392,1413,1434,1452,1473,1492,1513,1533,1552,1573,1592,1613,1633,1654,1673,1693,1712,1733,1752,1773,1792,1813,1833,1852,1872,1893,1913],"xSR":741.5,"ySR":573.95,"xT1":424.9,"yT1":0,"xT2":1058.1,"yT2":0,"toosoon":0,"cond_shown":"Incongruent","ratio_trial":100,"L_num":3,"L_den":5,"R_num":11,"R_den":22,"correct_side":1,"subjID":"ValeriaBautistaRoman4G","gender":"1","school":"4","age":"9"},{"start_time":1552308701703,"click_time":1552308702878,"finger_time":1552308702638,"fix_duration":782.161367578484,"trial":6,"RT":935,"MT":240,"sideResp":2,"stimulus":[],"xmouse":[794,794,794,794,795,796,798,799,799,799,799,799,799,799,799,799,799,799,800,801,802,803,804,804,804,804,804,804,804,804,804,804,804,804,804,804,804,804,804,804,805,807,816,821,826,834,856,868,882,898,925,986,1023,1066,1088,1101,1107,1118,1124],"ymouse":[617,617,617,617,618,617,617,616,616,616,616,616,616,616,616,616,616,616,616,616,616,616,615,615,615,615,615,615,615,615,615,615,615,615,615,615,615,615,614,613,611,607,597,593,589,583,563,549,530,503,457,353,301,231,192,160,137,100,83],"timestamp_mouse":[15,35,55,75,95,114,134,155,175,194,216,235,255,275,295,314,334,354,375,395,414,435,455,474,495,514,536,555,574,595,614,635,656,675,694,715,736,755,776,795,814,835,855,875,896,914,935,954,974,995,1015,1035,1054,1074,1095,1116,1134,1155,1175],"xSR":741.5,"ySR":573.95,"xT1":424.9,"yT1":0,"xT2":1058.1,"yT2":0,"toosoon":0,"cond_shown":"Incongruent","ratio_trial":300,"L_num":4,"L_den":20,"R_num":2,"R_den":4,"correct_side":2,"subjID":"ValeriaBautistaRoman4G","gender":"1","school":"4","age":"9"},{"start_time":1552308704857,"click_time":1552308708039,"finger_time":1552308706658,"fix_duration":256.86102238275856,"trial":7,"RT":1801,"MT":1381,"sideResp":1,"stimulus":[],"xmouse":[785,785,785,785,785,785,785,785,785,785,785,785,786,786,786,786,786,786,786,786,786,786,786,786,786,786,786,786,786,786,786,786,786,786,786,786,786,786,786,786,786,786,787,787,789,789,789,790,791,795,796,797,798,799,799,799,799,799,799,799,799,799,799,799,799,801,803,804,804,804,804,804,804,804,804,804,804,804,804,804,804,804,804,804,804,807,810,812,815,820,837,846,856,861,872,882,887,896,907,919,946,955,963,966,971,977,985,988,990,990,985,976,965,946,904,887,866,856,846,835,816,806,795,778,759,709,674,658,646,638,616,600,583,565,525,491,470,448,427,400,394,394,394,395,411,415,418,418,418,418,418,418,418,418,419,422,422,422,423,428],"ymouse":[639,639,639,639,639,639,639,639,639,639,639,639,638,638,638,638,638,638,638,638,638,638,638,638,638,638,638,638,638,638,638,638,638,638,638,638,638,638,638,638,638,638,636,636,635,634,634,633,631,627,626,625,623,622,622,622,622,622,622,622,622,622,622,622,621,619,616,615,615,615,614,614,614,614,614,614,614,614,614,614,614,614,613,613,610,607,600,594,586,575,549,532,511,492,452,419,400,378,356,331,287,270,253,240,225,198,177,164,153,145,133,128,126,124,122,121,117,116,115,113,109,106,102,98,92,78,65,58,51,46,32,23,16,9,0,0,0,0,0,5,9,11,15,22,33,35,36,36,36,36,36,36,36,36,36,36,36,36,36,36],"timestamp_mouse":[9,21,41,60,81,100,122,140,161,181,201,220,241,261,282,301,321,342,362,381,400,422,442,461,481,502,520,542,562,582,601,622,640,661,681,702,721,741,762,781,800,821,842,861,881,900,921,941,961,980,1001,1020,1041,1060,1081,1102,1120,1141,1161,1180,1201,1220,1240,1262,1281,1300,1321,1341,1361,1380,1400,1421,1440,1460,1481,1501,1522,1540,1561,1580,1600,1622,1641,1660,1681,1702,1721,1741,1760,1780,1801,1820,1841,1860,1881,1900,1920,1941,1960,1980,2001,2021,2040,2060,2080,2100,2120,2140,2160,2180,2200,2222,2241,2262,2281,2300,2320,2340,2360,2381,2400,2421,2441,2462,2481,2500,2521,2541,2561,2580,2601,2621,2642,2662,2681,2701,2720,2741,2760,2780,2802,2821,2840,2860,2882,2900,2920,2940,2960,2981,3001,3020,3042,3061,3081,3100,3121,3141,3161,3181],"xSR":741.5,"ySR":573.95,"xT1":424.9,"yT1":0,"xT2":1058.1,"yT2":0,"toosoon":0,"cond_shown":"Congruent","ratio_trial":300,"L_num":2,"L_den":10,"R_num":12,"R_den":24,"correct_side":2,"subjID":"ValeriaBautistaRoman4G","gender":"1","school":"4","age":"9"},{"start_time":1552308709975,"click_time":1552308712118,"finger_time":1552308710858,"fix_duration":775.8223713113152,"trial":8,"RT":883,"MT":1260,"sideResp":1,"stimulus":[],"xmouse":[782,782,782,782,782,782,782,782,782,782,782,782,782,782,787,793,799,803,808,808,809,809,803,800,796,796,796,796,796,796,796,796,796,796,796,793,791,790,790,790,789,789,791,796,814,823,832,838,840,839,827,823,823,823,823,826,829,835,842,868,879,889,902,922,931,939,947,954,960,971,974,976,979,981,982,982,983,983,983,986,988,990,990,991,991,991,991,991,971,945,926,908,893,872,863,846,827,811,779,764,740,718,691,634,593,562,531,507],"ymouse":[602,602,602,602,602,602,602,602,602,602,602,602,602,602,600,599,598,598,596,596,596,596,595,595,595,595,595,595,595,595,595,595,595,595,595,594,594,593,593,593,593,592,589,583,561,546,528,505,456,431,401,390,385,381,378,375,373,367,360,340,330,317,299,264,248,233,221,212,204,187,181,176,169,162,160,158,157,157,155,153,151,150,150,148,148,148,148,148,147,143,138,133,130,124,121,116,111,106,97,91,82,73,61,41,28,20,12,5],"timestamp_mouse":[9,22,43,63,82,103,123,143,163,182,203,224,243,263,282,302,324,343,363,384,403,423,443,462,483,502,522,542,563,582,602,622,644,664,683,703,722,743,762,782,802,824,842,862,883,904,923,944,963,982,1003,1023,1043,1063,1083,1103,1122,1143,1163,1183,1203,1223,1243,1263,1282,1303,1323,1343,1362,1382,1403,1424,1444,1463,1482,1502,1523,1543,1562,1582,1603,1624,1643,1663,1682,1702,1723,1744,1763,1782,1803,1822,1843,1863,1882,1903,1922,1944,1963,1982,2003,2023,2044,2062,2082,2103,2124,2143],"xSR":741.5,"ySR":573.95,"xT1":424.9,"yT1":0,"xT2":1058.1,"yT2":0,"toosoon":0,"cond_shown":"Incongruent","ratio_trial":100,"L_num":1,"L_den":2,"R_num":8,"R_den":20,"correct_side":1,"subjID":"ValeriaBautistaRoman4G","gender":"1","school":"4","age":"9"},{"start_time":1552308716043,"click_time":1552308717779,"finger_time":1552308717218,"fix_duration":1403.0961032578803,"trial":9,"RT":1175,"MT":561,"sideResp":2,"stimulus":[],"xmouse":[802,801,801,801,800,800,800,800,799,795,793,792,791,790,787,782,780,780,780,780,780,780,780,780,780,780,780,780,780,781,781,780,778,777,777,777,777,777,777,777,777,777,777,777,777,777,777,777,777,778,779,781,781,781,786,792,799,809,823,859,876,887,896,906,929,941,964,976,982,987,989,992,996,1001,1017,1029,1032,1033,1034,1034,1034,1034,1034,1034,1044,1058,1071],"ymouse":[634,634,634,634,634,634,634,634,634,639,640,641,642,644,645,649,650,650,650,650,650,650,650,650,650,650,650,648,647,647,647,647,647,648,648,648,648,648,648,648,648,648,648,648,648,648,648,648,648,648,646,642,638,633,617,602,590,579,568,538,518,496,476,454,413,396,370,356,344,334,331,327,322,316,296,282,277,276,275,275,274,267,254,233,179,127,84],"timestamp_mouse":[21,40,55,75,95,114,135,156,175,195,214,235,256,275,294,316,335,355,375,396,414,435,456,474,495,514,534,555,576,595,615,634,655,675,696,714,735,754,776,795,814,835,856,876,895,914,936,956,975,995,1015,1035,1055,1074,1095,1115,1134,1155,1175,1195,1215,1235,1254,1275,1296,1314,1336,1355,1375,1395,1414,1436,1455,1475,1495,1514,1535,1555,1576,1595,1615,1634,1655,1675,1696,1714,1736],"xSR":741.5,"ySR":573.95,"xT1":424.9,"yT1":0,"xT2":1058.1,"yT2":0,"toosoon":0,"cond_shown":"Incongruent","ratio_trial":300,"L_num":4,"L_den":20,"R_num":2,"R_den":4,"correct_side":2,"subjID":"ValeriaBautistaRoman4G","gender":"1","school":"4","age":"9"},{"start_time":1552308722070,"click_time":1552308724179,"finger_time":1552308723518,"fix_duration":250,"trial":10,"RT":1448,"MT":661,"sideResp":1,"stimulus":[],"xmouse":[794,794,794,794,794,794,794,794,794,794,794,794,794,794,794,794,794,794,794,794,794,794,794,794,794,794,794,794,794,794,794,794,794,794,794,794,794,794,794,794,794,794,794,794,794,794,794,794,794,794,794,794,794,794,794,794,794,794,794,794,794,794,794,794,794,794,794,794,792,790,789,786,784,779,768,762,753,747,741,724,713,696,676,587,497,442,398,375,360,360,360,360,360,361,363,364,366,371,380,392,396,399,403,410,415,425],"ymouse":[602,602,602,602,602,602,602,602,602,602,602,602,602,602,602,602,602,602,602,602,602,602,602,602,602,602,602,602,602,602,602,602,602,602,602,602,602,602,602,602,602,602,602,602,602,602,602,602,602,602,602,602,602,602,602,602,602,602,602,602,602,602,602,602,602,602,602,602,597,594,588,578,566,530,488,453,421,391,365,325,309,293,280,236,199,174,153,139,126,124,123,121,120,116,114,113,112,112,110,107,104,101,99,95,94,91],"timestamp_mouse":[9,39,48,69,89,108,129,149,167,189,208,229,248,269,289,308,328,349,368,389,408,428,449,468,489,509,528,548,568,588,609,627,648,669,689,709,728,749,768,788,809,829,848,867,888,908,928,949,968,988,1008,1028,1048,1069,1088,1108,1129,1149,1169,1188,1209,1228,1249,1269,1289,1308,1329,1349,1368,1388,1409,1429,1448,1468,1488,1509,1528,1548,1569,1588,1608,1629,1648,1669,1688,1708,1729,1748,1768,1788,1809,1828,1848,1869,1888,1908,1928,1949,1968,1988,2008,2029,2048,2069,2087,2108],"xSR":741.5,"ySR":573.95,"xT1":424.9,"yT1":0,"xT2":1058.1,"yT2":0,"toosoon":0,"cond_shown":"Congruent","ratio_trial":200,"L_num":16,"L_den":20,"R_num":12,"R_den":20,"correct_side":1,"subjID":"ValeriaBautistaRoman4G","gender":"1","school":"4","age":"9"},{"start_time":1552308726907,"click_time":1552308729019,"finger_time":1552308728198,"fix_duration":1287.2359863003421,"trial":11,"RT":1291,"MT":821,"sideResp":2,"stimulus":[],"xmouse":[788,788,788,788,788,788,788,788,788,788,788,788,788,788,788,788,788,788,788,788,788,788,788,788,788,788,788,788,788,788,788,788,788,788,788,788,788,788,788,788,788,788,788,788,788,788,789,790,793,795,801,809,811,813,814,814,814,814,815,815,817,825,831,838,844,850,866,875,885,898,912,929,967,996,1012,1025,1039,1045,1048,1051,1055,1059,1061,1067,1071,1074,1075,1076,1076,1076,1076,1076,1076,1076,1076,1076,1076,1075,1075,1074,1074,1072,1071,1071,1071,1071],"ymouse":[613,613,613,613,613,613,613,613,613,613,613,613,613,613,613,613,613,613,613,613,613,613,613,613,613,613,613,613,613,613,613,613,613,613,613,613,613,613,613,613,613,613,613,613,613,613,613,613,613,613,610,606,603,602,601,601,601,601,600,599,597,591,585,580,573,564,543,531,516,500,483,460,416,386,368,354,332,325,319,312,305,282,271,251,241,228,216,195,184,174,167,156,152,146,145,143,137,134,132,129,128,125,123,116,108,98],"timestamp_mouse":[11,31,61,71,92,112,131,150,172,191,212,232,251,272,292,312,332,352,372,391,412,432,451,472,491,511,530,552,570,591,611,632,651,671,692,712,730,751,771,792,812,831,850,871,892,912,930,951,972,991,1012,1032,1051,1072,1092,1112,1131,1150,1172,1191,1212,1231,1252,1271,1291,1312,1331,1352,1371,1391,1411,1431,1451,1471,1491,1511,1531,1551,1572,1591,1611,1631,1652,1671,1692,1712,1731,1751,1772,1790,1811,1831,1851,1872,1892,1912,1931,1950,1971,1991,2012,2031,2052,2071,2092,2111],"xSR":741.5,"ySR":573.95,"xT1":424.9,"yT1":0,"xT2":1058.1,"yT2":0,"toosoon":0,"cond_shown":"Congruent","ratio_trial":300,"L_num":1,"L_den":20,"R_num":7,"R_den":20,"correct_side":2,"subjID":"ValeriaBautistaRoman4G","gender":"1","school":"4","age":"9"},{"start_time":1552308730966,"click_time":1552308732738,"finger_time":1552308732099,"fix_duration":766.4158934513218,"trial":12,"RT":1133,"MT":639,"sideResp":1,"stimulus":[],"xmouse":[812,812,812,812,812,812,812,812,812,812,812,812,812,812,812,812,812,812,812,812,812,812,812,812,812,812,812,812,812,812,812,812,812,812,812,812,812,812,812,812,811,809,806,805,801,799,799,799,798,798,798,796,795,789,784,779,773,765,758,742,727,715,701,652,620,583,554,534,509,504,500,496,491,485,481,478,475,474,474,474,474,474,476,476,471,465,461,460,462],"ymouse":[640,640,640,640,640,640,640,640,640,640,640,640,640,640,640,640,640,640,640,640,640,640,640,640,640,640,640,640,640,640,640,640,640,640,640,640,640,640,640,640,640,638,634,630,623,621,620,618,618,616,615,612,609,598,589,580,572,562,556,550,538,526,512,459,431,401,379,360,330,319,307,301,295,288,282,277,270,266,262,258,247,243,231,203,181,159,142,123,85],"timestamp_mouse":[12,32,52,72,92,113,132,153,172,193,212,232,253,273,293,312,332,353,373,393,412,432,452,472,493,512,533,553,572,592,612,632,653,671,692,713,732,752,772,791,812,832,852,873,893,913,932,953,972,992,1012,1032,1052,1072,1092,1112,1133,1153,1172,1193,1212,1232,1251,1272,1292,1313,1332,1352,1372,1393,1412,1432,1452,1472,1492,1512,1532,1553,1572,1613,1615,1633,1652,1672,1692,1711,1732,1752,1772],"xSR":741.5,"ySR":573.95,"xT1":424.9,"yT1":0,"xT2":1058.1,"yT2":0,"toosoon":0,"cond_shown":"Incongruent","ratio_trial":300,"L_num":4,"L_den":5,"R_num":6,"R_den":12,"correct_side":1,"subjID":"ValeriaBautistaRoman4G","gender":"1","school":"4","age":"9"},{"start_time":1552308735029,"click_time":1552308738199,"finger_time":1552308736238,"fix_duration":649.6171147821019,"trial":13,"RT":1209,"MT":1961,"sideResp":1,"stimulus":[],"xmouse":[814,812,811,810,809,809,809,809,809,809,809,809,809,809,809,809,809,809,809,809,809,809,809,809,809,809,809,809,809,809,809,809,809,809,809,809,810,810,810,810,810,810,810,810,810,811,811,811,812,812,812,812,813,814,815,819,823,828,833,838,845,847,849,852,858,876,886,898,904,910,916,918,918,918,924,931,935,938,940,941,942,944,945,957,975,1009,1035,1049,1061,1068,1080,1083,1083,1083,1084,1085,1088,1095,1101,1106,1112,1112,1112,1112,1112,1112,1112,1112,1108,1099,1076,1059,1040,1022,1004,977,965,952,945,939,930,926,919,909,895,857,825,817,795,782,755,732,720,712,707,701,699,697,693,686,659,648,639,632,625,603,585,579,573,571,566,560,555,550,546,538,533,528,522],"ymouse":[613,617,620,622,624,624,624,624,624,624,624,624,624,624,624,624,624,624,624,624,624,624,624,624,624,624,624,624,624,624,624,624,626,626,626,626,627,627,628,628,628,628,628,628,628,628,629,629,629,629,629,629,629,629,629,628,627,626,624,622,615,612,606,602,596,580,569,551,537,520,483,462,440,418,395,353,336,316,307,300,291,289,288,286,284,276,267,260,252,246,237,232,229,227,224,206,192,165,149,135,115,110,108,108,108,107,107,107,106,105,103,102,99,97,94,90,87,84,83,81,77,76,74,73,69,61,52,51,44,40,33,29,27,26,25,24,24,23,23,23,23,23,23,23,24,28,30,31,34,34,37,41,44,46,48,51,53,55,57],"timestamp_mouse":[16,29,56,70,88,109,129,149,169,190,210,230,250,270,288,310,330,350,370,388,408,430,449,469,490,509,530,550,570,590,609,629,650,670,689,709,729,749,768,790,809,830,849,870,890,910,929,949,969,989,1009,1030,1049,1069,1090,1109,1129,1149,1169,1190,1209,1229,1250,1270,1290,1309,1328,1350,1369,1390,1410,1430,1449,1470,1489,1509,1530,1549,1569,1588,1609,1629,1650,1669,1690,1709,1729,1749,1769,1789,1809,1829,1850,1869,1890,1909,1929,1949,1969,1990,2009,2029,2049,2068,2089,2109,2130,2149,2169,2189,2209,2230,2249,2269,2290,2309,2330,2350,2369,2389,2410,2429,2449,2470,2490,2509,2528,2550,2569,2590,2609,2629,2649,2669,2690,2709,2730,2750,2769,2788,2809,2830,2850,2869,2889,2909,2929,2950,2970,2990,3009,3030,3050,3069,3089,3109,3128,3149,3170],"xSR":741.5,"ySR":573.95,"xT1":424.9,"yT1":0,"xT2":1058.1,"yT2":0,"toosoon":0,"cond_shown":"Incongruent","ratio_trial":200,"L_num":4,"L_den":5,"R_num":6,"R_den":10,"correct_side":1,"subjID":"ValeriaBautistaRoman4G","gender":"1","school":"4","age":"9"},{"start_time":1552308741481,"click_time":1552308744338,"finger_time":1552308742278,"fix_duration":900.5888289197086,"trial":14,"RT":797,"MT":2060,"sideResp":2,"stimulus":[],"xmouse":[810,810,810,810,810,810,810,810,810,810,810,810,809,806,804,796,790,783,777,775,775,775,775,775,775,775,774,774,774,774,774,774,774,774,774,774,773,773,768,763,760,756,750,749,749,749,749,753,757,764,769,782,817,832,847,855,864,884,899,914,928,942,962,972,973,974,974,974,974,974,974,974,974,974,974,974,974,974,974,974,974,974,974,973,971,971,969,969,968,968,968,968,968,968,968,968,968,968,968,968,968,968,968,968,968,968,969,969,969,969,969,969,969,969,970,971,971,977,979,983,991,999,1017,1026,1033,1036,1040,1044,1046,1050,1057,1061,1065,1067,1071,1078,1081,1090,1093,1097,1102,1106,1114],"ymouse":[641,641,639,638,636,635,635,635,635,635,635,635,635,633,631,622,615,608,601,599,599,599,599,599,599,599,599,599,599,599,599,599,599,599,599,599,599,596,582,573,564,550,526,516,504,497,493,485,480,475,471,466,450,442,430,420,409,380,359,339,320,300,270,251,246,240,239,239,239,239,238,237,237,237,237,237,237,237,237,237,237,236,236,236,236,236,237,238,238,238,238,238,238,238,238,238,238,238,238,238,238,238,238,238,238,238,238,238,238,238,238,238,238,238,238,238,237,231,227,222,217,212,203,196,193,190,187,183,180,176,172,171,169,167,162,158,155,147,142,132,123,113,87],"timestamp_mouse":[17,37,56,77,98,118,136,157,178,198,217,237,257,278,297,317,337,357,377,398,418,437,457,478,498,518,536,558,577,598,618,638,658,677,698,716,737,757,777,797,818,836,857,877,897,917,938,957,977,997,1018,1038,1057,1078,1097,1117,1137,1157,1177,1198,1217,1238,1257,1276,1297,1317,1337,1358,1377,1397,1417,1436,1458,1477,1498,1518,1537,1557,1577,1598,1617,1637,1657,1678,1697,1718,1738,1757,1778,1798,1818,1838,1856,1877,1897,1917,1938,1958,1978,1997,2017,2038,2057,2077,2097,2118,2137,2157,2176,2197,2217,2237,2258,2277,2297,2317,2336,2356,2377,2397,2417,2437,2457,2478,2498,2518,2537,2557,2578,2597,2618,2637,2657,2678,2698,2717,2737,2757,2777,2797,2816,2838,2857],"xSR":741.5,"ySR":573.95,"xT1":424.9,"yT1":0,"xT2":1058.1,"yT2":0,"toosoon":0,"cond_shown":"Congruent","ratio_trial":300,"L_num":1,"L_den":20,"R_num":7,"R_den":20,"correct_side":2,"subjID":"ValeriaBautistaRoman4G","gender":"1","school":"4","age":"9"},{"start_time":1552308752026,"click_time":1552308753958,"finger_time":1552308753438,"fix_duration":1166.5299008882532,"trial":15,"RT":1412,"MT":520,"sideResp":2,"stimulus":[],"xmouse":[787,787,787,787,787,787,787,787,787,787,787,787,787,787,787,787,787,787,787,787,787,787,787,787,787,787,787,787,787,787,787,787,787,787,787,787,787,787,787,787,787,787,787,787,787,787,787,787,787,787,787,787,787,787,787,787,787,787,787,787,787,787,787,787,787,787,787,787,787,789,796,800,810,818,833,875,899,913,929,945,969,977,985,996,1007,1029,1038,1047,1052,1055,1056,1056,1056,1056,1056,1056,1062],"ymouse":[609,609,609,609,609,609,609,609,609,609,609,609,609,609,609,609,609,609,609,609,609,609,609,609,609,609,609,609,609,609,609,609,609,609,609,609,609,609,609,609,609,609,609,609,609,609,609,609,609,609,609,609,609,609,609,609,609,609,609,609,609,609,609,609,609,609,609,608,603,591,547,522,491,460,425,346,295,265,238,217,178,166,158,149,142,123,113,100,94,91,89,89,89,89,89,89,88],"timestamp_mouse":[12,32,52,72,93,113,132,152,173,192,211,233,252,272,291,313,333,352,372,393,413,432,453,473,493,513,532,553,572,593,613,633,653,673,693,713,731,753,772,793,811,832,853,873,892,913,932,953,972,992,1013,1031,1052,1073,1092,1112,1132,1153,1173,1193,1212,1232,1252,1273,1293,1312,1333,1352,1372,1392,1412,1432,1453,1472,1493,1513,1533,1552,1572,1592,1612,1632,1653,1672,1692,1713,1731,1751,1772,1792,1812,1832,1852,1872,1893,1912,1932],"xSR":741.5,"ySR":573.95,"xT1":424.9,"yT1":0,"xT2":1058.1,"yT2":0,"toosoon":0,"cond_shown":"Congruent","ratio_trial":200,"L_num":16,"L_den":20,"R_num":12,"R_den":20,"correct_side":1,"subjID":"ValeriaBautistaRoman4G","gender":"1","school":"4","age":"9"},{"start_time":1552308755269,"click_time":1552308757898,"finger_time":1552308756118,"fix_duration":250,"trial":16,"RT":849,"MT":1780,"sideResp":2,"stimulus":[],"xmouse":[785,785,785,785,785,785,785,785,785,784,784,784,784,784,784,784,784,784,784,784,784,784,784,784,784,784,784,784,784,785,785,786,786,787,787,787,787,787,786,779,767,750,728,681,655,644,633,626,618,617,615,611,608,598,592,583,573,561,541,533,530,528,527,525,525,525,525,526,528,527,515,499,487,476,474,474,474,474,475,476,478,480,481,481,482,483,483,483,483,483,483,483,483,483,484,498,512,526,552,566,579,593,609,655,693,715,733,749,797,833,872,916,946,971,973,973,973,973,973,973,974,975,975,981,987,990,990,990,1007,1027,1045,1062],"ymouse":[641,641,641,641,641,641,641,642,645,645,646,646,646,646,646,646,646,646,646,646,646,646,646,646,646,646,646,646,646,646,646,644,643,641,641,641,641,641,638,633,627,619,610,593,582,575,567,562,551,546,540,527,514,489,470,452,424,403,376,366,363,360,358,356,355,352,346,339,321,308,292,279,269,250,234,222,212,206,197,196,195,195,195,194,192,190,186,180,173,169,169,168,168,168,168,168,167,165,160,157,154,151,148,134,122,116,110,107,100,94,89,81,77,68,65,65,65,65,65,65,64,63,63,63,62,61,61,61,60,57,55,52],"timestamp_mouse":[11,30,48,70,90,110,130,149,169,190,210,230,249,269,290,309,328,350,369,389,410,430,450,470,489,509,530,550,570,589,609,629,649,669,689,710,730,749,769,788,810,829,849,869,889,909,929,949,969,989,1010,1030,1050,1069,1089,1109,1130,1149,1169,1189,1209,1229,1249,1269,1289,1309,1329,1349,1369,1388,1410,1429,1449,1469,1489,1509,1529,1549,1569,1590,1609,1629,1649,1669,1689,1709,1730,1749,1769,1790,1810,1830,1849,1870,1890,1909,1930,1949,1969,1990,2009,2030,2050,2069,2089,2109,2129,2148,2169,2188,2209,2229,2250,2269,2288,2309,2329,2350,2369,2389,2409,2429,2449,2469,2489,2509,2530,2549,2568,2589,2610,2629],"xSR":741.5,"ySR":573.95,"xT1":424.9,"yT1":0,"xT2":1058.1,"yT2":0,"toosoon":0,"cond_shown":"Incongruent","ratio_trial":200,"L_num":3,"L_den":10,"R_num":1,"R_den":2,"correct_side":2,"subjID":"ValeriaBautistaRoman4G","gender":"1","school":"4","age":"9"},{"start_time":1552308760185,"click_time":1552308762358,"finger_time":1552308761778,"fix_duration":1184.8626461176957,"trial":17,"RT":1593,"MT":580,"sideResp":2,"stimulus":[],"xmouse":[778,778,778,778,778,778,778,778,778,778,778,778,778,778,778,778,778,778,778,778,778,778,778,778,778,778,778,778,780,781,781,782,782,782,782,782,782,782,782,782,782,782,782,782,782,782,782,782,782,782,782,782,782,782,782,782,782,782,782,782,782,782,782,782,782,782,782,782,782,782,782,782,782,782,782,782,781,773,763,746,733,721,697,692,691,692,700,730,758,767,799,819,867,894,928,961,997,1031,1072,1088,1093,1096,1098,1098,1098,1098,1098,1098,1094],"ymouse":[620,620,620,620,620,620,620,620,620,620,620,620,620,620,620,620,620,620,620,620,620,620,620,620,620,620,620,620,620,620,620,620,620,620,620,620,620,620,620,620,620,620,620,620,620,620,620,620,620,620,620,618,618,617,617,617,617,617,617,617,617,617,617,617,615,615,615,615,614,614,614,614,614,614,614,614,610,595,582,556,536,508,451,433,421,409,401,387,380,378,369,364,351,338,317,295,269,244,201,173,160,150,138,133,130,125,119,109,98],"timestamp_mouse":[14,33,53,72,94,114,133,153,173,194,212,234,254,274,293,313,333,353,372,394,413,433,452,472,494,514,533,553,573,594,613,634,653,673,693,714,734,753,773,794,813,833,853,873,894,912,933,954,974,993,1013,1034,1053,1073,1094,1113,1133,1153,1174,1193,1213,1232,1254,1273,1293,1313,1333,1352,1374,1393,1414,1433,1453,1473,1494,1512,1534,1553,1573,1593,1613,1633,1653,1674,1693,1714,1733,1753,1773,1794,1814,1834,1853,1873,1893,1914,1934,1953,1973,1993,2013,2032,2053,2073,2093,2113,2134,2152,2172],"xSR":741.5,"ySR":573.95,"xT1":424.9,"yT1":0,"xT2":1058.1,"yT2":0,"toosoon":0,"cond_shown":"Incongruent","ratio_trial":100,"L_num":3,"L_den":5,"R_num":11,"R_den":22,"correct_side":1,"subjID":"ValeriaBautistaRoman4G","gender":"1","school":"4","age":"9"},{"start_time":1552308764359,"click_time":1552308765738,"finger_time":1552308764938,"fix_duration":1037.9949232488548,"trial":18,"RT":579,"MT":800,"sideResp":2,"stimulus":[],"xmouse":[780,780,780,780,780,780,780,780,780,780,780,781,781,781,781,781,781,781,781,781,781,781,781,780,780,780,780,779,779,778,778,778,775,772,764,763,761,761,761,761,761,761,761,761,761,761,761,761,761,762,762,762,762,762,762,762,762,762,763,768,785,802,822,844,913,949,992,1032,1080,1148],"ymouse":[630,630,630,630,630,630,630,630,630,631,631,631,632,632,632,632,632,632,632,632,632,631,624,614,594,584,579,576,574,572,572,571,570,568,562,561,559,559,559,559,559,559,559,559,559,559,559,559,559,559,559,559,559,559,559,559,559,559,559,556,543,530,511,486,378,321,251,177,111,17],"timestamp_mouse":[1,19,40,60,79,100,119,140,159,179,199,219,240,260,279,299,320,340,359,379,400,419,439,459,479,499,519,540,559,579,598,619,639,659,678,699,719,739,759,779,799,820,840,858,880,900,919,940,960,979,999,1020,1040,1059,1079,1099,1119,1139,1159,1179,1199,1220,1239,1259,1279,1300,1320,1339,1359,1378],"xSR":741.5,"ySR":573.95,"xT1":424.9,"yT1":0,"xT2":1058.1,"yT2":0,"toosoon":0,"cond_shown":"Incongruent","ratio_trial":100,"L_num":17,"L_den":30,"R_num":10,"R_den":15,"correct_side":2,"subjID":"ValeriaBautistaRoman4G","gender":"1","school":"4","age":"9"},{"start_time":1552308768839,"click_time":1552308770578,"finger_time":1552308770239,"fix_duration":1180.7720120412969,"trial":19,"RT":1400,"MT":339,"sideResp":2,"stimulus":[],"xmouse":[786,786,786,786,786,786,786,786,786,786,786,786,786,786,786,786,786,786,786,786,786,786,786,786,786,786,786,786,786,786,786,786,786,786,786,786,786,786,786,786,786,786,786,786,786,786,786,786,786,786,786,786,786,786,786,786,786,786,786,786,786,786,789,791,799,804,814,822,834,855,866,877,888,897,918,925,934,941,948,965,979,993,1009,1025,1049,1054,1059],"ymouse":[625,625,625,625,625,625,625,625,625,625,625,625,625,625,625,625,625,625,625,625,625,625,625,625,625,625,625,625,625,625,625,625,625,625,625,625,625,625,625,625,625,625,625,625,625,625,625,625,625,625,625,625,625,625,625,625,625,625,625,625,625,625,625,625,623,620,614,609,601,581,565,546,527,506,437,383,308,269,233,175,142,118,101,88,67,63,55],"timestamp_mouse":[18,45,59,80,100,120,139,158,180,200,220,240,259,280,300,320,340,360,380,400,419,440,460,479,500,520,540,559,580,599,619,638,660,679,699,720,738,760,779,799,820,840,859,879,899,919,940,960,980,1000,1019,1039,1059,1079,1100,1119,1140,1159,1180,1198,1220,1240,1259,1279,1300,1320,1339,1359,1379,1400,1418,1440,1459,1478,1499,1520,1540,1559,1579,1599,1619,1639,1659,1679,1699,1719,1739],"xSR":741.5,"ySR":573.95,"xT1":424.9,"yT1":0,"xT2":1058.1,"yT2":0,"toosoon":0,"cond_shown":"Incongruent","ratio_trial":200,"L_num":3,"L_den":4,"R_num":11,"R_den":20,"correct_side":1,"subjID":"ValeriaBautistaRoman4G","gender":"1","school":"4","age":"9"},{"start_time":1552308772011,"click_time":1552308775358,"finger_time":1552308775038,"fix_duration":250,"trial":20,"RT":3027,"MT":320,"sideResp":1,"stimulus":[],"xmouse":[781,781,781,781,781,781,781,781,781,781,781,781,781,781,781,781,781,781,781,781,781,781,781,781,781,781,781,781,781,782,782,782,782,782,782,782,782,782,782,782,783,784,785,787,788,788,788,788,788,788,788,788,788,788,788,788,788,788,788,788,788,788,788,788,789,789,789,789,789,789,789,789,789,789,789,789,789,789,789,789,789,789,789,789,789,789,789,789,789,789,789,791,791,792,792,792,792,792,792,792,792,792,792,792,792,792,792,792,792,792,792,792,792,792,792,792,792,792,792,792,792,792,792,792,792,792,792,792,792,792,792,792,792,792,792,792,792,792,793,793,793,793,793,793,793,793,794,787,781,772,761,725,698,661,621,590,551,541,532,527,522,515,508,506,504,503,499,496],"ymouse":[647,647,647,647,647,647,647,647,647,647,647,647,647,647,647,647,647,647,647,647,647,647,647,647,647,647,647,647,646,646,646,646,646,646,646,646,646,646,646,646,646,645,644,641,640,639,639,639,639,639,639,639,639,639,639,639,639,639,639,639,639,639,639,639,639,639,639,639,639,639,639,639,639,639,639,639,639,639,639,639,639,639,639,639,639,639,639,639,639,639,639,639,639,639,639,639,639,639,639,639,639,639,639,639,639,639,639,639,639,639,639,639,639,639,639,639,639,639,639,639,639,639,639,639,639,639,639,639,639,639,639,639,639,639,639,639,639,639,639,639,639,639,639,639,639,639,636,624,615,600,579,517,469,402,336,287,223,204,176,162,149,137,123,120,116,113,104,99],"timestamp_mouse":[8,27,56,67,87,108,128,146,167,188,208,226,248,268,287,307,327,348,368,387,408,427,446,466,488,508,528,547,567,588,607,626,647,667,688,707,728,747,768,788,807,827,847,868,887,908,927,948,968,988,1006,1026,1048,1067,1088,1108,1127,1147,1167,1188,1206,1228,1247,1268,1287,1307,1327,1348,1368,1386,1408,1428,1447,1467,1488,1508,1527,1548,1568,1587,1607,1627,1647,1667,1688,1706,1727,1748,1768,1787,1807,1827,1848,1868,1888,1908,1927,1948,1967,1988,2006,2028,2048,2066,2087,2108,2127,2146,2168,2187,2207,2227,2247,2267,2288,2307,2328,2348,2368,2387,2407,2428,2447,2468,2487,2508,2527,2547,2567,2588,2608,2627,2647,2668,2688,2707,2728,2748,2767,2787,2807,2827,2847,2867,2888,2906,2927,2947,2967,2987,3008,3027,3047,3067,3088,3108,3127,3147,3167,3187,3207,3227,3247,3267,3286,3307,3327,3347],"xSR":741.5,"ySR":573.95,"xT1":424.9,"yT1":0,"xT2":1058.1,"yT2":0,"toosoon":0,"cond_shown":"Congruent","ratio_trial":200,"L_num":3,"L_den":10,"R_num":7,"R_den":14,"correct_side":2,"subjID":"ValeriaBautistaRoman4G","gender":"1","school":"4","age":"9"},{"start_time":1552308777744,"click_time":1552308780138,"finger_time":1552308779538,"fix_duration":1425.3927885361386,"trial":21,"RT":1794,"MT":600,"sideResp":1,"stimulus":[],"xmouse":[786,786,786,786,786,786,786,786,786,786,786,786,786,786,786,786,786,787,788,788,789,789,789,789,789,789,789,789,789,789,789,789,789,789,789,789,791,791,791,791,791,792,792,792,792,792,792,792,792,792,792,792,792,792,792,792,792,792,792,792,792,792,792,792,792,792,792,792,792,792,792,792,792,792,792,792,792,792,792,792,792,792,792,792,792,792,792,792,789,772,747,728,702,678,654,634,632,632,632,638,639,639,639,639,639,639,632,619,594,530,491,473,463,457,454,448,447,446,446,446],"ymouse":[601,601,601,601,601,601,601,601,601,601,601,601,601,601,601,601,601,601,601,601,601,601,601,601,601,601,601,601,601,601,601,601,601,601,601,601,601,601,601,601,601,601,601,601,601,601,601,601,601,601,601,601,601,601,601,601,601,601,601,601,601,601,601,601,601,601,601,601,601,601,601,601,601,601,601,601,601,601,601,601,601,601,601,601,601,601,598,596,588,566,548,535,520,506,487,458,447,436,425,396,374,362,353,342,318,303,285,263,242,195,167,154,144,134,129,117,112,107,102,91],"timestamp_mouse":[15,41,54,74,94,114,134,156,175,196,214,235,255,274,295,314,335,355,375,394,415,435,454,475,496,515,535,555,574,594,614,634,655,674,696,715,735,755,774,794,815,834,854,874,895,915,935,956,975,994,1015,1035,1055,1074,1094,1115,1136,1155,1175,1195,1214,1234,1255,1274,1295,1314,1335,1354,1374,1396,1415,1435,1454,1475,1494,1515,1534,1555,1575,1596,1615,1634,1654,1674,1695,1715,1734,1754,1774,1794,1814,1835,1854,1874,1894,1914,1935,1954,1975,1994,2014,2035,2054,2075,2094,2115,2135,2156,2174,2194,2215,2235,2255,2274,2294,2315,2335,2354,2374,2394],"xSR":741.5,"ySR":573.95,"xT1":424.9,"yT1":0,"xT2":1058.1,"yT2":0,"toosoon":0,"cond_shown":"Congruent","ratio_trial":200,"L_num":14,"L_den":28,"R_num":6,"R_den":20,"correct_side":1,"subjID":"ValeriaBautistaRoman4G","gender":"1","school":"4","age":"9"},{"start_time":1552308782557,"click_time":1552308784598,"finger_time":1552308783858,"fix_duration":1376.9583281266282,"trial":22,"RT":1301,"MT":740,"sideResp":2,"stimulus":[],"xmouse":[772,772,772,772,772,772,772,772,772,772,772,772,772,772,772,772,772,772,772,772,772,772,772,772,772,772,772,772,772,772,773,773,771,769,767,763,763,763,763,763,763,763,763,763,763,763,763,763,763,763,763,763,763,763,763,764,764,764,765,766,769,773,777,782,792,797,801,804,807,815,819,829,837,846,858,880,893,907,920,932,935,940,945,952,989,1040,1111,1160,1180,1185,1187,1187,1187,1183,1168,1129,1113,1101,1095,1090,1084,1081,1081],"ymouse":[629,629,629,629,629,629,629,629,629,629,629,629,629,629,629,629,629,629,629,629,629,629,629,629,629,629,629,629,629,629,629,629,629,629,630,631,631,631,631,631,631,631,631,631,631,631,631,631,631,631,631,631,631,631,631,631,631,631,631,630,628,624,619,610,580,559,534,509,485,439,419,388,370,352,334,306,288,271,257,233,226,219,216,215,208,207,207,207,205,201,199,199,199,194,182,161,153,144,137,128,111,102,97],"timestamp_mouse":[9,21,41,61,81,102,121,141,162,182,201,222,241,262,281,302,322,342,362,381,401,422,442,463,482,502,521,542,562,582,601,621,641,661,682,701,722,742,761,782,802,822,841,861,882,901,922,941,962,982,1001,1022,1042,1062,1083,1101,1122,1142,1162,1182,1202,1221,1241,1261,1282,1301,1321,1341,1361,1381,1401,1422,1441,1461,1481,1501,1521,1543,1561,1582,1601,1621,1641,1662,1681,1701,1723,1742,1762,1781,1802,1821,1841,1862,1881,1902,1921,1942,1961,1981,2002,2022,2041],"xSR":741.5,"ySR":573.95,"xT1":424.9,"yT1":0,"xT2":1058.1,"yT2":0,"toosoon":0,"cond_shown":"Incongruent","ratio_trial":300,"L_num":7,"L_den":10,"R_num":8,"R_den":20,"correct_side":1,"subjID":"ValeriaBautistaRoman4G","gender":"1","school":"4","age":"9"},{"start_time":1552308785940,"click_time":1552308789538,"finger_time":1552308789159,"fix_duration":280.62436889945474,"trial":23,"RT":3219,"MT":379,"sideResp":1,"stimulus":[],"xmouse":[799,799,799,799,799,799,799,799,799,799,799,799,799,799,799,799,799,799,799,799,799,799,799,799,799,799,799,799,799,799,799,799,799,799,799,799,799,799,799,799,799,799,799,799,799,799,799,799,799,799,799,799,799,799,799,799,799,799,799,799,799,799,799,799,799,799,799,799,799,799,799,799,799,799,799,799,799,799,799,799,799,799,799,799,799,799,799,799,799,799,799,799,799,799,799,799,799,799,799,799,799,799,799,799,799,799,799,799,799,799,799,799,799,799,799,799,797,797,797,797,797,797,797,797,798,798,798,798,798,798,787,778,772,770,767,767,766,766,766,766,766,766,766,766,768,768,770,770,770,770,770,771,771,771,771,771,772,772,766,756,731,724,719,710,687,680,669,663,661,660,660,657,653,645,618,603,586,562,533,448],"ymouse":[643,643,643,643,643,643,643,643,643,643,643,643,643,643,643,643,643,643,643,643,643,643,643,643,643,643,643,643,643,643,643,643,643,643,643,643,643,643,643,643,643,643,643,643,643,644,644,644,645,645,645,645,645,646,646,646,648,648,648,649,649,649,649,649,649,649,649,649,649,649,649,649,649,649,649,649,649,649,649,649,649,649,649,649,649,649,649,649,649,649,649,649,649,649,649,649,649,649,649,649,649,649,649,649,649,649,649,649,649,649,649,649,647,645,644,641,639,637,635,633,627,623,618,613,606,605,604,603,603,603,603,605,609,612,617,619,620,620,620,620,620,620,620,620,621,621,621,621,621,621,621,621,621,621,621,621,619,616,602,582,507,479,439,392,308,286,261,242,228,212,208,204,201,195,182,174,162,151,137,97],"timestamp_mouse":[18,39,61,78,98,118,138,159,179,199,219,239,258,279,299,319,339,358,379,398,418,438,459,478,499,518,538,558,578,598,620,638,659,679,699,718,738,759,778,799,818,838,858,878,898,919,938,958,978,998,1018,1038,1058,1078,1098,1118,1139,1158,1178,1199,1218,1239,1259,1278,1299,1318,1339,1359,1379,1398,1418,1438,1458,1479,1498,1518,1539,1559,1579,1598,1619,1638,1658,1679,1698,1719,1738,1759,1779,1798,1818,1838,1858,1879,1898,1918,1938,1958,1978,1999,2018,2039,2058,2078,2099,2118,2138,2159,2179,2199,2218,2239,2259,2278,2298,2318,2338,2359,2378,2398,2419,2438,2458,2479,2498,2518,2539,2559,2578,2598,2619,2638,2659,2679,2698,2718,2738,2758,2778,2799,2818,2839,2859,2878,2898,2918,2938,2959,2978,2998,3019,3039,3058,3078,3098,3118,3138,3158,3178,3197,3219,3238,3259,3278,3297,3319,3338,3358,3378,3398,3419,3438,3459,3478,3498,3519,3538,3558,3578,3598],"xSR":741.5,"ySR":573.95,"xT1":424.9,"yT1":0,"xT2":1058.1,"yT2":0,"toosoon":0,"cond_shown":"Congruent","ratio_trial":100,"L_num":3,"L_den":6,"R_num":2,"R_den":5,"correct_side":1,"subjID":"ValeriaBautistaRoman4G","gender":"1","school":"4","age":"9"},{"start_time":1552308790984,"click_time":1552308792839,"finger_time":1552308792479,"fix_duration":305.36251210713505,"trial":24,"RT":1495,"MT":360,"sideResp":2,"stimulus":[],"xmouse":[798,798,798,798,798,798,798,798,798,798,798,798,798,798,798,798,798,798,798,798,798,798,798,798,798,798,798,798,798,798,798,798,798,798,798,798,798,798,798,798,798,798,798,798,798,798,798,798,798,798,798,798,798,798,798,798,798,798,798,798,798,798,798,798,798,798,798,799,803,807,811,816,824,830,835,842,853,893,932,964,995,1022,1054,1061,1063,1067,1071,1083,1088,1093,1093,1093,1092],"ymouse":[639,639,639,639,639,639,639,639,639,639,639,639,639,639,639,639,639,639,639,639,639,639,639,639,639,639,639,639,639,639,639,639,639,639,639,639,639,639,639,639,639,639,639,639,639,639,639,639,639,639,639,639,639,639,639,639,639,639,639,639,639,639,639,639,639,639,639,638,631,626,621,613,593,579,557,533,498,424,369,338,306,283,255,246,239,227,211,168,149,124,111,100,83],"timestamp_mouse":[15,34,55,75,94,115,135,155,175,195,214,234,254,275,295,315,334,354,374,394,414,434,455,474,495,514,534,555,575,594,614,635,654,674,694,715,735,754,775,795,815,835,855,874,896,915,935,954,974,994,1015,1034,1054,1075,1095,1114,1134,1154,1175,1194,1215,1234,1255,1275,1295,1315,1335,1355,1374,1394,1414,1434,1455,1474,1495,1514,1536,1555,1574,1594,1614,1634,1655,1674,1695,1715,1734,1754,1774,1794,1814,1835,1854],"xSR":741.5,"ySR":573.95,"xT1":424.9,"yT1":0,"xT2":1058.1,"yT2":0,"toosoon":0,"cond_shown":"Incongruent","ratio_trial":300,"L_num":13,"L_den":26,"R_num":12,"R_den":15,"correct_side":2,"subjID":"ValeriaBautistaRoman4G","gender":"1","school":"4","age":"9"},{"start_time":1552308795554,"click_time":1552308797158,"finger_time":1552308796479,"fix_duration":1374.1355437011819,"trial":25,"RT":925,"MT":679,"sideResp":2,"stimulus":[],"xmouse":[797,797,797,797,797,797,797,797,797,797,797,797,797,797,797,797,797,797,798,798,798,798,799,800,800,800,801,801,801,801,802,802,802,802,802,802,802,802,803,805,809,813,816,820,824,827,831,837,843,860,877,891,904,921,950,963,975,987,998,1005,1021,1023,1025,1028,1034,1036,1038,1040,1042,1043,1044,1044,1045,1046,1048,1049,1050,1050,1052,1056,1065],"ymouse":[630,629,629,629,629,629,629,629,629,629,629,629,628,628,628,628,628,628,627,626,626,626,625,624,624,624,622,622,622,621,620,620,620,620,620,620,618,615,612,606,600,597,593,588,583,578,573,565,555,529,499,473,445,413,348,316,287,259,233,208,154,135,119,102,74,68,63,61,60,60,60,60,60,60,59,59,59,59,59,59,59],"timestamp_mouse":[9,23,44,64,84,104,125,145,165,184,204,224,245,265,285,304,325,345,365,385,404,424,444,465,484,505,525,544,564,585,606,624,645,665,684,704,725,745,766,784,804,824,845,864,885,904,925,944,965,984,1004,1024,1044,1064,1085,1104,1125,1145,1165,1184,1204,1224,1244,1264,1284,1304,1324,1344,1364,1385,1405,1424,1444,1465,1484,1504,1525,1545,1565,1584,1604],"xSR":741.5,"ySR":573.95,"xT1":424.9,"yT1":0,"xT2":1058.1,"yT2":0,"toosoon":0,"cond_shown":"Congruent","ratio_trial":300,"L_num":8,"L_den":15,"R_num":10,"R_den":12,"correct_side":2,"subjID":"ValeriaBautistaRoman4G","gender":"1","school":"4","age":"9"},{"start_time":1552308800995,"click_time":1552308801979,"finger_time":1552308801498,"fix_duration":755.9834437462737,"trial":26,"RT":503,"MT":481,"sideResp":2,"stimulus":[],"xmouse":[787,787,787,787,787,787,787,787,787,787,787,787,787,787,787,787,787,787,787,787,786,786,783,780,772,764,755,737,734,731,731,731,733,740,750,762,773,806,825,859,885,914,983,1015,1041,1060,1073,1091,1097,1101],"ymouse":[621,621,621,621,621,621,621,621,621,621,621,621,621,621,621,621,621,621,621,621,621,620,612,602,585,564,543,498,479,453,439,425,398,383,369,355,342,317,304,287,277,263,231,213,193,178,160,130,111,99],"timestamp_mouse":[19,25,44,63,83,103,124,143,163,184,203,223,243,265,284,304,323,345,363,384,404,423,443,463,484,503,524,544,563,584,603,623,643,663,683,704,723,743,764,784,804,823,843,863,884,905,923,943,963,984],"xSR":741.5,"ySR":573.95,"xT1":424.9,"yT1":0,"xT2":1058.1,"yT2":0,"toosoon":0,"cond_shown":"Incongruent","ratio_trial":300,"L_num":4,"L_den":20,"R_num":2,"R_den":4,"correct_side":2,"subjID":"ValeriaBautistaRoman4G","gender":"1","school":"4","age":"9"},{"start_time":1552308804464,"click_time":1552308806438,"finger_time":1552308805759,"fix_duration":822.9841040193835,"trial":27,"RT":1295,"MT":679,"sideResp":2,"stimulus":[],"xmouse":[781,781,781,781,781,781,781,781,781,781,781,781,781,781,781,781,781,781,781,781,781,781,781,781,781,781,781,781,781,781,781,781,781,781,781,782,783,783,783,783,783,783,783,783,783,783,783,783,783,783,783,784,784,784,784,784,784,784,785,785,785,785,785,788,796,805,817,829,847,855,859,862,865,879,882,898,909,921,958,977,990,1001,1012,1027,1033,1035,1035,1035,1037,1038,1038,1039,1039,1041,1042,1046,1050,1055,1064],"ymouse":[599,599,599,599,599,599,599,599,599,599,599,599,599,599,599,599,599,599,599,599,599,599,599,599,599,599,599,599,599,599,599,599,599,599,599,598,598,598,598,598,598,598,598,598,598,598,598,598,598,598,598,596,596,596,594,593,592,591,588,586,585,584,583,578,570,563,554,546,527,516,507,498,489,454,445,410,386,361,298,264,236,215,198,166,143,140,140,140,138,135,134,133,132,129,128,123,117,112,99],"timestamp_mouse":[16,48,55,74,95,115,135,154,175,194,215,234,254,274,295,314,335,356,375,394,415,434,454,475,495,515,535,554,575,594,615,634,656,675,695,715,735,754,775,794,815,834,854,875,894,914,935,955,974,994,1014,1034,1054,1074,1094,1114,1134,1154,1175,1195,1214,1234,1255,1274,1295,1314,1335,1356,1374,1394,1415,1435,1454,1475,1494,1514,1535,1555,1574,1595,1615,1634,1656,1675,1694,1714,1735,1754,1774,1794,1816,1834,1854,1874,1894,1914,1934,1954,1974],"xSR":741.5,"ySR":573.95,"xT1":424.9,"yT1":0,"xT2":1058.1,"yT2":0,"toosoon":0,"cond_shown":"Congruent","ratio_trial":100,"L_num":9,"L_den":15,"R_num":8,"R_den":16,"correct_side":1,"subjID":"ValeriaBautistaRoman4G","gender":"1","school":"4","age":"9"},{"start_time":1552308811080,"click_time":1552308812738,"finger_time":1552308811999,"fix_duration":860.8848087866492,"trial":28,"RT":919,"MT":739,"sideResp":2,"stimulus":[],"xmouse":[787,787,787,787,787,787,787,787,787,787,787,787,787,787,787,787,787,787,787,787,787,787,787,787,787,787,787,788,789,789,790,791,793,793,794,794,795,796,796,796,796,796,796,795,795,795,795,799,800,801,802,804,810,815,830,846,860,872,886,892,899,910,935,944,952,956,958,967,973,977,983,990,1004,1014,1019,1024,1029,1044,1050,1056,1064,1075,1105],"ymouse":[655,655,655,655,655,655,655,655,655,655,655,655,655,655,655,655,655,655,655,655,655,655,655,655,655,655,655,655,655,655,655,653,649,648,647,645,644,640,628,621,612,605,591,585,575,568,558,539,532,527,523,519,510,505,495,489,483,477,466,460,450,438,408,394,374,362,353,340,333,327,317,307,286,267,257,246,229,194,178,163,142,124,87],"timestamp_mouse":[18,42,59,78,98,120,138,158,179,198,218,239,259,278,299,318,339,358,379,399,418,438,459,478,499,519,539,559,578,598,618,638,658,678,698,718,738,758,778,799,819,838,858,878,898,919,939,958,979,999,1018,1039,1058,1079,1099,1118,1139,1158,1178,1198,1219,1238,1258,1278,1298,1318,1338,1358,1379,1398,1418,1438,1458,1478,1498,1518,1539,1559,1578,1599,1619,1639,1658],"xSR":741.5,"ySR":573.95,"xT1":424.9,"yT1":0,"xT2":1058.1,"yT2":0,"toosoon":0,"cond_shown":"Incongruent","ratio_trial":100,"L_num":6,"L_den":12,"R_num":3,"R_den":5,"correct_side":2,"subjID":"ValeriaBautistaRoman4G","gender":"1","school":"4","age":"9"},{"start_time":1552308816290,"click_time":1552308817238,"finger_time":1552308817038,"fix_duration":250,"trial":29,"RT":748,"MT":200,"sideResp":1,"stimulus":[],"xmouse":[803,803,803,803,803,803,803,803,803,803,803,803,803,803,803,803,803,803,803,803,803,803,803,803,803,803,803,803,803,803,803,803,803,803,802,802,802,796,786,776,753,726,622,547,484,465,457,455],"ymouse":[613,613,613,613,613,613,613,613,613,613,613,613,613,613,613,613,613,613,613,613,613,613,613,613,613,613,613,613,613,613,613,613,613,613,612,602,590,547,521,494,457,418,313,250,183,151,125,76],"timestamp_mouse":[9,29,48,68,88,110,129,148,168,188,208,229,249,269,288,309,329,348,369,389,409,428,449,468,488,509,528,549,569,588,609,629,648,668,688,708,729,748,769,789,809,828,849,869,888,908,930,948],"xSR":741.5,"ySR":573.95,"xT1":424.9,"yT1":0,"xT2":1058.1,"yT2":0,"toosoon":0,"cond_shown":"Congruent","ratio_trial":200,"L_num":8,"L_den":15,"R_num":3,"R_den":9,"correct_side":1,"subjID":"ValeriaBautistaRoman4G","gender":"1","school":"4","age":"9"},{"start_time":1552308821530,"click_time":1552308823358,"finger_time":1552308822919,"fix_duration":1109.6577889594578,"trial":30,"RT":1389,"MT":439,"sideResp":2,"stimulus":[],"xmouse":[798,798,798,798,798,798,798,798,798,797,796,796,796,796,796,796,796,795,794,794,794,794,794,794,794,794,794,794,794,794,794,794,794,794,794,794,794,794,794,794,794,794,794,794,794,794,794,794,794,794,794,794,794,794,794,794,794,794,794,794,794,794,794,794,795,798,799,802,808,819,843,866,890,917,939,957,984,996,1010,1018,1025,1046,1051,1058,1064,1070,1071,1072,1073,1075,1085,1097],"ymouse":[620,620,620,620,620,620,620,620,620,620,620,620,620,620,620,620,620,620,620,620,620,620,620,620,620,620,620,620,620,620,620,620,620,620,620,620,620,620,620,620,620,620,620,620,620,620,620,620,620,620,620,620,620,620,620,620,620,620,620,620,620,620,620,618,616,609,604,598,582,563,515,470,430,389,350,318,283,274,266,258,249,222,218,209,203,193,187,180,170,160,119,94],"timestamp_mouse":[8,35,48,68,89,108,128,148,168,189,209,229,248,268,289,308,329,349,369,389,408,428,449,468,489,508,528,549,568,588,608,628,649,668,689,708,730,748,768,789,809,828,848,869,889,908,929,950,969,989,1009,1028,1049,1069,1088,1108,1129,1149,1169,1188,1209,1229,1248,1269,1288,1308,1328,1348,1369,1389,1408,1428,1448,1468,1489,1509,1528,1548,1568,1588,1608,1628,1648,1668,1688,1708,1728,1748,1768,1789,1809,1828],"xSR":741.5,"ySR":573.95,"xT1":424.9,"yT1":0,"xT2":1058.1,"yT2":0,"toosoon":0,"cond_shown":"Congruent","ratio_trial":100,"L_num":6,"L_den":20,"R_num":5,"R_den":25,"correct_side":1,"subjID":"ValeriaBautistaRoman4G","gender":"1","school":"4","age":"9"},{"start_time":1552308825752,"click_time":1552308827719,"finger_time":1552308826999,"fix_duration":1151.5333876948216,"trial":31,"RT":1247,"MT":720,"sideResp":1,"stimulus":[],"xmouse":[805,805,805,805,805,805,805,805,805,805,805,805,805,805,805,805,805,805,805,805,805,805,805,805,805,805,805,805,805,805,805,805,805,805,805,805,805,805,805,805,805,805,805,805,804,800,795,792,788,784,780,780,779,778,777,775,773,770,767,760,752,744,736,723,689,671,652,637,628,613,608,602,596,590,586,584,580,577,575,571,556,543,538,532,528,519,516,513,511,510,506,502,493,486,476,470,465,460,456],"ymouse":[647,647,647,647,647,647,647,647,647,647,647,647,647,647,647,647,647,647,647,647,647,647,647,647,647,647,647,647,647,647,647,647,647,647,647,647,647,647,647,647,647,647,647,647,647,645,642,640,636,632,627,626,626,624,622,618,616,612,609,601,594,587,577,563,534,521,507,496,486,456,424,398,377,357,327,312,290,275,266,256,236,222,218,213,209,200,198,195,194,193,192,183,164,151,129,118,110,101,95],"timestamp_mouse":[9,34,46,66,87,107,127,146,168,186,206,226,246,267,286,306,326,346,367,386,407,426,447,467,487,507,526,546,566,586,606,627,646,666,687,706,727,747,767,787,807,826,848,866,887,906,927,946,966,986,1006,1026,1047,1066,1087,1107,1127,1147,1166,1186,1206,1226,1247,1267,1286,1306,1326,1346,1366,1386,1406,1426,1447,1466,1486,1506,1526,1547,1567,1587,1607,1626,1646,1666,1686,1706,1726,1746,1766,1786,1806,1827,1846,1866,1886,1906,1927,1946,1966],"xSR":741.5,"ySR":573.95,"xT1":424.9,"yT1":0,"xT2":1058.1,"yT2":0,"toosoon":0,"cond_shown":"Congruent","ratio_trial":100,"L_num":11,"L_den":22,"R_num":6,"R_den":15,"correct_side":1,"subjID":"ValeriaBautistaRoman4G","gender":"1","school":"4","age":"9"},{"start_time":1552308830672,"click_time":1552308832199,"finger_time":1552308831458,"fix_duration":313.00789679901555,"trial":32,"RT":786,"MT":741,"sideResp":2,"stimulus":[],"xmouse":[789,789,789,789,789,789,789,789,789,789,789,789,789,789,789,789,790,790,791,791,791,791,791,791,791,791,791,791,791,791,791,791,791,791,791,793,795,799,820,837,857,880,909,948,965,974,982,990,1006,1012,1017,1022,1023,1027,1030,1033,1035,1038,1044,1046,1048,1051,1053,1058,1059,1061,1062,1064,1064,1064,1064,1064,1064,1064,1064,1064,1064],"ymouse":[636,636,636,636,636,636,636,636,636,636,636,636,636,636,636,636,635,633,630,629,628,628,628,628,627,626,626,626,625,625,625,625,625,624,622,619,616,610,587,569,549,520,488,415,364,331,307,285,258,249,242,235,231,220,211,203,197,190,172,165,159,156,154,146,142,136,133,127,125,124,124,124,122,118,112,106,99],"timestamp_mouse":[11,37,47,66,86,106,127,147,167,187,207,226,247,267,286,307,327,347,366,387,407,427,446,466,486,506,527,547,567,587,607,627,646,666,687,706,727,747,766,786,807,827,846,866,886,907,927,946,966,986,1007,1026,1046,1066,1087,1107,1126,1146,1166,1186,1207,1226,1246,1266,1287,1306,1327,1346,1366,1387,1406,1427,1446,1466,1486,1506,1527],"xSR":741.5,"ySR":573.95,"xT1":424.9,"yT1":0,"xT2":1058.1,"yT2":0,"toosoon":0,"cond_shown":"Incongruent","ratio_trial":200,"L_num":9,"L_den":15,"R_num":8,"R_den":10,"correct_side":2,"subjID":"ValeriaBautistaRoman4G","gender":"1","school":"4","age":"9"},{"start_time":1552308834410,"click_time":1552308836059,"finger_time":1552308835419,"fix_duration":250,"trial":33,"RT":1009,"MT":640,"sideResp":2,"stimulus":[],"xmouse":[804,804,804,804,804,804,804,804,804,804,804,804,804,804,804,804,804,804,804,804,804,804,804,804,804,804,804,804,804,804,804,804,804,804,804,804,804,804,804,804,804,804,804,804,806,807,809,810,811,815,818,826,830,835,845,855,883,900,936,975,1032,1173,1220,1240,1252,1256,1258,1258,1258,1258,1256,1249,1246,1244,1243,1243,1242,1239,1236,1230,1220,1174,1140],"ymouse":[625,625,625,625,625,625,625,625,625,625,625,625,625,625,625,625,625,625,625,625,625,625,625,625,625,625,625,625,625,625,625,625,625,625,625,625,625,625,625,625,625,625,625,624,620,615,607,601,594,583,570,549,535,518,500,480,436,412,362,325,287,208,181,166,157,153,150,143,137,131,122,107,101,98,96,95,95,95,94,94,92,82,76],"timestamp_mouse":[11,31,48,68,88,108,128,149,168,188,208,229,248,268,289,308,329,349,370,388,409,429,448,468,489,510,529,549,569,588,609,629,650,668,689,708,729,748,768,789,808,828,849,869,888,908,928,949,968,989,1009,1028,1049,1068,1089,1108,1128,1149,1168,1188,1209,1228,1248,1269,1289,1309,1328,1348,1369,1388,1408,1428,1449,1468,1489,1508,1528,1548,1568,1588,1608,1628,1648],"xSR":741.5,"ySR":573.95,"xT1":424.9,"yT1":0,"xT2":1058.1,"yT2":0,"toosoon":0,"cond_shown":"Incongruent","ratio_trial":300,"L_num":4,"L_den":20,"R_num":2,"R_den":4,"correct_side":2,"subjID":"ValeriaBautistaRoman4G","gender":"1","school":"4","age":"9"},{"start_time":1552308840713,"click_time":1552308843738,"finger_time":1552308843218,"fix_duration":1232.599343524468,"trial":34,"RT":2505,"MT":520,"sideResp":2,"stimulus":[],"xmouse":[780,780,780,780,780,780,780,780,780,780,780,780,780,780,780,780,780,780,780,780,780,780,780,780,780,780,780,780,780,780,780,780,780,780,780,780,780,780,780,780,780,780,780,780,780,780,780,780,780,780,780,780,780,780,780,780,780,780,780,780,780,780,780,780,780,780,780,780,780,780,780,780,780,780,780,780,780,780,780,780,780,780,780,780,780,780,780,780,780,780,780,780,780,780,780,780,780,780,780,780,780,780,780,780,780,780,780,780,780,780,780,780,780,780,780,780,780,780,780,780,780,781,797,811,830,851,902,913,913,907,895,889,893,902,912,915,919,924,926,931,939,964,976,981,983,984,984,992,1004,1021,1040,1064],"ymouse":[637,637,637,637,637,637,637,637,637,637,637,637,637,637,637,637,637,637,637,637,637,637,637,637,637,637,637,637,637,637,637,637,637,637,637,637,637,637,637,637,637,637,637,637,637,637,637,637,637,637,637,637,637,637,637,637,637,637,637,637,637,637,637,637,637,637,637,637,637,637,637,637,637,637,637,637,637,637,637,637,637,637,637,637,637,637,637,637,637,637,637,637,637,637,637,637,637,637,637,637,637,637,637,637,637,636,636,636,636,636,636,636,636,636,636,636,636,636,636,636,636,634,614,599,580,561,505,470,426,387,341,259,220,183,151,128,109,77,71,65,63,59,58,58,57,57,57,57,57,56,53,48],"timestamp_mouse":[8,25,46,65,86,105,125,146,166,186,206,225,246,266,285,306,326,345,365,386,405,425,445,466,486,506,525,545,566,586,605,625,644,666,686,706,726,746,765,786,805,825,845,866,885,906,924,945,966,985,1006,1026,1044,1066,1086,1105,1125,1145,1166,1186,1206,1226,1246,1266,1285,1306,1326,1345,1366,1384,1406,1425,1445,1465,1486,1505,1525,1546,1565,1586,1604,1626,1646,1665,1686,1706,1725,1745,1766,1786,1805,1825,1845,1866,1886,1905,1926,1945,1965,1986,2005,2024,2045,2065,2086,2106,2126,2146,2166,2184,2206,2226,2246,2265,2285,2305,2326,2346,2365,2386,2406,2425,2446,2465,2485,2505,2525,2545,2566,2585,2605,2625,2645,2665,2685,2706,2725,2745,2766,2786,2805,2826,2845,2866,2886,2906,2925,2945,2966,2985,3005,3025],"xSR":741.5,"ySR":573.95,"xT1":424.9,"yT1":0,"xT2":1058.1,"yT2":0,"toosoon":0,"cond_shown":"Incongruent","ratio_trial":200,"L_num":14,"L_den":30,"R_num":12,"R_den":18,"correct_side":2,"subjID":"ValeriaBautistaRoman4G","gender":"1","school":"4","age":"9"},{"start_time":1552308848291,"click_time":1552308849799,"finger_time":1552308849198,"fix_duration":250,"trial":35,"RT":907,"MT":601,"sideResp":1,"stimulus":[],"xmouse":[784,784,784,784,785,785,785,784,783,783,781,780,777,776,776,776,776,776,776,776,776,776,776,776,776,776,776,776,776,776,776,776,776,776,776,776,776,776,776,776,775,774,773,765,757,740,720,684,667,654,641,633,617,608,596,584,571,556,555,555,554,554,553,553,553,553,553,561,564,566,568,568,558,543,532,522],"ymouse":[619,619,619,619,620,620,620,622,622,622,623,623,624,625,625,625,625,625,625,625,625,625,625,625,625,625,625,625,625,625,625,625,625,625,625,625,625,625,625,625,623,621,618,604,595,581,565,533,518,504,492,481,453,433,413,391,368,331,312,293,276,259,221,198,186,175,163,136,126,116,104,92,65,44,30,17],"timestamp_mouse":[8,39,47,68,87,108,127,147,167,188,207,228,247,268,288,308,327,348,368,388,408,428,448,468,488,507,528,547,568,588,607,628,648,667,688,708,727,747,767,788,807,828,847,867,887,907,928,947,967,988,1008,1028,1048,1067,1087,1108,1127,1147,1167,1187,1207,1228,1247,1267,1287,1307,1327,1347,1367,1387,1408,1428,1447,1467,1487,1508],"xSR":741.5,"ySR":573.95,"xT1":424.9,"yT1":0,"xT2":1058.1,"yT2":0,"toosoon":0,"cond_shown":"Incongruent","ratio_trial":200,"L_num":7,"L_den":10,"R_num":14,"R_den":28,"correct_side":1,"subjID":"ValeriaBautistaRoman4G","gender":"1","school":"4","age":"9"},{"start_time":1552308857622,"click_time":1552308859098,"finger_time":1552308858458,"fix_duration":1322.2902797050956,"trial":36,"RT":836,"MT":640,"sideResp":1,"stimulus":[],"xmouse":[788,788,788,788,788,788,788,788,788,788,788,788,788,788,788,788,788,788,788,788,788,788,788,788,788,788,788,788,788,788,788,788,788,788,788,788,788,788,787,788,789,789,786,782,779,773,773,773,773,771,759,747,732,716,697,663,629,599,570,548,536,534,534,534,534,534,535,536,537,539,539,537,531,523],"ymouse":[615,615,615,615,615,615,615,615,615,615,615,615,615,615,615,615,615,615,615,615,615,615,615,615,615,615,615,615,615,615,615,615,615,615,615,615,615,615,614,609,584,572,553,532,510,467,441,424,411,399,370,350,333,319,302,270,246,233,218,208,199,197,197,196,194,188,181,177,170,163,153,128,110,93],"timestamp_mouse":[32,37,55,76,96,116,137,157,176,195,217,236,257,277,296,316,336,357,376,397,417,437,457,476,497,517,536,557,577,597,616,636,656,677,696,716,736,756,777,796,816,836,857,876,897,916,936,956,976,996,1017,1037,1057,1076,1096,1116,1136,1156,1176,1196,1216,1236,1257,1276,1297,1316,1335,1356,1377,1396,1416,1436,1456,1476],"xSR":741.5,"ySR":573.95,"xT1":424.9,"yT1":0,"xT2":1058.1,"yT2":0,"toosoon":0,"cond_shown":"Congruent","ratio_trial":200,"L_num":16,"L_den":20,"R_num":12,"R_den":20,"correct_side":1,"subjID":"ValeriaBautistaRoman4G","gender":"1","school":"4","age":"9"},{"start_time":1552308861112,"click_time":1552308862519,"finger_time":1552308861938,"fix_duration":951.6335497217518,"trial":37,"RT":826,"MT":581,"sideResp":2,"stimulus":[],"xmouse":[781,781,781,781,781,781,781,781,781,781,781,781,781,781,781,781,781,781,781,782,782,782,782,783,783,784,784,784,784,784,784,784,784,784,784,785,785,787,791,807,841,897,1003,1019,1029,1036,1048,1052,1055,1056,1056,1056,1056,1055,1054,1053,1052,1050,1049,1048,1046,1043,1043,1043,1044,1044,1055,1062,1072,1083,1093],"ymouse":[619,619,619,619,619,619,619,619,619,619,619,619,619,619,619,619,619,619,618,616,616,614,614,613,613,612,612,612,612,612,612,612,611,610,610,609,608,605,602,594,579,556,487,454,421,391,350,336,325,316,311,307,303,299,295,289,282,261,251,239,226,212,210,209,207,204,183,165,141,116,85],"timestamp_mouse":[9,40,46,67,86,106,126,146,167,186,207,226,247,267,287,305,327,346,367,386,407,427,447,465,487,506,527,546,567,587,607,626,646,666,686,707,726,746,766,787,807,826,847,866,886,907,926,945,967,986,1006,1026,1046,1066,1087,1106,1126,1146,1167,1187,1207,1226,1247,1267,1286,1306,1326,1346,1367,1386,1407],"xSR":741.5,"ySR":573.95,"xT1":424.9,"yT1":0,"xT2":1058.1,"yT2":0,"toosoon":0,"cond_shown":"Congruent","ratio_trial":200,"L_num":9,"L_den":30,"R_num":13,"R_den":26,"correct_side":2,"subjID":"ValeriaBautistaRoman4G","gender":"1","school":"4","age":"9"},{"start_time":1552308867491,"click_time":1552308868480,"finger_time":1552308867978,"fix_duration":250,"trial":38,"RT":487,"MT":502,"sideResp":2,"stimulus":[],"xmouse":[801,801,801,801,801,801,801,801,801,801,801,801,801,801,801,801,801,801,802,803,803,803,804,808,814,823,831,859,884,915,948,977,1039,1055,1067,1076,1082,1087,1090,1092,1092,1095,1097,1097,1097,1097,1097,1097,1098,1099],"ymouse":[611,611,611,611,611,611,611,611,611,611,611,611,611,611,611,611,611,611,611,605,602,598,592,583,573,557,539,490,450,399,354,313,220,195,175,158,144,125,119,115,113,109,104,103,103,103,103,103,101,99],"timestamp_mouse":[12,31,47,68,87,107,127,147,167,187,208,227,247,267,287,308,328,347,367,387,408,427,446,468,487,507,527,547,566,588,607,626,648,667,687,707,728,747,767,788,807,827,847,867,887,907,927,947,967,988],"xSR":741.5,"ySR":573.95,"xT1":424.9,"yT1":0,"xT2":1058.1,"yT2":0,"toosoon":0,"cond_shown":"Congruent","ratio_trial":300,"L_num":1,"L_den":20,"R_num":7,"R_den":20,"correct_side":2,"subjID":"ValeriaBautistaRoman4G","gender":"1","school":"4","age":"9"},{"start_time":1552308870988,"click_time":1552308872018,"finger_time":1552308871519,"fix_duration":1407.844386620013,"trial":39,"RT":531,"MT":499,"sideResp":1,"stimulus":[],"xmouse":[770,770,770,770,770,770,772,773,773,774,774,774,774,774,774,774,774,774,774,774,776,780,790,796,803,809,815,830,842,850,858,859,858,854,851,848,843,817,795,744,702,682,640,619,597,580,565,518,483,467,457,448],"ymouse":[619,619,619,619,619,619,620,620,620,620,620,620,620,620,620,620,620,620,620,620,620,618,608,601,593,582,568,533,505,478,416,384,350,339,333,328,325,318,311,296,281,273,252,241,227,212,197,162,137,122,109,92],"timestamp_mouse":[10,30,50,70,90,110,131,150,171,190,210,231,250,270,290,311,331,350,371,390,411,431,450,470,491,510,531,550,569,590,611,630,649,670,691,710,731,749,770,790,810,830,850,870,891,910,931,950,970,991,1011,1030],"xSR":741.5,"ySR":573.95,"xT1":424.9,"yT1":0,"xT2":1058.1,"yT2":0,"toosoon":0,"cond_shown":"Incongruent","ratio_trial":300,"L_num":4,"L_den":5,"R_num":8,"R_den":16,"correct_side":1,"subjID":"ValeriaBautistaRoman4G","gender":"1","school":"4","age":"9"},{"start_time":1552308874478,"click_time":1552308875778,"finger_time":1552308875338,"fix_duration":1077.7019879246689,"trial":40,"RT":860,"MT":440,"sideResp":1,"stimulus":[],"xmouse":[819,819,818,818,818,818,818,818,818,818,818,818,818,818,818,818,818,818,818,818,818,818,818,818,818,818,818,818,818,818,818,819,819,819,820,822,823,825,828,828,829,829,829,826,817,809,800,789,776,771,766,759,752,726,707,684,674,664,639,626,607,584,558,507,457,430],"ymouse":[616,616,616,616,616,616,616,616,617,617,617,617,617,617,617,617,617,617,617,617,617,617,617,617,617,617,617,617,617,617,617,617,617,617,617,617,616,612,601,598,594,589,585,572,553,541,528,513,491,480,471,460,450,417,402,383,367,347,311,291,268,238,208,156,111,83],"timestamp_mouse":[9,21,40,61,80,101,120,140,160,181,201,221,241,261,281,300,319,340,361,379,401,421,440,460,479,501,521,541,561,580,601,621,641,661,681,700,720,740,760,780,800,820,840,860,880,900,921,940,960,980,1001,1021,1041,1060,1081,1100,1121,1141,1160,1180,1200,1220,1240,1260,1281,1300],"xSR":741.5,"ySR":573.95,"xT1":424.9,"yT1":0,"xT2":1058.1,"yT2":0,"toosoon":0,"cond_shown":"Congruent","ratio_trial":200,"L_num":9,"L_den":20,"R_num":4,"R_den":16,"correct_side":1,"subjID":"ValeriaBautistaRoman4G","gender":"1","school":"4","age":"9"},{"start_time":1552308877947,"click_time":1552308878738,"finger_time":1552308878419,"fix_duration":868.9199973989403,"trial":41,"RT":472,"MT":319,"sideResp":1,"stimulus":[],"xmouse":[786,786,786,786,786,786,786,786,786,786,786,786,786,786,786,786,786,787,788,788,788,788,788,788,778,763,738,711,677,630,615,602,594,583,574,555,538,524,508,470],"ymouse":[614,614,614,613,613,613,613,613,613,613,613,613,613,613,613,612,612,609,607,599,596,587,581,573,543,520,492,468,443,405,391,369,354,332,315,277,239,206,166,63],"timestamp_mouse":[18,40,51,71,91,112,132,151,171,192,210,231,251,272,292,312,331,352,371,391,410,431,451,472,490,511,532,551,571,591,612,631,652,671,691,711,731,751,772,791],"xSR":741.5,"ySR":573.95,"xT1":424.9,"yT1":0,"xT2":1058.1,"yT2":0,"toosoon":0,"cond_shown":"Incongruent","ratio_trial":200,"L_num":4,"L_den":5,"R_num":6,"R_den":10,"correct_side":1,"subjID":"ValeriaBautistaRoman4G","gender":"1","school":"4","age":"9"},{"start_time":1552308880901,"click_time":1552308881718,"finger_time":1552308881278,"fix_duration":920.0255414251998,"trial":42,"RT":377,"MT":440,"sideResp":1,"stimulus":[],"xmouse":[812,812,812,812,812,812,812,813,813,813,813,814,814,814,814,814,814,811,803,793,783,752,735,728,722,715,694,682,670,661,652,633,609,592,576,564,550,543,535,527,514],"ymouse":[588,588,588,588,588,588,588,587,587,587,587,587,587,587,587,587,586,577,565,552,537,504,490,484,477,471,453,441,427,410,388,335,284,251,218,191,147,127,108,87,54],"timestamp_mouse":[18,38,57,77,98,117,137,158,178,198,218,237,257,277,297,317,337,357,377,397,418,437,457,477,498,517,537,557,578,597,617,637,659,678,698,717,737,756,778,797,817],"xSR":741.5,"ySR":573.95,"xT1":424.9,"yT1":0,"xT2":1058.1,"yT2":0,"toosoon":0,"cond_shown":"Incongruent","ratio_trial":200,"L_num":7,"L_den":10,"R_num":8,"R_den":16,"correct_side":1,"subjID":"ValeriaBautistaRoman4G","gender":"1","school":"4","age":"9"},{"start_time":1552308884210,"click_time":1552308885239,"finger_time":1552308885058,"fix_duration":1250.4252541062458,"trial":43,"RT":848,"MT":181,"sideResp":1,"stimulus":[],"xmouse":[812,812,812,812,812,812,812,808,804,800,799,799,799,799,799,799,799,799,799,799,799,795,781,770,764,762,762,762,762,762,762,762,762,762,762,762,762,760,760,758,756,754,750,745,737,723,670,622,582,546,516,454],"ymouse":[621,621,621,621,621,621,621,621,621,622,622,622,622,622,622,622,622,622,622,622,622,621,614,609,604,603,602,602,602,602,602,602,601,599,598,596,595,590,588,584,580,575,559,544,523,489,382,295,235,178,128,16],"timestamp_mouse":[12,28,54,68,88,109,128,149,168,188,209,228,248,269,287,309,329,349,369,388,409,429,448,469,489,508,528,548,569,587,607,629,648,668,689,708,728,748,767,789,808,828,848,868,889,909,928,947,968,989,1008,1028],"xSR":741.5,"ySR":573.95,"xT1":424.9,"yT1":0,"xT2":1058.1,"yT2":0,"toosoon":0,"cond_shown":"Congruent","ratio_trial":300,"L_num":4,"L_den":5,"R_num":2,"R_den":4,"correct_side":1,"subjID":"ValeriaBautistaRoman4G","gender":"1","school":"4","age":"9"},{"start_time":1552308887338,"click_time":1552308889278,"finger_time":1552308888538,"fix_duration":1037.3268081444833,"trial":44,"RT":1200,"MT":740,"sideResp":1,"stimulus":[],"xmouse":[802,802,802,803,803,803,803,803,803,803,803,803,803,803,803,803,803,803,803,803,803,803,803,803,803,803,803,803,803,803,803,803,803,803,803,803,803,803,803,803,803,803,803,803,803,803,803,803,803,803,803,803,803,803,803,803,803,801,796,789,761,747,713,687,662,603,572,546,523,506,480,477,469,464,463,462,462,462,462,463,468,469,469,469,469,468,468,468,468,468,468,467,467,467,467,467,467,467],"ymouse":[623,623,623,623,623,623,623,623,623,623,623,623,623,623,623,623,623,623,623,623,623,623,623,623,623,623,623,623,623,623,623,623,623,623,623,623,623,623,623,623,623,623,623,623,623,623,623,623,623,623,623,623,623,623,623,622,617,610,595,579,532,508,459,423,392,315,284,255,227,209,166,159,140,133,130,130,130,130,130,126,119,111,108,106,104,102,102,102,102,102,102,101,101,101,101,100,100,99],"timestamp_mouse":[2,20,41,59,81,100,121,141,160,180,200,221,240,261,280,300,320,340,361,380,401,420,441,461,480,5