[{"start_time":1552309442287,"click_time":1552309444140,"finger_time":1552309443360,"fix_duration":1242.5813595108166,"trial":0,"RT":1073,"MT":780,"sideResp":2,"stimulus":"img/900/equaldotsize/R/11_Ratio_900_L_18_R_20.png","xmouse":[793,793,793,793,793,793,793,793,793,793,793,793,793,793,793,793,793,793,793,793,793,793,793,793,793,793,793,793,793,793,793,793,793,793,793,793,793,793,793,793,793,793,793,793,793,793,793,793,793,793,793,797,828,845,866,890,916,956,963,969,978,990,1011,1032,1041,1049,1056,1060,1060,1060,1062,1066,1082,1095,1107,1118,1126,1128,1131,1132,1132,1132,1132,1132,1132,1132,1132,1132,1132,1130,1128,1125,1122],"ymouse":[507,507,507,507,507,507,507,507,507,507,507,507,507,507,507,507,507,507,507,507,507,507,507,507,507,507,507,507,507,507,507,507,507,507,507,507,507,507,507,507,507,507,507,507,507,507,507,507,507,507,507,505,490,477,462,449,429,399,395,394,392,384,368,343,332,321,309,291,282,271,264,248,208,180,162,146,134,128,122,120,118,114,112,111,111,111,111,110,109,108,106,102,99],"timestamp_mouse":[13,34,54,74,93,114,134,153,174,193,214,234,254,274,293,313,334,354,373,394,413,435,455,474,493,514,534,555,574,593,614,633,654,673,693,713,735,755,774,793,814,833,853,874,894,915,935,955,974,994,1013,1034,1054,1073,1093,1113,1133,1155,1173,1194,1214,1233,1253,1273,1294,1313,1334,1355,1373,1395,1414,1433,1455,1473,1493,1513,1534,1554,1573,1593,1615,1635,1654,1674,1693,1714,1734,1754,1773,1793,1814,1833,1853],"xSR":741.5,"ySR":469.95,"xT1":424.9,"yT1":0,"xT2":1058.1,"yT2":0,"toosoon":0,"cond_shown":"equaldotsize","ratio_trial":900,"smaller_num":"18","larger_num":"20","correct_side":2,"subjID":"ValeriaBautistaRoman","gender":"1","age":"8","school":"4","test":{"fix_dur":[250,1500],"timestim":300,"targets_dim":[100,100],"targets_relative_coord":[0.3,0.7],"size_stim":[880,420],"start_dim":[100,100],"size_start":[300,300],"size_fix":60,"samplingrate":20,"img_types":["equaldotsize","equaldotanddens","randomdotsizeEA"],"ratios":[250,500,750,900],"rep_conds":9,"nTrials":120,"trials_to_rest":500,"Trials_order":[33,46,2,51,29,100,70,11,76,93,104,53,111,10,21,16,87,105,119,91,75,45,12,74,97,62,83,99,31,41,77,40,19,37,72,8,67,49,57,20,106,81,43,50,14,24,118,26,96,102,89,60,15,3,79,52,22,58,38,28,66,47,115,114,0,18,82,94,117,59,71,98,23,5,4,103,42,48,61,17,92,9,56,109,95,30,1,108,35,27,80,116,84,44,36,7,54,113,55,34,85,110,63,39,90,86,107,64,69,32,6,112,73,13,68,65,78,88,25,101],"cond_shown":["equaldotsize","equaldotanddens","randomdotsizeEA","equaldotsize","randomdotsizeEA","equaldotanddens","equaldotanddens","randomdotsizeEA","equaldotanddens","equaldotsize","randomdotsizeEA","randomdotsizeEA","equaldotsize","equaldotanddens","equaldotsize","equaldotanddens","equaldotsize","equaldotsize","randomdotsizeEA","equaldotanddens","equaldotsize","equaldotsize","equaldotsize","randomdotsizeEA","equaldotanddens","randomdotsizeEA","randomdotsizeEA","equaldotsize","equaldotanddens","randomdotsizeEA","randomdotsizeEA","equaldotanddens","equaldotanddens","equaldotanddens","equaldotsize","randomdotsizeEA","equaldotanddens","equaldotanddens","equaldotsize","randomdotsizeEA","equaldotanddens","equaldotsize","equaldotanddens","randomdotsizeEA","randomdotsizeEA","equaldotsize","equaldotanddens","randomdotsizeEA","equaldotsize","equaldotsize","randomdotsizeEA","equaldotsize","equaldotsize","equaldotsize","equaldotanddens","equaldotanddens","equaldotanddens","equaldotanddens","randomdotsizeEA","equaldotanddens","equaldotsize","randomdotsizeEA","equaldotanddens","equaldotsize","equaldotsize","equaldotsize","equaldotanddens","equaldotanddens","equaldotsize","randomdotsizeEA","randomdotsizeEA","randomdotsizeEA","randomdotsizeEA","randomdotsizeEA","equaldotanddens","equaldotanddens","equaldotsize","equaldotsize","equaldotanddens","randomdotsizeEA","randomdotsizeEA","equaldotsize","randomdotsizeEA","equaldotanddens","randomdotsizeEA","equaldotsize","equaldotanddens","equaldotsize","randomdotsizeEA","equaldotsize","randomdotsizeEA","randomdotsizeEA","equaldotsize","randomdotsizeEA","equaldotsize","equaldotanddens","equaldotsize","randomdotsizeEA","equaldotanddens","equaldotanddens","equaldotanddens","randomdotsizeEA","equaldotsize","equaldotsize","equaldotsize","randomdotsizeEA","randomdotsizeEA","equaldotanddens","equaldotsize","randomdotsizeEA","equaldotsize","equaldotanddens","equaldotanddens","equaldotanddens","randomdotsizeEA","randomdotsizeEA","equaldotsize","equaldotanddens","equaldotanddens","randomdotsizeEA"],"ratio_trial":[900,900,250,500,500,500,900,900,500,900,750,500,500,900,900,500,500,900,900,750,500,900,250,250,250,250,900,500,750,500,500,500,750,250,250,750,750,250,900,750,900,900,750,250,250,250,900,250,250,750,500,250,500,500,750,500,900,900,250,500,750,900,750,750,250,750,900,900,900,900,900,250,900,500,500,750,750,250,250,500,750,900,750,250,900,750,250,250,900,500,750,750,250,750,250,750,750,500,750,900,250,250,500,500,750,250,900,500,900,750,750,500,250,250,750,500,750,500,250,500],"smaller_num":["18","9","2","5","4","9","18","18","2","18","3","9","4","9","9","2","2","18","9","3","3","18","4","3","3","3","18","3","3","4","6","2","3","2","4","15","15","3","18","12","9","9","15","2","4","6","18","1","2","3","6","3","5","5","6","2","18","18","3","9","15","18","3","12","5","3","9","18","18","18","9","3","18","3","6","6","6","6","3","9","3","18","3","5","18","3","6","2","9","9","3","15","5","12","6","3","18","2","3","9","6","5","2","10","3","4","18","5","9","3","18","9","2","3","3","6","15","9","3","6"],"larger_num":["20","10","8","10","8","18","20","20","4","20","4","18","8","10","10","4","4","20","10","4","6","20","16","12","12","12","20","6","4","8","12","4","4","8","16","20","20","12","20","16","10","10","20","8","16","24","20","4","8","4","12","12","10","10","8","4","20","20","12","18","20","20","4","16","20","4","10","20","20","20","10","12","20","6","12","8","8","24","12","18","4","20","4","20","20","4","24","8","10","18","4","20","20","16","24","4","24","4","4","10","24","20","4","20","4","16","20","10","10","4","24","18","8","12","4","12","20","18","12","12"],"correct_side":[2,2,1,1,1,1,1,1,1,2,1,2,1,1,2,2,1,1,2,1,2,1,2,1,2,2,1,2,1,1,1,1,1,1,2,2,2,2,2,2,1,2,1,1,1,1,1,2,2,2,1,1,2,1,2,2,1,2,1,2,2,2,1,2,2,2,2,2,2,2,2,2,2,2,1,2,2,2,1,1,1,1,1,2,1,2,2,1,1,2,2,1,2,2,2,2,1,1,2,2,1,2,2,2,1,1,2,2,2,2,1,2,1,2,2,1,1,2,1,1],"img_shown":["img/900/equaldotsize/R/11_Ratio_900_L_18_R_20.png","img/900/equaldotanddens/R/5_Ratio_900_L_9_R_10.png","img/250/randomdotsizeEA/L/1_Ratio_250_L_8_R_2.png","img/500/equaldotsize/L/7_Ratio_500_L_10_R_5.png","img/500/randomdotsizeEA/L/8_Ratio_500_L_8_R_4.png","img/500/equaldotanddens/L/4_Ratio_500_L_18_R_9.png","img/900/equaldotanddens/L/8_Ratio_900_L_20_R_18.png","img/900/randomdotsizeEA/L/8_Ratio_900_L_20_R_18.png","img/500/equaldotanddens/L/10_Ratio_500_L_4_R_2.png","img/900/equaldotsize/R/11_Ratio_900_L_18_R_20.png","img/750/randomdotsizeEA/L/9_Ratio_750_L_4_R_3.png","img/500/randomdotsizeEA/R/1_Ratio_500_L_9_R_18.png","img/500/equaldotsize/L/8_Ratio_500_L_8_R_4.png","img/900/equaldotanddens/L/1_Ratio_900_L_10_R_9.png","img/900/equaldotsize/R/6_Ratio_900_L_9_R_10.png","img/500/equaldotanddens/R/9_Ratio_500_L_2_R_4.png","img/500/equaldotsize/L/10_Ratio_500_L_4_R_2.png","img/900/equaldotsize/L/2_Ratio_900_L_20_R_18.png","img/900/randomdotsizeEA/R/3_Ratio_900_L_9_R_10.png","img/750/equaldotanddens/L/8_Ratio_750_L_4_R_3.png","img/500/equaldotsize/R/2_Ratio_500_L_3_R_6.png","img/900/equaldotsize/L/2_Ratio_900_L_20_R_18.png","img/250/equaldotsize/R/10_Ratio_250_L_4_R_16.png","img/250/randomdotsizeEA/L/15_Ratio_250_L_12_R_3.png","img/250/equaldotanddens/R/11_Ratio_250_L_3_R_12.png","img/250/randomdotsizeEA/R/9_Ratio_250_L_3_R_12.png","img/900/randomdotsizeEA/L/10_Ratio_900_L_20_R_18.png","img/500/equaldotsize/R/2_Ratio_500_L_3_R_6.png","img/750/equaldotanddens/L/8_Ratio_750_L_4_R_3.png","img/500/randomdotsizeEA/L/8_Ratio_500_L_8_R_4.png","img/500/randomdotsizeEA/L/11_Ratio_500_L_12_R_6.png","img/500/equaldotanddens/L/10_Ratio_500_L_4_R_2.png","img/750/equaldotanddens/L/10_Ratio_750_L_4_R_3.png","img/250/equaldotanddens/L/7_Ratio_250_L_8_R_2.png","img/250/equaldotsize/R/10_Ratio_250_L_4_R_16.png","img/750/randomdotsizeEA/R/4_Ratio_750_L_15_R_20.png","img/750/equaldotanddens/R/3_Ratio_750_L_15_R_20.png","img/250/equaldotanddens/R/11_Ratio_250_L_3_R_12.png","img/900/equaldotsize/R/12_Ratio_900_L_18_R_20.png","img/750/randomdotsizeEA/R/11_Ratio_750_L_12_R_16.png","img/900/equaldotanddens/L/1_Ratio_900_L_10_R_9.png","img/900/equaldotsize/R/3_Ratio_900_L_9_R_10.png","img/750/equaldotanddens/L/1_Ratio_750_L_20_R_15.png","img/250/randomdotsizeEA/L/3_Ratio_250_L_8_R_2.png","img/250/randomdotsizeEA/L/2_Ratio_250_L_16_R_4.png","img/250/equaldotsize/L/5_Ratio_250_L_24_R_6.png","img/900/equaldotanddens/L/2_Ratio_900_L_20_R_18.png","img/250/randomdotsizeEA/R/8_Ratio_250_L_1_R_4.png","img/250/equaldotsize/R/13_Ratio_250_L_2_R_8.png","img/750/equaldotsize/R/12_Ratio_750_L_3_R_4.png","img/500/randomdotsizeEA/L/11_Ratio_500_L_12_R_6.png","img/250/equaldotsize/L/14_Ratio_250_L_12_R_3.png","img/500/equaldotsize/R/14_Ratio_500_L_5_R_10.png","img/500/equaldotsize/L/7_Ratio_500_L_10_R_5.png","img/750/equaldotanddens/R/2_Ratio_750_L_6_R_8.png","img/500/equaldotanddens/R/9_Ratio_500_L_2_R_4.png","img/900/equaldotanddens/L/8_Ratio_900_L_20_R_18.png","img/900/equaldotanddens/R/14_Ratio_900_L_18_R_20.png","img/250/randomdotsizeEA/L/15_Ratio_250_L_12_R_3.png","img/500/equaldotanddens/R/1_Ratio_500_L_9_R_18.png","img/750/equaldotsize/R/5_Ratio_750_L_15_R_20.png","img/900/randomdotsizeEA/R/13_Ratio_900_L_18_R_20.png","img/750/equaldotanddens/L/9_Ratio_750_L_4_R_3.png","img/750/equaldotsize/R/11_Ratio_750_L_12_R_16.png","img/250/equaldotsize/R/12_Ratio_250_L_5_R_20.png","img/750/equaldotsize/R/12_Ratio_750_L_3_R_4.png","img/900/equaldotanddens/R/7_Ratio_900_L_9_R_10.png","img/900/equaldotanddens/R/11_Ratio_900_L_18_R_20.png","img/900/equaldotsize/R/14_Ratio_900_L_18_R_20.png","img/900/randomdotsizeEA/R/13_Ratio_900_L_18_R_20.png","img/900/randomdotsizeEA/R/7_Ratio_900_L_9_R_10.png","img/250/randomdotsizeEA/R/11_Ratio_250_L_3_R_12.png","img/900/randomdotsizeEA/R/11_Ratio_900_L_18_R_20.png","img/500/randomdotsizeEA/R/2_Ratio_500_L_3_R_6.png","img/500/equaldotanddens/L/13_Ratio_500_L_12_R_6.png","img/750/equaldotanddens/R/2_Ratio_750_L_6_R_8.png","img/750/equaldotsize/R/2_Ratio_750_L_6_R_8.png","img/250/equaldotsize/R/6_Ratio_250_L_6_R_24.png","img/250/equaldotanddens/L/15_Ratio_250_L_12_R_3.png","img/500/randomdotsizeEA/L/4_Ratio_500_L_18_R_9.png","img/750/randomdotsizeEA/L/8_Ratio_750_L_4_R_3.png","img/900/equaldotsize/L/2_Ratio_900_L_20_R_18.png","img/750/randomdotsizeEA/L/8_Ratio_750_L_4_R_3.png","img/250/equaldotanddens/R/12_Ratio_250_L_5_R_20.png","img/900/randomdotsizeEA/L/10_Ratio_900_L_20_R_18.png","img/750/equaldotsize/R/12_Ratio_750_L_3_R_4.png","img/250/equaldotanddens/R/6_Ratio_250_L_6_R_24.png","img/250/equaldotsize/L/7_Ratio_250_L_8_R_2.png","img/900/randomdotsizeEA/L/1_Ratio_900_L_10_R_9.png","img/500/equaldotsize/R/6_Ratio_500_L_9_R_18.png","img/750/randomdotsizeEA/R/12_Ratio_750_L_3_R_4.png","img/750/randomdotsizeEA/L/1_Ratio_750_L_20_R_15.png","img/250/equaldotsize/R/12_Ratio_250_L_5_R_20.png","img/750/randomdotsizeEA/R/11_Ratio_750_L_12_R_16.png","img/250/equaldotsize/R/6_Ratio_250_L_6_R_24.png","img/750/equaldotanddens/R/7_Ratio_750_L_3_R_4.png","img/750/equaldotsize/L/6_Ratio_750_L_24_R_18.png","img/500/randomdotsizeEA/L/5_Ratio_500_L_4_R_2.png","img/750/equaldotanddens/R/7_Ratio_750_L_3_R_4.png","img/900/equaldotanddens/R/15_Ratio_900_L_9_R_10.png","img/250/equaldotanddens/L/5_Ratio_250_L_24_R_6.png","img/250/randomdotsizeEA/R/12_Ratio_250_L_5_R_20.png","img/500/equaldotsize/R/9_Ratio_500_L_2_R_4.png","img/500/equaldotsize/R/3_Ratio_500_L_10_R_20.png","img/750/equaldotsize/L/8_Ratio_750_L_4_R_3.png","img/250/randomdotsizeEA/L/2_Ratio_250_L_16_R_4.png","img/900/randomdotsizeEA/R/12_Ratio_900_L_18_R_20.png","img/500/equaldotanddens/R/14_Ratio_500_L_5_R_10.png","img/900/equaldotsize/R/15_Ratio_900_L_9_R_10.png","img/750/randomdotsizeEA/R/7_Ratio_750_L_3_R_4.png","img/750/equaldotsize/L/6_Ratio_750_L_24_R_18.png","img/500/equaldotanddens/R/1_Ratio_500_L_9_R_18.png","img/250/equaldotanddens/L/1_Ratio_250_L_8_R_2.png","img/250/equaldotanddens/R/9_Ratio_250_L_3_R_12.png","img/750/randomdotsizeEA/R/7_Ratio_750_L_3_R_4.png","img/500/randomdotsizeEA/L/11_Ratio_500_L_12_R_6.png","img/750/equaldotsize/L/1_Ratio_750_L_20_R_15.png","img/500/equaldotanddens/R/6_Ratio_500_L_9_R_18.png","img/250/equaldotanddens/L/14_Ratio_250_L_12_R_3.png","img/500/randomdotsizeEA/L/11_Ratio_500_L_12_R_6.png"],"Rat0":[["12_Ratio_0_L_9_R_0.png","13_Ratio_0_L_6_R_0.png","5_Ratio_0_L_2_R_0.png","6_Ratio_0_L_4_R_0.png","8_Ratio_0_L_6_R_0.png"],["1_Ratio_0_L_0_R_17.png","10_Ratio_0_L_0_R_22.png","11_Ratio_0_L_0_R_1.png","14_Ratio_0_L_0_R_24.png","15_Ratio_0_L_0_R_4.png","2_Ratio_0_L_0_R_5.png","3_Ratio_0_L_0_R_17.png","4_Ratio_0_L_0_R_7.png","7_Ratio_0_L_0_R_19.png","9_Ratio_0_L_0_R_15.png"]],"Rat250":[["1_Ratio_250_L_8_R_2.png","14_Ratio_250_L_12_R_3.png","15_Ratio_250_L_12_R_3.png","2_Ratio_250_L_16_R_4.png","3_Ratio_250_L_8_R_2.png","5_Ratio_250_L_24_R_6.png","7_Ratio_250_L_8_R_2.png"],["10_Ratio_250_L_4_R_16.png","11_Ratio_250_L_3_R_12.png","12_Ratio_250_L_5_R_20.png","13_Ratio_250_L_2_R_8.png","4_Ratio_250_L_3_R_12.png","6_Ratio_250_L_6_R_24.png","8_Ratio_250_L_1_R_4.png","9_Ratio_250_L_3_R_12.png"]],"Rat500":[["10_Ratio_500_L_4_R_2.png","11_Ratio_500_L_12_R_6.png","13_Ratio_500_L_12_R_6.png","4_Ratio_500_L_18_R_9.png","5_Ratio_500_L_4_R_2.png","7_Ratio_500_L_10_R_5.png","8_Ratio_500_L_8_R_4.png"],["1_Ratio_500_L_9_R_18.png","12_Ratio_500_L_1_R_2.png","14_Ratio_500_L_5_R_10.png","15_Ratio_500_L_1_R_2.png","2_Ratio_500_L_3_R_6.png","3_Ratio_500_L_10_R_20.png","6_Ratio_500_L_9_R_18.png","9_Ratio_500_L_2_R_4.png"]],"Rat750":[["1_Ratio_750_L_20_R_15.png","10_Ratio_750_L_4_R_3.png","13_Ratio_750_L_8_R_6.png","14_Ratio_750_L_8_R_6.png","6_Ratio_750_L_24_R_18.png","8_Ratio_750_L_4_R_3.png","9_Ratio_750_L_4_R_3.png"],["11_Ratio_750_L_12_R_16.png","12_Ratio_750_L_3_R_4.png","15_Ratio_750_L_9_R_12.png","2_Ratio_750_L_6_R_8.png","3_Ratio_750_L_15_R_20.png","4_Ratio_750_L_15_R_20.png","5_Ratio_750_L_15_R_20.png","7_Ratio_750_L_3_R_4.png"]],"Rat900":[["1_Ratio_900_L_10_R_9.png","10_Ratio_900_L_20_R_18.png","2_Ratio_900_L_20_R_18.png","4_Ratio_900_L_20_R_18.png","8_Ratio_900_L_20_R_18.png"],["11_Ratio_900_L_18_R_20.png","12_Ratio_900_L_18_R_20.png","13_Ratio_900_L_18_R_20.png","14_Ratio_900_L_18_R_20.png","15_Ratio_900_L_9_R_10.png","3_Ratio_900_L_9_R_10.png","5_Ratio_900_L_9_R_10.png","6_Ratio_900_L_9_R_10.png","7_Ratio_900_L_9_R_10.png","9_Ratio_900_L_18_R_20.png"]],"Rat1000":[["10_Ratio_1000_L_16_R_16.png","11_Ratio_1000_L_6_R_6.png","12_Ratio_1000_L_14_R_14.png","13_Ratio_1000_L_20_R_20.png","15_Ratio_1000_L_15_R_15.png","2_Ratio_1000_L_17_R_17.png","4_Ratio_1000_L_9_R_9.png","5_Ratio_1000_L_6_R_6.png","6_Ratio_1000_L_19_R_19.png","8_Ratio_1000_L_14_R_14.png","9_Ratio_1000_L_25_R_25.png"],["1_Ratio_1000_L_1_R_1.png","14_Ratio_1000_L_17_R_17.png","3_Ratio_1000_L_17_R_17.png","7_Ratio_1000_L_6_R_6.png"]]}},{"start_time":1552309446866,"click_time":1552309448461,"finger_time":1552309447800,"fix_duration":583.2514958521309,"trial":1,"RT":934,"MT":661,"sideResp":2,"stimulus":"img/900/equaldotanddens/R/5_Ratio_900_L_9_R_10.png","xmouse":[767,767,767,767,769,770,773,776,778,778,779,779,780,782,782,782,782,782,782,782,782,782,782,782,782,782,782,782,782,782,782,782,782,782,782,782,782,782,782,782,784,785,788,791,811,824,839,855,882,934,962,994,1014,1030,1040,1048,1054,1059,1068,1083,1092,1098,1103,1106,1115,1115,1117,1117,1117,1117,1117,1117,1117,1117,1116,1114,1113,1113,1113,1113],"ymouse":[514,514,514,514,515,516,517,518,519,519,520,520,520,519,519,519,519,519,519,519,519,519,519,519,519,519,519,519,519,519,519,519,519,519,519,519,519,519,519,519,517,517,514,511,489,476,465,449,427,384,364,343,329,318,312,306,302,294,280,256,242,234,224,215,196,192,189,185,180,179,179,179,176,176,155,145,134,123,114,91],"timestamp_mouse":[14,42,55,74,94,114,135,154,175,195,215,234,255,276,294,315,334,354,375,395,414,435,455,475,495,515,536,555,575,595,615,636,655,675,694,715,736,754,775,795,815,836,855,874,894,914,934,955,974,995,1014,1035,1054,1074,1095,1115,1136,1155,1174,1195,1215,1235,1256,1274,1294,1315,1335,1354,1374,1395,1415,1434,1454,1476,1494,1514,1535,1554,1575,1595],"xSR":741.5,"ySR":469.95,"xT1":424.9,"yT1":0,"xT2":1058.1,"yT2":0,"toosoon":0,"cond_shown":"equaldotanddens","ratio_trial":900,"smaller_num":"9","larger_num":"10","correct_side":2,"subjID":"ValeriaBautistaRoman","gender":"1","age":"8","school":"4"},{"start_time":1552309449894,"click_time":1552309451081,"finger_time":1552309450740,"fix_duration":250,"trial":2,"RT":846,"MT":341,"sideResp":1,"stimulus":"img/250/randomdotsizeEA/L/1_Ratio_250_L_8_R_2.png","xmouse":[787,785,783,781,781,781,781,781,781,781,781,781,781,781,781,781,781,781,781,781,781,781,781,781,781,781,781,781,781,781,781,781,781,781,781,781,781,781,780,777,772,765,749,698,658,623,601,580,571,568,565,562,559,556,554,551,547,542,531,521],"ymouse":[528,528,528,530,530,530,530,530,530,530,530,530,530,530,530,530,530,530,530,530,530,530,530,530,530,530,530,530,530,530,530,530,530,530,530,530,530,530,529,525,516,500,459,341,274,213,171,129,116,111,104,98,87,79,73,67,62,57,49,46],"timestamp_mouse":[8,27,48,68,88,107,126,146,166,188,208,227,247,268,286,307,327,347,368,386,406,427,446,467,486,507,527,546,566,587,606,627,646,666,687,706,726,747,767,787,806,826,846,866,887,906,927,948,966,986,1007,1026,1048,1066,1086,1107,1127,1147,1166,1187],"xSR":741.5,"ySR":469.95,"xT1":424.9,"yT1":0,"xT2":1058.1,"yT2":0,"toosoon":0,"cond_shown":"randomdotsizeEA","ratio_trial":250,"smaller_num":"2","larger_num":"8","correct_side":1,"subjID":"ValeriaBautistaRoman","gender":"1","age":"8","school":"4"},{"start_time":1552309452326,"click_time":1552309453121,"finger_time":1552309452601,"fix_duration":563.2145603356757,"trial":3,"RT":275,"MT":520,"sideResp":1,"stimulus":"img/500/equaldotsize/L/7_Ratio_500_L_10_R_5.png","xmouse":[759,759,759,759,759,759,759,757,753,750,748,746,743,738,731,723,703,696,691,688,686,684,683,682,681,678,671,667,658,646,595,571,551,533,519,508,507,507,507,506],"ymouse":[529,530,530,530,530,530,530,531,531,531,531,531,531,531,531,531,529,528,527,527,525,523,522,520,519,514,504,493,475,454,369,326,287,247,212,164,144,127,114,97],"timestamp_mouse":[14,34,61,74,95,116,135,155,175,195,215,234,255,275,294,315,334,355,374,395,416,434,455,475,495,516,534,554,575,595,616,634,654,674,694,716,734,755,774,794],"xSR":741.5,"ySR":469.95,"xT1":424.9,"yT1":0,"xT2":1058.1,"yT2":0,"toosoon":0,"cond_shown":"equaldotsize","ratio_trial":500,"smaller_num":"5","larger_num":"10","correct_side":1,"subjID":"ValeriaBautistaRoman","gender":"1","age":"8","school":"4"},{"start_time":1552309454884,"click_time":1552309456300,"finger_time":1552309455841,"fix_duration":682.987161535726,"trial":4,"RT":957,"MT":459,"sideResp":1,"stimulus":"img/500/randomdotsizeEA/L/8_Ratio_500_L_8_R_4.png","xmouse":[787,787,787,787,787,787,787,787,787,787,787,787,787,787,787,787,787,787,787,787,787,787,787,787,787,787,787,787,787,787,787,787,787,787,787,787,787,787,787,787,787,787,787,787,782,772,760,745,716,706,700,694,673,655,644,635,629,620,611,601,589,579,572,560,555,546,535,523,498,489,485],"ymouse":[510,510,510,510,510,510,510,510,510,510,510,510,510,510,510,510,510,510,510,510,510,510,510,510,510,510,510,510,510,510,510,510,510,510,510,510,510,510,510,510,510,510,510,510,502,488,470,449,399,378,362,349,322,299,285,271,256,224,209,194,179,168,160,148,143,137,132,125,111,102,98],"timestamp_mouse":[16,37,56,76,97,116,136,156,178,197,217,238,257,277,297,317,336,357,377,396,416,438,457,477,496,516,536,557,578,597,616,636,657,676,697,718,736,757,778,797,817,836,856,877,897,917,937,957,977,996,1017,1036,1058,1076,1096,1117,1136,1158,1176,1196,1217,1238,1257,1276,1296,1317,1337,1357,1376,1398,1416],"xSR":741.5,"ySR":469.95,"xT1":424.9,"yT1":0,"xT2":1058.1,"yT2":0,"toosoon":0,"cond_shown":"randomdotsizeEA","ratio_trial":500,"smaller_num":"4","larger_num":"8","correct_side":1,"subjID":"ValeriaBautistaRoman","gender":"1","age":"8","school":"4"},{"start_time":1552309457609,"click_time":1552309458860,"finger_time":1552309458241,"fix_duration":347.39813565034603,"trial":5,"RT":632,"MT":619,"sideResp":1,"stimulus":"img/500/equaldotanddens/L/4_Ratio_500_L_18_R_9.png","xmouse":[795,795,795,795,795,795,795,795,795,795,795,795,795,795,795,795,795,795,795,795,795,795,795,795,795,795,795,794,789,784,774,764,737,726,716,710,708,707,705,701,697,684,671,654,634,614,593,560,549,538,527,516,516,516,516,516,515,515,515,515,515,514,511],"ymouse":[507,507,507,507,507,507,507,507,507,508,508,508,508,508,508,508,508,508,508,508,508,508,508,508,508,508,508,508,501,490,474,457,416,397,379,362,348,322,308,293,278,239,218,197,177,162,151,134,130,127,124,120,120,120,120,120,120,119,118,116,114,108,93],"timestamp_mouse":[12,31,51,71,91,112,131,152,172,191,212,233,252,271,292,312,332,351,371,392,411,431,452,471,491,512,531,552,572,592,611,632,651,672,691,711,732,751,772,792,811,832,851,872,892,911,932,953,972,992,1011,1032,1051,1071,1091,1112,1132,1151,1171,1191,1212,1231,1251],"xSR":741.5,"ySR":469.95,"xT1":424.9,"yT1":0,"xT2":1058.1,"yT2":0,"toosoon":0,"cond_shown":"equaldotanddens","ratio_trial":500,"smaller_num":"9","larger_num":"18","correct_side":1,"subjID":"ValeriaBautistaRoman","gender":"1","age":"8","school":"4"},{"start_time":1552309461102,"click_time":1552309462381,"finger_time":1552309461761,"fix_duration":1239.496280658591,"trial":6,"RT":659,"MT":620,"sideResp":1,"stimulus":"img/900/equaldotanddens/L/8_Ratio_900_L_20_R_18.png","xmouse":[784,784,784,784,784,783,783,783,783,783,783,783,783,783,783,783,783,783,783,783,783,783,783,783,783,783,783,782,781,781,779,769,753,738,723,706,685,677,669,661,653,647,633,627,618,611,605,603,601,599,595,590,573,568,566,564,561,555,552,549,547,542,532,519],"ymouse":[517,517,517,517,517,517,517,517,517,517,517,517,517,517,517,517,517,517,517,517,516,516,516,516,516,515,514,514,511,509,504,485,458,438,417,399,367,349,329,307,283,258,220,213,207,204,200,199,197,196,194,191,181,178,175,173,167,152,144,139,135,119,104,93],"timestamp_mouse":[19,39,58,78,99,119,139,160,179,198,218,239,258,278,298,319,338,359,379,398,418,439,459,478,499,518,539,559,579,599,618,639,659,679,699,719,740,758,779,799,819,839,858,879,899,918,939,958,979,999,1018,1038,1058,1079,1098,1119,1139,1159,1179,1198,1218,1240,1258,1279],"xSR":741.5,"ySR":469.95,"xT1":424.9,"yT1":0,"xT2":1058.1,"yT2":0,"toosoon":0,"cond_shown":"equaldotanddens","ratio_trial":900,"smaller_num":"18","larger_num":"20","correct_side":1,"subjID":"ValeriaBautistaRoman","gender":"1","age":"8","school":"4"},{"start_time":1552309464792,"click_time":1552309465880,"finger_time":1552309465500,"fix_duration":1348.8677248524164,"trial":7,"RT":708,"MT":380,"sideResp":1,"stimulus":"img/900/randomdotsizeEA/L/8_Ratio_900_L_20_R_18.png","xmouse":[786,786,786,786,786,786,785,782,781,780,780,780,780,780,780,780,780,780,780,780,780,780,780,780,780,780,780,780,779,776,773,771,768,764,758,751,739,716,681,666,653,639,616,607,602,596,593,590,590,588,586,579,554,536,517],"ymouse":[496,496,496,496,498,499,501,507,509,510,510,510,510,510,510,510,510,510,510,510,510,510,510,510,510,510,510,510,508,504,501,497,494,484,474,461,443,411,377,365,347,327,283,260,238,219,205,178,171,160,147,126,77,55,37],"timestamp_mouse":[8,29,49,69,88,109,128,149,169,190,208,229,248,270,290,308,328,348,369,388,409,428,448,468,489,508,529,549,569,589,610,629,649,669,689,708,728,748,768,788,808,829,850,868,888,909,929,950,968,988,1009,1029,1050,1068,1088],"xSR":741.5,"ySR":469.95,"xT1":424.9,"yT1":0,"xT2":1058.1,"yT2":0,"toosoon":0,"cond_shown":"randomdotsizeEA","ratio_trial":900,"smaller_num":"18","larger_num":"20","correct_side":1,"subjID":"ValeriaBautistaRoman","gender":"1","age":"8","school":"4"},{"start_time":1552309467810,"click_time":1552309468701,"finger_time":1552309468401,"fix_duration":906.8560633924668,"trial":8,"RT":591,"MT":300,"sideResp":1,"stimulus":"img/500/equaldotanddens/L/10_Ratio_500_L_4_R_2.png","xmouse":[783,783,783,783,783,783,783,783,783,783,783,783,783,783,783,783,783,783,783,783,783,783,783,783,783,783,780,761,746,729,719,703,699,695,690,681,668,636,624,621,618,587,561,532,500],"ymouse":[521,521,521,521,521,521,521,521,521,521,521,521,521,521,521,521,521,521,521,521,521,521,521,521,521,521,517,500,483,455,438,410,403,395,388,377,367,335,298,270,244,164,128,93,59],"timestamp_mouse":[10,30,50,71,90,110,130,151,170,190,210,231,252,271,291,310,331,350,371,391,410,430,450,471,491,510,531,551,571,591,611,632,650,671,691,711,732,751,771,791,810,832,850,871,891],"xSR":741.5,"ySR":469.95,"xT1":424.9,"yT1":0,"xT2":1058.1,"yT2":0,"toosoon":0,"cond_shown":"equaldotanddens","ratio_trial":500,"smaller_num":"2","larger_num":"4","correct_side":1,"subjID":"ValeriaBautistaRoman","gender":"1","age":"8","school":"4"},{"start_time":1552309470729,"click_time":1552309471701,"finger_time":1552309471241,"fix_duration":1246.383486508374,"trial":9,"RT":512,"MT":460,"sideResp":1,"stimulus":"img/900/equaldotsize/R/11_Ratio_900_L_18_R_20.png","xmouse":[780,780,780,780,780,780,780,780,780,780,780,780,780,780,780,780,780,780,780,780,780,780,777,768,756,721,711,701,690,680,654,608,579,557,544,537,534,534,534,534,534,534,534,534,534,532,521,512,504],"ymouse":[526,526,526,526,526,526,526,526,526,526,526,526,526,526,526,526,526,526,526,526,526,526,514,497,476,427,408,391,373,357,322,243,192,160,140,125,118,118,118,118,118,118,118,118,118,115,109,103,99],"timestamp_mouse":[11,31,51,72,92,112,132,151,171,192,211,232,252,271,292,313,331,352,373,392,412,431,452,471,492,512,531,552,572,592,612,631,652,672,692,711,731,751,772,793,813,831,853,872,891,911,931,951,972],"xSR":741.5,"ySR":469.95,"xT1":424.9,"yT1":0,"xT2":1058.1,"yT2":0,"toosoon":0,"cond_shown":"equaldotsize","ratio_trial":900,"smaller_num":"18","larger_num":"20","correct_side":2,"subjID":"ValeriaBautistaRoman","gender":"1","age":"8","school":"4"},{"start_time":1552309474004,"click_time":1552309475141,"finger_time":1552309474861,"fix_duration":1300.6645875522138,"trial":10,"RT":857,"MT":280,"sideResp":1,"stimulus":"img/750/randomdotsizeEA/L/9_Ratio_750_L_4_R_3.png","xmouse":[786,786,786,786,786,786,786,786,786,786,786,786,786,786,786,786,786,786,786,787,787,787,787,787,787,787,787,787,788,788,788,789,789,789,789,789,789,789,788,787,784,779,761,743,725,708,691,664,662,658,655,651,629,609,582,548,507],"ymouse":[514,514,514,514,514,514,514,514,514,514,514,514,514,514,514,514,514,514,513,513,513,513,513,513,513,513,512,509,508,506,505,504,504,504,504,504,504,504,502,499,494,487,466,446,421,387,352,275,251,229,214,205,171,143,107,83,57],"timestamp_mouse":[17,39,56,78,97,117,137,156,177,198,217,237,257,278,297,317,337,356,377,397,417,437,456,478,496,516,536,556,577,597,616,638,657,677,697,717,737,757,776,796,816,837,857,876,897,916,937,956,977,996,1017,1036,1056,1078,1097,1117,1137],"xSR":741.5,"ySR":469.95,"xT1":424.9,"yT1":0,"xT2":1058.1,"yT2":0,"toosoon":0,"cond_shown":"randomdotsizeEA","ratio_trial":750,"smaller_num":"3","larger_num":"4","correct_side":1,"subjID":"ValeriaBautistaRoman","gender":"1","age":"8","school":"4"},{"start_time":1552309477533,"click_time":1552309479000,"finger_time":1552309478361,"fix_duration":1471.6077352046532,"trial":11,"RT":828,"MT":639,"sideResp":2,"stimulus":"img/500/randomdotsizeEA/R/1_Ratio_500_L_9_R_18.png","xmouse":[795,795,795,795,795,795,795,795,795,795,795,795,795,795,795,795,795,794,794,794,794,794,794,794,794,794,794,794,794,794,794,794,794,793,793,793,793,794,795,798,802,833,844,854,865,881,890,902,916,928,943,963,971,978,986,997,1004,1014,1031,1063,1126,1183,1185,1186,1186,1186,1186,1186,1185,1183,1180,1167,1161,1153],"ymouse":[504,504,504,504,504,504,504,504,504,504,504,504,504,504,504,504,504,504,504,504,504,504,504,504,504,504,504,504,504,504,504,504,504,502,500,495,492,490,487,484,480,462,453,446,436,413,403,388,372,355,329,282,265,253,243,234,229,223,210,187,155,116,112,112,112,112,112,112,110,108,106,103,101,99],"timestamp_mouse":[10,35,47,68,87,108,127,147,167,187,207,228,247,268,288,307,328,348,367,387,407,427,448,468,487,508,528,547,568,588,608,628,647,668,687,708,727,747,768,789,809,828,847,869,889,909,927,948,968,987,1008,1029,1047,1067,1087,1109,1127,1148,1168,1188,1207,1229,1248,1269,1288,1307,1327,1348,1367,1388,1408,1427,1447,1467],"xSR":741.5,"ySR":469.95,"xT1":424.9,"yT1":0,"xT2":1058.1,"yT2":0,"toosoon":0,"cond_shown":"randomdotsizeEA","ratio_trial":500,"smaller_num":"9","larger_num":"18","correct_side":2,"subjID":"ValeriaBautistaRoman","gender":"1","age":"8","school":"4"},{"start_time":1552309480395,"click_time":1552309481340,"finger_time":1552309481201,"fix_duration":492.5457445138133,"trial":12,"RT":806,"MT":139,"sideResp":1,"stimulus":"img/500/equaldotsize/L/8_Ratio_500_L_8_R_4.png","xmouse":[804,804,804,804,804,804,804,804,804,804,804,804,804,804,804,804,804,804,804,804,804,804,804,804,804,804,804,804,804,804,804,804,804,804,804,803,800,783,769,763,758,753,714,674,632,581,523,447],"ymouse":[540,540,540,540,540,540,540,540,540,540,540,540,540,540,540,540,540,540,540,540,540,540,540,540,540,540,540,540,540,540,540,540,540,540,540,539,534,511,489,475,457,432,322,253,195,149,109,67],"timestamp_mouse":[8,25,45,65,85,105,127,145,165,186,206,225,246,266,286,306,325,346,367,386,406,427,446,465,486,506,526,546,565,586,606,626,646,666,685,706,726,746,765,786,806,826,847,866,886,906,926,945],"xSR":741.5,"ySR":469.95,"xT1":424.9,"yT1":0,"xT2":1058.1,"yT2":0,"toosoon":0,"cond_shown":"equaldotsize","ratio_trial":500,"smaller_num":"4","larger_num":"8","correct_side":1,"subjID":"ValeriaBautistaRoman","gender":"1","age":"8","school":"4"},{"start_time":1552309483885,"click_time":1552309486381,"finger_time":1552309484801,"fix_duration":1043.7929237135825,"trial":13,"RT":916,"MT":1580,"sideResp":2,"stimulus":"img/900/equaldotanddens/L/1_Ratio_900_L_10_R_9.png","xmouse":[765,765,765,765,765,765,765,765,765,765,765,765,765,765,765,765,765,765,765,765,765,765,765,765,765,765,765,765,765,765,765,765,765,765,765,765,765,765,765,765,765,766,790,825,832,844,864,884,949,993,1013,1029,1050,1097,1111,1120,1129,1151,1167,1183,1199,1209,1212,1212,1212,1210,1208,1207,1197,1186,1175,1151,1110,1070,1053,1045,1044,1044,1044,1044,1044,1043,1043,1043,1046,1049,1052,1054,1056,1057,1057,1057,1057,1057,1057,1057,1057,1057,1057,1057,1057,1057,1057,1043,1028,1021,1016,1016,1016,1017,1018,1021,1042,1051,1058,1065,1072,1079,1096,1103,1109,1112,1113,1113,1113],"ymouse":[506,506,506,506,506,506,506,506,506,506,506,506,506,506,506,506,506,506,506,506,506,506,506,506,506,506,506,506,506,506,506,506,506,506,506,506,506,506,506,506,506,506,497,486,484,479,473,468,430,391,373,357,342,303,285,268,255,232,219,208,194,184,175,168,166,163,162,161,154,151,147,140,135,126,124,124,124,124,124,124,124,124,124,116,107,100,92,84,76,74,74,74,74,74,74,74,74,74,74,74,74,74,75,128,160,182,198,202,202,202,202,202,194,188,182,175,166,155,133,124,117,112,110,100,99],"timestamp_mouse":[16,39,56,76,96,115,135,155,177,195,215,236,257,275,295,316,335,356,376,395,415,436,457,476,496,516,535,555,576,595,616,635,656,675,697,716,735,756,776,796,816,836,856,876,895,916,935,955,975,995,1016,1035,1055,1076,1095,1116,1136,1157,1175,1195,1216,1236,1255,1275,1295,1315,1335,1356,1375,1395,1415,1435,1455,1475,1496,1516,1536,1556,1575,1595,1616,1635,1655,1675,1695,1716,1735,1755,1775,1796,1816,1835,1856,1876,1895,1916,1935,1956,1977,1995,2016,2036,2055,2076,2095,2116,2135,2156,2175,2197,2216,2236,2256,2275,2295,2316,2335,2355,2375,2395,2416,2436,2455,2476,2496],"xSR":741.5,"ySR":469.95,"xT1":424.9,"yT1":0,"xT2":1058.1,"yT2":0,"toosoon":0,"cond_shown":"equaldotanddens","ratio_trial":900,"smaller_num":"9","larger_num":"10","correct_side":1,"subjID":"ValeriaBautistaRoman","gender":"1","age":"8","school":"4"},{"start_time":1552309488272,"click_time":1552309490060,"finger_time":1552309489120,"fix_duration":250,"trial":14,"RT":848,"MT":940,"sideResp":2,"stimulus":"img/900/equaldotsize/R/6_Ratio_900_L_9_R_10.png","xmouse":[788,788,788,790,790,790,790,790,790,790,790,790,790,790,790,790,790,790,790,790,790,790,790,790,790,790,790,790,790,790,790,790,790,790,790,790,790,791,789,773,765,758,750,739,727,715,703,691,672,665,657,648,642,637,637,637,639,646,656,659,661,661,661,663,676,694,708,722,741,796,827,862,904,966,998,1004,1005,1006,1007,1008,1009,1011,1014,1024,1035,1041,1049,1058,1078,1089],"ymouse":[514,519,522,526,526,526,526,526,526,526,526,526,526,526,526,526,526,526,526,526,526,526,526,526,526,526,526,526,526,526,526,526,526,526,526,526,526,526,521,497,483,471,456,434,419,412,404,394,376,365,357,346,339,328,328,328,327,326,325,324,324,324,324,324,322,318,314,310,304,281,266,251,235,215,197,193,191,191,190,187,185,179,175,159,144,135,126,117,101,90],"timestamp_mouse":[10,29,48,70,88,108,129,149,168,188,209,228,249,268,288,309,329,348,370,389,408,429,450,468,488,509,529,548,569,590,609,628,648,668,689,708,728,748,769,789,809,829,848,870,888,909,928,948,970,988,1009,1028,1049,1069,1088,1109,1128,1149,1169,1188,1208,1229,1249,1268,1288,1308,1328,1348,1368,1388,1409,1428,1448,1469,1489,1508,1528,1549,1568,1588,1609,1628,1648,1670,1688,1708,1729,1748,1770,1788],"xSR":741.5,"ySR":469.95,"xT1":424.9,"yT1":0,"xT2":1058.1,"yT2":0,"toosoon":0,"cond_shown":"equaldotsize","ratio_trial":900,"smaller_num":"9","larger_num":"10","correct_side":2,"subjID":"ValeriaBautistaRoman","gender":"1","age":"8","school":"4"},{"start_time":1552309491928,"click_time":1552309493422,"finger_time":1552309492880,"fix_duration":907.6713575038847,"trial":15,"RT":952,"MT":542,"sideResp":2,"stimulus":"img/500/equaldotanddens/R/9_Ratio_500_L_2_R_4.png","xmouse":[815,815,815,815,815,815,815,815,815,815,815,817,818,819,819,820,821,821,821,821,821,821,821,821,821,821,821,821,821,821,821,821,821,821,821,821,821,821,821,821,821,821,821,821,821,821,829,848,870,899,935,1006,1023,1051,1081,1125,1197,1215,1224,1228,1234,1234,1234,1234,1232,1227,1218,1209,1199,1188,1174,1164,1162,1159,1157],"ymouse":[542,542,542,542,542,541,541,540,540,539,539,531,528,526,524,522,518,518,518,518,518,518,518,518,518,518,518,518,518,518,518,518,518,518,518,518,518,518,518,518,518,518,518,518,518,518,506,492,473,453,425,360,344,319,298,279,243,230,220,212,189,179,176,171,167,156,146,139,127,118,103,96,94,91,90],"timestamp_mouse":[12,34,52,72,93,114,133,153,173,193,214,233,253,272,293,313,332,353,372,392,412,433,453,473,492,513,533,552,572,593,612,632,652,672,692,712,732,752,773,792,813,833,853,873,892,913,933,952,973,993,1013,1032,1053,1074,1093,1112,1132,1152,1173,1193,1214,1232,1252,1273,1292,1314,1332,1352,1373,1392,1413,1432,1453,1473,1494],"xSR":741.5,"ySR":469.95,"xT1":424.9,"yT1":0,"xT2":1058.1,"yT2":0,"toosoon":0,"cond_shown":"equaldotanddens","ratio_trial":500,"smaller_num":"2","larger_num":"4","correct_side":2,"subjID":"ValeriaBautistaRoman","gender":"1","age":"8","school":"4"},{"start_time":1552309494875,"click_time":1552309496640,"finger_time":1552309495680,"fix_duration":250,"trial":16,"RT":805,"MT":960,"sideResp":1,"stimulus":"img/500/equaldotsize/L/10_Ratio_500_L_4_R_2.png","xmouse":[818,818,818,817,817,817,817,817,817,817,817,817,817,817,817,817,817,817,817,817,817,817,817,817,817,817,817,817,817,817,817,817,817,817,817,817,817,814,807,768,733,696,652,594,465,420,387,367,358,322,309,307,307,307,316,323,330,338,349,363,369,372,375,378,380,384,391,394,396,396,396,396,396,404,408,416,421,423,424,424,424,424,424,424,424,424,424,424,425],"ymouse":[518,518,518,518,518,518,518,518,518,518,518,518,518,518,518,518,518,518,518,518,518,518,518,518,518,518,518,518,518,518,518,518,518,518,518,518,518,517,510,471,440,410,381,346,280,262,247,237,230,170,143,129,120,109,76,63,50,38,24,13,10,7,6,6,6,11,19,23,24,24,24,25,25,36,40,43,45,46,46,46,46,46,46,46,46,46,46,46,46],"timestamp_mouse":[17,36,45,66,85,105,125,145,165,185,205,226,245,265,285,305,325,345,367,385,406,426,446,466,486,505,525,546,565,586,607,625,645,665,686,706,725,746,766,786,805,826,847,866,886,906,925,947,965,985,1005,1025,1046,1066,1085,1106,1125,1145,1166,1185,1206,1225,1245,1267,1285,1305,1326,1346,1366,1386,1405,1426,1445,1467,1486,1505,1526,1546,1567,1587,1606,1626,1646,1665,1686,1705,1725,1745,1765],"xSR":741.5,"ySR":469.95,"xT1":424.9,"yT1":0,"xT2":1058.1,"yT2":0,"toosoon":0,"cond_shown":"equaldotsize","ratio_trial":500,"smaller_num":"2","larger_num":"4","correct_side":1,"subjID":"ValeriaBautistaRoman","gender":"1","age":"8","school":"4"},{"start_time":1552309501777,"click_time":1552309503184,"finger_time":1552309502704,"fix_duration":250,"trial":17,"RT":927,"MT":480,"sideResp":1,"stimulus":"img/900/equaldotsize/L/2_Ratio_900_L_20_R_18.png","xmouse":[790,790,790,790,789,789,789,788,788,787,786,786,785,784,784,784,784,784,784,784,784,784,784,784,784,784,784,784,784,784,784,784,784,784,784,784,784,784,784,784,784,784,784,784,784,775,763,750,708,698,686,679,674,670,646,634,628,621,608,603,599,592,575,564,561,558,555,550,539,530,522],"ymouse":[504,504,504,504,505,505,505,505,505,505,505,505,505,506,506,506,506,506,506,506,506,506,506,506,506,506,506,506,506,506,506,506,506,506,506,506,506,506,506,506,506,506,506,505,501,486,466,445,384,368,354,349,346,343,327,318,312,297,258,244,227,203,158,132,107,87,68,57,50,47,44],"timestamp_mouse":[11,28,46,67,86,106,127,146,167,187,207,227,247,267,287,306,326,346,366,388,407,426,447,468,487,507,527,547,567,586,607,626,647,667,687,708,727,747,766,788,807,827,847,866,887,907,927,947,968,986,1007,1026,1047,1068,1087,1107,1127,1146,1168,1186,1207,1228,1247,1268,1286,1306,1327,1347,1368,1386,1407],"xSR":741.5,"ySR":469.95,"xT1":424.9,"yT1":0,"xT2":1058.1,"yT2":0,"toosoon":0,"cond_shown":"equaldotsize","ratio_trial":900,"smaller_num":"18","larger_num":"20","correct_side":1,"subjID":"ValeriaBautistaRoman","gender":"1","age":"8","school":"4"},{"start_time":1552309504416,"click_time":1552309505923,"finger_time":1552309505344,"fix_duration":250,"trial":18,"RT":928,"MT":579,"sideResp":2,"stimulus":"img/900/randomdotsizeEA/R/3_Ratio_900_L_9_R_10.png","xmouse":[788,788,788,788,788,788,788,788,788,788,788,788,788,788,788,788,787,787,787,787,787,787,787,787,787,787,787,787,787,787,787,788,788,788,788,788,788,788,788,788,788,788,788,787,786,782,767,762,759,759,759,759,764,769,772,783,799,899,946,993,1026,1040,1057,1064,1070,1074,1080,1088,1091,1097,1109,1138,1146,1149,1151,1151],"ymouse":[482,482,482,482,482,482,482,482,482,482,482,482,482,483,484,485,486,486,486,486,486,487,487,488,489,489,489,489,490,490,490,490,490,490,490,490,490,490,490,490,490,490,490,489,486,481,464,457,454,452,448,444,428,416,405,388,365,284,250,217,195,183,165,159,154,149,144,138,136,133,128,114,110,107,103,98],"timestamp_mouse":[8,29,55,68,87,107,129,149,168,188,208,229,248,268,287,308,327,348,369,387,408,428,448,468,488,508,528,549,568,588,608,629,649,667,688,708,729,748,768,788,808,827,847,868,888,907,928,947,968,989,1008,1027,1048,1067,1088,1108,1129,1148,1168,1187,1208,1228,1247,1268,1288,1308,1328,1348,1368,1387,1407,1429,1447,1467,1488,1507],"xSR":741.5,"ySR":469.95,"xT1":424.9,"yT1":0,"xT2":1058.1,"yT2":0,"toosoon":0,"cond_shown":"randomdotsizeEA","ratio_trial":900,"smaller_num":"9","larger_num":"10","correct_side":2,"subjID":"ValeriaBautistaRoman","gender":"1","age":"8","school":"4"},{"start_time":1552309508206,"click_time":1552309509764,"finger_time":1552309509064,"fix_duration":1300.4847619899078,"trial":19,"RT":858,"MT":700,"sideResp":1,"stimulus":"img/750/equaldotanddens/L/8_Ratio_750_L_4_R_3.png","xmouse":[787,787,787,787,787,787,787,787,787,787,787,787,787,787,787,787,787,787,787,787,787,787,787,787,787,787,787,787,787,787,787,787,787,787,787,787,787,786,784,783,781,777,754,736,718,700,659,637,631,629,627,623,618,614,606,600,578,558,546,537,534,533,533,533,533,533,532,530,530,528,527,525,524,524,524,524,517,512],"ymouse":[525,524,524,523,523,522,521,520,520,519,518,517,517,517,517,517,517,517,517,517,517,517,517,517,517,517,517,517,517,517,517,517,517,517,516,514,512,500,497,493,489,481,450,432,414,397,364,343,335,331,324,317,296,279,258,236,191,162,147,137,133,131,131,131,131,131,130,127,126,123,120,117,114,114,114,113,104,96],"timestamp_mouse":[18,37,58,78,98,118,138,159,178,197,218,238,258,278,299,319,338,358,379,397,418,437,457,477,499,519,538,557,578,597,617,639,658,678,698,718,738,758,777,798,817,838,858,879,898,917,938,957,977,998,1018,1037,1057,1077,1099,1117,1138,1157,1178,1197,1217,1238,1257,1278,1297,1318,1338,1358,1378,1398,1418,1438,1458,1478,1497,1518,1539,1558],"xSR":741.5,"ySR":469.95,"xT1":424.9,"yT1":0,"xT2":1058.1,"yT2":0,"toosoon":0,"cond_shown":"equaldotanddens","ratio_trial":750,"smaller_num":"3","larger_num":"4","correct_side":1,"subjID":"ValeriaBautistaRoman","gender":"1","age":"8","school":"4"},{"start_time":1552309511017,"click_time":1552309512445,"finger_time":1552309511925,"fix_duration":310.84550265365175,"trial":20,"RT":908,"MT":520,"sideResp":2,"stimulus":"img/500/equaldotsize/R/2_Ratio_500_L_3_R_6.png","xmouse":[807,808,810,811,811,811,811,812,812,812,812,812,812,811,810,808,808,808,808,808,808,808,808,808,808,808,808,808,808,808,808,808,808,808,808,808,808,808,808,808,808,809,811,813,815,822,833,848,855,865,872,880,898,911,924,939,957,986,991,994,995,996,998,999,1001,1004,1010,1012,1019,1031,1051,1072],"ymouse":[521,520,519,518,517,516,516,515,515,515,515,515,515,515,515,516,516,516,516,516,516,516,516,516,516,516,516,516,516,516,516,516,516,516,516,516,516,516,516,516,516,513,505,493,474,439,401,366,347,327,310,293,249,220,190,155,119,64,58,54,52,48,46,44,42,41,39,38,38,38,38,38],"timestamp_mouse":[10,26,46,66,86,107,126,147,166,187,207,227,246,266,287,307,326,346,367,386,406,427,447,467,487,507,527,547,566,587,607,627,647,667,687,707,727,747,767,787,807,828,847,866,887,908,928,946,967,987,1006,1027,1047,1068,1087,1107,1126,1147,1167,1186,1207,1228,1246,1267,1288,1306,1327,1346,1366,1388,1407,1428],"xSR":741.5,"ySR":469.95,"xT1":424.9,"yT1":0,"xT2":1058.1,"yT2":0,"toosoon":0,"cond_shown":"equaldotsize","ratio_trial":500,"smaller_num":"3","larger_num":"6","correct_side":2,"subjID":"ValeriaBautistaRoman","gender":"1","age":"8","school":"4"},{"start_time":1552309514950,"click_time":1552309515764,"finger_time":1552309515464,"fix_duration":1345.5951628542248,"trial":21,"RT":514,"MT":300,"sideResp":1,"stimulus":"img/900/equaldotsize/L/2_Ratio_900_L_20_R_18.png","xmouse":[784,784,784,784,784,784,784,784,784,784,784,784,784,784,784,784,784,784,784,784,784,784,783,782,774,749,732,716,702,683,657,638,612,587,562,525,518,514,512,512,512],"ymouse":[513,513,513,513,513,513,513,513,513,513,513,513,513,513,513,513,513,513,513,513,513,513,512,510,498,467,449,431,414,391,346,314,278,244,212,162,148,134,117,105,72],"timestamp_mouse":[13,33,53,75,94,115,135,154,174,193,213,234,254,274,293,313,333,354,374,394,414,434,455,474,493,514,534,554,573,593,615,634,654,675,694,713,734,753,774,794,814],"xSR":741.5,"ySR":469.95,"xT1":424.9,"yT1":0,"xT2":1058.1,"yT2":0,"toosoon":0,"cond_shown":"equaldotsize","ratio_trial":900,"smaller_num":"18","larger_num":"20","correct_side":1,"subjID":"ValeriaBautistaRoman","gender":"1","age":"8","school":"4"},{"start_time":1552309516696,"click_time":1552309517764,"finger_time":1552309517264,"fix_duration":250,"trial":22,"RT":568,"MT":500,"sideResp":2,"stimulus":"img/250/equaldotsize/R/10_Ratio_250_L_4_R_16.png","xmouse":[753,753,753,753,753,753,753,753,752,752,752,752,752,753,753,753,753,754,754,754,754,754,754,756,757,767,786,826,852,878,905,926,963,986,1003,1020,1045,1087,1154,1172,1178,1178,1177,1173,1169,1162,1149,1127,1124,1122,1121,1121,1120,1117],"ymouse":[544,544,544,544,544,544,544,544,544,544,544,544,544,544,544,544,544,544,544,544,544,544,544,544,542,532,516,475,449,425,400,382,349,327,312,294,269,235,178,160,149,142,140,138,137,132,125,114,111,109,107,105,101,93],"timestamp_mouse":[7,34,49,68,88,109,129,148,168,187,208,227,248,268,287,308,327,348,367,388,408,427,449,468,488,508,527,548,568,588,608,628,649,667,688,708,728,747,767,787,808,827,848,868,888,908,927,949,967,989,1007,1027,1048,1067],"xSR":741.5,"ySR":469.95,"xT1":424.9,"yT1":0,"xT2":1058.1,"yT2":0,"toosoon":0,"cond_shown":"equaldotsize","ratio_trial":250,"smaller_num":"4","larger_num":"16","correct_side":2,"subjID":"ValeriaBautistaRoman","gender":"1","age":"8","school":"4"},{"start_time":1552309518957,"click_time":1552309519745,"finger_time":1552309519564,"fix_duration":250,"trial":23,"RT":607,"MT":181,"sideResp":1,"stimulus":"img/250/randomdotsizeEA/L/15_Ratio_250_L_12_R_3.png","xmouse":[801,801,799,799,799,799,799,799,799,799,799,799,798,798,798,798,798,798,798,798,798,798,798,798,798,798,797,795,789,781,739,707,664,612,522,495,477,466,458,435],"ymouse":[538,538,538,538,538,538,538,538,538,538,538,538,538,538,539,539,539,539,539,539,539,539,540,540,540,540,538,533,519,502,438,392,332,272,189,159,139,123,105,61],"timestamp_mouse":[6,34,46,66,87,107,127,147,166,186,207,228,247,267,287,307,327,347,366,387,407,427,447,468,487,506,526,547,568,587,607,626,647,667,687,706,726,746,766,788],"xSR":741.5,"ySR":469.95,"xT1":424.9,"yT1":0,"xT2":1058.1,"yT2":0,"toosoon":0,"cond_shown":"randomdotsizeEA","ratio_trial":250,"smaller_num":"3","larger_num":"12","correct_side":1,"subjID":"ValeriaBautistaRoman","gender":"1","age":"8","school":"4"},{"start_time":1552309521919,"click_time":1552309523003,"finger_time":1552309522504,"fix_duration":1392.9634041035542,"trial":24,"RT":585,"MT":499,"sideResp":2,"stimulus":"img/250/equaldotanddens/R/11_Ratio_250_L_3_R_12.png","xmouse":[786,786,786,786,786,786,786,786,786,786,786,786,786,786,786,786,786,786,786,786,786,786,786,786,786,786,789,809,828,848,878,926,971,988,1002,1013,1040,1057,1080,1122,1171,1287,1302,1305,1305,1305,1298,1295,1290,1285,1276,1252,1201,1165,1140],"ymouse":[523,523,523,523,523,523,523,523,523,523,523,523,523,523,523,523,523,523,523,523,523,523,523,523,523,523,518,509,500,486,469,431,388,369,353,341,312,297,283,263,241,184,174,166,156,149,130,121,113,104,93,81,70,64,60],"timestamp_mouse":[8,38,44,65,84,105,125,145,165,186,204,224,244,265,284,305,326,345,365,384,405,425,445,465,485,505,525,545,565,585,604,624,644,665,684,704,726,744,765,785,804,826,844,865,884,904,926,944,965,985,1005,1025,1044,1065,1084],"xSR":741.5,"ySR":469.95,"xT1":424.9,"yT1":0,"xT2":1058.1,"yT2":0,"toosoon":0,"cond_shown":"equaldotanddens","ratio_trial":250,"smaller_num":"3","larger_num":"12","correct_side":2,"subjID":"ValeriaBautistaRoman","gender":"1","age":"8","school":"4"},{"start_time":1552309524056,"click_time":1552309526344,"finger_time":1552309524523,"fix_duration":250,"trial":25,"RT":467,"MT":1821,"sideResp":2,"stimulus":"img/250/randomdotsizeEA/R/9_Ratio_250_L_3_R_12.png","xmouse":[757,757,757,756,756,756,756,756,756,756,756,756,756,756,756,756,756,756,756,756,756,751,745,739,736,725,720,714,708,694,683,667,652,639,624,616,615,615,615,615,615,615,615,615,615,615,615,615,615,615,615,615,615,615,615,615,615,615,615,615,618,629,649,673,698,782,813,845,871,908,916,924,928,929,930,931,931,931,931,931,933,938,946,987,1028,1101,1120,1142,1155,1174,1180,1184,1190,1192,1192,1192,1192,1192,1192,1191,1189,1189,1189,1189,1189,1189,1189,1189,1189,1189,1189,1189,1188,1173,1135],"ymouse":[568,568,568,568,568,567,567,567,567,567,567,567,567,567,567,567,567,567,567,566,560,547,533,520,507,467,454,441,430,407,391,368,348,329,303,286,284,284,284,284,284,284,284,284,284,284,284,284,284,284,284,284,284,284,284,284,284,284,284,284,284,290,296,300,303,305,303,292,280,255,246,236,229,225,219,205,201,197,193,183,179,174,168,157,145,127,120,112,109,99,95,93,91,90,90,90,90,90,90,90,90,90,90,90,90,90,90,90,90,90,90,90,90,87,77],"timestamp_mouse":[11,27,47,67,89,108,127,147,168,187,207,229,247,267,287,307,327,347,367,388,408,428,448,467,487,508,528,548,568,589,607,627,648,668,688,707,729,748,769,787,808,828,847,869,888,907,928,948,967,987,1009,1028,1048,1067,1088,1107,1129,1148,1168,1188,1207,1229,1249,1268,1287,1309,1328,1348,1368,1388,1407,1427,1447,1468,1488,1509,1528,1547,1568,1589,1607,1628,1647,1669,1688,1709,1728,1748,1768,1788,1807,1827,1848,1867,1887,1908,1927,1947,1968,1988,2008,2027,2047,2068,2088,2108,2128,2148,2167,2188,2208,2228,2247,2268,2288],"xSR":741.5,"ySR":469.95,"xT1":424.9,"yT1":0,"xT2":1058.1,"yT2":0,"toosoon":0,"cond_shown":"randomdotsizeEA","ratio_trial":250,"smaller_num":"3","larger_num":"12","correct_side":2,"subjID":"ValeriaBautistaRoman","gender":"1","age":"8","school":"4"},{"start_time":1552309531096,"click_time":1552309533024,"finger_time":1552309532083,"fix_duration":250,"trial":26,"RT":987,"MT":941,"sideResp":1,"stimulus":"img/900/randomdotsizeEA/L/10_Ratio_900_L_20_R_18.png","xmouse":[781,781,781,781,781,781,781,781,781,781,781,781,781,781,781,781,781,781,782,782,782,782,782,782,782,782,782,782,782,782,782,782,782,782,782,782,782,782,782,782,782,782,782,782,782,781,778,772,756,743,728,715,698,666,625,618,607,590,585,578,568,558,540,507,499,493,489,486,485,484,484,484,484,484,484,485,485,485,482,479,478,478,478,478,478,478,478,478,478,478,478,478,478,481,484,486,488],"ymouse":[531,531,531,531,531,531,531,531,531,531,531,531,531,531,531,531,531,531,530,530,530,530,530,530,530,530,530,530,530,530,530,530,530,530,530,530,530,530,530,530,530,530,530,530,527,523,515,506,482,469,458,449,438,420,403,400,391,379,373,367,352,339,314,263,246,232,218,210,196,194,194,194,194,194,191,190,184,162,146,132,127,125,124,124,124,124,124,124,124,124,123,122,122,115,109,101,97],"timestamp_mouse":[8,27,47,75,88,108,129,148,168,188,209,227,248,267,288,308,327,349,369,388,408,427,449,468,488,508,528,548,567,588,609,628,647,667,687,707,729,747,768,787,808,827,847,867,887,909,927,947,968,987,1008,1028,1047,1067,1094,1108,1127,1149,1167,1187,1208,1228,1247,1269,1288,1308,1327,1347,1367,1388,1408,1427,1448,1467,1487,1507,1527,1549,1567,1587,1607,1628,1649,1668,1688,1708,1727,1747,1767,1787,1807,1828,1847,1868,1888,1907,1928],"xSR":741.5,"ySR":469.95,"xT1":424.9,"yT1":0,"xT2":1058.1,"yT2":0,"toosoon":0,"cond_shown":"randomdotsizeEA","ratio_trial":900,"smaller_num":"18","larger_num":"20","correct_side":1,"subjID":"ValeriaBautistaRoman","gender":"1","age":"8","school":"4"},{"start_time":1552309536479,"click_time":1552309538045,"finger_time":1552309537324,"fix_duration":474.71585733166444,"trial":27,"RT":845,"MT":721,"sideResp":2,"stimulus":"img/500/equaldotsize/R/2_Ratio_500_L_3_R_6.png","xmouse":[801,801,801,801,801,801,801,801,801,801,801,801,801,801,801,801,801,801,801,801,801,801,801,801,801,801,801,801,801,801,801,801,801,801,801,801,801,801,801,807,815,824,831,837,852,857,862,866,877,880,882,886,893,906,927,941,954,967,995,1017,1030,1039,1048,1068,1073,1076,1079,1080,1081,1082,1082,1082,1083,1083,1084,1085,1086,1088,1090],"ymouse":[513,513,513,513,513,513,513,513,513,513,513,513,513,513,513,513,513,513,513,513,513,513,513,513,513,513,513,513,513,513,513,513,513,513,513,513,513,513,510,503,493,480,465,450,413,396,381,362,330,320,313,308,300,290,279,268,259,249,227,212,206,199,190,177,175,172,170,169,166,161,157,151,146,137,131,123,117,110,91],"timestamp_mouse":[11,29,45,65,85,106,125,144,173,184,204,226,245,265,285,304,325,345,365,385,404,426,444,465,484,504,526,545,564,585,604,624,644,664,685,705,724,744,765,784,805,824,845,864,885,905,925,945,966,984,1005,1025,1046,1065,1084,1104,1124,1145,1166,1184,1204,1225,1244,1265,1285,1304,1325,1345,1366,1384,1405,1425,1444,1466,1484,1505,1524,1544,1566],"xSR":741.5,"ySR":469.95,"xT1":424.9,"yT1":0,"xT2":1058.1,"yT2":0,"toosoon":0,"cond_shown":"equaldotsize","ratio_trial":500,"smaller_num":"3","larger_num":"6","correct_side":2,"subjID":"ValeriaBautistaRoman","gender":"1","age":"8","school":"4"},{"start_time":1552309540354,"click_time":1552309541284,"finger_time":1552309541004,"fix_duration":1348.6730846461737,"trial":28,"RT":650,"MT":280,"sideResp":1,"stimulus":"img/750/equaldotanddens/L/8_Ratio_750_L_4_R_3.png","xmouse":[792,792,792,792,791,791,791,791,791,791,791,791,791,791,791,791,791,791,791,791,791,791,791,791,791,791,791,791,791,790,780,771,760,746,733,703,682,663,639,597,560,543,530,518,506,505,503],"ymouse":[513,513,513,513,513,513,513,513,513,513,513,513,513,513,513,513,513,513,513,513,513,513,513,513,513,513,513,513,513,511,492,476,457,439,423,391,377,361,339,282,210,172,146,125,105,101,96],"timestamp_mouse":[17,38,50,70,89,111,129,149,169,190,209,229,249,270,291,310,329,349,371,391,409,431,449,471,490,510,529,549,570,589,609,630,650,670,689,709,730,750,769,790,810,830,851,869,891,909,930],"xSR":741.5,"ySR":469.95,"xT1":424.9,"yT1":0,"xT2":1058.1,"yT2":0,"toosoon":0,"cond_shown":"equaldotanddens","ratio_trial":750,"smaller_num":"3","larger_num":"4","correct_side":1,"subjID":"ValeriaBautistaRoman","gender":"1","age":"8","school":"4"},{"start_time":1552309542962,"click_time":1552309543845,"finger_time":1552309543663,"fix_duration":655.0531710176483,"trial":29,"RT":701,"MT":182,"sideResp":1,"stimulus":"img/500/randomdotsizeEA/L/8_Ratio_500_L_8_R_4.png","xmouse":[783,783,783,783,783,783,783,783,783,783,783,783,783,783,783,783,783,783,783,783,783,783,783,782,781,780,778,777,776,772,770,768,766,764,762,755,751,746,738,719,696,661,626,585,487],"ymouse":[514,514,514,514,514,514,514,514,514,514,514,514,514,514,514,514,514,514,514,514,514,514,514,514,513,509,507,504,502,495,490,486,483,479,473,456,449,436,421,384,340,282,223,158,31],"timestamp_mouse":[9,28,42,63,81,101,121,141,161,181,202,221,241,261,281,301,323,343,362,382,402,421,441,462,482,501,521,543,562,582,602,622,642,662,681,701,723,742,762,782,801,822,842,862,882],"xSR":741.5,"ySR":469.95,"xT1":424.9,"yT1":0,"xT2":1058.1,"yT2":0,"toosoon":0,"cond_shown":"randomdotsizeEA","ratio_trial":500,"smaller_num":"4","larger_num":"8","correct_side":1,"subjID":"ValeriaBautistaRoman","gender":"1","age":"8","school":"4"},{"start_time":1552309546131,"click_time":1552309547545,"finger_time":1552309547103,"fix_duration":1126.8854656099963,"trial":30,"RT":972,"MT":442,"sideResp":1,"stimulus":"img/500/randomdotsizeEA/L/11_Ratio_500_L_12_R_6.png","xmouse":[785,781,779,777,776,776,776,776,776,776,776,776,776,776,776,776,776,776,776,776,776,776,776,776,776,776,776,776,776,776,776,776,776,776,776,776,776,776,776,776,776,776,776,775,775,774,765,752,727,700,628,583,561,549,543,541,541,540,540,539,537,536,535,533,531,523,519,517,511,502,477],"ymouse":[527,528,529,529,529,529,529,529,529,529,529,529,529,529,529,529,529,529,529,529,529,529,529,529,529,529,529,529,529,529,529,529,529,529,529,529,529,529,529,529,529,529,529,529,528,524,494,471,438,410,349,316,296,280,271,265,264,261,259,255,250,239,235,224,212,177,168,161,147,129,87],"timestamp_mouse":[12,44,53,73,92,113,132,154,174,193,212,232,253,273,292,313,334,352,372,392,413,434,453,472,492,512,533,552,574,593,613,633,653,672,693,714,733,753,772,792,813,832,853,873,892,913,933,953,972,993,1013,1032,1052,1073,1092,1114,1132,1153,1173,1192,1212,1232,1253,1274,1293,1314,1332,1353,1372,1392,1414],"xSR":741.5,"ySR":469.95,"xT1":424.9,"yT1":0,"xT2":1058.1,"yT2":0,"toosoon":0,"cond_shown":"randomdotsizeEA","ratio_trial":500,"smaller_num":"6","larger_num":"12","correct_side":1,"subjID":"ValeriaBautistaRoman","gender":"1","age":"8","school":"4"},{"start_time":1552309549412,"click_time":1552309550584,"finger_time":1552309550363,"fix_duration":866.3378182774575,"trial":31,"RT":951,"MT":221,"sideResp":1,"stimulus":"img/500/equaldotanddens/L/10_Ratio_500_L_4_R_2.png","xmouse":[780,780,780,780,780,780,780,780,780,781,781,781,781,781,781,781,781,781,781,781,781,781,781,781,781,781,781,781,781,782,782,783,783,783,783,783,783,783,783,783,783,784,785,786,782,777,769,762,758,752,733,679,657,634,614,592,543,524,505],"ymouse":[516,516,516,516,516,516,516,516,516,516,516,516,516,516,516,516,516,516,516,516,516,516,516,516,516,516,516,516,516,516,516,516,516,516,516,516,516,516,516,516,516,516,514,510,500,490,474,449,424,388,340,245,216,193,175,155,119,106,92],"timestamp_mouse":[11,31,51,72,91,112,132,151,172,192,211,231,253,273,291,313,333,352,371,392,411,431,451,472,493,512,531,551,571,593,613,632,653,672,692,711,732,751,773,791,812,832,851,873,892,912,932,951,972,992,1011,1032,1051,1072,1092,1113,1133,1151,1172],"xSR":741.5,"ySR":469.95,"xT1":424.9,"yT1":0,"xT2":1058.1,"yT2":0,"toosoon":0,"cond_shown":"equaldotanddens","ratio_trial":500,"smaller_num":"2","larger_num":"4","correct_side":1,"subjID":"ValeriaBautistaRoman","gender":"1","age":"8","school":"4"},{"start_time":1552309552496,"click_time":1552309553663,"finger_time":1552309552963,"fix_duration":769.7390584546681,"trial":32,"RT":467,"MT":700,"sideResp":1,"stimulus":"img/750/equaldotanddens/L/10_Ratio_750_L_4_R_3.png","xmouse":[790,790,790,790,790,790,790,790,790,790,790,790,790,790,790,790,790,790,790,790,790,789,787,781,777,772,767,759,746,738,732,724,716,689,673,652,636,620,588,579,570,559,548,531,521,513,506,501,489,482,473,466,458,455,454,453,451,451,449],"ymouse":[486,486,486,486,486,486,486,486,486,486,486,486,486,486,486,486,486,486,486,486,486,486,479,461,453,443,432,420,399,388,375,362,348,303,282,257,242,230,209,201,193,186,176,166,159,154,150,147,137,131,123,117,112,108,106,104,102,102,97],"timestamp_mouse":[8,32,48,68,87,108,127,148,167,187,207,227,247,267,287,307,327,347,367,387,407,428,447,467,487,508,528,547,568,587,607,627,647,668,688,708,727,747,768,787,807,827,848,867,887,907,927,947,967,987,1007,1027,1047,1067,1088,1108,1128,1147,1167],"xSR":741.5,"ySR":469.95,"xT1":424.9,"yT1":0,"xT2":1058.1,"yT2":0,"toosoon":0,"cond_shown":"equaldotanddens","ratio_trial":750,"smaller_num":"3","larger_num":"4","correct_side":1,"subjID":"ValeriaBautistaRoman","gender":"1","age":"8","school":"4"},{"start_time":1552309556214,"click_time":1552309557424,"finger_time":1552309556904,"fix_duration":250,"trial":33,"RT":690,"MT":520,"sideResp":1,"stimulus":"img/250/equaldotanddens/L/7_Ratio_250_L_8_R_2.png","xmouse":[820,820,820,820,820,820,820,820,820,820,820,820,820,820,820,817,815,814,814,814,814,814,814,814,814,814,814,814,814,814,812,800,791,781,768,754,741,665,629,570,501,446,441,438,436,436,435,435,435,435,435,435,435,435,435,435,435,438,439,439,437],"ymouse":[525,525,525,525,525,525,525,525,525,525,525,525,525,525,525,524,524,523,523,523,523,523,523,523,523,523,523,523,523,523,516,503,492,477,459,439,411,306,273,223,185,156,152,150,148,148,147,147,147,146,146,146,146,145,144,143,133,127,119,107,98],"timestamp_mouse":[9,31,58,70,89,109,130,151,170,190,210,230,250,270,290,309,331,351,370,390,410,430,450,469,489,511,531,550,570,590,610,630,650,670,690,710,730,749,770,791,810,831,849,869,889,910,930,951,969,989,1009,1030,1051,1070,1089,1110,1130,1149,1169,1189,1210],"xSR":741.5,"ySR":469.95,"xT1":424.9,"yT1":0,"xT2":1058.1,"yT2":0,"toosoon":0,"cond_shown":"equaldotanddens","ratio_trial":250,"smaller_num":"2","larger_num":"8","correct_side":1,"subjID":"ValeriaBautistaRoman","gender":"1","age":"8","school":"4"},{"start_time":1552309559362,"click_time":1552309560364,"finger_time":1552309560203,"fix_duration":716.0041335915438,"trial":34,"RT":841,"MT":161,"sideResp":2,"stimulus":"img/250/equaldotsize/R/10_Ratio_250_L_4_R_16.png","xmouse":[789,789,789,789,789,789,789,789,789,789,789,789,789,789,789,789,789,789,789,789,789,789,789,789,789,789,789,789,789,789,789,789,789,789,789,789,789,789,789,791,809,835,891,950,999,1075,1103,1125,1144,1150,1143],"ymouse":[504,504,504,504,504,504,504,504,504,504,504,504,504,504,504,504,505,505,505,506,506,506,506,506,506,506,506,506,506,506,506,506,506,506,506,506,506,506,506,506,499,488,466,439,408,336,302,269,230,173,90],"timestamp_mouse":[9,29,41,63,83,102,122,142,161,182,201,222,242,262,282,301,321,341,361,382,402,422,442,462,481,503,522,542,562,581,602,622,643,662,682,701,721,741,761,781,802,821,841,861,881,901,923,942,961,981,1001],"xSR":741.5,"ySR":469.95,"xT1":424.9,"yT1":0,"xT2":1058.1,"yT2":0,"toosoon":0,"cond_shown":"equaldotsize","ratio_trial":250,"smaller_num":"4","larger_num":"16","correct_side":2,"subjID":"ValeriaBautistaRoman","gender":"1","age":"8","school":"4"},{"start_time":1552309562456,"click_time":1552309563727,"finger_time":1552309563166,"fix_duration":947.9802531606838,"trial":35,"RT":710,"MT":561,"sideResp":1,"stimulus":"img/750/randomdotsizeEA/R/4_Ratio_750_L_15_R_20.png","xmouse":[791,791,791,791,791,792,792,792,792,792,792,792,792,792,792,792,792,792,792,792,792,792,792,792,792,792,792,792,792,792,792,791,788,785,777,757,747,731,703,664,570,538,519,515,514,511,508,503,500,500,503,506,509,511,512,513,513,513,513,513,513,513,509,508],"ymouse":[524,524,524,524,524,523,523,523,523,522,522,522,521,520,519,518,518,518,517,517,517,517,517,517,516,516,515,515,515,514,511,507,501,494,483,462,448,425,392,355,274,248,231,223,217,183,165,148,136,127,119,118,117,115,112,111,109,109,108,108,106,104,100,99],"timestamp_mouse":[10,36,52,71,90,111,130,150,170,192,211,231,250,271,291,310,330,350,370,390,410,430,451,471,492,511,530,550,571,591,610,630,651,670,690,710,731,750,770,792,810,831,850,870,891,911,930,950,970,990,1010,1030,1051,1070,1091,1111,1130,1150,1171,1191,1210,1230,1252,1271],"xSR":741.5,"ySR":469.95,"xT1":424.9,"yT1":0,"xT2":1058.1,"yT2":0,"toosoon":0,"cond_shown":"randomdotsizeEA","ratio_trial":750,"smaller_num":"15","larger_num":"20","correct_side":2,"subjID":"ValeriaBautistaRoman","gender":"1","age":"8","school":"4"},{"start_time":1552309567352,"click_time":1552309568948,"finger_time":1552309568047,"fix_duration":1244.9548805096551,"trial":36,"RT":695,"MT":901,"sideResp":2,"stimulus":"img/750/equaldotanddens/R/3_Ratio_750_L_15_R_20.png","xmouse":[789,789,789,789,789,789,789,789,789,789,790,790,790,790,790,790,790,790,790,790,790,790,790,790,790,790,790,790,790,790,791,795,800,803,809,811,812,813,816,828,835,842,849,854,861,866,869,871,876,893,900,915,936,976,1046,1068,1080,1082,1083,1083,1086,1087,1087,1087,1087,1087,1087,1087,1087,1086,1085,1085,1085,1085,1085,1085,1085,1085,1085,1111],"ymouse":[525,525,525,525,525,525,525,525,525,525,524,524,524,524,523,522,522,521,521,519,519,518,517,515,511,510,509,508,507,502,497,490,483,477,468,466,463,461,457,441,433,426,420,415,404,394,386,381,371,343,334,324,309,291,275,272,269,269,269,269,265,258,252,248,234,226,219,215,211,202,188,188,188,188,188,188,187,186,184,82],"timestamp_mouse":[15,35,58,74,96,114,134,155,176,195,214,235,255,274,295,315,334,355,374,395,416,435,455,474,496,515,535,554,575,595,615,635,656,675,695,714,735,754,775,796,814,834,854,874,894,914,934,955,975,995,1014,1035,1055,1074,1096,1114,1136,1156,1175,1194,1214,1234,1254,1275,1296,1314,1334,1354,1374,1395,1415,1435,1456,1475,1494,1515,1534,1554,1574,1595],"xSR":741.5,"ySR":469.95,"xT1":424.9,"yT1":0,"xT2":1058.1,"yT2":0,"toosoon":0,"cond_shown":"equaldotanddens","ratio_trial":750,"smaller_num":"15","larger_num":"20","correct_side":2,"subjID":"ValeriaBautistaRoman","gender":"1","age":"8","school":"4"},{"start_time":1552309571259,"click_time":1552309573048,"finger_time":1552309571967,"fix_duration":1190.8243112432456,"trial":37,"RT":708,"MT":1081,"sideResp":2,"stimulus":"img/250/equaldotanddens/R/11_Ratio_250_L_3_R_12.png","xmouse":[782,783,783,783,783,783,783,783,783,783,783,783,783,783,783,783,783,783,783,783,783,783,783,783,783,783,783,783,783,783,785,791,800,811,837,844,846,847,848,848,848,848,848,848,848,848,850,852,858,866,921,952,967,982,995,995,995,995,995,995,995,995,995,995,997,998,1001,1004,1006,1015,1019,1021,1026,1030,1035,1050,1055,1057,1058,1060,1061,1062,1062,1063,1073,1080,1086,1090,1091,1111],"ymouse":[529,528,528,527,527,527,527,527,527,527,527,527,527,526,525,524,523,523,523,522,522,521,521,521,521,521,521,521,521,521,520,512,505,497,476,467,462,457,455,454,454,450,442,436,432,428,426,421,414,410,383,354,336,313,288,288,288,288,288,288,288,288,287,287,284,282,276,273,271,262,258,256,249,243,233,210,200,193,190,184,181,179,177,173,148,139,125,114,108,40],"timestamp_mouse":[16,35,47,67,87,107,127,147,167,187,207,227,248,269,287,307,327,348,368,387,408,429,449,468,488,507,529,547,569,589,607,628,648,668,688,708,727,748,767,787,807,827,847,868,887,907,928,947,968,988,1008,1027,1047,1067,1089,1107,1127,1147,1167,1188,1208,1227,1249,1269,1289,1307,1327,1347,1367,1389,1407,1427,1448,1467,1487,1507,1527,1547,1567,1589,1607,1628,1648,1668,1688,1707,1727,1747,1768,1789],"xSR":741.5,"ySR":469.95,"xT1":424.9,"yT1":0,"xT2":1058.1,"yT2":0,"toosoon":0,"cond_shown":"equaldotanddens","ratio_trial":250,"smaller_num":"3","larger_num":"12","correct_side":2,"subjID":"ValeriaBautistaRoman","gender":"1","age":"8","school":"4"},{"start_time":1552309576079,"click_time":1552309577688,"finger_time":1552309577047,"fix_duration":250,"trial":38,"RT":968,"MT":641,"sideResp":1,"stimulus":"img/900/equaldotsize/R/12_Ratio_900_L_18_R_20.png","xmouse":[773,773,773,773,773,773,773,773,773,773,773,773,773,773,773,773,773,773,773,773,773,773,773,773,773,773,773,773,773,773,773,773,773,773,773,773,773,773,773,773,773,773,773,773,773,772,766,759,747,739,732,721,702,671,585,567,551,541,538,536,535,535,535,535,534,534,534,533,532,532,529,529,529,529,529,529,529,529,528,525,517],"ymouse":[510,510,510,510,510,510,510,510,510,510,510,510,510,510,510,510,510,510,510,510,510,510,510,510,510,510,510,510,510,510,510,510,510,510,510,510,510,510,510,510,510,510,510,510,510,500,485,471,448,432,420,404,382,338,193,146,115,92,86,82,82,82,82,82,81,81,80,79,79,79,78,78,78,78,78,78,78,78,78,78,76],"timestamp_mouse":[9,28,48,67,87,107,128,147,167,187,207,228,248,268,287,307,328,349,369,387,407,427,449,468,488,507,528,549,567,587,607,628,649,668,688,707,728,747,768,788,807,829,848,868,888,908,928,948,968,988,1008,1029,1048,1067,1089,1108,1128,1147,1168,1187,1207,1227,1247,1269,1287,1308,1328,1347,1369,1388,1407,1427,1449,1469,1489,1507,1528,1547,1567,1587,1608],"xSR":741.5,"ySR":469.95,"xT1":424.9,"yT1":0,"xT2":1058.1,"yT2":0,"toosoon":0,"cond_shown":"equaldotsize","ratio_trial":900,"smaller_num":"18","larger_num":"20","correct_side":2,"subjID":"ValeriaBautistaRoman","gender":"1","age":"8","school":"4"},{"start_time":1552309581773,"click_time":1552309583347,"finger_time":1552309582546,"fix_duration":1363.812157350717,"trial":39,"RT":773,"MT":801,"sideResp":2,"stimulus":"img/750/randomdotsizeEA/R/11_Ratio_750_L_12_R_16.png","xmouse":[791,791,791,791,791,791,791,791,791,791,791,791,791,791,791,791,791,791,791,791,791,791,791,791,791,791,791,791,791,791,791,791,791,791,791,789,785,779,764,738,727,721,718,710,705,699,691,678,662,654,648,645,644,643,643,643,643,643,645,670,685,698,713,755,786,819,839,847,901,932,956,977,997,1040,1063,1075,1078,1085,1098],"ymouse":[519,519,519,519,519,519,519,519,519,519,519,519,519,519,519,519,519,519,519,519,519,519,519,519,519,519,519,519,519,519,519,519,519,519,518,508,495,477,439,396,380,370,365,349,341,334,325,313,295,288,283,281,279,279,279,279,278,278,274,271,269,266,263,248,238,228,218,211,188,183,178,171,158,139,132,125,122,115,97],"timestamp_mouse":[13,33,53,75,93,113,134,155,173,193,213,233,253,273,294,314,333,353,375,393,414,435,454,474,494,513,534,553,574,594,613,633,654,674,693,714,735,753,773,793,813,833,854,875,893,913,933,954,975,993,1014,1034,1055,1073,1094,1113,1134,1154,1173,1193,1213,1234,1253,1275,1293,1314,1335,1355,1374,1393,1414,1434,1453,1475,1493,1513,1535,1554,1574],"xSR":741.5,"ySR":469.95,"xT1":424.9,"yT1":0,"xT2":1058.1,"yT2":0,"toosoon":0,"cond_shown":"randomdotsizeEA","ratio_trial":750,"smaller_num":"12","larger_num":"16","correct_side":2,"subjID":"ValeriaBautistaRoman","gender":"1","age":"8","school":"4"},{"start_time":1552309593777,"click_time":1552309594848,"finger_time":1552309594706,"fix_duration":1230.9550606399278,"trial":40,"RT":929,"MT":142,"sideResp":1,"stimulus":"img/900/equaldotanddens/L/1_Ratio_900_L_10_R_9.png","xmouse":[781,781,780,779,779,779,779,779,779,779,779,779,779,779,779,779,779,779,779,779,779,779,779,779,779,779,779,779,779,779,779,779,779,779,779,779,779,779,779,779,779,779,779,779,774,761,751,736,721,658,626,584,544,486],"ymouse":[502,504,506,508,510,510,511,511,511,511,511,511,511,511,511,511,511,511,511,511,511,511,511,511,511,511,511,511,511,511,511,511,511,511,511,511,511,511,511,511,511,511,511,511,503,488,465,433,381,234,188,144,111,78],"timestamp_mouse":[12,31,49,69,89,109,130,150,170,190,211,229,250,269,290,310,329,351,371,390,409,430,451,471,489,510,531,550,571,590,610,631,650,669,691,710,729,750,769,790,811,830,850,871,889,910,929,950,971,989,1010,1030,1049,1071],"xSR":741.5,"ySR":469.95,"xT1":424.9,"yT1":0,"xT2":1058.1,"yT2":0,"toosoon":0,"cond_shown":"equaldotanddens","ratio_trial":900,"smaller_num":"9","larger_num":"10","correct_side":1,"subjID":"ValeriaBautistaRoman","gender":"1","age":"8","school":"4"},{"start_time":1552309597511,"click_time":1552309598648,"finger_time":1552309598326,"fix_duration":1201.9647303705756,"trial":41,"RT":815,"MT":322,"sideResp":1,"stimulus":"img/900/equaldotsize/R/3_Ratio_900_L_9_R_10.png","xmouse":[757,757,757,757,757,757,757,757,757,757,757,757,757,757,757,757,757,757,757,757,757,757,757,757,757,757,757,757,757,757,757,757,757,757,757,757,758,766,774,780,784,778,761,737,703,673,623,612,599,589,580,568,555,547,540,535,520],"ymouse":[518,518,518,518,518,518,518,518,518,518,518,518,518,518,518,518,518,518,518,518,518,518,518,518,518,518,518,517,517,517,517,517,517,517,517,517,515,506,490,472,454,425,407,391,367,346,301,280,253,231,207,164,132,116,100,88,60],"timestamp_mouse":[15,37,56,75,96,115,135,155,175,196,215,235,255,275,296,315,336,355,376,395,415,436,457,475,496,517,535,556,577,595,616,636,655,675,697,716,736,755,776,796,815,837,855,875,895,915,937,955,976,996,1016,1037,1055,1076,1095,1115,1137],"xSR":741.5,"ySR":469.95,"xT1":424.9,"yT1":0,"xT2":1058.1,"yT2":0,"toosoon":0,"cond_shown":"equaldotsize","ratio_trial":900,"smaller_num":"9","larger_num":"10","correct_side":2,"subjID":"ValeriaBautistaRoman","gender":"1","age":"8","school":"4"},{"start_time":1552309600270,"click_time":1552309601527,"finger_time":1552309601347,"fix_duration":701.2130156687758,"trial":42,"RT":1077,"MT":180,"sideResp":1,"stimulus":"img/750/equaldotanddens/L/1_Ratio_750_L_20_R_15.png","xmouse":[798,798,798,798,798,798,798,798,798,798,798,798,798,798,798,798,798,798,798,798,798,798,798,798,798,798,798,798,798,798,798,798,798,798,798,798,798,798,798,798,798,798,798,798,798,798,798,798,798,795,794,790,785,761,749,735,720,700,658,629,593,555,509],"ymouse":[536,536,536,536,536,536,536,536,536,536,536,536,536,536,536,536,536,536,536,536,536,536,536,536,536,536,536,536,536,536,536,536,536,536,536,536,536,536,536,536,536,536,536,536,536,536,536,534,532,522,514,502,484,429,406,382,358,325,251,205,165,121,80],"timestamp_mouse":[18,36,56,78,97,118,137,157,176,196,216,237,256,276,297,317,336,357,377,397,417,436,457,476,497,518,537,557,577,597,617,636,656,677,696,716,738,758,777,797,816,837,857,877,896,917,937,957,977,996,1018,1037,1056,1077,1096,1116,1137,1156,1177,1196,1216,1237,1257],"xSR":741.5,"ySR":469.95,"xT1":424.9,"yT1":0,"xT2":1058.1,"yT2":0,"toosoon":0,"cond_shown":"equaldotanddens","ratio_trial":750,"smaller_num":"15","larger_num":"20","correct_side":1,"subjID":"ValeriaBautistaRoman","gender":"1","age":"8","school":"4"},{"start_time":1552309602998,"click_time":1552309603726,"finger_time":1552309603626,"fix_duration":250,"trial":43,"RT":628,"MT":100,"sideResp":1,"stimulus":"img/250/randomdotsizeEA/L/3_Ratio_250_L_8_R_2.png","xmouse":[798,798,798,798,798,798,798,798,798,798,798,798,798,798,798,798,798,798,798,798,798,798,798,798,798,798,798,798,793,777,760,736,703,625,577,529,489],"ymouse":[525,525,525,525,525,525,525,525,525,525,525,525,525,525,525,525,525,525,525,525,525,525,525,525,525,525,525,525,522,501,474,431,373,237,167,98,39],"timestamp_mouse":[9,29,48,70,89,108,129,149,169,189,208,228,249,268,289,309,328,349,370,388,408,428,450,468,490,509,529,550,569,588,608,628,649,668,690,709,728],"xSR":741.5,"ySR":469.95,"xT1":424.9,"yT1":0,"xT2":1058.1,"yT2":0,"toosoon":0,"cond_shown":"randomdotsizeEA","ratio_trial":250,"smaller_num":"2","larger_num":"8","correct_side":1,"subjID":"ValeriaBautistaRoman","gender":"1","age":"8","school":"4"},{"start_time":1552309605019,"click_time":1552309605827,"finger_time":1552309605466,"fix_duration":250,"trial":44,"RT":447,"MT":361,"sideResp":1,"stimulus":"img/250/randomdotsizeEA/L/2_Ratio_250_L_16_R_4.png","xmouse":[780,780,780,780,780,780,780,780,780,780,780,780,780,780,780,780,780,780,780,780,772,750,734,718,706,692,677,631,613,592,573,555,520,506,489,479,474,471,470,468,467],"ymouse":[523,523,523,523,523,523,523,523,523,523,523,523,523,523,523,523,523,523,523,523,518,498,480,459,437,414,392,325,301,278,250,222,175,156,139,127,121,113,109,104,98],"timestamp_mouse":[11,31,48,67,87,108,127,147,167,188,209,228,248,267,287,307,329,348,368,388,407,429,447,468,488,508,528,549,568,587,607,627,647,668,688,707,727,747,767,788,808],"xSR":741.5,"ySR":469.95,"xT1":424.9,"yT1":0,"xT2":1058.1,"yT2":0,"toosoon":0,"cond_shown":"randomdotsizeEA","ratio_trial":250,"smaller_num":"4","larger_num":"16","correct_side":1,"subjID":"ValeriaBautistaRoman","gender":"1","age":"8","school":"4"},{"start_time":1552309607164,"click_time":1552309608326,"finger_time":1552309607666,"fix_duration":416.3361073245241,"trial":45,"RT":502,"MT":660,"sideResp":1,"stimulus":"img/250/equaldotsize/L/5_Ratio_250_L_24_R_6.png","xmouse":[834,834,834,834,834,834,834,834,834,834,834,834,834,834,834,834,834,834,834,834,834,834,834,834,828,788,746,702,648,497,449,405,366,334,296,288,285,283,281,279,279,279,279,279,279,279,279,279,280,283,310,324,341,365,397,412,422,424,425],"ymouse":[515,515,515,515,515,515,515,515,515,515,515,515,515,515,515,515,515,515,515,515,515,515,515,515,502,442,393,353,302,189,153,120,92,65,37,29,25,20,15,5,2,2,2,2,2,2,2,1,1,3,22,31,41,53,65,70,71,71,71],"timestamp_mouse":[3,23,43,64,84,103,123,143,162,183,204,223,243,262,283,302,322,343,362,382,402,423,443,464,483,502,522,542,564,584,602,622,642,662,684,702,724,742,763,784,803,822,843,863,883,903,922,942,962,982,1003,1023,1043,1063,1083,1102,1122,1142,1162],"xSR":741.5,"ySR":469.95,"xT1":424.9,"yT1":0,"xT2":1058.1,"yT2":0,"toosoon":0,"cond_shown":"equaldotsize","ratio_trial":250,"smaller_num":"6","larger_num":"24","correct_side":1,"subjID":"ValeriaBautistaRoman","gender":"1","age":"8","school":"4"},{"start_time":1552309609972,"click_time":1552309610686,"finger_time":1552309610347,"fix_duration":445.35614261275333,"trial":46,"RT":375,"MT":339,"sideResp":1,"stimulus":"img/900/equaldotanddens/L/2_Ratio_900_L_20_R_18.png","xmouse":[804,804,803,802,797,796,795,795,795,795,795,795,795,794,790,783,771,752,705,695,692,689,689,686,673,664,654,635,630,587,571,557,543,518,504,489],"ymouse":[521,521,519,517,512,511,510,509,509,509,509,509,509,508,504,496,485,471,434,425,419,414,409,402,374,360,342,313,303,242,219,199,181,142,118,96],"timestamp_mouse":[14,34,54,74,94,115,135,155,175,195,215,235,254,274,294,314,335,354,375,394,414,435,454,475,494,514,535,555,574,594,615,634,654,675,694,714],"xSR":741.5,"ySR":469.95,"xT1":424.9,"yT1":0,"xT2":1058.1,"yT2":0,"toosoon":0,"cond_shown":"equaldotanddens","ratio_trial":900,"smaller_num":"18","larger_num":"20","correct_side":1,"subjID":"ValeriaBautistaRoman","gender":"1","age":"8","school":"4"},{"start_time":1552309613148,"click_time":1552309614906,"finger_time":1552309614367,"fix_duration":1420.532221935191,"trial":47,"RT":1219,"MT":539,"sideResp":2,"stimulus":"img/250/randomdotsizeEA/R/8_Ratio_250_L_1_R_4.png","xmouse":[789,789,789,789,789,788,788,788,788,788,788,788,788,788,788,788,788,788,788,788,788,788,788,788,788,788,788,788,788,788,788,788,788,788,788,788,788,788,788,788,788,788,788,788,788,788,785,784,781,780,779,779,779,779,779,779,779,779,783,787,823,847,880,914,1019,1085,1127,1154,1171,1181,1181,1182,1184,1187,1194,1200,1200,1200,1200,1200,1200,1200,1200,1200,1200,1200,1172,1153],"ymouse":[504,504,504,506,508,511,511,511,511,511,511,511,511,511,511,511,511,511,511,511,511,511,511,511,511,511,511,511,511,511,511,511,511,511,511,511,511,511,511,511,511,511,511,511,511,509,500,494,486,482,478,478,478,478,477,477,477,477,473,471,452,440,420,401,338,289,246,201,163,99,83,73,61,47,27,2,2,2,2,2,2,2,2,2,2,2,5,24],"timestamp_mouse":[18,38,60,78,99,118,138,160,178,199,219,239,258,278,299,318,338,360,380,398,419,438,458,479,500,520,539,559,578,598,619,638,659,680,699,720,739,758,779,798,818,840,858,878,898,918,939,959,979,999,1019,1040,1060,1078,1099,1120,1139,1158,1179,1199,1219,1239,1259,1278,1299,1318,1338,1359,1380,1400,1418,1438,1458,1479,1498,1518,1538,1559,1580,1599,1619,1639,1658,1678,1698,1718,1739,1758],"xSR":741.5,"ySR":469.95,"xT1":424.9,"yT1":0,"xT2":1058.1,"yT2":0,"toosoon":0,"cond_shown":"randomdotsizeEA","ratio_trial":250,"smaller_num":"1","larger_num":"4","correct_side":2,"subjID":"ValeriaBautistaRoman","gender":"1","age":"8","school":"4"},{"start_time":1552309616295,"click_time":1552309617286,"finger_time":1552309617066,"fix_duration":446.8955301000636,"trial":48,"RT":771,"MT":220,"sideResp":2,"stimulus":"img/250/equaldotsize/R/13_Ratio_250_L_2_R_8.png","xmouse":[778,778,778,778,778,778,778,778,778,778,778,778,778,778,778,778,778,778,778,778,778,778,778,778,778,778,778,778,778,778,778,778,778,778,778,780,793,807,862,919,974,1012,1047,1062,1075,1083,1090,1102,1125,1134],"ymouse":[506,506,506,506,506,506,506,506,506,506,506,506,506,506,506,506,506,506,506,506,506,506,506,506,506,506,506,506,506,506,506,506,506,506,506,505,492,478,436,389,345,312,259,227,204,184,166,142,103,87],"timestamp_mouse":[11,34,52,73,91,111,131,153,172,192,211,231,251,271,293,312,332,352,372,393,411,431,451,472,492,512,532,553,573,591,612,633,651,672,691,711,732,751,771,793,812,832,853,871,891,912,932,952,971,991],"xSR":741.5,"ySR":469.95,"xT1":424.9,"yT1":0,"xT2":1058.1,"yT2":0,"toosoon":0,"cond_shown":"equaldotsize","ratio_trial":250,"smaller_num":"2","larger_num":"8","correct_side":2,"subjID":"ValeriaBautistaRoman","gender":"1","age":"8","school":"4"},{"start_time":1552309618841,"click_time":1552309620527,"finger_time":1552309619866,"fix_duration":432.01696283788107,"trial":49,"RT":1025,"MT":661,"sideResp":2,"stimulus":"img/750/equaldotsize/R/12_Ratio_750_L_3_R_4.png","xmouse":[800,800,800,800,800,800,800,800,800,800,800,800,800,800,800,800,800,800,800,800,800,800,800,800,800,800,800,800,800,800,800,800,800,800,800,800,800,800,800,800,800,800,800,800,800,800,800,800,800,804,811,847,874,908,951,987,998,1010,1022,1034,1047,1051,1051,1052,1052,1052,1057,1057,1057,1057,1057,1057,1057,1057,1057,1057,1057,1057,1057,1057,1057,1057,1057,1058,1059],"ymouse":[546,546,546,546,546,546,546,546,546,546,546,546,546,546,546,546,546,546,546,546,546,546,546,546,546,546,546,546,546,546,546,546,546,546,546,546,546,546,546,546,546,546,546,546,546,546,546,546,546,538,531,485,448,404,334,222,181,142,110,83,43,28,18,12,10,9,7,7,7,7,7,7,7,7,7,7,7,7,7,7,7,7,7,7,7],"timestamp_mouse":[8,26,45,66,85,106,125,146,166,186,206,226,246,267,287,306,326,346,365,386,407,425,445,466,487,507,526,546,566,587,605,626,645,666,685,705,726,746,767,786,806,825,847,866,885,905,926,945,967,985,1005,1025,1046,1066,1085,1107,1125,1146,1166,1185,1206,1225,1246,1266,1287,1305,1325,1345,1365,1386,1407,1427,1446,1466,1485,1506,1527,1546,1565,1586,1606,1625,1645,1665,1686],"xSR":741.5,"ySR":469.95,"xT1":424.9,"yT1":0,"xT2":1058.1,"yT2":0,"toosoon":0,"cond_shown":"equaldotsize","ratio_trial":750,"smaller_num":"3","larger_num":"4","correct_side":2,"subjID":"ValeriaBautistaRoman","gender":"1","age":"8","school":"4"},{"start_time":1552309623109,"click_time":1552309624128,"finger_time":1552309623969,"fix_duration":1360.5159990108705,"trial":50,"RT":860,"MT":159,"sideResp":1,"stimulus":"img/500/randomdotsizeEA/L/11_Ratio_500_L_12_R_6.png","xmouse":[819,819,819,819,819,819,819,817,814,813,813,811,811,810,810,808,808,808,807,806,805,804,804,804,804,804,804,804,803,803,802,801,801,801,801,801,801,801,801,801,801,787,766,740,714,677,638,543,509,487,470],"ymouse":[502,502,502,502,502,502,502,502,503,503,503,504,504,505,505,507,507,507,508,510,511,512,512,512,512,512,512,512,513,513,513,513,513,513,513,513,513,513,513,513,513,480,442,409,377,334,294,189,142,109,80],"timestamp_mouse":[19,39,59,80,100,118,140,159,179,199,220,239,258,280,298,320,339,359,379,399,419,439,459,480,500,520,539,560,579,600,619,640,660,678,700,719,739,760,779,800,819,839,860,879,899,919,938,958,979,1000,1019],"xSR":741.5,"ySR":469.95,"xT1":424.9,"yT1":0,"xT2":1058.1,"yT2":0,"toosoon":0,"cond_shown":"randomdotsizeEA","ratio_trial":500,"smaller_num":"6","larger_num":"12","correct_side":1,"subjID":"ValeriaBautistaRoman","gender":"1","age":"8","school":"4"},{"start_time":1552309626661,"click_time":1552309627549,"finger_time":1552309626988,"fix_duration":1170.716357148045,"trial":51,"RT":327,"MT":561,"sideResp":1,"stimulus":"img/250/equaldotsize/L/14_Ratio_250_L_12_R_3.png","xmouse":[774,774,774,775,775,775,775,775,775,775,775,775,775,775,773,767,752,739,721,681,655,644,634,626,608,599,589,579,570,564,557,553,549,545,543,540,539,539,539,539,538,538,538,535,492],"ymouse":[517,517,517,514,510,507,504,503,501,499,499,498,498,496,485,472,451,428,399,337,303,287,272,255,213,195,172,148,127,114,93,84,77,72,69,65,65,65,65,65,65,65,65,64,55],"timestamp_mouse":[8,35,47,67,87,106,127,147,167,188,208,227,247,266,287,306,327,348,367,388,407,427,447,467,488,506,527,547,567,587,606,628,647,668,687,708,726,747,766,788,807,827,847,866,888],"xSR":741.5,"ySR":469.95,"xT1":424.9,"yT1":0,"xT2":1058.1,"yT2":0,"toosoon":0,"cond_shown":"equaldotsize","ratio_trial":250,"smaller_num":"3","larger_num":"12","correct_side":1,"subjID":"ValeriaBautistaRoman","gender":"1","age":"8","school":"4"},{"start_time":1552309630102,"click_time":1552309631528,"finger_time":1552309631048,"fix_duration":1151.995167652114,"trial":52,"RT":946,"MT":480,"sideResp":2,"stimulus":"img/500/equaldotsize/R/14_Ratio_500_L_5_R_10.png","xmouse":[795,795,795,795,795,795,795,795,795,795,795,795,795,795,795,795,795,795,795,795,795,795,795,795,795,795,795,795,795,795,795,795,795,795,795,795,795,795,795,795,795,795,795,795,798,801,803,809,817,829,840,864,920,1010,1026,1045,1060,1071,1075,1079,1084,1088,1097,1106,1110,1114,1116,1120,1122,1123,1124,1125],"ymouse":[511,511,511,511,511,511,511,511,511,511,511,511,511,511,511,511,511,511,511,511,511,511,511,511,511,511,511,511,511,511,511,511,511,511,511,511,511,511,511,511,511,511,511,511,499,488,473,428,401,377,356,336,315,266,247,230,217,205,196,189,181,173,159,145,139,133,127,115,111,106,102,98],"timestamp_mouse":[8,33,46,66,86,107,125,146,167,187,205,226,245,267,287,306,326,347,367,386,407,427,447,466,485,507,527,547,566,586,607,627,647,667,686,707,726,747,766,786,807,826,847,865,886,906,926,946,965,986,1006,1027,1046,1065,1086,1106,1127,1147,1165,1186,1207,1227,1246,1265,1286,1305,1326,1347,1366,1386,1407,1426],"xSR":741.5,"ySR":469.95,"xT1":424.9,"yT1":0,"xT2":1058.1,"yT2":0,"toosoon":0,"cond_shown":"equaldotsize","ratio_trial":500,"smaller_num":"5","larger_num":"10","correct_side":2,"subjID":"ValeriaBautistaRoman","gender":"1","age":"8","school":"4"},{"start_time":1552309632770,"click_time":1552309633687,"finger_time":1552309633569,"fix_duration":320.5132860898513,"trial":53,"RT":799,"MT":118,"sideResp":1,"stimulus":"img/500/equaldotsize/L/7_Ratio_500_L_10_R_5.png","xmouse":[793,793,793,793,793,793,793,793,793,793,793,793,793,793,793,793,793,793,793,793,793,793,793,793,793,793,793,793,793,793,793,793,793,793,793,793,793,793,793,785,775,744,699,643,518,452],"ymouse":[500,500,500,500,500,500,500,500,500,500,500,500,500,500,500,500,500,500,500,500,500,500,500,500,500,500,500,500,500,500,500,500,500,500,500,500,500,500,499,469,444,386,320,251,126,79],"timestamp_mouse":[29,38,58,78,99,119,139,159,177,199,219,237,259,278,297,319,339,358,378,397,418,439,459,478,499,517,538,559,578,599,619,637,658,679,697,717,739,758,778,799,818,838,858,879,898,917],"xSR":741.5,"ySR":469.95,"xT1":424.9,"yT1":0,"xT2":1058.1,"yT2":0,"toosoon":0,"cond_shown":"equaldotsize","ratio_trial":500,"smaller_num":"5","larger_num":"10","correct_side":1,"subjID":"ValeriaBautistaRoman","gender":"1","age":"8","school":"4"},{"start_time":1552309636378,"click_time":1552309637588,"finger_time":1552309637249,"fix_duration":1168.5760989413807,"trial":54,"RT":871,"MT":339,"sideResp":2,"stimulus":"img/750/equaldotanddens/R/2_Ratio_750_L_6_R_8.png","xmouse":[811,811,811,811,811,811,811,811,811,811,811,811,811,811,811,811,811,811,811,811,811,811,811,811,811,811,811,811,811,811,811,811,811,811,811,811,811,811,811,811,811,816,830,863,899,930,943,963,979,1001,1013,1025,1037,1064,1069,1087,1101,1116,1130,1133,1137],"ymouse":[496,496,496,496,496,496,496,496,496,496,496,496,496,496,496,496,496,496,496,496,496,496,496,496,496,496,496,496,496,496,496,496,496,496,496,496,496,496,496,496,496,494,479,450,414,385,370,346,322,277,252,228,201,171,166,155,145,130,109,102,96],"timestamp_mouse":[12,33,49,70,91,109,131,151,169,191,210,230,249,271,290,310,330,351,369,389,410,430,450,470,491,510,530,551,570,590,610,630,651,669,690,709,730,751,771,789,809,831,850,871,890,909,930,950,970,990,1009,1030,1050,1071,1090,1110,1131,1150,1171,1189,1209],"xSR":741.5,"ySR":469.95,"xT1":424.9,"yT1":0,"xT2":1058.1,"yT2":0,"toosoon":0,"cond_shown":"equaldotanddens","ratio_trial":750,"smaller_num":"6","larger_num":"8","correct_side":2,"subjID":"ValeriaBautistaRoman","gender":"1","age":"8","school":"4"},{"start_time":1552309639989,"click_time":1552309640868,"finger_time":1552309640448,"fix_duration":1057.3279152291623,"trial":55,"RT":459,"MT":420,"sideResp":2,"stimulus":"img/500/equaldotanddens/R/9_Ratio_500_L_2_R_4.png","xmouse":[794,794,782,779,777,777,777,776,776,776,775,775,774,770,766,765,763,762,762,759,758,757,751,738,732,726,726,726,725,722,721,721,721,721,733,745,768,795,843,868,917,963,1014,1054,1089],"ymouse":[517,517,516,516,516,516,516,515,515,515,515,515,514,511,508,508,507,506,505,504,504,504,502,498,495,492,492,492,491,486,484,482,481,480,472,466,458,449,421,401,357,299,220,163,97],"timestamp_mouse":[1,19,39,59,79,100,120,140,160,179,199,220,239,259,279,298,319,339,359,380,399,420,439,459,478,499,519,540,559,580,599,620,638,658,679,699,719,738,761,779,798,819,839,858,879],"xSR":741.5,"ySR":469.95,"xT1":424.9,"yT1":0,"xT2":1058.1,"yT2":0,"toosoon":0,"cond_shown":"equaldotanddens","ratio_trial":500,"smaller_num":"2","larger_num":"4","correct_side":2,"subjID":"ValeriaBautistaRoman","gender":"1","age":"8","school":"4"},{"start_time":1552309642341,"click_time":1552309643649,"finger_time":1552309642988,"fix_duration":250,"trial":56,"RT":647,"MT":661,"sideResp":1,"stimulus":"img/900/equaldotanddens/L/8_Ratio_900_L_20_R_18.png","xmouse":[797,797,797,797,797,797,797,797,797,797,797,797,797,797,797,797,797,797,797,797,797,797,797,797,797,797,797,797,797,797,793,784,774,758,743,704,683,666,652,640,610,599,583,571,557,553,545,543,541,536,516,510,504,501,500,500,500,500,500,500,500,498,497,497,497,496],"ymouse":[521,521,521,521,521,521,521,521,521,521,521,521,521,521,521,521,521,521,521,521,521,521,521,521,521,521,521,521,521,518,505,480,456,430,410,374,360,348,337,327,307,299,288,279,269,263,245,241,230,216,182,171,163,159,155,149,146,143,140,135,133,124,119,111,102,70],"timestamp_mouse":[10,38,47,68,88,106,128,147,166,188,208,227,248,267,288,307,327,348,367,387,407,427,446,466,487,507,527,546,567,587,607,627,647,667,687,708,727,747,767,787,808,826,846,867,887,907,927,946,967,987,1008,1026,1047,1068,1087,1108,1127,1147,1166,1187,1207,1227,1247,1268,1287,1308],"xSR":741.5,"ySR":469.95,"xT1":424.9,"yT1":0,"xT2":1058.1,"yT2":0,"toosoon":0,"cond_shown":"equaldotanddens","ratio_trial":900,"smaller_num":"18","larger_num":"20","correct_side":1,"subjID":"ValeriaBautistaRoman","gender":"1","age":"8","school":"4"},{"start_time":1552309644797,"click_time":1552309646487,"finger_time":1552309645748,"fix_duration":367.6084688553848,"trial":57,"RT":951,"MT":739,"sideResp":2,"stimulus":"img/900/equaldotanddens/R/14_Ratio_900_L_18_R_20.png","xmouse":[833,833,833,833,833,833,833,833,833,833,833,832,832,832,830,826,820,819,819,819,819,818,818,818,818,818,816,815,812,812,812,812,811,811,811,810,810,810,810,810,810,810,810,810,810,810,816,829,837,847,859,870,892,897,905,920,936,951,991,1006,1018,1028,1038,1039,1039,1039,1039,1039,1031,1026,1023,1022,1022,1041,1053,1057,1062,1067,1074,1086,1093,1098,1108,1110,1110],"ymouse":[529,529,529,529,529,529,529,529,529,529,529,530,530,530,530,530,530,530,530,530,530,530,530,530,530,530,530,530,530,530,530,530,530,529,529,527,527,526,526,526,526,526,525,525,523,519,508,468,454,442,432,423,401,394,384,371,359,348,313,300,288,276,264,261,258,254,250,245,214,197,188,178,168,148,144,142,141,138,135,132,128,124,108,100,93],"timestamp_mouse":[10,36,50,72,92,111,130,150,172,192,212,232,251,271,291,311,332,350,372,392,410,430,451,472,492,511,532,551,571,591,612,630,652,672,691,712,730,750,770,792,810,830,851,871,891,912,931,951,970,990,1010,1031,1052,1071,1091,1110,1131,1151,1172,1191,1212,1231,1251,1271,1290,1311,1330,1351,1371,1391,1411,1430,1451,1470,1491,1511,1532,1551,1570,1591,1612,1632,1651,1670,1690],"xSR":741.5,"ySR":469.95,"xT1":424.9,"yT1":0,"xT2":1058.1,"yT2":0,"toosoon":0,"cond_shown":"equaldotanddens","ratio_trial":900,"smaller_num":"18","larger_num":"20","correct_side":2,"subjID":"ValeriaBautistaRoman","gender":"1","age":"8","school":"4"},{"start_time":1552309648491,"click_time":1552309649727,"finger_time":1552309649347,"fix_duration":720.9772919302962,"trial":58,"RT":856,"MT":380,"sideResp":1,"stimulus":"img/250/randomdotsizeEA/L/15_Ratio_250_L_12_R_3.png","xmouse":[768,768,768,768,768,768,768,768,768,768,768,768,768,768,768,768,768,768,768,768,768,768,768,768,768,768,768,768,768,768,768,768,768,768,768,768,768,767,765,764,764,763,758,748,739,728,713,699,655,636,613,585,559,553,551,550,546,541,535,531,529,523],"ymouse":[509,509,509,509,509,509,509,509,509,509,509,509,509,509,509,509,509,509,509,509,509,509,509,509,509,509,509,509,509,509,509,509,509,509,509,498,490,487,483,482,480,473,458,428,407,386,360,339,277,256,228,197,162,147,142,136,127,115,101,93,88,78],"timestamp_mouse":[18,37,58,77,97,117,137,157,178,198,217,238,257,277,297,318,337,358,378,396,417,438,457,476,498,517,536,558,577,597,618,638,656,677,698,717,738,757,778,797,817,836,856,878,897,918,937,957,976,997,1017,1037,1058,1077,1096,1116,1136,1156,1177,1197,1217,1236],"xSR":741.5,"ySR":469.95,"xT1":424.9,"yT1":0,"xT2":1058.1,"yT2":0,"toosoon":0,"cond_shown":"randomdotsizeEA","ratio_trial":250,"smaller_num":"3","larger_num":"12","correct_side":1,"subjID":"ValeriaBautistaRoman","gender":"1","age":"8","school":"4"},{"start_time":1552309652897,"click_time":1552309654008,"finger_time":1552309653047,"fix_duration":907.6965223331422,"trial":59,"RT":150,"MT":961,"sideResp":2,"stimulus":"img/500/equaldotanddens/R/1_Ratio_500_L_9_R_18.png","xmouse":[794,794,794,794,794,788,786,785,783,783,783,783,783,783,783,783,783,783,783,783,781,781,781,781,781,781,781,781,781,781,779,778,777,776,776,776,776,776,776,776,776,777,782,784,788,795,809,853,895,942,991,1023,1073,1098,1115,1131],"ymouse":[557,557,557,557,557,566,569,572,574,575,575,575,583,589,596,606,614,627,632,635,638,639,640,640,640,640,640,640,640,638,630,617,608,593,588,586,585,585,583,580,577,572,558,550,541,528,510,455,413,366,314,274,196,140,114,87],"timestamp_mouse":[11,34,52,72,91,111,131,150,170,191,211,231,252,270,291,311,331,351,371,391,411,432,452,472,491,512,532,551,571,590,612,631,652,672,691,711,731,751,770,791,811,832,851,872,890,911,932,951,970,991,1010,1032,1052,1071,1091,1110],"xSR":741.5,"ySR":469.95,"xT1":424.9,"yT1":0,"xT2":1058.1,"yT2":0,"toosoon":0,"cond_shown":"equaldotanddens","ratio_trial":500,"smaller_num":"9","larger_num":"18","correct_side":2,"subjID":"ValeriaBautistaRoman","gender":"1","age":"8","school":"4"},{"start_time":1552309656813,"click_time":1552309657849,"finger_time":1552309657468,"fix_duration":1344.0919550068515,"trial":60,"RT":655,"MT":381,"sideResp":1,"stimulus":"img/750/equaldotsize/R/5_Ratio_750_L_15_R_20.png","xmouse":[789,789,789,789,789,789,789,789,789,789,789,789,789,789,789,789,789,789,789,789,789,789,789,789,789,789,789,789,787,784,783,778,740,717,700,685,656,590,548,506,476,461,460,459,459,459,460,463,472,480,488,503],"ymouse":[499,499,499,499,499,499,499,499,499,499,499,499,499,499,499,499,499,499,499,499,499,499,499,499,499,499,499,499,499,499,499,493,436,406,385,364,331,274,243,220,208,196,191,188,185,182,168,162,139,120,111,87],"timestamp_mouse":[15,48,55,76,94,116,134,156,176,194,214,235,256,275,294,315,335,356,374,396,415,435,455,476,495,515,535,556,575,594,616,635,655,675,695,715,734,754,775,794,815,836,855,875,895,915,936,954,975,995,1015,1035],"xSR":741.5,"ySR":469.95,"xT1":424.9,"yT1":0,"xT2":1058.1,"yT2":0,"toosoon":0,"cond_shown":"equaldotsize","ratio_trial":750,"smaller_num":"15","larger_num":"20","correct_side":2,"subjID":"ValeriaBautistaRoman","gender":"1","age":"8","school":"4"},{"start_time":1552309660286,"click_time":1552309661769,"finger_time":1552309661168,"fix_duration":1115.6993074510144,"trial":61,"RT":882,"MT":601,"sideResp":1,"stimulus":"img/900/randomdotsizeEA/R/13_Ratio_900_L_18_R_20.png","xmouse":[802,802,802,802,802,802,802,802,802,802,802,802,802,802,802,802,802,802,800,800,800,800,799,799,799,799,799,799,799,799,799,799,799,799,799,799,799,799,799,795,785,780,768,757,714,689,662,635,596,527,495,465,445,418,414,411,407,404,404,404,404,404,404,404,404,404,404,404,404,404,404,404,404,404,448],"ymouse":[531,531,531,531,531,531,531,531,531,531,531,531,531,531,531,531,531,531,531,531,531,531,532,532,532,532,532,532,532,532,532,532,532,532,532,532,532,532,532,530,523,519,510,501,457,435,412,382,354,282,243,199,169,101,77,51,29,4,4,4,4,4,4,4,4,4,4,4,4,4,4,4,4,4,13],"timestamp_mouse":[12,22,42,62,81,102,123,141,163,182,203,221,241,263,283,301,321,341,363,382,403,422,443,463,482,501,521,543,562,583,601,623,641,663,683,701,722,743,762,782,802,822,843,862,882,902,921,941,961,981,1002,1022,1043,1063,1081,1102,1122,1141,1162,1181,1202,1221,1243,1262,1282,1301,1321,1341,1362,1381,1403,1422,1443,1462,1483],"xSR":741.5,"ySR":469.95,"xT1":424.9,"yT1":0,"xT2":1058.1,"yT2":0,"toosoon":0,"cond_shown":"randomdotsizeEA","ratio_trial":900,"smaller_num":"18","larger_num":"20","correct_side":2,"subjID":"ValeriaBautistaRoman","gender":"1","age":"8","school":"4"},{"start_time":1552309663529,"click_time":1552309664728,"finger_time":1552309664208,"fix_duration":659.2971986635991,"trial":62,"RT":679,"MT":520,"sideResp":1,"stimulus":"img/750/equaldotanddens/L/9_Ratio_750_L_4_R_3.png","xmouse":[798,798,798,798,797,796,795,795,795,795,795,795,795,795,795,795,795,795,795,795,795,795,795,795,795,794,794,796,799,800,802,810,811,812,812,811,804,796,787,776,762,720,699,679,658,630,582,567,559,550,545,541,526,522,517,514,510,510,507,502,491],"ymouse":[514,514,514,514,514,514,514,514,514,514,514,514,514,514,514,514,514,514,514,514,514,514,514,514,514,514,512,507,503,499,495,480,477,473,467,463,452,445,439,432,423,397,382,368,352,327,282,264,246,230,215,200,165,158,147,139,127,123,113,101,82],"timestamp_mouse":[1,20,40,59,78,98,120,140,158,180,200,220,239,259,279,299,320,339,360,378,399,419,438,458,480,500,520,539,559,579,600,619,639,659,679,699,720,739,759,779,798,820,839,859,879,899,919,939,959,979,999,1018,1039,1059,1080,1099,1120,1138,1159,1178,1199],"xSR":741.5,"ySR":469.95,"xT1":424.9,"yT1":0,"xT2":1058.1,"yT2":0,"toosoon":0,"cond_shown":"equaldotanddens","ratio_trial":750,"smaller_num":"3","larger_num":"4","correct_side":1,"subjID":"ValeriaBautistaRoman","gender":"1","age":"8","school":"4"},{"start_time":1552309668238,"click_time":1552309669808,"finger_time":1552309669169,"fix_duration":1210.1077468394255,"trial":63,"RT":931,"MT":639,"sideResp":2,"stimulus":"img/750/equaldotsize/R/11_Ratio_750_L_12_R_16.png","xmouse":[795,795,795,795,795,795,795,795,796,796,796,796,796,796,796,796,796,796,796,796,796,796,796,796,796,796,796,796,795,795,795,795,795,795,795,794,794,794,794,794,794,795,795,796,798,803,828,839,851,858,878,889,903,919,930,952,967,973,978,982,984,984,984,985,986,986,989,992,995,1000,1014,1024,1033,1038,1044,1060,1065,1070,1075],"ymouse":[516,516,516,516,516,516,519,521,523,525,526,527,527,527,528,528,528,528,528,528,528,528,528,528,528,528,528,528,528,528,528,528,528,528,528,528,528,528,528,527,525,523,521,513,504,488,443,424,408,394,357,340,321,302,290,262,234,221,205,189,170,166,163,162,160,159,153,150,144,140,128,124,121,117,113,108,103,100,95],"timestamp_mouse":[10,34,51,70,90,109,129,150,171,190,209,229,251,270,290,311,330,349,371,390,409,429,450,471,489,511,531,550,570,591,610,630,650,671,689,710,731,751,769,790,810,829,850,869,890,911,931,950,970,990,1010,1029,1049,1071,1090,1111,1130,1149,1170,1189,1210,1230,1249,1271,1290,1310,1329,1350,1371,1390,1411,1430,1450,1470,1491,1510,1530,1549,1570],"xSR":741.5,"ySR":469.95,"xT1":424.9,"yT1":0,"xT2":1058.1,"yT2":0,"toosoon":0,"cond_shown":"equaldotsize","ratio_trial":750,"smaller_num":"12","larger_num":"16","correct_side":2,"subjID":"ValeriaBautistaRoman","gender":"1","age":"8","school":"4"},{"start_time":1552309673467,"click_time":1552309674708,"finger_time":1552309674227,"fix_duration":1017.8475155799212,"trial":64,"RT":760,"MT":481,"sideResp":2,"stimulus":"img/250/equaldotsize/R/12_Ratio_250_L_5_R_20.png","xmouse":[828,828,828,828,828,828,828,828,828,828,828,828,828,828,827,827,827,827,827,827,824,822,822,822,821,821,821,821,821,821,821,821,821,821,821,825,829,834,838,844,850,853,856,860,868,922,965,1004,1041,1041,1041,1041,1041,1041,1041,1041,1041,1041,1041,1041,1041,1041,1083],"ymouse":[544,544,544,544,544,544,544,544,544,544,544,544,544,544,544,545,545,546,546,547,547,547,547,547,543,542,542,542,542,542,542,542,542,538,536,510,496,481,468,450,412,399,378,364,343,224,146,84,12,12,12,12,12,12,12,12,12,12,12,12,12,12,4],"timestamp_mouse":[8,22,42,62,81,102,121,142,160,181,201,222,240,260,281,300,321,340,362,381,401,422,442,460,481,502,522,540,560,582,602,622,641,662,680,700,721,741,760,780,801,821,841,861,881,901,921,941,961,980,1000,1021,1042,1062,1082,1102,1122,1141,1161,1181,1201,1222,1240],"xSR":741.5,"ySR":469.95,"xT1":424.9,"yT1":0,"xT2":1058.1,"yT2":0,"toosoon":0,"cond_shown":"equaldotsize","ratio_trial":250,"smaller_num":"5","larger_num":"20","correct_side":2,"subjID":"ValeriaBautistaRoman","gender":"1","age":"8","school":"4"},{"start_time":1552309676944,"click_time":1552309678289,"finger_time":1552309677709,"fix_duration":1253.324347924155,"trial":65,"RT":765,"MT":580,"sideResp":1,"stimulus":"img/750/equaldotsize/R/12_Ratio_750_L_3_R_4.png","xmouse":[768,769,769,769,769,769,769,769,769,769,769,769,769,769,769,769,769,769,769,769,769,769,769,769,769,769,769,769,769,769,769,769,769,769,769,769,767,757,740,716,680,584,570,564,562,561,561,559,559,559,554,550,547,544,538,528,518,517,516,512,502,500,498,496,496,492,490,489],"ymouse":[507,508,508,508,508,508,508,508,508,508,508,508,508,508,508,508,508,508,508,508,508,508,508,508,508,508,508,508,508,508,508,508,508,508,508,508,503,490,476,458,427,338,315,302,296,292,287,281,275,267,232,217,208,197,182,164,152,150,146,141,127,122,120,117,115,106,101,97],"timestamp_mouse":[10,33,48,65,85,104,124,144,165,185,204,223,245,264,285,304,324,343,364,383,405,425,445,464,483,505,525,543,564,584,604,624,643,665,684,703,723,745,765,784,804,825,843,863,883,903,924,943,963,984,1005,1023,1044,1064,1083,1105,1123,1144,1163,1185,1205,1224,1244,1264,1285,1305,1323,1345],"xSR":741.5,"ySR":469.95,"xT1":424.9,"yT1":0,"xT2":1058.1,"yT2":0,"toosoon":0,"cond_shown":"equaldotsize","ratio_trial":750,"smaller_num":"3","larger_num":"4","correct_side":2,"subjID":"ValeriaBautistaRoman","gender":"1","age":"8","school":"4"},{"start_time":1552309679800,"click_time":1552309681127,"finger_time":1552309680467,"fix_duration":250,"trial":66,"RT":667,"MT":660,"sideResp":1,"stimulus":"img/900/equaldotanddens/R/7_Ratio_900_L_9_R_10.png","xmouse":[789,789,789,789,789,788,786,785,782,781,781,781,781,781,781,781,781,781,781,781,781,781,781,781,781,781,781,781,781,781,781,781,780,772,757,732,696,594,567,551,543,536,532,530,529,528,527,527,527,527,527,527,527,527,527,527,527,527,527,527,527,527,527,527,527,527,520],"ymouse":[473,