[{"start_time":1552069016911,"click_time":1552069021140,"finger_time":1552069016979,"fix_duration":868.9984914914195,"trial":0,"RT":68,"MT":4161,"sideResp":2,"stimulus":[],"xmouse":[786,787,787,790,790,790,790,790,790,790,790,790,790,790,790,790,790,790,790,790,790,790,788,774,769,767,767,767,767,767,767,767,767,767,767,767,767,767,767,767,767,769,771,778,780,781,781,781,783,783,786,786,786,788,789,789,791,791,792,792,792,792,792,793,793,793,793,793,793,793,793,794,795,795,796,796,796,796,796,796,795,795,794,793,792,792,791,791,789,787,787,787,787,787,787,787,787,787,787,787,787,787,787,787,787,787,787,787,787,787,787,787,787,787,787,787,787,787,787,787,787,787,787,787,787,787,787,787,787,787,787,787,787,787,787,787,787,787,787,787,787,787,787,787,787,787,787,787,787,787,787,787,787,787,787,787,787,787,787,787,787,787,787,787,787,787,787,787,787,787,787,787,787,788,791,794,795,797,799,800,802,802,803,803,803,803,803,803,803,804,812,827,848,905,949,1036,1096,1149,1228,1268,1300,1313,1319,1321,1319,1316,1309,1291,1223,1193,1172,1155],"ymouse":[580,577,577,568,565,562,562,561,561,561,561,561,561,561,561,561,561,561,561,561,561,561,561,561,561,561,561,561,561,561,561,561,561,561,561,561,561,561,561,561,561,561,561,563,564,565,565,565,566,567,569,569,569,571,571,572,572,573,574,575,576,577,578,578,578,578,579,579,581,582,583,585,585,587,589,592,595,598,601,602,603,604,605,606,607,607,608,609,610,610,610,610,610,610,610,610,610,610,610,610,610,610,610,611,611,611,611,611,611,611,611,611,611,611,611,611,611,611,611,611,611,611,611,611,611,611,611,611,611,611,611,611,611,611,611,611,611,611,611,611,611,611,611,611,611,611,611,611,611,611,611,611,611,611,611,611,611,611,611,611,611,611,611,611,611,611,611,611,611,611,611,611,611,609,605,601,599,594,576,567,560,559,559,559,559,559,559,559,559,556,552,543,530,485,453,392,351,321,251,194,131,85,46,5,0,0,0,0,21,35,47,59],"timestamp_mouse":[8,39,47,68,88,107,127,147,167,187,207,228,247,269,287,307,327,347,368,387,408,427,448,467,488,507,528,547,567,588,608,627,647,668,687,707,728,748,768,787,808,827,848,867,887,908,928,948,967,987,1007,1027,1048,1067,1088,1108,1127,1147,1167,1188,1207,1227,1247,1267,1288,1308,1327,1348,1367,1388,1407,1428,1448,1467,1488,1507,1528,1547,1567,1587,1608,1628,1648,1668,1687,1708,1727,1747,1767,1788,1808,1828,1847,1868,1887,1908,1927,1947,1967,1987,2008,2028,2048,2068,2087,2108,2127,2148,2168,2187,2208,2228,2247,2267,2287,2308,2327,2347,2367,2387,2408,2427,2448,2467,2488,2507,2527,2548,2568,2587,2607,2628,2647,2668,2687,2707,2727,2747,2767,2788,2808,2827,2848,2868,2887,2908,2927,2948,2968,2987,3007,3028,3048,3067,3087,3107,3128,3148,3167,3188,3208,3228,3247,3268,3288,3307,3327,3348,3367,3386,3407,3428,3448,3467,3488,3507,3528,3547,3567,3588,3607,3628,3647,3667,3687,3707,3728,3747,3767,3787,3808,3828,3847,3868,3886,3907,3927,3947,3967,3987,4008,4028,4048,4067,4088,4107,4127,4148,4169,4187,4207,4228],"xSR":741.5,"ySR":500.5,"xT1":424.9,"yT1":0,"xT2":1058.1,"yT2":0,"toosoon":0,"cond_shown":"Incongruent","ratio_trial":300,"L_num":13,"L_den":26,"R_num":12,"R_den":15,"correct_side":2,"subjID":"Valeriabejarano33","gender":"1","age":"9","school":"4","test":{"fix_dur":[250,1500],"timestim":1000,"targets_dim":[100,100],"targets_relative_coord":[0.3,0.7],"size_stim":[880,420],"start_dim":[100,100],"size_start":[300,300],"size_fix":60,"samplingrate":20,"img_types":["Congruent","Incongruent"],"ratios":[100,200,300],"rep_conds":19,"nTrials":120,"trials_to_rest":500,"Trials_order":[17,79,12,110,103,83,3,85,32,39,46,40,34,81,51,68,29,63,0,101,115,22,90,38,94,10,55,14,25,65,72,47,62,82,23,106,109,74,77,104,7,116,105,19,56,5,107,37,111,114,71,70,33,50,64,93,78,112,57,26,61,100,18,117,24,36,45,1,88,80,66,92,95,98,4,108,48,8,73,67,102,113,59,42,86,27,69,76,99,96,53,20,30,44,84,54,6,21,2,87,31,60,11,16,28,41,9,43,91,97,75,58,89,13,118,49,35,15,119,52],"cond_shown":["Incongruent","Incongruent","Congruent","Congruent","Incongruent","Incongruent","Incongruent","Incongruent","Congruent","Incongruent","Congruent","Congruent","Congruent","Incongruent","Incongruent","Congruent","Incongruent","Incongruent","Congruent","Incongruent","Incongruent","Congruent","Congruent","Congruent","Congruent","Congruent","Incongruent","Congruent","Incongruent","Incongruent","Congruent","Incongruent","Congruent","Congruent","Incongruent","Congruent","Incongruent","Congruent","Incongruent","Congruent","Incongruent","Congruent","Incongruent","Incongruent","Congruent","Incongruent","Incongruent","Incongruent","Incongruent","Congruent","Incongruent","Congruent","Incongruent","Congruent","Congruent","Incongruent","Congruent","Congruent","Incongruent","Congruent","Incongruent","Congruent","Congruent","Incongruent","Congruent","Congruent","Incongruent","Incongruent","Congruent","Congruent","Congruent","Congruent","Incongruent","Congruent","Congruent","Congruent","Congruent","Congruent","Incongruent","Incongruent","Congruent","Incongruent","Incongruent","Congruent","Congruent","Incongruent","Incongruent","Congruent","Incongruent","Congruent","Incongruent","Congruent","Congruent","Congruent","Congruent","Congruent","Congruent","Incongruent","Congruent","Incongruent","Incongruent","Congruent","Incongruent","Congruent","Congruent","Incongruent","Incongruent","Incongruent","Incongruent","Incongruent","Incongruent","Congruent","Incongruent","Incongruent","Congruent","Incongruent","Incongruent","Incongruent","Incongruent","Congruent"],"ratio_trial":[300,100,100,200,100,300,200,100,200,200,300,300,300,200,200,200,300,200,100,300,100,300,100,200,300,300,100,200,100,300,100,300,200,300,300,300,100,200,300,200,100,200,200,100,200,300,300,100,200,100,300,300,200,200,300,200,100,300,200,200,100,300,100,200,100,100,200,100,300,200,100,200,300,200,300,100,100,200,100,100,100,300,300,100,200,200,200,300,200,100,300,200,100,200,100,100,100,200,200,200,100,100,300,300,300,300,200,100,100,100,200,300,300,100,300,100,300,200,300,300],"left_num":[13,9,7,9,3,13,7,3,16,4,5,8,1,7,14,3,1,3,4,13,17,3,3,9,2,1,11,3,13,13,2,8,11,3,1,20,9,8,13,4,3,5,1,10,1,1,13,13,7,8,1,5,4,4,24,1,6,20,3,9,8,20,11,1,12,11,3,6,5,20,10,6,4,3,12,9,8,4,3,1,4,4,13,11,3,6,6,7,3,2,7,6,6,3,8,7,7,1,16,6,1,11,2,1,12,13,3,6,2,3,14,7,8,10,7,6,13,14,4,3],"right_num":[12,14,15,13,4,12,12,7,9,1,7,1,7,14,12,9,3,1,15,12,10,4,2,4,12,11,9,7,12,12,6,14,3,11,2,14,14,3,12,3,7,14,2,8,21,3,12,12,12,2,3,6,6,3,2,3,15,9,11,13,1,13,4,3,13,6,11,11,7,9,3,11,2,11,2,8,2,3,8,8,15,2,12,6,14,3,3,20,1,11,8,3,5,14,2,15,15,2,12,3,8,6,6,19,2,12,11,13,8,7,6,20,9,9,20,3,12,12,8,4],"left_den":[26,15,14,30,6,26,10,9,30,30,25,16,20,10,30,12,2,10,10,26,30,6,6,20,10,5,22,10,26,26,5,10,22,12,2,25,15,15,26,8,9,10,3,25,2,2,26,26,10,16,2,25,5,10,30,2,12,25,4,30,20,25,22,2,30,22,4,10,25,25,25,20,20,10,24,15,16,8,5,2,10,20,26,22,10,20,20,14,10,5,10,15,20,6,16,14,14,3,20,20,2,22,4,3,24,26,4,10,4,9,30,14,10,25,14,12,26,30,5,6],"right_den":[15,28,25,26,10,15,24,30,27,3,14,5,20,28,18,20,15,2,30,15,15,5,5,16,24,22,15,14,20,15,12,28,10,20,10,28,28,9,15,10,30,20,15,16,30,15,15,20,24,5,15,12,10,15,4,10,25,18,20,26,2,26,10,10,26,15,20,22,14,15,10,22,4,22,10,16,5,10,16,20,30,4,15,15,28,6,6,25,2,22,20,15,25,20,5,25,25,15,20,6,20,15,30,30,10,15,20,26,20,30,9,25,18,18,25,5,15,18,16,5],"correct_side":[2,1,2,2,1,2,1,1,1,2,2,1,2,1,2,2,1,2,2,2,2,2,1,1,2,2,2,2,2,2,2,1,1,2,1,1,1,1,2,1,1,2,1,2,2,1,2,2,1,1,1,2,1,1,1,1,2,1,1,2,2,1,1,1,2,1,1,1,2,1,1,2,2,2,1,1,1,1,1,1,2,2,2,1,2,2,2,2,2,2,1,1,1,2,1,2,2,1,1,2,1,1,1,2,1,2,1,1,1,1,2,2,1,2,2,2,2,2,1,2],"img_shown":["img2/300/Incongruent/R/I_Dist_300_LN_13_LD_26_RN_12_RD_15_1.png","img2/100/Incongruent/L/I_Dist_100_LN_9_LD_15_RN_14_RD_28_0.png","img2/100/Congruent/R/C_Dist_100_LN_7_LD_14_RN_15_RD_25_1.png","img2/200/Congruent/R/C_Dist_200_LN_9_LD_30_RN_13_RD_26_1.png","img2/100/Incongruent/L/I_Dist_100_LN_3_LD_6_RN_4_RD_10_0.png","img2/300/Incongruent/R/I_Dist_300_LN_13_LD_26_RN_12_RD_15_1.png","img2/200/Incongruent/L/I_Dist_200_LN_7_LD_10_RN_12_RD_24_0.png","img2/100/Incongruent/L/I_Dist_100_LN_3_LD_9_RN_7_RD_30_0.png","img2/200/Congruent/L/C_Dist_200_LN_16_LD_30_RN_9_RD_27_0.png","img2/200/Incongruent/R/I_Dist_200_LN_4_LD_30_RN_1_RD_3_1.png","img2/300/Congruent/R/C_Dist_300_LN_5_LD_25_RN_7_RD_14_1.png","img2/300/Congruent/L/C_Dist_300_LN_8_LD_16_RN_1_RD_5_0.png","img2/300/Congruent/R/C_Dist_300_LN_1_LD_20_RN_7_RD_20_1.png","img2/200/Incongruent/L/I_Dist_200_LN_7_LD_10_RN_14_RD_28_0.png","img2/200/Incongruent/R/I_Dist_200_LN_14_LD_30_RN_12_RD_18_1.png","img2/200/Congruent/R/C_Dist_200_LN_3_LD_12_RN_9_RD_20_1.png","img2/300/Incongruent/L/I_Dist_300_LN_1_LD_2_RN_3_RD_15_0.png","img2/200/Incongruent/R/I_Dist_200_LN_3_LD_10_RN_1_RD_2_1.png","img2/100/Congruent/R/C_Dist_100_LN_4_LD_10_RN_15_RD_30_1.png","img2/300/Incongruent/R/I_Dist_300_LN_13_LD_26_RN_12_RD_15_1.png","img2/100/Incongruent/R/I_Dist_100_LN_17_LD_30_RN_10_RD_15_1.png","img2/300/Congruent/R/C_Dist_300_LN_3_LD_6_RN_4_RD_5_1.png","img2/100/Congruent/L/C_Dist_100_LN_3_LD_6_RN_2_RD_5_0.png","img2/200/Congruent/L/C_Dist_200_LN_9_LD_20_RN_4_RD_16_0.png","img2/300/Congruent/R/C_Dist_300_LN_2_LD_10_RN_12_RD_24_1.png","img2/300/Congruent/R/C_Dist_300_LN_1_LD_5_RN_11_RD_22_1.png","img2/100/Incongruent/R/I_Dist_100_LN_11_LD_22_RN_9_RD_15_1.png","img2/200/Congruent/R/C_Dist_200_LN_3_LD_10_RN_7_RD_14_1.png","img2/100/Incongruent/R/I_Dist_100_LN_13_LD_26_RN_12_RD_20_1.png","img2/300/Incongruent/R/I_Dist_300_LN_13_LD_26_RN_12_RD_15_1.png","img2/100/Congruent/R/C_Dist_100_LN_2_LD_5_RN_6_RD_12_1.png","img2/300/Incongruent/L/I_Dist_300_LN_8_LD_10_RN_14_RD_28_0.png","img2/200/Congruent/L/C_Dist_200_LN_11_LD_22_RN_3_RD_10_0.png","img2/300/Congruent/R/C_Dist_300_LN_3_LD_12_RN_11_RD_20_1.png","img2/300/Incongruent/L/I_Dist_300_LN_1_LD_2_RN_2_RD_10_0.png","img2/300/Congruent/L/C_Dist_300_LN_20_LD_25_RN_14_RD_28_0.png","img2/100/Incongruent/L/I_Dist_100_LN_9_LD_15_RN_14_RD_28_0.png","img2/200/Congruent/L/C_Dist_200_LN_8_LD_15_RN_3_RD_9_0.png","img2/300/Incongruent/R/I_Dist_300_LN_13_LD_26_RN_12_RD_15_1.png","img2/200/Congruent/L/C_Dist_200_LN_4_LD_8_RN_3_RD_10_0.png","img2/100/Incongruent/L/I_Dist_100_LN_3_LD_9_RN_7_RD_30_0.png","img2/200/Congruent/R/C_Dist_200_LN_5_LD_10_RN_14_RD_20_1.png","img2/200/Incongruent/L/I_Dist_200_LN_1_LD_3_RN_2_RD_15_0.png","img2/100/Incongruent/R/I_Dist_100_LN_10_LD_25_RN_8_RD_16_1.png","img2/200/Congruent/R/C_Dist_200_LN_1_LD_2_RN_21_RD_30_1.png","img2/300/Incongruent/L/I_Dist_300_LN_1_LD_2_RN_3_RD_15_0.png","img2/300/Incongruent/R/I_Dist_300_LN_13_LD_26_RN_12_RD_15_1.png","img2/100/Incongruent/R/I_Dist_100_LN_13_LD_26_RN_12_RD_20_1.png","img2/200/Incongruent/L/I_Dist_200_LN_7_LD_10_RN_12_RD_24_0.png","img2/100/Congruent/L/C_Dist_100_LN_8_LD_16_RN_2_RD_5_0.png","img2/300/Incongruent/L/I_Dist_300_LN_1_LD_2_RN_3_RD_15_0.png","img2/300/Congruent/R/C_Dist_300_LN_5_LD_25_RN_6_RD_12_1.png","img2/200/Incongruent/L/I_Dist_200_LN_4_LD_5_RN_6_RD_10_0.png","img2/200/Congruent/L/C_Dist_200_LN_4_LD_10_RN_3_RD_15_0.png","img2/300/Congruent/L/C_Dist_300_LN_24_LD_30_RN_2_RD_4_0.png","img2/200/Incongruent/L/I_Dist_200_LN_1_LD_2_RN_3_RD_10_0.png","img2/100/Congruent/R/C_Dist_100_LN_6_LD_12_RN_15_RD_25_1.png","img2/300/Congruent/L/C_Dist_300_LN_20_LD_25_RN_9_RD_18_0.png","img2/200/Incongruent/L/I_Dist_200_LN_3_LD_4_RN_11_RD_20_0.png","img2/200/Congruent/R/C_Dist_200_LN_9_LD_30_RN_13_RD_26_1.png","img2/100/Incongruent/R/I_Dist_100_LN_8_LD_20_RN_1_RD_2_1.png","img2/300/Congruent/L/C_Dist_300_LN_20_LD_25_RN_13_RD_26_0.png","img2/100/Congruent/L/C_Dist_100_LN_11_LD_22_RN_4_RD_10_0.png","img2/200/Incongruent/L/I_Dist_200_LN_1_LD_2_RN_3_RD_10_0.png","img2/100/Congruent/R/C_Dist_100_LN_12_LD_30_RN_13_RD_26_1.png","img2/100/Congruent/L/C_Dist_100_LN_11_LD_22_RN_6_RD_15_0.png","img2/200/Incongruent/L/I_Dist_200_LN_3_LD_4_RN_11_RD_20_0.png","img2/100/Incongruent/L/I_Dist_100_LN_6_LD_10_RN_11_RD_22_0.png","img2/300/Congruent/R/C_Dist_300_LN_5_LD_25_RN_7_RD_14_1.png","img2/200/Congruent/L/C_Dist_200_LN_20_LD_25_RN_9_RD_15_0.png","img2/100/Congruent/L/C_Dist_100_LN_10_LD_25_RN_3_RD_10_0.png","img2/200/Congruent/R/C_Dist_200_LN_6_LD_20_RN_11_RD_22_1.png","img2/300/Incongruent/R/I_Dist_300_LN_4_LD_20_RN_2_RD_4_1.png","img2/200/Congruent/R/C_Dist_200_LN_3_LD_10_RN_11_RD_22_1.png","img2/300/Congruent/L/C_Dist_300_LN_12_LD_24_RN_2_RD_10_0.png","img2/100/Congruent/L/C_Dist_100_LN_9_LD_15_RN_8_RD_16_0.png","img2/100/Congruent/L/C_Dist_100_LN_8_LD_16_RN_2_RD_5_0.png","img2/200/Congruent/L/C_Dist_200_LN_4_LD_8_RN_3_RD_10_0.png","img2/100/Incongruent/L/I_Dist_100_LN_3_LD_5_RN_8_RD_16_0.png","img2/100/Incongruent/L/I_Dist_100_LN_1_LD_2_RN_8_RD_20_0.png","img2/100/Congruent/R/C_Dist_100_LN_4_LD_10_RN_15_RD_30_1.png","img2/300/Incongruent/R/I_Dist_300_LN_4_LD_20_RN_2_RD_4_1.png","img2/300/Incongruent/R/I_Dist_300_LN_13_LD_26_RN_12_RD_15_1.png","img2/100/Congruent/L/C_Dist_100_LN_11_LD_22_RN_6_RD_15_0.png","img2/200/Congruent/R/C_Dist_200_LN_3_LD_10_RN_14_RD_28_1.png","img2/200/Incongruent/R/I_Dist_200_LN_6_LD_20_RN_3_RD_6_1.png","img2/200/Incongruent/R/I_Dist_200_LN_6_LD_20_RN_3_RD_6_1.png","img2/300/Congruent/R/C_Dist_300_LN_7_LD_14_RN_20_RD_25_1.png","img2/200/Incongruent/R/I_Dist_200_LN_3_LD_10_RN_1_RD_2_1.png","img2/100/Congruent/R/C_Dist_100_LN_2_LD_5_RN_11_RD_22_1.png","img2/300/Incongruent/L/I_Dist_300_LN_7_LD_10_RN_8_RD_20_0.png","img2/200/Congruent/L/C_Dist_200_LN_6_LD_15_RN_3_RD_15_0.png","img2/100/Congruent/L/C_Dist_100_LN_6_LD_20_RN_5_RD_25_0.png","img2/200/Congruent/R/C_Dist_200_LN_3_LD_6_RN_14_RD_20_1.png","img2/100/Congruent/L/C_Dist_100_LN_8_LD_16_RN_2_RD_5_0.png","img2/100/Congruent/R/C_Dist_100_LN_7_LD_14_RN_15_RD_25_1.png","img2/100/Congruent/R/C_Dist_100_LN_7_LD_14_RN_15_RD_25_1.png","img2/200/Incongruent/L/I_Dist_200_LN_1_LD_3_RN_2_RD_15_0.png","img2/200/Congruent/L/C_Dist_200_LN_16_LD_20_RN_12_RD_20_0.png","img2/200/Incongruent/R/I_Dist_200_LN_6_LD_20_RN_3_RD_6_1.png","img2/100/Incongruent/L/I_Dist_100_LN_1_LD_2_RN_8_RD_20_0.png","img2/100/Congruent/L/C_Dist_100_LN_11_LD_22_RN_6_RD_15_0.png","img2/300/Incongruent/L/I_Dist_300_LN_2_LD_4_RN_6_RD_30_0.png","img2/300/Congruent/R/C_Dist_300_LN_1_LD_3_RN_19_RD_30_1.png","img2/300/Congruent/L/C_Dist_300_LN_12_LD_24_RN_2_RD_10_0.png","img2/300/Incongruent/R/I_Dist_300_LN_13_LD_26_RN_12_RD_15_1.png","img2/200/Incongruent/L/I_Dist_200_LN_3_LD_4_RN_11_RD_20_0.png","img2/100/Incongruent/L/I_Dist_100_LN_6_LD_10_RN_13_RD_26_0.png","img2/100/Incongruent/L/I_Dist_100_LN_2_LD_4_RN_8_RD_20_0.png","img2/100/Incongruent/L/I_Dist_100_LN_3_LD_9_RN_7_RD_30_0.png","img2/200/Incongruent/R/I_Dist_200_LN_14_LD_30_RN_6_RD_9_1.png","img2/300/Congruent/R/C_Dist_300_LN_7_LD_14_RN_20_RD_25_1.png","img2/300/Incongruent/L/I_Dist_300_LN_8_LD_10_RN_9_RD_18_0.png","img2/100/Incongruent/R/I_Dist_100_LN_10_LD_25_RN_9_RD_18_1.png","img2/300/Congruent/R/C_Dist_300_LN_7_LD_14_RN_20_RD_25_1.png","img2/100/Incongruent/R/I_Dist_100_LN_6_LD_12_RN_3_RD_5_1.png","img2/300/Incongruent/R/I_Dist_300_LN_13_LD_26_RN_12_RD_15_1.png","img2/200/Incongruent/R/I_Dist_200_LN_14_LD_30_RN_12_RD_18_1.png","img2/300/Incongruent/L/I_Dist_300_LN_4_LD_5_RN_8_RD_16_0.png","img2/300/Congruent/R/C_Dist_300_LN_3_LD_6_RN_4_RD_5_1.png"],"dist100_C":[["C_Dist_100_LN_10_LD_25_RN_3_RD_10_0.png","C_Dist_100_LN_11_LD_22_RN_4_RD_10_0.png","C_Dist_100_LN_11_LD_22_RN_6_RD_15_0.png","C_Dist_100_LN_15_LD_25_RN_13_RD_26_0.png","C_Dist_100_LN_3_LD_6_RN_2_RD_5_0.png","C_Dist_100_LN_6_LD_20_RN_5_RD_25_0.png","C_Dist_100_LN_8_LD_16_RN_2_RD_5_0.png","C_Dist_100_LN_9_LD_15_RN_8_RD_16_0.png"],["C_Dist_100_LN_1_LD_2_RN_18_RD_30_1.png","C_Dist_100_LN_1_LD_2_RN_3_RD_5_1.png","C_Dist_100_LN_12_LD_30_RN_13_RD_26_1.png","C_Dist_100_LN_2_LD_5_RN_11_RD_22_1.png","C_Dist_100_LN_2_LD_5_RN_6_RD_12_1.png","C_Dist_100_LN_3_LD_20_RN_4_RD_16_1.png","C_Dist_100_LN_4_LD_10_RN_15_RD_30_1.png","C_Dist_100_LN_4_LD_8_RN_6_RD_10_1.png","C_Dist_100_LN_6_LD_12_RN_15_RD_25_1.png","C_Dist_100_LN_7_LD_14_RN_15_RD_25_1.png","C_Dist_100_LN_7_LD_14_RN_9_RD_15_1.png"]],"dist100_I":[["I_Dist_100_LN_1_LD_2_RN_8_RD_20_0.png","I_Dist_100_LN_2_LD_4_RN_6_RD_15_0.png","I_Dist_100_LN_2_LD_4_RN_8_RD_20_0.png","I_Dist_100_LN_3_LD_5_RN_11_RD_22_0.png","I_Dist_100_LN_3_LD_5_RN_8_RD_16_0.png","I_Dist_100_LN_3_LD_6_RN_4_RD_10_0.png","I_Dist_100_LN_3_LD_9_RN_7_RD_30_0.png","I_Dist_100_LN_4_LD_8_RN_8_RD_20_0.png","I_Dist_100_LN_6_LD_10_RN_11_RD_22_0.png","I_Dist_100_LN_6_LD_10_RN_13_RD_26_0.png","I_Dist_100_LN_6_LD_10_RN_7_RD_14_0.png","I_Dist_100_LN_9_LD_10_RN_20_RD_25_0.png","I_Dist_100_LN_9_LD_15_RN_13_RD_26_0.png","I_Dist_100_LN_9_LD_15_RN_14_RD_28_0.png"],["I_Dist_100_LN_10_LD_25_RN_8_RD_16_1.png","I_Dist_100_LN_10_LD_25_RN_9_RD_18_1.png","I_Dist_100_LN_11_LD_22_RN_9_RD_15_1.png","I_Dist_100_LN_12_LD_24_RN_9_RD_15_1.png","I_Dist_100_LN_12_LD_30_RN_2_RD_4_1.png","I_Dist_100_LN_13_LD_26_RN_12_RD_20_1.png","I_Dist_100_LN_13_LD_26_RN_6_RD_10_1.png","I_Dist_100_LN_17_LD_30_RN_10_RD_15_1.png","I_Dist_100_LN_6_LD_12_RN_3_RD_5_1.png","I_Dist_100_LN_8_LD_16_RN_6_RD_10_1.png","I_Dist_100_LN_8_LD_20_RN_1_RD_2_1.png","I_Dist_100_LN_9_LD_18_RN_6_RD_10_1.png"]],"dist100_S":[["E_Dist_100_LN_2_LD_12_RN_2_RD_30_0.png","E_Dist_100_LN_6_LD_10_RN_6_RD_12_0.png"],["E_Dist_100_LN_6_LD_12_RN_6_RD_10_1.png"]],"dist200_C":[["C_Dist_200_LN_11_LD_22_RN_3_RD_10_0.png","C_Dist_200_LN_12_LD_15_RN_6_RD_10_0.png","C_Dist_200_LN_12_LD_20_RN_6_RD_15_0.png","C_Dist_200_LN_14_LD_28_RN_6_RD_20_0.png","C_Dist_200_LN_15_LD_25_RN_4_RD_10_0.png","C_Dist_200_LN_16_LD_20_RN_12_RD_20_0.png","C_Dist_200_LN_16_LD_30_RN_9_RD_27_0.png","C_Dist_200_LN_20_LD_25_RN_9_RD_15_0.png","C_Dist_200_LN_21_LD_30_RN_2_RD_4_0.png","C_Dist_200_LN_4_LD_10_RN_3_RD_15_0.png","C_Dist_200_LN_4_LD_8_RN_3_RD_10_0.png","C_Dist_200_LN_6_LD_15_RN_3_RD_15_0.png","C_Dist_200_LN_7_LD_21_RN_2_RD_15_0.png","C_Dist_200_LN_8_LD_15_RN_2_RD_6_0.png","C_Dist_200_LN_8_LD_15_RN_3_RD_9_0.png","C_Dist_200_LN_8_LD_15_RN_7_RD_21_0.png","C_Dist_200_LN_9_LD_20_RN_4_RD_16_0.png"],["C_Dist_200_LN_1_LD_2_RN_21_RD_30_1.png","C_Dist_200_LN_13_LD_26_RN_14_RD_20_1.png","C_Dist_200_LN_3_LD_10_RN_11_RD_22_1.png","C_Dist_200_LN_3_LD_10_RN_14_RD_28_1.png","C_Dist_200_LN_3_LD_10_RN_7_RD_14_1.png","C_Dist_200_LN_3_LD_12_RN_9_RD_20_1.png","C_Dist_200_LN_3_LD_6_RN_14_RD_20_1.png","C_Dist_200_LN_5_LD_10_RN_14_RD_20_1.png","C_Dist_200_LN_6_LD_12_RN_7_RD_10_1.png","C_Dist_200_LN_6_LD_20_RN_11_RD_22_1.png","C_Dist_200_LN_7_LD_15_RN_18_RD_27_1.png","C_Dist_200_LN_9_LD_30_RN_13_RD_26_1.png"]],"dist200_I":[["I_Dist_200_LN_1_LD_2_RN_3_RD_10_0.png","I_Dist_200_LN_1_LD_3_RN_2_RD_15_0.png","I_Dist_200_LN_3_LD_4_RN_11_RD_20_0.png","I_Dist_200_LN_4_LD_5_RN_6_RD_10_0.png","I_Dist_200_LN_4_LD_6_RN_14_RD_30_0.png","I_Dist_200_LN_7_LD_10_RN_12_RD_24_0.png","I_Dist_200_LN_7_LD_10_RN_14_RD_28_0.png","I_Dist_200_LN_7_LD_10_RN_8_RD_16_0.png"],["I_Dist_200_LN_11_LD_20_RN_3_RD_4_1.png","I_Dist_200_LN_14_LD_30_RN_12_RD_18_1.png","I_Dist_200_LN_14_LD_30_RN_6_RD_9_1.png","I_Dist_200_LN_3_LD_10_RN_1_RD_2_1.png","I_Dist_200_LN_4_LD_30_RN_1_RD_3_1.png","I_Dist_200_LN_6_LD_20_RN_3_RD_6_1.png","I_Dist_200_LN_7_LD_15_RN_4_RD_6_1.png","I_Dist_200_LN_7_LD_15_RN_6_RD_9_1.png","I_Dist_200_LN_9_LD_15_RN_8_RD_10_1.png"]],"dist200_S":[["E_Dist_200_LN_3_LD_6_RN_3_RD_10_0.png"],["E_Dist_200_LN_3_LD_10_RN_3_RD_6_1.png"]],"dist300_C":[["C_Dist_300_LN_11_LD_22_RN_1_RD_5_0.png","C_Dist_300_LN_11_LD_22_RN_2_RD_10_0.png","C_Dist_300_LN_11_LD_22_RN_4_RD_20_0.png","C_Dist_300_LN_12_LD_24_RN_2_RD_10_0.png","C_Dist_300_LN_18_LD_20_RN_9_RD_15_0.png","C_Dist_300_LN_20_LD_25_RN_13_RD_26_0.png","C_Dist_300_LN_20_LD_25_RN_14_RD_28_0.png","C_Dist_300_LN_20_LD_25_RN_5_RD_10_0.png","C_Dist_300_LN_20_LD_25_RN_8_RD_16_0.png","C_Dist_300_LN_20_LD_25_RN_9_RD_18_0.png","C_Dist_300_LN_24_LD_30_RN_2_RD_4_0.png","C_Dist_300_LN_24_LD_30_RN_8_RD_16_0.png","C_Dist_300_LN_3_LD_6_RN_2_RD_10_0.png","C_Dist_300_LN_4_LD_10_RN_1_RD_10_0.png","C_Dist_300_LN_4_LD_5_RN_2_RD_4_0.png","C_Dist_300_LN_8_LD_16_RN_1_RD_5_0.png","C_Dist_300_LN_9_LD_10_RN_3_RD_5_0.png"],["C_Dist_300_LN_1_LD_20_RN_7_RD_20_1.png","C_Dist_300_LN_1_LD_3_RN_19_RD_30_1.png","C_Dist_300_LN_1_LD_30_RN_8_RD_24_1.png","C_Dist_300_LN_1_LD_5_RN_11_RD_22_1.png","C_Dist_300_LN_1_LD_5_RN_3_RD_6_1.png","C_Dist_300_LN_1_LD_5_RN_6_RD_12_1.png","C_Dist_300_LN_2_LD_10_RN_12_RD_24_1.png","C_Dist_300_LN_2_LD_20_RN_10_RD_25_1.png","C_Dist_300_LN_3_LD_12_RN_11_RD_20_1.png","C_Dist_300_LN_3_LD_6_RN_4_RD_5_1.png","C_Dist_300_LN_4_LD_20_RN_13_RD_26_1.png","C_Dist_300_LN_5_LD_25_RN_6_RD_12_1.png","C_Dist_300_LN_5_LD_25_RN_7_RD_14_1.png","C_Dist_300_LN_7_LD_14_RN_20_RD_25_1.png","C_Dist_300_LN_8_LD_15_RN_10_RD_12_1.png"]],"dist300_I":[["I_Dist_300_LN_1_LD_2_RN_2_RD_10_0.png","I_Dist_300_LN_1_LD_2_RN_3_RD_15_0.png","I_Dist_300_LN_2_LD_4_RN_6_RD_30_0.png","I_Dist_300_LN_3_LD_6_RN_4_RD_20_0.png","I_Dist_300_LN_4_LD_5_RN_6_RD_12_0.png","I_Dist_300_LN_4_LD_5_RN_8_RD_16_0.png","I_Dist_300_LN_7_LD_10_RN_8_RD_20_0.png","I_Dist_300_LN_8_LD_10_RN_14_RD_28_0.png","I_Dist_300_LN_8_LD_10_RN_9_RD_18_0.png"],["I_Dist_300_LN_13_LD_26_RN_12_RD_15_1.png","I_Dist_300_LN_4_LD_20_RN_2_RD_4_1.png"]],"dist300_S":[["E_Dist_300_LN_9_LD_12_RN_9_RD_20_0.png"],["E_Dist_300_LN_18_LD_30_RN_18_RD_20_1.png","E_Dist_300_LN_3_LD_10_RN_3_RD_5_1.png","E_Dist_300_LN_9_LD_20_RN_9_RD_12_1.png"]],"dist500_C":[["C_Dist_500_LN_10_LD_13_RN_7_RD_26_0.png","C_Dist_500_LN_10_LD_15_RN_4_RD_24_0.png","C_Dist_500_LN_12_LD_16_RN_3_RD_12_0.png","C_Dist_500_LN_12_LD_18_RN_4_RD_24_0.png","C_Dist_500_LN_15_LD_18_RN_5_RD_15_0.png","C_Dist_500_LN_15_LD_20_RN_1_RD_4_0.png","C_Dist_500_LN_18_LD_27_RN_1_RD_6_0.png","C_Dist_500_LN_20_LD_24_RN_1_RD_3_0.png","C_Dist_500_LN_20_LD_24_RN_3_RD_9_0.png","C_Dist_500_LN_20_LD_24_RN_7_RD_21_0.png","C_Dist_500_LN_20_LD_28_RN_3_RD_14_0.png","C_Dist_500_LN_21_LD_28_RN_6_RD_24_0.png","C_Dist_500_LN_22_LD_28_RN_2_RD_7_0.png","C_Dist_500_LN_25_LD_30_RN_9_RD_27_0.png","C_Dist_500_LN_4_LD_6_RN_1_RD_6_0.png","C_Dist_500_LN_5_LD_6_RN_2_RD_6_0.png","C_Dist_500_LN_6_LD_9_RN_1_RD_6_0.png","C_Dist_500_LN_7_LD_10_RN_1_RD_5_0.png","C_Dist_500_LN_8_LD_12_RN_1_RD_6_0.png","C_Dist_500_LN_8_LD_12_RN_4_RD_24_0.png"],["C_Dist_500_LN_1_LD_4_RN_12_RD_16_1.png","C_Dist_500_LN_1_LD_4_RN_9_RD_12_1.png","C_Dist_500_LN_1_LD_9_RN_11_RD_18_1.png","C_Dist_500_LN_10_LD_24_RN_22_RD_24_1.png","C_Dist_500_LN_2_LD_12_RN_10_RD_15_1.png","C_Dist_500_LN_2_LD_12_RN_12_RD_18_1.png","C_Dist_500_LN_2_LD_12_RN_4_RD_6_1.png","C_Dist_500_LN_2_LD_24_RN_7_RD_12_1.png","C_Dist_500_LN_2_LD_5_RN_18_RD_20_1.png","C_Dist_500_LN_2_LD_5_RN_9_RD_10_1.png","C_Dist_500_LN_2_LD_8_RN_12_RD_16_1.png","C_Dist_500_LN_2_LD_8_RN_21_RD_28_1.png","C_Dist_500_LN_3_LD_10_RN_4_RD_5_1.png","C_Dist_500_LN_3_LD_12_RN_15_RD_20_1.png","C_Dist_500_LN_3_LD_30_RN_6_RD_10_1.png","C_Dist_500_LN_3_LD_8_RN_14_RD_16_1.png","C_Dist_500_LN_4_LD_16_RN_15_RD_20_1.png","C_Dist_500_LN_4_LD_24_RN_12_RD_18_1.png","C_Dist_500_LN_5_LD_14_RN_6_RD_7_1.png","C_Dist_500_LN_7_LD_21_RN_20_RD_24_1.png","C_Dist_500_LN_7_LD_28_RN_12_RD_16_1.png","C_Dist_500_LN_7_LD_28_RN_9_RD_12_1.png","C_Dist_500_LN_9_LD_27_RN_20_RD_24_1.png"]],"dist500_I":[["I_Dist_500_LN_2_LD_3_RN_4_RD_24_0.png","I_Dist_500_LN_5_LD_6_RN_6_RD_18_0.png","I_Dist_500_LN_7_LD_8_RN_9_RD_24_0.png"],["I_Dist_500_LN_7_LD_21_RN_5_RD_6_1.png"]],"dist500_S":[["E_Dist_500_LN_6_LD_8_RN_6_RD_24_0.png"],["E_Dist_500_LN_2_LD_12_RN_2_RD_3_1.png","E_Dist_500_LN_6_LD_24_RN_6_RD_8_1.png"]]}},{"start_time":1552069023629,"click_time":1552069025398,"finger_time":1552069024979,"fix_duration":1148.4722989035074,"trial":1,"RT":1350,"MT":419,"sideResp":1,"stimulus":[],"xmouse":[798,798,798,798,798,798,798,798,798,798,798,798,798,798,798,798,798,798,798,798,798,798,798,798,798,798,797,797,797,797,797,797,797,797,797,797,797,797,797,797,797,797,797,797,797,797,797,797,797,797,797,797,797,797,797,797,797,797,797,797,797,797,797,797,798,799,799,790,677,594,545,522,510,509,509,509,509,510,508,508,509,511,515,529,534,535,534,531,522],"ymouse":[625,625,625,625,625,625,625,625,625,625,625,625,625,625,625,625,625,625,625,625,625,625,625,625,625,625,624,624,624,624,624,624,624,624,624,624,624,624,624,624,624,624,624,624,624,624,624,624,624,624,624,624,624,624,624,624,624,624,624,624,624,624,624,624,620,614,600,569,412,327,278,247,224,215,214,214,209,195,153,149,145,142,137,111,97,90,86,83,82],"timestamp_mouse":[11,30,50,70,89,110,129,150,170,190,210,230,250,270,290,310,330,349,369,390,409,429,450,469,489,510,529,550,569,590,610,630,650,669,690,710,729,749,770,789,810,830,849,869,889,909,930,950,970,989,1010,1029,1050,1070,1089,1110,1129,1150,1169,1189,1210,1229,1250,1270,1289,1309,1330,1350,1369,1390,1410,1429,1450,1470,1489,1510,1529,1549,1569,1589,1610,1629,1650,1670,1691,1710,1730,1750,1769],"xSR":741.5,"ySR":573.95,"xT1":424.9,"yT1":0,"xT2":1058.1,"yT2":0,"toosoon":0,"cond_shown":"Incongruent","ratio_trial":100,"L_num":9,"L_den":15,"R_num":14,"R_den":28,"correct_side":1,"subjID":"Valeriabejarano33","gender":"1","school":"4","age":"9"},{"start_time":1552069028036,"click_time":1552069029640,"finger_time":1552069029339,"fix_duration":1417.3381861767418,"trial":2,"RT":1303,"MT":301,"sideResp":1,"stimulus":[],"xmouse":[787,787,787,787,787,787,787,787,787,787,787,787,787,787,787,787,787,787,787,787,787,787,785,785,784,784,784,784,784,784,784,784,784,784,784,784,784,784,784,784,784,784,784,784,785,785,786,787,790,790,791,791,791,791,791,791,791,791,791,791,790,788,780,766,757,741,712,682,641,616,593,565,539,509,506,506,505,505,505,504,501],"ymouse":[627,627,627,627,627,627,627,627,627,627,627,627,627,627,627,627,627,627,627,627,627,627,627,627,626,625,622,622,621,621,621,621,621,621,620,620,620,620,620,620,620,620,620,620,620,620,620,619,617,616,616,616,616,616,616,616,616,616,616,616,616,615,612,602,592,573,526,472,324,234,155,81,17,0,0,0,0,0,0,0,2],"timestamp_mouse":[9,35,42,62,83,102,123,143,163,182,202,222,242,263,282,302,322,343,362,382,402,422,443,462,482,503,522,542,562,582,603,622,642,662,683,703,723,742,762,782,802,823,843,862,882,903,922,942,962,983,1003,1023,1043,1062,1083,1102,1122,1143,1162,1182,1202,1223,1242,1262,1283,1303,1323,1342,1363,1382,1402,1423,1443,1464,1482,1502,1522,1543,1563,1583,1604],"xSR":741.5,"ySR":573.95,"xT1":424.9,"yT1":0,"xT2":1058.1,"yT2":0,"toosoon":0,"cond_shown":"Congruent","ratio_trial":100,"L_num":7,"L_den":14,"R_num":15,"R_den":25,"correct_side":2,"subjID":"Valeriabejarano33","gender":"1","school":"4","age":"9"},{"start_time":1552069034506,"click_time":1552069035619,"finger_time":1552069035279,"fix_duration":565.4688825237653,"trial":3,"RT":773,"MT":340,"sideResp":2,"stimulus":[],"xmouse":[783,782,782,782,782,782,782,782,782,782,782,782,782,782,782,782,782,782,782,782,782,782,782,782,782,782,782,782,782,784,801,811,817,820,820,820,820,820,820,823,899,958,1021,1060,1087,1118,1125,1131,1133,1133,1129,1124,1119,1111,1101,1091],"ymouse":[627,626,626,626,626,626,626,626,626,626,626,626,626,626,626,626,626,626,626,626,626,626,626,626,626,626,626,626,626,626,616,607,599,594,587,580,578,576,569,554,447,391,344,322,307,265,239,219,202,189,176,173,163,145,120,88],"timestamp_mouse":[19,33,56,72,92,112,132,152,173,192,212,232,252,273,292,313,333,352,373,393,413,432,453,473,492,511,532,553,573,592,612,632,653,673,693,712,733,752,772,793,812,833,853,872,893,912,933,952,973,993,1012,1031,1052,1073,1092,1112],"xSR":741.5,"ySR":573.95,"xT1":424.9,"yT1":0,"xT2":1058.1,"yT2":0,"toosoon":0,"cond_shown":"Congruent","ratio_trial":200,"L_num":9,"L_den":30,"R_num":13,"R_den":26,"correct_side":2,"subjID":"Valeriabejarano33","gender":"1","school":"4","age":"9"},{"start_time":1552069037178,"click_time":1552069039419,"finger_time":1552069038498,"fix_duration":637.4127880396339,"trial":4,"RT":1320,"MT":921,"sideResp":2,"stimulus":[],"xmouse":[804,804,804,804,803,803,803,803,803,803,803,803,803,803,803,803,803,803,803,803,803,803,803,803,803,803,803,803,803,803,803,803,803,803,803,803,803,803,803,803,803,803,803,803,803,803,803,803,803,803,803,803,803,803,803,803,803,803,803,803,803,803,803,803,802,792,765,692,675,666,662,662,662,662,662,662,662,662,661,659,655,654,661,692,761,879,950,1036,1040,1037,1023,1012,1011,1025,1054,1091,1106,1119,1130,1132,1137,1143,1166,1177,1189,1196,1196,1194,1192,1188,1178,1166,1141],"ymouse":[629,629,629,629,628,628,628,628,628,628,628,628,628,628,628,628,628,628,628,628,628,628,628,628,628,628,628,628,628,628,628,628,628,628,628,628,628,628,628,628,628,628,628,628,628,628,628,628,628,628,628,628,628,628,628,628,628,628,628,628,628,628,628,626,621,594,530,388,354,332,322,322,322,322,322,322,322,320,307,297,286,284,283,291,304,320,322,300,293,286,277,267,248,230,207,187,179,170,159,155,149,142,123,111,98,80,72,65,65,65,65,66,70],"timestamp_mouse":[2,21,40,60,81,101,121,140,161,181,201,220,240,260,280,300,320,340,360,380,400,421,441,460,481,501,520,540,562,581,601,621,640,661,680,700,721,740,760,781,801,821,841,861,881,901,921,940,960,981,1000,1021,1041,1061,1080,1101,1120,1140,1160,1180,1200,1221,1241,1261,1280,1300,1320,1340,1361,1380,1401,1420,1441,1461,1481,1501,1521,1541,1560,1581,1601,1622,1641,1660,1680,1701,1720,1740,1760,1781,1801,1820,1840,1859,1880,1900,1921,1941,1960,1981,2000,2020,2041,2061,2081,2100,2121,2140,2160,2180,2200,2220,2241],"xSR":741.5,"ySR":573.95,"xT1":424.9,"yT1":0,"xT2":1058.1,"yT2":0,"toosoon":0,"cond_shown":"Incongruent","ratio_trial":100,"L_num":3,"L_den":6,"R_num":4,"R_den":10,"correct_side":1,"subjID":"Valeriabejarano33","gender":"1","school":"4","age":"9"},{"start_time":1552069041203,"click_time":1552069043018,"finger_time":1552069042539,"fix_duration":1023.8704627541066,"trial":5,"RT":1336,"MT":479,"sideResp":2,"stimulus":[],"xmouse":[795,789,783,782,782,782,782,781,781,781,781,780,780,779,779,779,779,779,779,778,778,777,777,777,777,777,777,777,777,777,777,777,777,777,777,777,777,777,777,777,777,777,777,777,777,777,777,777,777,777,777,777,777,777,777,777,777,777,777,777,777,777,777,777,779,784,803,815,830,852,917,951,962,967,968,968,968,968,968,977,988,1016,1022,1023,1023,1023,1023,1026,1035,1050,1066],"ymouse":[629,626,624,624,624,624,624,623,623,623,623,623,623,622,622,622,622,622,622,621,621,620,620,620,620,620,620,620,620,620,620,620,620,620,620,620,620,620,620,620,620,620,620,620,620,620,620,620,620,620,620,620,620,620,620,620,620,620,620,620,620,620,620,619,610,588,508,444,385,319,195,141,120,109,102,93,89,82,73,62,53,37,35,35,35,35,35,34,34,34,32],"timestamp_mouse":[15,37,55,75,96,116,135,155,176,196,216,235,255,276,296,315,335,355,375,395,416,435,456,476,495,515,535,555,575,595,616,636,657,676,695,715,736,756,775,795,816,835,855,875,895,915,935,955,976,995,1015,1035,1055,1076,1095,1115,1135,1156,1175,1196,1216,1235,1255,1275,1295,1316,1336,1355,1376,1395,1416,1435,1456,1475,1495,1516,1535,1556,1575,1595,1616,1636,1655,1676,1694,1716,1736,1755,1775,1795,1815],"xSR":741.5,"ySR":573.95,"xT1":424.9,"yT1":0,"xT2":1058.1,"yT2":0,"toosoon":0,"cond_shown":"Incongruent","ratio_trial":300,"L_num":13,"L_den":26,"R_num":12,"R_den":15,"correct_side":2,"subjID":"Valeriabejarano33","gender":"1","school":"4","age":"9"},{"start_time":1552069044770,"click_time":1552069046278,"finger_time":1552069045738,"fix_duration":930.1248840878851,"trial":6,"RT":968,"MT":540,"sideResp":1,"stimulus":[],"xmouse":[815,815,815,815,815,815,815,815,815,815,815,815,815,815,815,815,815,815,815,815,814,811,808,804,804,804,804,804,804,804,804,804,804,804,804,804,804,804,804,802,802,802,802,801,799,797,795,792,780,772,756,751,740,705,691,674,664,653,644,643,642,642,639,629,623,615,609,603,593,591,590,587,574,536,510,489],"ymouse":[612,612,612,612,612,612,612,612,612,612,612,612,612,612,612,612,612,612,612,610,610,609,607,605,605,605,605,605,605,605,605,605,605,605,605,605,605,605,605,605,605,605,605,604,602,600,596,590,568,548,510,494,450,323,279,243,221,203,183,180,178,175,162,147,144,142,142,143,148,149,149,149,142,117,102,90],"timestamp_mouse":[9,32,48,69,89,108,128,149,169,189,209,228,248,269,288,308,329,349,369,388,409,429,449,468,488,509,529,549,568,588,609,628,649,668,688,709,729,749,768,788,809,829,848,868,889,909,928,949,968,989,1009,1029,1048,1068,1088,1108,1128,1148,1168,1188,1209,1229,1248,1268,1289,1308,1328,1349,1368,1389,1409,1428,1448,1468,1489,1508],"xSR":741.5,"ySR":573.95,"xT1":424.9,"yT1":0,"xT2":1058.1,"yT2":0,"toosoon":0,"cond_shown":"Incongruent","ratio_trial":200,"L_num":7,"L_den":10,"R_num":12,"R_den":24,"correct_side":1,"subjID":"Valeriabejarano33","gender":"1","school":"4","age":"9"},{"start_time":1552069047535,"click_time":1552069048799,"finger_time":1552069048318,"fix_duration":295.37362028718496,"trial":7,"RT":783,"MT":481,"sideResp":1,"stimulus":[],"xmouse":[783,782,781,781,781,781,781,781,781,781,781,781,781,781,781,781,781,781,781,781,781,781,781,781,781,781,781,781,781,781,781,781,781,780,779,776,772,766,755,738,686,654,635,620,620,620,622,624,624,615,594,586,573,568,557,545,541,538,537,536,529,519,516,502],"ymouse":[621,621,622,622,622,622,622,622,622,622,622,622,622,622,622,622,622,622,622,622,622,622,622,622,622,622,622,622,622,622,622,622,622,622,622,620,616,609,595,567,450,397,363,342,340,337,332,318,298,277,240,226,203,194,168,142,135,132,131,130,120,105,100,83],"timestamp_mouse":[12,32,44,63,83,104,124,144,164,184,204,223,244,263,283,303,323,343,363,383,404,423,443,463,484,503,524,544,563,583,603,624,643,663,684,702,723,743,763,783,803,824,844,863,884,904,924,944,964,984,1005,1024,1044,1063,1083,1103,1123,1144,1163,1183,1203,1223,1243,1264],"xSR":741.5,"ySR":573.95,"xT1":424.9,"yT1":0,"xT2":1058.1,"yT2":0,"toosoon":0,"cond_shown":"Incongruent","ratio_trial":100,"L_num":3,"L_den":9,"R_num":7,"R_den":30,"correct_side":1,"subjID":"Valeriabejarano33","gender":"1","school":"4","age":"9"},{"start_time":1552069050641,"click_time":1552069052919,"finger_time":1552069052439,"fix_duration":981.6284259045757,"trial":8,"RT":1798,"MT":480,"sideResp":1,"stimulus":[],"xmouse":[794,794,794,794,794,794,794,794,794,794,794,794,794,794,794,794,794,794,794,794,794,794,794,794,794,794,794,794,794,794,794,794,794,794,794,794,794,794,794,794,794,794,794,794,794,794,794,794,794,794,794,794,794,794,794,794,794,794,794,794,794,794,794,794,794,794,794,794,794,794,794,794,794,794,792,787,784,783,782,782,781,781,781,781,781,781,781,781,781,778,776,771,763,752,738,716,706,697,689,667,654,643,628,619,610,595,587,579,570,551,541,533,526,519],"ymouse":[609,609,609,609,609,609,609,609,609,609,609,609,609,609,609,609,609,609,609,609,609,609,609,609,609,609,609,609,609,609,609,609,609,609,609,609,609,609,609,609,609,609,609,609,609,609,609,609,609,609,609,609,609,609,609,609,609,609,609,609,609,609,609,609,609,609,609,609,609,609,609,609,609,608,604,599,595,592,589,588,586,585,585,583,582,580,579,577,575,566,560,547,527,504,480,438,408,385,358,303,273,249,228,215,204,177,165,150,137,116,106,101,96,89],"timestamp_mouse":[17,40,57,78,97,118,138,158,177,197,218,238,257,278,297,317,338,358,377,397,418,437,458,478,498,517,538,558,577,597,618,637,658,678,697,718,737,758,777,797,817,838,857,877,897,918,937,958,978,998,1018,1038,1057,1078,1097,1117,1138,1157,1177,1198,1217,1237,1258,1277,1298,1317,1337,1357,1378,1398,1417,1438,1458,1477,1498,1517,1537,1558,1578,1598,1617,1637,1658,1677,1697,1717,1737,1758,1777,1798,1817,1837,1858,1878,1898,1918,1937,1957,1978,1998,2018,2037,2057,2077,2097,2117,2138,2157,2177,2198,2217,2237,2258,2277],"xSR":741.5,"ySR":573.95,"xT1":424.9,"yT1":0,"xT2":1058.1,"yT2":0,"toosoon":0,"cond_shown":"Congruent","ratio_trial":200,"L_num":16,"L_den":30,"R_num":9,"R_den":27,"correct_side":1,"subjID":"Valeriabejarano33","gender":"1","school":"4","age":"9"},{"start_time":1552069054230,"click_time":1552069055879,"finger_time":1552069054958,"fix_duration":250,"trial":9,"RT":728,"MT":921,"sideResp":1,"stimulus":[],"xmouse":[789,789,789,789,789,789,789,789,789,789,789,789,789,789,789,789,789,789,789,789,789,789,789,789,789,789,789,789,789,789,789,789,791,795,804,836,862,878,886,890,890,890,890,890,890,890,890,889,888,888,887,887,885,883,879,870,812,772,730,698,676,632,624,608,589,586,584,584,584,584,582,571,562,550,537,518,470,457,452,452,452,455,457],"ymouse":[628,628,628,628,628,628,628,628,628,628,628,628,628,628,628,628,628,628,628,628,628,628,628,628,628,628,628,628,628,629,629,629,629,629,629,617,597,582,574,570,569,569,569,569,569,569,568,568,568,568,568,568,568,568,567,561,518,488,455,427,402,323,283,246,208,201,185,180,174,166,160,149,145,142,138,132,109,102,100,100,100,100,99],"timestamp_mouse":[11,38,49,68,88,109,128,148,169,189,209,228,249,268,288,308,328,349,368,389,408,429,449,469,488,508,528,549,569,589,609,629,649,669,688,710,728,749,768,789,809,828,848,868,889,908,928,949,968,989,1008,1029,1049,1069,1088,1109,1128,1149,1169,1188,1209,1227,1248,1268,1289,1308,1328,1349,1368,1389,1408,1429,1449,1468,1488,1508,1528,1549,1568,1588,1609,1628,1649],"xSR":741.5,"ySR":573.95,"xT1":424.9,"yT1":0,"xT2":1058.1,"yT2":0,"toosoon":0,"cond_shown":"Incongruent","ratio_trial":200,"L_num":4,"L_den":30,"R_num":1,"R_den":3,"correct_side":2,"subjID":"Valeriabejarano33","gender":"1","school":"4","age":"9"},{"start_time":1552069059486,"click_time":1552069061318,"finger_time":1552069060919,"fix_duration":1045.835146908576,"trial":10,"RT":1433,"MT":399,"sideResp":2,"stimulus":[],"xmouse":[765,765,765,765,765,765,765,766,766,766,767,767,767,768,768,768,768,768,768,768,768,768,768,768,768,768,768,768,768,768,768,768,768,768,768,768,768,768,768,768,767,766,764,764,763,762,762,762,761,761,761,761,761,760,759,759,759,758,758,758,758,758,758,758,758,758,758,758,758,766,789,806,819,831,836,842,847,853,859,894,919,932,942,960,973,991,1011,1041,1055,1063,1065,1067],"ymouse":[604,605,605,606,606,606,607,608,609,611,612,613,613,614,614,615,615,615,615,615,615,615,615,615,615,615,615,615,615,615,615,615,615,615,615,615,615,615,615,615,615,615,615,615,615,615,615,615,616,616,616,616,616,617,617,617,617,617,617,617,617,617,617,617,617,617,617,617,617,609,590,572,558,528,509,489,462,428,377,240,145,99,63,16,0,0,0,0,0,0,0,2],"timestamp_mouse":[14,37,53,72,93,112,132,153,173,192,213,232,253,272,293,312,333,352,372,393,412,433,452,472,493,512,533,553,573,592,613,632,652,672,692,713,732,752,773,792,813,832,852,873,892,912,932,953,973,993,1013,1033,1053,1073,1093,1112,1133,1152,1172,1193,1213,1232,1253,1272,1293,1313,1333,1352,1373,1393,1412,1433,1452,1473,1492,1513,1532,1552,1572,1592,1613,1632,1652,1672,1693,1713,1732,1753,1773,1792,1813,1832],"xSR":741.5,"ySR":573.95,"xT1":424.9,"yT1":0,"xT2":1058.1,"yT2":0,"toosoon":0,"cond_shown":"Congruent","ratio_trial":300,"L_num":5,"L_den":25,"R_num":7,"R_den":14,"correct_side":2,"subjID":"Valeriabejarano33","gender":"1","school":"4","age":"9"},{"start_time":1552069064036,"click_time":1552069065899,"finger_time":1552069065618,"fix_duration":1437.9488632913956,"trial":11,"RT":1582,"MT":281,"sideResp":1,"stimulus":[],"xmouse":[822,822,822,822,822,823,824,824,824,824,824,824,824,824,824,824,824,824,824,824,824,824,824,824,824,824,824,824,824,824,824,824,824,824,824,824,824,824,824,824,824,824,824,824,824,824,824,824,824,824,824,824,824,824,824,824,824,824,824,824,824,824,824,824,824,824,823,820,813,811,806,805,804,804,802,801,799,798,798,794,791,784,771,719,688,656,627,587,570,559,552,544,536,512],"ymouse":[630,630,630,630,630,629,628,627,627,627,627,627,627,627,627,627,627,627,627,627,627,627,627,627,627,627,627,627,627,627,627,627,627,627,627,627,627,627,627,627,627,627,627,627,627,627,627,627,627,627,627,627,627,627,627,627,627,627,627,627,627,627,627,627,627,627,626,621,612,611,604,603,599,596,591,587,582,578,576,568,559,546,528,434,376,318,270,190,150,125,103,85,68,27],"timestamp_mouse":[9,22,42,62,83,102,122,142,162,182,202,222,242,262,283,303,324,342,363,383,402,423,443,462,483,503,522,543,563,583,603,622,643,662,684,703,723,743,762,782,803,823,842,863,882,902,922,943,962,983,1001,1022,1042,1063,1082,1102,1123,1142,1163,1183,1203,1222,1242,1262,1283,1302,1323,1342,1363,1382,1402,1422,1443,1463,1482,1502,1523,1543,1563,1582,1603,1623,1642,1662,1682,1702,1722,1743,1762,1783,1803,1823,1842,1863],"xSR":741.5,"ySR":573.95,"xT1":424.9,"yT1":0,"xT2":1058.1,"yT2":0,"toosoon":0,"cond_shown":"Congruent","ratio_trial":300,"L_num":8,"L_den":16,"R_num":1,"R_den":5,"correct_side":1,"subjID":"Valeriabejarano33","gender":"1","school":"4","age":"9"},{"start_time":1552069067439,"click_time":1552069068998,"finger_time":1552069068679,"fix_duration":318.4145884069434,"trial":12,"RT":1240,"MT":319,"sideResp":2,"stimulus":[],"xmouse":[792,792,792,792,792,792,792,792,792,792,792,792,792,792,792,792,792,792,792,792,792,792,792,792,792,792,792,792,792,792,792,792,792,792,792,792,792,792,792,792,792,792,792,792,792,792,792,792,792,792,792,792,792,792,792,792,792,792,792,792,793,797,798,798,802,806,812,822,871,900,925,943,953,972,985,998,1018,1053,1152],"ymouse":[612,612,612,612,612,612,612,612,612,612,612,612,612,612,612,612,612,612,612,612,612,612,612,612,612,612,612,612,612,612,612,612,612,612,612,612,612,612,612,612,612,612,612,612,612,612,612,612,612,612,612,612,612,612,612,612,612,612,612,609,601,585,555,504,484,468,453,433,335,294,265,243,229,196,179,160,142,119,79],"timestamp_mouse":[1,19,39,60,79,100,119,139,159,179,199,220,240,259,280,300,320,340,359,380,400,420,440,459,480,499,520,540,560,579,600,620,639,659,679,700,719,739,760,780,799,820,839,859,880,899,920,940,959,980,1000,1019,1040,1060,1079,1100,1120,1139,1159,1179,1200,1220,1240,1259,1279,1299,1319,1340,1359,1379,1399,1419,1439,1459,1479,1499,1519,1539,1559],"xSR":741.5,"ySR":573.95,"xT1":424.9,"yT1":0,"xT2":1058.1,"yT2":0,"toosoon":0,"cond_shown":"Congruent","ratio_trial":300,"L_num":1,"L_den":20,"R_num":7,"R_den":20,"correct_side":2,"subjID":"Valeriabejarano33","gender":"1","school":"4","age":"9"},{"start_time":1552069071254,"click_time":1552069072918,"finger_time":1552069072698,"fix_duration":933.4343721459959,"trial":13,"RT":1444,"MT":220,"sideResp":1,"stimulus":[],"xmouse":[821,821,821,823,824,825,826,826,826,826,826,826,827,827,827,827,827,827,827,827,827,827,827,827,827,827,827,827,827,827,827,827,827,827,827,827,827,827,827,827,827,827,827,827,827,827,827,827,827,827,827,827,827,827,827,827,827,827,827,827,827,827,827,827,827,828,829,829,829,829,829,829,821,789,733,722,708,705,703,700,689,670,572,510],"ymouse":[648,648,648,648,648,648,648,648,648,648,648,648,648,648,648,648,648,648,648,648,648,648,648,648,648,648,648,648,648,648,648,648,648,648,648,648,648,648,648,648,648,648,648,648,648,648,648,648,648,648,648,648,648,648,648,648,648,648,648,648,648,648,648,648,648,647,644,636,632,626,619,606,546,481,398,386,368,364,360,350,327,283,135,69],"timestamp_mouse":[12,24,45,64,85,104,125,145,164,185,205,224,244,264,284,305,325,344,364,385,404,425,444,464,485,504,525,545,564,585,605,625,645,665,684,704,724,745,765,784,804,825,844,864,885,904,925,944,965,985,1004,1025,1045,1064,1085,1105,1125,1145,1164,1185,1205,1225,1245,1265,1285,1305,1324,1344,1365,1384,1405,1423,1444,1464,1484,1504,1525,1544,1564,1585,1604,1624,1644,1664],"xSR":741.5,"ySR":573.95,"xT1":424.9,"yT1":0,"xT2":1058.1,"yT2":0,"toosoon":0,"cond_shown":"Incongruent","ratio_trial":200,"L_num":7,"L_den":10,"R_num":14,"R_den":28,"correct_side":1,"subjID":"Valeriabejarano33","gender":"1","school":"4","age":"9"},{"start_time":1552069074418,"click_time":1552069076100,"finger_time":1552069075718,"fix_duration":497.2203954303221,"trial":14,"RT":1300,"MT":382,"sideResp":2,"stimulus":[],"xmouse":[787,787,787,787,787,787,787,787,787,787,787,787,787,787,787,787,787,787,787,787,787,787,787,787,787,787,787,786,786,786,786,786,786,786,785,785,785,785,785,785,785,785,784,783,783,783,783,783,783,783,782,782,782,782,782,782,782,782,782,782,782,781,781,782,786,832,874,917,946,968,972,975,980,989,1016,1031,1054,1066,1074,1083,1087,1092,1096,1100,1105],"ymouse":[626,626,626,626,626,626,625,625,625,625,625,625,625,625,625,625,625,625,625,625,625,625,625,625,625,625,625,625,625,625,625,625,625,625,625,625,625,625,625,625,625,625,625,625,624,624,624,624,624,624,624,624,624,624,624,624,624,624,624,624,624,624,622,620,615,546,469,404,362,323,313,300,286,268,227,208,182,168,159,139,129,121,110,102,94],"timestamp_mouse":[15,24,42,61,80,101,120,140,161,181,201,221,240,261,280,300,321,341,361,381,400,420,441,460,480,500,521,541,561,581,600,620,641,661,681,701,720,740,760,780,801,821,841,860,881,900,920,941,960,981,1001,1020,1040,1061,1081,1100,1120,1141,1161,1180,1201,1220,1241,1260,1281,1300,1320,1340,1360,1381,1399,1420,1441,1460,1481,1500,1520,1541,1561,1581,1600,1620,1640,1660,1682],"xSR":741.5,"ySR":573.95,"xT1":424.9,"yT1":0,"xT2":1058.1,"yT2":0,"toosoon":0,"cond_shown":"Incongruent","ratio_trial":200,"L_num":14,"L_den":30,"R_num":12,"R_den":18,"correct_side":2,"subjID":"Valeriabejarano33","gender":"1","school":"4","age":"9"},{"start_time":1552069078107,"click_time":1552069080018,"finger_time":1552069079599,"fix_duration":988.9902570480054,"trial":15,"RT":1492,"MT":419,"sideResp":2,"stimulus":[],"xmouse":[788,788,788,788,788,788,788,788,788,788,788,788,788,788,788,788,788,788,788,788,788,788,788,788,788,788,788,787,787,786,786,785,785,785,784,784,784,784,784,784,784,784,784,784,784,784,784,784,784,784,784,784,784,784,784,784,784,784,784,784,784,784,784,784,784,784,784,784,784,785,792,798,809,825,847,912,942,973,996,1020,1041,1051,1058,1066,1072,1087,1097,1104,1110,1110,1110,1110,1110,1110,1110,1110],"ymouse":[644,644,644,644,644,644,644,644,644,644,644,644,644,644,644,644,644,644,644,644,644,644,644,644,644,644,644,644,644,644,645,645,645,645,645,645,645,645,645,645,645,645,645,645,645,645,645,645,645,645,645,645,645,645,645,645,645,645,645,645,645,645,645,645,645,645,645,645,644,642,631,621,605,586,563,481,441,406,373,335,278,251,232,215,201,162,140,124,110,109,108,108,108,107,104,94],"timestamp_mouse":[11,37,50,71,91,112,131,151,171,191,211,231,251,271,291,312,331,351,372,391,411,431,452,471,492,511,531,552,571,592,612,631,651,672,691,712,732,750,772,791,811,831,851,871,892,912,931,952,972,991,1011,1032,1051,1070,1091,1111,1132,1151,1171,1192,1211,1231,1252,1271,1291,1311,1331,1351,1372,1392,1410,1432,1452,1472,1492,1511,1532,1551,1571,1592,1611,1632,1651,1671,1692,1711,1731,1751,1771,1792,1812,1832,1851,1871,1891,1910],"xSR":741.5,"ySR":573.95,"xT1":424.9,"yT1":0,"xT2":1058.1,"yT2":0,"toosoon":0,"cond_shown":"Congruent","ratio_trial":200,"L_num":3,"L_den":12,"R_num":9,"R_den":20,"correct_side":2,"subjID":"Valeriabejarano33","gender":"1","school":"4","age":"9"},{"start_time":1552069081200,"click_time":1552069082479,"finger_time":1552069082078,"fix_duration":499.9095191688271,"trial":16,"RT":878,"MT":401,"sideResp":1,"stimulus":[],"xmouse":[812,812,812,812,812,812,812,812,812,812,812,812,812,812,812,812,812,812,812,812,812,812,812,812,812,812,812,812,812,812,812,812,810,809,805,799,798,798,798,798,798,799,806,827,857,890,933,942,946,946,946,945,944,942,939,927,915,897,867,823,701,585,517,453],"ymouse":[644,644,644,644,644,644,644,644,644,644,644,644,644,644,644,644,644,644,644,644,644,644,644,644,644,644,644,644,644,642,640,635,623,616,607,592,589,588,588,588,585,581,576,562,543,513,450,437,429,425,416,411,408,406,403,395,387,375,353,322,240,166,118,69],"timestamp_mouse":[19,41,58,77,99,118,149,158,178,199,219,238,259,278,298,318,339,358,378,398,419,438,459,479,499,519,538,557,578,598,618,638,659,678,698,719,739,758,779,798,819,839,858,878,898,918,939,958,978,999,1019,1038,1058,1078,1098,1118,1138,1159,1179,1198,1218,1238,1259,1279],"xSR":741.5,"ySR":573.95,"xT1":424.9,"yT1":0,"xT2":1058.1,"yT2":0,"toosoon":0,"cond_shown":"Incongruent","ratio_trial":300,"L_num":1,"L_den":2,"R_num":3,"R_den":15,"correct_side":1,"subjID":"Valeriabejarano33","gender":"1","school":"4","age":"9"},{"start_time":1552069085432,"click_time":1552069086739,"finger_time":1552069086178,"fix_duration":1333.508512507316,"trial":17,"RT":746,"MT":561,"sideResp":2,"stimulus":[],"xmouse":[792,792,792,792,792,792,792,792,792,792,792,792,792,792,792,792,792,792,793,793,792,791,788,787,786,786,786,786,786,786,786,786,786,786,786,790,791,794,799,803,808,809,809,809,809,809,809,809,809,810,813,816,823,837,861,932,967,1004,1036,1059,1087,1089,1092,1096,1099,1114],"ymouse":[612,612,612,612,612,612,612,612,612,612,612,612,612,612,612,612,612,612,612,612,608,605,601,599,598,598,598,598,598,598,597,597,596,595,594,585,577,563,547,534,526,524,523,523,523,523,523,523,523,522,517,507,486,455,408,292,236,201,181,164,144,142,137,131,126,99],"timestamp_mouse":[10,33,47,66,87,106,126,146,166,186,206,227,246,266,286,306,326,346,366,387,406,426,447,466,486,507,526,546,566,586,606,625,646,665,687,707,727,746,767,787,806,827,847,866,886,906,926,946,967,986,1006,1026,1046,1067,1087,1107,1127,1146,1167,1186,1206,1226,1246,1266,1287,1307],"xSR":741.5,"ySR":573.95,"xT1":424.9,"yT1":0,"xT2":1058.1,"yT2":0,"toosoon":0,"cond_shown":"Incongruent","ratio_trial":200,"L_num":3,"L_den":10,"R_num":1,"R_den":2,"correct_side":2,"subjID":"Valeriabejarano33","gender":"1","school":"4","age":"9"},{"start_time":1552069089069,"click_time":1552069090618,"finger_time":1552069089859,"fix_duration":1051.0118046832654,"trial":18,"RT":790,"MT":759,"sideResp":2,"stimulus":[],"xmouse":[743,743,743,743,743,743,743,743,743,743,743,743,743,743,743,743,743,743,743,743,743,743,743,743,743,743,743,743,743,743,743,743,743,743,743,743,743,743,742,741,741,741,741,740,740,739,739,739,739,739,739,739,739,751,768,789,823,836,842,855,861,866,873,891,905,925,939,954,955,953,953,953,958,985,1001,1020,1046,1061],"ymouse":[637,633,633,633,633,633,633,633,633,633,633,633,633,633,633,633,633,633,633,633,633,633,633,633,633,633,633,633,633,633,633,633,633,633,633,633,633,633,637,637,637,637,637,637,636,635,635,635,635,635,635,635,635,623,607,591,558,542,530,510,489,462,440,394,360,314,268,186,121,112,110,110,110,107,102,100,96,93],"timestamp_mouse":[12,34,50,69,90,109,129,150,169,189,209,230,249,269,290,310,329,348,370,389,409,429,449,469,490,509,530,548,569,590,609,629,649,669,690,710,729,749,769,790,810,829,849,869,888,909,930,950,969,990,1009,1029,1049,1069,1090,1110,1130,1149,1169,1189,1210,1229,1248,1269,1289,1310,1329,1350,1369,1390,1409,1430,1450,1469,1490,1510,1530,1548],"xSR":741.5,"ySR":573.95,"xT1":424.9,"yT1":0,"xT2":1058.1,"yT2":0,"toosoon":0,"cond_shown":"Congruent","ratio_trial":100,"L_num":4,"L_den":10,"R_num":15,"R_den":30,"correct_side":2,"subjID":"Valeriabejarano33","gender":"1","school":"4","age":"9"},{"start_time":1552069094338,"click_time":1552069095958,"finger_time":1552069095499,"fix_duration":1457.750154753736,"trial":19,"RT":1161,"MT":459,"sideResp":2,"stimulus":[],"xmouse":[817,817,817,817,817,817,817,817,816,813,813,810,808,807,805,800,797,793,791,790,789,789,789,789,789,789,789,789,789,789,789,789,789,789,789,789,789,789,789,789,789,789,789,789,789,789,789,789,789,789,789,789,789,790,791,792,801,810,822,836,849,890,913,937,960,983,1006,1015,1020,1023,1026,1030,1030,1030,1030,1030,1030,1035,1042,1050,1056,1063],"ymouse":[634,634,634,634,634,634,634,634,633,632,631,629,629,627,626,620,617,611,609,607,606,606,606,606,606,606,606,606,606,606,606,606,606,606,606,606,606,606,606,606,606,606,606,606,606,606,606,606,606,606,606,606,605,605,603,602,593,584,568,553,535,477,444,411,380,349,303,285,271,259,249,220,209,198,190,180,156,140,126,115,107,95],"timestamp_mouse":[9,31,41,59,80,100,120,140,161,181,200,220,241,261,280,301,319,341,361,381,401,421,441,460,481,501,520,540,560,580,600,621,640,660,681,701,720,740,761,781,800,820,841,860,881,901,921,941,961,981,1001,1020,1041,1061,1080,1100,1121,1141,1161,1179,1200,1220,1240,1261,1281,1300,1321,1340,1360,1380,1400,1420,1441,1460,1481,1500,1521,1540,1561,1580,1600,1620],"xSR":741.5,"ySR":573.95,"xT1":424.9,"yT1":0,"xT2":1058.1,"yT2":0,"toosoon":0,"cond_shown":"Incongruent","ratio_trial":300,"L_num":13,"L_den":26,"R_num":12,"R_den":15,"correct_side":2,"subjID":"Valeriabejarano33","gender":"1","school":"4","age":"9"},{"start_time":1552069097468,"click_time":1552069098258,"finger_time":1552069098079,"fix_duration":627.9370616594089,"trial":20,"RT":611,"MT":179,"sideResp":2,"stimulus":[],"xmouse":[804,805,806,807,807,807,807,807,807,807,807,807,807,807,807,807,807,807,807,807,807,807,807,807,807,807,807,808,810,820,830,842,859,882,944,977,1008,1031,1050,1070],"ymouse":[626,627,627,627,627,628,628,628,628,628,628,628,628,628,628,628,628,628,628,628,628,628,628,628,628,628,628,626,622,583,553,514,467,413,272,220,176,145,123,98],"timestamp_mouse":[10,36,51,70,91,111,131,151,169,191,210,230,250,271,290,310,329,350,371,390,410,430,450,470,489,511,529,550,571,590,611,631,650,670,689,711,730,751,770,790],"xSR":741.5,"ySR":573.95,"xT1":424.9,"yT1":0,"xT2":1058.1,"yT2":0,"toosoon":0,"cond_shown":"Incongruent","ratio_trial":100,"L_num":17,"L_den":30,"R_num":10,"R_den":15,"correct_side":2,"subjID":"Valeriabejarano33","gender":"1","school":"4","age":"9"},{"start_time":1552069100851,"click_time":1552069102918,"finger_time":1552069102557,"fix_duration":250,"trial":21,"RT":1706,"MT":361,"sideResp":2,"stimulus":[],"xmouse":[779,779,779,779,779,779,779,779,779,779,778,778,778,778,778,778,778,778,778,778,778,778,778,778,778,778,778,778,778,778,778,778,778,778,778,778,778,778,778,778,778,778,778,778,778,778,778,778,778,778,778,778,778,778,778,778,778,778,778,778,778,778,778,778,778,778,778,778,778,778,778,778,778,778,778,778,778,778,778,779,780,785,794,807,819,832,847,851,854,857,876,894,921,963,979,992,1007,1012,1020,1030,1053,1066,1077,1094],"ymouse":[646,646,646,646,646,646,646,646,646,646,645,644,644,644,644,644,644,644,644,644,644,644,644,644,644,644,644,644,644,644,644,644,644,644,644,644,644,644,644,644,644,644,644,644,644,644,644,644,644,644,644,644,644,644,644,644,644,644,644,644,644,644,644,644,644,644,644,644,644,644,644,644,644,644,644,644,644,644,644,641,640,635,626,613,598,571,532,517,499,477,420,387,350,299,279,259,220,205,186,172,145,130,114,90],"timestamp_mouse":[13,37,48,67,88,108,127,148,168,187,207,227,248,268,288,307,328,346,368,387,408,427,447,468,488,507,527,547,567,587,606,628,648,668,687,708,727,748,768,788,807,828,848,868,887,908,928,948,968,987,1008,1028,1047,1068,1086,1106,1128,1148,1167,1188,1207,1228,1248,1267,1288,1308,1327,1347,1367,1386,1408,1427,1447,1468,1488,1507,1528,1548,1568,1588,1608,1628,1648,1667,1688,1706,1727,1747,1767,1788,1808,1827,1847,1867,1887,1906,1927,1947,1968,1988,2007,2027,2048,2066],"xSR":741.5,"ySR":573.95,"xT1":424.9,"yT1":0,"xT2":1058.1,"yT2":0,"toosoon":0,"cond_shown":"Congruent","ratio_trial":300,"L_num":3,"L_den":6,"R_num":4,"R_den":5,"correct_side":2,"subjID":"Valeriabejarano33","gender":"1","school":"4","age":"9"},{"start_time":1552069104883,"click_time":1552069106798,"finger_time":1552069106399,"fix_duration":902.1188274789595,"trial":22,"RT":1516,"MT":399,"sideResp":1,"stimulus":[],"xmouse":[781,781,781,781,781,781,781,781,782,782,782,782,782,782,782,782,782,782,782,782,782,782,782,782,782,782,782,782,782,784,784,784,784,787,788,788,788,788,788,788,788,788,788,788,788,788,788,788,788,788,788,788,788,788,788,788,788,788,788,788,788,788,788,788,788,788,788,788,788,788,788,789,789,786,770,760,750,738,727,704,698,693,689,684,652,632,619,611,607,607,606,602,589,573,537,522],"ymouse":[637,637,637,637,637,637,637,637,637,637,637,637,637,637,637,637,637,637,637,637,637,637,637,637,637,637,637,637,637,637,637,637,637,638,639,639,639,639,639,639,639,639,639,639,639,639,639,639,639,639,639,639,639,639,639,639,639,639,639,639,639,639,639,639,639,639,639,639,639,639,639,639,638,628,587,565,545,523,504,462,442,416,381,328,196,157,138,130,126,125,125,120,113,106,93,90],"timestamp_mouse":[15,39,56,75,95,116,136,155,175,196,215,236,255,276,296,316,336,356,375,396,416,435,455,475,496,516,535,555,575,595,615,636,656,676,696,715,736,755,775,796,815,836,855,876,895,915,935,954,975,995,1015,1035,1055,1075,1095,1114,1136,1155,1174,1195,1215,1235,1255,1275,1295,1315,1336,1355,1375,1396,1416,1435,1456,1476,1496,1516,1535,1555,1575,1595,1615,1635,1656,1675,1695,1715,1735,1755,1775,1795,1815,1836,1855,1875,1896,1915],"xSR":741.5,"ySR":573.95,"xT1":424.9,"yT1":0,"xT2":1058.1,"yT2":0,"toosoon":0,"cond_shown":"Congruent","ratio_trial":100,"L_num":3,"L_den":6,"R_num":2,"R_den":5,"correct_side":1,"subjID":"Valeriabejarano33","gender":"1","school":"4","age":"9"},{"start_time":1552069108070,"click_time":1552069109779,"finger_time":1552069109539,"fix_duration":250,"trial":23,"RT":1469,"MT":240,"sideResp":1,"stimulus":[],"xmouse":[779,780,780,781,782,784,784,785,786,787,787,787,787,787,787,788,789,790,790,790,790,790,790,790,790,790,790,790,790,790,790,790,790,790,790,790,790,790,790,790,790,790,790,790,790,790,790,790,790,790,790,790,790,790,790,790,790,790,790,790,790,790,790,790,790,789,784,779,774,765,755,752,747,740,729,672,636,593,552,505,482,481,480,478,474,442],"ymouse":[628,628,628,628,627,627,626,626,626,626,626,626,626,626,626,626,626,626,626,626,626,626,626,626,626,626,626,626,626,626,626,626,626,626,626,626,626,626,626,626,626,626,626,626,626,626,626,626,626,626,626,626,626,626,626,626,626,626,626,626,626,626,626,626,626,626,626,624,622,619,613,611,607,601,591,529,488,442,398,349,322,312,297,277,245,99],"timestamp_mouse":[17,41,48,68,88,108,129,147,169,189,208,229,249,269,288,308,328,349,369,388,409,429,448,468,489,509,529,548,569,589,608,629,647,670,687,708,727,749,768,788,809,829,848,868,889,909,928,948,968,988,1008,1028,1048,1068,1089,1109,1128,1148,1168,1189,1209,1229,1248,1269,1288,1309,1328,1349,1368,1389,1407,1429,1448,1469,1489,1509,1529,1548,1569,1589,1608,1628,1648,1669,1689,1709],"xSR":741.5,"ySR":573.95,"xT1":424.9,"yT1":0,"xT2":1058.1,"yT2":0,"toosoon":0,"cond_shown":"Congruent","ratio_trial":200,"L_num":9,"L_den":20,"R_num":4,"R_den":16,"correct_side":1,"subjID":"Valeriabejarano33","gender":"1","school":"4","age":"9"},{"start_time":1552069111713,"click_time":1552069113038,"finger_time":1552069112657,"fix_duration":652.2314899746666,"trial":24,"RT":944,"MT":381,"sideResp":2,"stimulus":[],"xmouse":[810,810,810,810,811,811,811,811,811,812,812,812,812,812,812,812,812,812,812,812,812,812,812,812,812,812,812,812,812,812,812,812,812,812,812,812,812,812,812,812,812,812,812,812,816,822,832,846,861,925,971,983,1005,1025,1045,1049,1056,1064,1072,1093,1104,1114,1120,1122,1123,1123,1123],"ymouse":[615,615,615,616,616,616,616,616,616,617,617,617,617,617,617,617,617,617,617,617,617,617,617,617,617,617,617,617,617,617,617,617,617,617,617,617,617,617,617,617,617,617,617,617,616,611,602,587,561,437,338,305,249,184,33,12,0,0,0,0,0,0,0,0,0,0,6],"timestamp_mouse":[11,33,45,65,86,105,126,146,165,185,205,226,246,266,286,305,325,346,364,385,406,424,446,465,485,505,526,545,565,586,605,625,646,664,685,706,726,745,766,785,806,826,845,866,885,904,926,944,966,985,1005,1025,1045,1065,1085,1105,1125,1145,1166,1187,1205,1225,1246,1265,1285,1305,1325],"xSR":741.5,"ySR":573.95,"xT1":424.9,"yT1":0,"xT2":1058.1,"yT2":0,"toosoon":0,"cond_shown":"Congruent","ratio_trial":300,"L_num":2,"L_den":10,"R_num":12,"R_den":24,"correct_side":2,"subjID":"Valeriabejarano33","gender":"1","school":"4","age":"9"},{"start_time":1552069114849,"click_time":1552069117238,"finger_time":1552069116298,"fix_duration":1109.538490210309,"trial":25,"RT":1449,"MT":940,"sideResp":2,"stimulus":[],"xmouse":[811,811,811,811,811,811,811,811,811,811,811,811,811,811,811,811,811,811,811,811,811,811,811,811,811,811,811,811,811,810,809,809,809,809,809,809,809,809,809,809,809,809,809,809,809,809,809,809,809,809,809,809,809,809,809,809,809,809,809,808,808,808,810,811,812,813,814,815,815,815,814,813,810,810,810,815,825,849,867,897,921,955,989,1037,1053,1058,1062,1067,1070,1072,1077,1081,1085,1089,1089,1090,1090,1090,1090,1090,1090,1090,1095,1096,1098,1099,1100,1101,1102,1102,1102,1102,1102,1102,1102,1102,1102,1102,1104,1105],"ymouse":[654,654,654,654,654,654,654,654,654,654,654,654,654,654,654,654,654,654,654,654,654,654,654,654,654,654,654,655,656,657,657,657,657,657,657,657,657,657,657,657,657,657,657,657,657,657,657,657,657,657,657,657,657,657,657,657,657,657,657,657,655,652,648,639,635,629,626,614,604,596,588,578,547,525,499,458,432,387,366,334,307,282,258,230,220,217,214,209,208,205,200,194,184,174,172,165,164,163,162,159,154,148,133,127,121,119,117,116,111,111,111,111,111,111,111,111,111,109,102,93],"timestamp_mouse":[12,41,49,70,90,109,130,149,169,189,210,228,249,270,289,309,330,349,370,390,410,430,449,470,490,510,528,550,569,589,608,630,650,670,690,708,729,750,769,790,810,829,849,869,890,909,929,949,970,989,1009,1029,1050,1070,1088,1110,1129,1148,1170,1190,1209,1230,1249,1270,1289,1309,1330,1350,1370,1390,1409,1428,1449,1469,1490,1510,1529,1549,1569,1590,1610,1630,1649,1669,1689,1709,1730,1749,1768,1789,1810,1829,1849,1869,1889,1910,1930,1950,1970,1990,2010,2029,2049,2069,2089,2110,2129,2149,2170,2189,2209,2229,2250,2269,2290,2309,2329,2350,2370,2389],"xSR":741.5,"ySR":573.95,"xT1":424.9,"yT1":0,"xT2":1058.1,"yT2":0,"toosoon":0,"cond_shown":"Congruent","ratio_trial":300,"L_num":1,"L_den":5,"R_num":11,"R_den":22,"correct_side":2,"subjID":"Valeriabejarano33","gender":"1","school":"4","age":"9"},{"start_time":1552069119136,"click_time":1552069121118,"finger_time":1552069120518,"fix_duration":795.221746247241,"trial":26,"RT":1382,"MT":600,"sideResp":1,"stimulus":[],"xmouse":[798,798,798,798,798,798,798,798,798,798,798,798,798,798,798,798,798,798,798,798,798,798,798,798,798,798,798,798,798,798,798,798,798,798,798,798,798,798,798,798,798,798,798,798,798,798,798,798,798,798,798,798,798,798,798,798,798,798,798,798,800,803,806,807,810,811,813,813,811,767,727,686,629,532,507,493,485,480,475,438,414,393,386,387,398,414,426,436,443,449,453,461,470,481,494,496,497,497,497,497],"ymouse":[655,655,655,655,655,655,655,655,655,655,655,655,655,655,655,655,655,655,655,655,655,655,655,655,655,655,655,655,655,655,655,655,655,655,655,655,655,655,655,655,655,655,655,655,655,655,655,655,655,655,655,655,655,655,655,655,655,655,655,655,652,648,643,637,629,622,613,599,578,495,447,401,351,277,259,250,243,240,236,204,178,149,133,125,124,124,124,122,119,117,116,115,115,115,111,110,109,107,106,99],"timestamp_mouse":[10,32,43,63,83,102,122,142,162,181,203,223,242,263,282,301,322,343,363,382,403,423,443,462,482,503,522,542,563,582,603,623,642,662,682,703,723,743,762,782,802,822,843,863,882,902,922,942,963,983,1002,1022,1042,1063,1082,1102,1122,1142,1161,1182,1203,1222,1242,1261,1283,1302,1322,1343,1362,1382,1402,1423,1443,1463,1482,1503,1522,1542,1562,1583,1603,1623,1642,1664,1682,1703,1722,1743,1763,1782,1803,1822,1843,1863,1882,1902,1922,1943,1962,1982],"xSR":741.5,"ySR":573.95,"xT1":424.9,"yT1":0,"xT2":1058.1,"yT2":0,"toosoon":0,"cond_shown":"Incongruent","ratio_trial":100,"L_num":11,"L_den":22,"R_num":9,"R_den":15,"correct_side":2,"subjID":"Valeriabejarano33","gender":"1","school":"4","age":"9"},{"start_time":1552069123153,"click_time":1552069124878,"finger_time":1552069124498,"fix_duration":1032.7557101838752,"trial":27,"RT":1345,"MT":380,"sideResp":2,"stimulus":[],"xmouse":[798,798,798,798,797,797,796,796,795,795,795,794,794,794,794,794,794,794,794,794,794,794,794,794,794,794,794,794,794,794,794,794,794,794,794,794,794,794,794,795,798,800,803,805,805,805,805,806,807,807,807,808,809,809,809,809,809,810,810,810,811,811,811,812,812,812,813,815,826,833,848,866,886,906,912,916,924,934,951,997,1011,1018,1020,1020,1025,1035,1062],"ymouse":[598,598,598,598,599,599,599,599,599,599,599,599,599,599,599,598,598,597,597,597,597,597,597,597,596,596,595,595,595,595,594,594,594,594,594,594,594,594,594,593,591,590,589,588,588,588,588,588,586,586,586,586,586,586,586,586,586,585,585,585,584,584,582,581,579,578,575,564,525,479,399,319,244,153,134,119,100,86,72,37,31,29,29,29,29,29,36],"timestamp_mouse":[6,25,45,65,85,106,126,146,165,185,205,226,245,266,285,306,325,346,366,385,406,425,445,464,486,505,525,546,566,585,606,626,645,665,685,705,725,746,765,785,806,826,845,865,885,906,925,945,965,985,1005,1025,1046,1064,1085,1106,1125,1146,1166,1186,1206,1225,1244,1266,1286,1306,1325,1345,1365,1386,1406,1426,1445,1465,1486,1506,1526,1545,1565,1585,1606,1625,1645,1665,1685,1706,1725],"xSR":741.5,"ySR":573.95,"xT1":424.9,"yT1":0,"xT2":1058.1,"yT2":0,"toosoon":0,"cond_shown":"Congruent","ratio_trial":200,"L_num":3,"L_den":10,"R_num":7,"R_den":14,"correct_side":2,"subjID":"Valeriabejarano33","gender":"1","school":"4","age":"9"},{"start_time":1552069127461,"click_time":1552069129239,"finger_time":1552069128778,"fix_duration":1299.8633828009188,"trial":28,"RT":1317,"MT":461,"sideResp":1,"stimulus":[],"xmouse":[820,820,820,820,820,820,820,820,820,820,820,820,820,820,820,820,820,820,820,820,820,820,820,820,820,820,820,820,820,820,820,820,820,820,820,820,820,820,820,820,820,820,820,820,820,820,820,821,821,821,819,819,819,819,813,799,789,782,773,772,772,771,770,769,769,763,753,694,614,563,534,523,522,532,535,536,535,526,505,503,503,503,503,501,498,497,496,496,497],"ymouse":[639,639,639,639,639,639,639,639,639,639,639,639,639,639,639,639,639,639,639,639,639,639,639,639,639,639,639,639,639,639,639,639,639,639,639,639,639,639,639,639,639,639,639,639,639,639,639,638,636,634,631,629,623,620,611,598,590,586,579,578,578,577,576,575,574,566,551,494,423,381,358,347,340,320,306,286,265,241,201,191,183,170,152,119,108,104,103,102,99],"timestamp_mouse":[18,37,58,77,97,118,137,158,177,198,218,238,257,278,298,317,338,357,377,397,417,437,457,478,498,518,536,558,578,597,618,638,658,677,697,718,738,756,778,798,818,838,857,878,898,918,938,957,977,997,1017,1038,1058,1077,1097,1118,1138,1158,1178,1197,1216,1238,1258,1277,1298,1317,1338,1358,1377,1398,1418,1437,1457,1478,1497,1518,1537,1558,1577,1598,1618,1637,1657,1678,1697,1717,1738,1757,1778],"xSR":741.5,"ySR":573.95,"xT1":424.9,"yT1":0,"xT2":1058.1,"yT2":0,"toosoon":0,"cond_shown":"Incongruent","ratio_trial":100,"L_num":13,"L_den":26,"R_num":12,"R_den":20,"correct_side":2,"subjID":"Valeriabejarano33","gender":"1","school":"4","age":"9"},{"start_time":1552069132339,"click_time":1552069133738,"finger_time":1552069132938,"fix_duration":519.2977187823141,"trial":29,"RT":599,"MT":800,"sideResp":2,"stimulus":[],"xmouse":[797,797,797,797,797,797,797,797,797,797,797,797,797,797,797,797,797,797,797,797,797,797,797,797,797,797,797,797,795,795,794,794,794,794,794,796,796,797,797,799,801,802,802,802,802,804,804,805,807,808,810,818,828,841,854,880,887,890,889,889,891,895,898,901,905,920,928,946,971,1006,1141],"ymouse":[625,625,625,625,625,625,625,625,625,625,625,625,625,625,625,625,625,625,625,625,625,625,625,624,620,602,596,590,583,578,572,571,569,569,565,562,561,560,557,554,544,542,542,542,542,538,537,535,532,528,523,515,499,475,441,362,322,269,219,183,140,133,127,119,111,97,91,89,89,88,50],"timestamp_mouse":[1,31,39,59,79,99,119,140,159,180,200,220,239,260,280,299,319,339,359,380,399,420,440,460,480,499,519,540,560,579,599,619,640,659,679,699,719,739,759,780,799,819,840,859,879,899,918,939,960,980,999,1019,1040,1059,1080,1098,1120,1140,1160,1179,1199,1219,1239,1258,1280,1299,1319,1339,1360,1379,1399],"xSR":741.5,"ySR":573.95,"xT1":424.9,"yT1":0,"xT2":1058.1,"yT2":0,"toosoon":0,"cond_shown":"Incongruent","ratio_trial":300,"L_num":13,"L_den":26,"R_num":12,"R_den":15,"correct_side":2,"subjID":"Valeriabejarano33","gender":"1","school":"4","age":"9"},{"start_time":1552069135712,"click_time":1552069136999,"finger_time":1552069135899,"fix_duration":272.92257240901785,"trial":30,"RT":187,"MT":1100,"sideResp":1,"stimulus":[],"xmouse":[793,793,793,794,796,807,836,837,840,843,852,853,853,853,853,853,853,850,844,841,837,833,831,828,823,820,804,793,782,775,771,769,769,769,769,768,768,762,754,736,706,628,610,600,595,594,582,566,547,522,502,462,457,457,458,459,462,462,462,462,462,462,464,466,470],"ymouse":[644,644,644,644,644,640,628,627,626,625,625,625,625,625,625,625,625,626,627,627,627,627,627,624,620,618,610,605,602,599,598,598,598,598,598,598,597,579,557,518,472,383,365,355,336,318,277,256,239,221,208,184,180,179,177,175,167,158,146,135,126,116,111,106,97],"timestamp_mouse":[9,26,47,67,87,106,126,146,166,187,207,226,246,266,287,306,327,347,366,386,406,426,446,467,486,507,526,547,567,587,606,627,646,666,686,707,726,746,766,787,806,826,846,867,887,907,926,946,966,986,1007,1026,1046,1067,1086,1107,1126,1145,1166,1186,1206,1226,1246,1266,1287],"xSR":741.5,"ySR":573.95,"xT1":424.9,"yT1":0,"xT2":1058.1,"yT2":0,"toosoon":0,"cond_shown":"Congruent","ratio_trial":100,"L_num":2,"L_den":5,"R_num":6,"R_den":12,"correct_side":2,"subjID":"Valeriabejarano33","gender":"1","school":"4","age":"9"},{"start_time":1552069138537,"click_time":1552069139918,"finger_time":1552069139339,"fix_duration":537.999840847867,"trial":31,"RT":802,"MT":579,"sideResp":1,"stimulus":[],"xmouse":[788,788,788,789,789,790,790,790,790,790,790,790,790,790,790,790,790,790,790,790,790,790,791,791,791,792,792,792,792,792,792,792,792,792,792,793,794,796,797,799,800,800,800,800,800,800,800,800,799,799,799,799,799,799,799,799,785,772,740,682,607,427,399,389,388,390,410,423,440,452],"ymouse":[618,617,617,616,616,615,615,615,615,615,615,615,615,615,615,615,615,615,615,615,615,615,614,614,612,612,610,608,608,607,607,606,606,605,604,602,597,592,585,577,569,567,566,566,566,564,564,563,562,562,562,562,561,558,554,548,522,503,470,428,381,293,271,255,240,227,189,165,127,88],"timestamp_mouse":[1,32,41,61,82,101,121,142,160,182,202,221,241,262,281,301,322,341,361,381,402,422,442,460,482,501,521,542,562,581,600,621,641,661,682,701,722,740,761,782,802,821,841,862,882,902,921,941,962,982,1002,1022,1042,1062,1082,1101,1122,1141,1160,1181,1201,1221,1241,1261,1281,1302,1322,1341,1362,1381],"xSR":741.5,"ySR":573.95,"xT1":424.9,"yT1":0,"xT2":1058.1,"yT2":0,"toosoon":0,"cond_shown":"Incongruent","ratio_trial":300,"L_num":8,"L_den":10,"R_num":14,"R_den":28,"correct_side":1,"subjID":"Valeriabejarano33","gender":"1","school":"4","age":"9"},{"start_time":1552069142033,"click_time":1552069144259,"finger_time":1552069143439,"fix_duration":1174.0614900609733,"trial":32,"RT":1406,"MT":820,"sideResp":1,"stimulus":[],"xmouse":[785,785,785,785,785,785,785,785,785,785,785,785,785,785,785,785,785,785,785,785,785,785,785,785,785,785,785,785,786,786,786,786,786,786,786,787,787,787,787,787,787,787,787,787,787,787,787,787,787,787,787,787,787,787,787,787,787,787,787,787,787,787,787,787,787,787,786,779,765,743,716,656,621,594,562,541,530,530,534,542,547,550,550,550,550,550,550,549,547,545,537,523,484,456,447,447,447,446,446,446,447,448,448,448,449,450,451,453,454,457,460,469],"ymouse":[633,633,633,633,633,633,633,633,633,633,633,633,633,633,633,633,633,633,633,633,633,633,633,633,633,633,633,633,632,632,631,630,630,630,630,629,629,629,629,629,629,629,629,629,629,629,629,629,629,629,629,629,629,629,629,629,629,629,629,629,629,629,629,629,629,629,627,618,606,590,572,525,477,430,369,335,309,302,289,272,258,236,225,224,223,223,221,213,206,201,190,180,161,148,144,144,144,143,142,139,138,136,135,133,131,127,124,119,115,111,103,90],"timestamp_mouse":[8,38,45,66,85,105,126,146,166,185,206,225,245,266,284,305,325,345,365,385,405,425,446,465,485,505,525,545,566,585,606,626,646,665,686,706,725,745,765,786,805,825,844,864,885,906,926,945,966,986,1004,1026,1046,1066,1085,1105,1125,1146,1165,1186,1204,1226,1244,1266,1285,1305,1325,1345,1365,1386,1406,1426,1445,1465,1485,1506,1525,1544,1565,1586,1605,1626,1645,1665,1685,1705,1725,1746,1765,1786,1806,1825,1845,1865,1884,1906,1925,1946,1965,1985,2005,2026,2045,2066,2085,2106,2125,2145,2165,2186,2204,2226],"xSR":741.5,"ySR":573.95,"xT1":424.9,"yT1":0,"xT2":1058.1,"yT2":0,"toosoon":0,"cond_shown":"Congruent","ratio_trial":200,"L_num":11,"L_den":22,"R_num":3,"R_den":10,"correct_side":1,"subjID":"Valeriabejarano33","gender":"1","school":"4","age":"9"},{"start_time":1552069145679,"click_time":1552069147539,"finger_time":1552069147019,"fix_duration":259.5614342195666,"trial":33,"RT":1340,"MT":520,"sideResp":2,"stimulus":[],"xmouse":[792,792,792,792,792,792,792,792,792,792,792,792,792,792,792,792,792,792,792,792,791,791,791,791,791,790,790,790,789,789,789,789,789,789,789,789,789,789,789,789,789,789,789,789,789,789,789,789,789,789,789,789,789,790,791,791,791,791,791,791,791,791,792,793,794,797,802,806,809,815,838,852,863,871,877,889,896,906,923,974,1084,1121,1142,1158,1172,1175,1175,1175,1171,1166,1157,1151,1145,1139],"ymouse":[620,620,620,620,620,620,620,620,620,620,620,620,620,620,620,620,620,620,619,619,619,619,619,619,619,619,619,619,620,620,620,620,620,620,620,620,620,620,620,620,620,620,620,620,620,620,620,620,620,620,620,620,620,617,615,614,614,614,614,614,613,612,610,608,605,593,583,568,549,529,468,449,436,424,414,388,378,362,344,308,229,192,157,110,61,0,0,0,0,0,0,0,0,3],"timestamp_mouse":[1,19,38,60,79,100,119,139,160,180,200,219,239,260,279,298,319,339,360,379,400,420,438,459,479,500,520,540,560,580,599,619,640,659,680,699,718,740,759,780,798,819,840,860,879,900,920,938,960,979,1000,1019,1039,1059,1080,1098,1119,1140,1159,1180,1199,1219,1240,1259,1278,1299,1319,1340,1359,1379,1400,1419,1438,1459,1480,1499,1519,1539,1559,1579,1599,1620,1639,1660,1679,1699,1719,1740,1760,1781,1801,1819,1839,1860],"xSR":741.5,"ySR":573.95,"xT1":424.9,"yT1":0,"xT2":1058.1,"yT2":0,"toosoon":0,"cond_shown":"Congruent","ratio_trial":300,"L_num":3,"L_den":12,"R_num":11,"R_den":20,"correct_side":2,"subjID":"Valeriabejarano33","gender":"1","school":"4","age":"9"},{"start_time":1552069148871,"click_time":1552069150938,"finger_time":1552069150478,"fix_duration":250,"trial":34,"RT":1607,"MT":460,"sideResp":1,"stimulus":[],"xmouse":[825,825,825,825,825,825,825,825,825,825,825,825,825,825,825,825,825,825,825,825,825,825,825,825,824,823,823,822,822,822,821,820,818,817,815,812,810,807,805,804,804,804,804,804,804,804,804,804,804,804,804,804,804,804,804,804,804,804,804,804,804,804,804,804,804,803,802,801,799,798,797,797,797,797,797,797,797,796,793,784,756,740,718,693,665,614,593,561,550,543,538,538,537,534,531,530,530,530,530,529,524,518,514,510],"ymouse":[644,644,644,644,644,644,644,644,644,644,644,644,644,644,644,644,644,644,644,644,644,644,644,644,644,644,644,644,644,644,645,646,647,648,648,648,648,648,648,648,648,648,648,648,648,648,648,648,648,648,648,648,648,648,648,648,648,648,648,648,648,648,648,648,648,648,643,641,636,634,634,634,634,634,634,634,633,630,624,611,570,540,501,456,401,250,164,53,15,0,0,0,0,0,0,0,0,0,0,0,0,0,0,1],"timestamp_mouse":[9,36,47,66,88,107,127,147,166,187,207,227,247,267,287,308,327,348,367,387,407,426,447,468,488,507,527,547,568,587,606,627,648,668,687,707,728,748,767,787,808,828,848,869,886,908,928,947,966,988,1007,1027,1046,1068,1088,1107,1128,1147,1168,1187,1208,1228,1247,1268,1288,1308,1328,1347,1368,1387,1406,1428,1447,1467,1487,1507,1528,1546,1568,1587,1607,1627,1648,1667,1688,1708,1727,1748,1768,1788,1808,1826,1848,1867,1887,1908,1928,1948,1968,1987,2010,2027,2047,2067],"xSR":741.5,"ySR":573.95,"xT1":424.9,"yT1":0,"xT2":1058.1,"yT2":0,"toosoon":0,"cond_shown":"Incongruent","ratio_trial":300,"L_num":1,"L_den":2,"R_num":2,"R_den":10,"correct_side":1,"subjID":"Valeriabejarano33","gender":"1","school":"4","age":"9"},{"start_time":1552069155347,"click_time":1552069156898,"finger_time":1552069156298,"fix_duration":1186.2613880354056,"trial":35,"RT":951,"MT":600,"sideResp":1,"stimulus":[],"xmouse":[770,770,770,770,771,771,771,771,771,771,771,771,771,771,771,771,771,771,771,771,771,772,772,772,772,772,772,772,772,772,773,773,773,774,774,775,776,776,776,777,777,778,778,775,767,756,743,716,707,700,693,689,677,668,657,641,621,577,561,539,531,505,486,479,475,473,473,473,475,478,481,489,497,498,499,499,500,500],"ymouse":[644,644,643,643,643,643,643,643,642,642,642,642,642,642,642,642,642,642,642,641,639,638,637,636,636,636,635,635,634,634,633,632,631,630,630,629,629,629,627,626,625,623,618,609,599,587,575,552,543,536,525,514,481,458,434,404,374,312,290,252,237,181,140,126,120,118,118,120,123,123,123,122,117,115,115,113,110,97],"timestamp_mouse":[10,32,51,72,92,111,132,152,171,191,212,231,252,272,291,311,332,352,372,391,412,431,452,471,491,511,531,551,571,592,612,632,651,671,691,711,731,752,771,791,812,831,851,871,892,912,931,951,972,991,1012,1031,1051,1071,1091,1112,1131,1151,1171,1191,1212,1232,1251,1271,1292,1311,1331,1351,1371,1392,1412,1431,1451,1471,1492,1512,1531,1550],"xSR":741.5,"ySR":573.95,"xT1":424.9,"yT1":0,"xT2":1058.1,"yT2":0,"toosoon":0,"cond_shown":"Congruent","ratio_trial":300,"L_num":20,"L_den":25,"R_num":14,"R_den":28,"correct_side":1,"subjID":"Valeriabejarano33","gender":"1","school":"4","age":"9"},{"start_time":1552069160522,"click_time":1552069161718,"finger_time":1552069161339,"fix_duration":421.416260466321,"trial":36,"RT":817,"MT":379,"sideResp":2,"stimulus":[],"xmouse":[808,808,808,808,808,808,808,808,808,808,808,808,808,808,808,808,808,808,808,808,808,808,808,808,808,808,808,808,808,808,808,808,808,808,808,808,808,808,809,821,841,855,868,928,963,995,1027,1056,1089,1097,1107,1111,1114,1120,1131,1137,1143,1148,1151,1153],"ymouse":[611,611,611,611,611,611,611,611,611,611,611,611,611,611,611,611,611,611,611,611,611,611,611,611,611,611,611,611,611,611,611,611,611,611,611,611,611,611,610,599,573,552,531,433,388,351,311,270,227,211,194,186,181,172,152,141,128,114,103,88],"timestamp_mouse":[16,40,57,76,97,117,136,156,177,197,216,236,256,277,296,317,336,357,377,396,417,436,457,476,495,517,536,557,577,596,616,637,657,677,697,716,736,757,777,796,817,836,857,876,896,916,936,957,976,995,1016,1037,1056,1077,1096,1116,1137,1157,1176,1196],"xSR":741.5,"ySR":573.95,"xT1":424.9,"yT1":0,"xT2":1058.1,"yT2":0,"toosoon":0,"cond_shown":"Incongruent","ratio_trial":100,"L_num":9,"L_den":15,"R_num":14,"R_den":28,"correct_side":1,"subjID":"Valeriabejarano33","gender":"1","school":"4","age":"9"},{"start_time":1552069166372,"click_time":1552069168318,"finger_time":1552069167818,"fix_duration":250,"trial":37,"RT":1446,"MT":500,"sideResp":1,"stimulus":[],"xmouse":[792,792,792,792,791,791,791,791,791,791,791,791,791,791,791,791,791,791,791,791,789,788,787,787,787,787,787,787,787,787,787,787,787,787,787,787,787,787,787,787,787,787,787,786,786,786,786,786,786,786,786,786,786,786,786,786,786,786,786,786,786,786,786,786,786,785,783,775,767,760,752,745,725,708,692,674,643,602,586,571,561,556,554,554,553,552,546,535,526,518,508,501,488,484,482,481,476,465],"ymouse":[619,618,618,618,618,618,618,618,618,618,618,618,618,618,618,618,618,618,618,618,618,618,618,618,618,618,618,618,618,618,618,618,618,618,618,618,618,618,618,618,618,618,618,619,619,619,619,619,619,619,619,619,619,619,619,619,619,619,619,619,619,619,619,619,619,619,619,613,607,601,593,586,568,554,539,525,499,460,438,416,397,376,326,299,278,263,242,217,202,185,170,159,144,140,138,134,125,97],"timestamp_mouse":[8,32,47,66,86,107,127,147,167,186,207,226,247,266,286,306,326,347,366,387,407,427,447,467,487,507,526,546,567,587,606,626,647,667,686,707,727,747,766,786,807,826,846,865,886,907,925,947,967,986,1006,1026,1047,1066,1086,1106,1126,1147,1166,1186,1206,1227,1247,1266,1286,1306,1327,1346,1366,1385,1407,1427,1446,1467,1486,1506,1526,1546,1566,1587,1606,1627,1646,1665,1687,1706,1727,1746,1767,1787,1806,1826,1846,1867,1887,1907,1926,1946],"xSR":741.5,"ySR":573.95,"xT1":424.9,"yT1":0,"xT2":1058.1,"yT2":0,"toosoon":0,"cond_shown":"Congruent","ratio_trial":200,"L_num":8,"L_den":15,"R_num":3,"R_den":9,"correct_side":1,"subjID":"Valeriabejarano33","gender":"1","school":"4","age":"9"},{"start_time":1552069169709,"click_time":1552069171518,"finger_time":1552069171078,"fix_duration":629.6919403125098,"trial":38,"RT":1369,"MT":440,"sideResp":2,"stimulus":[],"xmouse":[804,804,804,804,804,804,804,804,804,804,804,804,804,804,804,804,804,804,804,804,804,804,804,804,804,804,804,804,803,803,803,803,803,803,803,803,803,802,802,801,800,800,800,800,800,800,800,800,800,800,800,800,800,799,799,799,799,799,799,799,799,799,799,799,799,799,799,799,799,799,827,859,897,937,966,982,998,1003,1005,1008,1014,1017,1021,1023,1024,1026,1031,1038,1046,1056,1067],"ymouse":[623,623,623,623,623,623,623,623,623,623,623,623,623,623,623,623,623,623,623,623,623,623,623,623,623,623,623,623,623,623,623,623,623,623,623,623,623,623,623,623,623,623,623,623,623,623,623,623,623,623,623,623,623,623,623,623,623,623,623,623,623,623,623,623,623,623,617,589,563,533,447,394,343,298,267,250,226,210,203,196,178,171,164,160,156,154,143,132,121,104,67],"timestamp_mouse":[11,40,49,70,89,109,129,150,170,189,209,229,249,270,290,310,329,349,370,389,410,430,450,468,490,510,530,550,570,589,610,629,649,670,690,710,730,749,770,789,810,829,850,869,890,910,930,949,970,990,1009,1029,1048,1070,1090,1109,1129,1150,1170,1190,1210,1229,1249,1269,1290,1309,1329,1350,1369,1389,1410,1429,1450,1468,1488,1509,1530,1550,1570,1590,1610,1629,1650,1669,1689,1709,1730,1749,1769,1790,1809],"xSR":741.5,"ySR":573.95,"xT1":424.9,"yT1":0,"xT2":1058.1,"yT2":0,"toosoon":0,"cond_shown":"Incongruent","ratio_trial":300,"L_num":13,"L_den":26,"R_num":12,"R_den":15,"correct_side":2,"subjID":"Valeriabejarano33","gender":"1","school":"4","age":"9"},{"start_time":1552069172829,"click_time":1552069174619,"finger_time":1552069174379,"fix_duration":388.98361413725445,"trial":39,"RT":1550,"MT":240,"sideResp":1,"stimulus":[],"xmouse":[810,810,810,810,810,810,810,810,810,810,810,810,810,810,810,810,810,810,810,810,810,810,810,810,810,810,810,810,810,810,810,810,810,810,810,810,810,810,810,810,810,810,810,810,810,810,810,811,811,811,811,811,811,811,811,811,811,811,811,811,811,812,813,817,818,821,823,824,826,829,830,831,831,831,831,826,818,804,765,724,617,556,511,487,475,473,476,478,478,478],"ymouse":[639,639,639,639,639,639,639,639,639,639,639,639,639,639,639,639,639,639,639,639,639,639,639,639,639,639,639,639,639,639,639,639,639,639,639,639,639,639,639,639,639,639,639,639,639,639,639,639,639,639,639,639,639,639,639,639,639,639,639,638,638,637,633,627,623,616,613,611,609,608,608,607,607,606,604,594,579,562,516,470,346,276,220,187,168,151,145,136,122,96],"timestamp_mouse":[17,34,49,69,89,109,128,150,168,189,210,230,250,270,289,310,329,349,370,389,408,428,449,470,488,509,529,548,570,590,609,628,650,670,690,710,729,749,770,790,810,829,849,869,890,910,930,949,970,989,1010,1029,1050,1069,1090,1108,1129,1150,1170,1188,1210,1230,1250,1269,1290,1309,1330,1350,1369,1388,1410,1429,1449,1470,1489,1509,1530,1550,1569,1590,1609,1629,1649,1670,1690,1709,1730,1749,1768,1790],"xSR":741.5,"ySR":573.95,"xT1":424.9,"yT1":0,"xT2":1058.1,"yT2":0,"toosoon":0,"cond_shown":"Congruent","ratio_trial":200,"L_num":4,"L_den":8,"R_num":3,"R_den":10,"correct_side":1,"subjID":"Valeriabejarano33","gender":"1","school":"4","age":"9"},{"start_time":1552069176151,"click_time":1552069177658,"finger_time":1552069177539,"fix_duration":250,"trial":40,"RT":1388,"MT":119,"sideResp":1,"stimulus":[],"xmouse":[777,782,783,783,783,784,784,784,784,784,784,784,785,786,786,786,786,787,788,789,792,793,795,796,796,797,798,799,799,799,799,799,799,799,799,800,800,800,800,800,800,800,800,800,800,800,800,800,801,804,808,812,814,814,814,814,814,814,814,814,814,815,815,815,815,814,812,806,796,746,707,663,594,549,463,429],"ymouse":[626,626,626,626,626,626,626,626,626,626,626,626,626,626,626,626,626,626,626,625,625,625,625,625,625,625,625,625,625,625,625,625,625,625,625,625,625,625,625,625,625,625,625,625,625,625,625,625,625,620,615,610,609,609,609,609,609,609,609,609,609,609,609,609,609,609,609,606,596,543,497,446,348,282,133,57],"timestamp_mouse":[13,35,47,68,86,106,128,148,166,187,207,227,248,267,287,308,328,347,367,388,407,427,447,468,488,508,528,546,568,588,607,628,647,667,688,707,727,747,768,788,808,827,847,867,888,908,928,948,968,988,1006,1028,1047,1068,1087,1107,1127,1148,1168,1188,1206,1227,1248,1268,1288,1307,1328,1348,1367,1388,1407,1428,1448,1467,1487,1507],"xSR":741.5,"ySR":573.95,"xT1":424.9,"yT1":0,"xT2":1058.1,"yT2":0,"toosoon":0,"cond_shown":"Incongruent","ratio_trial":100,"L_num":3,"L_den":9,"R_num":7,"R_den":30,"correct_side":1,"subjID":"Valeriabejarano33","gender":"1","school":"4","age":"9"},{"start_time":1552069182389,"click_time":1552069183699,"finger_time":1552069183398,"fix_duration":1107.911085054709,"trial":41,"RT":1009,"MT":301,"sideResp":2,"stimulus":[],"xmouse":[811,811,811,811,811,811,811,811,811,811,811,811,811,811,811,811,811,811,811,811,811,811,811,811,811,811,811,811,811,811,811,811,811,811,811,811,811,811,811,811,811,811,811,811,811,811,811,811,815,824,834,844,853,875,903,917,942,972,988,993,996,1002,1013,1040,1051,1059],"ymouse":[636,636,636,636,636,636,636,636,636,636,636,636,636,636,636,636,636,636,636,636,636,636,636,636,636,636,636,636,636,636,636,636,636,636,636,636,636,636,636,636,636,636,636,636,636,636,636,633,607,584,548,520,487,413,333,302,243,176,141,134,128,114,94,59,44,32],"timestamp_mouse":[11,30,48,69,90,110,129,150,170,189,208,230,250,269,289,310,329,349,370,389,409,430,450,470,489,510,530,549,569,589,610,630,650,669,690,709,730,750,770,790,808,829,850,870,890,909,929,949,969,989,1009,1030,1050,1069,1090,1109,1129,1150,1169,1190,1209,1230,1249,1269,1289,1310],"xSR":741.5,"ySR":573.95,"xT1":424.9,"yT1":0,"xT2":1058.1,"yT2":0,"toosoon":0,"cond_shown":"Congruent","ratio_trial":200,"L_num":5,"L_den":10,"R_num":14,"R_den":20,"correct_side":2,"subjID":"Valeriabejarano33","gender":"1","school":"4","age":"9"},{"start_time":1552069187030,"click_time":1552069188999,"finger_time":1552069188458,"fix_duration":250,"trial":42,"RT":1428,"MT":541,"sideResp":1,"stimulus":[],"xmouse":[811,811,811,811,811,811,811,811,811,811,811,811,811,811,811,811,811,811,811,811,811,811,811,811,811,811,811,811,811,811,811,811,811,811,811,811,811,811,811,811,811,811,811,811,811,811,811,811,811,811,811,811,811,811,811,811,811,811,811,811,811,811,811,811,811,811,811,807,799,782,759,731,686,678,675,675,675,674,673,673,671,669,659,644,628,613,599,580,574,569,565,562,550,544,538,533,521,511,503],"ymouse":[631,631,631,631,631,631,631,631,631,631,631,631,631,631,631,631,631,631,631,631,631,631,631,631,631,631,631,631,631,631,631,631,631,631,631,631,631,631,631,631,631,631,631,631,631,631,631,631,631,631,631,631,631,631,631,631,631,631,631,631,631,631,631,631,631,631,631,631,625,613,596,576,503,459,426,404,388,373,368,359,343,319,264,231,213,200,191,187,185,184,181,179,163,156,146,135,115,104,93],"timestamp_mouse":[9,35,48,69,88,107,129,148,169,189,209,229,247,269,289,308,328,349,368,388,408,428,449,467,489,508,528,549,569,588,609,628,648,668,688,708,728,749,769,788,808,828,849,868,887,908,929,948,968,988,1009,1028,1049,1069,1088,1108,1129,1148,1169,1188,1208,1229,1248,1269,1289,1309,1329,1349,1369,1388,1409,1428,1449,1468,1489,1508,1529,1549,1568,1589,1609,1628,1648,1668,1688,1709,1728,1749,1768,1789,1808,1829,1849,1868,1888,1908,1929,1948,1969],"xSR":741.5,"ySR":573.95,"xT1":424.9,"yT1":0,"xT2":1058.1,"yT2":0,"toosoon":0,"cond_shown":"Incongruent","ratio_trial":200,"L_num":1,"L_den":3,"R_num":2,"R_den":15,"correct_side":1,"subjID":"Valeriabejarano33","gender":"1","school":"4","age":"9"},{"start_time":1552069190682,"click_time":1552069192419,"finger_time":1552069192118,"fix_duration":942.6491558386713,"trial":43,"RT":1436,"MT":301,"sideResp":1,"stimulus":[],"xmouse":[763,763,763,763,763,763,763,764,764,764,764,765,765,767,773,777,779,780,780,780,780,780,780,780,780,780,780,780,780,780,780,780,780,780,780,780,780,780,780,780,780,780,780,780,780,780,780,780,780,780,780,780,780,780,780,780,780,780,780,780,780,780,780,780,780,780,780,780,778,763,749,734,718,700,668,651,637,625,616,612,610,610,608,600,543,499,465],"ymouse":[614,614,614,614,614,614,614,614,614,614,614,614,614,615,620,622,624,625,625,625,625,625,625,625,625,625,625,625,625,625,625,625,625,625,625,625,625,625,625,625,625,625,625,625,625,625,625,625,625,625,625,625,625,625,625,625,625,625,625,625,625,625,625,625,625,625,625,625,625,614,602,581,552,516,438,403,373,352,334,314,301,288,271,251,167,116,84],"timestamp_mouse":[17,38,57,76,96,116,136,156,177,196,216,236,257,276,297,315,337,357,377,395,416,437,457,477,495,515,536,555,577,597,615,637,656,677,697,715,737,756,776,797,816,837,857,877,897,916,936,957,976,996,1016,1037,1056,1076,1097,1116,1136,1155,1176,1196,1217,1236,1257,1277,1296,1316,1336,1356,1377,1395,1416,1436,1457,1477,1496,1516,1537,1557,1577,1596,1616,1636,1657,1676,1696,1715,1737],"xSR":741.5,"ySR":573.95,"xT1":424.9,"yT1":0,"xT2":1058.1,"yT2":0,"toosoon":0,"cond_shown":"Incongruent","ratio_trial":100,"L_num":10,"L_den":25,"R_num":8,"R_den":16,"correct_side":2,"subjID":"Valeriabejarano33","gender":"1","school":"4","age":"9"},{"start_time":1552069197178,"click_time":1552069198538,"finger_time":1552069197898,"fix_duration":1077.874715508069,"trial":44,"RT":720,"MT":640,"sideResp":2,"stimulus":[],"xmouse":[795,795,795,796,796,796,796,796,796,796,796,796,796,796,796,796,796,796,796,796,796,796,796,796,796,796,796,796,796,796,796,796,800,804,810,835,855,882,918,957,1033,1074,1094,1117,1134,1144,1152,1154,1156,1158,1159,1161,1162,1162,1162,1162,1161,1158,1156,1152,1142,1137,1133,1131,1129,1124,1122,1115,1108],"ymouse":[632,632,632,632,633,633,633,633,633,633,633,633,633,633,633,633,633,633,633,633,633,633,633,633,633,633,633,633,633,633,633,633,633,626,618,587,563,529,495,466,406,353,321,290,268,254,243,240,236,232,226,210,203,196,190,185,178,173,168,161,139,130,121,118,115,111,109,103,97],"timestamp_mouse":[1,31,41,61,80,100,120,141,160,180,199,219,240,259,281,301,320,340,359,380,401,421,440,460,479,499,521,541,560,580,600,619,639,660,681,701,720,739,760,780,800,819,840,860,880,900,920,939,961,980,1000,1019,1040,1060,1080,1100,1120,1140,1160,1179,1201,1220,1239,1259,1280,1300,1319,1341,1360],"xSR":741.5,"ySR":573.95,"xT1":424.9,"yT1":0,"xT2":1058.1,"yT2":0,"toosoon":0,"cond_shown":"Congruent","ratio_trial":200,"L_num":1,"L_den":2,"R_num":21,"R_den":30,"correct_side":2,"subjID":"Valeriabejarano33","gender":"1","school":"4","age":"9"},{"start_time":1552069200801,"click_time":1552069202578,"finger_time":1552069201939,"fix_duration":1081.3762554972845,"trial":45,"RT":1138,"MT":639,"sideResp":1,"stimulus":[],"xmouse":[801,801,801,801,801,801,801,801,801,801,801,801,801,801,801,801,801,801,801,801,801,801,801,801,801,801,801,801,801,801,801,801,801,801,801,801,801,801,801,801,801,801,801,801,801,801,801,801,801,801,801,801,801,801,801,801,800,800,800,800,800,800,800,800,800,800,800,800,800,800,800,800,794,781,701,626,603,567,558,552,552,551,547,540,509,489,468,461,457],"ymouse":[611,611,611,611,611,611,611,611,611,611,611,611,611,611,611,611,611,611,611,611,611,611,611,611,611,611,611,611,611,611,611,611,611,611,611,611,611,611,611,611,611,611,611,611,611,611,611,611,611,611,611,611,611,611,608,584,572,535,519,511,511,511,511,511,511,511,511,511,511,511,511,507,483,453,319,193,153,73,43,18,13,9,4,0,0,0,0,0,3],"timestamp_mouse":[17,36,58,77,97,118,137,156,176,198,217,237,258,277,297,317,337,358,378,398,417,438,457,477,497,517,538,557,577,596,617,637,657,678,697,717,737,757,777,798,817,837,858,876,898,917,937,957,976,997,1017,1038,1056,1078,1097,1120,1138,1158,1178,1198,1216,1237,1257,1277,1297,1317,1336,1356,1377,1398,1416,1437,1458,1477,1497,1516,1537,1557,1578,1597,1617,1636,1657,1676,1698,1716,1738,1757,1777],"xSR":741.5,"ySR":573.95,"xT1":424.9,"yT1":0,"xT2":1058.1,"yT2":0,"toosoon":0,"cond_shown":"Incongruent","ratio_trial":300,"L_num":1,"L_den":2,"R_num":3,"R_den":15,"correct_side":1,"subjID":"Valeriabejarano33","gender":"1","school":"4","age":"9"},{"start_time":1552069205084,"click_time":1552069206438,"finger_time":1552069205959,"fix_duration":1305.7148729037706,"trial":46,"RT":875,"MT":479,"sideResp":2,"stimulus":[],"xmouse":[784,784,784,784,784,784,784,784,784,784,784,784,784,784,784,784,784,784,784,784,784,784,784,784,784,784,784,784,784,785,786,786,786,786,786,786,786,787,788,788,792,799,807,821,840,864,914,930,939,944,949,961,969,985,1002,1021,1053,1065,1069,1072,1072,1072,1073,1076,1079,1081,1082,1081],"ymouse":[617,617,617,617,617,617,617,617,617,617,617,617,617,617,617,617,617,617,617,617,617,617,617,617,617,617,618,618,619,621,621,621,621,621,621,621,621,621,621,619,615,602,589,568,534,480,351,302,271,250,235,211,202,196,188,181,163,155,152,147,147,147,145,141,134,125,106,95],"timestamp_mouse":[14,33,54,73,94,113,134,155,174,193,215,234,253,274,294,315,334,355,374,395,414,433,453,474,494,514,535,555,573,594,614,633,655,674,694,714,734,755,774,794,815,833,854,875,894,913,933,954,974,994,1014,1034,1054,1075,1094,1115,1135,1154,1174,1194,1214,1234,1253,1274,1295,1315,1334,1353],"xSR":741.5,"ySR":573.95,"xT1":424.9,"yT1":0,"xT2":1058.1,"yT2":0,"toosoon":0,"cond_shown":"Incongruent","ratio_trial":300,"L_num":13,"L_den":26,"R_num":12,"R_den":15,"correct_side":2,"subjID":"Valeriabejarano33","gender":"1","school":"4","age":"9"},{"start_time":1552069208069,"click_time":1552069209437,"finger_time":1552069209318,"fix_duration":690.93562548394,"trial":47,"RT":1249,"MT":119,"sideResp":1,"stimulus":[],"xmouse":[786,786,786,786,786,786,786,786,786,786,786,786,786,786,786,786,786,786,786,786,786,786,786,786,786,786,786,786,786,786,786,786,786,786,786,786,786,786,785,784,783,782,772,769,768,768,768,767,767,765,764,763,761,761,761,761,761,761,760,758,755,746,712,690,668,642,611,538,501],"ymouse":[648,648,648,648,648,648,648,648,648,648,648,648,648,648,648,648,648,648,648,648,648,648,648,648,648,648,648,648,648,648,648,648,648,648,648,648,648,648,648,648,648,648,642,640,639,639,639,639,638,636,633,630,628,628,628,628,628,628,625,622,614,595,529,487,435,371,298,146,92],"timestamp_mouse":[18,28,48,69,88,109,128,148,168,190,209,229,249,268,289,309,328,348,369,390,409,428,449,469,488,508,529,550,570,590,610,628,648,670,689,710,728,750,770,789,809,829,849,870,888,908,930,950,970,990,1009,1029,1050,1069,1089,1108,1129,1150,1169,1190,1210,1230,1249,1269,1290,1309,1330,1349,1368],"xSR":741.5,"ySR":573.95,"xT1":424.9,"yT1":0,"xT2":1058.1,"yT2":0,"toosoon":0,"cond_shown":"Incongruent","ratio_trial":100,"L_num":13,"L_den":26,"R_num":12,"R_den":20,"correct_side":2,"subjID":"Valeriabejarano33","gender":"1","school":"4","age":"9"},{"start_time":1552069213919,"click_time":1552069215259,"finger_time":1552069214758,"fix_duration":999.6204182436323,"trial":48,"RT":839,"MT":501,"sideResp":1,"stimulus":[],"xmouse":[806,806,806,806,805,805,805,805,805,805,805,804,804,804,804,804,804,804,804,804,804,803,803,802,802,802,802,802,802,801,801,801,801,801,801,801,801,801,801,801,796,791,779,765,742,649,609,585,570,559,540,536,532,529,525,522,515,510,505,504,504,510,516,524,528,526,511],"ymouse":[618,618,618,618,617,616,616,616,616,616,616,614,614,613,613,613,613,613,613,613,611,608,606,605,604,602,600,599,598,595,593,592,591,591,591,589,589,587,586,585,577,572,563,555,545,500,477,456,436,418,371,352,339,324,291,272,241,220,204,193,178,170,163,153,143,106,91],"timestamp_mouse":[32,39,60,78,99,118,140,160,179,200,219,240,259,279,298,318,339,358,379,400,420,438,459,479,499,520,539,560,580,600,620,639,660,679,699,719,739,759,780,799,819,839,859,879,899,918,940,960,980,999,1019,1039,1060,1079,1100,1118,1139,1158,1179,1198,1219,1239,1260,1279,1299,1320,1340],"xSR":741.5,"ySR":573.95,"xT1":424.9,"yT1":0,"xT2":1058.1,"yT2":0,"toosoon":0,"cond_shown":"Incongruent","ratio_trial":200,"L_num":7,"L_den":10,"R_num":12,"R_den":24,"correct_side":1,"subjID":"Valeriabejarano33","gender":"1","school":"4","age":"9"},{"start_time":1552069219358,"click_time":1552069221557,"finger_time":1552069220819,"fix_duration":1159.0323793788027,"trial":49,"RT":1461,"MT":738,"sideResp":2,"stimulus":[],"xmouse":[797,797,797,797,797,797,797,797,797,797,796,795,795,795,794,794,794,794,794,794,793,793,791,789,789,789,789,789,789,789,789,789,789,789,789,789,789,789,789,789,789,789,789,789,789,789,789,789,789,789,789,789,789,789,789,789,789,789,789,788,788,788,788,788,788,789,789,789,789,789,789,789,786,781,772,770,770,772,786,833,874,945,974,1044,1069,1102,1116,1124,1136,1154,1160,1166,1174,1177,1180,1181,1181,1180,1175,1160,1157,1157,1165,1174,1193,1200,1203,1202,1196,1169,1153],"ymouse":[605,605,605,605,605,605,605,605,605,605,606,606,606,606,606,606,606,606,606,606,607,607,607,607,607,607,607,607,607,607,607,607,607,607,607,607,607,607,607,607,607,607,607,607,607,607,607,607,607,607,607,607,607,607,607,607,607,607,607,607,607,607,607,606,602,600,598,597,596,594,592,589,581,572,556,551,548,543,537,524,510,488,475,428,401,333,300,273,249,223,214,208,201,195,183,176,170,161,156,141,137,131,121,112,84,65,49,37,30,27,27],"timestamp_mouse":[1,20,42,61,79,99,121,140,159,180,201,220,240,261,280,301,320,339,359,381,400,420,441,461,481,500,521,539,559,580,600,620,640,661,681,701,719,740,760,781,800,819,840,860,881,900,921,939,959,979,1001,1020,1040,1059,1080,1099,1120,1141,1159,1180,1200,1219,1240,1260,1280,1300,1320,1340,1361,1381,1400,1420,1440,1461,1480,1499,1519,1539,1559,1580,1601,1621,1639,1660,1680,1701,1720,1739,1760,1780,1800,1821,1840,1861,1879,1899,1921,1941,1961,1979,1999,2021,2040,2060,2080,2099,2119,2140,2161,2179,2199],"xSR":741.5,"ySR":573.95,"xT1":424.9,"yT1":0,"xT2":1058.1,"yT2":0,"toosoon":0,"cond_shown":"Congruent","ratio_trial":100,"L_num":8,"L_den":16,"R_num":2,"R_den":5,"correct_side":1,"subjID":"Valeriabejarano33","gender":"1","school":"4","age":"9"},{"start_time":1552069223281,"click_time":1552069224839,"finger_time":1552069224438,"fix_duration":542.4873527375602,"trial":50,"RT":1157,"MT":401,"sideResp":1,"stimulus":[],"xmouse":[795,795,796,796,796,796,796,796,796,796,796,796,796,796,796,796,796,796,796,796,796,796,796,796,796,796,796,796,796,796,796,796,796,796,796,796,796,797,797,797,797,797,797,797,797,797,797,797,797,796,796,796,796,796,795,793,791,775,762,740,696,652,571,552,546,549,549,552,554,552,547,542,539,534,533,531,528,523],"ymouse":[626,626,626,626,626,626,626,626,626,626,626,626,626,626,626,626,626,626,626,626,626,626,626,626,626,626,626,626,626,626,626,626,626,626,626,626,626,625,625,625,625,625,624,623,623,623,623,623,623,622,622,622,622,620,617,612,605,572,553,528,489,438,316,268,214,185,165,152,133,124,112,100,89,72,71,71,71,71],"timestamp_mouse":[20,40,56,78,97,117,136,158,177,198,217,237,257,278,297,317,337,358,377,397,416,438,458,477,497,518,537,557,577,596,617,638,656,677,698,716,737,756,776,798,818,837,856,877,896,918,936,957,978,996,1017,1037,1057,1077,1097,1117,1137,1157,1177,1197,1217,1236,1257,1276,1297,1318,1337,1356,1376,1396,1417,1438,1457,1478,1496,1516,1538,1558],"xSR":741.5,"ySR":573.95,"xT1":424.9,"yT1":0,"xT2":1058.1,"yT2":0,"toosoon":0,"cond_shown":"Incongruent","ratio_trial":300,"L_num":1,"L_den":2,"R_num":3,"R_den":15,"correct_side":1,"subjID":"Valeriabejarano33","gender":"1","school":"4","age":"9"},{"start_time":1552069228572,"click_time":1552069229878,"finger_time":1552069229459,"fix_duration":250,"trial":51,"RT":887,"MT":419,"sideResp":2,"stimulus":[],"xmouse":[793,793,793,793,793,793,793,793,793,793,793,793,793,793,793,793,793,793,793,793,793,793,793,793,793,793,793,793,793,793,793,793,793,793,793,794,795,798,802,811,815,819,823,828,845,864,893,959,1006,1106,1153,1188,1200,1206,1213,1217,1224,1238,1246,1250,1250,1242,1228,1211,1193,1155],"ymouse":[620,620,620,620,620,620,619,619,619,619,619,619,619,619,619,619,619,619,619,619,619,619,619,619,619,619,619,619,619,619,619,619,619,619,617,616,615,613,609,601,597,593,588,578,539,498,450,347,287,169,119,92,77,70,59,48,35,4,0,0,0,0,0,0,0,17],"timestamp_mouse":[11,28,46,66,86,107,125,147,166,186,206,226,245,266,286,305,325,346,365,386,406,426,445,465,487,506,525,547,567,586,606,627,646,666,686,707,727,746,766,786,807,826,846,867,887,906,926,947,965,985,1006,1026,1047,1067,1086,1106,1126,1145,1166,1187,1207,1225,1246,1267,1287,1305],"xSR":741.5,"ySR":573.95,"xT1":424.9,"yT1":0,"xT2":1058.1,"yT2":0,"toosoon":0,"cond_shown":"Congruent","ratio_trial":300,"L_num":5,"L_den":25,"R_num":6,"R_den":12,"correct_side":2,"subjID":"Valeriabejarano33","gender":"1","school":"4","age":"9"},{"start_time":1552069233880,"click_time":1552069235699,"finger_time":1552069235139,"fix_duration":1159.3257113189982,"trial":52,"RT":1259,"MT":560,"sideResp":1,"stimulus":[],"xmouse":[818,818,818,818,819,819,819,819,819,819,819,819,819,819,819,819,819,819,819,819,819,819,819,819,819,819,819,819,819,819,819,819,819,819,819,819,819,819,819,819,819,819,819,819,819,819,819,819,819,819,819,819,819,819,819,819,818,816,812,782,763,744,727,714,691,673,645,601,572,535,530,529,528,528,526,518,508,496,488,487,487,487,487,487,488,488,488,488,488,488,490],"ymouse":[650,650,650,650,648,648,648,648,648,648,648,648,648,648,648,648,648,648,648,648,648,648,648,648,648,648,648,648,648,648,648,648,648,648,648,648,648,648,648,645,644,643,641,641,641,641,641,641,641,6