[{"start_time":1552069877169,"click_time":1552069879683,"finger_time":1552069877183,"fix_duration":901.509863836909,"trial":0,"RT":14,"MT":2500,"sideResp":1,"stimulus":"img/750/randomdotsizeEA/L/9_Ratio_750_L_4_R_3.png","xmouse":[797,797,797,797,797,797,797,797,797,797,797,797,797,797,797,797,797,797,797,797,797,797,797,797,797,797,797,797,797,797,797,797,797,797,797,797,797,797,797,797,797,797,797,797,797,797,797,797,798,799,802,805,810,811,811,812,812,812,812,812,810,808,808,808,807,806,805,805,804,804,803,803,803,803,803,803,803,803,803,801,800,798,797,797,797,799,799,799,794,791,789,788,788,788,788,785,784,782,781,778,774,772,767,756,743,719,715,713,713,711,688,668,646,625,596,583,561,546,532,518,503,489,489,489,489,489],"ymouse":[555,555,555,555,555,555,555,555,555,555,555,555,555,555,555,555,555,555,555,555,555,555,555,555,555,555,555,555,555,555,555,555,555,555,555,555,555,555,555,555,555,555,555,555,555,555,555,559,567,575,586,592,600,604,607,610,610,610,611,614,618,620,621,622,623,626,628,628,630,631,631,631,631,631,631,631,631,631,631,631,630,623,620,616,612,594,576,557,540,529,522,520,520,519,516,509,506,503,498,490,458,428,380,324,280,232,225,223,222,220,211,202,193,184,172,166,154,144,134,123,113,103,103,103,103,99],"timestamp_mouse":[14,34,53,74,93,114,134,154,173,194,214,235,255,274,293,313,334,354,374,393,414,434,454,474,493,515,535,554,574,593,614,634,655,674,695,714,734,754,774,795,815,835,854,874,893,914,934,954,974,994,1014,1035,1055,1074,1093,1113,1133,1154,1174,1193,1214,1234,1254,1275,1293,1313,1334,1355,1374,1393,1413,1435,1454,1473,1494,1515,1534,1554,1574,1594,1613,1633,1654,1674,1695,1714,1734,1753,1774,1794,1814,1835,1853,1873,1895,1913,1933,1954,1974,1993,2014,2033,2053,2073,2093,2113,2133,2154,2173,2193,2213,2233,2255,2273,2293,2313,2333,2354,2374,2394,2414,2433,2454,2473,2494,2513],"xSR":741.5,"ySR":501.8,"xT1":424.9,"yT1":0,"xT2":1058.1,"yT2":0,"toosoon":0,"cond_shown":"randomdotsizeEA","ratio_trial":750,"smaller_num":"3","larger_num":"4","correct_side":1,"subjID":"ValeriaBejarano33","gender":"1","age":"9","school":"4","test":{"fix_dur":[250,1500],"timestim":300,"targets_dim":[100,100],"targets_relative_coord":[0.3,0.7],"size_stim":[880,420],"start_dim":[100,100],"size_start":[300,300],"size_fix":60,"samplingrate":20,"img_types":["equaldotsize","equaldotanddens","randomdotsizeEA"],"ratios":[250,500,750,900],"rep_conds":9,"nTrials":120,"trials_to_rest":500,"Trials_order":[20,87,54,98,22,116,109,100,2,33,69,34,46,84,48,38,36,13,53,16,114,66,91,37,19,119,92,55,74,65,1,47,41,27,62,95,88,39,58,83,45,94,68,18,89,76,29,97,61,49,73,86,64,93,67,113,51,111,104,5,75,80,96,57,79,43,71,11,21,44,32,24,112,110,85,25,6,102,78,28,59,52,63,107,108,10,99,42,26,3,35,23,17,14,81,8,117,9,15,0,60,12,7,105,103,115,30,77,118,82,31,101,90,56,72,40,70,4,106,50],"cond_shown":["randomdotsizeEA","equaldotsize","equaldotsize","randomdotsizeEA","equaldotanddens","randomdotsizeEA","equaldotanddens","equaldotanddens","randomdotsizeEA","equaldotsize","equaldotsize","equaldotanddens","equaldotanddens","equaldotsize","equaldotsize","randomdotsizeEA","equaldotsize","equaldotanddens","randomdotsizeEA","equaldotanddens","equaldotsize","equaldotsize","equaldotanddens","equaldotanddens","equaldotanddens","randomdotsizeEA","randomdotsizeEA","equaldotanddens","randomdotsizeEA","randomdotsizeEA","equaldotanddens","randomdotsizeEA","randomdotsizeEA","equaldotsize","randomdotsizeEA","randomdotsizeEA","equaldotanddens","equaldotsize","equaldotanddens","randomdotsizeEA","equaldotsize","equaldotanddens","randomdotsizeEA","equaldotsize","randomdotsizeEA","equaldotanddens","randomdotsizeEA","equaldotanddens","equaldotanddens","equaldotanddens","equaldotanddens","randomdotsizeEA","equaldotanddens","equaldotsize","equaldotanddens","randomdotsizeEA","equaldotsize","equaldotsize","randomdotsizeEA","randomdotsizeEA","equaldotsize","randomdotsizeEA","equaldotsize","equaldotsize","equaldotanddens","equaldotanddens","randomdotsizeEA","randomdotsizeEA","equaldotsize","randomdotsizeEA","randomdotsizeEA","equaldotsize","equaldotanddens","randomdotsizeEA","equaldotanddens","equaldotanddens","equaldotsize","equaldotsize","equaldotsize","equaldotanddens","randomdotsizeEA","equaldotanddens","equaldotsize","randomdotsizeEA","equaldotsize","equaldotanddens","equaldotsize","equaldotsize","randomdotsizeEA","equaldotsize","randomdotsizeEA","randomdotsizeEA","randomdotsizeEA","randomdotsizeEA","equaldotsize","randomdotsizeEA","equaldotsize","equaldotsize","equaldotsize","equaldotsize","equaldotsize","equaldotsize","equaldotanddens","equaldotsize","equaldotanddens","equaldotanddens","equaldotsize","randomdotsizeEA","equaldotanddens","equaldotanddens","equaldotanddens","randomdotsizeEA","equaldotsize","randomdotsizeEA","equaldotsize","equaldotanddens","equaldotanddens","equaldotanddens","equaldotanddens","randomdotsizeEA"],"ratio_trial":[750,500,750,250,900,750,250,500,250,900,900,900,900,250,250,250,250,250,500,500,750,750,750,250,750,900,750,750,250,500,250,900,500,500,250,900,500,500,900,900,900,900,750,750,500,500,500,250,250,250,250,250,500,900,750,500,500,500,750,500,500,750,250,900,750,750,900,900,900,750,750,250,500,250,250,250,750,750,750,500,900,500,500,900,250,900,500,750,250,500,900,900,500,250,900,750,900,900,500,250,250,250,750,900,750,750,750,500,900,900,750,500,750,750,250,500,900,500,900,250],"smaller_num":["3","9","3","3","18","12","2","10","3","9","9","18","9","1","2","6","4","2","9","5","15","15","3","2","15","18","15","3","4","6","3","18","1","9","3","18","5","4","18","9","18","18","9","15","1","9","9","4","2","3","6","2","9","18","15","5","2","2","6","10","3","3","2","9","18","15","18","18","18","18","15","2","4","6","2","4","6","3","6","2","18","2","2","18","6","18","2","15","3","2","18","9","3","5","18","6","18","18","6","3","4","1","15","18","3","18","9","4","9","18","15","10","15","15","3","1","18","4","18","6"],"larger_num":["4","18","4","12","20","16","8","20","12","10","10","20","10","4","8","24","16","8","18","10","20","20","4","8","20","20","20","4","16","12","12","20","2","18","12","20","10","8","20","10","20","20","12","20","2","18","18","16","8","12","24","8","18","20","20","10","4","4","8","20","6","4","8","10","24","20","20","20","20","24","20","8","8","24","8","16","8","4","8","4","20","4","4","20","24","20","4","20","12","4","20","10","6","20","20","8","20","20","12","12","16","4","20","20","4","24","12","8","10","20","20","20","20","20","12","2","20","8","20","24"],"correct_side":[1,2,1,2,1,2,1,2,1,2,2,1,2,2,1,2,1,1,2,1,2,2,1,1,1,1,1,1,2,1,1,1,2,1,2,1,1,1,2,2,2,2,2,2,2,1,1,2,2,2,1,2,1,2,2,2,1,1,1,2,2,1,1,1,1,1,1,1,1,1,2,1,1,1,2,1,1,1,2,2,1,1,1,1,1,1,2,1,2,1,1,2,2,2,1,2,1,1,1,1,2,2,2,2,2,1,2,1,2,2,1,2,1,1,2,2,2,1,1,2],"img_shown":["img/750/randomdotsizeEA/L/9_Ratio_750_L_4_R_3.png","img/500/equaldotsize/R/1_Ratio_500_L_9_R_18.png","img/750/equaldotsize/L/8_Ratio_750_L_4_R_3.png","img/250/randomdotsizeEA/R/9_Ratio_250_L_3_R_12.png","img/900/equaldotanddens/L/2_Ratio_900_L_20_R_18.png","img/750/randomdotsizeEA/R/11_Ratio_750_L_12_R_16.png","img/250/equaldotanddens/L/1_Ratio_250_L_8_R_2.png","img/500/equaldotanddens/R/3_Ratio_500_L_10_R_20.png","img/250/randomdotsizeEA/L/14_Ratio_250_L_12_R_3.png","img/900/equaldotsize/R/7_Ratio_900_L_9_R_10.png","img/900/equaldotsize/R/6_Ratio_900_L_9_R_10.png","img/900/equaldotanddens/L/8_Ratio_900_L_20_R_18.png","img/900/equaldotanddens/R/6_Ratio_900_L_9_R_10.png","img/250/equaldotsize/R/8_Ratio_250_L_1_R_4.png","img/250/equaldotsize/L/1_Ratio_250_L_8_R_2.png","img/250/randomdotsizeEA/R/6_Ratio_250_L_6_R_24.png","img/250/equaldotsize/L/2_Ratio_250_L_16_R_4.png","img/250/equaldotanddens/L/3_Ratio_250_L_8_R_2.png","img/500/randomdotsizeEA/R/6_Ratio_500_L_9_R_18.png","img/500/equaldotanddens/L/7_Ratio_500_L_10_R_5.png","img/750/equaldotsize/R/3_Ratio_750_L_15_R_20.png","img/750/equaldotsize/R/5_Ratio_750_L_15_R_20.png","img/750/equaldotanddens/L/10_Ratio_750_L_4_R_3.png","img/250/equaldotanddens/L/1_Ratio_250_L_8_R_2.png","img/750/equaldotanddens/L/1_Ratio_750_L_20_R_15.png","img/900/randomdotsizeEA/L/4_Ratio_900_L_20_R_18.png","img/750/randomdotsizeEA/L/1_Ratio_750_L_20_R_15.png","img/750/equaldotanddens/L/8_Ratio_750_L_4_R_3.png","img/250/randomdotsizeEA/R/10_Ratio_250_L_4_R_16.png","img/500/randomdotsizeEA/L/13_Ratio_500_L_12_R_6.png","img/250/equaldotanddens/L/15_Ratio_250_L_12_R_3.png","img/900/randomdotsizeEA/L/10_Ratio_900_L_20_R_18.png","img/500/randomdotsizeEA/R/15_Ratio_500_L_1_R_2.png","img/500/equaldotsize/L/4_Ratio_500_L_18_R_9.png","img/250/randomdotsizeEA/R/9_Ratio_250_L_3_R_12.png","img/900/randomdotsizeEA/L/10_Ratio_900_L_20_R_18.png","img/500/equaldotanddens/L/7_Ratio_500_L_10_R_5.png","img/500/equaldotsize/L/8_Ratio_500_L_8_R_4.png","img/900/equaldotanddens/R/11_Ratio_900_L_18_R_20.png","img/900/randomdotsizeEA/R/7_Ratio_900_L_9_R_10.png","img/900/equaldotsize/R/14_Ratio_900_L_18_R_20.png","img/900/equaldotanddens/R/11_Ratio_900_L_18_R_20.png","img/750/randomdotsizeEA/R/15_Ratio_750_L_9_R_12.png","img/750/equaldotsize/R/5_Ratio_750_L_15_R_20.png","img/500/randomdotsizeEA/R/15_Ratio_500_L_1_R_2.png","img/500/equaldotanddens/L/4_Ratio_500_L_18_R_9.png","img/500/randomdotsizeEA/L/4_Ratio_500_L_18_R_9.png","img/250/equaldotanddens/R/10_Ratio_250_L_4_R_16.png","img/250/equaldotanddens/R/13_Ratio_250_L_2_R_8.png","img/250/equaldotanddens/R/4_Ratio_250_L_3_R_12.png","img/250/equaldotanddens/L/5_Ratio_250_L_24_R_6.png","img/250/randomdotsizeEA/R/13_Ratio_250_L_2_R_8.png","img/500/equaldotanddens/L/4_Ratio_500_L_18_R_9.png","img/900/equaldotsize/R/12_Ratio_900_L_18_R_20.png","img/750/equaldotanddens/R/5_Ratio_750_L_15_R_20.png","img/500/randomdotsizeEA/R/14_Ratio_500_L_5_R_10.png","img/500/equaldotsize/L/10_Ratio_500_L_4_R_2.png","img/500/equaldotsize/L/5_Ratio_500_L_4_R_2.png","img/750/randomdotsizeEA/L/14_Ratio_750_L_8_R_6.png","img/500/randomdotsizeEA/R/3_Ratio_500_L_10_R_20.png","img/500/equaldotsize/R/2_Ratio_500_L_3_R_6.png","img/750/randomdotsizeEA/L/10_Ratio_750_L_4_R_3.png","img/250/equaldotsize/L/3_Ratio_250_L_8_R_2.png","img/900/equaldotsize/L/1_Ratio_900_L_10_R_9.png","img/750/equaldotanddens/L/6_Ratio_750_L_24_R_18.png","img/750/equaldotanddens/L/1_Ratio_750_L_20_R_15.png","img/900/randomdotsizeEA/L/2_Ratio_900_L_20_R_18.png","img/900/randomdotsizeEA/L/2_Ratio_900_L_20_R_18.png","img/900/equaldotsize/L/8_Ratio_900_L_20_R_18.png","img/750/randomdotsizeEA/L/6_Ratio_750_L_24_R_18.png","img/750/randomdotsizeEA/R/3_Ratio_750_L_15_R_20.png","img/250/equaldotsize/L/3_Ratio_250_L_8_R_2.png","img/500/equaldotanddens/L/8_Ratio_500_L_8_R_4.png","img/250/randomdotsizeEA/L/5_Ratio_250_L_24_R_6.png","img/250/equaldotanddens/R/13_Ratio_250_L_2_R_8.png","img/250/equaldotanddens/L/2_Ratio_250_L_16_R_4.png","img/750/equaldotsize/L/13_Ratio_750_L_8_R_6.png","img/750/equaldotsize/L/9_Ratio_750_L_4_R_3.png","img/750/equaldotsize/R/2_Ratio_750_L_6_R_8.png","img/500/equaldotanddens/R/9_Ratio_500_L_2_R_4.png","img/900/randomdotsizeEA/L/8_Ratio_900_L_20_R_18.png","img/500/equaldotanddens/L/5_Ratio_500_L_4_R_2.png","img/500/equaldotsize/L/5_Ratio_500_L_4_R_2.png","img/900/randomdotsizeEA/L/10_Ratio_900_L_20_R_18.png","img/250/equaldotsize/L/5_Ratio_250_L_24_R_6.png","img/900/equaldotanddens/L/8_Ratio_900_L_20_R_18.png","img/500/equaldotsize/R/9_Ratio_500_L_2_R_4.png","img/750/equaldotsize/L/1_Ratio_750_L_20_R_15.png","img/250/randomdotsizeEA/R/9_Ratio_250_L_3_R_12.png","img/500/equaldotsize/L/5_Ratio_500_L_4_R_2.png","img/900/randomdotsizeEA/L/10_Ratio_900_L_20_R_18.png","img/900/randomdotsizeEA/R/5_Ratio_900_L_9_R_10.png","img/500/randomdotsizeEA/R/2_Ratio_500_L_3_R_6.png","img/250/randomdotsizeEA/R/12_Ratio_250_L_5_R_20.png","img/900/equaldotsize/L/8_Ratio_900_L_20_R_18.png","img/750/randomdotsizeEA/R/2_Ratio_750_L_6_R_8.png","img/900/equaldotsize/L/8_Ratio_900_L_20_R_18.png","img/900/equaldotsize/L/2_Ratio_900_L_20_R_18.png","img/500/equaldotsize/L/11_Ratio_500_L_12_R_6.png","img/250/equaldotsize/L/15_Ratio_250_L_12_R_3.png","img/250/equaldotsize/R/10_Ratio_250_L_4_R_16.png","img/250/equaldotsize/R/8_Ratio_250_L_1_R_4.png","img/750/equaldotanddens/R/4_Ratio_750_L_15_R_20.png","img/900/equaldotsize/R/11_Ratio_900_L_18_R_20.png","img/750/equaldotanddens/R/7_Ratio_750_L_3_R_4.png","img/750/equaldotanddens/L/6_Ratio_750_L_24_R_18.png","img/750/equaldotsize/R/15_Ratio_750_L_9_R_12.png","img/500/randomdotsizeEA/L/8_Ratio_500_L_8_R_4.png","img/900/equaldotanddens/R/5_Ratio_900_L_9_R_10.png","img/900/equaldotanddens/R/14_Ratio_900_L_18_R_20.png","img/750/equaldotanddens/L/1_Ratio_750_L_20_R_15.png","img/500/randomdotsizeEA/R/3_Ratio_500_L_10_R_20.png","img/750/equaldotsize/L/1_Ratio_750_L_20_R_15.png","img/750/randomdotsizeEA/L/1_Ratio_750_L_20_R_15.png","img/250/equaldotsize/R/4_Ratio_250_L_3_R_12.png","img/500/equaldotanddens/R/12_Ratio_500_L_1_R_2.png","img/900/equaldotanddens/R/13_Ratio_900_L_18_R_20.png","img/500/equaldotanddens/L/8_Ratio_500_L_8_R_4.png","img/900/equaldotanddens/L/10_Ratio_900_L_20_R_18.png","img/250/randomdotsizeEA/R/6_Ratio_250_L_6_R_24.png"],"Rat0":[["12_Ratio_0_L_9_R_0.png","13_Ratio_0_L_6_R_0.png","5_Ratio_0_L_2_R_0.png","6_Ratio_0_L_4_R_0.png","8_Ratio_0_L_6_R_0.png"],["1_Ratio_0_L_0_R_17.png","10_Ratio_0_L_0_R_22.png","11_Ratio_0_L_0_R_1.png","14_Ratio_0_L_0_R_24.png","15_Ratio_0_L_0_R_4.png","2_Ratio_0_L_0_R_5.png","3_Ratio_0_L_0_R_17.png","4_Ratio_0_L_0_R_7.png","7_Ratio_0_L_0_R_19.png","9_Ratio_0_L_0_R_15.png"]],"Rat250":[["1_Ratio_250_L_8_R_2.png","14_Ratio_250_L_12_R_3.png","15_Ratio_250_L_12_R_3.png","2_Ratio_250_L_16_R_4.png","3_Ratio_250_L_8_R_2.png","5_Ratio_250_L_24_R_6.png","7_Ratio_250_L_8_R_2.png"],["10_Ratio_250_L_4_R_16.png","11_Ratio_250_L_3_R_12.png","12_Ratio_250_L_5_R_20.png","13_Ratio_250_L_2_R_8.png","4_Ratio_250_L_3_R_12.png","6_Ratio_250_L_6_R_24.png","8_Ratio_250_L_1_R_4.png","9_Ratio_250_L_3_R_12.png"]],"Rat500":[["10_Ratio_500_L_4_R_2.png","11_Ratio_500_L_12_R_6.png","13_Ratio_500_L_12_R_6.png","4_Ratio_500_L_18_R_9.png","5_Ratio_500_L_4_R_2.png","7_Ratio_500_L_10_R_5.png","8_Ratio_500_L_8_R_4.png"],["1_Ratio_500_L_9_R_18.png","12_Ratio_500_L_1_R_2.png","14_Ratio_500_L_5_R_10.png","15_Ratio_500_L_1_R_2.png","2_Ratio_500_L_3_R_6.png","3_Ratio_500_L_10_R_20.png","6_Ratio_500_L_9_R_18.png","9_Ratio_500_L_2_R_4.png"]],"Rat750":[["1_Ratio_750_L_20_R_15.png","10_Ratio_750_L_4_R_3.png","13_Ratio_750_L_8_R_6.png","14_Ratio_750_L_8_R_6.png","6_Ratio_750_L_24_R_18.png","8_Ratio_750_L_4_R_3.png","9_Ratio_750_L_4_R_3.png"],["11_Ratio_750_L_12_R_16.png","12_Ratio_750_L_3_R_4.png","15_Ratio_750_L_9_R_12.png","2_Ratio_750_L_6_R_8.png","3_Ratio_750_L_15_R_20.png","4_Ratio_750_L_15_R_20.png","5_Ratio_750_L_15_R_20.png","7_Ratio_750_L_3_R_4.png"]],"Rat900":[["1_Ratio_900_L_10_R_9.png","10_Ratio_900_L_20_R_18.png","2_Ratio_900_L_20_R_18.png","4_Ratio_900_L_20_R_18.png","8_Ratio_900_L_20_R_18.png"],["11_Ratio_900_L_18_R_20.png","12_Ratio_900_L_18_R_20.png","13_Ratio_900_L_18_R_20.png","14_Ratio_900_L_18_R_20.png","15_Ratio_900_L_9_R_10.png","3_Ratio_900_L_9_R_10.png","5_Ratio_900_L_9_R_10.png","6_Ratio_900_L_9_R_10.png","7_Ratio_900_L_9_R_10.png","9_Ratio_900_L_18_R_20.png"]],"Rat1000":[["10_Ratio_1000_L_16_R_16.png","11_Ratio_1000_L_6_R_6.png","12_Ratio_1000_L_14_R_14.png","13_Ratio_1000_L_20_R_20.png","15_Ratio_1000_L_15_R_15.png","2_Ratio_1000_L_17_R_17.png","4_Ratio_1000_L_9_R_9.png","5_Ratio_1000_L_6_R_6.png","6_Ratio_1000_L_19_R_19.png","8_Ratio_1000_L_14_R_14.png","9_Ratio_1000_L_25_R_25.png"],["1_Ratio_1000_L_1_R_1.png","14_Ratio_1000_L_17_R_17.png","3_Ratio_1000_L_17_R_17.png","7_Ratio_1000_L_6_R_6.png"]]}},{"start_time":1552069881654,"click_time":1552069882803,"finger_time":1552069882342,"fix_duration":1168.8381807512578,"trial":1,"RT":688,"MT":461,"sideResp":2,"stimulus":"img/500/equaldotsize/R/1_Ratio_500_L_9_R_18.png","xmouse":[784,784,784,784,784,784,784,784,784,784,784,784,784,784,784,784,784,784,784,784,784,784,784,784,784,784,784,784,784,784,784,784,788,794,800,803,799,784,786,803,841,869,933,958,978,996,1021,1024,1026,1027,1031,1034,1038,1039,1039,1041,1043,1059],"ymouse":[627,627,627,627,627,627,627,627,627,627,627,627,627,627,627,627,627,627,627,627,627,627,627,627,627,627,627,627,627,627,627,627,615,590,549,499,437,316,297,283,267,262,247,233,218,199,163,158,153,148,136,127,113,111,110,108,104,83],"timestamp_mouse":[8,40,50,68,89,109,129,148,169,188,210,229,248,270,289,310,330,348,370,388,408,430,449,468,488,510,530,549,568,588,608,630,648,668,688,708,729,750,769,789,810,829,849,869,890,910,929,948,968,988,1009,1029,1049,1068,1088,1108,1129,1148],"xSR":741.5,"ySR":573.95,"xT1":424.9,"yT1":0,"xT2":1058.1,"yT2":0,"toosoon":0,"cond_shown":"equaldotsize","ratio_trial":500,"smaller_num":"9","larger_num":"18","correct_side":2,"subjID":"ValeriaBejarano33","gender":"1","age":"9","school":"4"},{"start_time":1552069884255,"click_time":1552069885402,"finger_time":1552069884963,"fix_duration":250,"trial":2,"RT":708,"MT":439,"sideResp":1,"stimulus":"img/750/equaldotsize/L/8_Ratio_750_L_4_R_3.png","xmouse":[810,810,810,810,810,810,810,810,810,810,810,810,810,810,810,810,810,810,810,810,810,810,810,810,810,810,810,810,810,810,812,817,825,827,827,823,818,809,805,801,798,791,772,759,744,727,704,651,613,594,579,572,567,566,562,555,543,499],"ymouse":[639,639,639,639,639,639,639,639,639,639,639,639,639,639,639,639,639,639,639,639,639,639,639,639,639,639,639,639,639,639,637,632,609,594,577,558,539,504,482,467,449,430,389,367,343,312,267,183,140,123,112,108,105,104,100,92,82,56],"timestamp_mouse":[10,28,47,67,87,108,128,147,168,189,208,229,248,267,288,308,328,349,368,387,407,429,447,468,488,507,528,547,567,588,608,628,648,667,688,708,728,747,768,787,809,827,847,868,888,908,927,947,968,987,1008,1028,1047,1068,1088,1108,1127,1147],"xSR":741.5,"ySR":573.95,"xT1":424.9,"yT1":0,"xT2":1058.1,"yT2":0,"toosoon":0,"cond_shown":"equaldotsize","ratio_trial":750,"smaller_num":"3","larger_num":"4","correct_side":1,"subjID":"ValeriaBejarano33","gender":"1","age":"9","school":"4"},{"start_time":1552069886603,"click_time":1552069888003,"finger_time":1552069887423,"fix_duration":338.53608329300556,"trial":3,"RT":820,"MT":580,"sideResp":1,"stimulus":"img/250/randomdotsizeEA/R/9_Ratio_250_L_3_R_12.png","xmouse":[798,798,798,798,798,798,798,798,798,798,798,798,798,798,798,798,798,798,798,798,799,799,799,799,799,799,799,799,799,799,799,799,799,799,799,799,799,801,803,804,804,797,785,764,733,650,620,594,574,563,560,560,557,551,540,520,515,513,512,510,499,490,483,480,477,475,473,471,468,462,457],"ymouse":[629,629,629,629,629,629,629,629,629,629,629,629,629,629,629,629,629,629,629,629,631,631,631,631,631,631,631,631,631,631,631,631,628,626,625,620,618,613,608,602,579,564,544,520,483,381,335,303,281,269,255,244,227,210,190,168,164,162,159,156,142,136,132,129,128,126,125,122,115,107,99],"timestamp_mouse":[8,30,40,60,79,101,119,139,160,179,200,219,239,259,280,300,320,340,360,379,400,421,440,459,481,500,521,539,559,580,599,620,641,660,679,700,719,740,759,780,800,820,840,861,880,900,919,940,961,980,1000,1019,1039,1061,1081,1100,1121,1140,1160,1180,1199,1219,1240,1261,1280,1300,1320,1339,1359,1379,1399],"xSR":741.5,"ySR":573.95,"xT1":424.9,"yT1":0,"xT2":1058.1,"yT2":0,"toosoon":0,"cond_shown":"randomdotsizeEA","ratio_trial":250,"smaller_num":"3","larger_num":"12","correct_side":2,"subjID":"ValeriaBejarano33","gender":"1","age":"9","school":"4"},{"start_time":1552069890458,"click_time":1552069892304,"finger_time":1552069891184,"fix_duration":1493.1009608047827,"trial":4,"RT":726,"MT":1120,"sideResp":2,"stimulus":"img/900/equaldotanddens/L/2_Ratio_900_L_20_R_18.png","xmouse":[783,783,783,783,784,784,784,784,784,784,784,784,784,784,784,784,784,784,784,784,784,784,784,784,784,784,784,784,784,784,784,785,788,793,797,805,823,842,877,888,897,903,908,921,928,940,947,951,955,957,958,959,961,961,962,962,963,968,984,989,994,999,1001,1002,1002,1002,1002,1002,1008,1014,1018,1022,1026,1030,1033,1035,1038,1041,1048,1049,1049,1049,1049,1049,1049,1049,1049,1049,1049,1049,1049,1053,1069],"ymouse":[639,639,638,637,636,636,636,636,636,636,636,636,636,636,636,636,636,636,636,636,636,636,636,636,636,636,636,636,636,636,636,634,629,621,610,591,552,520,460,437,419,406,396,375,366,350,338,331,324,321,318,313,309,305,300,288,235,194,90,49,22,9,5,4,4,4,4,4,4,8,9,11,13,13,13,13,12,10,8,7,7,7,7,7,7,7,7,7,7,7,7,9,21],"timestamp_mouse":[9,31,46,64,85,104,125,144,164,185,206,224,244,266,286,305,325,344,366,384,405,426,445,465,484,505,526,544,565,585,605,625,646,665,684,704,726,746,766,784,805,824,844,864,885,904,924,945,966,984,1005,1024,1046,1064,1085,1105,1124,1144,1165,1184,1204,1225,1246,1265,1284,1305,1325,1344,1365,1384,1404,1424,1445,1465,1485,1505,1525,1544,1564,1584,1605,1625,1645,1665,1686,1705,1724,1745,1765,1785,1806,1824,1846],"xSR":741.5,"ySR":573.95,"xT1":424.9,"yT1":0,"xT2":1058.1,"yT2":0,"toosoon":0,"cond_shown":"equaldotanddens","ratio_trial":900,"smaller_num":"18","larger_num":"20","correct_side":1,"subjID":"ValeriaBejarano33","gender":"1","age":"9","school":"4"},{"start_time":1552069893671,"click_time":1552069894822,"finger_time":1552069894503,"fix_duration":445.9007161575401,"trial":5,"RT":832,"MT":319,"sideResp":1,"stimulus":"img/750/randomdotsizeEA/R/11_Ratio_750_L_12_R_16.png","xmouse":[832,832,832,832,831,829,825,818,814,811,810,810,810,809,808,807,806,804,803,803,803,802,801,800,800,800,800,800,800,800,800,800,800,800,800,801,804,808,810,813,814,814,809,805,792,785,779,773,772,768,760,750,704,647,613,586,558,524],"ymouse":[618,618,618,618,619,620,620,621,622,622,622,622,622,622,622,622,622,623,624,624,624,625,626,628,628,628,628,628,628,628,628,625,617,611,602,597,595,590,586,581,576,569,533,523,502,488,477,456,446,432,417,393,322,247,200,153,114,69],"timestamp_mouse":[13,37,52,71,92,113,132,151,172,192,212,232,251,273,292,312,331,351,371,392,413,431,451,473,492,512,532,551,571,591,612,633,652,672,691,712,732,751,771,792,812,832,851,872,891,912,932,951,973,991,1011,1032,1051,1071,1091,1112,1132,1151],"xSR":741.5,"ySR":573.95,"xT1":424.9,"yT1":0,"xT2":1058.1,"yT2":0,"toosoon":0,"cond_shown":"randomdotsizeEA","ratio_trial":750,"smaller_num":"12","larger_num":"16","correct_side":2,"subjID":"ValeriaBejarano33","gender":"1","age":"9","school":"4"},{"start_time":1552069897054,"click_time":1552069898443,"finger_time":1552069897882,"fix_duration":1290.4101193023919,"trial":6,"RT":828,"MT":561,"sideResp":1,"stimulus":"img/250/equaldotanddens/L/1_Ratio_250_L_8_R_2.png","xmouse":[791,791,791,791,791,791,791,791,791,791,791,791,791,791,791,791,791,791,791,791,791,791,791,791,791,791,791,791,791,791,791,791,792,800,803,804,805,806,808,810,811,813,813,803,792,781,764,745,708,686,669,659,652,647,647,647,644,640,621,610,600,591,577,569,560,557,550,538,527,516],"ymouse":[629,629,629,629,629,629,629,629,629,629,629,629,629,629,629,629,629,629,629,629,629,629,629,629,629,629,629,629,629,629,629,629,627,614,611,609,606,605,599,589,575,558,536,470,432,389,326,264,136,78,34,14,4,0,0,0,0,0,0,0,0,5,21,33,45,46,49,52,54,58],"timestamp_mouse":[9,30,50,68,89,109,130,149,169,188,210,230,248,268,289,309,329,349,370,389,409,430,450,469,490,510,528,549,570,589,609,629,650,669,690,708,729,749,769,789,808,828,849,869,889,908,928,949,969,988,1010,1029,1049,1069,1088,1109,1129,1148,1170,1188,1209,1228,1250,1270,1289,1308,1329,1348,1369,1389],"xSR":741.5,"ySR":573.95,"xT1":424.9,"yT1":0,"xT2":1058.1,"yT2":0,"toosoon":0,"cond_shown":"equaldotanddens","ratio_trial":250,"smaller_num":"2","larger_num":"8","correct_side":1,"subjID":"ValeriaBejarano33","gender":"1","age":"9","school":"4"},{"start_time":1552069899891,"click_time":1552069900923,"finger_time":1552069900763,"fix_duration":306.1118676190584,"trial":7,"RT":872,"MT":160,"sideResp":2,"stimulus":"img/500/equaldotanddens/R/3_Ratio_500_L_10_R_20.png","xmouse":[795,795,795,795,795,795,795,795,795,796,796,796,796,796,796,796,796,796,796,796,796,796,796,796,796,796,796,796,796,796,796,796,796,796,796,796,796,797,799,799,803,807,830,859,894,928,951,1000,1022,1058,1085,1111],"ymouse":[645,645,645,645,645,645,645,645,645,645,644,644,644,644,644,644,644,644,644,644,644,644,644,644,644,644,644,644,644,644,644,644,644,644,644,644,644,644,643,642,639,634,599,559,510,463,416,308,249,167,112,74],"timestamp_mouse":[13,33,52,72,91,112,131,151,172,192,213,231,251,271,292,311,331,353,373,392,413,433,452,473,491,512,531,553,573,591,611,633,652,673,691,712,731,752,772,792,811,831,852,871,892,912,931,951,972,992,1013,1032],"xSR":741.5,"ySR":573.95,"xT1":424.9,"yT1":0,"xT2":1058.1,"yT2":0,"toosoon":0,"cond_shown":"equaldotanddens","ratio_trial":500,"smaller_num":"10","larger_num":"20","correct_side":2,"subjID":"ValeriaBejarano33","gender":"1","age":"9","school":"4"},{"start_time":1552069902195,"click_time":1552069903543,"finger_time":1552069902943,"fix_duration":250,"trial":8,"RT":748,"MT":600,"sideResp":1,"stimulus":"img/250/randomdotsizeEA/L/14_Ratio_250_L_12_R_3.png","xmouse":[763,763,763,763,763,763,763,763,763,763,763,763,763,763,763,763,763,763,763,763,763,763,763,763,763,763,763,763,763,763,763,763,764,767,771,774,779,793,805,826,851,876,892,877,860,844,828,806,799,790,776,759,744,720,716,712,706,683,667,647,625,606,568,561,554,549,543,522],"ymouse":[605,605,605,605,605,605,605,605,605,605,605,605,605,605,605,605,606,608,609,610,611,611,612,612,612,612,612,612,612,612,612,612,612,609,604,598,591,569,548,512,455,398,335,310,291,276,262,222,195,158,112,71,47,26,25,25,25,25,25,26,33,38,48,50,51,51,51,51],"timestamp_mouse":[9,33,49,68,88,107,127,147,169,187,208,229,249,267,288,307,328,348,367,387,408,427,448,468,488,508,527,547,567,589,607,627,648,669,688,707,728,748,768,788,808,829,847,868,887,907,928,948,967,988,1007,1027,1047,1067,1087,1109,1128,1148,1169,1188,1207,1227,1248,1269,1288,1308,1329,1348],"xSR":741.5,"ySR":573.95,"xT1":424.9,"yT1":0,"xT2":1058.1,"yT2":0,"toosoon":0,"cond_shown":"randomdotsizeEA","ratio_trial":250,"smaller_num":"3","larger_num":"12","correct_side":1,"subjID":"ValeriaBejarano33","gender":"1","age":"9","school":"4"},{"start_time":1552069905937,"click_time":1552069906762,"finger_time":1552069906642,"fix_duration":1313.5640988119098,"trial":9,"RT":705,"MT":120,"sideResp":2,"stimulus":"img/900/equaldotsize/R/7_Ratio_900_L_9_R_10.png","xmouse":[785,787,787,787,787,787,787,787,787,787,787,787,787,787,787,787,787,787,787,787,787,787,787,787,787,787,787,787,788,789,793,802,817,832,860,900,917,943,972,1009,1103],"ymouse":[614,615,615,615,615,615,615,615,615,615,615,615,615,615,615,615,615,615,615,615,615,616,616,616,616,616,616,616,617,617,615,608,594,574,529,446,387,320,260,201,84],"timestamp_mouse":[29,47,67,85,105,127,146,167,186,207,226,245,266,287,307,326,346,366,386,405,425,445,466,485,505,526,546,567,586,606,626,647,666,685,705,726,746,767,786,805,825],"xSR":741.5,"ySR":573.95,"xT1":424.9,"yT1":0,"xT2":1058.1,"yT2":0,"toosoon":0,"cond_shown":"equaldotsize","ratio_trial":900,"smaller_num":"9","larger_num":"10","correct_side":2,"subjID":"ValeriaBejarano33","gender":"1","age":"9","school":"4"},{"start_time":1552069908237,"click_time":1552069909244,"finger_time":1552069908843,"fix_duration":634.5054260017176,"trial":10,"RT":606,"MT":401,"sideResp":1,"stimulus":"img/900/equaldotsize/R/6_Ratio_900_L_9_R_10.png","xmouse":[774,774,773,773,773,773,773,773,773,773,772,772,772,772,772,772,772,772,772,772,772,772,772,772,772,772,775,782,788,799,801,801,798,789,779,768,745,719,691,648,599,514,495,485,480,479,475,471,455,444,438],"ymouse":[650,651,651,652,652,652,652,652,652,653,654,654,654,654,654,654,654,654,654,654,654,654,654,654,654,654,649,638,620,588,558,495,467,439,417,397,371,351,334,308,275,206,187,176,169,166,157,146,119,104,99],"timestamp_mouse":[11,35,46,66,86,105,125,145,166,186,205,225,245,267,286,306,326,346,366,385,407,425,446,467,485,506,525,546,565,587,606,626,645,667,686,706,725,745,765,786,805,825,845,865,886,906,926,945,965,986,1007],"xSR":741.5,"ySR":573.95,"xT1":424.9,"yT1":0,"xT2":1058.1,"yT2":0,"toosoon":0,"cond_shown":"equaldotsize","ratio_trial":900,"smaller_num":"9","larger_num":"10","correct_side":2,"subjID":"ValeriaBejarano33","gender":"1","age":"9","school":"4"},{"start_time":1552069912192,"click_time":1552069913263,"finger_time":1552069912783,"fix_duration":807.8543583774109,"trial":11,"RT":591,"MT":480,"sideResp":1,"stimulus":"img/900/equaldotanddens/L/8_Ratio_900_L_20_R_18.png","xmouse":[758,758,758,758,758,758,758,757,756,754,754,753,752,752,752,752,752,751,751,751,751,751,751,752,756,759,762,766,769,773,768,757,747,743,742,747,750,758,793,807,818,825,826,819,799,755,707,655,569,543,536,534,531,521],"ymouse":[626,626,626,626,626,626,626,626,627,627,628,628,629,629,629,629,629,629,629,629,629,629,629,628,624,620,615,608,595,531,488,447,414,391,369,364,361,357,349,346,340,333,329,306,282,244,202,165,111,99,98,97,97,92],"timestamp_mouse":[13,35,51,71,90,110,130,151,170,191,212,230,250,271,290,310,332,352,370,391,412,430,451,472,491,510,530,550,571,591,611,631,650,670,690,711,730,751,770,791,810,831,850,870,891,912,931,952,970,990,1010,1031,1051,1070],"xSR":741.5,"ySR":573.95,"xT1":424.9,"yT1":0,"xT2":1058.1,"yT2":0,"toosoon":0,"cond_shown":"equaldotanddens","ratio_trial":900,"smaller_num":"18","larger_num":"20","correct_side":1,"subjID":"ValeriaBejarano33","gender":"1","age":"9","school":"4"},{"start_time":1552069914866,"click_time":1552069915804,"finger_time":1552069915384,"fix_duration":822.7512384675665,"trial":12,"RT":518,"MT":420,"sideResp":2,"stimulus":"img/900/equaldotanddens/R/6_Ratio_900_L_9_R_10.png","xmouse":[814,814,814,814,814,814,814,813,813,813,812,812,812,812,812,812,812,812,812,812,812,814,816,818,835,845,859,875,897,944,975,1006,1032,1051,1077,1111,1130,1146,1162,1182,1185,1186,1187,1187,1187,1170,1152],"ymouse":[652,652,652,652,653,654,654,656,656,657,657,657,657,657,657,657,657,657,657,657,657,655,653,651,638,628,610,587,553,476,431,392,360,336,306,269,248,227,204,165,153,147,145,142,136,114,98],"timestamp_mouse":[16,36,57,76,98,118,138,158,179,198,219,238,257,278,298,317,338,357,378,397,418,438,457,478,498,518,537,557,577,597,617,637,658,677,697,717,738,758,777,798,817,839,858,879,897,917,937],"xSR":741.5,"ySR":573.95,"xT1":424.9,"yT1":0,"xT2":1058.1,"yT2":0,"toosoon":0,"cond_shown":"equaldotanddens","ratio_trial":900,"smaller_num":"9","larger_num":"10","correct_side":2,"subjID":"ValeriaBejarano33","gender":"1","age":"9","school":"4"},{"start_time":1552069916984,"click_time":1552069917985,"finger_time":1552069917603,"fix_duration":279.2673405102353,"trial":13,"RT":619,"MT":382,"sideResp":1,"stimulus":"img/250/equaldotsize/R/8_Ratio_250_L_1_R_4.png","xmouse":[797,797,797,796,796,796,796,796,796,796,796,796,796,795,795,795,795,795,795,795,795,795,795,795,795,795,796,802,810,831,843,855,860,864,844,812,769,697,649,569,541,525,515,505,481,477,470,466,465,457],"ymouse":[632,632,633,633,635,635,635,635,635,635,635,635,635,636,636,636,636,636,637,637,637,637,637,637,637,637,632,622,609,576,555,532,505,475,384,328,263,169,113,21,0,0,0,0,0,0,0,0,0,9],"timestamp_mouse":[23,40,59,79,100,121,140,160,181,199,220,239,260,279,300,319,341,360,379,400,420,440,460,479,499,520,540,560,580,600,619,639,659,679,699,720,739,759,779,801,819,839,860,880,900,920,939,960,981,1001],"xSR":741.5,"ySR":573.95,"xT1":424.9,"yT1":0,"xT2":1058.1,"yT2":0,"toosoon":0,"cond_shown":"equaldotsize","ratio_trial":250,"smaller_num":"1","larger_num":"4","correct_side":2,"subjID":"ValeriaBejarano33","gender":"1","age":"9","school":"4"},{"start_time":1552069921304,"click_time":1552069922384,"finger_time":1552069921983,"fix_duration":360.8983935341189,"trial":14,"RT":679,"MT":401,"sideResp":1,"stimulus":"img/250/equaldotsize/L/1_Ratio_250_L_8_R_2.png","xmouse":[787,787,790,793,794,796,799,800,800,800,800,800,800,800,800,800,800,800,800,800,800,800,800,800,800,800,800,800,800,800,800,800,799,771,745,709,670,620,586,579,572,568,566,560,558,556,554,548,534,524,509,495,484,478],"ymouse":[627,627,627,628,628,629,630,631,633,633,633,633,633,633,633,633,633,633,633,633,633,633,633,633,633,633,633,633,633,631,626,618,607,561,525,477,429,360,304,286,269,255,243,224,218,210,204,190,165,150,130,113,100,90],"timestamp_mouse":[30,39,59,79,99,120,139,160,179,199,220,240,259,279,299,319,341,359,379,401,420,439,460,480,499,520,540,561,579,599,620,640,659,679,699,720,739,759,779,799,820,841,859,880,899,919,940,959,979,1000,1019,1040,1060,1080],"xSR":741.5,"ySR":573.95,"xT1":424.9,"yT1":0,"xT2":1058.1,"yT2":0,"toosoon":0,"cond_shown":"equaldotsize","ratio_trial":250,"smaller_num":"2","larger_num":"8","correct_side":1,"subjID":"ValeriaBejarano33","gender":"1","age":"9","school":"4"},{"start_time":1552069923374,"click_time":1552069924683,"finger_time":1552069924083,"fix_duration":250,"trial":15,"RT":709,"MT":600,"sideResp":2,"stimulus":"img/250/randomdotsizeEA/R/6_Ratio_250_L_6_R_24.png","xmouse":[783,783,783,783,783,783,783,783,783,783,783,783,783,783,783,783,783,783,783,783,783,783,783,783,783,783,783,783,783,784,789,795,808,823,839,875,918,928,938,944,949,957,959,960,960,961,964,967,970,977,985,1008,1018,1029,1033,1042,1056,1061,1066,1068,1071,1079,1086,1097,1103,1115],"ymouse":[638,638,638,638,638,638,638,638,638,638,638,638,638,638,638,638,638,638,638,638,638,638,638,638,638,638,638,638,638,638,634,628,617,598,577,525,458,437,422,409,396,377,372,369,366,357,345,336,327,314,302,276,266,253,248,231,208,198,190,184,179,164,152,130,122,97],"timestamp_mouse":[10,30,50,71,90,110,129,149,171,191,211,231,251,271,290,310,330,349,369,391,410,429,451,470,490,510,529,550,569,589,610,630,650,669,690,709,730,749,769,789,810,830,849,869,891,910,931,949,970,989,1009,1030,1049,1069,1091,1109,1130,1150,1169,1189,1209,1229,1249,1269,1290,1309],"xSR":741.5,"ySR":573.95,"xT1":424.9,"yT1":0,"xT2":1058.1,"yT2":0,"toosoon":0,"cond_shown":"randomdotsizeEA","ratio_trial":250,"smaller_num":"6","larger_num":"24","correct_side":2,"subjID":"ValeriaBejarano33","gender":"1","age":"9","school":"4"},{"start_time":1552069926608,"click_time":1552069927425,"finger_time":1552069927265,"fix_duration":1262.9624494526688,"trial":16,"RT":657,"MT":160,"sideResp":1,"stimulus":"img/250/equaldotsize/L/2_Ratio_250_L_16_R_4.png","xmouse":[784,784,784,784,784,784,784,784,784,784,784,784,784,784,784,784,784,784,784,784,785,786,786,789,795,796,796,796,796,796,796,788,776,755,679,633,588,547,523,504,503],"ymouse":[645,645,645,645,645,645,645,645,645,645,645,645,645,645,645,645,645,645,645,645,644,636,628,619,608,607,607,607,607,604,601,581,558,520,391,311,239,177,134,103,98],"timestamp_mouse":[28,35,56,75,95,116,136,157,176,195,216,235,256,275,295,315,337,356,376,395,415,435,455,476,495,517,535,556,577,595,616,635,657,675,695,715,735,755,777,796,816],"xSR":741.5,"ySR":573.95,"xT1":424.9,"yT1":0,"xT2":1058.1,"yT2":0,"toosoon":0,"cond_shown":"equaldotsize","ratio_trial":250,"smaller_num":"4","larger_num":"16","correct_side":1,"subjID":"ValeriaBejarano33","gender":"1","age":"9","school":"4"},{"start_time":1552069929328,"click_time":1552069930423,"finger_time":1552069930004,"fix_duration":963.4652876887291,"trial":17,"RT":676,"MT":419,"sideResp":1,"stimulus":"img/250/equaldotanddens/L/3_Ratio_250_L_8_R_2.png","xmouse":[777,777,777,777,777,777,777,777,777,777,777,777,777,777,777,777,777,777,777,777,777,777,777,777,777,777,777,777,777,777,777,776,771,747,707,679,653,638,618,610,601,593,584,564,555,550,545,539,529,520,511,504,499,493,490],"ymouse":[628,628,628,628,628,628,628,628,628,628,628,628,628,628,628,628,628,628,628,628,628,628,628,628,628,628,628,628,628,628,628,623,614,570,509,466,430,408,373,359,344,330,315,286,266,254,242,229,197,178,158,140,125,107,95],"timestamp_mouse":[17,38,56,75,96,117,136,155,176,196,216,237,256,275,296,315,337,356,375,396,416,435,456,475,496,517,536,556,575,596,615,635,657,676,695,715,736,755,775,795,815,836,856,875,896,915,936,956,975,995,1016,1035,1055,1075,1095],"xSR":741.5,"ySR":573.95,"xT1":424.9,"yT1":0,"xT2":1058.1,"yT2":0,"toosoon":0,"cond_shown":"equaldotanddens","ratio_trial":250,"smaller_num":"2","larger_num":"8","correct_side":1,"subjID":"ValeriaBejarano33","gender":"1","age":"9","school":"4"},{"start_time":1552069934700,"click_time":1552069935844,"finger_time":1552069934763,"fix_duration":833.739781845492,"trial":18,"RT":63,"MT":1081,"sideResp":2,"stimulus":"img/500/randomdotsizeEA/R/6_Ratio_500_L_9_R_18.png","xmouse":[751,751,746,741,722,715,711,710,710,709,707,707,707,707,706,704,704,704,703,702,694,688,686,686,686,686,686,686,686,686,697,806,887,990,1009,1028,1035,1044,1067,1092,1134,1146,1151,1153,1156,1167,1171,1176,1180,1186,1191,1198,1199,1199,1199,1199,1172,1151],"ymouse":[590,590,588,587,587,587,587,587,587,587,587,587,587,587,587,587,587,587,582,578,558,551,549,549,549,549,549,549,548,547,537,471,435,390,380,366,346,328,301,274,242,235,232,230,224,203,188,170,147,127,105,79,76,76,76,75,75,71],"timestamp_mouse":[10,34,43,63,83,104,124,144,163,183,203,223,244,264,284,303,323,344,364,384,404,424,443,463,485,505,523,543,563,583,604,623,645,665,684,703,724,743,764,783,804,823,844,863,884,904,923,944,964,983,1003,1024,1044,1064,1084,1103,1124,1143],"xSR":741.5,"ySR":573.95,"xT1":424.9,"yT1":0,"xT2":1058.1,"yT2":0,"toosoon":0,"cond_shown":"randomdotsizeEA","ratio_trial":500,"smaller_num":"9","larger_num":"18","correct_side":2,"subjID":"ValeriaBejarano33","gender":"1","age":"9","school":"4"},{"start_time":1552069937652,"click_time":1552069938924,"finger_time":1552069938344,"fix_duration":947.7113098758444,"trial":19,"RT":692,"MT":580,"sideResp":1,"stimulus":"img/500/equaldotanddens/L/7_Ratio_500_L_10_R_5.png","xmouse":[810,810,810,810,810,810,811,811,811,811,811,811,811,811,811,811,811,811,811,811,811,811,811,811,811,811,811,811,811,811,811,811,812,812,802,784,756,732,709,706,703,701,697,676,652,631,609,594,574,570,569,568,565,549,535,531,530,530,530,529,528,525,519,504],"ymouse":[608,608,608,608,608,608,608,608,608,608,608,608,608,608,608,608,608,608,608,608,608,608,608,608,608,608,608,608,608,608,608,607,603,582,541,486,443,411,383,378,375,369,361,330,298,272,245,221,188,179,174,169,162,136,119,114,111,111,111,111,109,106,100,84],"timestamp_mouse":[12,40,51,71,91,112,133,152,172,192,213,232,252,271,292,311,332,351,373,393,412,432,452,471,492,512,533,552,571,592,611,631,652,672,692,711,731,752,772,791,811,831,852,871,892,911,931,951,972,991,1012,1032,1051,1072,1091,1112,1131,1152,1171,1192,1211,1231,1251,1272],"xSR":741.5,"ySR":573.95,"xT1":424.9,"yT1":0,"xT2":1058.1,"yT2":0,"toosoon":0,"cond_shown":"equaldotanddens","ratio_trial":500,"smaller_num":"5","larger_num":"10","correct_side":1,"subjID":"ValeriaBejarano33","gender":"1","age":"9","school":"4"},{"start_time":1552069941228,"click_time":1552069942284,"finger_time":1552069941844,"fix_duration":1404.6740683107723,"trial":20,"RT":616,"MT":440,"sideResp":2,"stimulus":"img/750/equaldotsize/R/3_Ratio_750_L_15_R_20.png","xmouse":[780,780,778,777,776,776,776,776,775,775,774,774,774,774,774,774,774,774,774,774,774,774,774,774,774,773,773,773,772,764,757,748,743,740,740,742,746,751,762,796,812,831,852,873,951,990,1035,1066,1082,1097,1102,1105,1109],"ymouse":[619,619,618,617,617,617,617,617,617,617,617,617,617,617,617,617,617,617,617,617,617,617,617,617,617,616,616,614,611,586,565,537,517,509,507,505,503,498,489,458,438,414,384,356,265,228,189,162,144,119,110,104,95],"timestamp_mouse":[17,36,57,75,97,116,136,156,176,197,215,235,256,275,297,316,336,355,376,395,416,436,455,475,495,515,535,556,576,595,616,636,655,676,695,717,735,755,775,796,816,836,855,875,895,915,936,956,976,996,1015,1036,1056],"xSR":741.5,"ySR":573.95,"xT1":424.9,"yT1":0,"xT2":1058.1,"yT2":0,"toosoon":0,"cond_shown":"equaldotsize","ratio_trial":750,"smaller_num":"15","larger_num":"20","correct_side":2,"subjID":"ValeriaBejarano33","gender":"1","age":"9","school":"4"},{"start_time":1552069943870,"click_time":1552069945584,"finger_time":1552069944504,"fix_duration":665.0880279836638,"trial":21,"RT":634,"MT":1080,"sideResp":2,"stimulus":"img/750/equaldotsize/R/5_Ratio_750_L_15_R_20.png","xmouse":[794,794,794,794,792,791,790,790,790,790,790,790,790,790,790,790,790,790,790,790,790,790,790,790,790,789,789,789,793,800,808,821,830,831,834,842,859,914,945,974,996,1008,1012,1016,1018,1019,1019,1019,1020,1025,1028,1031,1031,1031,1031,1031,1033,1036,1047,1052,1054,1054,1054,1054,1054,1054,1055,1056,1056,1056,1056,1054,1051,1051,1051,1051,1051,1051,1052,1052,1053,1054,1055,1055,1058,1060],"ymouse":[646,646,646,649,655,657,658,658,658,658,658,658,658,658,658,658,658,658,658,658,658,658,658,658,658,658,658,658,648,634,615,568,497,471,454,440,419,348,307,265,233,210,198,177,162,142,119,77,61,52,48,45,45,45,45,45,44,44,44,44,44,44,44,44,44,44,44,43,43,43,43,44,52,56,56,56,56,56,56,56,56,56,56,56,56,56],"timestamp_mouse":[14,35,54,74,94,113,133,155,174,194,213,234,254,273,294,314,334,353,374,395,414,433,453,473,494,514,534,554,573,594,613,634,654,673,693,714,734,754,773,793,813,833,853,873,893,913,933,954,973,994,1013,1034,1055,1075,1093,1113,1133,1153,1173,1194,1214,1234,1254,1274,1293,1315,1333,1353,1373,1393,1413,1435,1454,1475,1495,1514,1534,1553,1573,1595,1613,1633,1653,1673,1693,1714],"xSR":741.5,"ySR":573.95,"xT1":424.9,"yT1":0,"xT2":1058.1,"yT2":0,"toosoon":0,"cond_shown":"equaldotsize","ratio_trial":750,"smaller_num":"15","larger_num":"20","correct_side":2,"subjID":"ValeriaBejarano33","gender":"1","age":"9","school":"4"},{"start_time":1552069949797,"click_time":1552069950743,"finger_time":1552069950423,"fix_duration":1432.1583731355724,"trial":22,"RT":626,"MT":320,"sideResp":1,"stimulus":"img/750/equaldotanddens/L/10_Ratio_750_L_4_R_3.png","xmouse":[771,771,771,771,771,771,771,771,771,771,771,771,771,771,771,771,771,771,771,771,771,771,771,771,771,771,771,771,768,765,751,733,676,641,629,626,626,630,633,634,634,624,578,561,547,537,528,519],"ymouse":[606,606,606,606,606,606,606,606,606,606,606,606,606,606,606,606,606,606,606,606,606,606,606,606,606,606,606,606,601,598,583,548,481,443,429,423,423,409,395,381,342,301,217,186,156,129,111,97],"timestamp_mouse":[12,26,46,67,87,107,126,146,167,188,207,226,247,266,286,306,328,347,367,386,406,426,446,466,486,507,528,548,566,586,606,626,646,666,686,707,726,746,766,787,807,828,846,866,886,906,927,946],"xSR":741.5,"ySR":573.95,"xT1":424.9,"yT1":0,"xT2":1058.1,"yT2":0,"toosoon":0,"cond_shown":"equaldotanddens","ratio_trial":750,"smaller_num":"3","larger_num":"4","correct_side":1,"subjID":"ValeriaBejarano33","gender":"1","age":"9","school":"4"},{"start_time":1552069952401,"click_time":1552069953123,"finger_time":1552069952963,"fix_duration":836.9580883742874,"trial":23,"RT":562,"MT":160,"sideResp":1,"stimulus":"img/250/equaldotanddens/L/1_Ratio_250_L_8_R_2.png","xmouse":[790,790,790,790,790,790,790,790,790,790,790,790,790,790,790,790,790,790,790,790,790,790,790,790,790,790,789,788,777,758,735,706,612,571,528,486,452],"ymouse":[610,610,610,610,610,610,610,610,610,610,610,610,610,610,610,610,610,610,610,610,610,610,610,610,610,610,604,598,565,522,465,417,281,235,188,138,93],"timestamp_mouse":[10,23,43,62,82,102,123,142,163,183,203,223,244,262,283,302,323,344,363,383,402,422,442,463,482,503,522,542,562,583,602,622,642,662,682,703,722],"xSR":741.5,"ySR":573.95,"xT1":424.9,"yT1":0,"xT2":1058.1,"yT2":0,"toosoon":0,"cond_shown":"equaldotanddens","ratio_trial":250,"smaller_num":"2","larger_num":"8","correct_side":1,"subjID":"ValeriaBejarano33","gender":"1","age":"9","school":"4"},{"start_time":1552069954315,"click_time":1552069955384,"finger_time":1552069954945,"fix_duration":250,"trial":24,"RT":630,"MT":439,"sideResp":1,"stimulus":"img/750/equaldotanddens/L/1_Ratio_750_L_20_R_15.png","xmouse":[791,791,791,791,791,791,791,791,791,791,790,790,790,790,790,790,790,790,790,790,790,790,790,790,790,790,790,790,790,790,790,776,757,742,731,720,705,674,656,634,618,603,586,581,576,569,565,563,561,559,555,541,532,524],"ymouse":[628,628,628,628,628,628,628,628,628,628,628,628,628,628,628,628,628,628,628,628,628,628,628,628,628,628,628,628,623,616,595,475,407,355,322,293,256,198,174,150,135,120,101,96,92,89,88,88,87,87,87,86,83,80],"timestamp_mouse":[9,28,57,68,88,108,130,148,168,188,208,230,249,268,288,309,328,348,369,388,408,429,448,468,489,510,529,549,568,589,608,630,648,668,688,708,728,748,769,789,808,828,848,869,890,909,929,948,968,988,1008,1029,1048,1069],"xSR":741.5,"ySR":573.95,"xT1":424.9,"yT1":0,"xT2":1058.1,"yT2":0,"toosoon":0,"cond_shown":"equaldotanddens","ratio_trial":750,"smaller_num":"15","larger_num":"20","correct_side":1,"subjID":"ValeriaBejarano33","gender":"1","age":"9","school":"4"},{"start_time":1552069961154,"click_time":1552069962663,"finger_time":1552069961964,"fix_duration":250,"trial":25,"RT":810,"MT":699,"sideResp":1,"stimulus":"img/900/randomdotsizeEA/L/4_Ratio_900_L_20_R_18.png","xmouse":[781,781,781,781,781,781,781,781,781,781,781,781,781,781,781,781,781,781,781,781,781,781,781,781,781,781,781,781,781,781,781,778,778,778,778,778,778,774,771,763,750,742,741,741,739,736,734,732,730,727,706,681,668,657,650,640,631,624,613,599,588,567,560,555,551,540,535,529,523,521,520,520,518,508,499,474],"ymouse":[599,599,599,599,599,599,599,599,599,599,599,599,599,599,599,599,599,599,599,599,599,599,599,599,599,599,599,599,599,599,599,601,601,601,601,601,601,597,593,581,561,552,550,549,545,533,526,513,500,478,421,382,363,349,337,321,313,305,296,284,274,250,239,228,221,201,192,180,167,156,138,132,127,117,108,87],"timestamp_mouse":[11,38,49,70,91,110,130,149,170,190,209,230,251,271,289,310,330,350,369,390,409,429,451,470,490,509,530,550,570,590,610,630,650,669,689,709,731,750,769,790,810,831,850,870,889,909,930,950,969,989,1009,1031,1050,1071,1089,1109,1129,1151,1169,1190,1209,1229,1249,1270,1290,1309,1329,1351,1369,1390,1409,1431,1449,1470,1490,1509],"xSR":741.5,"ySR":573.95,"xT1":424.9,"yT1":0,"xT2":1058.1,"yT2":0,"toosoon":0,"cond_shown":"randomdotsizeEA","ratio_trial":900,"smaller_num":"18","larger_num":"20","correct_side":1,"subjID":"ValeriaBejarano33","gender":"1","age":"9","school":"4"},{"start_time":1552069964275,"click_time":1552069965784,"finger_time":1552069965003,"fix_duration":250,"trial":26,"RT":728,"MT":781,"sideResp":2,"stimulus":"img/750/randomdotsizeEA/L/1_Ratio_750_L_20_R_15.png","xmouse":[806,805,805,805,805,805,805,805,805,805,805,805,805,805,805,805,805,805,805,805,805,805,805,805,805,805,805,805,805,805,806,806,807,807,807,810,823,849,887,939,952,958,961,961,961,955,949,945,944,945,949,959,971,983,1004,1045,1055,1066,1071,1076,1087,1094,1099,1103,1103,1101,1098,1098,1096,1093,1090,1087,1085,1079,1071,1063],"ymouse":[643,644,644,645,645,645,645,645,646,646,647,647,647,647,647,647,647,647,648,648,648,648,648,648,648,648,648,648,648,648,644,640,630,617,603,574,562,546,529,500,487,477,465,447,429,392,373,357,344,322,313,298,284,271,257,234,228,223,220,216,205,195,182,157,144,122,118,118,118,118,117,116,114,109,100,75],"timestamp_mouse":[8,28,51,69,90,109,128,149,169,189,209,229,250,269,288,309,330,349,368,389,410,429,448,470,489,509,528,550,568,589,608,629,648,669,688,709,728,749,768,789,808,829,849,870,888,908,929,948,969,989,1008,1029,1049,1069,1088,1108,1129,1148,1168,1189,1209,1229,1248,1269,1288,1309,1330,1349,1368,1389,1408,1429,1450,1468,1489,1508],"xSR":741.5,"ySR":573.95,"xT1":424.9,"yT1":0,"xT2":1058.1,"yT2":0,"toosoon":0,"cond_shown":"randomdotsizeEA","ratio_trial":750,"smaller_num":"15","larger_num":"20","correct_side":1,"subjID":"ValeriaBejarano33","gender":"1","age":"9","school":"4"},{"start_time":1552069980188,"click_time":1552069981164,"finger_time":1552069980745,"fix_duration":563.9044609282813,"trial":27,"RT":557,"MT":419,"sideResp":1,"stimulus":"img/750/equaldotanddens/L/8_Ratio_750_L_4_R_3.png","xmouse":[802,802,802,802,802,802,802,802,801,801,801,801,801,801,801,801,801,800,799,799,799,799,799,799,798,785,769,738,699,650,603,547,494,478,466,456,447,448,455,466,481,488,488,488,488,490,492,492,492],"ymouse":[635,635,635,635,635,635,635,635,635,635,635,635,635,635,635,635,635,635,635,635,635,635,635,635,632,606,584,549,504,447,396,330,239,206,185,169,151,147,143,139,135,133,133,133,132,131,120,110,95],"timestamp_mouse":[16,36,56,76,96,116,137,157,177,196,217,237,257,277,297,316,336,357,377,395,416,437,456,476,496,516,536,557,575,597,616,636,656,677,695,715,736,757,776,796,816,836,856,875,896,917,936,957,976],"xSR":741.5,"ySR":573.95,"xT1":424.9,"yT1":0,"xT2":1058.1,"yT2":0,"toosoon":0,"cond_shown":"equaldotanddens","ratio_trial":750,"smaller_num":"3","larger_num":"4","correct_side":1,"subjID":"ValeriaBejarano33","gender":"1","age":"9","school":"4"},{"start_time":1552069990017,"click_time":1552069990784,"finger_time":1552069990544,"fix_duration":250,"trial":28,"RT":527,"MT":240,"sideResp":1,"stimulus":"img/250/randomdotsizeEA/R/10_Ratio_250_L_4_R_16.png","xmouse":[800,800,800,800,800,800,800,800,800,800,800,800,800,800,800,800,800,800,800,800,800,800,800,800,800,793,764,729,690,656,640,628,626,620,605,566,466,450,448],"ymouse":[617,617,617,617,617,617,617,617,617,617,617,617,617,617,617,617,617,617,617,617,617,617,617,617,617,599,501,428,373,335,316,283,274,263,247,214,138,112,93],"timestamp_mouse":[11,39,46,66,86,108,128,148,167,187,207,226,247,266,287,307,326,346,366,388,408,427,447,466,486,506,527,547,567,587,608,628,648,668,687,708,728,747,767],"xSR":741.5,"ySR":573.95,"xT1":424.9,"yT1":0,"xT2":1058.1,"yT2":0,"toosoon":0,"cond_shown":"randomdotsizeEA","ratio_trial":250,"smaller_num":"4","larger_num":"16","correct_side":2,"subjID":"ValeriaBejarano33","gender":"1","age":"9","school":"4"},{"start_time":1552069995535,"click_time":1552069996424,"finger_time":1552069996165,"fix_duration":1290.7633526246614,"trial":29,"RT":630,"MT":259,"sideResp":1,"stimulus":"img/500/randomdotsizeEA/L/13_Ratio_500_L_12_R_6.png","xmouse":[771,771,771,771,771,771,771,771,771,771,771,771,771,771,771,771,771,771,771,773,777,778,779,780,780,780,780,781,784,786,789,794,794,788,776,762,718,695,672,641,608,547,518,500,482],"ymouse":[624,624,624,624,624,624,624,624,624,624,624,624,624,624,624,624,624,624,624,622,616,614,613,612,610,610,610,609,600,593,578,530,504,466,437,414,362,337,306,271,233,165,130,101,71],"timestamp_mouse":[13,29,49,72,89,110,129,148,173,188,210,229,249,274,289,309,329,348,370,389,410,429,450,469,490,510,529,548,569,590,609,630,650,669,690,710,730,749,769,788,809,830,849,869,889],"xSR":741.5,"ySR":573.95,"xT1":424.9,"yT1":0,"xT2":1058.1,"yT2":0,"toosoon":0,"cond_shown":"randomdotsizeEA","ratio_trial":500,"smaller_num":"6","larger_num":"12","correct_side":1,"subjID":"ValeriaBejarano33","gender":"1","age":"9","school":"4"},{"start_time":1552069998222,"click_time":1552069999524,"finger_time":1552069998804,"fix_duration":877.0071165280318,"trial":30,"RT":582,"MT":720,"sideResp":1,"stimulus":"img/250/equaldotanddens/L/15_Ratio_250_L_12_R_3.png","xmouse":[768,768,768,768,768,768,768,768,768,768,768,768,768,768,768,768,768,768,768,774,776,780,781,782,782,782,782,782,782,778,731,648,376,239,151,119,115,156,176,191,197,197,197,197,197,198,201,236,257,278,295,307,319,322,328,332,339,374,392,405,413,417,418,419,423,435],"ymouse":[603,603,603,603,603,603,603,603,603,603,603,603,603,603,603,603,603,603,603,599,597,594,594,593,593,593,593,589,580,554,460,363,125,5,0,0,0,0,0,2,3,3,3,3,3,3,5,21,28,32,33,33,29,27,24,22,19,6,4,4,4,4,4,4,6,12],"timestamp_mouse":[3,23,43,62,82,103,122,142,162,182,202,222,242,262,282,303,322,342,362,383,402,422,442,463,483,502,522,542,562,582,603,621,642,662,682,702,722,742,762,782,802,822,842,862,882,902,921,941,961,983,1001,1022,1042,1062,1083,1103,1122,1141,1162,1183,1203,1222,1242,1261,1283,1302],"xSR":741.5,"ySR":573.95,"xT1":424.9,"yT1":0,"xT2":1058.1,"yT2":0,"toosoon":0,"cond_shown":"equaldotanddens","ratio_trial":250,"smaller_num":"3","larger_num":"12","correct_side":1,"subjID":"ValeriaBejarano33","gender":"1","age":"9","school":"4"},{"start_time":1552070001930,"click_time":1552070002864,"finger_time":1552070002584,"fix_duration":1364.7874526516189,"trial":31,"RT":654,"MT":280,"sideResp":1,"stimulus":"img/900/randomdotsizeEA/L/10_Ratio_900_L_20_R_18.png","xmouse":[805,805,805,805,805,805,805,805,805,805,805,805,805,805,805,805,805,805,805,805,805,805,805,806,806,806,806,806,806,806,806,806,786,767,740,713,677,671,669,668,663,655,613,583,548,526,509],"ymouse":[624,624,624,624,624,624,624,624,624,624,624,624,624,624,624,624,624,624,624,624,624,624,624,624,624,624,624,624,624,624,618,597,514,448,376,314,238,222,213,205,186,172,126,97,68,47,28],"timestamp_mouse":[13,34,53,73,93,113,135,155,173,194,215,234,254,275,294,313,333,353,375,394,414,434,454,474,493,515,535,553,574,595,614,634,654,673,695,713,734,753,774,794,814,834,854,874,894,914,934],"xSR":741.5,"ySR":573.95,"xT1":424.9,"yT1":0,"xT2":1058.1,"yT2":0,"toosoon":0,"cond_shown":"randomdotsizeEA","ratio_trial":900,"smaller_num":"18","larger_num":"20","correct_side":1,"subjID":"ValeriaBejarano33","gender":"1","age":"9","school":"4"},{"start_time":1552070004096,"click_time":1552070005584,"finger_time":1552070004885,"fix_duration":410.9244761370525,"trial":32,"RT":789,"MT":699,"sideResp":2,"stimulus":"img/500/randomdotsizeEA/R/15_Ratio_500_L_1_R_2.png","xmouse":[787,787,787,787,787,787,787,787,787,787,787,787,787,787,787,787,787,787,787,787,787,787,787,787,787,787,787,787,787,787,787,787,787,787,787,787,787,787,788,799,813,818,823,831,859,885,919,962,989,1027,1030,1032,1034,1036,1041,1042,1042,1042,1042,1042,1042,1042,1042,1042,1042,1042,1042,1042,1042,1042,1042,1042,1044,1050,1060],"ymouse":[646,646,646,646,646,646,646,646,646,646,646,646,646,646,646,646,646,646,646,646,646,646,646,646,646,646,646,646,646,646,646,646,646,646,646,646,646,646,646,573,481,438,412,400,382,366,341,305,270,191,175,158,142,126,95,82,70,63,59,59,59,59,59,59,59,59,59,59,59,59,58,56,55,53,53],"timestamp_mouse":[8,39,48,69,89,109,129,149,169,189,208,229,248,268,289,308,329,348,367,388,408,429,449,468,489,508,528,549,568,588,607,628,649,668,688,709,729,748,768,789,808,828,848,868,888,908,927,948,969,988,1009,1027,1048,1067,1088,1108,1128,1148,1169,1189,1209,1229,1249,1268,1287,1307,1328,1347,1368,1388,1408,1427,1447,1468,1488],"xSR":741.5,"ySR":573.95,"xT1":424.9,"yT1":0,"xT2":1058.1,"yT2":0,"toosoon":0,"cond_shown":"randomdotsizeEA","ratio_trial":500,"smaller_num":"1","larger_num":"2","correct_side":2,"subjID":"ValeriaBejarano33","gender":"1","age":"9","school":"4"},{"start_time":1552070006850,"click_time":1552070007924,"finger_time":1552070007684,"fix_duration":365.034442747366,"trial":33,"RT":834,"MT":240,"sideResp":1,"stimulus":"img/500/equaldotsize/L/4_Ratio_500_L_18_R_9.png","xmouse":[780,780,780,780,780,780,780,780,780,780,780,780,780,780,780,780,780,780,780,780,780,780,780,780,780,780,780,780,780,780,780,780,780,780,780,780,780,780,780,780,780,766,734,700,666,638,612,607,601,594,585,553,530,522],"ymouse":[640,640,640,640,640,640,640,640,640,640,640,640,640,640,640,640,640,640,640,640,640,640,640,640,640,640,640,640,640,640,640,640,640,640,640,640,640,640,640,623,601,488,408,330,269,225,181,163,142,118,96,50,25,19],"timestamp_mouse":[22,37,54,74,95,114,135,153,174,195,214,234,254,273,294,314,334,354,373,395,415,434,455,474,494,514,533,555,574,594,614,635,655,674,695,715,734,755,774,794,814,834,855,874,894,914,934,955,974,993,1014,1033,1055,1074],"xSR":741.5,"ySR":573.95,"xT1":424.9,"yT1":0,"xT2":1058.1,"yT2":0,"toosoon":0,"cond_shown":"equaldotsize","ratio_trial":500,"smaller_num":"9","larger_num":"18","correct_side":1,"subjID":"ValeriaBejarano33","gender":"1","age":"9","school":"4"},{"start_time":1552070009710,"click_time":1552070010584,"finger_time":1552070010364,"fix_duration":964.9039260707342,"trial":34,"RT":654,"MT":220,"sideResp":2,"stimulus":"img/250/randomdotsizeEA/R/9_Ratio_250_L_3_R_12.png","xmouse":[809,809,809,809,809,809,809,809,809,809,809,809,809,809,809,809,809,809,809,809,809,809,809,809,809,809,809,809,809,809,816,822,834,878,906,937,966,1004,1051,1070,1088,1102,1112,1122],"ymouse":[615,615,615,615,615,615,615,615,615,615,615,615,615,615,615,615,615,615,615,615,615,615,615,615,615,615,615,615,615,615,602,592,567,471,409,348,298,240,184,167,149,130,113,93],"timestamp_mouse":[14,35,55,74,93,114,134,155,175,194,214,234,255,274,295,314,334,354,375,395,413,434,455,475,495,514,535,554,574,593,613,634,654,674,693,714,734,754,774,793,814,835,854,874],"xSR":741.5,"ySR":573.95,"xT1":424.9,"yT1":0,"xT2":1058.1,"yT2":0,"toosoon":0,"cond_shown":"randomdotsizeEA","ratio_trial":250,"smaller_num":"3","larger_num":"12","correct_side":2,"subjID":"ValeriaBejarano33","gender":"1","age":"9","school":"4"},{"start_time":1552070014277,"click_time":1552070015204,"finger_time":1552070014904,"fix_duration":250,"trial":35,"RT":627,"MT":300,"sideResp":1,"stimulus":"img/900/randomdotsizeEA/L/10_Ratio_900_L_20_R_18.png","xmouse":[776,776,776,776,776,776,776,776,776,776,776,776,776,776,776,776,776,776,776,776,776,776,776,776,776,776,776,776,776,776,777,775,764,744,724,702,656,632,611,600,593,578,569,560,549,538,522],"ymouse":[608,608,608,608,608,608,608,608,608,608,608,608,608,608,608,608,608,608,608,608,608,608,608,608,608,608,608,608,608,606,597,566,527,469,423,374,273,231,188,170,158,137,125,111,93,77,61],"timestamp_mouse":[8,29,47,67,88,106,128,147,168,188,206,227,248,267,288,307,327,348,366,387,408,427,448,467,488,507,526,547,567,587,607,627,648,668,687,707,727,747,767,787,806,827,847,867,887,908,927],"xSR":741.5,"ySR":573.95,"xT1":424.9,"yT1":0,"xT2":1058.1,"yT2":0,"toosoon":0,"cond_shown":"randomdotsizeEA","ratio_trial":900,"smaller_num":"18","larger_num":"20","correct_side":1,"subjID":"ValeriaBejarano33","gender":"1","age":"9","school":"4"},{"start_time":1552070016561,"click_time":1552070017844,"finger_time":1552070017364,"fix_duration":494.1641887972676,"trial":36,"RT":803,"MT":480,"sideResp":1,"stimulus":"img/500/equaldotanddens/L/7_Ratio_500_L_10_R_5.png","xmouse":[764,764,764,764,764,764,764,764,764,764,764,764,764,764,764,764,764,764,764,764,764,764,764,764,764,764,764,764,764,764,764,764,764,764,764,764,765,768,771,775,779,784,787,790,790,781,771,744,726,701,676,650,615,609,602,597,593,577,567,556,547,540,534,528,520],"ymouse":[620,620,620,620,620,620,620,620,620,620,620,620,620,620,620,620,620,620,620,620,620,620,620,620,620,620,620,620,620,620,620,620,620,620,620,620,620,613,604,590,573,554,530,462,436,411,389,349,329,300,273,237,166,147,129,111,94,57,37,20,8,2,2,5,17],"timestamp_mouse":[11,24,43,63,83,103,123,143,164,184,203,223,244,263,283,303,322,343,363,383,404,423,442,464,483,504,522,543,563,584,603,624,643,664,683,703,723,743,763,784,803,824,842,864,884,904,923,943,963,983,1003,1023,1042,1064,1083,1103,1123,1143,1163,1184,1204,1224,1244,1263,1283],"xSR":741.5,"ySR":573.95,"xT1":424.9,"yT1":0,"xT2":1058.1,"yT2":0,"toosoon":0,"cond_shown":"equaldotanddens","ratio_trial":500,"smaller_num":"5","larger_num":"10","correct_side":1,"subjID":"ValeriaBejarano33","gender":"1","age":"9","school":"4"},{"start_time":1552070021763,"click_time":1552070022664,"finger_time":1552070022424,"fix_duration":1197.435480075908,"trial":37,"RT":661,"MT":240,"sideResp":1,"stimulus":"img/500/equaldotsize/L/8_Ratio_500_L_8_R_4.png","xmouse":[783,783,783,783,783,783,783,783,783,783,783,783,783,783,783,783,783,783,783,783,783,783,783,783,783,783,783,783,783,783,783,782,781,760,737,708,676,647,576,567,548,539,534,524,520,514],"ymouse":[622,623,623,623,623,623,623,623,623,623,623,623,623,623,623,623,623,623,623,623,623,623,623,623,623,623,623,623,623,623,623,616,607,538,479,424,366,308,199,187,165,154,148,129,113,97],"timestamp_mouse":[1,20,42,61,81,102,121,142,161,182,202,221,241,262,281,300,322,341,362,382,401,420,441,461,481,502,520,542,562,581,600,622,641,661,681,701,721,741,761,781,800,822,842,861,880,901],"xSR":741.5,"ySR":573.95,"xT1":424.9,"yT1":0,"xT2":1058.1,"yT2":0,"toosoon":0,"cond_shown":"equaldotsize","ratio_trial":500,"smaller_num":"4","larger_num":"8","correct_side":1,"subjID":"ValeriaBejarano33","gender":"1","age":"9","school":"4"},{"start_time":1552070024445,"click_time":1552070025485,"finger_time":1552070025144,"fix_duration":1019.0004248266908,"trial":38,"RT":699,"MT":341,"sideResp":2,"stimulus":"img/900/equaldotanddens/R/11_Ratio_900_L_18_R_20.png","xmouse":[780,780,780,780,780,780,780,780,780,780,780,780,780,780,780,780,780,780,780,780,780,780,780,780,780,780,779,776,775,775,775,775,775,775,778,782,787,790,793,802,837,870,912,962,1042,1052,1058,1062,1066,1082,1101,1127,1149],"ymouse":[632,632,632,632,632,632,632,632,632,632,632,632,632,632,632,632,632,632,632,632,632,632,632,632,631,624,617,612,609,609,609,609,606,604,585,572,556,542,528,516,473,436,387,328,236,221,213,203,191,156,129,101,86],"timestamp_mouse":[6,25,40,58,80,99,119,139,160,180,199,220,238,259,280,298,319,339,359,380,399,419,440,459,479,500,519,539,558,580,600,620,639,659,678,699,719,739,759,779,799,820,838,859,879,898,919,940,959,979,999,1020,1040],"xSR":741.5,"ySR":573.95,"xT1":424.9,"yT1":0,"xT2":1058.1,"yT2":0,"toosoon":0,"cond_shown":"equaldotanddens","ratio_trial":900,"smaller_num":"18","larger_num":"20","correct_side":2,"subjID":"ValeriaBejarano33","gender":"1","age":"9","school":"4"},{"start_time":1552070032014,"click_time":1552070033465,"finger_time":1552070032664,"fix_duration":267.8734813628556,"trial":39,"RT":650,"MT":801,"sideResp":2,"stimulus":"img/900/randomdotsizeEA/R/7_Ratio_900_L_9_R_10.png","xmouse":[746,746,746,746,746,746,746,746,746,746,746,746,746,746,746,746,746,746,746,746,746,746,746,746,746,746,746,747,747,749,752,755,756,756,758,760,765,768,770,770,770,783,791,800,808,815,834,852,875,902,929,981,998,1015,1034,1043,1041,1035,1028,1019,1007,985,984,984,989,1003,1030,1040,1045,1048,1050,1057,1073],"ymouse":[623,623,623,623,623,623,623,623,623,623,623,623,623,623,623,623,623,623,623,623,623,623,623,623,623,623,623,620,618,612,604,581,566,539,515,487,459,448,434,423,411,398,396,393,390,386,372,364,357,352,349,343,336,326,296,264,231,219,209,195,178,144,137,133,129,126,122,120,119,117,115,107,89],"timestamp_mouse":[13,36,50,69,90,111,130,151,171,191,211,231,251,271,291,310,329,349,369,390,410,430,450,470,489,511,531,549,570,590,610,631,650,669,690,710,730,750,770,790,810,829,851,869,889,910,931,951,970,990,1010,1030,1051,1070,1089,1109,1129,1151,1170,1190,1211,1230,1251,1270,1290,1310,1330,1351,1371,1390,1411,1429,1450],"xSR":741.5,"ySR":573.95,"xT1":424.9,"yT1":0,"xT2":1058.1,"yT2":0,"toosoon":0,"cond_shown":"randomdotsizeEA","ratio_trial":900,"smaller_num":"9","larger_num":"10","correct_side":2,"subjID":"ValeriaBejarano33","gender":"1","age":"9","school":"4"},{"start_time":1552070035093,"click_time":1552070036344,"finger_time":1552070035724,"fix_duration":947.3111574267334,"trial":40,"RT":631,"MT":620,"sideResp":2,"stimulus":"img/900/equaldotsize/R/14_Ratio_900_L_18_R_20.png","xmouse":[814,814,814,814,814,814,814,814,814,814,814,814,814,814,814,814,814,814,814,814,814,814,814,814,814,814,814,814,817,821,827,836,864,877,887,892,899,913,917,921,925,932,936,938,940,941,941,945,951,960,969,978,996,1000,1006,1016,1020,1023,1026,1034,1046,1073,1136],"ymouse":[623,623,623,623,623,623,623,623,623,623,623,623,623,623,623,623,623,623,623,623,623,623,623,623,623,623,623,620,611,602,587,559,492,457,435,416,399,366,357,349,342,333,320,311,297,283,265,235,228,219,213,210,204,201,190,174,166,162,160,158,153,134,73],"timestamp_mouse":[11,31,51,72,91,111,132,151,171,190,211,232,251,271,291,310,332,352,372,392,412,431,452,472,491,511,531,551,571,590,612,631,651,671,692,711,732,751,772,791,811,831,850,870,892,911,932,951,972,991,1011,1031,1051,1071,1092,1111,1131,1151,1171,1191,1211,1230,1251],"xSR":741.5,"ySR":573.95,"xT1":424.9,"yT1":0,"xT2":1058.1,"yT2":0,"toosoon":0,"cond_shown":"equaldotsize","ratio_trial":900,"smaller_num":"18","larger_num":"20","correct_side":2,"subjID":"ValeriaBejarano33","gender":"1","age":"9","school":"4"},{"start_time":1552070046879,"click_time":1552070047844,"finger_time":1552070047564,"fix_duration":372.6861942474068,"trial":41,"RT":685,"MT":280,"sideResp":1,"stimulus":"img/900/equaldotanddens/R/11_Ratio_900_L_18_R_20.png","xmouse":[809,809,809,809,809,809,809,809,809,809,809,809,809,809,808,803,803,803,803,803,803,803,803,803,803,803,802,802,803,804,805,806,806,799,785,736,710,689,672,659,625,614,602,595,583,556,545,530,515],"ymouse":[642,642,642,642,642,642,642,642,642,642,642,642,642,642,642,644,645,645,645,645,645,645,645,645,645,645,645,644,643,642,637,624,617,589,557,451,399,352,317,282,177,152,130,119,106,85,76,65,55],"timestamp_mouse":[11,33,45,66,85,105,126,145,166,185,206,225,245,265,285,304,325,346,365,385,406,426,446,466,486,506,525,546,565,585,605,625,646,666,685,705,725,745,766,785,805,826,845,865,885,906,926,945,965],"xSR":741.5,"ySR":573.95,"xT1":424.9,"yT1":0,"xT2":1058.1,"yT2":0,"toosoon":0,"cond_shown":"equaldotanddens","ratio_trial":900,"smaller_num":"18","larger_num":"20","correct_side":2,"subjID":"ValeriaBejarano33","gender":"1","age":"9","school":"4"},{"start_time":1552070050413,"click_time":1552070051584,"finger_time":1552070050984,"fix_duration":1408.1198163327815,"trial":42,"RT":571,"MT":600,"sideResp":2,"stimulus":"img/750/randomdotsizeEA/R/15_Ratio_750_L_9_R_12.png","xmouse":[816,816,816,816,816,816,816,816,816,816,816,816,816,816,816,816,816,816,816,816,816,816,816,816,815,817,819,820,820,820,820,820,817,811,815,829,844,858,892,907,923,939,953,983,997,1001,1006,1008,1009,1009,1009,1009,1009,1018,1032,1042,1052,1058,1067],"ymouse":[626,626,626,626,626,626,626,626,626,626,626,626,626,626,626,626,626,626,626,626,626,626,626,626,620,610,599,586,554,534,510,483,454,368,343,322,302,285,258,247,232,215,197,164,155,153,152,152,151,151,151,151,151,147,136,125,108,91,72],"timestamp_mouse":[12,32,53,72,91,111,132,152,172,191,212,231,252,271,291,312,331,352,372,392,411,431,451,471,491,511,532,551,571,591,612,631,651,671,692,711,732,751,771,792,811,831,851,871,892,911,931,952,971,992,1011,1031,1052,1071,1091,1111,1132,1151,1171],"xSR":741.5,"ySR":573.95,"xT1":424.9,"yT1":0,"xT2":1058.1,"yT2":0,"toosoon":0,"cond_shown":"randomdotsizeEA","ratio_trial":750,"smaller_num":"9","larger_num":"12","correct_side":2,"subjID":"ValeriaBejarano33","gender":"1","age":"9","school":"4"},{"start_time":1552070052657,"click_time":1552070053705,"finger_time":1552070053324,"fix_duration":250,"trial":43,"RT":667,"MT":381,"sideResp":1,"stimulus":"img/750/equaldotsize/R/5_Ratio_750_L_15_R_20.png","xmouse":[790,788,786,786,786,786,786,786,786,786,786,786,786,786,786,786,786,786,786,786,786,786,786,786,786,786,786,786,786,786,786,789,797,801,809,820,845,852,852,844,823,805,769,750,733,712,665,632,595,547,523,506,485],"ymouse":[632,635,638,638,638,638,638,638,638,638,638,638,638,638,638,638,638,638,638,638,638,638,638,638,638,638,638,638,638,638,633,623,574,546,510,470,382,343,317,292,263,249,229,219,209,201,180,164,149,127,116,106,95],"timestamp_mouse":[9,32,48,67,87,108,127,148,167,187,208,227,248,267,287,307,328,348,367,387,408,427,447,467,488,508,528,547,567,587,607,627,647,667,687,707,727,747,767,787,808,827,848,867,888,908,927,947,967,987,1007,1027,1048],"xSR":741.5,"ySR":573.95,"xT1":424.9,"yT1":0,"xT2":1058.1,"yT2":0,"toosoon":0,"cond_shown":"equaldotsize","ratio_trial":750,"smaller_num":"15","larger_num":"20","correct_side":2,"subjID":"ValeriaBejarano33","gender":"1","age":"9","school":"4"},{"start_time":1552070057144,"click_time":1552070058626,"finger_time":1552070057785,"fix_duration":676.4642273151937,"trial":44,"RT":641,"MT":841,"sideResp":2,"stimulus":"img/500/randomdotsizeEA/R/15_Ratio_500_L_1_R_2.png","xmouse":[797,797,797,797,797,797,797,797,797,797,797,797,797,797,797,797,797,797,797,797,797,797,797,797,797,797,797,798,805,809,814,819,824,835,843,846,849,850,851,854,861,868,874,899,973,1035,1085,1136,1228,1259,1271,1277,1282,1293,1296,1301,1304,1304,1304,1304,1304,1304,1299,1281,1272,1267,1263,1257,1238,1227,1221,1211,1200,1170,1158],"ymouse":[625,625,625,625,625,625,625,625,625,625,625,625,625,625,625,625,625,625,625,625,625,625,625,625,625,625,625,624,612,601,592,583,570,539,511,491,468,442,398,383,371,360,349,317,253,211,172,130,32,0,0,0,0,0,0,0,0,0,0,0,0,0,0,2,3,5,6,6,8,9,9,10,12,14,14],"timestamp_mouse":[17,24,41,60,81,100,120,140,161,180,201,220,241,261,280,300,320,341,361,381,401,421,441,461,480,500,520,540,560,580,600,620,641,660,681,700,720,740,760,780,800,821,841,860,880,900,921,940,960,980,1000,1020,1040,1060,1080,1100,1120,1140,1160,1181,1201,1220,1240,1260,1281,1300,1320,1340,1362,1380,1401,1421,1441,1460,1481],"xSR":741.5,"ySR":573.95,"xT1":424.9,"yT1":0,"xT2":1058.1,"yT2":0,"toosoon":0,"cond_shown":"randomdotsizeEA","ratio_trial":500,"smaller_num":"1","larger_num":"2","correct_side":2,"subjID":"ValeriaBejarano33","gender":"1","age":"9","school":"4"},{"start_time":1552070060163,"click_time":1552070061404,"finger_time":1552070060944,"fix_duration":816.1793333045524,"trial":45,"RT":781,"MT":460,"sideResp":1,"stimulus":"img/500/equaldotanddens/L/4_Ratio_500_L_18_R_9.png","xmouse":[816,816,818,818,818,818,818,818,818,818,818,818,818,818,818,818,818,818,818,818,818,818,818,818,818,818,818,818,818,818,818,818,818,818,818,818,816,807,795,781,756,731,708,699,694,692,692,692,692,692,692,689,676,635,607,586,571,561,548,544,537,534,521],"ymouse":[673,673,672,671,671,671,671,671,671,671,671,671,671,671,671,671,671,671,671,671,671,671,670,670,670,669,669,669,669,669,669,669,669,669,666,662,648,611,586,556,505,443,334,193,164,151,150,150,150,150,149,143,125,100,91,87,86,86,87,88,89,89,89],"timestamp_mouse":[9,21,41,61,82,101,121,141,162,182,202,221,241,261,282,301,322,341,362,382,402,422,441,461,481,502,522,541,561,581,602,621,641,662,681,702,721,741,761,781,801,821,841,861,881,901,921,941,961,981,1001,1021,1041,1061,1081,1101,1121,1141,1161,1181,1201,1222,1241],"xSR":741.5,"ySR":573.95,"xT1":424.9,"yT1":0,"xT2":1058.1,"yT2":0,"toosoon":0,"cond_shown":"equaldotanddens","ratio_trial":500,"smaller_num":"9","larger_num":"18","correct_side":1,"subjID":"ValeriaBejarano33","gender":"1","age":"9","school":"4"},{"start_time":1552070066184,"click_time":1552070067744,"finger_time":1552070066664,"fix_duration":1437.6629725752816,"trial":46,"RT":480,"MT":1080,"sideResp":2,"stimulus":"img/500/randomdotsizeEA/L/4_Ratio_500_L_18_R_9.png","xmouse":[828,828,828,828,828,828,828,828,828,828,827,824,824,824,824,824,824,824,824,824,823,821,816,816,816,822,833,855,867,874,887,908,969,1012,1053,1078,1093,1099,1099,1095,1088,1083,1072,1070,1069,1069,1069,1066,1050,1030,1007,996,974,971,971,971,971,973,973,973,973,976,983,994,1006,1014,1018,1024,1026,1028,1032,1035,1045,1047,1048,1049,1051,1057,1059],"ymouse":[604,604,604,604,604,604,604,604,604,604,604,604,604,604,604,604,604,604,604,604,604,604,590,577,557,531,498,454,437,430,418,404,354,315,276,238,211,184,173,155,143,132,121,119,119,119,119,108,79,52,25,13,0,0,0,0,0,0,0,0,0,0,0,0,0,0,0,0,0,0,0,0,2,2,2,3,3,7,7],"timestamp_mouse":[1,20,42,61,81,100,120,140,161,181,200,221,241,261,281,300,321,340,361,381,401,421,441,460,480,501,520,540,559,580,600,620,640,660,680,700,720,740,760,780,801,820,840,860,880,901,921,940,960,980,1001,1022,1041,1060,1080,1100,1120,1140,1161,1181,1201,1219,1241,1260,1280,1300,1321,1341,1360,1380,1400,1421,1440,1461,1480,1501,1520,1540,1560],"xSR":741.5,"ySR":573.95,"xT1":424.9,"yT1":0,"xT2":1058.1,"yT2":0,"toosoon":0,"cond_shown":"randomdotsizeEA","ratio_trial":500,"smaller_num":"9","larger_num":"18","correct_side":1,"subjID":"ValeriaBejarano33","gender":"1","age":"9","school":"4"},{"start_time":1552070079735,"click_time":1552070081464,"finger_time":1552070080204,"fix_duration":250,"trial":47,"RT":469,"MT":1260,"sideResp":2,"stimulus":"img/250/equaldotanddens/R/10_Ratio_250_L_4_R_16.png","xmouse":[791,791,791,791,791,791,791,791,791,791,791,792,793,794,795,795,797,800,802,802,802,802,802,802,802,802,802,803,803,804,804,794,781,771,769,791,812,844,888,945,1006,1016,1024,1028,1030,1038,1041,1045,1050,1055,1063,1067,1068,1070,1072,1073,1074,1076,1076,1079,1083,1085,1086,1086,1088,1089,1094,1096,1100,1103,1106,1113,1116,1117,1118,1119,1119,1119,1119,1119,1119,1119,1121,1123,1124,1125,1125],"ymouse":[657,657,657,657,657,657,657,657,657,657,657,657,656,655,654,653,647,638,624,609,583,577,574,571,571,571,570,567,562,553,544,509,482,460,445,430,427,423,417,409,390,378,360,336,331,314,309,305,299,291,276,269,264,260,255,252,249,246,244,240,229,223,217,211,204,201,190,184,177,171,164,147,139,135,130,128,128,128,128,128,128,127,125,119,116,107,96],"timestamp_mouse":[11,38,49,69,90,110,129,149,170,189,209,230,249,269,289,309,330,349,369,389,409,430,449,469,489,510,529,549,570,589,610,629,649,669,690,709,729,749,769,789,810,829,850,869,890,909,929,949,969,989,1010,1029,1050,1069,1089,1110,1129,1149,1169,1189,1209,1229,1249,1269,1290,1309,1329,1349,1369,1389,1409,1429,1449,1469,1489,1510,1529,1550,1570,1589,1609,1629,1649,1669,1690,1709,1729],"xSR":741.5,"ySR":573.95,"xT1":424.9,"yT1":0,"xT2":1058.1,"yT2":0,"toosoon":0,"cond_shown":"equaldotanddens","ratio_trial":250,"smaller_num":"4","larger_num":"16","correct_side":2,"subjID":"ValeriaBejarano33","gender":"1","age":"9","school":"4"},{"start_time":1552070083308,"click_time":1552070085384,"finger_time":1552070083965,"fix_duration":381.9175519582194,"trial":48,"RT":657,"MT":1419,"sideResp":2,"stimulus":"img/250/equaldotanddens/R/13_Ratio_250_L_2_R_8.png","xmouse":[760,760,760,760,760,760,760,760,760,760,760,760,760,760,760,760,760,760,760,760,760,760,760,760,760,760,760,761,764,771,786,797,807,808,810,816,817,817,813,810,810,810,810,812,817,822,829,851,861,868,871,873,884,893,906,911,916,919,920,923,926,929,934,936,938,943,947,955,957,960,961,963,970,975,984,990,998,1008,1015,1020,1024,1027,1029,1030,1030,1032,1033,1037,1039,1043,1046,1051,1053,1054,1054,1055,1055,1057,1058,1058,1058,1058,1058,1059],"ymouse":[601,601,601,601,601,601,601,601,601,601,601,601,601,601,601,601,601,601,601,601,601,601,601,601,601,601,601,601,599,594,583,574,566,565,558,536,511,454,428,406,388,376,356,345,337,330,318,277,255,241,231,222,197,178,148,127,109,94,90,85,81,79,78,77,76,75,74,74,73,72,72,71,70,69,67,67,65,63,59,56,55,54,53,52,52,52,52,52,52,52,52,52,52,52,52,52,51,51,51,51,51,51,51,51],"timestamp_mouse":[16,36,57,76,97,116,137,156,176,197,217,236,256,276,297,317,337,356,377,396,416,436,457,477,497,517,537,557,576,596,616,636,657,676,696,717,736,756,776,796,816,836,856,877,896,917,936,956,976,998,1016,1037,1056,1076,1095,1117,1136,1156,1176,1197,1216,1236,1256,1277,1296,1316,1337,1356,1376,1396,1416,1436,1456,1476,1496,1517,1536,1556,1576,1596,1616,1636,1656,1678,1696,1716,1736,1756,1776,1797,1817,1836,1857,1877,1896,1916,1937,1956,1976,1996,2017,2037,2057,2076],"xSR":741.5,"ySR":573.95,"xT1":424.9,"yT1":0,"xT2":1058.1,"yT2":0,"toosoon":0,"cond_shown":"equaldotanddens","ratio_trial":250,"smaller_num":"2","larger_num":"8","correct_side":2,"subjID":"ValeriaBejarano33","gender":"1","age":"9","school":"4"},{"start_time":1552070088126,"click_time":1552070089164,"finger_time":1552070088724,"fix_duration":1479.8586904823462,"trial":49,"RT":598,"MT":440,"sideResp":2,"stimulus":"img/250/equaldotanddens/R/4_Ratio_250_L_3_R_12.png","xmouse":[814,814,814,815,815,815,815,815,815,815,815,815,815,815,815,815,815,815,815,815,815,815,815,815,815,815,815,819,825,836,849,872,945,980,1007,1031,1052,1072,1077,1079,1079,1079,1079,1079,1078,1078,1078,1078,1078,1078,1078,1079,1083],"ymouse":[645,645,643,642,642,642,642,642,642,642,642,642,642,642,642,642,642,642,642,642,642,642,642,642,642,642,642,636,629,616,597,567,475,426,378,336,292,234,215,203,190,177,140,128,121,116,114,114,114,114,111,106,96],"timestamp_mouse":[1,18,38,58,78,99,118,138,159,179,199,219,238,259,278,299,319,339,358,378,398,418,439,459,478,499,519,538,558,579,598,619,638,659,678,698,718,738,759,779,799,819,838,858,878,898,918,938,959,978,998,1019,1038],"xSR":741.5,"ySR":573.95,"xT1":424.9,"yT1":0,"xT2":1058.1,"yT2":0,"toosoon":0,"cond_shown":"equaldotanddens","ratio_trial":250,"smaller_num":"3","larger_num":"12","correct_side":2,"subjID":"ValeriaBejarano33","gender":"1","age":"9","school":"4"},{"start_time":1552070091535,"click_time":1552070092784,"finger_time":1552070092164,"fix_duration":1450.0269220045825,"trial":50,"RT":629,"MT":620,"sideResp":1,"stimulus":"img/250/equaldotanddens/L/5_Ratio_250_L_24_R_6.png","xmouse":[762,762,762,762,762,762,762,762,762,762,762,762,762,762,762,762,762,762,762,762,762,762,762,762,764,764,764,765,766,766,766,736,711,683,655,628,596,588,582,576,567,563,551,544,538,534,529,511,495,474,438,420,413,413,413,413,413,413,414,415,418,422,431],"ymouse":[608,608,608,608,608,608,608,608,608,608,608,608,608,608,608,608,608,608,608,608,608,608,608,608,607,607,607,607,605,598,592,530,492,453,417,387,340,320,301,279,250,232,205,196,187,184,180,169,157,141,109,90,79,79,79,79,79,78,78,78,78,78,78],"timestamp_mouse":[9,40,50,69,90,109,129,150,169,189,210,230,249,270,290,310,330,350,370,389,409,430,450,470,489,509,530,550,570,589,611,629,649,669,689,709,729,750,769,789,810,829,850,869,890,909,929,949,970,989,1010,1029,1050,1069,1089,1110,1130,1149,1169,1189,1209,1229,1249],"xSR":741.5,"ySR":573.95,"xT1":424.9,"yT1":0,"xT2":1058.1,"yT2":0,"toosoon":0,"cond_shown":"equaldotanddens","ratio_trial":250,"smaller_num":"6","larger_num":"24","correct_side":1,"subjID":"ValeriaBejarano33","gender":"1","age":"9","school":"4"},{"start_time":1552070094880,"click_time":1552070095784,"finger_time":1552070095444,"fix_duration":994.2772926369942,"trial":51,"RT":564,"MT":340,"sideResp":2,"stimulus":"img/250/randomdotsizeEA/R/13_Ratio_250_L_2_R_8.png","xmouse":[778,778,778,778,778,778,778,778,778,778,778,778,778,778,778,778,778,778,778,778,778,778,778,778,778,780,793,815,839,861,906,925,945,953,960,973,977,978,978,978,991,1000,1050,1074,1086,1100],"ymouse":[622,622,622,622,622,622,622,622,622,622,622,622,622,622,622,622,622,622,622,622,622,622,622,622,622,622,605,576,543,514,441,403,339,302,258,182,169,168,168,168,156,150,120,107,100,93],"timestamp_mouse":[9,33,44,65,84,104,125,144,164,184,204,224,245,264,285,306,324,345,364,384,404,425,444,464,484,505,524,545,564,584,604,624,644,664,684,704,725,744,764,785,804,824,844,865,884,904],"xSR":741.5,"ySR":573.95,"xT1":424.9,"yT1":0,"xT2":1058.1,"yT2":0,"toosoon":0,"cond_shown":"randomdotsizeEA","ratio_trial":250,"smaller_num":"2","larger_num":"8","correct_side":2,"subjID":"ValeriaBejarano33","gender":"1","age":"9","school":"4"},{"start_time":1552070107876,"click_time":1552070108864,"finger_time":1552070108105,"fix_duration":250,"trial":52,"RT":229,"MT":759,"sideResp":1,"stimulus":"img/500/equaldotanddens/L/4_Ratio_500_L_18_R_9.png","xmouse":[796,796,796,796,796,796,795,785,774,759,743,728,715,713,710,708,705,705,705,705,705,704,704,705,711,719,732,751,754,754,753,751,736,722,698,679,660,632,625,621,616,612,598,584,574,564,543,532,521,508],"ymouse":[615,615,615,615,615,615,615,615,616,618,623,626,627,627,627,627,625,624,622,622,622,619,608,593,581,566,545,497,476,457,443,433,410,400,387,380,369,350,343,339,334,329,312,291,267,239,168,136,105,80],"timestamp_mouse":[10,31,49,69,89,109,128,149,168,188,208,229,248,268,288,309,329,348,368,389,408,428,448,469,488,508,529,548,568,588,609,628,648,668,689,708,728,749,768,788,808,828,848,869,888,909,929,948,968,988],"xSR":741.5,"ySR":573.95,"xT1":424.9,"yT1":0,"xT2":1058.1,"yT2":0,"toosoon":0,"cond_shown":"equaldotanddens","ratio_trial":500,"smaller_num":"9","larger_num":"18","correct_side":1,"subjID":"ValeriaBejarano33","gender":"1","age":"9","school":"4"},{"start_time":1552070110805,"click_time":1552070111824,"finger_time":1552070111224,"fix_duration":859.7666666017866,"trial":53,"RT":419,"MT":600,"sideResp":2,"stimulus":"img/900/equaldotsize/R/12_Ratio_900_L_18_R_20.png","xmouse":[798,798,798,798,798,798,798,798,798,798,798,798,798,798,798,798,798,798,798,798,798,798,797,795,794,793,787,784,784,784,784,803,818,846,892,945,1014,1039,1048,1053,1058,1073,1080,1086,1089,1089,1089,1089,1089,1089,1089,1097],"ymouse":[591,591,591,591,591,591,591,591,591,591,591,591,591,591,591,591,591,591,591,591,579,541,519,500,488,478,446,428,425,422,417,391,372,339,288,224,167,161,160,159,159,148,140,129,122,113,103,102,102,102,102,88],"timestamp_mouse":[1,32,39,60,79,100,119,140,159,179,200,219,240,259,279,299,319,339,359,380,399,419,440,459,479,500,519,539,559,579,599,619,639,660,679,699,719,738,759,779,799,819,839,859,880,900,919,939,959,980,999,1019],"xSR":741.5,"ySR":573.95,"xT1":424.9,"yT1":0,"xT2":1058.1,"yT2":0,"toosoon":0,"cond_shown":"equaldotsize","ratio_trial":900,"smaller_num":"18","larger_num":"20","correct_side":2,"subjID":"ValeriaBejarano33","gender":"1","age":"9","school":"4"},{"start_time":1552070113985,"click_time":1552070115004,"finger_time":1552070114524,"fix_duration":1178.7770852073643,"trial":54,"RT":539,"MT":480,"sideResp":2,"stimulus":"img/750/equaldotanddens/R/5_Ratio_750_L_15_R_20.png","xmouse":[792,792,792,792,792,792,792,792,792,792,792,792,792,792,792,792,792,792,792,792,792,792,792,793,795,802,812,825,832,845,859,875,905,922,934,945,957,982,991,1000,1006,1012,1018,1019,1019,1019,1019,1019,1019,1027,1043,1060],"ymouse":[619,619,619,619,619,619,619,619,619,619,619,619,619,619,619,619,619,619,619,619,619,619,619,619,617,604,576,536,515,491,465,437,364,326,299,277,252,192,170,151,132,115,88,86,86,86,86,86,85,83,77,70],"timestamp_mouse":[1,20,41,59,79,99,120,139,159,181,199,219,239,259,279,299,319,340,359,379,400,420,439,459,480,499,520,539,559,579,600,619,639,659,679,699,719,739,759,779,799,819,839,859,880,900,919,940,960,979,1000,1019],"xSR":741.5,"ySR":573.95,"xT1":424.9,"yT1":0,"xT2":1058.1,"yT2":0,"toosoon":0,"cond_shown":"equaldotanddens","ratio_trial":750,"smaller_num":"15","larger_num":"20","correct_side":2,"subjID":"ValeriaBejarano33","gender":"1","age":"9","school":"4"},{"start_time":1552070119062,"click_time":1552070120284,"finger_time":1552070119626,"fix_duration":795.950721761804,"trial":55,"RT":564,"MT":658,"sideResp":2,"stimulus":"img/500/randomdotsizeEA/R/14_Ratio_500_L_5_R_10.png","xmouse":[762,762,762,762,762,762,762,762,762,762,762,762,762,762,762,762,765,768,768,770,772,772,773,773,769,768,768,768,773,785,794,802,808,817,821,825,827,830,842,867,878,887,892,901,903,907,920,939,994,1020,1036,1038,1038,1038,1039,1040,1042,1046,1060,1075,1088],"ymouse":[640,640,640,640,640,640,640,640,640,640,640,640,640,640,640,639,634,626,623,620,617,615,611,593,581,576,574,571,561,545,532,519,506,485,474,463,447,429,384,336,307,282,263,242,239,239,234,228,217,210,202,200,198,192,188,183,177,166,137,114,97],"timestamp_mouse":[23,41,62,83,102,123,142,163,183,203,222,242,263,283,302,323,342,363,382,402,422,443,462,482,502,522,543,564,582,603,624,642,662,682,702,722,742,762,783,804,822,842,862,882,902,922,942,962,982,1002,1022,1043,1062,1082,1102,1122,1142,1162,1183,1203,1222],"xSR":741.5,"ySR":573.95,"xT1":424.9,"yT1":0,"xT2":1058.1,"yT2":0,"toosoon":0,"cond_shown":"randomdotsizeEA","ratio_trial":500,"smaller_num":"5","larger_num":"10","correct_side":2,"subjID":"ValeriaBejarano33","gender":"1","age":"9","school":"4"},{"start_time":1552070123602,"click_time":1552070124465,"finger_time":1552070124244,"fix_duration":296.8866361894877,"trial":56,"RT":642,"MT":221,"sideResp":1,"stimulus":"img/500/equaldotsize/L/10_Ratio_500_L_4_R_2.png","xmouse":[818,817,817,817,817,817,816,815,814,814,814,814,814,814,813,813,812,806,803,802,799,797,797,797,797,797,797,797,797,797,796,793,766,732,686,639,593,518,500,488,485,485,485,483],"ymouse":[629,629,629,629,629,629,629,629,629,629,629,629,629,629,629,629,629,629,625,624,621,619,618,618,618,618,618,618,615,609,602,592,536,489,431,379,326,228,190,156,133,118,101,92],"timestamp_mouse":[3,26,43,62,83,103,122,142,163,182,202,223,242,263,282,302,322,342,362,383,402,423,443,463,482,503,523,543,562,583,602,623,642,662,682,702,722,742,762,783,802,823,842,863],"xSR":741.5,"ySR":573.95,"xT1":424.9,"yT1":0,"xT2":1058.1,"yT2":0,"toosoon":0,"cond_shown":"equaldotsize","ratio_trial":500,"smaller_num":"2","larger_num":"4","correct_side":1,"subjID":"ValeriaBejarano33","gender":"1","age":"9","school":"4"},{"start_time":1552070125873,"click_time":1552070126724,"finger_time":1552070126404,"fix_duration":527.2687755858269,"trial":57,"RT":531,"MT":320,"sideResp":1,"stimulus":"img/500/equaldotsize/L/5_Ratio_500_L_4_R_2.png","xmouse":[774,774,774,774,774,774,774,774,774,774,774,774,774,774,774,774,774,774,774,774,776,777,780,781,781,781,774,767,759,734,714,703,691,681,668,666,657,650,640,600,572,537,517],"ymouse":[648,648,648,648,648,648,648,648,648,648,648,648,648,648,648,648,648,648,648,648,648,648,646,645,618,608,571,551,529,477,441,416,389,365,329,324,297,278,254,182,146,107,85],"timestamp_mouse":[11,36,52,72,91,112,132,151,171,191,212,231,252,272,291,312,332,352,372,392,411,431,451,471,491,512,531,552,571,591,611,631,652,671,691,712,731,751,771,791,812,831,851],"xSR":741.5,"ySR":573.95,"xT1":424.9,"yT1":0,"xT2":1058.1,"yT2":0,"toosoon":0,"cond_shown":"equaldotsize","ratio_trial":500,"smaller_num":"2","larger_num":"4","correct_side":1,"subjID":"ValeriaBejarano33","gender":"1","age":"9","school":"4"},{"start_time":1552070128142,"click_time":1552070128985,"finger_time":1552070128724,"fix_duration":336.1253715397647,"trial":58,"RT":582,"MT":261,"sideResp":2,"stimulus":"img/750/randomdotsizeEA/L/14_Ratio_750_L_8_R_6.png","xmouse":[792,792,792,792,791,790,790,790,790,790,790,790,790,790,790,790,790,790,790,790,790,790,790,790,790,795,805,816,830,847,871,924,938,946,956,962,977,992,1012,1028,1041,1062,1065],"ymouse":[634,634,634,634,634,634,634,634,634,634,634,634,634,634,634,634,634,634,634,634,634,634,634,634,634,632,621,611,600,591,571,523,505,488,469,451,403,367,321,276,232,132,85],"timestamp_mouse":[2,34,43,62,82,103,122,142,162,183,203,223,242,262,283,302,322,343,363,383,403,422,443,463,483,502,522,542,562,582,603,622,642,662,682,703,722,742,763,782,803,822,843],"xSR":741.5,"ySR":573.95,"xT1":424.9,"yT1":0,"xT2":1058.1,"yT2":0,"toosoon":0,"cond_shown":"randomdotsizeEA","ratio_trial":750,"smaller_num":"6","larger_num":"8","correct_side":1,"subjID":"ValeriaBejarano33","gender":"1","age":"9","school":"4"},{"start_time":1552070132206,"click_time":1552070133005,"finger_time":1552070132824,"fix_duration":419.91998905307514,"trial":59,"RT":618,"MT":181,"sideResp":2,"stimulus":"img/500/randomdotsizeEA/R/3_Ratio_500_L_10_R_20.png","xmouse":[815,815,815,815,815,815,815,815,815,815,815,815,815,815,815,815,815,815,815,815,815,815,815,815,815,815,815,815,815,815,818,828,839,862,877,890,911,946,973,1044,1082],"ymouse":[605,605,605,605,605,605,605,605,605,605,605,605,605,605,605,605,605,605,605,605,605,605,605,605,605,605,605,605,605,605,590,565,544,503,481,457,418,340,283,153,87],"timestamp_mouse":[1,18,39,59,79,98,118,139,158,178,199,219,238,259,278,298,319,338,359,378,399,419,439,459,478,499,519,538,558,578,598,618,639,659,678,698,718,738,758,778,799],"xSR":741.5,"ySR":573.95,"xT1":424.9,"yT1":0,"xT2":1058.1,"yT2":0,"toosoon":0,"cond_shown":"randomdotsizeEA","ratio_trial":500,"smaller_num":"10","larger_num":"20","correct_side":2,"subjID":"ValeriaBejarano33","gender":"1","age":"9","school":"4"},{"start_time":1552070135309,"click_time":1552070136065,"finger_time":1552070135844,"fix_duration":1224.278592190562,"trial":60,"RT":535,"MT":221,"sideResp":2,"stimulus":"img/500/equaldotsize/R/2_Ratio_500_L_3_R_6.png","xmouse":[773,773,773,773,773,773,773,773,773,773,773,773,773,773,773,773,773,773,773,773,773,773,773,773,779,786,793,802,818,838,857,880,906,973,1007,1034,1055,1068],"ymouse":[639,639,639,639,639,639,639,639,639,639,639,639,639,639,639,639,639,639,639,639,639,639,639,632,606,584,550,477,395,333,295,255,221,130,83,53,36,23],"timestamp_mouse":[16,36,56,75,95,115,135,156,175,195,216,236,256,276,295,315,336,355,375,395,415,436,455,475,496,515,535,556,575,595,615,635,657,675,695,715,735,756],"xSR":741.5,"ySR":573.95,"xT1":424.9,"yT1":0,"xT2":1058.1,"yT2":0,"toosoon":0,"cond_shown":"equaldotsize","ratio_trial":500,"smaller_num":"3","larger_num":"6","correct_side":2,"subjID":"ValeriaBejarano33","gender":"1","age":"9","school":"4"},{"start_time":1552070138699,"click_time":1552070139925,"finger_time":1552070139505,"fix_duration":1492.0585895843594,"trial":61,"RT":806,"MT":420,"sideResp":1,"stimulus":"img/750/randomdotsizeEA/L/10_Ratio_750_L_4_R_3.png","xmouse":[790,790,790,790,790,790,790,790,790,790,790,790,790,790,790,790,790,790,790,790,790,790,790,790,790,790,790,790,790,790,790,790,790,791,797,800,802,804,807,811,820,823,823,823,817,790,770,746,701,639,612,590,572,556,539,536,536,536,536,535,528,524],"ymouse":[647,647,647,647,647,647,647,647,647,647,647,647,647,647,647,647,647,647,647,647,647,647,647,647,647,647,647,647,647,647,647,647,647,644,632,627,621,614,599,585,541,515,462,402,355,281,251,220,167,97,63,34,12,0,0,0,0,0,0,0,14,20],"timestamp_mouse":[10,33,45,66,86,106,125,145,166,186,206,225,246,265,286,305,326,345,366,385,405,425,446,465,486,506,525,545,566,585,605,625,646,665,686,705,725,745,766,785,806,825,845,867,885,905,925,945,965,985,1005,1025,1045,1065,1088,1105,1125,1145,1166,1186,1205,1225],"xSR":741.5,"ySR":573.95,"xT1":424.9,"yT1":0,"xT2":1058.1,"yT2":0,"toosoon":0,"cond_shown":"randomdotsizeEA","ratio_trial":750,"smaller_num":"3","larger_num":"4","correct_side":1,"subjID":"ValeriaBejarano33","gender":"1","age":"9","school":"4"},{"start_time":1552070142611,"click_time":1552070144324,"finger_time":1552070143204,"fix_duration":1346.0778230353803,"trial":62,"RT":593,"MT":1120,"sideResp":1,"stimulus":"img/250/equaldotsize/L/3_Ratio_250_L_8_R_2.png","xmouse":[763,763,763,763,763,763,763,763,763,763,763,763,763,763,763,763,763,763,763,763,763,763,766,770,779,780,780,780,777,763,754,747,740,733,721,716,709,696,681,642,616,603,594,587,583,583,587,588,588,588,588,587,585,585,585,582,578,573,569,561,552,543,528,511,492,489,489,489,489,489,489,489,489,489,491,492,493,493,493,493,493,493,493,493,493,491],"ymouse":[647,647,647,647,647,647,647,647,647,647,647,647,647,647,647,647,647,647,647,647,647,647,646,639,612,598,591,585,578,556,537,522,508,498,486,484,480,473,465,440,420,407,393,375,328,300,272,239,206,145,123,98,93,93,93,93,93,93,93,95,98,99,101,102,102,102,102,102,102,102,102,102,102,102,102,102,102,102,102,102,102,102,102,102,102,97],"timestamp_mouse":[13,36,53,74,94,114,134,154,173,194,213,234,254,274,293,314,334,354,373,393,413,434,453,474,493,513,533,553,574,593,613,634,653,673,693,713,733,753,773,793,814,833,853,873,894,914,933,954,974,993,1013,1033,1054,1073,1094,1113,1133,1153,1174,1193,1214,1233,1253,1273,1293,1313,1333,1354,1373,1393,1413,1434,1454,1473,1493,1513,1533,1554,1573,1593,1613,1634,1653,1674,1693,1713],"xSR":741.5,"ySR":573.95,"xT1":424.9,"yT1":0,"xT2":1058.1,"yT2":0,"toosoon":0,"cond_shown":"equaldotsize","ratio_trial":250,"smaller_num":"2","larger_num":"8","correct_side":1,"subjID":"ValeriaBejarano33","gender":"1","age":"9","school":"4"},{"start_time":1552070147033,"click_time":1552070147944,"finger_time":1552070147604,"fix_duration":1445.665048650282,"trial":63,"RT":571,"MT":340,"sideResp":1,"stimulus":"img/900/equaldotsize/L/1_Ratio_900_L_10_R_9.png","xmouse":[789,789,789,789,789,789,789,789,789,789,789,789,789,789,789,789,789,788,787,786,785,783,782,771,767,762,759,755,747,737,723,705,686,655,642,634,629,626,623,612,601,588,563,513,492,482],"ymouse":[668,668,668,668,668,668,668,668,668,668,668,668,668,668,668,668,668,669,669,669,664,655,644,612,603,594,588,583,566,549,525,493,470,432,418,406,397,388,370,341,325,295,241,156,119,99],"timestamp_mouse":[11,30,52,71,93,111,132,152,171,191,211,231,251,271,291,312,331,351,371,391,411,432,451,471,491,511,531,552,571,591,611,632,651,671,691,712,731,751,771,791,811,832,851,871,890,911],"xSR":741.5,"ySR":573.95,"xT1":424.9,"yT1":0,"xT2":1058.1,"yT2":0,"toosoon":0,"cond_shown":"equaldotsize","ratio_trial":900,"smaller_num":"9","larger_num":"10","correct_side":1,"subjID":"ValeriaBejarano33","gender":"1","age":"9","school":"4"},{"start_time":1552070151665,"click_time":1552070152524,"finger_time":1552070152185,"fix_duration":338.11603954952665,"trial":64,"RT":520,"MT":339,"sideResp":1,"stimulus":"img/750/equaldotanddens/L/6_Ratio_750_L_24_R_18.png","xmouse":[819,819,819,819,818,816,816,816,816,816,816,816,816,816,816,816,818,821,827,828,828,828,829,829,832,835,838,839,841,841,841,839,829,801,795,792,786,776,732,688,636,574,527,460],"ymouse":[632,632,624,606,601,595,595,595,595,595,595,595,595,595,595,592,589,585,579,579,579,579,578,578,577,575,573,569,559,552,538,524,505,459,448,440,431,414,347,291,229,166,110,28],"timestamp_mouse":[7,19,41,60,80,99,119,139,159,180,199,219,239,259,280,300,320,339,359,380,399,419,439,459,480,499,520,539,559,579,600,620,639,660,679,700,720,740,759,779,800,820,839,859],"xSR":741.5,"ySR":573.95,"xT1":424.9,"yT1":0,"xT2":1058.1,"yT2":0,"toosoon":0,"cond_shown":"equaldotanddens","ratio_trial":750,"smaller_num":"18","larger_num":"24","correct_side":1,"subjID":"ValeriaBejarano33","gender":"1","age":"9","school":"4"},{"start_time":1552070154629,"click_time":1552070155804,"finger_time":1552070155305,"fix_duration":1064.5928661721991,"trial":65,"RT":676,"MT":499,"sideResp":1,"stimulus":"img/750/equaldotanddens/L/1_Ratio_750_L_20_R_15.png","xmouse":[765,765,765,765,765,765,765,765,765,765,765,765,765,765,765,765,765,765,765,765,765,765,765,765,765,765,765,765,765,765,766,767,769,771,771,755,736,708,662,545,498,479,470,470,470,472,475,479,484,492,496,499,500,500,502,502,502,502,500],"ymouse":[596,596,596,596,596,596,596,596,596,596,596,596,596,596,596,596,596,596,596,596,596,596,596,596,596,596,596,596,596,596,592,588,577,563,490,450,413,383,344,262,228,210,200,199,192,183,173,161,152,137,133,130,129,127,123,115,111,105,96],"timestamp_mouse":[17,35,55,75,95,116,135,155,176,195,216,236,256,276,295,316,335,355,375,396,416,436,455,475,495,516,535,555,575,595,615,636,655,676,695,715,735,756,775,795,814,835,855,876,895,915,935,956,975,996,1015,1035,1057,1076,1095,1116,1135,1156,1175],"xSR":741.5,"ySR":573.95,"xT1":424.9,"yT1":0,"xT2":1058.1,"yT2":0,"toosoon":0,"cond_shown":"equaldotanddens","ratio_trial":750,"smaller_num":"15","larger_num":"20","correct_side":1,"subjID":"ValeriaBejarano33","gender":"1","age":"9","school":"4"},{"start_time":1552070183512,"click_time":1552070184225,"finger_time":1552070183984,"fix_duration":1165.1041151382847,"trial":66,"RT":472,"MT":241,"sideResp":1,"stimulus":"img/900/randomdotsizeEA/L/2_Ratio_900_L_20_R_18.png","xmouse":[812,812,812,812,812,812,812,812,812,812,812,812,812,812,812,812,812,812,812,812,810,802,784,747,727,708,685,668,633,619,603,583,566,547,525,522],"ymouse":[653,653,653,653,653,653,653,653,653,653,653,653,653,653,653,653,653,653,653,651,638,622,588,521,462,422,377,334,268,238,202,156,118,87,53,49],"timestamp_mouse":[13,34,53,71,92,113,133,151,173,193,212,232,253,271,293,312,331,351,373,393,412,432,451,472,493,513,532,553,572,591,611,632,652,672,692,713],"xSR":741.5,"ySR":573.95,"xT1":424.9,"yT1":0,"xT2":1058.1,"yT2":0,"toosoon":0,"cond_shown":"randomdotsizeEA","ratio_trial":900,"smaller_num":"18","larger_num":"20","correct_side":1,"subjID":"ValeriaBejarano33","gender":"1","age":"9","school":"4"},{"start_time":1552070185732,"click_time":1552070186745,"finger_time":1552070186245,"fix_duration":425.1323348932414,"trial":67,"RT":513,"MT":500,"sideResp":1,"stimulus":"img/900/randomdotsizeEA/L/2_Ratio_900_L_20_R_18.png","xmouse":[781,781,781,781,781,781,781,781,781,781,781,781,781,781,781,781,781,781,781,781,781,783,785,790,792,792,784,773,753,745,742,742,742,740,729,716,700,666,655,641,625,612,585,572,564,556,548,536,532,525,521],"ymouse":[630,630,630,630,630,630,630,630,630,630,630,630,630,630,630,630,630,630,630,630,630,630,626,602,580,559,529,504,455,430,407,383,356,292,264,242,225,198,193,183,173,163,144,134,125,119,111,96,90,81,76],"timestamp_mouse":[13,33,53,72,91,112,132,153,171,193,213,231,253,273,293,313,332,352,372,392,413,432,452,472,492,513,532,552,572,592,611,632,651,672,692,712,732,752,771,792,813,833,853,872,892,913,932,952,972,991,1013],"xSR":741.5,"ySR":573.95,"xT1":424.9,"yT1":0,"xT2":1058.1,"yT2":0,"toosoon":0,"cond_shown":"randomdotsizeEA","ratio_trial":900,"smaller_num":"18","larger_num":"20","correct_side":1,"subjID":"ValeriaBejarano33","gender":"1","age":"9","school":"4"},{"start_time":1552070188564,"click_time":1552070189865,"finger_time":1552070189185,"fix_duration":858.5955106209076,"trial":68,"RT":621,"MT":680,"sideResp":2,"stimulus":"img/900/equaldotsize/L/8_Ratio_900_L_20_R_18.png","xmouse":[785,785,785,785,785,785,785,785,785,785,785,785,785,785,785,785,785,785,785,785,785,785,785,785,785,785,784,786,790,794,798,808,812,815,820,837,881,925,973,1034,1083,1131,1176,1185,1193,1197,1201,1207,1212,1214,1215,1215,1215,1215,1204,1192,1185,1179,1179,1177,1176,1175,1172,1169,1163,1146],"ymouse":[631,631,631,631,631,631,631,631,631,631,631,631,631,631,631,631,631,631,631,631,631,631,631,631,631,631,630,625,617,609,599,571,552,512,470,434,360,311,271,236,214,196,169,157,135,116,98,72,61,54,50,50,50,49,51,54,56,57,57,57,57,57,56,54,51,42],"timestamp_mouse":[1,21,47,61,81,100,121,140,159,181,201,221,240,260,279,300,321,341,360,381,400,421,441,459,480,501,520,540,559,581,600,621,639,661,680,700,721,739,759,780,799,820,840,860,880,900,920,941,960,981,1001,1021,1041,1060,1080,1101,1120,1140,1160,1181,1200,1220,1239,1260,1280,1301],"xSR":741.5,"ySR":573.95,"xT1":424.9,"yT1":0,"xT2":1058.1,"yT2":0,"toosoon":0,"cond_shown":"equaldotsize","ratio_trial":900,"smaller_num":"18","larger_num":"20","correct_side":1,"subjID":"ValeriaBejarano33","gender":"1","age":"9","school":"4"},{"start_time":1552070191888,"click_time":1552070193164,"finger_time":1552070192524,"fix_duration":861.5161094746973,"trial":69,"RT":636,"MT":640,"sideResp":1,"stimulus":"img/750/randomdotsizeEA/L/6_Ratio_750_L_24_R_18.png","xmouse":[784,784,784,784,784,784,784,784,784,784,784,784,784,783,781,780,778,777,776,776,776,776,776,776,776,776,777,778,779,780,779,773,764,746,724,691,679,675,670,669,668,666,665,662,658,647,634,625,615,602,579,575,575,575,575,568,556,551,548,544,539,535,529,522],"ymouse":[626,626,626,626,626,626,626,626,626,625,619,614,610,609,607,606,606,606,606,606,606,606,606,606,606,606,603,600,596,591,574,557,532,491,442,366,338,324,310,294,251,234,218,205,195,177,161,150,137,120,95,91,90,90,90,90,85,83,82,80,77,76,74,72],"timestamp_mouse":[19,44,56,77,96,116,136,155,177,196,216,235,256,276,297,316,336,356,376,396,416,437,455,477,496,515,536,555,576,596,616,636,656,676,697,716,736,756,777,796,815,837,856,876,896,916,937,956,976,996,1016,1036,1056,1075,1096,1116,1136,1155,1176,1195,1215,1235,1256,1276],"xSR":741.5,"ySR":573.95,"xT1":424.9,"yT1":0,"xT2":1058.1,"yT2":0,"toosoon":0,"cond_shown":"randomdotsizeEA","ratio_trial":750,"smaller_num":"18","larger_num":"24","correct_side":1,"subjID":"ValeriaBejarano33","gender":"1","age":"9","school":"4"},{"start_time":1552070195397,"click_time":1552070196183,"finger_time":1552070196003,"fix_duration":891.3072824581733,"trial":70,"RT":606,"MT":180,"sideResp":2,"stimulus":"img/750/randomdotsizeEA/R/3_Ratio_750_L_15_R_20.png","xmouse":[797,797,797,797,797,797,797,797,797,797,797,799,800,802,804,807,809,811,813,815,816,817,817,817,817,818,820,822,826,833,862,882,902,923,947,1003,1026,1042,1053,1070],"ymouse":[651,651,650,650,650,650,650,650,650,650,649,647,646,645,644,640,639,635,632,628,624,619,618,617,616,612,609,605,599,589,536,492,444,388,332,202,158,131,115,95],"timestamp_mouse":[8,38,47,68,87,107,128,148,167,187,207,226,246,268,286,308,327,348,366,387,407,428,447,468,487,506,527,548,567,587,606,626,647,667,687,707,727,747,768,786],"xSR":741.5,"ySR":573.95,"xT1":424.9,"yT1":0,"xT2":1058.1,"yT2":0,"toosoon":0,"cond_shown":"randomdotsizeEA","ratio_trial":750,"smaller_num":"15","larger_num":"20","correct_side":2,"subjID":"ValeriaBejarano33","gender":"1","age":"9","school":"4"},{"start_time":1552070200367,"click_time":1552070201424,"finger_time":1552070200985,"fix_duration":782.5783725471284,"trial":71,"RT":618,"MT":439,"sideResp":1,"stimulus":"img/250/equaldotsize/L/3_Ratio_250_L_8_R_2.png","xmouse":[776,776,776,776,775,774,772,771,770,769,767,764,763,762,760,760,760,760,760,760,760,760,760,760,760,760,760,762,764,766,766,767,767,764,758,748,730,681,661,645,630,621,600,589,575,561,547,523,522,521,522,522,522],"ymouse":[594,594,594,594,594,594,594,594,594,594,595,597,598,599,599,599,599,599,599,599,599,599,599,599,599,599,598,591,586,578,572,551,539,524,488,430,3