[{"start_time":1552313888060,"click_time":1552313890084,"finger_time":1552313888982,"fix_duration":452.9976874885631,"trial":0,"RT":922,"MT":1102,"sideResp":2,"stimulus":"img/250/equaldotanddens/R/8_Ratio_250_L_1_R_4.png","xmouse":[758,758,758,758,758,758,758,758,758,758,758,758,758,758,758,758,758,758,758,758,758,758,758,758,758,758,758,758,758,758,758,758,758,758,758,758,758,758,758,758,758,758,758,758,758,757,875,995,1103,1179,1254,1352,1396,1421,1432,1435,1435,1435,1435,1435,1435,1434,1430,1427,1425,1425,1425,1425,1412,1395,1395,1395,1395,1395,1395,1395,1395,1395,1395,1395,1395,1395,822,867,904,929,932,935,937,941,944,944,944,947,949,950,953,957,961,978,1007,1078],"ymouse":[498,498,498,498,498,498,498,498,498,498,498,498,498,498,498,498,498,498,498,498,498,498,498,498,498,498,498,498,498,498,498,498,498,498,498,498,498,498,498,498,498,498,498,498,498,498,443,377,333,318,318,332,345,353,356,357,357,357,357,357,357,357,356,354,345,269,212,144,62,21,21,21,21,21,21,21,21,21,21,21,21,21,23,52,79,92,92,89,87,84,81,81,81,77,75,73,70,68,64,62,63,74],"timestamp_mouse":[9,32,42,63,82,103,123,143,163,183,203,222,242,263,282,302,324,343,363,383,403,422,443,463,483,503,522,542,562,582,603,623,643,664,683,703,723,743,763,784,803,823,843,862,882,904,922,942,962,982,1003,1023,1042,1063,1082,1104,1124,1142,1162,1182,1202,1223,1243,1262,1282,1303,1322,1342,1362,1383,1404,1422,1443,1462,1482,1502,1523,1542,1562,1583,1602,1622,1642,1663,1682,1704,1724,1742,1763,1782,1803,1823,1842,1863,1882,1904,1922,1942,1964,1983,2003,2024],"xSR":733.5,"ySR":461.5,"xT1":420.09999999999997,"yT1":0,"xT2":1046.8999999999999,"yT2":0,"toosoon":0,"cond_shown":"equaldotanddens","ratio_trial":250,"smaller_num":"1","larger_num":"4","correct_side":2,"subjID":"gabrielacipamocha31","gender":"1","age":"9","school":"4","test":{"fix_dur":[250,1500],"timestim":300,"targets_dim":[100,100],"targets_relative_coord":[0.3,0.7],"size_stim":[880,420],"start_dim":[100,100],"size_start":[300,300],"size_fix":60,"samplingrate":20,"img_types":["equaldotsize","equaldotanddens","randomdotsizeEA"],"ratios":[250,500,750,900],"rep_conds":9,"nTrials":120,"trials_to_rest":500,"Trials_order":[73,3,97,25,70,58,75,93,114,45,51,111,5,64,39,59,77,61,85,81,118,6,48,80,13,103,52,79,30,33,76,18,22,28,12,32,82,53,16,71,88,60,31,40,26,38,105,109,117,56,69,35,27,23,96,11,99,89,115,104,74,14,94,57,92,67,116,42,108,62,78,47,19,72,106,29,113,21,9,87,44,49,101,63,107,84,95,34,1,100,8,41,68,4,110,112,15,91,2,86,36,65,17,98,46,55,119,0,66,20,24,83,102,54,43,7,10,37,50,90],"cond_shown":["equaldotanddens","equaldotsize","equaldotanddens","equaldotanddens","equaldotanddens","equaldotanddens","equaldotsize","equaldotsize","equaldotsize","equaldotsize","equaldotsize","equaldotsize","randomdotsizeEA","equaldotanddens","equaldotsize","randomdotsizeEA","randomdotsizeEA","equaldotanddens","equaldotanddens","equaldotsize","equaldotanddens","equaldotsize","equaldotsize","randomdotsizeEA","equaldotanddens","equaldotanddens","equaldotanddens","equaldotanddens","equaldotsize","equaldotsize","equaldotanddens","equaldotsize","equaldotanddens","equaldotanddens","equaldotsize","randomdotsizeEA","equaldotanddens","randomdotsizeEA","equaldotanddens","randomdotsizeEA","equaldotanddens","equaldotsize","equaldotanddens","equaldotanddens","randomdotsizeEA","randomdotsizeEA","equaldotsize","equaldotanddens","equaldotsize","randomdotsizeEA","equaldotsize","randomdotsizeEA","equaldotsize","randomdotsizeEA","equaldotsize","randomdotsizeEA","equaldotsize","randomdotsizeEA","equaldotanddens","randomdotsizeEA","randomdotsizeEA","randomdotsizeEA","equaldotanddens","equaldotsize","randomdotsizeEA","equaldotanddens","randomdotsizeEA","equaldotsize","equaldotsize","randomdotsizeEA","equaldotsize","randomdotsizeEA","equaldotanddens","equaldotsize","equaldotanddens","randomdotsizeEA","randomdotsizeEA","equaldotsize","equaldotsize","equaldotsize","randomdotsizeEA","equaldotanddens","randomdotsizeEA","equaldotsize","randomdotsizeEA","equaldotsize","randomdotsizeEA","equaldotanddens","equaldotanddens","equaldotanddens","randomdotsizeEA","randomdotsizeEA","randomdotsizeEA","equaldotanddens","randomdotsizeEA","equaldotanddens","equaldotsize","equaldotanddens","randomdotsizeEA","randomdotsizeEA","equaldotsize","randomdotsizeEA","randomdotsizeEA","randomdotsizeEA","equaldotanddens","equaldotanddens","randomdotsizeEA","equaldotsize","equaldotsize","randomdotsizeEA","equaldotsize","randomdotsizeEA","equaldotsize","equaldotsize","equaldotanddens","equaldotanddens","equaldotanddens","equaldotanddens","randomdotsizeEA","equaldotsize"],"ratio_trial":[250,500,250,250,900,900,500,900,750,900,500,500,500,500,500,900,500,250,250,900,900,750,250,750,250,750,500,750,750,900,500,750,900,500,250,750,900,500,500,900,500,250,750,500,250,250,900,250,900,750,900,900,500,900,250,900,500,500,750,750,250,250,900,900,750,750,750,750,250,250,750,900,750,250,900,500,500,900,900,500,750,250,500,500,900,250,900,900,250,500,750,500,750,500,250,500,500,750,250,250,250,500,500,250,900,750,900,250,750,750,250,900,750,750,750,750,900,250,250,750],"smaller_num":["1","5","3","6","18","9","9","9","3","9","6","1","10","9","3","18","3","3","2","18","18","12","2","6","3","3","2","18","18","9","9","12","18","2","2","15","18","5","6","18","6","2","15","9","1","6","18","3","9","6","18","18","6","18","3","18","6","10","12","3","3","6","9","9","18","3","18","15","2","2","12","9","3","2","9","9","5","9","9","1","3","2","2","2","9","2","18","9","3","5","15","9","3","2","2","5","5","15","3","6","2","9","9","4","18","3","18","6","15","15","3","18","9","3","12","3","18","4","6","12"],"larger_num":["4","10","12","24","20","10","18","10","4","10","12","2","20","18","6","20","6","12","8","20","20","16","8","8","12","4","4","24","24","10","18","16","20","4","8","20","20","10","12","20","12","8","20","18","4","24","20","12","10","8","20","20","12","20","12","20","12","20","16","4","12","24","10","10","24","4","24","20","8","8","16","10","4","8","10","18","10","10","10","2","4","8","4","4","10","8","20","10","12","10","20","18","4","4","8","10","10","20","12","24","8","18","18","16","20","4","20","24","20","20","12","20","12","4","16","4","20","16","24","16"],"correct_side":[2,2,1,2,2,1,1,2,1,1,1,2,2,2,2,1,2,2,1,2,2,2,2,1,1,1,2,1,1,2,1,2,2,2,1,1,1,2,1,1,1,1,2,2,2,2,1,2,2,1,2,1,1,1,2,1,1,2,2,2,2,1,2,2,1,2,1,2,1,1,2,2,1,1,2,2,1,2,2,2,1,1,1,2,2,1,1,1,1,1,1,2,1,1,1,2,1,2,1,1,2,2,1,1,2,1,1,1,2,2,1,1,2,2,2,2,2,2,2,2],"img_shown":["img/250/equaldotanddens/R/8_Ratio_250_L_1_R_4.png","img/500/equaldotsize/R/14_Ratio_500_L_5_R_10.png","img/250/equaldotanddens/L/14_Ratio_250_L_12_R_3.png","img/250/equaldotanddens/R/6_Ratio_250_L_6_R_24.png","img/900/equaldotanddens/R/14_Ratio_900_L_18_R_20.png","img/900/equaldotanddens/L/1_Ratio_900_L_10_R_9.png","img/500/equaldotsize/L/4_Ratio_500_L_18_R_9.png","img/900/equaldotsize/R/6_Ratio_900_L_9_R_10.png","img/750/equaldotsize/L/9_Ratio_750_L_4_R_3.png","img/900/equaldotsize/L/1_Ratio_900_L_10_R_9.png","img/500/equaldotsize/L/13_Ratio_500_L_12_R_6.png","img/500/equaldotsize/R/12_Ratio_500_L_1_R_2.png","img/500/randomdotsizeEA/R/3_Ratio_500_L_10_R_20.png","img/500/equaldotanddens/R/6_Ratio_500_L_9_R_18.png","img/500/equaldotsize/R/2_Ratio_500_L_3_R_6.png","img/900/randomdotsizeEA/L/4_Ratio_900_L_20_R_18.png","img/500/randomdotsizeEA/R/2_Ratio_500_L_3_R_6.png","img/250/equaldotanddens/R/9_Ratio_250_L_3_R_12.png","img/250/equaldotanddens/L/7_Ratio_250_L_8_R_2.png","img/900/equaldotsize/R/12_Ratio_900_L_18_R_20.png","img/900/equaldotanddens/R/13_Ratio_900_L_18_R_20.png","img/750/equaldotsize/R/11_Ratio_750_L_12_R_16.png","img/250/equaldotsize/R/13_Ratio_250_L_2_R_8.png","img/750/randomdotsizeEA/L/13_Ratio_750_L_8_R_6.png","img/250/equaldotanddens/L/14_Ratio_250_L_12_R_3.png","img/750/equaldotanddens/L/8_Ratio_750_L_4_R_3.png","img/500/equaldotanddens/R/9_Ratio_500_L_2_R_4.png","img/750/equaldotanddens/L/6_Ratio_750_L_24_R_18.png","img/750/equaldotsize/L/6_Ratio_750_L_24_R_18.png","img/900/equaldotsize/R/6_Ratio_900_L_9_R_10.png","img/500/equaldotanddens/L/4_Ratio_500_L_18_R_9.png","img/750/equaldotsize/R/11_Ratio_750_L_12_R_16.png","img/900/equaldotanddens/R/14_Ratio_900_L_18_R_20.png","img/500/equaldotanddens/R/9_Ratio_500_L_2_R_4.png","img/250/equaldotsize/L/3_Ratio_250_L_8_R_2.png","img/750/randomdotsizeEA/L/1_Ratio_750_L_20_R_15.png","img/900/equaldotanddens/L/10_Ratio_900_L_20_R_18.png","img/500/randomdotsizeEA/R/14_Ratio_500_L_5_R_10.png","img/500/equaldotanddens/L/13_Ratio_500_L_12_R_6.png","img/900/randomdotsizeEA/L/8_Ratio_900_L_20_R_18.png","img/500/equaldotanddens/L/11_Ratio_500_L_12_R_6.png","img/250/equaldotsize/L/7_Ratio_250_L_8_R_2.png","img/750/equaldotanddens/R/5_Ratio_750_L_15_R_20.png","img/500/equaldotanddens/R/1_Ratio_500_L_9_R_18.png","img/250/randomdotsizeEA/R/8_Ratio_250_L_1_R_4.png","img/250/randomdotsizeEA/R/6_Ratio_250_L_6_R_24.png","img/900/equaldotsize/L/10_Ratio_900_L_20_R_18.png","img/250/equaldotanddens/R/9_Ratio_250_L_3_R_12.png","img/900/equaldotsize/R/7_Ratio_900_L_9_R_10.png","img/750/randomdotsizeEA/L/13_Ratio_750_L_8_R_6.png","img/900/equaldotsize/R/11_Ratio_900_L_18_R_20.png","img/900/randomdotsizeEA/L/2_Ratio_900_L_20_R_18.png","img/500/equaldotsize/L/13_Ratio_500_L_12_R_6.png","img/900/randomdotsizeEA/L/2_Ratio_900_L_20_R_18.png","img/250/equaldotsize/R/4_Ratio_250_L_3_R_12.png","img/900/randomdotsizeEA/L/8_Ratio_900_L_20_R_18.png","img/500/equaldotsize/L/13_Ratio_500_L_12_R_6.png","img/500/randomdotsizeEA/R/3_Ratio_500_L_10_R_20.png","img/750/equaldotanddens/R/11_Ratio_750_L_12_R_16.png","img/750/randomdotsizeEA/R/12_Ratio_750_L_3_R_4.png","img/250/randomdotsizeEA/R/11_Ratio_250_L_3_R_12.png","img/250/randomdotsizeEA/L/5_Ratio_250_L_24_R_6.png","img/900/equaldotanddens/R/3_Ratio_900_L_9_R_10.png","img/900/equaldotsize/R/5_Ratio_900_L_9_R_10.png","img/750/randomdotsizeEA/L/6_Ratio_750_L_24_R_18.png","img/750/equaldotanddens/R/7_Ratio_750_L_3_R_4.png","img/750/randomdotsizeEA/L/6_Ratio_750_L_24_R_18.png","img/750/equaldotsize/R/5_Ratio_750_L_15_R_20.png","img/250/equaldotsize/L/7_Ratio_250_L_8_R_2.png","img/250/randomdotsizeEA/L/1_Ratio_250_L_8_R_2.png","img/750/equaldotsize/R/11_Ratio_750_L_12_R_16.png","img/900/randomdotsizeEA/R/7_Ratio_900_L_9_R_10.png","img/750/equaldotanddens/L/8_Ratio_750_L_4_R_3.png","img/250/equaldotsize/L/3_Ratio_250_L_8_R_2.png","img/900/equaldotanddens/R/6_Ratio_900_L_9_R_10.png","img/500/randomdotsizeEA/R/6_Ratio_500_L_9_R_18.png","img/500/randomdotsizeEA/L/7_Ratio_500_L_10_R_5.png","img/900/equaldotsize/R/7_Ratio_900_L_9_R_10.png","img/900/equaldotsize/R/7_Ratio_900_L_9_R_10.png","img/500/equaldotsize/R/12_Ratio_500_L_1_R_2.png","img/750/randomdotsizeEA/L/8_Ratio_750_L_4_R_3.png","img/250/equaldotanddens/L/7_Ratio_250_L_8_R_2.png","img/500/randomdotsizeEA/L/5_Ratio_500_L_4_R_2.png","img/500/equaldotsize/R/9_Ratio_500_L_2_R_4.png","img/900/randomdotsizeEA/R/6_Ratio_900_L_9_R_10.png","img/250/equaldotsize/L/7_Ratio_250_L_8_R_2.png","img/900/randomdotsizeEA/L/10_Ratio_900_L_20_R_18.png","img/900/equaldotanddens/L/1_Ratio_900_L_10_R_9.png","img/250/equaldotanddens/L/15_Ratio_250_L_12_R_3.png","img/500/equaldotanddens/L/7_Ratio_500_L_10_R_5.png","img/750/randomdotsizeEA/L/1_Ratio_750_L_20_R_15.png","img/500/randomdotsizeEA/R/1_Ratio_500_L_9_R_18.png","img/750/randomdotsizeEA/L/9_Ratio_750_L_4_R_3.png","img/500/equaldotanddens/L/5_Ratio_500_L_4_R_2.png","img/250/randomdotsizeEA/L/7_Ratio_250_L_8_R_2.png","img/500/equaldotanddens/R/14_Ratio_500_L_5_R_10.png","img/500/equaldotsize/L/7_Ratio_500_L_10_R_5.png","img/750/equaldotanddens/R/4_Ratio_750_L_15_R_20.png","img/250/randomdotsizeEA/L/14_Ratio_250_L_12_R_3.png","img/250/randomdotsizeEA/L/5_Ratio_250_L_24_R_6.png","img/250/equaldotsize/R/13_Ratio_250_L_2_R_8.png","img/500/randomdotsizeEA/R/1_Ratio_500_L_9_R_18.png","img/500/randomdotsizeEA/L/4_Ratio_500_L_18_R_9.png","img/250/randomdotsizeEA/L/2_Ratio_250_L_16_R_4.png","img/900/equaldotanddens/R/9_Ratio_900_L_18_R_20.png","img/750/equaldotanddens/L/8_Ratio_750_L_4_R_3.png","img/900/randomdotsizeEA/L/10_Ratio_900_L_20_R_18.png","img/250/equaldotsize/L/5_Ratio_250_L_24_R_6.png","img/750/equaldotsize/R/3_Ratio_750_L_15_R_20.png","img/750/randomdotsizeEA/R/4_Ratio_750_L_15_R_20.png","img/250/equaldotsize/L/15_Ratio_250_L_12_R_3.png","img/900/randomdotsizeEA/L/2_Ratio_900_L_20_R_18.png","img/750/equaldotsize/R/15_Ratio_750_L_9_R_12.png","img/750/equaldotsize/R/12_Ratio_750_L_3_R_4.png","img/750/equaldotanddens/R/11_Ratio_750_L_12_R_16.png","img/750/equaldotanddens/R/7_Ratio_750_L_3_R_4.png","img/900/equaldotanddens/R/12_Ratio_900_L_18_R_20.png","img/250/equaldotanddens/R/10_Ratio_250_L_4_R_16.png","img/250/randomdotsizeEA/R/6_Ratio_250_L_6_R_24.png","img/750/equaldotsize/R/11_Ratio_750_L_12_R_16.png"],"Rat0":[["12_Ratio_0_L_9_R_0.png","13_Ratio_0_L_6_R_0.png","5_Ratio_0_L_2_R_0.png","6_Ratio_0_L_4_R_0.png","8_Ratio_0_L_6_R_0.png"],["1_Ratio_0_L_0_R_17.png","10_Ratio_0_L_0_R_22.png","11_Ratio_0_L_0_R_1.png","14_Ratio_0_L_0_R_24.png","15_Ratio_0_L_0_R_4.png","2_Ratio_0_L_0_R_5.png","3_Ratio_0_L_0_R_17.png","4_Ratio_0_L_0_R_7.png","7_Ratio_0_L_0_R_19.png","9_Ratio_0_L_0_R_15.png"]],"Rat250":[["1_Ratio_250_L_8_R_2.png","14_Ratio_250_L_12_R_3.png","15_Ratio_250_L_12_R_3.png","2_Ratio_250_L_16_R_4.png","3_Ratio_250_L_8_R_2.png","5_Ratio_250_L_24_R_6.png","7_Ratio_250_L_8_R_2.png"],["10_Ratio_250_L_4_R_16.png","11_Ratio_250_L_3_R_12.png","12_Ratio_250_L_5_R_20.png","13_Ratio_250_L_2_R_8.png","4_Ratio_250_L_3_R_12.png","6_Ratio_250_L_6_R_24.png","8_Ratio_250_L_1_R_4.png","9_Ratio_250_L_3_R_12.png"]],"Rat500":[["10_Ratio_500_L_4_R_2.png","11_Ratio_500_L_12_R_6.png","13_Ratio_500_L_12_R_6.png","4_Ratio_500_L_18_R_9.png","5_Ratio_500_L_4_R_2.png","7_Ratio_500_L_10_R_5.png","8_Ratio_500_L_8_R_4.png"],["1_Ratio_500_L_9_R_18.png","12_Ratio_500_L_1_R_2.png","14_Ratio_500_L_5_R_10.png","15_Ratio_500_L_1_R_2.png","2_Ratio_500_L_3_R_6.png","3_Ratio_500_L_10_R_20.png","6_Ratio_500_L_9_R_18.png","9_Ratio_500_L_2_R_4.png"]],"Rat750":[["1_Ratio_750_L_20_R_15.png","10_Ratio_750_L_4_R_3.png","13_Ratio_750_L_8_R_6.png","14_Ratio_750_L_8_R_6.png","6_Ratio_750_L_24_R_18.png","8_Ratio_750_L_4_R_3.png","9_Ratio_750_L_4_R_3.png"],["11_Ratio_750_L_12_R_16.png","12_Ratio_750_L_3_R_4.png","15_Ratio_750_L_9_R_12.png","2_Ratio_750_L_6_R_8.png","3_Ratio_750_L_15_R_20.png","4_Ratio_750_L_15_R_20.png","5_Ratio_750_L_15_R_20.png","7_Ratio_750_L_3_R_4.png"]],"Rat900":[["1_Ratio_900_L_10_R_9.png","10_Ratio_900_L_20_R_18.png","2_Ratio_900_L_20_R_18.png","4_Ratio_900_L_20_R_18.png","8_Ratio_900_L_20_R_18.png"],["11_Ratio_900_L_18_R_20.png","12_Ratio_900_L_18_R_20.png","13_Ratio_900_L_18_R_20.png","14_Ratio_900_L_18_R_20.png","15_Ratio_900_L_9_R_10.png","3_Ratio_900_L_9_R_10.png","5_Ratio_900_L_9_R_10.png","6_Ratio_900_L_9_R_10.png","7_Ratio_900_L_9_R_10.png","9_Ratio_900_L_18_R_20.png"]],"Rat1000":[["10_Ratio_1000_L_16_R_16.png","11_Ratio_1000_L_6_R_6.png","12_Ratio_1000_L_14_R_14.png","13_Ratio_1000_L_20_R_20.png","15_Ratio_1000_L_15_R_15.png","2_Ratio_1000_L_17_R_17.png","4_Ratio_1000_L_9_R_9.png","5_Ratio_1000_L_6_R_6.png","6_Ratio_1000_L_19_R_19.png","8_Ratio_1000_L_14_R_14.png","9_Ratio_1000_L_25_R_25.png"],["1_Ratio_1000_L_1_R_1.png","14_Ratio_1000_L_17_R_17.png","3_Ratio_1000_L_17_R_17.png","7_Ratio_1000_L_6_R_6.png"]]}},{"start_time":1552313893975,"click_time":1552313895403,"finger_time":1552313894642,"fix_duration":250,"trial":1,"RT":667,"MT":761,"sideResp":2,"stimulus":"img/500/equaldotsize/R/14_Ratio_500_L_5_R_10.png","xmouse":[783,783,783,783,783,783,783,783,783,783,783,783,783,783,783,783,783,783,783,783,783,783,783,783,783,783,783,783,783,787,788,803,830,850,875,927,952,979,1003,1026,1059,1070,1076,1077,1077,1065,1055,1043,1036,1033,1033,1041,1049,1057,1064,1074,1078,1081,1084,1086,1087,1088,1088,1088,1088,1088,1088,1088,1088,1088,1088,1088],"ymouse":[531,531,531,531,531,531,531,531,531,531,531,531,531,531,531,531,531,531,531,531,531,531,531,531,531,531,531,531,531,533,534,535,535,534,529,506,488,468,447,423,375,356,338,328,317,295,281,266,257,250,238,222,210,202,192,180,175,169,164,156,147,131,126,124,124,123,123,123,121,118,101,84],"timestamp_mouse":[13,34,47,67,87,108,128,148,168,188,209,228,247,267,288,308,328,348,368,388,408,428,448,469,488,507,529,549,567,588,607,627,647,667,687,708,728,748,767,788,808,827,848,867,887,908,927,947,967,987,1008,1027,1048,1068,1088,1107,1127,1147,1167,1188,1208,1227,1247,1267,1287,1308,1328,1347,1367,1388,1408,1428],"xSR":733.5,"ySR":461.5,"xT1":420.09999999999997,"yT1":0,"xT2":1046.8999999999999,"yT2":0,"toosoon":0,"cond_shown":"equaldotsize","ratio_trial":500,"smaller_num":"5","larger_num":"10","correct_side":2,"subjID":"gabrielacipamocha31","gender":"1","age":"9","school":"4"},{"start_time":1552313898191,"click_time":1552313899203,"finger_time":1552313898843,"fix_duration":1406.5873106198696,"trial":2,"RT":652,"MT":360,"sideResp":1,"stimulus":"img/250/equaldotanddens/L/14_Ratio_250_L_12_R_3.png","xmouse":[799,799,799,799,799,799,799,799,799,799,799,799,799,799,799,799,799,799,799,799,799,799,799,799,799,799,799,799,799,798,787,775,761,740,714,648,626,611,603,598,597,594,590,585,576,568,560,551,536,530,506],"ymouse":[490,490,490,490,490,490,490,490,490,490,490,490,490,490,490,490,490,490,490,490,490,490,490,490,490,490,490,490,490,488,484,473,459,430,391,275,223,181,144,129,128,127,126,125,120,116,112,108,98,95,84],"timestamp_mouse":[12,34,53,71,92,111,133,151,172,191,211,231,252,272,291,311,332,352,371,392,411,431,451,472,491,512,532,552,573,592,612,631,652,671,691,711,731,752,771,793,812,832,851,872,893,911,932,952,972,993,1012],"xSR":733.5,"ySR":461.5,"xT1":420.09999999999997,"yT1":0,"xT2":1046.8999999999999,"yT2":0,"toosoon":0,"cond_shown":"equaldotanddens","ratio_trial":250,"smaller_num":"3","larger_num":"12","correct_side":1,"subjID":"gabrielacipamocha31","gender":"1","age":"9","school":"4"},{"start_time":1552313900475,"click_time":1552313901562,"finger_time":1552313901163,"fix_duration":250,"trial":3,"RT":688,"MT":399,"sideResp":2,"stimulus":"img/250/equaldotanddens/R/6_Ratio_250_L_6_R_24.png","xmouse":[794,794,794,794,793,792,790,789,788,787,786,785,785,785,785,785,785,785,785,785,785,785,785,785,785,785,785,785,785,785,787,790,795,824,862,930,1065,1108,1133,1147,1155,1159,1159,1162,1166,1169,1169,1167,1163,1157,1148,1134,1129,1123,1118],"ymouse":[505,505,505,505,505,505,504,503,503,503,503,503,502,502,502,502,502,502,502,502,502,502,502,502,502,502,502,502,502,502,502,503,503,500,489,470,396,359,328,303,285,265,258,244,227,210,172,156,141,128,115,107,104,102,99],"timestamp_mouse":[12,37,47,67,88,107,127,147,169,187,207,227,247,269,289,308,327,347,369,387,408,429,448,468,487,507,529,548,568,587,607,628,648,667,688,707,727,748,768,788,808,828,847,868,888,907,928,948,967,987,1008,1027,1048,1068,1087],"xSR":733.5,"ySR":461.5,"xT1":420.09999999999997,"yT1":0,"xT2":1046.8999999999999,"yT2":0,"toosoon":0,"cond_shown":"equaldotanddens","ratio_trial":250,"smaller_num":"6","larger_num":"24","correct_side":2,"subjID":"gabrielacipamocha31","gender":"1","age":"9","school":"4"},{"start_time":1552313904168,"click_time":1552313905662,"finger_time":1552313905022,"fix_duration":1444.8879365724358,"trial":4,"RT":854,"MT":640,"sideResp":2,"stimulus":"img/900/equaldotanddens/R/14_Ratio_900_L_18_R_20.png","xmouse":[789,788,788,788,788,788,788,788,788,788,788,788,788,788,788,788,788,788,788,788,788,788,788,788,788,788,788,788,788,788,788,788,788,788,788,788,788,788,788,791,794,828,877,937,991,1037,1098,1130,1148,1162,1174,1185,1198,1199,1199,1196,1150,1132,1123,1117,1108,1092,1090,1090,1090,1090,1090,1090,1090,1090,1090,1090,1089,1088,1087],"ymouse":[513,513,513,513,513,513,513,513,513,513,513,513,513,513,513,513,513,513,513,513,513,513,513,513,513,513,513,513,513,513,513,513,513,513,513,513,513,513,513,513,514,518,513,505,490,469,422,379,347,323,301,281,242,231,220,209,176,164,154,149,130,108,107,107,107,107,107,106,106,106,106,106,102,100,94],"timestamp_mouse":[14,45,54,74,94,115,135,155,174,195,214,234,255,275,296,316,334,355,374,396,415,434,454,474,496,516,534,555,575,595,614,635,655,675,695,714,734,756,776,794,815,835,854,875,895,914,935,954,975,994,1014,1034,1054,1074,1094,1114,1136,1154,1175,1195,1215,1235,1254,1276,1295,1314,1335,1355,1374,1394,1415,1435,1455,1474,1494],"xSR":733.5,"ySR":461.5,"xT1":420.09999999999997,"yT1":0,"xT2":1046.8999999999999,"yT2":0,"toosoon":0,"cond_shown":"equaldotanddens","ratio_trial":900,"smaller_num":"18","larger_num":"20","correct_side":2,"subjID":"gabrielacipamocha31","gender":"1","age":"9","school":"4"},{"start_time":1552313906655,"click_time":1552313908102,"finger_time":1552313907422,"fix_duration":250,"trial":5,"RT":767,"MT":680,"sideResp":1,"stimulus":"img/900/equaldotanddens/L/1_Ratio_900_L_10_R_9.png","xmouse":[761,761,761,762,762,762,762,762,763,763,763,763,763,763,763,763,763,763,763,763,763,763,763,763,763,763,763,763,763,763,763,763,763,768,772,777,787,819,834,843,847,849,853,855,859,863,876,901,925,926,926,926,926,926,926,926,926,926,926,926,926,926,926,926,926,926,926,926,623,590,555,528,508],"ymouse":[528,528,528,528,528,528,528,528,528,528,528,528,528,528,528,528,528,528,528,528,528,528,528,528,528,528,528,528,528,528,528,529,529,531,532,533,534,536,537,537,537,537,532,522,510,492,449,352,150,81,13,13,13,13,13,13,13,13,13,13,13,13,13,13,13,13,13,13,0,14,23,30,33],"timestamp_mouse":[8,29,48,67,87,108,127,148,168,187,207,229,248,268,288,307,329,348,367,387,408,428,448,468,488,507,528,547,568,588,607,627,647,667,687,707,727,748,767,787,807,828,849,867,887,908,927,947,967,987,1008,1029,1049,1068,1087,1107,1127,1147,1167,1188,1207,1227,1247,1267,1287,1308,1328,1348,1368,1388,1408,1427,1447],"xSR":733.5,"ySR":461.5,"xT1":420.09999999999997,"yT1":0,"xT2":1046.8999999999999,"yT2":0,"toosoon":0,"cond_shown":"equaldotanddens","ratio_trial":900,"smaller_num":"9","larger_num":"10","correct_side":1,"subjID":"gabrielacipamocha31","gender":"1","age":"9","school":"4"},{"start_time":1552313909433,"click_time":1552313910463,"finger_time":1552313910243,"fix_duration":250,"trial":6,"RT":810,"MT":220,"sideResp":1,"stimulus":"img/500/equaldotsize/L/4_Ratio_500_L_18_R_9.png","xmouse":[769,769,769,769,769,769,769,769,769,769,769,769,769,769,769,769,770,770,771,771,771,771,771,771,771,771,771,771,771,771,771,771,771,771,771,771,769,766,761,744,724,717,682,651,583,556,536,517,507,502,505,513],"ymouse":[538,538,538,538,538,538,538,538,538,538,538,538,538,538,538,539,539,538,538,537,537,537,537,537,537,537,537,537,537,537,537,537,537,536,536,534,530,522,510,475,443,430,374,330,249,219,197,176,159,133,112,88],"timestamp_mouse":[12,33,50,69,90,110,130,149,171,189,210,230,251,271,291,310,329,349,370,391,410,430,449,471,490,510,530,550,569,589,609,629,649,670,691,709,730,750,770,789,810,830,850,869,889,910,929,950,969,989,1010,1029],"xSR":733.5,"ySR":461.5,"xT1":420.09999999999997,"yT1":0,"xT2":1046.8999999999999,"yT2":0,"toosoon":0,"cond_shown":"equaldotsize","ratio_trial":500,"smaller_num":"9","larger_num":"18","correct_side":1,"subjID":"gabrielacipamocha31","gender":"1","age":"9","school":"4"},{"start_time":1552313912141,"click_time":1552313913443,"finger_time":1552313912783,"fix_duration":458.4707590552649,"trial":7,"RT":642,"MT":660,"sideResp":2,"stimulus":"img/900/equaldotsize/R/6_Ratio_900_L_9_R_10.png","xmouse":[811,811,811,811,811,811,811,811,811,811,811,811,811,811,811,811,811,811,811,811,811,811,811,811,811,811,811,811,811,811,812,824,838,855,891,911,952,994,1056,1223,1286,1303,1304,1289,1263,1218,1216,1215,1215,1215,1213,1212,1210,1207,1205,1191,1186,1180,1180,1180,1180,1180,1179,1177,1164,1144],"ymouse":[560,560,560,560,560,560,560,560,560,560,560,560,560,560,560,560,560,560,560,560,560,560,560,560,560,560,560,560,560,560,558,551,544,535,514,500,478,455,426,354,324,310,305,294,277,248,244,239,229,214,208,204,202,200,199,188,170,154,152,152,152,152,150,144,116,92],"timestamp_mouse":[10,30,41,62,81,101,122,142,162,181,202,221,241,262,281,301,322,342,361,382,402,422,442,462,481,502,521,543,562,581,601,622,642,662,681,703,721,742,762,782,801,821,841,863,882,901,921,942,961,982,1001,1021,1042,1063,1082,1101,1121,1142,1161,1181,1201,1222,1241,1262,1282,1302],"xSR":733.5,"ySR":461.5,"xT1":420.09999999999997,"yT1":0,"xT2":1046.8999999999999,"yT2":0,"toosoon":0,"cond_shown":"equaldotsize","ratio_trial":900,"smaller_num":"9","larger_num":"10","correct_side":2,"subjID":"gabrielacipamocha31","gender":"1","age":"9","school":"4"},{"start_time":1552313915296,"click_time":1552313916342,"finger_time":1552313916022,"fix_duration":871.8793611419666,"trial":8,"RT":726,"MT":320,"sideResp":1,"stimulus":"img/750/equaldotsize/L/9_Ratio_750_L_4_R_3.png","xmouse":[787,787,787,787,787,787,787,787,787,787,787,787,787,787,787,787,787,787,787,787,787,787,787,787,787,787,787,787,787,787,787,787,787,788,786,779,759,689,646,617,604,596,592,590,586,580,574,562,560,559,556,554,518],"ymouse":[494,494,494,494,494,494,494,494,494,494,494,494,494,494,494,494,494,494,494,494,494,494,494,494,494,494,494,494,494,494,494,494,494,493,489,478,445,344,291,252,232,222,215,213,210,203,192,170,164,157,147,132,54],"timestamp_mouse":[20,26,47,66,86,106,126,147,167,186,206,226,246,267,288,307,327,346,367,387,408,427,446,467,486,507,527,547,567,587,607,628,646,666,686,707,726,747,767,787,807,826,846,866,886,907,927,946,966,986,1006,1026,1046],"xSR":733.5,"ySR":461.5,"xT1":420.09999999999997,"yT1":0,"xT2":1046.8999999999999,"yT2":0,"toosoon":0,"cond_shown":"equaldotsize","ratio_trial":750,"smaller_num":"3","larger_num":"4","correct_side":1,"subjID":"gabrielacipamocha31","gender":"1","age":"9","school":"4"},{"start_time":1552313917920,"click_time":1552313919042,"finger_time":1552313918563,"fix_duration":314.21576765455603,"trial":9,"RT":643,"MT":479,"sideResp":1,"stimulus":"img/900/equaldotsize/L/1_Ratio_900_L_10_R_9.png","xmouse":[785,785,785,785,785,785,785,785,785,785,785,785,785,785,785,785,784,784,784,784,783,783,783,783,783,783,783,783,782,781,780,776,776,778,783,783,767,744,705,668,631,602,594,582,571,571,571,571,571,571,571,571,571,571,571,571,441],"ymouse":[505,505,505,505,505,505,505,505,505,505,505,505,505,505,505,505,505,505,505,505,504,504,504,504,504,504,504,504,503,501,498,468,437,398,352,325,263,219,168,123,80,41,29,12,0,0,0,0,0,0,0,0,0,0,0,0,6],"timestamp_mouse":[14,32,42,62,83,103,124,144,163,182,202,222,244,262,283,302,322,342,363,382,402,424,443,463,482,503,523,542,562,582,602,622,643,662,683,702,723,742,762,782,802,822,842,862,882,902,923,942,962,982,1002,1022,1042,1062,1082,1103,1122],"xSR":733.5,"ySR":461.5,"xT1":420.09999999999997,"yT1":0,"xT2":1046.8999999999999,"yT2":0,"toosoon":0,"cond_shown":"equaldotsize","ratio_trial":900,"smaller_num":"9","larger_num":"10","correct_side":1,"subjID":"gabrielacipamocha31","gender":"1","age":"9","school":"4"},{"start_time":1552313920389,"click_time":1552313921543,"finger_time":1552313920942,"fix_duration":385.5966706527083,"trial":10,"RT":553,"MT":601,"sideResp":1,"stimulus":"img/500/equaldotsize/L/13_Ratio_500_L_12_R_6.png","xmouse":[788,788,788,788,788,788,788,788,788,788,788,788,788,788,788,788,788,788,788,788,789,789,791,793,793,794,794,794,794,794,794,794,794,793,784,763,724,606,606,606,606,606,606,606,606,606,606,606,606,606,606,606,606,606,606,606,606,428],"ymouse":[496,496,496,496,496,496,496,496,496,496,496,496,496,496,496,496,496,496,496,495,494,492,488,486,480,475,469,448,424,403,373,332,294,227,195,153,108,1,1,1,1,1,1,1,1,1,1,1,1,1,1,1,1,1,1,1,1,10],"timestamp_mouse":[13,34,55,74,94,115,133,153,175,195,215,234,254,275,294,313,334,353,374,393,414,433,453,473,493,514,534,553,573,593,613,633,653,673,693,713,733,754,773,795,815,835,853,874,893,913,933,953,974,993,1014,1034,1054,1073,1093,1114,1133,1154],"xSR":733.5,"ySR":461.5,"xT1":420.09999999999997,"yT1":0,"xT2":1046.8999999999999,"yT2":0,"toosoon":0,"cond_shown":"equaldotsize","ratio_trial":500,"smaller_num":"6","larger_num":"12","correct_side":1,"subjID":"gabrielacipamocha31","gender":"1","age":"9","school":"4"},{"start_time":1552313925499,"click_time":1552313926744,"finger_time":1552313926062,"fix_duration":1014.2024609517972,"trial":11,"RT":563,"MT":682,"sideResp":2,"stimulus":"img/500/equaldotsize/R/12_Ratio_500_L_1_R_2.png","xmouse":[804,804,804,804,804,804,804,804,804,804,804,804,804,804,804,804,804,804,804,804,804,804,804,804,804,804,804,810,843,868,887,898,911,918,935,980,1066,1173,1351,1367,1369,1359,1348,1335,1333,1331,1328,1325,1302,1268,1260,1246,1242,1224,1215,1210,1201,1193,1178,1173,1168,1155,1146],"ymouse":[520,520,520,520,520,520,520,520,520,520,520,520,520,520,520,520,520,520,520,520,520,520,520,520,520,520,520,519,516,512,509,503,483,471,453,426,388,348,254,235,220,196,188,182,181,180,179,177,158,141,137,131,129,122,119,116,113,109,103,101,100,94,91],"timestamp_mouse":[12,24,45,64,84,104,123,143,164,183,204,225,243,264,284,304,323,344,365,385,403,425,444,464,484,503,523,543,563,584,603,623,646,663,683,704,723,744,763,784,804,824,844,863,883,903,924,944,963,985,1003,1024,1043,1063,1083,1103,1123,1143,1163,1184,1203,1224,1244],"xSR":733.5,"ySR":461.5,"xT1":420.09999999999997,"yT1":0,"xT2":1046.8999999999999,"yT2":0,"toosoon":0,"cond_shown":"equaldotsize","ratio_trial":500,"smaller_num":"1","larger_num":"2","correct_side":2,"subjID":"gabrielacipamocha31","gender":"1","age":"9","school":"4"},{"start_time":1552313928471,"click_time":1552313929763,"finger_time":1552313929143,"fix_duration":1007.4099299797431,"trial":12,"RT":672,"MT":620,"sideResp":1,"stimulus":"img/500/randomdotsizeEA/R/3_Ratio_500_L_10_R_20.png","xmouse":[783,783,783,783,783,783,783,783,783,783,783,783,783,783,783,783,783,783,783,783,783,783,783,783,783,783,783,784,785,798,808,824,831,835,845,850,857,863,869,881,885,885,885,880,852,833,811,782,740,678,657,619,606,601,594,591,588,585,581,563,551,538,530,523,506],"ymouse":[504,504,504,504,504,504,504,504,504,504,504,504,504,504,504,504,504,504,504,504,504,504,504,504,504,504,505,505,505,502,498,488,481,473,451,433,412,390,368,326,295,279,263,245,198,173,148,119,89,50,41,26,22,20,19,18,18,17,16,16,22,28,31,33,35],"timestamp_mouse":[14,35,51,71,91,111,133,153,172,191,212,231,252,271,293,312,332,352,372,391,411,431,452,472,491,511,531,551,572,591,611,631,653,672,691,711,731,751,772,792,811,831,852,871,891,911,932,952,971,992,1011,1031,1051,1071,1092,1111,1133,1151,1172,1192,1212,1231,1252,1271,1291],"xSR":733.5,"ySR":461.5,"xT1":420.09999999999997,"yT1":0,"xT2":1046.8999999999999,"yT2":0,"toosoon":0,"cond_shown":"randomdotsizeEA","ratio_trial":500,"smaller_num":"10","larger_num":"20","correct_side":2,"subjID":"gabrielacipamocha31","gender":"1","age":"9","school":"4"},{"start_time":1552313931993,"click_time":1552313933064,"finger_time":1552313932463,"fix_duration":1389.01661426906,"trial":13,"RT":470,"MT":601,"sideResp":2,"stimulus":"img/500/equaldotanddens/R/6_Ratio_500_L_9_R_18.png","xmouse":[794,794,793,792,792,792,792,792,792,792,792,792,792,792,792,792,792,792,793,799,807,816,825,856,877,904,932,959,1017,1052,1093,1138,1187,1261,1351,1374,1385,1390,1395,1400,1406,1414,1419,1419,1419,1419,1419,1419,1419,1419,1419,1419,1419,1067],"ymouse":[514,514,514,514,514,514,514,514,514,514,514,514,514,514,514,514,514,514,514,514,514,514,514,521,524,527,529,529,514,497,470,437,404,351,288,266,252,237,221,143,91,37,1,1,1,1,1,1,1,1,1,1,1,8],"timestamp_mouse":[12,31,51,70,90,110,131,150,170,190,209,229,249,270,289,310,331,351,370,389,410,429,449,470,489,510,530,549,571,589,610,629,650,671,690,709,730,750,771,789,810,829,849,869,889,909,929,949,970,990,1009,1030,1049,1071],"xSR":733.5,"ySR":461.5,"xT1":420.09999999999997,"yT1":0,"xT2":1046.8999999999999,"yT2":0,"toosoon":0,"cond_shown":"equaldotanddens","ratio_trial":500,"smaller_num":"9","larger_num":"18","correct_side":2,"subjID":"gabrielacipamocha31","gender":"1","age":"9","school":"4"},{"start_time":1552313935252,"click_time":1552313936382,"finger_time":1552313935822,"fix_duration":986.449587205876,"trial":14,"RT":570,"MT":560,"sideResp":2,"stimulus":"img/500/equaldotsize/R/2_Ratio_500_L_3_R_6.png","xmouse":[781,781,781,781,781,781,781,781,781,781,781,781,781,781,781,781,781,781,781,781,781,781,781,781,782,786,799,820,875,932,991,1113,1174,1240,1303,1365,1458,1488,1494,1497,1497,1482,1466,1449,1432,1414,1385,1369,1340,1320,1299,1262,1241,1220,1197,1171,1132],"ymouse":[511,511,511,511,511,511,511,511,511,511,511,511,511,511,511,511,511,511,511,511,511,511,511,511,511,511,511,512,513,513,507,463,428,383,336,279,178,137,127,111,104,92,85,78,70,63,51,47,38,32,26,19,19,21,25,28,34],"timestamp_mouse":[10,40,51,71,92,111,131,151,172,190,210,231,252,271,291,311,331,350,371,390,411,431,451,471,490,510,531,551,570,590,611,631,651,670,690,712,731,750,771,791,810,830,850,871,890,910,930,950,971,990,1011,1030,1051,1071,1090,1110,1130],"xSR":733.5,"ySR":461.5,"xT1":420.09999999999997,"yT1":0,"xT2":1046.8999999999999,"yT2":0,"toosoon":0,"cond_shown":"equaldotsize","ratio_trial":500,"smaller_num":"3","larger_num":"6","correct_side":2,"subjID":"gabrielacipamocha31","gender":"1","age":"9","school":"4"},{"start_time":1552313939131,"click_time":1552313940484,"finger_time":1552313939883,"fix_duration":1247.8885476064752,"trial":15,"RT":752,"MT":601,"sideResp":2,"stimulus":"img/900/randomdotsizeEA/L/4_Ratio_900_L_20_R_18.png","xmouse":[793,793,793,792,792,792,792,792,792,792,792,792,792,792,792,792,792,792,791,789,788,788,787,787,787,787,787,787,787,787,787,787,787,789,791,795,804,843,873,904,935,971,1068,1117,1170,1229,1280,1312,1335,1338,1338,1338,1328,1321,1310,1299,1286,1261,1249,1238,1228,1219,1212,1200,1191,1181,1170,1141],"ymouse":[487,487,487,487,487,487,487,487,487,487,487,487,487,487,487,487,487,487,487,489,490,491,493,493,493,493,493,493,494,494,494,494,494,495,496,496,498,503,508,513,514,514,482,448,405,357,302,255,206,188,171,160,144,137,130,122,114,98,91,84,79,75,73,69,66,63,60,54],"timestamp_mouse":[13,32,52,71,92,112,133,152,172,191,212,232,251,273,292,312,331,351,371,392,411,432,451,473,492,512,532,551,573,592,612,632,651,672,691,712,732,752,772,792,812,831,853,871,892,912,932,952,971,991,1011,1031,1053,1071,1091,1113,1131,1153,1171,1192,1212,1232,1251,1271,1291,1311,1332,1353],"xSR":733.5,"ySR":461.5,"xT1":420.09999999999997,"yT1":0,"xT2":1046.8999999999999,"yT2":0,"toosoon":0,"cond_shown":"randomdotsizeEA","ratio_trial":900,"smaller_num":"18","larger_num":"20","correct_side":1,"subjID":"gabrielacipamocha31","gender":"1","age":"9","school":"4"},{"start_time":1552313943018,"click_time":1552313944302,"finger_time":1552313943802,"fix_duration":1354.109396037007,"trial":16,"RT":784,"MT":500,"sideResp":2,"stimulus":"img/500/randomdotsizeEA/R/2_Ratio_500_L_3_R_6.png","xmouse":[798,798,798,798,798,798,798,798,798,798,798,798,798,798,798,798,798,798,798,798,798,798,798,797,796,795,795,795,794,794,792,792,792,792,792,792,796,810,832,944,1022,1083,1120,1141,1179,1212,1267,1309,1345,1377,1378,1378,1374,1365,1342,1323,1317,1297,1282,1251,1231,1213,1194,1172,1106],"ymouse":[521,521,521,521,521,521,521,521,521,521,521,521,521,521,521,521,521,521,521,521,520,520,520,519,519,518,518,518,518,518,517,517,517,517,517,517,517,511,502,462,432,407,387,369,324,289,241,206,176,130,123,120,117,114,104,95,91,80,72,56,48,42,34,27,17],"timestamp_mouse":[11,34,44,66,84,104,125,146,165,185,206,225,245,265,285,306,326,345,365,386,405,425,445,465,485,505,525,545,565,585,605,625,645,666,685,704,724,746,765,784,804,825,845,864,884,905,924,944,964,985,1004,1024,1044,1066,1084,1105,1125,1144,1164,1184,1204,1225,1245,1265,1284],"xSR":733.5,"ySR":461.5,"xT1":420.09999999999997,"yT1":0,"xT2":1046.8999999999999,"yT2":0,"toosoon":0,"cond_shown":"randomdotsizeEA","ratio_trial":500,"smaller_num":"3","larger_num":"6","correct_side":2,"subjID":"gabrielacipamocha31","gender":"1","age":"9","school":"4"},{"start_time":1552313946146,"click_time":1552313947504,"finger_time":1552313946763,"fix_duration":742.2658148977979,"trial":17,"RT":617,"MT":741,"sideResp":2,"stimulus":"img/250/equaldotanddens/R/9_Ratio_250_L_3_R_12.png","xmouse":[742,742,742,742,742,742,742,742,742,742,742,742,742,742,742,742,744,744,744,744,744,744,744,744,744,744,744,744,765,801,874,971,1185,1285,1364,1424,1462,1509,1512,1505,1490,1475,1446,1429,1421,1421,1421,1421,1421,1421,1421,1421,1421,1421,1421,1421,1421,979,974,974,974,974,974,973,976,993,1012,1052],"ymouse":[521,521,521,521,521,521,521,521,521,521,521,521,521,521,521,521,513,512,511,511,511,511,511,511,511,511,511,511,514,514,514,524,521,493,456,411,370,273,246,189,142,102,35,12,4,4,4,4,4,4,4,4,4,4,4,4,4,1,1,1,1,1,1,2,4,9,16,29],"timestamp_mouse":[16,40,56,77,98,118,137,156,178,197,217,237,256,277,297,316,337,356,377,397,418,437,456,476,498,517,537,556,577,596,617,636,657,677,698,717,737,756,777,797,817,836,857,876,896,916,939,957,977,996,1017,1036,1056,1077,1097,1116,1137,1156,1176,1198,1218,1237,1257,1276,1297,1316,1337,1357],"xSR":733.5,"ySR":461.5,"xT1":420.09999999999997,"yT1":0,"xT2":1046.8999999999999,"yT2":0,"toosoon":0,"cond_shown":"equaldotanddens","ratio_trial":250,"smaller_num":"3","larger_num":"12","correct_side":2,"subjID":"gabrielacipamocha31","gender":"1","age":"9","school":"4"},{"start_time":1552313948856,"click_time":1552313949942,"finger_time":1552313949483,"fix_duration":250,"trial":18,"RT":627,"MT":459,"sideResp":1,"stimulus":"img/250/equaldotanddens/L/7_Ratio_250_L_8_R_2.png","xmouse":[800,800,800,800,800,800,800,800,800,800,800,800,800,801,801,801,801,801,801,801,802,802,807,807,808,808,808,808,806,804,798,790,784,754,737,717,694,671,613,588,571,552,530,523,521,520,518,516,515,514,514,514,515,517,519],"ymouse":[508,508,508,508,508,508,508,508,508,508,508,508,508,508,508,508,508,508,508,508,506,504,489,485,482,480,479,477,472,470,463,453,444,403,384,363,341,317,265,241,224,203,186,182,180,180,178,172,168,162,156,150,123,108,99],"timestamp_mouse":[9,31,47,67,87,106,126,147,167,188,207,227,246,266,286,306,328,347,367,387,406,428,447,466,486,508,526,547,566,587,607,627,647,666,687,706,726,746,766,787,807,827,847,866,887,907,927,947,966,987,1007,1026,1047,1066,1086],"xSR":733.5,"ySR":461.5,"xT1":420.09999999999997,"yT1":0,"xT2":1046.8999999999999,"yT2":0,"toosoon":0,"cond_shown":"equaldotanddens","ratio_trial":250,"smaller_num":"2","larger_num":"8","correct_side":1,"subjID":"gabrielacipamocha31","gender":"1","age":"9","school":"4"},{"start_time":1552313953280,"click_time":1552313954323,"finger_time":1552313953844,"fix_duration":336.7542592222241,"trial":19,"RT":564,"MT":479,"sideResp":2,"stimulus":"img/900/equaldotsize/R/12_Ratio_900_L_18_R_20.png","xmouse":[802,801,797,796,796,796,796,796,796,796,796,796,796,796,796,796,796,796,796,796,796,796,796,796,796,800,803,821,836,863,891,917,1023,1080,1131,1179,1214,1243,1253,1268,1278,1288,1298,1298,1297,1292,1277,1212,1175,1136,1116,1105,1063],"ymouse":[504,504,504,504,504,504,504,504,504,504,504,504,504,504,504,504,504,504,504,504,504,504,504,504,504,504,503,502,501,498,492,485,446,419,388,361,340,315,298,270,250,228,196,186,179,172,166,141,127,114,108,103,91],"timestamp_mouse":[3,24,43,64,82,102,124,144,163,184,204,223,243,264,283,303,324,342,364,383,403,423,443,462,483,502,523,542,564,582,603,623,642,662,683,703,723,742,763,782,802,823,842,862,883,902,923,943,963,983,1003,1023,1043],"xSR":733.5,"ySR":461.5,"xT1":420.09999999999997,"yT1":0,"xT2":1046.8999999999999,"yT2":0,"toosoon":0,"cond_shown":"equaldotsize","ratio_trial":900,"smaller_num":"18","larger_num":"20","correct_side":2,"subjID":"gabrielacipamocha31","gender":"1","age":"9","school":"4"},{"start_time":1552313957794,"click_time":1552313958942,"finger_time":1552313958523,"fix_duration":1148.5794797415256,"trial":20,"RT":729,"MT":419,"sideResp":2,"stimulus":"img/900/equaldotanddens/R/13_Ratio_900_L_18_R_20.png","xmouse":[757,757,757,758,758,759,761,761,761,762,762,762,762,762,762,762,762,762,762,762,763,767,769,773,774,776,776,776,776,776,777,779,784,791,801,818,840,916,964,1013,1059,1132,1221,1245,1270,1287,1301,1302,1294,1285,1273,1257,1248,1238,1227,1213,1159,1126],"ymouse":[523,523,523,524,524,524,524,524,524,525,525,525,525,525,525,525,525,525,525,525,525,525,525,525,525,525,525,525,525,525,525,525,525,524,520,510,498,448,408,366,325,263,186,161,132,108,73,63,53,48,43,36,33,31,28,27,32,37],"timestamp_mouse":[15,28,49,70,88,110,129,150,169,189,210,228,249,268,290,309,328,348,370,388,409,429,449,468,489,508,529,549,570,589,610,629,649,668,689,708,729,748,769,789,809,829,850,868,888,908,929,948,969,988,1009,1029,1048,1068,1089,1108,1130,1148],"xSR":733.5,"ySR":461.5,"xT1":420.09999999999997,"yT1":0,"xT2":1046.8999999999999,"yT2":0,"toosoon":0,"cond_shown":"equaldotanddens","ratio_trial":900,"smaller_num":"18","larger_num":"20","correct_side":2,"subjID":"gabrielacipamocha31","gender":"1","age":"9","school":"4"},{"start_time":1552313962074,"click_time":1552313963183,"finger_time":1552313962683,"fix_duration":827.2080099595112,"trial":21,"RT":609,"MT":500,"sideResp":2,"stimulus":"img/750/equaldotsize/R/11_Ratio_750_L_12_R_16.png","xmouse":[807,807,807,807,807,807,807,807,807,807,807,807,807,807,807,807,807,807,807,807,807,807,807,807,807,807,807,807,810,825,845,868,891,952,1018,1043,1143,1213,1306,1321,1321,1321,1321,1321,1321,1321,1321,1321,1321,1321,1321,1275,1232,1182,1158,1146],"ymouse":[530,530,530,530,530,530,530,530,530,530,530,530,530,530,530,530,530,530,530,530,530,530,530,530,530,530,530,530,530,528,527,527,527,515,479,459,349,246,69,35,35,35,35,35,35,35,35,35,35,35,35,10,27,45,52,55],"timestamp_mouse":[13,31,49,70,88,109,129,148,168,190,208,228,248,270,289,309,328,349,370,390,409,428,448,469,489,508,529,548,570,588,609,628,649,669,688,709,729,749,769,790,808,828,849,869,889,908,928,948,968,989,1008,1028,1048,1068,1088,1108],"xSR":733.5,"ySR":461.5,"xT1":420.09999999999997,"yT1":0,"xT2":1046.8999999999999,"yT2":0,"toosoon":0,"cond_shown":"equaldotsize","ratio_trial":750,"smaller_num":"12","larger_num":"16","correct_side":2,"subjID":"gabrielacipamocha31","gender":"1","age":"9","school":"4"},{"start_time":1552313965580,"click_time":1552313966723,"finger_time":1552313966203,"fix_duration":1175.5924412506024,"trial":22,"RT":623,"MT":520,"sideResp":2,"stimulus":"img/250/equaldotsize/R/13_Ratio_250_L_2_R_8.png","xmouse":[782,782,782,782,782,782,782,782,782,782,782,782,782,782,782,782,782,782,782,783,783,783,783,783,783,783,783,784,785,801,822,863,927,1020,1200,1267,1291,1291,1291,1291,1291,1291,1291,1291,1291,1291,1291,1291,1291,1291,1291,1291,1291,1291,1291,1291,1291,1085],"ymouse":[502,502,502,502,502,502,502,502,502,502,502,502,502,502,502,502,502,502,502,501,501,501,501,501,501,501,501,501,501,496,486,459,405,317,125,40,7,7,7,7,7,7,7,7,7,7,7,7,7,7,7,7,7,7,7,7,7,7],"timestamp_mouse":[12,31,43,63,84,103,123,142,163,184,203,223,244,262,282,302,323,347,363,383,402,423,444,462,483,502,523,543,563,583,602,623,643,663,682,702,723,742,763,783,804,823,843,863,883,903,923,943,963,983,1003,1023,1042,1063,1082,1103,1123,1143],"xSR":733.5,"ySR":461.5,"xT1":420.09999999999997,"yT1":0,"xT2":1046.8999999999999,"yT2":0,"toosoon":0,"cond_shown":"equaldotsize","ratio_trial":250,"smaller_num":"2","larger_num":"8","correct_side":2,"subjID":"gabrielacipamocha31","gender":"1","age":"9","school":"4"},{"start_time":1552313968120,"click_time":1552313969582,"finger_time":1552313968964,"fix_duration":274.3149553663381,"trial":23,"RT":844,"MT":618,"sideResp":1,"stimulus":"img/750/randomdotsizeEA/L/13_Ratio_750_L_8_R_6.png","xmouse":[782,782,782,782,782,782,782,782,782,782,782,782,782,782,782,782,782,782,782,782,782,782,782,782,782,782,782,782,782,782,782,782,782,782,782,782,782,782,783,787,790,795,799,801,803,803,803,803,804,804,804,802,783,768,753,736,721,695,683,673,656,639,632,625,620,611,602,587,581,574,560,539,528,513],"ymouse":[491,491,491,491,491,491,491,491,491,491,491,491,491,491,491,491,491,491,491,491,491,491,491,491,491,491,491,491,491,491,491,491,491,491,491,491,491,491,489,482,479,470,461,452,442,426,384,358,327,298,265,249,213,197,184,172,164,149,143,138,132,127,125,123,121,119,116,111,110,108,103,97,94,90],"timestamp_mouse":[12,22,43,63,83,103,123,144,163,182,202,223,243,264,282,302,324,342,363,383,404,423,442,463,484,502,523,543,562,583,602,623,644,664,684,703,724,742,763,782,803,823,844,862,882,902,924,943,964,983,1004,1022,1042,1063,1083,1103,1122,1142,1163,1183,1204,1224,1243,1262,1282,1303,1323,1342,1363,1382,1404,1424,1442,1462],"xSR":733.5,"ySR":461.5,"xT1":420.09999999999997,"yT1":0,"xT2":1046.8999999999999,"yT2":0,"toosoon":0,"cond_shown":"randomdotsizeEA","ratio_trial":750,"smaller_num":"6","larger_num":"8","correct_side":1,"subjID":"gabrielacipamocha31","gender":"1","age":"9","school":"4"},{"start_time":1552313971319,"click_time":1552313972463,"finger_time":1552313972023,"fix_duration":792.1352469819399,"trial":24,"RT":704,"MT":440,"sideResp":1,"stimulus":"img/250/equaldotanddens/L/14_Ratio_250_L_12_R_3.png","xmouse":[781,781,781,781,781,781,781,781,781,781,781,781,781,781,781,781,781,783,783,783,783,783,783,783,783,783,783,783,783,783,783,783,783,783,785,806,841,885,946,964,964,961,943,926,909,886,862,825,800,780,756,731,659,623,589,555,526,479],"ymouse":[526,526,526,526,526,526,526,526,526,526,526,526,526,526,526,526,526,526,526,526,526,526,526,526,526,526,526,526,526,526,526,526,524,518,497,435,354,277,173,122,101,86,76,69,60,52,45,34,28,26,26,26,26,27,27,27,28,30],"timestamp_mouse":[12,23,44,65,83,103,124,145,163,184,204,223,243,263,284,303,323,344,365,385,404,423,443,463,484,505,524,545,565,583,603,623,643,663,685,704,723,743,764,783,804,823,843,864,884,904,924,943,963,983,1003,1024,1043,1063,1085,1103,1123,1144],"xSR":733.5,"ySR":461.5,"xT1":420.09999999999997,"yT1":0,"xT2":1046.8999999999999,"yT2":0,"toosoon":0,"cond_shown":"equaldotanddens","ratio_trial":250,"smaller_num":"3","larger_num":"12","correct_side":1,"subjID":"gabrielacipamocha31","gender":"1","age":"9","school":"4"},{"start_time":1552313976356,"click_time":1552313977582,"finger_time":1552313977263,"fix_duration":1412.7912445537243,"trial":25,"RT":907,"MT":319,"sideResp":2,"stimulus":"img/750/equaldotanddens/L/8_Ratio_750_L_4_R_3.png","xmouse":[793,792,792,792,792,792,792,792,792,792,792,792,792,792,792,792,792,792,792,792,792,792,792,792,792,792,792,792,792,792,792,792,792,794,795,799,803,803,803,804,804,806,809,812,818,844,867,917,996,1094,1228,1242,1245,1246,1246,1244,1231,1218,1203,1183,1168,1146],"ymouse":[533,533,533,532,532,531,531,531,531,531,531,531,531,531,531,530,530,529,529,529,529,529,529,529,529,529,529,529,529,529,529,529,527,527,526,525,525,525,525,525,524,524,523,521,518,502,485,442,365,269,123,94,78,70,68,66,62,58,51,43,38,31],"timestamp_mouse":[10,28,52,66,86,107,127,147,168,187,207,227,247,267,288,308,328,347,366,388,406,427,448,466,487,507,528,546,566,587,608,626,647,666,687,707,727,747,768,787,807,826,847,867,886,907,926,946,966,986,1008,1026,1046,1066,1088,1107,1127,1146,1166,1187,1206,1226],"xSR":733.5,"ySR":461.5,"xT1":420.09999999999997,"yT1":0,"xT2":1046.8999999999999,"yT2":0,"toosoon":0,"cond_shown":"equaldotanddens","ratio_trial":750,"smaller_num":"3","larger_num":"4","correct_side":1,"subjID":"gabrielacipamocha31","gender":"1","age":"9","school":"4"},{"start_time":1552313979794,"click_time":1552313981223,"finger_time":1552313980782,"fix_duration":1050.4691885213174,"trial":26,"RT":988,"MT":441,"sideResp":2,"stimulus":"img/500/equaldotanddens/R/9_Ratio_500_L_2_R_4.png","xmouse":[746,746,746,746,746,746,746,746,746,746,746,746,746,746,746,746,746,746,746,746,746,746,746,746,746,746,746,746,746,746,746,746,746,746,747,749,750,750,750,750,750,750,750,750,750,750,765,782,801,812,814,814,814,814,814,814,815,819,828,840,871,901,931,959,1006,1023,1043,1063,1080,1101,1105,1106],"ymouse":[549,549,549,549,549,549,549,549,549,549,549,549,549,549,549,549,549,549,549,549,549,549,549,549,549,549,549,549,549,549,549,549,549,549,549,548,547,547,547,547,547,547,547,547,547,547,532,507,473,428,409,386,376,366,355,349,343,332,318,300,264,237,218,202,181,173,160,145,131,110,102,99],"timestamp_mouse":[13,29,49,70,89,109,129,150,169,188,209,230,248,268,289,308,330,349,370,388,409,428,448,469,488,509,530,549,569,588,609,629,648,669,690,708,729,749,768,789,809,830,850,870,888,908,929,949,968,988,1009,1028,1048,1068,1088,1108,1130,1149,1168,1188,1208,1228,1248,1269,1289,1308,1329,1349,1370,1389,1408,1429],"xSR":733.5,"ySR":461.5,"xT1":420.09999999999997,"yT1":0,"xT2":1046.8999999999999,"yT2":0,"toosoon":0,"cond_shown":"equaldotanddens","ratio_trial":500,"smaller_num":"2","larger_num":"4","correct_side":2,"subjID":"gabrielacipamocha31","gender":"1","age":"9","school":"4"},{"start_time":1552313982866,"click_time":1552313984243,"finger_time":1552313983563,"fix_duration":695.8142290390476,"trial":27,"RT":697,"MT":680,"sideResp":1,"stimulus":"img/750/equaldotanddens/L/6_Ratio_750_L_24_R_18.png","xmouse":[765,765,765,765,765,765,765,765,765,765,765,765,765,765,765,765,765,765,765,765,765,765,765,765,765,765,765,765,765,765,765,765,762,755,732,685,657,640,618,592,519,490,453,419,396,364,343,327,318,316,316,322,327,330,333,342,359,382,406,424,453,460,465,467,468,470,473,476,481],"ymouse":[521,521,521,521,521,521,521,521,521,521,521,521,521,521,521,521,521,521,521,521,521,521,521,521,521,521,521,521,521,521,521,521,521,518,510,494,483,475,465,451,412,394,373,355,338,303,268,241,219,203,165,146,129,119,114,111,111,111,111,111,107,107,106,105,105,104,103,100,95],"timestamp_mouse":[16,37,57,76,96,116,138,158,178,196,217,238,257,277,296,317,338,357,377,397,416,436,456,478,497,517,547,557,578,601,616,636,657,677,697,717,736,757,777,797,818,836,858,877,897,917,937,957,976,997,1018,1036,1058,1077,1096,1118,1137,1157,1177,1197,1217,1236,1257,1276,1296,1318,1336,1356,1377],"xSR":733.5,"ySR":461.5,"xT1":420.09999999999997,"yT1":0,"xT2":1046.8999999999999,"yT2":0,"toosoon":0,"cond_shown":"equaldotanddens","ratio_trial":750,"smaller_num":"18","larger_num":"24","correct_side":1,"subjID":"gabrielacipamocha31","gender":"1","age":"9","school":"4"},{"start_time":1552313986265,"click_time":1552313987763,"finger_time":1552313987022,"fix_duration":821.8798556569827,"trial":28,"RT":757,"MT":741,"sideResp":2,"stimulus":"img/750/equaldotsize/L/6_Ratio_750_L_24_R_18.png","xmouse":[785,785,785,785,785,785,785,785,785,785,785,785,785,785,785,785,785,785,785,785,785,785,785,785,785,785,785,785,785,785,785,785,785,785,785,785,813,843,885,924,971,983,988,994,1007,1035,1045,1052,1058,1064,1068,1071,1071,1072,1076,1084,1118,1136,1151,1165,1181,1216,1236,1247,1253,1253,1253,1253,1253,1253,1253,1253,1253,1253,1107],"ymouse":[545,545,545,545,545,545,545,545,545,545,545,545,545,545,545,545,545,545,545,545,545,545,545,545,545,545,545,545,545,545,545,545,545,545,545,545,526,512,490,468,435,421,407,390,362,324,308,295,282,272,267,260,258,257,251,248,229,216,203,184,159,103,68,40,0,0,0,0,0,0,0,0,0,0,26],"timestamp_mouse":[17,37,57,77,98,118,138,158,178,198,217,239,257,278,298,319,338,357,377,399,419,439,458,477,498,517,537,558,577,599,617,637,657,678,697,717,739,757,778,798,820,837,858,878,898,919,938,957,978,998,1019,1037,1057,1078,1098,1117,1138,1158,1177,1197,1218,1237,1259,1279,1298,1317,1338,1357,1377,1397,1418,1437,1457,1477,1498],"xSR":733.5,"ySR":461.5,"xT1":420.09999999999997,"yT1":0,"xT2":1046.8999999999999,"yT2":0,"toosoon":0,"cond_shown":"equaldotsize","ratio_trial":750,"smaller_num":"18","larger_num":"24","correct_side":1,"subjID":"gabrielacipamocha31","gender":"1","age":"9","school":"4"},{"start_time":1552313996594,"click_time":1552313997843,"finger_time":1552313997341,"fix_duration":250,"trial":29,"RT":747,"MT":502,"sideResp":1,"stimulus":"img/900/equaldotsize/R/6_Ratio_900_L_9_R_10.png","xmouse":[802,802,802,802,802,803,803,804,804,804,804,804,804,804,804,804,804,804,804,804,804,805,805,806,806,807,807,807,807,807,809,812,815,818,819,828,834,838,838,838,827,814,782,759,739,691,669,650,634,626,618,614,609,605,603,599,597,595,592,581,535,505],"ymouse":[506,506,506,506,507,508,509,509,509,509,509,509,509,509,509,509,509,509,509,509,509,509,509,509,509,509,509,509,509,509,510,511,511,512,512,501,490,477,461,443,390,349,272,221,172,90,61,42,32,28,25,24,22,21,20,20,20,20,20,21,29,34],"timestamp_mouse":[27,48,68,89,107,127,148,168,187,209,229,248,269,288,308,328,348,369,388,407,429,449,468,488,509,529,547,568,589,608,628,649,668,687,708,728,747,768,788,809,827,848,868,888,909,928,948,968,988,1009,1029,1047,1068,1088,1109,1127,1147,1169,1188,1207,1228,1249],"xSR":733.5,"ySR":461.5,"xT1":420.09999999999997,"yT1":0,"xT2":1046.8999999999999,"yT2":0,"toosoon":0,"cond_shown":"equaldotsize","ratio_trial":900,"smaller_num":"9","larger_num":"10","correct_side":2,"subjID":"gabrielacipamocha31","gender":"1","age":"9","school":"4"},{"start_time":1552314000305,"click_time":1552314001223,"finger_time":1552314000722,"fix_duration":362.4695680456842,"trial":30,"RT":417,"MT":501,"sideResp":2,"stimulus":"img/500/equaldotanddens/L/4_Ratio_500_L_18_R_9.png","xmouse":[778,778,778,778,778,778,778,778,778,778,778,778,778,778,778,778,779,784,791,804,821,851,857,862,867,876,881,888,896,906,926,936,948,956,963,975,977,979,980,984,993,1000,1008,1016,1026,1053],"ymouse":[502,502,502,502,502,502,502,502,502,502,502,502,502,502,502,502,503,497,487,470,445,403,393,382,374,353,342,328,312,295,258,235,210,187,167,132,126,121,118,113,104,97,89,83,76,62],"timestamp_mouse":[24,51,57,76,96,117,138,157,176,197,217,238,258,278,297,317,337,356,377,397,417,436,457,476,498,517,537,557,577,597,618,637,657,677,697,718,736,757,778,797,818,836,856,878,897,918],"xSR":733.5,"ySR":461.5,"xT1":420.09999999999997,"yT1":0,"xT2":1046.8999999999999,"yT2":0,"toosoon":0,"cond_shown":"equaldotanddens","ratio_trial":500,"smaller_num":"9","larger_num":"18","correct_side":1,"subjID":"gabrielacipamocha31","gender":"1","age":"9","school":"4"},{"start_time":1552314003006,"click_time":1552314004582,"finger_time":1552314003902,"fix_duration":402.044974733221,"trial":31,"RT":896,"MT":680,"sideResp":2,"stimulus":"img/750/equaldotsize/R/11_Ratio_750_L_12_R_16.png","xmouse":[793,793,793,793,793,793,793,793,793,793,793,793,793,793,793,793,793,793,793,793,793,793,793,793,793,793,793,793,793,791,791,789,787,786,786,786,786,786,786,786,786,786,798,829,893,1056,1130,1182,1242,1259,1267,1267,1264,1258,1247,1235,1210,1210,1210,1210,1210,1210,1210,1210,1210,1210,1210,1210,1210,1210,1210,1210,1210,1210,1210,1210,1210,1210,1077],"ymouse":[531,531,531,531,531,531,531,531,531,531,531,531,531,531,531,531,531,531,531,531,531,531,531,531,531,531,531,531,531,531,531,529,529,529,529,529,529,529,529,529,529,528,515,489,448,340,283,233,155,121,98,70,59,47,35,22,3,3,3,3,3,3,3,3,3,3,3,3,3,3,3,3,3,3,3,3,3,3,6],"timestamp_mouse":[16,37,56,76,97,117,136,155,176,197,216,237,257,277,296,315,336,355,377,395,417,437,456,477,497,515,536,557,576,596,615,635,657,676,697,717,736,755,777,797,817,837,855,876,896,918,936,956,977,996,1016,1036,1056,1077,1096,1117,1136,1156,1176,1195,1217,1236,1255,1276,1297,1317,1337,1356,1377,1396,1415,1436,1455,1476,1496,1515,1536,1556,1575],"xSR":733.5,"ySR":461.5,"xT1":420.09999999999997,"yT1":0,"xT2":1046.8999999999999,"yT2":0,"toosoon":0,"cond_shown":"equaldotsize","ratio_trial":750,"smaller_num":"12","larger_num":"16","correct_side":2,"subjID":"gabrielacipamocha31","gender":"1","age":"9","school":"4"},{"start_time":1552314008853,"click_time":1552314010003,"finger_time":1552314009581,"fix_duration":1129.6702598808108,"trial":32,"RT":728,"MT":422,"sideResp":2,"stimulus":"img/900/equaldotanddens/R/14_Ratio_900_L_18_R_20.png","xmouse":[807,808,808,808,808,808,808,808,808,808,808,808,808,808,808,808,808,808,808,808,808,812,814,820,825,826,826,826,826,826,826,826,826,826,826,830,846,875,947,1044,1235,1312,1353,1366,1363,1357,1351,1347,1344,1336,1328,1315,1302,1284,1264,1180,1135,1093],"ymouse":[504,504,504,504,504,504,504,504,504,504,504,504,504,504,504,504,504,504,504,504,504,499,497,489,483,482,482,482,482,482,482,482,482,482,482,480,474,462,434,391,270,213,173,152,133,131,127,126,124,122,120,116,112,109,107,103,100,98],"timestamp_mouse":[14,34,48,69,89,109,129,149,170,189,208,229,249,269,289,309,329,349,368,389,410,429,448,469,489,510,529,549,568,589,610,630,648,670,688,709,728,749,769,789,808,829,848,869,891,909,929,949,969,990,1009,1028,1048,1069,1089,1110,1129,1150],"xSR":733.5,"ySR":461.5,"xT1":420.09999999999997,"yT1":0,"xT2":1046.8999999999999,"yT2":0,"toosoon":0,"cond_shown":"equaldotanddens","ratio_trial":900,"smaller_num":"18","larger_num":"20","correct_side":2,"subjID":"gabrielacipamocha31","gender":"1","age":"9","school":"4"},{"start_time":1552314022435,"click_time":1552314023182,"finger_time":1552314023042,"fix_duration":931.9917466657282,"trial":33,"RT":607,"MT":140,"sideResp":2,"stimulus":"img/500/equaldotanddens/R/9_Ratio_500_L_2_R_4.png","xmouse":[749,750,751,751,751,751,751,751,751,751,751,751,751,751,751,751,751,751,751,751,751,751,751,751,751,751,752,760,789,812,834,856,912,941,974,1009,1048,1105],"ymouse":[512,512,512,512,512,512,512,512,512,512,512,512,512,512,512,512,512,512,512,512,512,512,512,512,512,512,512,509,504,498,491,483,436,395,336,273,196,42],"timestamp_mouse":[10,31,46,68,88,108,126,148,167,188,207,227,248,267,288,307,327,348,367,387,408,427,446,466,488,507,528,546,567,586,607,627,648,667,686,707,727,747],"xSR":733.5,"ySR":461.5,"xT1":420.09999999999997,"yT1":0,"xT2":1046.8999999999999,"yT2":0,"toosoon":0,"cond_shown":"equaldotanddens","ratio_trial":500,"smaller_num":"2","larger_num":"4","correct_side":2,"subjID":"gabrielacipamocha31","gender":"1","age":"9","school":"4"},{"start_time":1552314045274,"click_time":1552314046022,"finger_time":1552314045882,"fix_duration":250,"trial":34,"RT":608,"MT":140,"sideResp":1,"stimulus":"img/250/equaldotsize/L/3_Ratio_250_L_8_R_2.png","xmouse":[780,780,780,780,781,781,781,781,781,781,781,781,781,782,783,783,784,784,784,784,785,785,785,787,788,789,791,795,805,810,811,811,805,746,681,595,521,436],"ymouse":[474,474,474,474,474,474,474,474,474,474,474,474,474,474,474,474,474,474,474,474,475,475,475,475,476,477,477,478,476,469,460,447,425,344,283,193,115,18],"timestamp_mouse":[12,30,48,68,88,108,128,148,169,187,207,229,249,268,287,307,327,349,369,389,407,429,448,468,488,508,529,547,568,589,608,628,648,668,688,708,728,748],"xSR":733.5,"ySR":461.5,"xT1":420.09999999999997,"yT1":0,"xT2":1046.8999999999999,"yT2":0,"toosoon":0,"cond_shown":"equaldotsize","ratio_trial":250,"smaller_num":"2","larger_num":"8","correct_side":1,"subjID":"gabrielacipamocha31","gender":"1","age":"9","school":"4"},{"start_time":1552314048193,"click_time":1552314049503,"finger_time":1552314049041,"fix_duration":250,"trial":35,"RT":848,"MT":462,"sideResp":2,"stimulus":"img/750/randomdotsizeEA/L/1_Ratio_750_L_20_R_15.png","xmouse":[751,751,751,751,751,751,751,751,751,751,751,751,751,751,751,751,751,751,751,751,751,751,751,751,751,751,751,751,751,751,751,751,751,751,751,751,751,751,751,751,752,756,779,799,832,873,917,963,963,963,963,963,965,967,971,977,984,994,997,997,1001,1004,1016,1025,1040,1056],"ymouse":[519,519,519,519,519,519,519,519,519,519,519,519,519,519,519,519,519,519,519,519,519,519,519,519,519,519,519,519,519,519,519,519,519,519,519,519,519,519,519,519,518,505,446,385,324,259,211,168,168,168,168,168,163,157,147,137,127,115,113,112,107,104,91,83,73,64],"timestamp_mouse":[10,32,49,69,89,109,130,150,169,189,210,228,250,269,290,310,329,349,369,389,410,430,450,469,490,510,529,549,570,589,609,629,649,670,688,710,729,750,769,790,809,829,848,870,889,909,930,948,970,990,1008,1030,1049,1069,1089,1110,1129,1148,1170,1188,1209,1229,1249,1268,1290,1310],"xSR":733.5,"ySR":461.5,"xT1":420.09999999999997,"yT1":0,"xT2":1046.8999999999999,"yT2":0,"toosoon":0,"cond_shown":"randomdotsizeEA","ratio_trial":750,"smaller_num":"15","larger_num":"20","correct_side":1,"subjID":"gabrielacipamocha31","gender":"1","age":"9","school":"4"},{"start_time":1552314050819,"click_time":1552314052122,"finger_time":1552314051581,"fix_duration":375.8320788397131,"trial":36,"RT":762,"MT":541,"sideResp":1,"stimulus":"img/900/equaldotanddens/L/10_Ratio_900_L_20_R_18.png","xmouse":[803,803,803,803,803,803,803,803,803,803,803,803,803,803,803,803,803,803,803,803,803,803,803,803,803,803,803,803,803,803,803,803,803,805,806,806,802,785,767,745,711,603,526,435,357,298,245,233,229,227,228,239,249,261,273,286,314,332,343,351,357,367,374,388,403,424],"ymouse":[503,503,503,503,503,503,503,503,503,503,503,503,503,503,503,503,503,503,503,503,503,503,503,503,503,503,503,503,503,503,503,503,503,497,493,485,474,465,457,448,434,387,341,288,245,206,164,154,141,135,126,109,96,84,72,59,46,39,36,34,32,31,29,26,24,21],"timestamp_mouse":[14,25,42,63,83,103,123,143,163,184,203,223,242,264,283,302,323,344,363,383,402,423,444,463,484,504,522,544,564,584,603,623,644,663,683,703,722,743,762,784,803,824,844,863,883,903,923,943,963,983,1003,1023,1043,1063,1082,1103,1124,1144,1163,1183,1203,1223,1243,1263,1282,1303],"xSR":733.5,"ySR":461.5,"xT1":420.09999999999997,"yT1":0,"xT2":1046.8999999999999,"yT2":0,"toosoon":0,"cond_shown":"equaldotanddens","ratio_trial":900,"smaller_num":"18","larger_num":"20","correct_side":1,"subjID":"gabrielacipamocha31","gender":"1","age":"9","school":"4"},{"start_time":1552314056316,"click_time":1552314058143,"finger_time":1552314057044,"fix_duration":1151.7493495314636,"trial":37,"RT":728,"MT":1099,"sideResp":2,"stimulus":"img/500/randomdotsizeEA/R/14_Ratio_500_L_5_R_10.png","xmouse":[776,776,776,776,776,776,776,776,776,776,776,776,776,776,776,776,776,776,776,776,776,776,776,776,776,776,776,776,776,775,775,775,775,773,768,755,729,717,705,680,667,658,653,652,652,652,653,722,829,1063,1214,1274,1274,1274,1274,1274,1274,1274,1274,1274,1274,1274,1274,1274,1274,1274,1274,1274,1162,1029,957,909,891,891,891,891,891,891,891,891,892,893,907,924,937,946,951,957,979,1003,1035,1057],"ymouse":[539,539,539,539,539,539,539,539,539,539,539,539,539,539,539,539,539,539,539,539,539,539,539,539,539,539,539,540,541,542,542,542,542,541,538,532,522,518,512,502,494,490,485,484,483,477,465,383,299,145,45,5,5,5,5,5,5,5,5,5,5,5,5,5,5,5,5,5,35,93,120,137,144,144,144,144,144,144,144,144,144,144,134,120,107,96,88,78,69,58,44,34],"timestamp_mouse":[10,27,46,66,87,105,127,147,167,186,207,227,247,267,287,307,328,347,367,388,407,427,446,466,488,508,526,547,567,587,607,626,646,667,686,707,728,746,767,786,808,827,847,867,888,907,926,946,968,987,1008,1028,1047,1067,1086,1107,1128,1147,1167,1186,1207,1226,1247,1267,1287,1307,1327,1346,1367,1386,1407,1427,1446,1467,1488,1507,1527,1547,1567,1587,1606,1627,1646,1667,1687,1708,1726,1746,1767,1786,1808,1827],"xSR":733.5,"ySR":461.5,"xT1":420.09999999999997,"yT1":0,"xT2":1046.8999999999999,"yT2":0,"toosoon":0,"cond_shown":"randomdotsizeEA","ratio_trial":500,"smaller_num":"5","larger_num":"10","correct_side":2,"subjID":"gabrielacipamocha31","gender":"1","age":"9","school":"4"},{"start_time":1552314060422,"click_time":1552314061863,"finger_time":1552314061262,"fix_duration":878.2383588232937,"trial":38,"RT":840,"MT":601,"sideResp":2,"stimulus":"img/500/equaldotanddens/L/13_Ratio_500_L_12_R_6.png","xmouse":[802,802,802,802,802,802,802,802,802,802,802,802,802,802,802,802,802,802,802,802,802,802,802,802,802,802,802,802,802,802,802,802,802,803,803,804,805,806,808,809,812,815,855,891,909,927,946,994,1024,1045,1058,1066,1069,1069,1069,1069,1069,1069,1070,1075,1086,1096,1122,1126,1128,1129,1129,1129,1129,1128,1125,1122,1117],"ymouse":[520,520,520,520,520,520,520,520,520,520,520,520,520,520,520,520,520,520,520,520,520,520,520,520,520,520,520,520,520,520,520,520,520,520,520,520,520,520,520,521,521,521,514,504,497,488,475,437,402,373,352,338,317,308,304,298,291,268,256,241,220,204,170,162,157,156,153,134,126,117,109,105,98],"timestamp_mouse":[11,20,41,60,80,100,121,141,160,180,200,220,241,260,280,301,321,341,360,382,400,422,441,461,480,501,521,541,561,581,601,621,641,661,681,701,721,741,761,781,801,821,840,860,881,901,921,941,960,981,1001,1022,1040,1060,1080,1101,1120,1141,1160,1180,1201,1222,1242,1262,1280,1301,1320,1341,1360,1381,1401,1422,1441],"xSR":733.5,"ySR":461.5,"xT1":420.09999999999997,"yT1":0,"xT2":1046.8999999999999,"yT2":0,"toosoon":0,"cond_shown":"equaldotanddens","ratio_trial":500,"smaller_num":"6","larger_num":"12","correct_side":1,"subjID":"gabrielacipamocha31","gender":"1","age":"9","school":"4"},{"start_time":1552314064171,"click_time":1552314064963,"finger_time":1552314064903,"fix_duration":1106.4053049536708,"trial":39,"RT":732,"MT":60,"sideResp":1,"stimulus":"img/900/randomdotsizeEA/L/8_Ratio_900_L_20_R_18.png","xmouse":[782,782,783,783,783,784,784,784,784,784,784,785,786,786,786,786,786,786,786,786,786,786,786,785,782,781,779,778,777,776,775,775,772,768,753,737,678,603,527,448],"ymouse":[521,521,521,521,521,521,521,521,521,521,521,521,521,521,521,521,521,521,521,521,521,521,521,521,521,521,521,521,520,520,519,519,518,516,506,494,450,354,217,68],"timestamp_mouse":[30,32,52,71,91,112,131,152,172,192,213,233,253,271,291,312,333,352,372,391,412,432,451,471,492,511,533,552,571,592,611,633,651,673,692,712,732,753,772,792],"xSR":733.5,"ySR":461.5,"xT1":420.09999999999997,"yT1":0,"xT2":1046.8999999999999,"yT2":0,"toosoon":0,"cond_shown":"randomdotsizeEA","ratio_trial":900,"smaller_num":"18","larger_num":"20","correct_side":1,"subjID":"gabrielacipamocha31","gender":"1","age":"9","school":"4"},{"start_time":1552314066797,"click_time":1552314067943,"finger_time":1552314067663,"fix_duration":913.3441505158876,"trial":40,"RT":866,"MT":280,"sideResp":2,"stimulus":"img/500/equaldotanddens/L/11_Ratio_500_L_12_R_6.png","xmouse":[780,780,780,780,780,780,780,780,780,780,780,780,780,779,779,779,779,778,778,778,778,778,778,778,778,778,778,778,778,778,778,778,778,778,778,778,778,778,778,778,778,783,805,840,912,961,1007,1062,1115,1181,1199,1209,1213,1214,1201,1184,1153,1102],"ymouse":[505,505,505,505,505,505,505,505,505,505,506,506,506,506,506,506,506,506,506,506,506,506,506,506,506,506,506,506,506,506,506,506,506,506,506,506,506,506,506,506,507,511,511,493,441,410,380,351,322,275,260,248,235,224,193,167,116,23],"timestamp_mouse":[11,25,45,66,87,106,127,146,166,185,207,226,246,266,287,307,325,347,366,385,407,426,446,467,486,506,525,546,566,585,607,627,645,665,687,707,727,747,766,785,807,826,847,866,885,907,926,946,966,986,1005,1025,1046,1066,1086,1107,1127,1145],"xSR":733.5,"ySR":461.5,"xT1":420.09999999999997,"yT1":0,"xT2":1046.8999999999999,"yT2":0,"toosoon":0,"cond_shown":"equaldotanddens","ratio_trial":500,"smaller_num":"6","larger_num":"12","correct_side":1,"subjID":"gabrielacipamocha31","gender":"1","age":"9","school":"4"},{"start_time":1552314070366,"click_time":1552314071304,"finger_time":1552314070802,"fix_duration":1220.8353220994563,"trial":41,"RT":436,"MT":502,"sideResp":1,"stimulus":"img/250/equaldotsize/L/7_Ratio_250_L_8_R_2.png","xmouse":[796,796,796,796,796,796,796,796,796,796,796,796,796,796,796,796,796,796,794,790,758,728,661,581,495,356,318,292,275,266,248,244,242,241,240,245,257,257,257,257,329,345,362,380,396,409,428],"ymouse":[491,491,491,491,491,491,491,491,491,491,491,491,491,491,491,491,491,491,490,488,475,461,433,393,334,203,162,132,112,100,83,80,75,67,53,18,4,4,4,4,2,8,14,19,27,32,37],"timestamp_mouse":[18,38,58,78,97,116,138,156,176,197,217,238,257,277,297,318,338,357,377,398,417,436,456,477,496,517,537,557,577,597,618,636,656,677,697,717,737,758,777,797,818,836,857,876,897,917,938],"xSR":733.5,"ySR":461.5,"xT1":420.09999999999997,"yT1":0,"xT2":1046.8999999999999,"yT2":0,"toosoon":0,"cond_shown":"equaldotsize","ratio_trial":250,"smaller_num":"2","larger_num":"8","correct_side":1,"subjID":"gabrielacipamocha31","gender":"1","age":"9","school":"4"},{"start_time":1552314073176,"click_time":1552314074585,"finger_time":1552314073943,"fix_duration":751.163505625658,"trial":42,"RT":767,"MT":642,"sideResp":2,"stimulus":"img/750/equaldotanddens/R/5_Ratio_750_L_15_R_20.png","xmouse":[782,782,782,782,782,782,782,782,782,782,782,782,782,782,782,782,782,782,782,782,782,782,782,782,782,782,782,782,782,782,782,782,782,782,782,782,782,809,924,1054,1181,1352,1374,1378,1378,1368,1330,1312,1311,1309,1304,1299,1291,1282,1271,1238,1219,1202,1186,1181,1179,1178,1175,1174,1171,1169,1166,1165,1165,1162,1140],"ymouse":[546,546,546,546,546,546,546,546,546,546,546,546,546,546,546,546,546,545,545,545,545,545,545,545,545,545,545,545,545,545,545,545,545,545,545,545,545,527,482,442,402,329,309,294,278,263,193,135,123,89,68,63,60,56,52,40,33,27,24,22,22,22,22,22,23,23,25,26,26,26,19],"timestamp_mouse":[13,35,46,67,86,107,128,148,168,186,207,227,248,268,288,307,327,346,366,388,406,428,447,466,488,508,526,547,566,588,607,627,646,668,687,707,727,747,767,788,807,827,848,868,886,907,926,948,967,988,1009,1026,1048,1068,1086,1109,1127,1147,1167,1186,1207,1227,1246,1268,1286,1306,1326,1347,1367,1387,1408],"xSR":733.5,"ySR":461.5,"xT1":420.09999999999997,"yT1":0,"xT2":1046.8999999999999,"yT2":0,"toosoon":0,"cond_shown":"equaldotanddens","ratio_trial":750,"smaller_num":"15","larger_num":"20","correct_side":2,"subjID":"gabrielacipamocha31","gender":"1","age":"9","school":"4"},{"start_time":1552314076520,"click_time":1552314077922,"finger_time":1552314077163,"fix_duration":875.1141018248334,"trial":43,"RT":643,"MT":759,"sideResp":2,"stimulus":"img/500/equaldotanddens/R/1_Ratio_500_L_9_R_18.png","xmouse":[779,779,779,779,779,779,779,779,779,779,779,779,779,779,779,779,779,779,779,779,779,779,779,779,779,779,779,779,779,789,809,825,864,936,1104,1179,1229,1256,1273,1283,1284,1284,1284,1284,1284,1284,1284,1284,1284,1284,1284,1284,1284,1284,1284,816,788,783,783,783,783,783,788,797,827,852,883,917,952,986,1051],"ymouse":[500,500,500,500,500,500,500,500,500,500,500,500,500,500,500,500,500,500,500,500,500,500,500,500,500,500,500,500,501,503,508,511,496,433,288,209,141,88,50,13,1,1,1,1,1,1,1,1,1,1,1,1,1,1,1,60,69,70,70,70,70,71,73,75,79,79,79,79,79,79,68],"timestamp_mouse":[9,23,42,62,82,102,122,143,167,184,203,222,242,264,284,303,322,343,362,382,404,424,444,462,482,503,524,543,563,582,604,622,643,662,683,703,723,743,763,783,803,823,843,863,882,903,923,944,963,982,1004,1024,1044,1064,1082,1104,1123,1144,1163,1184,1204,1222,1243,1263,1283,1303,1323,1343,1362,1383,1402],"xSR":733.5,"ySR":461.5,"xT1":420.09999999999997,"yT1":0,"xT2":1046.8999999999999,"yT2":0,"toosoon":0,"cond_shown":"equaldotanddens","ratio_trial":500,"smaller_num":"9","larger_num":"18","correct_side":2,"subjID":"gabrielacipamocha31","gender":"1","age":"9","school":"4"},{"start_time":1552314079461,"click_time":1552314080843,"finger_time":1552314080283,"fix_duration":457.2349828970085,"trial":44,"RT":822,"MT":560,"sideResp":2,"stimulus":"img/250/randomdotsizeEA/R/8_Ratio_250_L_1_R_4.png","xmouse":[768,768,768,768,768,768,768,768,768,768,768,768,768,768,768,768,768,768,768,768,768,769,769,769,769,769,769,769,769,769,769,769,769,769,769,769,769,769,768,761,745,710,682,626,606,589,570,544,496,478,467,465,464,464,465,466,470,479,553,626,716,795,925,941,951,960,976,993,1032,1053],"ymouse":[509,509,509,509,509,509,509,509,509,509,509,509,509,509,509,509,509,509,509,509,509,509,509,509,509,509,509,509,509,509,509,510,510,510,510,510,510,510,511,509,502,487,475,453,445,434,410,374,313,298,289,287,287,287,287,287,287,288,277,255,229,205,145,132,124,117,108,98,80,69],"timestamp_mouse":[10,21,42,62,82,103,123,142,162,182,203,223,242,263,282,302,323,342,363,383,403,423,442,462,481,503,523,541,562,583,602,622,643,663,683,703,722,742,762,782,801,822,843,861,882,902,921,942,962,982,1002,1022,1043,1063,1081,1102,1122,1142,1161,1182,1202,1222,1242,1261,1282,1301,1321,1342,1362,1382],"xSR":733.5,"ySR":461.5,"xT1":420.09999999999997,"yT1":0,"xT2":1046.8999999999999,"yT2":0,"toosoon":0,"cond_shown":"randomdotsizeEA","ratio_trial":250,"smaller_num":"1","larger_num":"4","correct_side":2,"subjID":"gabrielacipamocha31","gender":"1","age":"9","school":"4"},{"start_time":1552314083051,"click_time":1552314084443,"finger_time":1552314083683,"fix_duration":1247.988950241875,"trial":45,"RT":632,"MT":760,"sideResp":2,"stimulus":"img/250/randomdotsizeEA/R/6_Ratio_250_L_6_R_24.png","xmouse":[819,819,819,819,819,819,819,819,819,819,819,819,819,819,819,819,819,819,819,819,819,819,819,819,819,819,819,819,821,823,829,841,858,890,898,901,901,896,858,830,806,785,773,766,766,766,766,766,783,798,826,845,861,882,888,896,902,908,919,923,928,932,938,959,973,988,1001,1014,1035,1061],"ymouse":[540,540,540,540,540,540,540,540,540,540,540,540,540,540,540,540,540,540,540,540,540,540,540,540,540,540,540,540,540,541,541,529,513,477,460,444,432,412,371,357,343,332,323,318,318,317,316,312,290,275,248,230,211,179,167,154,140,128,108,103,96,93,91,84,80,76,73,72,69,65],"timestamp_mouse":[12,33,53,71,93,112,131,153,173,191,213,231,253,272,291,312,332,352,371,392,412,433,452,471,492,511,531,552,571,591,611,632,652,671,691,712,732,751,772,791,811,832,851,871,892,911,931,953,971,992,1011,1032,1051,1071,1091,1112,1133,1151,1172,1192,1211,1232,1253,1271,1291,1311,1331,1352,1371,1392],"xSR":733.5,"ySR":461.5,"xT1":420.09999999999997,"yT1":0,"xT2":1046.8999999999999,"yT2":0,"toosoon":0,"cond_shown":"randomdotsizeEA","ratio_trial":250,"smaller_num":"6","larger_num":"24","correct_side":2,"subjID":"gabrielacipamocha31","gender":"1","age":"9","school":"4"},{"start_time":1552314086206,"click_time":1552314087242,"finger_time":1552314086963,"fix_duration":661.2410392986752,"trial":46,"RT":757,"MT":279,"sideResp":1,"stimulus":"img/900/equaldotsize/L/10_Ratio_900_L_20_R_18.png","xmouse":[797,797,797,797,797,797,797,797,797,797,797,797,797,797,797,797,797,797,797,797,797,797,797,797,797,797,797,797,797,797,797,797,797,799,808,817,820,821,821,821,821,819,817,814,810,800,792,776,749,698,544,499],"ymouse":[523,523,523,523,523,523,523,523,523,523,523,523,523,523,523,523,523,523,523,523,523,523,523,523,523,523,523,523,523,523,523,523,522,517,503,484,471,458,441,425,377,358,343,332,322,306,294,276,251,211,112,85],"timestamp_mouse":[17,39,58,76,96,116,136,157,176,197,216,238,257,277,297,316,338,356,376,398,417,438,457,476,497,517,537,557,576,596,616,637,657,677,697,716,737,757,776,796,817,837,857,878,897,917,936,956,976,996,1018,1036],"xSR":733.5,"ySR":461.5,"xT1":420.09999999999997,"yT1":0,"xT2":1046.8999999999999,"yT2":0,"toosoon":0,"cond_shown":"equaldotsize","ratio_trial":900,"smaller_num":"18","larger_num":"20","correct_side":1,"subjID":"gabrielacipamocha31","gender":"1","age":"9","school":"4"},{"start_time":1552314088861,"click_time":1552314090343,"finger_time":1552314089543,"fix_duration":715.66019068784,"trial":47,"RT":682,"MT":800,"sideResp":2,"stimulus":"img/250/equaldotanddens/R/9_Ratio_250_L_3_R_12.png","xmouse":[765,765,765,765,765,765,765,765,765,765,765,765,765,765,765,765,765,765,765,765,765,765,765,765,765,765,765,765,765,765,765,765,767,772,837,915,1018,1109,1234,1244,1247,1250,1254,1265,1271,1276,1279,1279,1269,1255,1240,1226,1217,1205,1201,1195,1190,1174,1164,1149,1144,1140,1137,1124,1116,1111,1106,1100,1091,1083,1082,1080,1078,1075,1074],"ymouse":[543,543,543,543,543,543,543,543,543,543,543,543,543,543,543,543,543,543,543,543,543,543,543,543,543,543,543,543,543,543,543,543,543,540,508,471,427,390,326,317,312,305,297,278,268,256,243,238,211,200,190,183,178,170,167,164,162,155,151,146,143,142,140,135,131,130,128,126,123,119,119,117,115,104,91],"timestamp_mouse":[10,22,41,63,82,103,121,141,162,182,202,223,243,262,282,301,322,343,362,382,401,421,442,462,483,503,522,542,561,583,601,622,641,663,682,701,721,741,763,781,802,823,842,862,881,901,921,941,963,982,1003,1021,1041,1064,1081,1101,1121,1142,1163,1183,1202,1222,1242,1263,1281,1302,1322,1341,1361,1381,1401,1422,1442,1464,1482],"xSR":733.5,"ySR":461.5,"xT1":420.09999999999997,"yT1":0,"xT2":1046.8999999999999,"yT2":0,"toosoon":0,"cond_shown":"equaldotanddens","ratio_trial":250,"smaller_num":"3","larger_num":"12","correct_side":2,"subjID":"gabrielacipamocha31","gender":"1","age":"9","school":"4"},{"start_time":1552314091978,"click_time":1552314093263,"finger_time":1552314092683,"fix_duration":473.01906691558725,"trial":48,"RT":705,"MT":580,"sideResp":2,"stimulus":"img/900/equaldotsize/R/7_Ratio_900_L_9_R_10.png","xmouse":[799,799,799,799,799,799,799,799,799,799,799,799,799,799,799,799,799,799,799,799,799,799,799,799,799,799,799,799,799,799,799,799,803,818,826,835,843,859,943,989,1057,1081,1091,1105,1109,1111,1115,1118,1122,1122,1123,1123,1123,1123,1122,1121,1121,1120,1120,1120,1122,1125,1126,1127,1128],"ymouse":[508,508,508,508,508,508,508,508,508,508,508,508,508,508,508,508,508,508,508,508,508,508,508,508,508,508,508,508,508,508,508,509,510,516,520,522,523,523,466,425,343,308,284,250,239,228,220,211,198,196,192,191,189,185,182,178,173,165,143,126,117,108,104,100,97],"timestamp_mouse":[9,24,46,65,84,106,126,146,166,185,204,224,244,266,284,304,324,345,365,385,405,425,446,466,484,505,525,544,564,584,605,626,644,665,684,705,725,744,765,785,804,825,845,864,884,905,925,945,965,985,1005,1025,1045,1065,1085,1105,1125,1145,1164,1186,1205,1225,1245,1264,1285],"xSR":733.5,"ySR":461.5,"xT1":420.09999999999997,"yT1":0,"xT2":1046.8999999999999,"yT2":0,"toosoon":0,"cond_shown":"equaldotsize","ratio_trial":900,"smaller_num":"9","larger_num":"10","correct_side":2,"subjID":"gabrielacipamocha31","gender":"1","age":"9","school":"4"},{"start_time":1552314095400,"click_time":1552314096782,"finger_time":1552314096164,"fix_duration":1015.2816529428535,"trial":49,"RT":764,"MT":618,"sideResp":1,"stimulus":"img/750/randomdotsizeEA/L/13_Ratio_750_L_8_R_6.png","xmouse":[807,807,807,807,807,807,807,807,807,807,807,807,807,807,807,807,807,807,807,807,807,807,807,807,807,807,807,807,807,807,807,808,809,809,809,809,810,810,810,803,780,749,661,609,565,536,536,536,536,536,536,536,536,536,536,536,536,536,536,536,536,536,536,536,536,536,536,536,439,437],"ymouse":[502,502,502,502,502,502,502,502,502,502,502,502,502,502,502,502,502,502,502,502,502,502,502,502,502,502,502,502,502,502,502,502,502,502,502,502,502,502,437,393,339,278,146,87,35,5,5,5,5,5,5,5,5,5,5,5,5,5,5,5,5,5,5,5,5,5,5,5,0,2],"timestamp_mouse":[14,22,42,62,84,103,123,142,163,184,202,223,242,263,282,302,324,343,363,382,403,423,442,464,483,503,523,542,563,582,603,623,643,663,684,704,723,743,764,782,804,822,843,862,883,903,924,943,963,983,1003,1023,1043,1063,1082,1103,1122,1142,1162,1182,1202,1223,1242,1263,1283,1302,1323,1343,1364,1382],"xSR":733.5,"ySR":461.5,"xT1":420.09999999999997,"yT1":0,"xT2":1046.8999999999999,"yT2":0,"toosoon":0,"cond_shown":"randomdotsizeEA","ratio_trial":750,"smaller_num":"6","larger_num":"8","correct_side":1,"subjID":"gabrielacipamocha31","gender":"1","age":"9","school":"4"},{"start_time":1552314100223,"click_time":1552314101743,"finger_time":1552314101122,"fix_duration":1017.0481821652705,"trial":50,"RT":899,"MT":621,"sideResp":1,"stimulus":"img/900/equaldotsize/R/11_Ratio_900_L_18_R_20.png","xmouse":[764,764,764,764,764,764,764,764,764,764,764,764,764,764,764,764,764,764,764,764,764,764,763,762,762,762,761,761,761,761,761,761,761,761,761,761,761,761,761,761,761,761,762,766,779,798,814,843,857,874,892,911,948,953,956,960,961,961,959,954,947,936,913,902,881,848,785,658,623,606,601,599,587,567,549,531,519],"ymouse":[522,522,522,522,523,523,523,523,524,524,525,525,526,526,527,527,527,529,529,529,530,530,532,537,538,543,544,544,544,545,545,545,545,545,545,545,545,545,545,545,545,544,535,519,482,441,410,372,352,328,300,266,188,167,151,140,134,121,111,98,88,76,63,59,56,56,55,58,65,69,71,71,71,69,67,63,60],"timestamp_mouse":[1,19,39,61,81,100,119,141,159,179,200,221,240,261,280,299,320,340,361,379,400,419,439,460,479,501,521,540,559,580,600,619,641,661,680,700,720,741,759,781,800,819,839,861,880,899,920,940,959,980,1000,1019,1039,1060,1079,1101,1120,1140,1160,1181,1201,1220,1240,1261,1280,1299,1319,1340,1360,1380,1399,1419,1439,1460,1479,1499,1520],"xSR":733.5,"ySR":461.5,"xT1":420.09999999999997,"yT1":0,"xT2":1046.8999999999999,"yT2":0,"toosoon":0,"cond_shown":"equaldotsize","ratio_trial":900,"smaller_num":"18","larger_num":"20","correct_side":2,"subjID":"gabrielacipamocha31","gender":"1","age":"9","school":"4"},{"start_time":1552314117122,"click_time":1552314118462,"finger_time":1552314117962,"fix_duration":1158.9619105759061,"trial":51,"RT":840,"MT":500,"sideResp":1,"stimulus":"img/900/randomdotsizeEA/L/2_Ratio_900_L_20_R_18.png","xmouse":[807,805,805,799,798,798,797,797,797,796,796,795,794,793,793,793,793,793,793,793,793,793,793,793,793,793,793,793,793,793,793,793,793,793,793,793,793,791,788,781,775,760,733,675,508,441,404,392,388,382,382,381,381,381,384,387,392,399,402,414,417,422,426,428,433,434,435,435],"ymouse":[517,517,517,515,515,514,514,513,513,513,513,513,513,512,512,512,512,512,512,512,512,512,512,512,512,512,512,512,512,512,512,512,512,512,512,512,512,510,510,507,504,494,464,424,334,290,264,250,239,222,216,208,203,196,181,174,169,161,159,146,142,134,128,122,110,105,101,99],"timestamp_mouse":[1,32,40,61,80,101,120,140,160,180,200,221,239,261,281,301,321,341,360,380,401,421,441,461,481,501,521,541,561,580,601,621,641,660,680,701,720,740,759,780,800,820,840,860,879,901,920,940,960,980,1001,1020,1041,1060,1080,1100,1120,1140,1160,1180,1200,1220,1240,1261,1280,1300,1321,1340],"xSR":733.5,"ySR":461.5,"xT1":420.09999999999997,"yT1":0,"xT2":1046.8999999999999,"yT2":0,"toosoon":0,"cond_shown":"randomdotsizeEA","ratio_trial":900,"smaller_num":"18","larger_num":"20","correct_side":1,"subjID":"gabrielacipamocha31","gender":"1","age":"9","school":"4"},{"start_time":1552314129315,"click_time":1552314130441,"finger_time":1552314129803,"fix_duration":1371.9673472177524,"trial":52,"RT":488,"MT":638,"sideResp":1,"stimulus":"img/500/equaldotsize/L/13_Ratio_500_L_12_R_6.png","xmouse":[782,778,776,775,774,774,774,774,774,774,774,774,774,774,774,774,774,774,774,774,772,768,758,741,726,687,647,600,540,481,379,353,336,324,314,294,294,294,294,294,294,294,294,294,294,294,294,294,294,294,294,294,294,294,294,294,485],"ymouse":[532,530,529,529,528,528,528,528,528,528,528,528,528,528,528,528,528,528,528,528,528,526,521,514,508,484,451,417,373,325,231,192,154,118,83,7,7,7,7,7,7,7,7,7,7,7,7,7,7,7,7,7,7,7,7,7,1],"timestamp_mouse":[15,36,49,67,87,107,128,147,168,188,207,228,248,268,288,306,327,347,368,387,407,427,447,467,488,507,528,547,567,586,607,627,647,666,686,708,727,747,768,788,808,828,848,868,888,908,927,947,967,987,1008,1027,1046,1066,1086,1106,1126],"xSR":733.5,"ySR":461.5,"xT1":420.09999999999997,"yT1":0,"xT2":1046.8999999999999,"yT2":0,"toosoon":0,"cond_shown":"equaldotsize","ratio_trial":500,"smaller_num":"6","larger_num":"12","correct_side":1,"subjID":"gabrielacipamocha31","gender":"1","age":"9","school":"4"},{"start_time":1552314133421,"click_time":1552314134402,"finger_time":1552314133942,"fix_duration":876.9281615509306,"trial":53,"RT":521,"MT":460,"sideResp":1,"stimulus":"img/900/randomdotsizeEA/L/2_Ratio_900_L_20_R_18.png","xmouse":[795,795,795,795,795,795,795,795,795,795,795,795,795,795,797,799,801,804,807,811,813,815,817,819,824,826,830,830,830,829,804,776,736,680,620,504,474,456,454,451,448,443,440,440,440,440,440,440,442,450],"ymouse":[523,523,523,523,523,523,523,523,523,523,523,523,523,523,523,518,513,506,502,496,492,489,485,481,472,465,455,453,449,435,392,355,312,266,226,142,123,113,112,111,110,108,107,107,107,107,107,104,100,88],"timestamp_mouse":[10,22,41,61,81,102,122,141,160,181,201,222,241,262,281,303,320,342,361,381,401,421,441,461,481,501,521,540,561,582,603,621,642,661,680,702,721,740,760,781,801,821,841,861,882,902,922,942,961,981],"xSR":733.5,"ySR":461.5,"xT1":420.09999999999997,"yT1":0,"xT2":1046.8999999999999,"yT2":0,"toosoon":0,"cond_shown":"randomdotsizeEA","ratio_trial":900,"smaller_num":"18","larger_num":"20","correct_side":1,"subjID":"gabrielacipamocha31","gender":"1","age":"9","school":"4"},{"start_time":1552314139214,"click_time":1552314140123,"finger_time":1552314139781,"fix_duration":250,"trial":54,"RT":567,"MT":342,"sideResp":2,"stimulus":"img/250/equaldotsize/R/4_Ratio_250_L_3_R_12.png","xmouse":[788,788,788,788,788,788,788,788,788,788,788,788,788,788,788,788,787,787,787,787,787,788,788,790,791,795,813,839,875,931,1044,1089,1122,1145,1159,1175,1175,1175,1175,1175,1172,1165,1158,1149,1140],"ymouse":[486,486,486,486,486,486,486,486,486,486,486,486,486,486,486,486,485,485,485,485,485,485,485,486,486,487,472,453,425,367,235,191,153,122,98,57,51,47,45,45,41,39,36,33,31],"timestamp_mouse":[28,47,67,89,109,128,149,168,189,208,228,248,268,288,308,328,348,369,388,407,428,449,469,488,509,528,549,567,589,608,628,647,668,688,708,728,748,768,789,807,828,848,869,889,909],"xSR":733.5,"ySR":461.5,"xT1":420.09999999999997,"yT1":0,"xT2":1046.8999999999999,"yT2":0,"toosoon":0,"cond_shown":"equaldotsize","ratio_trial":250,"smaller_num":"3","larger_num":"12","correct_side":2,"subjID":"gabrielacipamocha31","gender":"1","age":"9","school":"4"},{"start_time":1552314143375,"click_time":1552314144362,"finger_time":1552314144043,"fix_duration":250,"trial":55,"RT":668,"MT":319,"sideResp":1,"stimulus":"img/900/randomdotsizeEA/L/8_Ratio_900_L_20_R_18.png","xmouse":[788,789,789,789,790,790,790,790,790,790,790,790,790,790,790,790,790,790,790,790,790,790,790,790,790,790,790,790,790,790,788,779,766,720,690,656,605,580,564,561,555,550,543,538,536,536,536,533,528,519],"ymouse":[542,542,542,542,542,542,542,542,542,542,542,542,542,542,542,542,542,542,542,542,542,542,542,542,542,542,542,542,542,542,536,512,484,411,369,331,271,237,182,156,134,117,103,96,96,96,96,95,93,90],"timestamp_mouse":[13,31,48,66,87,107,126,148,168,188,207,227,247,266,287,307,327,348,366,388,408,427,448,468,488,507,528,548,566,588,607,626,647,668,687,708,727,748,768,787,806,826,846,868,887,907,928,946,968,987],"xSR":733.5,"ySR":461.5,"xT1":420.09999999999997,"yT1":0,"xT2":1046.8999999999999,"yT2":0,"toosoon":0,"cond_shown":"randomdotsizeEA","ratio_trial":900,"smaller_num":"18","larger_num":"20","correct_side":1,"subjID":"gabrielacipamocha31","gender":"1","age":"9","school":"4"},{"start_time":1552314145273,"click_time":1552314146262,"finger_time":1552314145883,"fix_duration":250,"trial":56,"RT":610,"MT":379,"sideResp":1,"stimulus":"img/500/equaldotsize/L/13_Ratio_500_L_12_R_6.png","xmouse":[794,794,794,794,794,794,794,794,794,794,794,794,794,794,793,792,792,792,792,792,792,791,790,790,790,790,790,789,788,773,754,741,728,711,688,683,676,673,664,642,625,621,616,611,592,583,574,565,549,494],"ymouse":[543,543,543,543,543,543,543,543,543,543,543,543,542,541,541,540,540,540,537,531,525,522,520,520,520,520,519,518,516,488,454,425,390,340,219,187,164,150,136,119,110,108,107,106,100,97,94,94,94,94],"timestamp_mouse":[11,30,48,70,90,109,129,149,169,189,210,228,250,268,289,310,330,350,370,389,409,429,449,469,490,509,529,548,570,588,610,629,649,669,688,710,729,749,768,789,809,829,850,868,888,910,930,950,970,989],"xSR":733.5,"ySR":461.5,"xT1":420.09999999999997,"yT1":0,"xT2":1046.8999999999999,"yT2":0,"toosoon":0,"cond_shown":"equaldotsize","ratio_trial":500,"smaller_num":"6","larger_num":"12","correct_side":1,"subjID":"gabrielacipamocha31","gender":"1","age":"9","school":"4"},{"start_time":1552314148493,"click_time":1552314149763,"finger_time":1552314149443,"fix_duration":1368.6763261132096,"trial":57,"RT":950,"MT":320,"sideResp":2,"stimulus":"img/500/randomdotsizeEA/R/3_Ratio_500_L_10_R_20.png","xmouse":[777,777,777,777,777,777,777,777,777,777,777,777,777,777,777,777,777,777,777,777,777,777,777,777,777,777,777,777,777,777,777,777,777,777,777,777,777,777,777,777,777,777,777,777,777,776,775,761,751,742,743,753,768,797,809,822,832,843,883,905,929,959,1006,1132],"ymouse":[495,495,495,495,495,495,495,495,495,495,495,495,495,495,495,495,495,495,495,495,495,495,495,495,495,495,495,495,495,495,495,495,495,495,495,495,495,495,495,495,495,495,495,495,495,494,488,409,366,311,287,261,235,192,175,157,142,128,96,89,84,80,80,76],"timestamp_mouse":[12,30,49,68,89,110,130,149,169,190,208,229,249,269,289,309,329,350,369,390,409,430,449,469,490,510,530,549,568,589,609,630,649,669,689,710,729,749,769,790,808,830,850,869,890,909,929,950,969,988,1008,1028,1048,1070,1088,1109,1128,1149,1169,1189,1209,1228,1249,1270],"xSR":733.5,"ySR":461.5,"xT1":420.09999999999997,"yT1":0,"xT2":1046.8999999999999,"yT2":0,"toosoon":0,"cond_shown":"randomdotsizeEA","ratio_trial":500,"smaller_num":"10","larger_num":"20","correct_side":2,"subjID":"gabrielacipamocha31","gender":"1","age":"9","school":"4"},{"start_time":1552314153459,"click_time":1552314154503,"finger_time":1552314154063,"fix_duration":1176.7156936276065,"trial":58,"RT":604,"MT":440,"sideResp":2,"stimulus":"img/750/equaldotanddens/R/11_Ratio_750_L_12_R_16.png","xmouse":[749,749,749,749,749,749,749,749,749,749,749,749,749,749,749,749,749,749,749,750,753,758,759,760,762,765,778,788,805,817,835,897,937,979,1016,1059,1127,1179,1210,1230,1243,1259,1261,1262,1262,1262,1250,1237,1237,1237,1237,1148,1115],"ymouse":[517,517,517,517,517,517,517,517,517,517,517,517,517,517,517,517,517,517,517,517,519,520,521,521,522,523,526,530,533,533,524,482,448,406,354,294,191,126,90,69,53,25,15,11,10,9,5,1,1,1,1,17,34],"timestamp_mouse":[11,23,43,64,91,103,123,143,163,184,204,223,243,264,283,303,323,343,362,383,403,423,443,464,484,503,522,544,563,584,604,622,643,663,683,704,723,742,762,784,803,822,844,862,883,903,922,944,963,982,1002,1022,1043],"xSR":733.5,"ySR":461.5,"xT1":420.09999999999997,"yT1":0,"xT2":1046.8999999999999,"yT2":0,"toosoon":0,"cond_shown":"equaldotanddens","ratio_trial":750,"smaller_num":"12","larger_num":"16","correct_side":2,"subjID":"gabrielacipamocha31","gender":"1","age":"9","school":"4"},{"start_time":1552314156922,"click_time":1552314167403,"finger_time":1552314158041,"fix_duration":1177.59655389584,"trial":59,"RT":1119,"MT":9362,"sideResp":2,"stimulus":"img/750/randomdotsizeEA/R/12_Ratio_750_L_3_R_4.png","xmouse":[808,808,808,808,808,808,808,808,808,808,808,808,808,808,808,808,808,808,808,808,808,808,808,808,808,808,808,808,808,808,808,808,808,808,808,808,808,808,808,808,808,808,808,808,808,808,808,808,808,811,812,815,818,820,824,830,836,841,845,846,846,846,846,846,846,846,846,846,846,846,846,846,846,846,846,846,846,846,846,846,846,846,844,842,838,835,833,832,824,817,811,810,810,810,810,810,810,810,810,810,810,810,810,810,810,808,805,803,797,792,787,783,782,782,782,782,782,781,781,781,781,781,781,781,782,784,786,788,795,799,801,806,808,811,812,813,813,813,813,813,813,813,813,813,813,813,813,813,813,813,813,813,813,813,813,813,813,813,813,813,813,813,813,813,813,813,813,813,813,813,813,813,813,813,813,813,813,813,813,813,813,813,813,813,813,813,813,813,813,813,813,813,813,813,813,813,813,813,813,813,813,813,813,813,813,813,813,813,813,813,813,813,813,813,813,813,813,811,808,781,754,720,715,715,715,715,716,721,725,742,765,778,787,793,793,793,793,793,793,793,793,793,793,793,793,791,789,788,786,785,785,785,784,784,789,791,793,793,793,793,793,793,793,793,793,793,793,793,793,793,793,793,793,793,792,790,790,788,787,786,786,786,786,786,786,786,786,786,786,786,785,785,785,785,785,785,785,785,785,785,785,785,785,785,785,785,785,784,782,780,780,780,780,780,780,780,780,780,780,780,780,779,779,779,778,778,778,778,778,778,778,778,778,778,778,778,778,778,778,778,778,778,778,778,778,778,778,778,778,778,778,784,802,829,862,866,866,854,826,682,646,640,640,640,654,677,698,712,719,720,720,720,720,720,720,720,720,720,720,720,720,722,727,734,741,743,743,743,743,743,743,743,743,743,743,743,743,743,743,744,744,744,744,744,744,744,744,744,744,744,744,744,744,744,744,744,744,744,744,744,744,744,744,744,744,744,744,744,744,744,744,744,744,744,744,744,744,744,744,744,744,744,744,744,744,744,744,744,744,744,744,744,744,744,745,747,748,750,751,760,763,766,768,770,772,773,773,773,773,773,774,775,776,776,777,777,777,777,776,774,774,774,774,774,774,774,774,774,774,774,774,774,774,774,774,774,774,774,773,770,767,766,765,765,764,764,765,768,777,813,834,862,888,910,927,949,959,964,969,987,1002,1019,1037,1056,1070],"ymouse":[527,527,527,527,527,527,527,527,527,527,527,527,527,527,527,527,527,527,527,527,527,527,527,527,527,527,527,527,527,527,527,527,527,527,527,527,527,527,527,527,527,527,527,527,527,527,527,527,527,527,527,528,530,531,532,534,536,538,540,540,540,540,540,540,540,540,540,540,540,540,540,540,540,540,540,540,540,540,540,540,540,540,539,539,537,536,535,534,532,529,527,526,526,526,526,526,526,526,526,526,526,526,526,526,526,526,525,525,523,522,520,519,519,519,519,519,519,519,519,519,519,519,519,519,519,520,521,522,524,525,526,527,528,529,530,530,530,530,530,530,530,530,530,530,530,530,530,530,530,530,530,530,530,530,530,530,530,530,530,530,530,530,530,530,530,530,530,530,530,530,530,530,530,530,530,530,530,530,530,530,530,530,530,530,530,530,530,530,530,530,530,530,530,530,530,530,530,530,530,530,530,530,530,530,530,530,530,530,530,530,530,530,530,530,530,530,530,530,530,521,509,491,489,489,489,489,489,490,491,496,501,503,503,503,503,503,503,503,503,503,503,503,503,503,503,502,502,501,501,500,500,500,500,501,502,503,504,504,504,504,504,504,504,504,504,504,504,504,504,504,504,504,504,504,504,504,504,505,505,505,505,505,505,505,505,505,505,505,505,505,505,505,505,505,505,505,505,505,505,505,505,505,505,505,505,505,505,505,505,505,505,505,505,505,505,505,505,505,505,505,505,505,505,505,505,505,505,505,505,505,505,505,505,505,505,505,505,505,505,505,505,505,505,505,505,505,505,505,505,505,505,506,511,522,533,534,534,533,523,501,501,501,501,501,505,511,518,522,524,524,524,524,524,524,524,524,524,524,524,524,524,526,527,529,530,530,531,531,531,531,531,531,531,531,531,531,531,531,531,531,531,531,531,531,531,531,531,531,531,531,531,531,531,531,531,531,531,531,531,531,531,531,531,531,531,531,531,531,531,531,531,531,531,531,531,531,531,531,531,531,531,531,531,531,531,531,531,531,531,531,531,531,531,531,531,531,531,531,531,534,536,537,537,538,538,539,539,539,539,539,539,538,536,535,535,535,535,535,534,534,534,534,534,534,534,534,534,534,534,534,534,534,534,534,534,534,534,533,533,526,514,507,501,497,493,486,480,470,454,392,362,325,289,262,239,207,194,186,179,156,141,127,114,101,93],"timestamp_mouse":[9,20,40,60,80,100,119,141,160,181,200,221,239,260,281,300,320,340,360,381,401,420,441,459,480,500,521,541,560,580,600,619,640,660,681,701,720,741,760,780,800,820,840,860,880,901,920,939,967,980,1000,1020,1041,1060,1080,1099,1119,1140,1161,1179,1200,1221,1241,1261,1281,1300,1319,1340,1360,1379,1400,1420,1440,1461,1481,1500,1520,1540,1560,1583,1600,1620,1640,1661,1680,1701,1721,1739,1761,1780,1801,1820,1841,1860,1880,1900,1921,1940,1960,1980,2001,2019,2040,2060,2081,2100,2120,2139,2160,2180,2201,2220,2241,2260,2280,2300,2320,2340,2360,2381,2400,2420,2441,2460,2480,2499,2520,2541,2560,2579,2600,2620,2640,2661,2681,2701,2719,2741,2761,2781,2800,2819,2841,2860,2881,2901,2919,2940,2961,2981,3000,3020,3041,3060,3079,3101,3120,3141,3161,3180,3201,3221,3241,3261,3281,3301,3321,3341,3361,3381,3401,3420,3441,3460,3481,3500,3521,3541,3561,3580,3599,3621,3640,3660,3681,3700,3719,3741,3761,3780,3801,3821,3840,3860,3880,3899,3921,3940,3961,3981,4001,4021,4039,4061,4081,4100,4121,4140,4161,4181,4200,4221,4239,4260,4279,4300,4320,4340,4360,4380,4401,4419,4440,4460,4480,4500,4521,4540,4561,4579,4601,4619,4640,4661,4681,4700,4720,4740,4761,4781,4800,4821,4840,4860,4880,4899,4921,4939,4961,4981,5000,5020,5041,5060,5079,5100,5121,5140,5161,5180,5200,5221,5240,5261,5280,5301,5321,5341,5360,5379,5400,5420,5440,5459,5480,5500,5520,5539,5560,5580,5601,5619,5641,5660,5681,5699,5719,5741,5759,5781,5801,5821,5840,5861,5880,5900,5919,5941,5959,5981,6000,6019,6040,6060,6080,6100,6119,6140,6161,6180,6200,6221,6240,6260,6280,6300,6321,6340,6360,6381,6401,6419,6441,6460,6481,6501,6520,6541,6559,6580,6600,6620,6641,6660,6679,6701,6721,6740,6760,6781,6800,6820,6841,6860,6880,6900,6921,6940,6961,6979,7001,7020,7041,7059,7080,7100,7120,7140,7160,7180,7199,7219,7240,7260,7281,7300,7321,7340,7361,7380,7401,7420,7439,7461,7481,7500,7521,7541,7560,7580,7600,7621,7640,7661,7680,7700,7720,7741,7761,7781,7800,7819,7840,7860,7880,7900,7921,7941,7960,7980,8001,8020,8041,8060,8080,8100,8121,8141,8161,8181,8200,8221,8240,8261,8280,8299,8321,8341,8360,8379,8401,8421,8441,8459,8480,8501,8519,8540,8561,8579,8601,8619,8641,8661,8679,8701,8720,8740,8760,8779,8800,8820,8840,8860,8880,8901,8921,8940,8961,8980,8999,9020,9039,9061,9080,9100,9120,9140,9161,9180,9199,9219,9240,9259,9280,9300,9321,9339,9361,9379,9400,9420,9440,9460,9480,9501,9521,9540,9559,9579,9601,9619,9640,9661,9680,9701,9719,9740,9761,9779,9800,9820,9840,9860,9880,9901,9920,9941,9961,9980,10001,10021,10040,10060,10080,10099,10121,10140,10160,10181,10199,10220,10239,10260,10280,10300,10320,10340,10360,10380,10399,10419,10441,10460,10480],"xSR":733.5,"ySR":461.5,"xT1":420.09999999999997,"yT1":0,"xT2":1046.8999999999999,"yT2":0,"toosoon":0,"cond_shown":"randomdotsizeEA","ratio_trial":750,"smaller_num":"3","larger_num":"4","correct_side":2,"subjID":"gabrielacipamocha31","gender":"1","age":"9","school":"4"},{"start_time":1552314172993,"click_time":1552314174122,"finger_time":1552314173702,"fix_duration":250,"trial":60,"RT":709,"MT":420,"sideResp":2,"stimulus":"img/250/randomdotsizeEA/R/11_Ratio_250_L_3_R_12.png","xmouse":[779,779,779,779,779,779,779,779,779,779,779,779,779,779,779,779,779,785,790,800,805,807,807,807,808,810,814,816,817,817,817,817,817,817,817,844,950,980,996,1000,1001,1004,1006,1011,1017,1024,1035,1041,1048,1052,1055,1064,1069,1073,1075,1081,1091],"ymouse":[492,492,492,492,492,492,492,492,492,492,492,492,492,492,492,492,492,493,494,499,500,500,500,500,501,502,503,503,504,504,504,504,504,503,500,446,308,275,254,245,240,233,231,222,211,199,173,158,144,136,133,123,117,113,111,103,93],"timestamp_mouse":[13,29,49,69,90,109,129,150,168,189,209,229,250,269,290,309,330,349,368,389,409,429,450,469,489,509,529,549,569,589,609,629,649,669,690,709,730,750,769,790,809,829,850,869,890,910,928,950,969,988,1009,1030,1049,1069,1089,1109,1129],"xSR":733.5,"ySR":461.5,"xT1":420.09999999999997,"yT1":0,"xT2":1046.8999999999999,"yT2":0,"toosoon":0,"cond_shown":"randomdotsizeEA","ratio_trial":250,"smaller_num":"3","larger_num":"12","correct_side":2,"subjID":"gabrielacipamocha31","gender":"1","age":"9","school":"4"},{"start_time":1552314175905,"click_time":1552314177223,"finger_time":1552314176582,"fix_duration":760.7585385198863,"trial":61,"RT":677,"MT":641,"sideResp":1,"stimulus":"img/250/randomdotsizeEA/L/5_Ratio_250_L_24_R_6.png","xmouse":[779,780,780,781,781,781,781,781,781,781,781,781,781,781,781,781,781,781,781,781,781,781,782,782,782,782,782,782,782,782,782,782,782,782,782,765,752,736,717,698,687,673,670,668,667,667,667,667,666,663,659,654,643,627,606,589,584,579,572,567,549,541,533,527,523,519],"ymouse":[514,515,515,515,515,515,515,515,515,515,515,515,515,515,515,515,515,515,515,515,515,515,515,515,515,515,515,515,515,515,515,491,474,441,410,326,296,275,263,253,248,242,241,240,240,240,240,240,239,238,236,231,216,196,165,135,124,119,116,113,108,105,104,101,100,99],"timestamp_mouse":[18,37,58,78,98,117,138,157,178,197,217,238,258,276,298,318,338,358,377,398,417,437,457,478,498,517,538,558,578,597,618,637,658,677,697,718,736,758,777,797,818,837,857,877,898,917,937,956,977,998,1018,1037,1057,1077,1097,1118,1137,1156,1178,1197,1218,1237,1257,1277,1297,1318],"xSR":733.5,"ySR":461.5,"xT1":420.09999999999997,"yT1":0,"xT2":1046.8999999999999,"yT2":0,"toosoon":0,"cond_shown":"randomdotsizeEA","ratio_trial":250,"smaller_num":"6","larger_num":"24","correct_side":1,"subjID":"gabrielacipamocha31","gender":"1","age":"9","school":"4"},{"start_time":1552314180457,"click_time":1552314183462,"finger_time":1552314180542,"fix_duration":252.34256338864247,"trial":62,"RT":85,"MT":2920,"sideResp":2,"stimulus":"img/900/equaldotanddens/R/3_Ratio_900_L_9_R_10.png","xmouse":[833,833,833,833,834,834,834,834,834,834,834,834,834,834,834,834,834,834,834,834,834,833,829,813,785,777,774,773,771,771,771,771,778,781,791,804,811,816,818,819,820,820,820,820,820,820,820,820,820,820,820,820,820,820,820,820,820,820,820,820,820,820,820,820,820,820,820,820,819,818,817,816,815,814,810,810,808,808,806,806,805,804,803,802,801,801,800,799,798,796,795,794,793,792,791,791,791,791,791,791,791,791,791,791,791,791,791,791,791,791,791,791,791,791,791,791,791,791,791,791,791,791,791,791,791,791,791,791,792,806,823,838,853,865,890,902,914,929,939,962,970,977,984,992,1013,1022,1030,1038,1047,1057,1077],"ymouse":[506,506,506,506,506,506,506,506,506,