[{"start_time":1552070111725,"click_time":1552070117643,"finger_time":1552070111736,"fix_duration":778.0210044125319,"trial":0,"RT":11,"MT":5907,"sideResp":2,"stimulus":"img/250/randomdotsizeEA/R/11_Ratio_250_L_3_R_12.png","xmouse":[775,775,775,775,775,775,775,775,775,775,775,775,775,775,775,775,775,775,775,775,775,775,775,775,775,775,775,775,775,775,775,775,775,775,775,775,775,775,775,775,775,775,775,775,775,775,775,775,775,775,775,776,778,781,783,783,783,784,784,784,785,786,787,789,790,791,795,797,798,799,800,802,804,804,805,805,805,805,805,805,805,805,805,805,805,805,805,805,805,805,805,805,805,805,805,805,805,802,801,801,801,801,801,801,798,796,793,793,793,793,793,793,793,793,793,793,793,793,793,793,793,793,793,793,793,793,793,793,793,793,793,793,793,793,793,793,793,793,793,793,793,793,793,793,793,793,793,793,793,793,793,793,793,793,793,793,793,793,793,793,789,784,784,783,783,783,783,783,783,783,783,783,783,783,783,783,783,783,783,783,783,783,783,783,783,783,783,783,783,783,783,783,783,783,783,783,783,783,783,783,783,783,783,783,783,783,783,783,783,783,783,783,783,783,783,783,783,783,783,783,783,783,783,783,783,783,783,783,783,783,783,783,783,783,783,783,783,783,783,783,783,783,783,783,783,783,783,783,783,783,783,783,783,783,783,783,783,783,783,783,783,783,783,783,783,783,783,783,783,783,783,783,789,793,801,816,852,884,921,947,966,979,993,1001,1005,1009,1012,1014,1019,1023,1027,1031,1037,1041,1046,1053,1059],"ymouse":[524,524,524,524,524,524,524,524,524,524,524,524,524,524,524,524,524,524,524,524,524,524,524,524,524,524,524,524,524,524,524,524,524,524,524,524,524,524,524,524,524,524,524,524,524,524,524,524,524,525,526,533,539,543,547,547,547,550,550,552,552,557,560,565,567,570,578,582,586,589,593,600,603,606,606,606,606,606,606,606,606,606,606,606,606,606,606,606,606,606,608,612,613,614,615,616,616,618,619,620,620,620,620,620,620,621,622,622,622,622,622,622,622,622,622,622,622,622,622,622,622,622,622,622,622,622,622,622,622,622,622,622,622,622,622,622,622,622,622,622,622,622,622,622,622,622,622,622,622,622,622,622,622,622,622,622,622,622,622,622,622,623,623,623,623,623,623,623,623,623,623,623,623,623,623,623,623,623,623,623,623,623,623,623,623,623,623,623,623,623,623,623,623,623,623,623,623,623,623,623,623,623,623,623,623,623,623,623,623,623,623,623,623,623,623,623,623,623,623,623,623,623,623,623,623,623,623,623,623,623,623,623,623,623,623,623,623,623,623,623,623,623,623,623,623,623,623,623,623,623,623,623,623,623,623,623,623,623,623,623,618,614,605,599,595,591,579,573,567,560,552,543,520,501,478,437,369,323,280,244,216,188,150,134,124,112,99,93,81,71,62,55,46,42,39,36,35],"timestamp_mouse":[11,19,37,58,78,98,118,138,158,178,198,218,237,258,278,297,318,337,358,378,397,418,437,457,479,497,518,537,558,577,598,618,638,657,678,697,718,737,757,778,797,818,838,859,879,898,918,937,957,978,999,1017,1037,1059,1078,1097,1117,1137,1157,1178,1199,1217,1237,1257,1277,1298,1317,1337,1359,1378,1398,1417,1437,1459,1478,1497,1517,1537,1557,1577,1598,1617,1639,1658,1677,1699,1717,1738,1758,1778,1797,1818,1837,1857,1878,1897,1918,1937,1958,1978,1998,2017,2038,2057,2079,2097,2117,2139,2159,2177,2197,2218,2238,2257,2277,2297,2317,2339,2357,2378,2399,2418,2437,2458,2477,2497,2518,2538,2558,2578,2599,2618,2638,2657,2678,2699,2717,2738,2759,2779,2798,2817,2837,2858,2878,2898,2918,2938,2959,2978,2997,3017,3037,3057,3078,3099,3117,3139,3157,3178,3197,3218,3238,3257,3277,3298,3318,3339,3358,3378,3397,3417,3437,3459,3478,3497,3517,3539,3559,3578,3598,3618,3638,3659,3678,3697,3718,3738,3758,3778,3798,3818,3838,3859,3878,3897,3918,3939,3958,3977,3997,4018,4037,4057,4077,4098,4118,4139,4157,4177,4199,4218,4238,4259,4277,4298,4319,4339,4357,4378,4397,4417,4438,4459,4478,4497,4518,4539,4557,4577,4597,4617,4639,4657,4679,4698,4718,4739,4757,4778,4797,4817,4838,4859,4879,4897,4919,4938,4957,4979,4997,5017,5037,5059,5078,5097,5117,5137,5158,5177,5197,5217,5237,5258,5279,5298,5318,5338,5357,5377,5397,5419,5438,5458,5478,5498,5519,5537,5559,5579,5599,5618,5637,5657,5677,5698,5718,5738,5757,5777,5798,5818,5838,5857,5878,5898,5918],"xSR":741.5,"ySR":501.8,"xT1":424.9,"yT1":0,"xT2":1058.1,"yT2":0,"toosoon":0,"cond_shown":"randomdotsizeEA","ratio_trial":250,"smaller_num":"3","larger_num":"12","correct_side":2,"subjID":"AngelJeronimoFonseca21","gender":"0","age":"9","school":"4","test":{"fix_dur":[250,1500],"timestim":300,"targets_dim":[100,100],"targets_relative_coord":[0.3,0.7],"size_stim":[880,420],"start_dim":[100,100],"size_start":[300,300],"size_fix":60,"samplingrate":20,"img_types":["equaldotsize","equaldotanddens","randomdotsizeEA"],"ratios":[250,500,750,900],"rep_conds":9,"nTrials":120,"trials_to_rest":500,"Trials_order":[38,3,22,65,52,32,18,53,109,56,20,29,89,93,21,88,114,31,84,24,112,74,33,71,39,104,41,69,92,83,28,115,26,77,49,42,55,54,82,113,101,87,94,50,96,72,110,59,8,45,37,60,61,0,119,80,16,68,4,81,40,108,12,58,102,44,116,73,47,19,67,78,11,15,86,30,111,5,7,76,36,66,103,13,35,46,117,70,106,2,34,27,48,99,43,95,9,75,97,91,6,107,25,63,51,10,118,14,79,1,85,100,17,57,23,90,64,62,98,105],"cond_shown":["randomdotsizeEA","equaldotsize","equaldotanddens","randomdotsizeEA","equaldotanddens","randomdotsizeEA","equaldotsize","randomdotsizeEA","equaldotanddens","randomdotsizeEA","randomdotsizeEA","randomdotsizeEA","randomdotsizeEA","equaldotsize","equaldotsize","equaldotanddens","equaldotsize","equaldotanddens","equaldotsize","equaldotsize","equaldotanddens","randomdotsizeEA","equaldotsize","randomdotsizeEA","equaldotsize","randomdotsizeEA","randomdotsizeEA","equaldotsize","randomdotsizeEA","randomdotsizeEA","equaldotanddens","equaldotanddens","randomdotsizeEA","randomdotsizeEA","equaldotanddens","equaldotsize","equaldotanddens","equaldotsize","equaldotanddens","randomdotsizeEA","randomdotsizeEA","equaldotsize","equaldotanddens","randomdotsizeEA","equaldotsize","equaldotsize","randomdotsizeEA","randomdotsizeEA","randomdotsizeEA","equaldotsize","equaldotanddens","equaldotsize","equaldotanddens","equaldotsize","randomdotsizeEA","randomdotsizeEA","equaldotanddens","randomdotsizeEA","equaldotanddens","equaldotsize","equaldotanddens","equaldotsize","equaldotsize","equaldotanddens","equaldotsize","randomdotsizeEA","randomdotsizeEA","equaldotanddens","randomdotsizeEA","equaldotanddens","equaldotanddens","equaldotsize","randomdotsizeEA","equaldotsize","randomdotsizeEA","equaldotsize","equaldotsize","randomdotsizeEA","equaldotanddens","equaldotanddens","equaldotsize","equaldotsize","equaldotanddens","equaldotanddens","randomdotsizeEA","equaldotanddens","equaldotsize","equaldotanddens","equaldotanddens","randomdotsizeEA","equaldotanddens","equaldotsize","equaldotsize","equaldotsize","equaldotanddens","randomdotsizeEA","equaldotsize","equaldotsize","equaldotanddens","equaldotanddens","equaldotsize","randomdotsizeEA","equaldotanddens","equaldotsize","equaldotsize","equaldotanddens","equaldotanddens","randomdotsizeEA","equaldotanddens","equaldotanddens","equaldotanddens","equaldotanddens","randomdotsizeEA","equaldotsize","randomdotsizeEA","equaldotsize","equaldotanddens","randomdotsizeEA","randomdotsizeEA","equaldotsize"],"ratio_trial":[250,500,900,500,500,750,750,500,250,750,750,500,500,900,900,500,750,750,250,250,500,250,900,900,500,750,500,900,750,900,500,750,250,500,250,750,750,750,900,500,500,500,900,250,250,250,250,900,750,900,250,250,250,250,900,750,500,750,500,900,500,250,250,900,750,750,750,250,900,750,750,750,900,500,250,750,500,500,750,500,250,750,750,250,900,900,900,900,900,250,900,500,250,500,750,900,900,500,250,750,750,900,250,500,500,900,900,250,750,250,250,500,500,900,900,750,500,250,250,900],"smaller_num":["3","2","9","2","2","3","6","2","6","9","6","9","10","9","18","2","12","3","3","2","2","2","18","18","2","15","4","18","18","9","6","6","2","2","6","3","3","6","9","5","4","6","18","3","1","4","2","9","6","18","3","6","4","2","9","3","9","6","4","18","2","4","5","9","12","15","15","3","9","6","15","3","9","1","5","3","2","10","3","9","2","9","15","3","18","18","18","9","9","1","18","2","6","3","18","9","18","5","2","3","3","18","3","10","3","9","18","3","15","1","4","1","9","18","9","15","2","5","6","18"],"larger_num":["12","4","10","4","4","4","8","4","24","12","8","18","20","10","20","4","16","4","12","8","4","8","20","20","4","20","8","20","24","10","12","8","8","4","24","4","4","8","10","10","8","12","20","12","4","16","8","10","8","20","12","24","16","8","10","4","18","8","8","20","4","16","20","10","16","20","20","12","10","8","20","4","10","2","20","4","4","20","4","18","8","12","20","12","20","20","20","10","10","4","20","4","24","6","24","10","20","10","8","4","4","20","12","20","6","10","20","12","20","4","16","2","18","20","10","20","4","20","24","20"],"correct_side":[2,1,2,2,1,1,2,1,1,2,1,1,2,1,1,1,2,1,1,1,2,2,1,1,1,2,1,1,1,2,1,1,1,1,1,1,1,2,2,2,1,1,1,1,2,2,1,2,1,1,2,2,2,1,2,2,2,1,1,2,1,2,2,2,2,2,2,1,2,1,2,1,2,2,2,1,1,2,1,2,1,2,2,1,1,1,2,2,2,2,1,2,1,2,1,2,2,1,2,2,1,2,2,2,2,2,1,2,2,2,1,2,1,1,2,2,1,2,1,1],"img_shown":["img/250/randomdotsizeEA/R/11_Ratio_250_L_3_R_12.png","img/500/equaldotsize/L/10_Ratio_500_L_4_R_2.png","img/900/equaldotanddens/R/3_Ratio_900_L_9_R_10.png","img/500/randomdotsizeEA/R/9_Ratio_500_L_2_R_4.png","img/500/equaldotanddens/L/5_Ratio_500_L_4_R_2.png","img/750/randomdotsizeEA/L/8_Ratio_750_L_4_R_3.png","img/750/equaldotsize/R/2_Ratio_750_L_6_R_8.png","img/500/randomdotsizeEA/L/5_Ratio_500_L_4_R_2.png","img/250/equaldotanddens/L/5_Ratio_250_L_24_R_6.png","img/750/randomdotsizeEA/R/15_Ratio_750_L_9_R_12.png","img/750/randomdotsizeEA/L/14_Ratio_750_L_8_R_6.png","img/500/randomdotsizeEA/L/4_Ratio_500_L_18_R_9.png","img/500/randomdotsizeEA/R/3_Ratio_500_L_10_R_20.png","img/900/equaldotsize/L/1_Ratio_900_L_10_R_9.png","img/900/equaldotsize/L/10_Ratio_900_L_20_R_18.png","img/500/equaldotanddens/L/5_Ratio_500_L_4_R_2.png","img/750/equaldotsize/R/11_Ratio_750_L_12_R_16.png","img/750/equaldotanddens/L/8_Ratio_750_L_4_R_3.png","img/250/equaldotsize/L/15_Ratio_250_L_12_R_3.png","img/250/equaldotsize/L/7_Ratio_250_L_8_R_2.png","img/500/equaldotanddens/R/9_Ratio_500_L_2_R_4.png","img/250/randomdotsizeEA/R/13_Ratio_250_L_2_R_8.png","img/900/equaldotsize/L/2_Ratio_900_L_20_R_18.png","img/900/randomdotsizeEA/L/2_Ratio_900_L_20_R_18.png","img/500/equaldotsize/L/5_Ratio_500_L_4_R_2.png","img/750/randomdotsizeEA/R/5_Ratio_750_L_15_R_20.png","img/500/randomdotsizeEA/L/8_Ratio_500_L_8_R_4.png","img/900/equaldotsize/L/8_Ratio_900_L_20_R_18.png","img/750/randomdotsizeEA/L/6_Ratio_750_L_24_R_18.png","img/900/randomdotsizeEA/R/6_Ratio_900_L_9_R_10.png","img/500/equaldotanddens/L/11_Ratio_500_L_12_R_6.png","img/750/equaldotanddens/L/14_Ratio_750_L_8_R_6.png","img/250/randomdotsizeEA/L/7_Ratio_250_L_8_R_2.png","img/500/randomdotsizeEA/L/10_Ratio_500_L_4_R_2.png","img/250/equaldotanddens/L/5_Ratio_250_L_24_R_6.png","img/750/equaldotsize/L/8_Ratio_750_L_4_R_3.png","img/750/equaldotanddens/L/9_Ratio_750_L_4_R_3.png","img/750/equaldotsize/R/2_Ratio_750_L_6_R_8.png","img/900/equaldotanddens/R/7_Ratio_900_L_9_R_10.png","img/500/randomdotsizeEA/R/14_Ratio_500_L_5_R_10.png","img/500/randomdotsizeEA/L/8_Ratio_500_L_8_R_4.png","img/500/equaldotsize/L/11_Ratio_500_L_12_R_6.png","img/900/equaldotanddens/L/10_Ratio_900_L_20_R_18.png","img/250/randomdotsizeEA/L/15_Ratio_250_L_12_R_3.png","img/250/equaldotsize/R/8_Ratio_250_L_1_R_4.png","img/250/equaldotsize/R/10_Ratio_250_L_4_R_16.png","img/250/randomdotsizeEA/L/7_Ratio_250_L_8_R_2.png","img/900/randomdotsizeEA/R/6_Ratio_900_L_9_R_10.png","img/750/randomdotsizeEA/L/14_Ratio_750_L_8_R_6.png","img/900/equaldotsize/L/2_Ratio_900_L_20_R_18.png","img/250/equaldotanddens/R/9_Ratio_250_L_3_R_12.png","img/250/equaldotsize/R/6_Ratio_250_L_6_R_24.png","img/250/equaldotanddens/R/10_Ratio_250_L_4_R_16.png","img/250/equaldotsize/L/3_Ratio_250_L_8_R_2.png","img/900/randomdotsizeEA/R/5_Ratio_900_L_9_R_10.png","img/750/randomdotsizeEA/R/12_Ratio_750_L_3_R_4.png","img/500/equaldotanddens/R/1_Ratio_500_L_9_R_18.png","img/750/randomdotsizeEA/L/13_Ratio_750_L_8_R_6.png","img/500/equaldotanddens/L/8_Ratio_500_L_8_R_4.png","img/900/equaldotsize/R/12_Ratio_900_L_18_R_20.png","img/500/equaldotanddens/L/10_Ratio_500_L_4_R_2.png","img/250/equaldotsize/R/10_Ratio_250_L_4_R_16.png","img/250/equaldotsize/R/12_Ratio_250_L_5_R_20.png","img/900/equaldotanddens/R/5_Ratio_900_L_9_R_10.png","img/750/equaldotsize/R/11_Ratio_750_L_12_R_16.png","img/750/randomdotsizeEA/R/5_Ratio_750_L_15_R_20.png","img/750/randomdotsizeEA/R/4_Ratio_750_L_15_R_20.png","img/250/equaldotanddens/L/15_Ratio_250_L_12_R_3.png","img/900/randomdotsizeEA/R/15_Ratio_900_L_9_R_10.png","img/750/equaldotanddens/L/14_Ratio_750_L_8_R_6.png","img/750/equaldotanddens/R/4_Ratio_750_L_15_R_20.png","img/750/equaldotsize/L/10_Ratio_750_L_4_R_3.png","img/900/randomdotsizeEA/R/6_Ratio_900_L_9_R_10.png","img/500/equaldotsize/R/12_Ratio_500_L_1_R_2.png","img/250/randomdotsizeEA/R/12_Ratio_250_L_5_R_20.png","img/750/equaldotsize/L/9_Ratio_750_L_4_R_3.png","img/500/equaldotsize/L/5_Ratio_500_L_4_R_2.png","img/500/randomdotsizeEA/R/3_Ratio_500_L_10_R_20.png","img/750/equaldotanddens/L/10_Ratio_750_L_4_R_3.png","img/500/equaldotanddens/R/6_Ratio_500_L_9_R_18.png","img/250/equaldotsize/L/7_Ratio_250_L_8_R_2.png","img/750/equaldotsize/R/15_Ratio_750_L_9_R_12.png","img/750/equaldotanddens/R/3_Ratio_750_L_15_R_20.png","img/250/equaldotanddens/L/14_Ratio_250_L_12_R_3.png","img/900/randomdotsizeEA/L/8_Ratio_900_L_20_R_18.png","img/900/equaldotanddens/L/4_Ratio_900_L_20_R_18.png","img/900/equaldotsize/R/9_Ratio_900_L_18_R_20.png","img/900/equaldotanddens/R/15_Ratio_900_L_9_R_10.png","img/900/equaldotanddens/R/3_Ratio_900_L_9_R_10.png","img/250/randomdotsizeEA/R/8_Ratio_250_L_1_R_4.png","img/900/equaldotanddens/L/8_Ratio_900_L_20_R_18.png","img/500/equaldotsize/R/9_Ratio_500_L_2_R_4.png","img/250/equaldotsize/L/5_Ratio_250_L_24_R_6.png","img/500/equaldotsize/R/2_Ratio_500_L_3_R_6.png","img/750/equaldotanddens/L/6_Ratio_750_L_24_R_18.png","img/900/randomdotsizeEA/R/6_Ratio_900_L_9_R_10.png","img/900/equaldotsize/R/11_Ratio_900_L_18_R_20.png","img/500/equaldotsize/L/7_Ratio_500_L_10_R_5.png","img/250/equaldotanddens/R/13_Ratio_250_L_2_R_8.png","img/750/equaldotanddens/R/12_Ratio_750_L_3_R_4.png","img/750/equaldotsize/L/8_Ratio_750_L_4_R_3.png","img/900/randomdotsizeEA/R/13_Ratio_900_L_18_R_20.png","img/250/equaldotanddens/R/4_Ratio_250_L_3_R_12.png","img/500/equaldotsize/R/3_Ratio_500_L_10_R_20.png","img/500/equaldotsize/R/2_Ratio_500_L_3_R_6.png","img/900/equaldotanddens/R/7_Ratio_900_L_9_R_10.png","img/900/equaldotanddens/L/10_Ratio_900_L_20_R_18.png","img/250/randomdotsizeEA/R/4_Ratio_250_L_3_R_12.png","img/750/equaldotanddens/R/3_Ratio_750_L_15_R_20.png","img/250/equaldotanddens/R/8_Ratio_250_L_1_R_4.png","img/250/equaldotanddens/L/2_Ratio_250_L_16_R_4.png","img/500/equaldotanddens/R/15_Ratio_500_L_1_R_2.png","img/500/randomdotsizeEA/L/4_Ratio_500_L_18_R_9.png","img/900/equaldotsize/L/4_Ratio_900_L_20_R_18.png","img/900/randomdotsizeEA/R/6_Ratio_900_L_9_R_10.png","img/750/equaldotsize/R/5_Ratio_750_L_15_R_20.png","img/500/equaldotanddens/L/5_Ratio_500_L_4_R_2.png","img/250/randomdotsizeEA/R/12_Ratio_250_L_5_R_20.png","img/250/randomdotsizeEA/L/5_Ratio_250_L_24_R_6.png","img/900/equaldotsize/L/10_Ratio_900_L_20_R_18.png"],"Rat0":[["12_Ratio_0_L_9_R_0.png","13_Ratio_0_L_6_R_0.png","5_Ratio_0_L_2_R_0.png","6_Ratio_0_L_4_R_0.png","8_Ratio_0_L_6_R_0.png"],["1_Ratio_0_L_0_R_17.png","10_Ratio_0_L_0_R_22.png","11_Ratio_0_L_0_R_1.png","14_Ratio_0_L_0_R_24.png","15_Ratio_0_L_0_R_4.png","2_Ratio_0_L_0_R_5.png","3_Ratio_0_L_0_R_17.png","4_Ratio_0_L_0_R_7.png","7_Ratio_0_L_0_R_19.png","9_Ratio_0_L_0_R_15.png"]],"Rat250":[["1_Ratio_250_L_8_R_2.png","14_Ratio_250_L_12_R_3.png","15_Ratio_250_L_12_R_3.png","2_Ratio_250_L_16_R_4.png","3_Ratio_250_L_8_R_2.png","5_Ratio_250_L_24_R_6.png","7_Ratio_250_L_8_R_2.png"],["10_Ratio_250_L_4_R_16.png","11_Ratio_250_L_3_R_12.png","12_Ratio_250_L_5_R_20.png","13_Ratio_250_L_2_R_8.png","4_Ratio_250_L_3_R_12.png","6_Ratio_250_L_6_R_24.png","8_Ratio_250_L_1_R_4.png","9_Ratio_250_L_3_R_12.png"]],"Rat500":[["10_Ratio_500_L_4_R_2.png","11_Ratio_500_L_12_R_6.png","13_Ratio_500_L_12_R_6.png","4_Ratio_500_L_18_R_9.png","5_Ratio_500_L_4_R_2.png","7_Ratio_500_L_10_R_5.png","8_Ratio_500_L_8_R_4.png"],["1_Ratio_500_L_9_R_18.png","12_Ratio_500_L_1_R_2.png","14_Ratio_500_L_5_R_10.png","15_Ratio_500_L_1_R_2.png","2_Ratio_500_L_3_R_6.png","3_Ratio_500_L_10_R_20.png","6_Ratio_500_L_9_R_18.png","9_Ratio_500_L_2_R_4.png"]],"Rat750":[["1_Ratio_750_L_20_R_15.png","10_Ratio_750_L_4_R_3.png","13_Ratio_750_L_8_R_6.png","14_Ratio_750_L_8_R_6.png","6_Ratio_750_L_24_R_18.png","8_Ratio_750_L_4_R_3.png","9_Ratio_750_L_4_R_3.png"],["11_Ratio_750_L_12_R_16.png","12_Ratio_750_L_3_R_4.png","15_Ratio_750_L_9_R_12.png","2_Ratio_750_L_6_R_8.png","3_Ratio_750_L_15_R_20.png","4_Ratio_750_L_15_R_20.png","5_Ratio_750_L_15_R_20.png","7_Ratio_750_L_3_R_4.png"]],"Rat900":[["1_Ratio_900_L_10_R_9.png","10_Ratio_900_L_20_R_18.png","2_Ratio_900_L_20_R_18.png","4_Ratio_900_L_20_R_18.png","8_Ratio_900_L_20_R_18.png"],["11_Ratio_900_L_18_R_20.png","12_Ratio_900_L_18_R_20.png","13_Ratio_900_L_18_R_20.png","14_Ratio_900_L_18_R_20.png","15_Ratio_900_L_9_R_10.png","3_Ratio_900_L_9_R_10.png","5_Ratio_900_L_9_R_10.png","6_Ratio_900_L_9_R_10.png","7_Ratio_900_L_9_R_10.png","9_Ratio_900_L_18_R_20.png"]],"Rat1000":[["10_Ratio_1000_L_16_R_16.png","11_Ratio_1000_L_6_R_6.png","12_Ratio_1000_L_14_R_14.png","13_Ratio_1000_L_20_R_20.png","15_Ratio_1000_L_15_R_15.png","2_Ratio_1000_L_17_R_17.png","4_Ratio_1000_L_9_R_9.png","5_Ratio_1000_L_6_R_6.png","6_Ratio_1000_L_19_R_19.png","8_Ratio_1000_L_14_R_14.png","9_Ratio_1000_L_25_R_25.png"],["1_Ratio_1000_L_1_R_1.png","14_Ratio_1000_L_17_R_17.png","3_Ratio_1000_L_17_R_17.png","7_Ratio_1000_L_6_R_6.png"]]}},{"start_time":1552070119757,"click_time":1552070121422,"finger_time":1552070120762,"fix_duration":690.3454690268003,"trial":1,"RT":1005,"MT":660,"sideResp":1,"stimulus":"img/500/equaldotsize/L/10_Ratio_500_L_4_R_2.png","xmouse":[789,789,789,789,789,789,789,789,789,789,789,789,789,789,789,789,789,789,789,789,789,789,789,789,789,789,789,789,789,789,789,789,789,789,789,789,789,789,789,789,789,789,789,789,789,789,788,782,765,747,697,673,649,633,619,606,599,588,578,569,558,545,541,537,529,511,499,489,480,476,466,464,460,456,452,448,447,445,445,445,445,445,445,446],"ymouse":[621,621,621,621,621,621,621,621,621,621,621,621,621,621,621,621,621,621,621,621,621,621,621,621,621,621,621,621,621,621,621,621,621,621,621,621,621,621,621,621,621,621,621,621,621,621,617,610,597,588,560,542,522,510,499,476,461,445,431,417,395,364,347,332,314,275,254,237,221,211,194,189,181,175,166,152,143,133,125,117,110,104,100,94],"timestamp_mouse":[10,26,56,67,86,105,126,147,167,186,206,225,247,265,285,307,325,345,365,385,406,425,445,466,486,505,525,546,566,587,605,625,646,666,686,705,725,747,765,786,805,826,845,865,885,905,925,945,967,986,1005,1026,1045,1066,1086,1105,1125,1146,1166,1186,1205,1226,1245,1266,1287,1305,1327,1345,1365,1386,1405,1426,1445,1465,1485,1505,1525,1547,1565,1585,1605,1626,1645,1665],"xSR":741.5,"ySR":573.95,"xT1":424.9,"yT1":0,"xT2":1058.1,"yT2":0,"toosoon":0,"cond_shown":"equaldotsize","ratio_trial":500,"smaller_num":"2","larger_num":"4","correct_side":1,"subjID":"AngelJeronimoFonseca21","gender":"0","age":"9","school":"4"},{"start_time":1552070123208,"click_time":1552070124742,"finger_time":1552070124042,"fix_duration":844.2223153903896,"trial":2,"RT":834,"MT":700,"sideResp":2,"stimulus":"img/900/equaldotanddens/R/3_Ratio_900_L_9_R_10.png","xmouse":[805,805,805,805,805,805,805,805,805,805,805,805,805,805,805,805,805,805,805,805,805,805,805,805,805,805,805,805,805,805,805,805,805,805,805,805,805,804,806,813,825,837,853,868,877,877,877,873,869,869,869,869,873,880,885,889,893,906,915,924,934,944,958,963,966,970,977,984,990,997,1003,1009,1021,1033,1048,1068,1093],"ymouse":[633,633,633,633,633,633,633,633,633,633,633,633,633,633,633,633,633,633,633,633,633,633,633,633,633,633,633,633,633,633,633,633,633,633,633,633,633,631,619,601,574,535,488,405,363,330,298,261,223,210,197,189,181,173,170,168,166,161,157,154,151,148,142,140,137,134,130,127,127,126,125,123,118,113,107,100,89],"timestamp_mouse":[14,37,54,75,94,114,135,155,174,194,214,234,254,274,294,314,334,355,375,394,415,435,455,476,494,515,534,555,575,595,615,635,655,674,694,715,734,754,775,795,815,834,855,874,894,914,935,954,975,994,1014,1034,1055,1074,1094,1114,1134,1155,1174,1194,1215,1234,1255,1274,1295,1315,1335,1355,1374,1395,1414,1436,1455,1474,1495,1514,1534],"xSR":741.5,"ySR":573.95,"xT1":424.9,"yT1":0,"xT2":1058.1,"yT2":0,"toosoon":0,"cond_shown":"equaldotanddens","ratio_trial":900,"smaller_num":"9","larger_num":"10","correct_side":2,"subjID":"AngelJeronimoFonseca21","gender":"0","age":"9","school":"4"},{"start_time":1552070126554,"click_time":1552070128682,"finger_time":1552070127763,"fix_duration":511.0439119962772,"trial":3,"RT":1209,"MT":919,"sideResp":2,"stimulus":"img/500/randomdotsizeEA/R/9_Ratio_500_L_2_R_4.png","xmouse":[812,812,812,812,812,812,812,812,812,812,812,812,812,812,812,812,812,812,812,812,812,812,812,812,812,812,812,812,812,812,812,812,812,812,812,812,812,812,812,812,812,812,812,812,811,811,811,811,811,811,811,811,811,811,811,813,833,835,840,841,842,842,842,842,842,842,846,849,852,854,856,857,861,867,872,876,877,877,877,877,878,885,891,899,907,916,937,941,946,951,958,977,985,993,1000,1005,1014,1017,1028,1035,1037,1038,1038,1038,1039,1039,1065],"ymouse":[633,633,633,633,633,633,633,633,633,633,633,633,633,633,633,633,633,633,633,633,633,633,633,633,633,633,633,633,633,633,633,633,633,633,633,633,633,633,633,633,633,633,633,633,633,633,633,633,633,633,633,633,633,633,630,628,616,614,609,607,606,603,602,601,601,600,591,585,575,561,542,492,450,417,380,347,275,263,229,206,182,138,119,101,86,73,47,43,39,36,35,32,32,32,32,32,32,32,32,32,32,32,32,32,32,32,32],"timestamp_mouse":[10,39,48,68,90,108,128,148,169,188,208,228,248,268,288,308,329,349,369,388,409,429,449,469,488,509,528,549,569,589,609,628,649,669,688,708,729,750,770,789,809,830,850,869,889,908,929,949,969,988,1008,1029,1049,1070,1090,1109,1128,1148,1170,1189,1209,1228,1249,1268,1289,1308,1328,1349,1368,1389,1409,1428,1449,1469,1489,1509,1528,1548,1568,1589,1610,1628,1648,1668,1689,1708,1728,1749,1768,1788,1809,1828,1850,1869,1889,1909,1928,1948,1968,1990,2008,2028,2048,2068,2088,2109,2128],"xSR":741.5,"ySR":573.95,"xT1":424.9,"yT1":0,"xT2":1058.1,"yT2":0,"toosoon":0,"cond_shown":"randomdotsizeEA","ratio_trial":500,"smaller_num":"2","larger_num":"4","correct_side":2,"subjID":"AngelJeronimoFonseca21","gender":"0","age":"9","school":"4"},{"start_time":1552070130825,"click_time":1552070132304,"finger_time":1552070131742,"fix_duration":741.5479526470248,"trial":4,"RT":917,"MT":562,"sideResp":1,"stimulus":"img/500/equaldotanddens/L/5_Ratio_500_L_4_R_2.png","xmouse":[803,803,803,803,803,803,803,803,803,803,803,803,803,803,803,803,803,803,803,803,803,803,803,803,803,803,803,803,803,803,803,803,803,803,803,803,803,803,803,803,800,796,769,758,747,735,721,706,668,650,636,625,596,580,557,527,493,431,416,408,403,400,393,391,391,391,391,392,398,404,412,416,420,433],"ymouse":[646,646,646,646,646,646,646,646,646,646,646,646,646,646,646,646,646,646,646,646,646,646,646,646,646,646,646,646,646,646,646,646,646,646,646,646,646,646,646,646,641,635,609,600,588,576,559,542,510,494,480,466,424,399,368,329,285,192,164,140,122,106,80,75,72,70,69,67,64,62,60,59,59,57],"timestamp_mouse":[19,39,57,78,99,118,137,157,178,198,217,237,257,279,299,318,337,357,379,397,418,438,457,478,499,519,537,558,578,598,619,638,658,678,697,718,737,757,778,797,818,838,857,878,899,917,937,958,979,997,1017,1037,1057,1077,1097,1119,1137,1158,1177,1197,1217,1237,1257,1277,1297,1317,1337,1357,1377,1397,1417,1438,1457,1478],"xSR":741.5,"ySR":573.95,"xT1":424.9,"yT1":0,"xT2":1058.1,"yT2":0,"toosoon":0,"cond_shown":"equaldotanddens","ratio_trial":500,"smaller_num":"2","larger_num":"4","correct_side":1,"subjID":"AngelJeronimoFonseca21","gender":"0","age":"9","school":"4"},{"start_time":1552070135022,"click_time":1552070138223,"finger_time":1552070137402,"fix_duration":1258.2001083144671,"trial":5,"RT":2380,"MT":821,"sideResp":1,"stimulus":"img/750/randomdotsizeEA/L/8_Ratio_750_L_4_R_3.png","xmouse":[801,801,801,801,801,801,801,801,801,801,801,801,801,801,801,801,801,801,801,801,801,801,801,801,801,801,801,801,801,801,801,801,801,801,801,801,801,801,801,801,801,801,801,801,801,801,801,801,801,801,801,801,801,801,801,801,801,801,801,801,801,801,801,801,801,801,801,801,801,801,801,801,801,801,801,801,801,801,801,801,801,801,801,801,801,801,801,801,801,801,801,801,801,801,801,801,801,801,801,801,801,801,801,801,801,801,801,801,801,801,801,801,801,801,801,801,801,793,787,751,725,710,693,676,642,630,621,614,608,597,591,587,582,576,568,562,556,545,537,513,508,506,503,501,497,492,483,473,461,445,443,443,443,443,443,443,443,443,443,444,453],"ymouse":[603,603,603,603,603,603,603,603,603,603,603,603,603,603,603,603,603,603,603,603,603,603,603,603,603,603,603,603,603,603,603,603,603,603,603,603,603,603,603,603,603,603,603,603,603,603,603,603,603,603,603,603,603,603,603,603,603,603,603,603,603,603,603,603,603,603,603,603,603,603,603,603,603,603,603,603,603,603,603,603,603,603,603,603,603,603,603,603,603,603,603,603,603,603,603,603,603,603,603,603,603,603,603,603,603,603,603,603,603,603,603,603,603,603,603,603,603,596,592,569,553,542,529,516,490,479,469,459,450,435,426,420,414,407,393,385,374,362,352,334,330,328,325,320,306,292,273,249,224,187,169,157,146,134,115,109,106,103,103,100,98],"timestamp_mouse":[9,21,41,61,81,100,122,141,161,180,200,221,240,260,282,300,320,341,362,381,401,421,442,461,481,500,521,540,561,580,600,621,640,660,682,701,721,742,760,781,800,822,841,861,881,900,920,941,960,980,1000,1022,1041,1061,1080,1102,1120,1140,1161,1180,1201,1222,1240,1261,1281,1300,1321,1340,1361,1381,1400,1422,1440,1461,1481,1500,1521,1541,1560,1580,1601,1621,1640,1660,1680,1701,1720,1742,1761,1782,1800,1821,1841,1860,1881,1901,1921,1941,1961,1982,2001,2021,2040,2061,2080,2101,2120,2140,2161,2180,2201,2222,2241,2261,2281,2301,2321,2342,2361,2380,2401,2420,2440,2460,2480,2500,2520,2541,2562,2580,2601,2620,2640,2660,2680,2702,2721,2742,2760,2780,2801,2820,2841,2861,2880,2901,2922,2940,2961,2980,3000,3020,3040,3062,3081,3100,3120,3140,3161,3181,3201],"xSR":741.5,"ySR":573.95,"xT1":424.9,"yT1":0,"xT2":1058.1,"yT2":0,"toosoon":0,"cond_shown":"randomdotsizeEA","ratio_trial":750,"smaller_num":"3","larger_num":"4","correct_side":1,"subjID":"AngelJeronimoFonseca21","gender":"0","age":"9","school":"4"},{"start_time":1552070139575,"click_time":1552070142242,"finger_time":1552070141542,"fix_duration":250,"trial":6,"RT":1967,"MT":700,"sideResp":2,"stimulus":"img/750/equaldotsize/R/2_Ratio_750_L_6_R_8.png","xmouse":[807,807,807,807,807,807,807,807,807,807,807,807,807,807,807,807,807,807,807,807,807,807,807,807,807,807,807,807,807,807,807,807,807,807,807,807,807,807,807,807,807,807,807,807,807,807,807,807,807,807,807,807,807,807,807,807,807,807,807,807,807,807,807,807,807,807,807,807,807,807,807,807,807,807,807,807,807,807,807,807,807,807,807,807,807,807,807,807,807,807,807,807,807,807,807,807,813,823,832,840,849,862,869,875,883,890,907,915,923,928,931,937,942,947,952,962,984,993,1006,1019,1022,1034,1037,1040,1041,1041,1041,1041,1041,1041,1041,1044,1052,1061],"ymouse":[605,605,605,605,605,605,605,605,605,605,605,605,605,605,605,605,605,605,605,605,605,605,605,605,605,605,605,605,605,605,605,605,605,605,605,605,605,605,605,605,605,605,605,605,605,605,605,605,605,605,605,605,605,605,605,605,605,605,605,605,605,605,605,605,605,605,605,605,605,605,605,605,605,605,605,605,605,605,605,605,605,605,605,605,605,605,605,605,605,605,605,605,605,605,605,605,596,577,555,532,502,456,432,411,386,359,303,276,249,224,203,163,150,141,136,127,111,104,96,89,87,82,81,80,80,80,80,80,80,80,80,79,78,76],"timestamp_mouse":[10,27,47,67,89,108,127,148,167,187,207,227,248,268,288,308,328,348,368,388,407,427,448,467,487,508,528,548,567,587,607,627,648,668,688,707,727,747,767,787,809,828,848,869,889,908,928,947,968,987,1009,1028,1048,1068,1087,1108,1127,1147,1167,1189,1208,1227,1247,1267,1289,1308,1327,1347,1367,1388,1407,1428,1447,1467,1488,1509,1528,1548,1567,1588,1607,1628,1649,1668,1688,1708,1727,1747,1767,1789,1807,1828,1848,1867,1888,1909,1928,1947,1967,1989,2009,2028,2048,2068,2087,2109,2128,2147,2168,2187,2207,2228,2247,2267,2288,2308,2328,2347,2367,2387,2407,2428,2447,2467,2488,2507,2527,2548,2568,2588,2608,2627,2647,2667],"xSR":741.5,"ySR":573.95,"xT1":424.9,"yT1":0,"xT2":1058.1,"yT2":0,"toosoon":0,"cond_shown":"equaldotsize","ratio_trial":750,"smaller_num":"6","larger_num":"8","correct_side":2,"subjID":"AngelJeronimoFonseca21","gender":"0","age":"9","school":"4"},{"start_time":1552070145064,"click_time":1552070146245,"finger_time":1552070145883,"fix_duration":1338.7198677490694,"trial":7,"RT":819,"MT":362,"sideResp":1,"stimulus":"img/500/randomdotsizeEA/L/5_Ratio_500_L_4_R_2.png","xmouse":[813,813,813,813,813,813,813,813,813,813,813,813,813,813,813,813,813,813,813,813,813,813,813,813,813,813,813,813,813,813,813,813,813,813,813,813,813,813,813,804,781,741,701,613,567,506,459,426,381,370,364,362,362,363,366,371,382,395,410,426],"ymouse":[611,611,611,611,611,611,611,611,611,611,611,611,611,611,611,611,611,611,611,611,611,611,611,611,611,611,611,611,611,611,611,611,611,611,611,611,611,611,611,606,589,563,531,448,399,328,284,240,165,139,119,105,90,74,67,62,53,46,38,28],"timestamp_mouse":[6,27,41,59,79,100,120,139,158,178,200,219,239,260,280,300,319,339,359,379,399,420,439,460,480,499,520,539,560,580,600,619,639,660,680,700,720,740,759,779,799,819,840,859,879,899,919,939,959,979,999,1019,1039,1058,1080,1099,1119,1139,1159,1180],"xSR":741.5,"ySR":573.95,"xT1":424.9,"yT1":0,"xT2":1058.1,"yT2":0,"toosoon":0,"cond_shown":"randomdotsizeEA","ratio_trial":500,"smaller_num":"2","larger_num":"4","correct_side":1,"subjID":"AngelJeronimoFonseca21","gender":"0","age":"9","school":"4"},{"start_time":1552070147775,"click_time":1552070148985,"finger_time":1552070148523,"fix_duration":250.14314581987128,"trial":8,"RT":748,"MT":462,"sideResp":1,"stimulus":"img/250/equaldotanddens/L/5_Ratio_250_L_24_R_6.png","xmouse":[803,803,803,803,803,803,803,803,803,803,803,803,803,803,803,803,803,803,803,803,803,803,803,803,803,803,803,803,803,803,803,803,803,803,797,793,767,718,686,665,644,625,592,580,568,552,541,521,517,515,513,510,504,503,500,494,489,481,478,474,467],"ymouse":[620,620,620,620,620,620,620,620,620,620,620,620,620,620,620,620,620,620,620,620,620,620,620,620,620,620,620,620,620,620,620,620,620,620,618,616,594,556,530,510,490,468,426,405,384,358,340,303,294,286,278,265,240,223,206,188,170,135,117,102,85],"timestamp_mouse":[10,38,48,69,89,109,128,148,168,189,209,228,248,269,289,308,329,348,368,388,409,429,448,468,489,509,528,548,568,589,609,628,648,669,688,708,729,748,768,788,810,828,848,868,888,908,928,948,968,988,1009,1029,1048,1068,1088,1108,1130,1148,1168,1189,1209],"xSR":741.5,"ySR":573.95,"xT1":424.9,"yT1":0,"xT2":1058.1,"yT2":0,"toosoon":0,"cond_shown":"equaldotanddens","ratio_trial":250,"smaller_num":"6","larger_num":"24","correct_side":1,"subjID":"AngelJeronimoFonseca21","gender":"0","age":"9","school":"4"},{"start_time":1552070150733,"click_time":1552070152803,"finger_time":1552070152084,"fix_duration":687.2019289330482,"trial":9,"RT":1351,"MT":719,"sideResp":2,"stimulus":"img/750/randomdotsizeEA/R/15_Ratio_750_L_9_R_12.png","xmouse":[772,772,772,772,772,772,772,772,772,772,772,772,772,772,772,772,772,772,772,772,772,772,772,772,772,772,772,772,772,772,772,772,772,772,772,772,772,772,772,772,772,772,772,772,772,772,772,772,772,772,772,772,772,772,772,772,772,772,772,772,772,772,772,772,772,776,781,795,804,819,824,829,834,838,855,868,897,911,958,986,1019,1035,1042,1047,1049,1053,1055,1057,1057,1057,1057,1057,1057,1058,1058,1063,1069,1070,1072,1075,1077,1078,1079,1080],"ymouse":[589,589,589,589,589,589,589,589,589,589,589,589,589,589,589,589,589,589,589,589,589,589,589,589,589,589,589,589,589,589,589,589,589,589,589,589,589,589,589,589,589,589,589,589,589,589,589,589,589,589,589,589,589,589,589,589,589,589,589,589,589,589,589,589,589,587,582,560,538,503,490,476,460,446,401,365,296,263,156,82,0,0,0,0,0,0,0,0,0,0,0,0,0,0,0,0,0,0,0,0,0,0,0,1],"timestamp_mouse":[13,41,50,71,90,111,131,151,170,191,211,230,250,270,290,310,331,350,371,391,410,431,451,470,490,510,531,550,570,591,611,631,650,670,690,710,731,751,770,791,810,830,851,870,891,910,931,950,970,991,1010,1031,1051,1070,1091,1111,1130,1150,1171,1191,1210,1230,1251,1270,1290,1310,1330,1351,1372,1391,1409,1431,1451,1471,1491,1510,1531,1550,1571,1590,1610,1630,1651,1670,1693,1710,1730,1749,1771,1792,1811,1830,1851,1871,1890,1910,1930,1950,1971,1990,2010,2031,2050,2069],"xSR":741.5,"ySR":573.95,"xT1":424.9,"yT1":0,"xT2":1058.1,"yT2":0,"toosoon":0,"cond_shown":"randomdotsizeEA","ratio_trial":750,"smaller_num":"9","larger_num":"12","correct_side":2,"subjID":"AngelJeronimoFonseca21","gender":"0","age":"9","school":"4"},{"start_time":1552070155502,"click_time":1552070158124,"finger_time":1552070156704,"fix_duration":1476.5561772706772,"trial":10,"RT":1202,"MT":1420,"sideResp":1,"stimulus":"img/750/randomdotsizeEA/L/14_Ratio_750_L_8_R_6.png","xmouse":[800,800,800,800,800,800,800,800,800,800,800,800,800,800,800,800,800,800,800,800,800,800,800,800,800,800,800,800,800,800,800,800,800,800,800,800,800,800,800,800,800,800,800,800,800,800,800,800,800,800,800,800,803,803,804,804,805,806,807,807,808,808,808,808,809,809,809,809,810,810,810,811,813,813,814,817,820,829,832,834,837,840,844,846,849,851,854,860,862,863,865,865,865,866,866,866,866,865,863,860,856,851,802,748,698,654,603,535,360,313,278,258,250,251,257,267,276,296,300,303,305,307,315,322,330,335,339,357,363,376,402,441],"ymouse":[618,618,618,618,618,618,618,618,618,618,618,618,618,618,618,618,618,618,618,618,618,618,618,618,618,618,618,618,618,618,618,618,618,618,618,618,618,618,618,618,618,618,618,618,618,618,618,618,618,618,613,611,604,602,599,595,592,584,578,574,570,567,558,554,550,546,542,531,527,524,519,515,504,496,490,481,471,441,430,421,411,402,388,382,373,366,358,338,329,323,317,314,310,305,301,297,292,288,277,272,266,261,243,228,212,199,187,179,153,146,136,130,127,124,120,115,109,97,93,90,89,88,85,82,78,77,75,73,72,70,66,60],"timestamp_mouse":[11,22,41,61,81,101,121,141,162,182,201,222,241,261,281,301,322,342,362,381,401,422,441,462,482,502,521,541,562,582,602,621,641,662,681,701,722,741,761,781,802,822,841,862,882,902,922,941,961,981,1002,1022,1041,1061,1081,1101,1123,1141,1162,1181,1202,1222,1240,1261,1282,1302,1322,1341,1362,1382,1401,1422,1441,1461,1481,1501,1521,1540,1561,1582,1601,1622,1641,1662,1681,1702,1721,1741,1761,1781,1802,1821,1841,1862,1881,1901,1922,1941,1961,1981,2001,2021,2042,2061,2081,2101,2121,2141,2161,2181,2202,2221,2242,2261,2281,2301,2321,2341,2363,2381,2403,2422,2442,2462,2481,2501,2522,2541,2561,2582,2601,2621],"xSR":741.5,"ySR":573.95,"xT1":424.9,"yT1":0,"xT2":1058.1,"yT2":0,"toosoon":0,"cond_shown":"randomdotsizeEA","ratio_trial":750,"smaller_num":"6","larger_num":"8","correct_side":1,"subjID":"AngelJeronimoFonseca21","gender":"0","age":"9","school":"4"},{"start_time":1552070159873,"click_time":1552070161165,"finger_time":1552070160983,"fix_duration":287.7317813740787,"trial":11,"RT":1110,"MT":182,"sideResp":1,"stimulus":"img/500/randomdotsizeEA/L/4_Ratio_500_L_18_R_9.png","xmouse":[814,814,814,814,814,814,814,814,814,814,814,814,814,814,814,814,814,814,814,814,814,814,814,814,814,814,814,814,814,814,814,814,814,814,814,814,814,814,814,814,814,814,814,814,814,814,814,814,814,814,814,814,814,810,786,775,721,677,633,566,540,524,510,488,445],"ymouse":[612,612,612,612,612,612,612,612,612,612,612,612,612,612,612,612,612,612,612,612,612,612,612,612,612,612,612,612,612,612,612,612,612,612,612,612,612,612,612,612,612,612,612,612,612,612,612,612,612,612,612,612,612,606,574,562,499,448,397,292,239,197,151,102,9],"timestamp_mouse":[10,30,50,71,90,110,131,151,171,190,210,230,251,270,291,310,331,350,371,391,411,431,451,471,491,510,531,551,570,591,611,631,650,671,691,710,731,751,771,790,810,830,850,871,891,910,930,951,970,990,1010,1030,1051,1071,1090,1110,1130,1150,1170,1191,1211,1231,1250,1270,1292],"xSR":741.5,"ySR":573.95,"xT1":424.9,"yT1":0,"xT2":1058.1,"yT2":0,"toosoon":0,"cond_shown":"randomdotsizeEA","ratio_trial":500,"smaller_num":"9","larger_num":"18","correct_side":1,"subjID":"AngelJeronimoFonseca21","gender":"0","age":"9","school":"4"},{"start_time":1552070163187,"click_time":1552070164963,"finger_time":1552070164263,"fix_duration":680.6183597989934,"trial":12,"RT":1076,"MT":700,"sideResp":2,"stimulus":"img/500/randomdotsizeEA/R/3_Ratio_500_L_10_R_20.png","xmouse":[790,790,790,790,790,790,790,790,790,790,790,790,790,790,790,790,790,790,790,790,790,790,790,790,790,790,790,790,790,790,790,790,790,790,790,790,790,790,790,790,790,790,790,790,790,790,790,790,790,790,790,793,801,825,838,850,862,872,877,878,878,878,884,896,904,913,922,934,962,975,986,998,1005,1023,1028,1033,1038,1042,1045,1045,1045,1045,1045,1045,1046,1048,1051,1057,1066],"ymouse":[596,596,596,596,596,596,596,596,596,596,596,596,596,596,596,596,596,596,596,596,596,596,596,596,596,596,596,596,596,596,596,596,596,596,596,596,596,596,596,596,596,596,596,596,596,596,596,596,596,596,597,597,594,560,533,505,475,446,406,380,380,380,333,300,285,270,257,241,205,190,179,167,159,139,127,114,104,96,92,91,91,91,91,91,89,89,87,85,81],"timestamp_mouse":[16,36,55,77,96,117,136,157,177,197,216,237,256,277,296,317,336,357,376,396,417,436,457,476,496,516,536,556,576,597,617,637,656,676,697,717,737,756,777,796,816,836,856,875,895,915,936,957,976,996,1016,1037,1057,1076,1096,1116,1136,1156,1175,1226,1226,1236,1256,1276,1296,1316,1336,1356,1377,1396,1416,1436,1457,1476,1496,1516,1536,1556,1576,1596,1615,1636,1656,1676,1697,1716,1737,1756,1776],"xSR":741.5,"ySR":573.95,"xT1":424.9,"yT1":0,"xT2":1058.1,"yT2":0,"toosoon":0,"cond_shown":"randomdotsizeEA","ratio_trial":500,"smaller_num":"10","larger_num":"20","correct_side":2,"subjID":"AngelJeronimoFonseca21","gender":"0","age":"9","school":"4"},{"start_time":1552070166870,"click_time":1552070168923,"finger_time":1552070168363,"fix_duration":725.7337413551315,"trial":13,"RT":1493,"MT":560,"sideResp":1,"stimulus":"img/900/equaldotsize/L/1_Ratio_900_L_10_R_9.png","xmouse":[809,809,809,809,809,809,809,809,809,809,809,809,809,809,809,809,809,809,809,809,809,809,809,809,809,809,809,809,809,809,809,809,809,809,809,809,809,809,809,809,809,809,809,809,809,809,809,809,809,809,809,809,809,809,809,809,809,809,809,809,809,809,809,809,809,809,809,809,809,809,809,809,806,800,791,771,761,751,740,727,700,683,665,657,643,635,626,616,607,599,589,584,573,564,550,548,547,546,544,540,529,522,506],"ymouse":[597,597,597,597,597,597,597,597,597,597,597,597,597,597,597,597,597,597,597,597,597,597,597,597,597,597,597,597,597,597,597,597,597,597,597,597,597,597,597,597,597,597,597,597,597,597,597,597,597,597,597,597,597,597,597,597,597,597,597,597,597,597,597,597,597,597,597,597,597,597,597,597,595,584,570,541,526,509,490,467,410,372,324,301,261,246,232,219,207,196,182,175,162,155,146,144,144,143,141,138,128,119,96],"timestamp_mouse":[14,43,54,74,93,113,134,153,174,193,214,234,253,273,293,314,333,354,373,394,413,434,454,472,494,513,534,554,574,593,614,634,653,673,694,714,733,754,774,792,813,834,853,874,892,914,934,953,973,994,1014,1034,1054,1074,1093,1114,1134,1153,1174,1193,1214,1233,1253,1274,1293,1314,1334,1354,1374,1394,1414,1434,1453,1473,1493,1514,1534,1553,1573,1594,1613,1633,1653,1673,1694,1713,1734,1753,1773,1793,1813,1833,1853,1874,1894,1913,1934,1954,1974,1993,2013,2034,2053],"xSR":741.5,"ySR":573.95,"xT1":424.9,"yT1":0,"xT2":1058.1,"yT2":0,"toosoon":0,"cond_shown":"equaldotsize","ratio_trial":900,"smaller_num":"9","larger_num":"10","correct_side":1,"subjID":"AngelJeronimoFonseca21","gender":"0","age":"9","school":"4"},{"start_time":1552070170532,"click_time":1552070171803,"finger_time":1552070171423,"fix_duration":548.0763892265825,"trial":14,"RT":891,"MT":380,"sideResp":2,"stimulus":"img/900/equaldotsize/L/10_Ratio_900_L_20_R_18.png","xmouse":[800,800,800,800,800,800,800,800,800,800,800,800,800,800,800,800,800,800,800,800,800,800,800,800,800,800,800,800,800,800,800,800,800,800,800,800,800,800,800,801,803,806,819,829,841,851,861,877,882,890,897,905,930,942,955,964,974,996,1006,1026,1035,1042,1056,1061],"ymouse":[627,627,627,627,627,627,627,627,627,627,627,627,627,627,627,627,627,627,627,627,627,627,627,627,627,627,627,627,627,627,627,627,627,627,627,627,627,627,627,627,627,627,609,592,570,544,516,440,397,343,316,295,258,239,218,200,182,151,140,128,120,113,97,90],"timestamp_mouse":[13,41,51,70,92,112,132,150,172,192,212,231,251,272,291,312,332,351,372,391,411,432,452,471,491,511,531,551,572,591,611,632,651,671,692,711,732,752,771,791,811,831,851,871,891,911,932,951,971,991,1011,1032,1052,1071,1092,1111,1131,1151,1171,1191,1212,1231,1252,1271],"xSR":741.5,"ySR":573.95,"xT1":424.9,"yT1":0,"xT2":1058.1,"yT2":0,"toosoon":0,"cond_shown":"equaldotsize","ratio_trial":900,"smaller_num":"18","larger_num":"20","correct_side":1,"subjID":"AngelJeronimoFonseca21","gender":"0","age":"9","school":"4"},{"start_time":1552070175648,"click_time":1552070177423,"finger_time":1552070176623,"fix_duration":444.6443489453588,"trial":15,"RT":975,"MT":800,"sideResp":1,"stimulus":"img/500/equaldotanddens/L/5_Ratio_500_L_4_R_2.png","xmouse":[780,780,780,780,780,780,780,780,780,780,780,780,780,780,780,780,780,780,780,780,780,780,780,780,780,780,780,780,780,780,780,780,780,780,780,780,780,780,780,780,780,780,780,780,780,780,780,771,726,646,537,487,414,387,362,339,295,287,283,281,281,281,281,281,281,281,281,281,281,281,281,281,281,281,281,281,281,281,281,283,288,317,355,370,378,385,390,415,434],"ymouse":[625,625,625,625,625,625,625,625,625,625,625,625,625,625,625,625,625,625,625,625,625,625,625,625,625,625,625,625,625,625,625,625,625,625,625,625,625,625,625,625,625,625,625,625,625,625,625,620,548,434,320,285,238,213,188,152,86,69,59,50,47,47,47,47,47,47,47,47,47,47,47,47,47,47,47,47,47,47,47,46,46,54,60,61,61,61,61,61,61],"timestamp_mouse":[16,40,55,75,95,116,135,156,177,196,215,235,256,276,295,316,335,355,376,395,416,437,456,475,495,516,536,556,576,596,616,636,655,675,695,716,735,755,775,796,816,835,856,875,896,915,937,955,975,995,1015,1035,1055,1075,1095,1116,1135,1155,1175,1196,1215,1236,1255,1276,1295,1315,1336,1354,1375,1395,1416,1436,1455,1476,1495,1515,1536,1555,1575,1594,1616,1635,1656,1675,1695,1715,1735,1755,1775],"xSR":741.5,"ySR":573.95,"xT1":424.9,"yT1":0,"xT2":1058.1,"yT2":0,"toosoon":0,"cond_shown":"equaldotanddens","ratio_trial":500,"smaller_num":"2","larger_num":"4","correct_side":1,"subjID":"AngelJeronimoFonseca21","gender":"0","age":"9","school":"4"},{"start_time":1552070180700,"click_time":1552070181843,"finger_time":1552070181404,"fix_duration":1434.0113793805208,"trial":16,"RT":704,"MT":439,"sideResp":2,"stimulus":"img/750/equaldotsize/R/11_Ratio_750_L_12_R_16.png","xmouse":[799,799,799,799,799,799,799,799,799,799,799,799,799,799,799,799,799,799,799,799,799,799,799,799,799,799,799,799,799,799,799,799,799,803,809,844,859,872,883,892,900,920,933,942,950,964,972,975,979,982,990,996,1001,1009,1016,1037,1055,1065],"ymouse":[616,616,616,616,616,616,616,616,616,616,616,616,616,616,616,616,616,616,616,616,616,616,616,616,616,616,616,616,616,616,616,616,616,615,612,584,570,554,536,516,494,451,421,394,366,326,308,295,282,271,243,228,214,194,169,119,87,68],"timestamp_mouse":[11,23,43,63,83,102,123,143,163,183,203,223,243,264,283,303,324,343,363,384,403,424,443,464,484,503,523,543,563,583,603,623,644,663,684,704,725,743,763,783,803,823,844,864,884,903,922,943,964,983,1003,1023,1043,1063,1083,1103,1124,1143],"xSR":741.5,"ySR":573.95,"xT1":424.9,"yT1":0,"xT2":1058.1,"yT2":0,"toosoon":0,"cond_shown":"equaldotsize","ratio_trial":750,"smaller_num":"12","larger_num":"16","correct_side":2,"subjID":"AngelJeronimoFonseca21","gender":"0","age":"9","school":"4"},{"start_time":1552070183276,"click_time":1552070186084,"finger_time":1552070185544,"fix_duration":272.4320710133873,"trial":17,"RT":2268,"MT":540,"sideResp":1,"stimulus":"img/750/equaldotanddens/L/8_Ratio_750_L_4_R_3.png","xmouse":[786,786,786,786,786,786,786,786,786,786,786,786,786,786,786,786,786,786,786,786,786,786,786,786,786,786,786,786,786,786,786,786,786,786,786,786,786,786,786,786,786,786,786,786,786,786,786,786,786,786,786,786,786,786,786,786,786,786,786,786,786,786,786,786,786,786,786,786,786,786,786,786,786,786,786,786,786,786,786,786,786,786,786,786,786,786,786,786,786,786,786,786,786,786,786,786,786,786,786,786,786,786,786,786,786,786,786,786,784,783,781,772,767,758,749,726,659,614,583,568,564,559,556,546,538,525,496,440,435,435,435,428,419,406,402,402,402,408,415,421,429],"ymouse":[598,598,598,598,598,598,598,598,598,598,598,598,598,598,598,598,598,598,598,598,598,598,598,598,598,598,598,598,598,598,598,598,598,598,598,598,598,598,598,598,598,598,598,598,598,598,598,598,598,598,598,598,598,598,598,598,598,598,598,598,598,598,598,598,598,598,598,598,598,598,598,598,598,598,598,598,598,598,601,601,601,601,601,601,601,601,601,601,601,601,601,601,601,601,601,601,601,601,601,601,601,601,601,601,601,601,601,601,596,594,589,579,574,571,566,558,520,493,470,458,451,433,422,400,381,352,302,210,189,173,152,109,89,65,57,51,46,40,38,37,36],"timestamp_mouse":[10,43,47,67,88,107,127,148,167,188,208,227,247,268,287,307,328,347,367,387,408,427,447,468,488,508,527,547,567,588,608,628,648,667,688,708,727,748,767,788,808,826,848,867,888,908,927,948,968,987,1007,1028,1048,1067,1088,1108,1127,1148,1167,1188,1208,1228,1248,1267,1287,1308,1327,1347,1368,1387,1408,1428,1447,1467,1488,1508,1527,1547,1568,1588,1608,1627,1648,1668,1688,1706,1728,1748,1767,1788,1807,1828,1848,1867,1887,1908,1927,1948,1968,1988,2008,2028,2048,2067,2088,2108,2127,2147,2167,2187,2207,2228,2247,2268,2287,2308,2328,2346,2368,2387,2407,2428,2447,2467,2487,2507,2528,2547,2567,2587,2608,2629,2647,2668,2688,2707,2727,2748,2768,2787,2808],"xSR":741.5,"ySR":573.95,"xT1":424.9,"yT1":0,"xT2":1058.1,"yT2":0,"toosoon":0,"cond_shown":"equaldotanddens","ratio_trial":750,"smaller_num":"3","larger_num":"4","correct_side":1,"subjID":"AngelJeronimoFonseca21","gender":"0","age":"9","school":"4"},{"start_time":1552070188771,"click_time":1552070190184,"finger_time":1552070189563,"fix_duration":1465.4208055155186,"trial":18,"RT":792,"MT":621,"sideResp":1,"stimulus":"img/250/equaldotsize/L/15_Ratio_250_L_12_R_3.png","xmouse":[790,790,790,790,790,790,790,790,790,790,790,790,790,790,790,790,790,790,790,790,790,790,790,790,790,790,790,790,790,790,790,790,790,790,790,790,790,789,770,725,656,577,474,451,443,439,436,428,425,419,410,402,396,395,395,399,406,417,417,417,413,413,413,413,414,416,418,419,421,423,426],"ymouse":[614,614,614,614,614,614,614,614,614,614,614,614,614,614,614,614,614,614,614,614,614,614,614,614,614,614,614,614,614,614,614,614,614,614,614,614,614,615,609,588,559,524,476,461,452,444,436,394,367,336,301,275,242,233,224,215,203,162,140,119,103,97,92,90,88,86,81,75,71,68,67],"timestamp_mouse":[11,38,53,73,93,112,132,152,173,193,212,232,252,272,292,313,332,353,372,392,412,433,452,472,493,512,531,551,572,593,613,633,653,673,692,714,732,752,773,792,813,832,852,872,893,913,932,951,973,992,1012,1033,1052,1072,1092,1112,1133,1152,1173,1192,1212,1233,1252,1272,1293,1312,1333,1352,1372,1392,1413],"xSR":741.5,"ySR":573.95,"xT1":424.9,"yT1":0,"xT2":1058.1,"yT2":0,"toosoon":0,"cond_shown":"equaldotsize","ratio_trial":250,"smaller_num":"3","larger_num":"12","correct_side":1,"subjID":"AngelJeronimoFonseca21","gender":"0","age":"9","school":"4"},{"start_time":1552070192773,"click_time":1552070194003,"finger_time":1552070193483,"fix_duration":1348.8026612921158,"trial":19,"RT":710,"MT":520,"sideResp":1,"stimulus":"img/250/equaldotsize/L/7_Ratio_250_L_8_R_2.png","xmouse":[779,779,779,779,779,779,779,779,779,779,779,779,779,779,779,779,779,779,779,779,779,779,779,779,779,779,779,779,779,779,779,779,779,775,767,753,731,722,715,709,699,682,666,625,608,596,588,578,576,572,569,566,564,564,564,568,568,568,562,552,539,524],"ymouse":[591,591,591,591,591,591,591,591,591,591,591,591,591,591,591,591,591,591,591,591,591,591,591,591,591,591,591,591,591,591,591,591,591,584,578,570,563,560,554,548,536,518,500,438,401,369,342,294,276,256,232,213,192,186,181,170,162,149,123,107,92,77],"timestamp_mouse":[10,35,50,71,90,110,131,151,171,190,211,231,250,270,291,311,331,350,370,391,410,431,451,471,491,511,531,550,571,590,611,631,650,670,691,710,731,750,771,791,811,830,851,870,890,910,930,950,970,990,1010,1030,1051,1070,1090,1110,1131,1150,1170,1190,1210,1229],"xSR":741.5,"ySR":573.95,"xT1":424.9,"yT1":0,"xT2":1058.1,"yT2":0,"toosoon":0,"cond_shown":"equaldotsize","ratio_trial":250,"smaller_num":"2","larger_num":"8","correct_side":1,"subjID":"AngelJeronimoFonseca21","gender":"0","age":"9","school":"4"},{"start_time":1552070195685,"click_time":1552070197164,"finger_time":1552070196443,"fix_duration":359.3521948190842,"trial":20,"RT":758,"MT":721,"sideResp":2,"stimulus":"img/500/equaldotanddens/R/9_Ratio_500_L_2_R_4.png","xmouse":[785,785,785,785,785,785,785,785,785,785,785,785,785,785,785,785,785,785,785,785,785,785,785,785,785,785,785,785,785,785,785,785,785,787,792,803,815,825,842,846,858,869,877,887,890,893,893,893,901,907,912,914,919,931,939,947,958,970,992,1006,1013,1018,1027,1030,1031,1031,1031,1031,1036,1045,1048,1050,1051,1055,1059],"ymouse":[601,601,601,601,601,601,601,601,601,601,601,601,601,601,601,601,601,601,601,601,601,601,601,601,601,601,601,601,601,601,601,601,601,601,601,597,589,581,561,551,512,481,455,406,387,369,355,341,313,291,272,251,231,190,170,151,134,115,83,59,47,38,26,23,22,22,22,22,22,22,22,22,22,22,22],"timestamp_mouse":[1,18,44,58,78,98,118,139,158,178,199,219,238,258,279,299,318,339,358,379,399,418,438,459,478,499,518,539,557,578,598,619,638,658,678,698,718,739,758,778,798,818,838,859,879,898,919,940,958,979,998,1019,1039,1058,1079,1098,1118,1138,1158,1179,1198,1218,1240,1258,1277,1298,1318,1339,1358,1377,1398,1419,1439,1459,1478],"xSR":741.5,"ySR":573.95,"xT1":424.9,"yT1":0,"xT2":1058.1,"yT2":0,"toosoon":0,"cond_shown":"equaldotanddens","ratio_trial":500,"smaller_num":"2","larger_num":"4","correct_side":2,"subjID":"AngelJeronimoFonseca21","gender":"0","age":"9","school":"4"},{"start_time":1552070199292,"click_time":1552070200783,"finger_time":1552070200083,"fix_duration":846.3891673019684,"trial":21,"RT":791,"MT":700,"sideResp":2,"stimulus":"img/250/randomdotsizeEA/R/13_Ratio_250_L_2_R_8.png","xmouse":[803,803,803,803,803,803,803,803,803,803,803,803,803,803,803,803,803,803,803,803,803,803,803,803,803,803,803,803,803,803,803,803,803,803,803,803,803,803,825,841,856,871,896,909,923,939,963,1016,1035,1051,1055,1055,1055,1055,1055,1055,1054,1049,1049,1049,1049,1049,1049,1049,1049,1049,1049,1049,1049,1049,1049,1050,1070,1080,1089],"ymouse":[617,617,617,617,617,617,617,617,617,617,617,617,617,617,617,617,617,617,617,617,617,617,617,617,617,617,617,617,617,617,617,617,617,617,617,617,617,616,587,563,540,517,480,460,436,410,377,273,234,189,157,126,81,62,41,18,0,0,0,0,0,0,0,0,0,0,0,0,0,0,0,0,0,0,1],"timestamp_mouse":[11,41,51,71,91,112,132,151,172,192,212,232,251,272,292,312,332,351,372,391,411,431,451,472,492,512,531,551,572,592,611,632,651,671,691,712,731,751,772,791,812,831,851,871,892,912,931,951,973,992,1011,1032,1051,1071,1091,1112,1131,1152,1171,1191,1212,1231,1251,1271,1291,1311,1332,1352,1372,1392,1411,1432,1453,1471,1491],"xSR":741.5,"ySR":573.95,"xT1":424.9,"yT1":0,"xT2":1058.1,"yT2":0,"toosoon":0,"cond_shown":"randomdotsizeEA","ratio_trial":250,"smaller_num":"2","larger_num":"8","correct_side":2,"subjID":"AngelJeronimoFonseca21","gender":"0","age":"9","school":"4"},{"start_time":1552070203607,"click_time":1552070205263,"finger_time":1552070204844,"fix_duration":1101.0793606774273,"trial":22,"RT":1237,"MT":419,"sideResp":1,"stimulus":"img/900/equaldotsize/L/2_Ratio_900_L_20_R_18.png","xmouse":[797,797,797,797,797,797,797,797,797,797,797,797,797,797,797,797,797,797,797,797,797,797,797,797,797,797,797,797,797,797,797,797,797,797,797,797,797,797,797,797,797,797,797,797,797,797,797,797,797,797,797,797,797,797,797,797,797,797,797,795,787,755,733,711,693,681,668,661,658,646,635,623,610,606,605,601,579,537,511,494,480,472,467],"ymouse":[613,613,613,613,613,613,613,613,613,613,613,613,613,613,613,613,613,613,613,613,613,613,613,613,613,613,613,613,613,613,613,613,613,613,613,613,613,613,613,613,613,613,613,613,613,613,613,613,613,613,613,613,613,613,613,613,613,613,613,608,584,541,522,503,485,467,434,407,398,369,348,328,303,294,288,276,235,181,152,133,116,105,95],"timestamp_mouse":[16,36,56,76,96,116,136,157,176,196,216,236,256,276,296,317,336,356,375,397,417,436,457,476,496,516,536,557,577,597,616,636,656,677,696,716,736,756,776,796,816,837,856,876,896,917,937,956,976,996,1017,1037,1056,1077,1096,1117,1137,1156,1177,1196,1216,1237,1256,1276,1296,1317,1338,1357,1376,1396,1416,1437,1457,1478,1497,1517,1538,1557,1577,1596,1616,1636,1656],"xSR":741.5,"ySR":573.95,"xT1":424.9,"yT1":0,"xT2":1058.1,"yT2":0,"toosoon":0,"cond_shown":"equaldotsize","ratio_trial":900,"smaller_num":"18","larger_num":"20","correct_side":1,"subjID":"AngelJeronimoFonseca21","gender":"0","age":"9","school":"4"},{"start_time":1552070206531,"click_time":1552070208164,"finger_time":1552070207904,"fix_duration":406.6116141655048,"trial":23,"RT":1373,"MT":260,"sideResp":1,"stimulus":"img/900/randomdotsizeEA/L/2_Ratio_900_L_20_R_18.png","xmouse":[805,805,805,805,805,805,805,805,805,805,805,805,805,805,805,805,805,805,805,805,805,805,805,805,805,805,805,805,805,805,805,805,805,805,805,805,805,805,805,805,805,805,805,805,805,805,805,805,805,805,805,805,805,805,805,805,805,805,805,805,805,803,802,800,799,797,794,790,785,779,770,745,722,699,681,664,641,630,609,586,556,500],"ymouse":[632,632,632,632,632,632,632,632,632,632,632,632,632,632,632,632,632,632,632,632,632,632,632,632,632,632,632,632,632,632,632,632,632,632,632,632,632,632,632,632,632,632,632,632,632,632,632,632,632,632,632,632,632,632,632,632,632,632,632,632,630,623,618,613,608,602,590,577,560,541,521,472,432,400,375,350,307,280,241,180,127,40],"timestamp_mouse":[12,45,53,73,93,113,132,153,172,194,212,233,253,273,294,313,333,353,373,393,412,432,454,474,493,512,533,553,573,593,614,633,653,672,693,714,733,753,772,792,813,832,852,873,893,913,932,954,973,993,1013,1032,1052,1073,1094,1114,1133,1152,1172,1193,1212,1232,1254,1272,1292,1314,1332,1354,1373,1392,1412,1432,1454,1472,1493,1513,1532,1552,1573,1592,1612,1633],"xSR":741.5,"ySR":573.95,"xT1":424.9,"yT1":0,"xT2":1058.1,"yT2":0,"toosoon":0,"cond_shown":"randomdotsizeEA","ratio_trial":900,"smaller_num":"18","larger_num":"20","correct_side":1,"subjID":"AngelJeronimoFonseca21","gender":"0","age":"9","school":"4"},{"start_time":1552070209685,"click_time":1552070210964,"finger_time":1552070210464,"fix_duration":319.04083278228524,"trial":24,"RT":779,"MT":500,"sideResp":1,"stimulus":"img/500/equaldotsize/L/5_Ratio_500_L_4_R_2.png","xmouse":[804,804,804,804,804,804,804,804,804,804,804,804,804,804,804,804,804,804,804,804,804,804,804,804,804,804,804,804,804,804,804,804,804,804,804,804,804,805,812,829,841,850,858,862,862,840,829,821,815,804,794,780,747,717,681,607,588,576,567,560,532,519,513,509,505],"ymouse":[578,578,579,579,579,579,579,579,579,579,579,579,579,580,580,580,580,580,580,580,580,580,580,580,580,580,580,580,580,580,580,580,580,580,580,580,581,581,577,565,553,533,507,486,457,424,413,406,400,377,360,339,301,277,251,207,192,182,172,160,130,118,111,103,93],"timestamp_mouse":[1,18,42,58,79,100,119,139,158,178,199,220,239,259,279,299,318,339,359,379,399,419,439,459,478,500,519,538,559,579,599,619,638,659,679,699,718,740,759,779,798,819,839,858,878,899,919,938,958,979,999,1019,1039,1058,1079,1098,1120,1139,1159,1179,1199,1218,1238,1259,1278],"xSR":741.5,"ySR":573.95,"xT1":424.9,"yT1":0,"xT2":1058.1,"yT2":0,"toosoon":0,"cond_shown":"equaldotsize","ratio_trial":500,"smaller_num":"2","larger_num":"4","correct_side":1,"subjID":"AngelJeronimoFonseca21","gender":"0","age":"9","school":"4"},{"start_time":1552070212505,"click_time":1552070214284,"finger_time":1552070213603,"fix_duration":539.3978090232296,"trial":25,"RT":1098,"MT":681,"sideResp":1,"stimulus":"img/750/randomdotsizeEA/R/5_Ratio_750_L_15_R_20.png","xmouse":[793,793,793,793,793,793,793,793,793,793,793,793,793,793,793,793,793,793,793,793,793,793,793,793,793,793,793,793,793,793,793,793,793,793,793,793,793,793,793,793,793,793,793,793,793,793,793,793,793,793,793,792,789,781,772,763,755,734,715,710,694,683,673,661,654,646,634,611,585,574,570,565,561,553,550,549,548,548,548,548,548,548,548,548,548,544,537,526,522],"ymouse":[602,602,602,602,602,602,602,602,602,602,602,602,602,602,602,602,602,602,602,602,602,602,602,602,602,602,602,602,602,602,602,602,602,602,602,602,602,602,602,602,602,602,602,602,602,602,602,602,602,602,601,598,592,581,571,560,546,503,455,436,381,356,327,284,262,234,204,160,113,94,85,77,71,63,62,61,61,61,61,61,61,61,61,61,61,61,61,61,59],"timestamp_mouse":[18,39,58,79,99,120,138,158,180,199,218,238,259,278,298,320,338,359,378,399,420,439,459,479,498,519,538,559,579,598,618,640,658,678,699,718,739,759,778,798,819,838,858,878,899,920,940,960,978,998,1018,1038,1058,1080,1098,1118,1139,1160,1179,1199,1218,1239,1258,1279,1300,1319,1338,1358,1378,1399,1419,1438,1458,1479,1499,1519,1538,1558,1578,1598,1618,1639,1660,1678,1698,1718,1739,1760,1779],"xSR":741.5,"ySR":573.95,"xT1":424.9,"yT1":0,"xT2":1058.1,"yT2":0,"toosoon":0,"cond_shown":"randomdotsizeEA","ratio_trial":750,"smaller_num":"15","larger_num":"20","correct_side":2,"subjID":"AngelJeronimoFonseca21","gender":"0","age":"9","school":"4"},{"start_time":1552070215736,"click_time":1552070218085,"finger_time":1552070217224,"fix_duration":250,"trial":26,"RT":1488,"MT":861,"sideResp":1,"stimulus":"img/500/randomdotsizeEA/L/8_Ratio_500_L_8_R_4.png","xmouse":[803,803,803,803,803,803,803,803,803,803,803,803,803,802,802,802,801,801,801,801,801,801,801,801,801,801,801,801,801,801,801,801,801,801,801,801,801,801,801,801,801,801,801,801,801,801,801,801,801,801,801,801,801,801,801,801,801,801,801,801,801,801,801,801,801,801,801,801,801,801,801,801,800,794,783,766,735,698,685,677,673,672,664,655,642,628,619,608,599,580,547,499,402,381,371,369,368,368,368,368,370,372,380,385,389,394,398,406,409,410,411,411,411,411,411,412,413,436],"ymouse":[597,597,597,597,597,597,597,597,597,597,597,598,599,600,601,601,601,601,601,601,601,601,601,601,601,601,601,601,601,601,601,601,601,601,601,601,601,601,601,601,601,601,601,601,601,601,601,601,601,601,601,601,601,601,601,601,601,601,601,601,601,601,601,601,601,601,601,601,601,601,601,601,601,592,567,524,428,372,355,343,335,330,304,288,269,252,240,217,201,178,148,108,38,21,13,11,10,10,10,10,9,9,7,6,6,5,4,3,3,3,3,3,3,3,3,3,3,3],"timestamp_mouse":[10,27,60,67,88,107,129,147,169,189,209,227,249,268,288,307,328,347,368,388,408,429,447,468,489,508,527,549,567,588,608,627,647,668,687,708,729,747,768,788,807,827,847,868,888,908,929,947,967,987,1008,1029,1047,1067,1088,1108,1127,1147,1168,1188,1207,1228,1247,1269,1287,1309,1327,1347,1369,1387,1408,1428,1447,1469,1488,1507,1527,1547,1568,1587,1608,1628,1647,1668,1687,1707,1727,1747,1767,1787,1808,1828,1847,1867,1888,1907,1928,1948,1968,1987,2008,2028,2047,2067,2087,2107,2127,2149,2169,2187,2208,2227,2248,2268,2288,2308,2328,2349],"xSR":741.5,"ySR":573.95,"xT1":424.9,"yT1":0,"xT2":1058.1,"yT2":0,"toosoon":0,"cond_shown":"randomdotsizeEA","ratio_trial":500,"smaller_num":"4","larger_num":"8","correct_side":1,"subjID":"AngelJeronimoFonseca21","gender":"0","age":"9","school":"4"},{"start_time":1552070220355,"click_time":1552070221484,"finger_time":1552070221063,"fix_duration":1088.5614645810756,"trial":27,"RT":708,"MT":421,"sideResp":2,"stimulus":"img/900/equaldotsize/L/8_Ratio_900_L_20_R_18.png","xmouse":[809,809,809,809,809,809,809,809,809,809,809,809,809,809,809,809,809,809,809,809,809,809,809,809,809,809,809,809,809,809,809,811,815,819,821,829,843,850,855,862,869,883,889,899,909,926,948,958,966,976,987,995,1022,1037,1052,1058,1074],"ymouse":[623,623,623,623,623,623,623,623,623,623,623,623,623,623,623,623,623,623,623,623,623,623,623,623,623,623,623,623,623,623,623,621,609,595,588,562,521,499,476,453,428,382,359,338,315,276,225,200,182,166,150,140,121,113,106,102,93],"timestamp_mouse":[10,41,50,68,89,109,128,150,168,188,208,228,249,269,288,308,329,348,369,388,409,429,448,470,490,509,528,549,568,590,609,628,648,668,688,708,729,749,769,789,808,829,848,868,888,910,930,948,969,989,1010,1029,1048,1068,1090,1109,1129],"xSR":741.5,"ySR":573.95,"xT1":424.9,"yT1":0,"xT2":1058.1,"yT2":0,"toosoon":0,"cond_shown":"equaldotsize","ratio_trial":900,"smaller_num":"18","larger_num":"20","correct_side":1,"subjID":"AngelJeronimoFonseca21","gender":"0","age":"9","school":"4"},{"start_time":1552070223374,"click_time":1552070224843,"finger_time":1552070224444,"fix_duration":250,"trial":28,"RT":1070,"MT":399,"sideResp":1,"stimulus":"img/750/randomdotsizeEA/L/6_Ratio_750_L_24_R_18.png","xmouse":[809,809,809,809,809,809,809,809,809,809,809,809,809,809,809,809,809,809,809,809,809,809,809,809,809,809,809,809,809,809,809,809,809,809,809,809,809,809,809,809,809,809,809,809,809,809,809,809,809,806,804,785,766,743,718,694,672,667,665,660,653,636,624,618,608,597,570,561,553,545,539,512,499,487],"ymouse":[635,635,635,635,635,635,635,635,635,635,635,635,635,635,635,635,635,635,635,635,635,635,635,635,635,635,635,635,635,635,635,635,635,635,635,635,635,635,635,635,635,635,635,635,635,635,635,635,635,630,627,603,589,572,554,536,504,486,466,443,421,379,351,333,314,295,254,237,224,208,191,134,109,84],"timestamp_mouse":[9,36,50,69,89,111,130,150,169,190,211,230,249,269,289,310,329,350,370,391,410,430,450,469,489,509,529,550,570,589,610,629,649,670,689,709,730,750,771,790,810,829,849,870,890,909,929,949,969,989,1011,1030,1050,1070,1089,1109,1129,1149,1169,1190,1210,1229,1250,1271,1291,1310,1330,1349,1369,1390,1411,1430,1450,1469],"xSR":741.5,"ySR":573.95,"xT1":424.9,"yT1":0,"xT2":1058.1,"yT2":0,"toosoon":0,"cond_shown":"randomdotsizeEA","ratio_trial":750,"smaller_num":"18","larger_num":"24","correct_side":1,"subjID":"AngelJeronimoFonseca21","gender":"0","age":"9","school":"4"},{"start_time":1552070227234,"click_time":1552070228723,"finger_time":1552070228024,"fix_duration":1008.9326325255562,"trial":29,"RT":790,"MT":699,"sideResp":1,"stimulus":"img/900/randomdotsizeEA/R/6_Ratio_900_L_9_R_10.png","xmouse":[781,781,781,781,781,781,781,781,781,781,781,781,781,781,781,781,781,781,781,781,781,781,781,781,781,781,781,781,781,781,781,781,781,781,781,781,781,781,782,781,777,766,756,746,727,721,713,699,680,668,657,647,638,621,614,606,599,591,586,577,573,569,566,558,555,554,554,553,550,533,520,511,507,506,506],"ymouse":[595,595,595,595,595,595,595,595,595,595,595,595,595,595,595,595,595,595,595,595,595,595,595,595,595,595,595,595,595,595,595,595,595,595,595,595,595,595,596,573,555,536,519,505,478,466,450,426,392,376,360,346,333,309,297,285,274,259,247,225,216,207,198,182,177,171,168,161,155,133,120,111,107,101,98],"timestamp_mouse":[10,29,49,69,90,110,130,149,169,190,210,230,249,269,289,310,330,349,370,389,410,430,449,469,490,511,530,550,569,591,609,630,649,670,690,709,730,749,770,790,811,830,851,870,889,910,929,949,969,989,1009,1030,1049,1069,1089,1109,1129,1150,1169,1189,1209,1231,1249,1270,1290,1310,1329,1350,1370,1389,1409,1429,1449,1470,1489],"xSR":741.5,"ySR":573.95,"xT1":424.9,"yT1":0,"xT2":1058.1,"yT2":0,"toosoon":0,"cond_shown":"randomdotsizeEA","ratio_trial":900,"smaller_num":"9","larger_num":"10","correct_side":2,"subjID":"AngelJeronimoFonseca21","gender":"0","age":"9","school":"4"},{"start_time":1552070230670,"click_time":1552070231664,"finger_time":1552070231545,"fix_duration":583.1810653479338,"trial":30,"RT":875,"MT":119,"sideResp":1,"stimulus":"img/500/equaldotanddens/L/11_Ratio_500_L_12_R_6.png","xmouse":[817,817,817,817,817,817,817,817,817,817,817,817,817,817,817,817,817,817,817,817,817,817,817,817,817,817,817,817,817,817,817,817,817,817,817,817,817,817,817,817,817,812,791,754,688,641,597,548,529,515],"ymouse":[614,614,614,614,614,614,614,614,614,614,614,614,614,614,614,614,614,614,614,614,614,614,614,614,614,614,614,614,614,614,614,614,614,614,614,614,614,614,614,614,614,605,574,522,432,368,298,168,120,85],"timestamp_mouse":[14,34,65,74,93,113,134,154,174,194,214,235,254,274,294,313,334,353,373,394,414,435,453,474,494,513,533,554,574,594,613,634,653,673,694,713,733,753,773,795,815,834,853,875,893,914,933,953,974,993],"xSR":741.5,"ySR":573.95,"xT1":424.9,"yT1":0,"xT2":1058.1,"yT2":0,"toosoon":0,"cond_shown":"equaldotanddens","ratio_trial":500,"smaller_num":"6","larger_num":"12","correct_side":1,"subjID":"AngelJeronimoFonseca21","gender":"0","age":"9","school":"4"},{"start_time":1552070233838,"click_time":1552070235083,"finger_time":1552070234684,"fix_duration":652.8349450321953,"trial":31,"RT":846,"MT":399,"sideResp":1,"stimulus":"img/750/equaldotanddens/L/14_Ratio_750_L_8_R_6.png","xmouse":[806,806,806,806,806,806,806,806,806,806,806,806,806,806,806,806,806,806,806,806,806,806,806,806,806,806,806,806,806,806,806,806,806,806,806,806,806,806,806,806,807,807,802,780,708,668,615,568,532,503,502,501,499,494,467,449,437,432,431,431,431,434,436],"ymouse":[583,583,583,583,583,583,583,583,583,583,583,583,583,583,583,583,583,583,583,583,583,583,583,583,583,583,583,583,583,583,583,583,583,583,583,583,583,583,583,583,583,575,553,506,414,380,339,303,277,254,251,249,240,219,175,153,138,129,123,114,111,105,99],"timestamp_mouse":[10,36,46,65,86,105,126,145,166,187,206,225,247,266,285,307,325,345,365,386,407,426,445,465,485,505,526,547,566,585,605,625,646,666,685,707,726,746,765,786,805,827,846,865,885,905,925,945,966,986,1005,1025,1045,1066,1086,1106,1126,1146,1167,1185,1206,1225,1245],"xSR":741.5,"ySR":573.95,"xT1":424.9,"yT1":0,"xT2":1058.1,"yT2":0,"toosoon":0,"cond_shown":"equaldotanddens","ratio_trial":750,"smaller_num":"6","larger_num":"8","correct_side":1,"subjID":"AngelJeronimoFonseca21","gender":"0","age":"9","school":"4"},{"start_time":1552070237057,"click_time":1552070238584,"finger_time":1552070238004,"fix_duration":570.6189444023717,"trial":32,"RT":947,"MT":580,"sideResp":1,"stimulus":"img/250/randomdotsizeEA/L/7_Ratio_250_L_8_R_2.png","xmouse":[775,775,775,775,775,775,775,775,775,775,775,775,775,775,775,775,775,775,775,775,775,775,775,775,775,775,775,775,775,775,775,775,775,775,775,775,775,775,775,775,775,775,775,775,775,773,769,757,741,694,674,650,637,627,619,611,600,584,557,552,550,548,543,537,518,508,499,493,478,469,453,448,438,435,435,435,435],"ymouse":[593,593,593,593,593,593,593,593,593,593,593,593,593,593,593,593,593,593,593,593,593,593,593,593,593,593,593,593,593,593,593,593,593,593,593,593,593,593,593,593,593,593,593,593,593,582,574,557,540,500,484,459,444,433,419,407,395,381,353,343,332,320,298,280,242,228,215,206,183,171,150,145,132,121,113,104,96],"timestamp_mouse":[10,37,47,67,86,107,127,147,167,187,206,226,247,267,287,307,328,347,366,387,408,427,447,467,486,506,527,546,567,586,607,628,646,666,687,706,726,747,766,788,807,827,848,867,888,906,926,947,967,986,1008,1027,1046,1066,1086,1106,1127,1146,1167,1186,1206,1226,1248,1267,1287,1308,1327,1347,1368,1386,1406,1426,1446,1467,1486,1506,1527],"xSR":741.5,"ySR":573.95,"xT1":424.9,"yT1":0,"xT2":1058.1,"yT2":0,"toosoon":0,"cond_shown":"randomdotsizeEA","ratio_trial":250,"smaller_num":"2","larger_num":"8","correct_side":1,"subjID":"AngelJeronimoFonseca21","gender":"0","age":"9","school":"4"},{"start_time":1552070240476,"click_time":1552070241904,"finger_time":1552070241323,"fix_duration":930.036586262641,"trial":33,"RT":847,"MT":581,"sideResp":1,"stimulus":"img/500/randomdotsizeEA/L/10_Ratio_500_L_4_R_2.png","xmouse":[773,773,773,773,773,773,773,773,773,773,773,773,773,773,773,773,773,773,773,773,773,773,773,773,773,773,773,773,773,773,773,773,773,773,773,773,773,773,773,773,764,752,737,704,688,674,657,646,619,611,605,602,601,600,600,600,600,600,600,600,598,597,594,587,584,581,574,567,544,535,527,520],"ymouse":[613,613,613,613,613,613,613,613,613,613,613,613,613,613,613,613,613,613,613,613,613,613,613,613,613,613,613,613,613,613,613,613,613,613,613,613,613,613,613,607,594,578,559,513,489,464,436,413,357,339,324,314,308,299,296,294,291,288,280,277,274,272,266,247,234,222,206,188,138,118,100,83],"timestamp_mouse":[10,27,47,68,87,108,128,149,167,188,207,229,248,269,288,307,327,349,367,387,408,427,448,469,488,507,528,548,567,589,609,629,647,668,689,707,727,747,767,788,807,828,847,868,889,907,927,947,967,989,1008,1028,1048,1067,1089,1108,1129,1148,1167,1188,1207,1228,1247,1267,1289,1308,1327,1349,1368,1389,1407,1428],"xSR":741.5,"ySR":573.95,"xT1":424.9,"yT1":0,"xT2":1058.1,"yT2":0,"toosoon":0,"cond_shown":"randomdotsizeEA","ratio_trial":500,"smaller_num":"2","larger_num":"4","correct_side":1,"subjID":"AngelJeronimoFonseca21","gender":"0","age":"9","school":"4"},{"start_time":1552070244227,"click_time":1552070245484,"finger_time":1552070244984,"fix_duration":862.5904486435754,"trial":34,"RT":757,"MT":500,"sideResp":1,"stimulus":"img/250/equaldotanddens/L/5_Ratio_250_L_24_R_6.png","xmouse":[779,779,779,779,779,779,779,779,779,779,779,779,779,779,779,779,779,779,779,779,779,779,779,779,779,779,779,779,779,779,779,779,779,779,779,778,769,759,742,719,642,623,603,587,587,587,584,573,556,548,533,530,529,529,529,529,529,529,529,529,528,523,522],"ymouse":[605,605,605,605,605,605,605,605,605,605,605,605,605,605,605,605,605,605,605,605,605,605,605,605,605,605,605,605,605,605,605,605,605,605,605,600,586,569,549,522,423,388,327,263,200,154,85,46,6,0,0,0,0,0,0,0,0,0,0,0,0,0,1],"timestamp_mouse":[17,37,57,77,97,116,137,158,178,197,216,237,257,278,296,317,337,356,377,397,417,438,456,477,497,517,538,556,577,596,616,636,657,678,697,717,737,757,777,798,817,836,856,877,897,917,938,959,977,997,1017,1037,1057,1078,1098,1117,1137,1158,1176,1196,1216,1236,1257],"xSR":741.5,"ySR":573.95,"xT1":424.9,"yT1":0,"xT2":1058.1,"yT2":0,"toosoon":0,"cond_shown":"equaldotanddens","ratio_trial":250,"smaller_num":"6","larger_num":"24","correct_side":1,"subjID":"AngelJeronimoFonseca21","gender":"0","age":"9","school":"4"},{"start_time":1552070247035,"click_time":1552070248345,"finger_time":1552070247763,"fix_duration":250,"trial":35,"RT":728,"MT":582,"sideResp":1,"stimulus":"img/750/equaldotsize/L/8_Ratio_750_L_4_R_3.png","xmouse":[796,796,796,796,796,796,796,796,796,796,796,796,796,796,796,796,796,796,796,796,796,796,796,796,796,796,796,796,796,796,796,795,790,783,771,755,722,702,695,680,673,663,660,657,656,655,653,651,646,640,636,618,608,598,587,566,557,544,535,528,522,514,510,504,496,485],"ymouse":[667,667,667,667,667,667,667,667,667,667,667,667,667,667,667,667,667,667,667,667,667,667,667,667,667,667,667,667,667,667,667,660,652,641,630,617,591,576,570,553,544,526,521,516,513,510,506,496,483,465,446,404,382,358,334,286,264,236,217,198,180,154,140,126,113,91],"timestamp_mouse":[10,39,48,69,88,108,128,148,169,188,209,228,248,268,289,309,330,349,368,389,409,429,448,469,490,510,528,550,569,588,608,629,649,670,689,709,728,749,768,789,808,829,848,869,890,908,928,950,968,989,1010,1029,1049,1068,1089,1109,1128,1148,1168,1189,1209,1229,1249,1269,1289,1310],"xSR":741.5,"ySR":573.95,"xT1":424.9,"yT1":0,"xT2":1058.1,"yT2":0,"toosoon":0,"cond_shown":"equaldotsize","ratio_trial":750,"smaller_num":"3","larger_num":"4","correct_side":1,"subjID":"AngelJeronimoFonseca21","gender":"0","age":"9","school":"4"},{"start_time":1552070251061,"click_time":1552070252645,"finger_time":1552070251843,"fix_duration":1415.1034874614923,"trial":36,"RT":782,"MT":802,"sideResp":2,"stimulus":"img/750/equaldotanddens/L/9_Ratio_750_L_4_R_3.png","xmouse":[804,804,804,804,804,804,804,804,804,804,804,804,804,804,804,804,804,804,804,804,804,804,804,804,804,804,804,804,804,804,804,804,804,804,804,815,822,830,835,842,851,870,884,900,917,958,968,977,987,995,1009,1013,1016,1019,1020,1021,1021,1021,1021,1021,1021,1021,1021,1021,1021,1021,1021,1023,1027,1033,1047,1052,1053,1057,1062,1081,1083,1083,1084,1084],"ymouse":[634,634,634,634,634,634,634,634,634,634,634,634,634,634,634,634,634,634,634,634,634,634,634,634,634,634,634,634,634,634,634,634,634,633,630,618,609,601,591,577,562,512,479,434,390,294,271,248,228,207,171,157,145,135,129,122,122,122,122,122,122,122,122,122,122,122,122,120,120,118,115,115,114,114,113,106,104,102,100,98],"timestamp_mouse":[9,23,53,63,83,102,122,144,162,183,202,223,243,263,283,302,322,344,363,383,402,422,444,463,482,502,522,543,563,584,602,622,643,662,682,702,723,743,763,782,802,822,843,863,882,914,923,942,963,982,1003,1023,1042,1063,1083,1102,1122,1142,1163,1182,1202,1222,1242,1263,1283,1302,1323,1343,1362,1383,1402,1422,1443,1462,1482,1503,1522,1542,1562,1583],"xSR":741.5,"ySR":573.95,"xT1":424.9,"yT1":0,"xT2":1058.1,"yT2":0,"toosoon":0,"cond_shown":"equaldotanddens","ratio_trial":750,"smaller_num":"3","larger_num":"4","correct_side":1,"subjID":"AngelJeronimoFonseca21","gender":"0","age":"9","school":"4"},{"start_time":1552070254747,"click_time":1552070256471,"finger_time":1552070255845,"fix_duration":660.396992596862,"trial":37,"RT":1098,"MT":626,"sideResp":2,"stimulus":"img/750/equaldotsize/R/2_Ratio_750_L_6_R_8.png","xmouse":[801,801,801,801,801,801,801,801,801,801,800,800,800,800,800,800,800,800,800,800,800,800,800,800,800,800,800,800,800,800,800,800,800,800,800,800,800,800,800,800,800,800,800,800,800,801,813,816,822,824,826,828,829,835,850,874,943,970,1000,1010,1014,1016,1016,1016,1019,1034,1069,1096,1109,1119,1138,1143,1146,1147,1147,1147,1147,1147,1147,1147,1147,1147,1143,1138,1130,1112],"ymouse":[628,628,628,628,628,628,628,628,628,628,629,634,634,634,634,634,634,634,634,634,634,634,634,634,634,634,634,634,634,634,634,634,634,634,634,634,634,634,634,634,634,634,634,634,634,634,625,621,615,611,606,603,598,587,561,516,392,332,229,153,73,0,0,0,0,0,0,0,0,0,0,0,0,0,0,0,0,0,0,0,0,0,0,0,0,6],"timestamp_mouse":[16,36,56,76,97,117,137,157,177,198,216,236,257,277,297,317,336,356,376,397,418,436,457,477,498,517,537,557,576,596,617,638,657,677,696,716,737,757,776,798,816,837,857,876,896,917,936,957,976,996,1017,1038,1056,1076,1098,1116,1136,1156,1177,1196,1217,1238,1256,1276,1296,1316,1336,1356,1376,1397,1417,1436,1457,1477,1496,1518,1536,1558,1577,1597,1617,1637,1658,1677,1697,1724],"xSR":741.5,"ySR":573.95,"xT1":424.9,"yT1":0,"xT2":1058.1,"yT2":0,"toosoon":0,"cond_shown":"equaldotsize","ratio_trial":750,"smaller_num":"6","larger_num":"8","correct_side":2,"subjID":"AngelJeronimoFonseca21","gender":"0","age":"9","school":"4"},{"start_time":1552070258973,"click_time":1552070260444,"finger_time":1552070259783,"fix_duration":1088.5836880169377,"trial":38,"RT":810,"MT":661,"sideResp":1,"stimulus":"img/900/equaldotanddens/R/7_Ratio_900_L_9_R_10.png","xmouse":[793,793,793,793,793,793,793,793,793,793,793,793,793,793,793,793,793,793,793,793,793,793,793,793,793,793,793,793,793,793,793,793,793,793,793,793,793,792,791,789,783,778,773,766,759,720,693,667,633,604,537,507,482,467,449,419,401,399,398,398,401,408,408,408,408,408,408,409,411,414,415,419,424,428],"ymouse":[619,619,619,619,619,619,619,619,619,619,619,619,619,619,619,619,619,619,619,619,619,619,619,619,619,619,619,619,619,619,619,619,619,619,618,612,604,599,594,589,572,562,550,533,512,426,392,360,324,295,238,213,189,170,146,113,91,86,82,79,75,68,65,62,59,57,57,56,56,56,56,56,55,55],"timestamp_mouse":[11,38,51,71,90,110,131,150,171,192,210,231,250,270,291,311,330,351,370,390,412,431,450,471,491,511,532,550,570,592,612,630,651,670,690,710,731,751,771,790,810,830,852,872,890,910,932,950,970,990,1010,1030,1050,1070,1091,1110,1130,1150,1170,1190,1210,1230,1250,1272,1290,1310,1331,1351,1370,1390,1410,1430,1451,1471],"xSR":741.5,"ySR":573.95,"xT1":424.9,"yT1":0,"xT2":1058.1,"yT2":0,"toosoon":0,"cond_shown":"equaldotanddens","ratio_trial":900,"smaller_num":"9","larger_num":"10","correct_side":2,"subjID":"AngelJeronimoFonseca21","gender":"0","age":"9","school":"4"},{"start_time":1552070262681,"click_time":1552070263884,"finger_time":1552070263403,"fix_duration":656.2823160697428,"trial":39,"RT":722,"MT":481,"sideResp":2,"stimulus":"img/500/randomdotsizeEA/R/14_Ratio_500_L_5_R_10.png","xmouse":[814,814,814,814,814,814,814,814,814,814,814,814,814,814,814,814,814,814,814,814,814,814,814,814,814,814,814,814,814,814,814,814,814,814,814,809,806,805,804,803,803,803,803,803,804,808,818,822,829,846,863,890,904,926,948,1000,1018,1033,1050,1055,1062],"ymouse":[614,614,614,614,614,614,614,614,614,614,614,614,614,614,614,614,614,614,614,614,614,614,614,614,614,614,614,614,614,614,614,613,606,601,595,580,572,567,564,558,544,534,519,502,484,465,429,409,388,360,339,307,287,261,232,169,144,122,92,77,49],"timestamp_mouse":[11,23,44,63,82,103,123,143,163,184,203,223,244,263,283,302,323,342,363,383,402,422,443,463,483,502,522,542,563,583,603,623,643,663,682,703,722,742,762,784,803,822,843,862,883,902,922,942,962,983,1003,1022,1042,1062,1083,1103,1122,1142,1163,1182,1203],"xSR":741.5,"ySR":573.95,"xT1":424.9,"yT1":0,"xT2":1058.1,"yT2":0,"toosoon":0,"cond_shown":"randomdotsizeEA","ratio_trial":500,"smaller_num":"5","larger_num":"10","correct_side":2,"subjID":"AngelJeronimoFonseca21","gender":"0","age":"9","school":"4"},{"start_time":1552070265618,"click_time":1552070266705,"finger_time":1552070266304,"fix_duration":250,"trial":40,"RT":686,"MT":401,"sideResp":1,"stimulus":"img/500/randomdotsizeEA/L/8_Ratio_500_L_8_R_4.png","xmouse":[807,807,807,807,807,807,807,807,807,807,808,808,808,808,808,808,808,808,808,808,808,808,808,808,808,808,808,808,808,808,808,808,808,807,799,791,779,766,756,750,747,742,734,723,686,661,640,620,609,588,574,562,545,528,506],"ymouse":[615,616,616,616,616,616,616,616,615,613,611,610,610,609,609,609,609,609,608,608,608,608,608,608,608,608,608,608,608,608,606,600,594,585,568,558,545,534,524,505,483,463,439,414,357,328,299,271,248,199,165,143,118,96,68],"timestamp_mouse":[12,35,47,68,87,108,126,148,167,186,208,227,247,266,287,307,327,347,367,387,407,427,448,466,487,506,527,546,567,587,607,628,647,668,686,708,728,748,768,787,807,826,848,866,886,908,927,947,967,988,1007,1028,1048,1067,1087],"xSR":741.5,"ySR":573.95,"xT1":424.9,"yT1":0,"xT2":1058.1,"yT2":0,"toosoon":0,"cond_shown":"randomdotsizeEA","ratio_trial":500,"smaller_num":"4","larger_num":"8","correct_side":1,"subjID":"AngelJeronimoFonseca21","gender":"0","age":"9","school":"4"},{"start_time":1552070268055,"click_time":1552070269266,"finger_time":1552070268705,"fix_duration":250,"trial":41,"RT":650,"MT":561,"sideResp":1,"stimulus":"img/500/equaldotsize/L/11_Ratio_500_L_12_R_6.png","xmouse":[810,810,810,810,810,810,810,810,810,810,810,810,810,810,810,810,810,810,810,810,810,810,810,810,810,810,810,810,810,809,806,798,749,693,635,578,530,520,522,532,546,550,537,523,511,505,505,505,505,504,500,494,488,485,482,481,479,476,475,473,472],"ymouse":[642,642,642,642,642,642,642,642,642,642,642,642,642,642,642,642,642,642,642,642,642,642,642,642,642,642,642,642,642,632,616,598,525,478,434,396,363,351,345,334,319,304,255,236,223,216,216,213,211,205,195,185,169,162,156,151,147,126,112,105,95],"timestamp_mouse":[10,39,50,69,90,110,129,150,169,191,211,229,249,270,290,311,330,351,370,391,410,430,450,469,491,510,530,551,571,591,610,631,650,670,690,711,730,749,769,790,811,831,850,871,890,911,931,950,971,990,1011,1031,1050,1070,1090,1110,1129,1149,1171,1189,1211],"xSR":741.5,"ySR":573.95,"xT1":424.9,"yT1":0,"xT2":1058.1,"yT2":0,"toosoon":0,"cond_shown":"equaldotsize","ratio_trial":500,"smaller_num":"6","larger_num":"12","correct_side":1,"subjID":"AngelJeronimoFonseca21","gender":"0","age":"9","school":"4"},{"start_time":1552070270999,"click_time":1552070272425,"finger_time":1552070271685,"fix_duration":772.2654671295417,"trial":42,"RT":686,"MT":740,"sideResp":1,"stimulus":"img/900/equaldotanddens/L/10_Ratio_900_L_20_R_18.png","xmouse":[778,778,778,778,778,778,778,778,778,778,778,778,778,778,778,778,778,778,778,778,778,778,778,778,778,778,778,778,778,778,778,778,774,770,761,750,750,749,749,749,749,749,749,749,746,734,726,723,723,723,720,716,710,702,697,685,680,673,666,654,639,630,620,609,597,583,553,541,527,521,513,509],"ymouse":[605,605,605,605,605,605,605,605,605,605,605,605,605,605,605,605,605,605,605,605,605,605,605,605,605,605,605,605,605,605,605,605,591,583,566,546,543,541,537,531,526,515,509,503,497,480,474,472,472,471,465,458,447,437,427,406,397,385,372,350,318,299,282,262,241,219,179,160,137,126,108,99],"timestamp_mouse":[11,39,45,66,87,106,125,146,167,186,205,226,247,267,286,306,326,346,366,385,407,425,446,467,486,506,526,546,566,586,605,626,646,666,686,706,726,746,766,785,807,826,846,867,887,906,926,945,965,986,1007,1026,1046,1066,1086,1107,1125,1146,1165,1185,1207,1225,1245,1266,1285,1307,1325,1346,1365,1386,1407,1426],"xSR":741.5,"ySR":573.95,"xT1":424.9,"yT1":0,"xT2":1058.1,"yT2":0,"toosoon":0,"cond_shown":"equaldotanddens","ratio_trial":900,"smaller_num":"18","larger_num":"20","correct_side":1,"subjID":"AngelJeronimoFonseca21","gender":"0","age":"9","school":"4"},{"start_time":1552070274763,"click_time":1552070276545,"finger_time":1552070275525,"fix_duration":974.7932600282609,"trial":43,"RT":762,"MT":1020,"sideResp":1,"stimulus":"img/250/randomdotsizeEA/L/15_Ratio_250_L_12_R_3.png","xmouse":[816,816,816,816,816,816,816,816,816,816,816,816,816,816,816,816,816,816,816,816,816,816,816,816,816,816,816,816,816,816,816,816,816,816,816,816,816,814,801,792,778,765,750,724,711,698,684,668,631,619,608,599,593,589,587,586,584,584,582,582,581,580,580,578,575,573,570,569,564,560,558,556,553,549,547,547,546,545,544,544,543,542,542,541,540,538,534,527,512,500],"ymouse":[590,590,590,590,590,590,590,590,590,590,590,590,590,590,590,590,590,590,590,590,590,590,590,590,590,590,590,590,590,590,590,590,590,590,590,590,590,590,572,559,540,521,501,464,447,428,410,390,346,331,316,305,296,284,281,277,274,271,265,264,262,261,258,250,246,241,238,234,224,218,215,210,206,198,196,193,191,189,187,185,185,183,182,180,178,173,157,138,100,80],"timestamp_mouse":[9,22,44,63,81,101,123,142,163,182,201,222,243,262,282,303,322,342,363,382,402,421,441,461,481,501,522,543,561,583,602,623,643,662,682,701,722,742,762,782,802,822,843,863,881,902,922,942,961,983,1002,1023,1043,1062,1082,1102,1122,1141,1162,1181,1201,1223,1243,1261,1282,1303,1322,1342,1362,1382,1402,1422,1443,1462,1482,1501,1522,1542,1562,1581,1601,1622,1642,1662,1683,1703,1722,1741,1761,1782],"xSR":741.5,"ySR":573.95,"xT1":424.9,"yT1":0,"xT2":1058.1,"yT2":0,"toosoon":0,"cond_shown":"randomdotsizeEA","ratio_trial":250,"smaller_num":"3","larger_num":"12","correct_side":1,"subjID":"AngelJeronimoFonseca21","gender":"0","age":"9","school":"4"},{"start_time":1552070278832,"click_time":1552070281345,"finger_time":1552070280265,"fix_duration":786.2414073286312,"trial":44,"RT":1433,"MT":1080,"sideResp":2,"stimulus":"img/250/equaldotsize/R/8_Ratio_250_L_1_R_4.png","xmouse":[808,808,808,808,808,808,808,808,808,808,808,808,808,808,808,808,808,808,808,808,808,808,808,808,808,808,808,808,808,808,808,808,808,808,808,808,808,808,808,808,808,807,807,807,806,805,805,804,804,803,803,802,801,801,801,801,801,801,801,800,800,800,800,800,800,800,799,797,796,794,787,783,778,769,756,749,742,735,725,707,697,688,680,672,660,658,656,655,654,652,650,649,649,649,655,680,693,703,710,729,738,758,767,800,843,866,886,905,919,926,931,933,934,935,936,938,940,946,959,987,1007,1028,1048,1081,1097,1112],"ymouse":[625,625,625,625,625,625,625,625,625,625,625,625,625,625,625,625,625,625,625,625,625,625,625,625,625,625,625,625,625,625,625,625,625,625,625,625,625,625,625,625,625,625,625,623,619,618,617,615,614,611,610,609,607,606,606,605,605,605,605,605,605,605,605,605,605,605,601,596,592,588,577,571,563,549,525,515,503,490,473,435,411,389,369,353,324,316,310,304,296,289,276,270,267,266,262,257,255,254,252,246,242,232,228,219,210,207,204,202,197,194,190,184,179,175,171,167,165,162,158,146,138,130,124,113,107,99],"timestamp_mouse":[12,39,54,73,92,112,134,154,172,192,213,234,254,272,293,312,332,352,373,393,413,433,453,473,493,514,533,554,574,593,613,632,652,674,693,712,732,754,773,793,813,833,853,873,893,914,934,953,972,993,1013,1033,1053,1074,1094,1113,1134,1153,1172,1192,1214,1233,1252,1273,1293,1312,1332,1354,1373,1392,1413,1433,1454,1474,1493,1513,1533,1553,1574,1593,1613,1633,1653,1673,1694,1712,1733,1753,1773,1793,1813,1832,1852,1873,1894,1914,1933,1954,1973,1994,2013,2033,2054,2073,2094,2113,2133,2153,2172,2194,2212,2234,2253,2273,2294,2314,2334,2354,2374,2394,2412,2432,2453,2473,2494,2513],"xSR":741.5,"ySR":573.95,"xT1":424.9,"yT1":0,"xT2":1058.1,"yT2":0,"toosoon":0,"cond_shown":"equaldotsize","ratio_trial":250,"smaller_num":"1","larger_num":"4","correct_side":2,"subjID":"AngelJeronimoFonseca21","gender":"0","age":"9","school":"4"},{"start_time":1552070283967,"click_time":1552070285566,"finger_time":1552070284884,"fix_duration":1139.2264157466118,"trial":45,"RT":917,"MT":682,"sideResp":2,"stimulus":"img/250/equaldotsize/R/10_Ratio_250_L_4_R_16.png","xmouse":[825,825,825,825,825,825,825,825,825,825,825,825,825,825,825,825,825,825,825,825,825,825,825,825,825,825,825,825,825,825,825,825,825,825,825,825,825,825,825,825,825,825,825,827,838,847,861,875,900,911,921,932,944,970,979,987,996,1005,1024,1037,1051,1063,1075,1094,1099,1104,1107,1109,1109,1109,1109,1108,1107,1104,1102,1101,1099,1098,1096,1096],"ymouse":[609,609,609,609,609,609,609,609,609,609,609,609,609,609,609,609,609,609,609,609,609,609,609,609,609,609,609,609,609,609,609,609,609,609,609,609,609,609,609,609,609,609,609,605,600,593,581,569,540,524,507,489,469,426,409,388,369,348,308,288,269,251,235,195,183,172,163,156,148,145,142,138,134,126,122,117,115,110,102,97],"timestamp_mouse":[18,38,59,78,97,117,138,159,179,197,219,238,257,278,298,318,337,359,378,399,418,439,458,479,498,518,539,557,577,597,617,639,657,677,701,719,737,757,778,797,817,837,859,877,898,917,939,958,978,999,1018,1038,1059,1078,1099,1117,1138,1158,1178,1198,1218,1238,1258,1277,1299,1318,1338,1358,1378,1398,1417,1438,1458,1477,1499,1517,1538,1558,1578,1598],"xSR":741.5,"ySR":573.95,"xT1":424.9,"yT1":0,"xT2":1058.1,"yT2":0,"toosoon":0,"cond_shown":"equaldotsize","ratio_trial":250,"smaller_num":"4","larger_num":"16","correct_side":2,"subjID":"AngelJeronimoFonseca21","gender":"0","age":"9","school":"4"},{"start_time":1552070287872,"click_time":1552070289226,"finger_time":1552070288585,"fix_duration":1105.6730697928078,"trial":46,"RT":713,"MT":641,"sideResp":1,"stimulus":"img/250/randomdotsizeEA/L/7_Ratio_250_L_8_R_2.png","xmouse":[777,777,777,777,777,777,777,777,777,777,777,777,777,777,777,777,777,777,777,777,777,777,777,777,777,777,777,777,777,777,777,776,774,768,763,751,746,731,710,693,672,643,616,596,560,543,531,516,501,495,492,490,490,489,489,488,488,488,488,488,488,488,488,488,488,488,488,488],"ymouse":[651,651,651,651,651,651,651,651,651,651,651,651,651,651,651,651,651,651,651,651,651,651,651,651,651,651,651,651,651,645,641,635,628,607,592,563,554,516,440,370,299,229,167,121,33,0,0,0,0,0,0,0,0,0,0,0,0,0,0,0,0,0,0,0,0,0,0,1],"timestamp_mouse":[12,33,54,74,93,113,133,152,173,194,214,234,253,273,293,313,334,353,373,393,412,433,452,472,493,512,533,553,573,593,613,633,652,673,693,713,733,754,773,792,813,833,854,873,893,914,933,953,973,993,1014,1032,1052,1074,1092,1112,1132,1153,1174,1193,1214,1233,1254,1273,1294,1312,1332,1353],"xSR":741.5,"ySR":573.95,"xT1":424.9,"yT1":0,"xT2":1058.1,"yT2":0,"toosoon":0,"cond_shown":"randomdotsizeEA","ratio_trial":250,"smaller_num":"2","larger_num":"8","correct_side":1,"subjID":"AngelJeronimoFonseca21","gender":"0","age":"9","school":"4"},{"start_time":1552070292171,"click_time":1552070293765,"finger_time":1552070293265,"fix_duration":1486.0771023129378,"trial":47,"RT":1094,"MT":500,"sideResp":1,"stimulus":"img/900/randomdotsizeEA/R/6_Ratio_900_L_9_R_10.png","xmouse":[804,804,804,804,805,805,805,805,805,805,805,805,805,805,805,805,805,805,805,805,805,805,805,805,805,805,805,805,805,805,805,805,805,805,805,805,805,805,805,805,805,805,805,805,805,805,805,805,805,801,799,798,795,791,782,776,771,765,758,739,728,715,700,683,655,642,629,615,599,560,549,538,529,523,515,514,512,511,509,506],"ymouse":[616,615,614,612,611,610,609,609,609,609,609,609,609,609,609,609,609,609,609,609,609,609,609,609,609,609,609,609,609,609,609,609,609,609,609,609,609,609,609,609,609,609,609,609,609,604,603,599,596,591,589,587,584,579,566,556,547,536,523,485,464,441,417,392,350,330,311,292,271,225,208,192,177,164,146,137,126,116,107,86],"timestamp_mouse":[22,39,53,74,94,114,134,155,174,194,213,233,255,274,294,314,334,354,374,394,413,434,455,474,493,515,534,555,574,593,614,634,655,674,694,713,735,754,775,794,814,835,854,874,894,914,935,954,974,994,1015,1034,1053,1074,1094,1115,1134,1154,1174,1194,1215,1233,1255,1275,1294,1314,1333,1355,1375,1395,1414,1434,1454,1474,1493,1514,1533,1553,1575,1593],"xSR":741.5,"ySR":573.95,"xT1":424.9,"yT1":0,"xT2":1058.1,"yT2":0,"toosoon":0,"cond_shown":"randomdotsizeEA","ratio_trial":900,"smaller_num":"9","larger_num":"10","correct_side":2,"subjID":"AngelJeronimoFonseca21","gender":"0","age":"9","school":"4"},{"start_time":1552070295537,"click_time":1552070296685,"finger_time":1552070296444,"fix_duration":250,"trial":48,"RT":907,"MT":241,"sideResp":1,"stimulus":"img/750/randomdotsizeEA/L/14_Ratio_750_L_8_R_6.png","xmouse":[803,803,803,803,803,803,803,803,802,802,802,802,802,802,802,802,802,802,802,802,802,802,802,802,802,802,802,802,802,802,802,802,802,802,802,802,802,802,802,802,802,802,802,798,794,784,750,719,678,627,532,459,456,456,457,457,444,435],"ymouse":[621,619,619,619,619,619,619,619,618,618,618,618,618,618,618,618,618,618,618,618,618,618,618,618,618,618,618,618,618,618,618,618,618,618,618,618,618,618,618,618,618,618,618,604,593,570,509,468,421,371,295,205,182,162,142,126,101,89],"timestamp_mouse":[13,41,48,68,88,108,128,148,168,189,207,227,248,268,288,309,328,349,369,388,409,428,448,469,488,509,527,549,569,588,609,628,648,668,689,707,728,749,769,789,808,827,848,868,888,907,928,948,968,989,1008,1028,1048,1068,1087,1107,1128,1147],"xSR":741.5,"ySR":573.95,"xT1":424.9,"yT1":0,"xT2":1058.1,"yT2":0,"toosoon":0,"cond_shown":"randomdotsizeEA","ratio_trial":750,"smaller_num":"6","larger_num":"8","correct_side":1,"subjID":"AngelJeronimoFonseca21","gender":"0","age":"9","school":"4"},{"start_time":1552070299452,"click_time":1552070300885,"finger_time":1552070300265,"fix_duration":1305.562772051776,"trial":49,"RT":813,"MT":620,"sideResp":1,"stimulus":"img/900/equaldotsize/L/2_Ratio_900_L_20_R_18.png","xmouse":[797,797,797,797,797,797,797,797,797,797,797,797,797,797,797,797,797,797,797,797,797,797,797,797,797,797,797,797,797,797,797,797,797,797,797,797,797,794,787,776,761,738,719,705,690,678,645,631,618,608,602,600,597,591,583,570,539,523,510,501,494,476,474,474,474,474,474,473,473,473,473,473],"ymouse":[604,604,604,604,604,604,604,604,604,604,604,604,604,604,604,604,604,604,604,604,604,604,604,604,604,604,604,604,604,604,604,604,604,604,604,604,604,602,591,575,552,511,479,451,412,371,308,287,270,259,249,240,230,217,205,188,155,141,131,122,117,106,106,106,106,106,106,105,105,103,101,97],"timestamp_mouse":[21,40,53,74,94,112,134,154,173,193,214,232,252,273,293,314,334,353,374,394,414,433,454,472,494,513,533,552,572,593,614,634,653,674,693,712,732,754,773,793,813,833,853,873,893,913,933,954,973,993,1014,1033,1053,1072,1093,1113,1133,1153,1174,1193,1213,1233,1252,1272,1292,1313,1334,1353,1373,1393,1412,1433],"xSR":741.5,"ySR":573.95,"xT1":424.9,"yT1":0,"xT2":1058.1,"yT2":0,"toosoon":0,"cond_shown":"equaldotsize","ratio_trial":900,"smaller_num":"18","larger_num":"20","correct_side":1,"subjID":"AngelJeronimoFonseca21","gender":"0","age":"9","school":"4"},{"start_time":1552070302136,"click_time":1552070303185,"finger_time":1552070302845,"fix_duration":250,"trial":50,"RT":709,"MT":340,"sideResp":2,"stimulus":"img/250/equaldotanddens/R/9_Ratio_250_L_3_R_12.png","xmouse":[759,759,759,759,759,759,759,759,759,760,760,760,760,760,760,760,760,760,760,760,760,760,760,760,760,760,760,760,760,760,763,770,790,804,822,846,875,980,1025,1062,1089,1101,1106,1109,1111,1114,1116,1123,1127,1128,1129,1130,1131],"ymouse":[646,646,646,646,646,646,646,646,646,646,646,646,646,646,646,646,646,646,646,646,646,646,646,646,646,646,646,646,646,645,643,636,615,598,580,559,533,430,383,338,299,269,221,204,191,181,172,146,133,121,110,101,87],"timestamp_mouse":[10,30,49,69,90,109,130,150,169,189,210,229,248,270,289,310,330,348,370,390,410,428,449,469,488,509,530,548,569,589,610,629,649,668,689,709,729,749,770,789,809,829,849,869,889,908,929,949,970,989,1009,1029,1049],"xSR":741.5,"ySR":573.95,"xT1":424.9,"yT1":0,"xT2":1058.1,"yT2":0,"toosoon":0,"cond_shown":"equaldotanddens","ratio_trial":250,"smaller_num":"3","larger_num":"12","correct_side":2,"subjID":"AngelJeronimoFonseca21","gender":"0","age":"9","school":"4"},{"start_time":1552070305998,"click_time":1552070307004,"finger_time":1552070306585,"fix_duration":1450.8812526668048,"trial":51,"RT":587,"MT":419,"sideResp":2,"stimulus":"img/250/equaldotsize/R/6_Ratio_250_L_6_R_24.png","xmouse":[785,785,785,785,785,785,785,785,785,785,785,785,785,785,785,785,785,785,785,785,785,785,785,785,785,785,794,804,815,845,867,889,919,928,952,982,996,1010,1022,1032,1050,1058,1065,1069,1072,1072,1072,1072,1072,1072,1072],"ymouse":[593,593,593,593,593,593,593,593,593,593,593,593,593,593,593,593,593,593,593,593,593,593,593,593,593,593,591,584,574,546,526,507,481,473,452,422,404,387,368,351,315,286,264,245,201,181,162,145,129,101,88],"timestamp_mouse":[12,26,47,68,87,107,127,148,167,187,207,228,248,268,287,307,326,347,367,387,408,426,448,468,487,508,528,548,567,587,606,627,646,667,688,708,728,748,768,788,807,828,847,867,887,907,927,948,967,987,1006],"xSR":741.5,"ySR":573.95,"xT1":424.9,"yT1":0,"xT2":1058.1,"yT2":0,"toosoon":0,"cond_shown":"equaldotsize","ratio_trial":250,"smaller_num":"6","larger_num":"24","correct_side":2,"subjID":"AngelJeronimoFonseca21","gender":"0","age":"9","school":"4"},{"start_time":1552070308747,"click_time":1552070309704,"finger_time":1552070309326,"fix_duration":420.6886751411356,"trial":52,"RT":579,"MT":378,"sideResp":2,"stimulus":"img/250/equaldotanddens/R/10_Ratio_250_L_4_R_16.png","xmouse":[821,821,821,821,821,821,821,821,821,821,821,821,821,821,821,821,821,821,821,821,821,821,821,821,821,821,823,837,853,874,897,918,955,983,1002,1015,1030,1053,1064,1076,1088,1098,1115,1120,1123,1123,1123,1123],"ymouse":[612,612,612,612,612,612,612,612,612,612,612,612,612,612,612,612,612,612,612,612,612,612,612,612,612,612,611,603,590,576,558,542,508,479,460,441,419,370,345,316,286,256,190,167,146,127,111,86],"timestamp_mouse":[18,37,58,79,97,119,139,158,178,197,217,239,258,277,299,317,337,358,379,399,417,439,457,478,497,517,538,558,579,598,617,639,658,679,698,719,737,759,778,799,819,838,859,878,898,919,938,957],"xSR":741.5,"ySR":573.95,"xT1":424.9,"yT1":0,"xT2":1058.1,"yT2":0,"toosoon":0,"cond_shown":"equaldotanddens","ratio_trial":250,"smaller_num":"4","larger_num":"16","correct_side":2,"subjID":"AngelJeronimoFonseca21","gender":"0","age":"9","school":"4"},{"start_time":1552070311158,"click_time":1552070312026,"finger_time":1552070311764,"fix_duration":250,"trial":53,"RT":606,"MT":262,"sideResp":1,"stimulus":"img/250/equaldotsize/L/3_Ratio_250_L_8_R_2.png","xmouse":[792,792,792,792,792,792,792,792,792,792,792,792,792,792,792,792,792,792,792,792,792,792,792,792,792,792,789,777,760,744,725,709,671,655,638,618,601,558,541,523,508,496,480,478],"ymouse":[638,638,638,638,638,637,635,633,632,632,632,631,631,631,631,631,631,631,631,631,631,631,631,631,631,631,628,621,609,595,582,566,524,504,479,449,420,340,299,256,219,187,119,95],"timestamp_mouse":[13,27,56,67,87,107,128,147,166,186,208,228,246,267,288,307,327,346,368,388,408,427,447,467,488,508,527,547,568,587,606,627,647,667,687,708,727,747,766,787,808,826,846,868],"xSR":741.5,"ySR":573.95,"xT1":424.9,"yT1":0,"xT2":1058.1,"yT2":0,"toosoon":0,"cond_shown":"equaldotsize","ratio_trial":250,"smaller_num":"2","larger_num":"8","correct_side":1,"subjID":"AngelJeronimoFonseca21","gender":"0","age":"9","school":"4"},{"start_time":1552070313859,"click_time":1552070315806,"finger_time":1552070315065,"fix_duration":832.8777138331556,"trial":54,"RT":1206,"MT":741,"sideResp":1,"stimulus":"img/900/randomdotsizeEA/R/5_Ratio_900_L_9_R_10.png","xmouse":[795,795,795,795,795,795,795,795,795,795,795,795,795,795,795,795,795,795,795,795,795,795,795,795,795,795,795,795,795,795,795,795,795,795,795,795,795,795,795,795,795,795,795,795,795,795,795,795,795,795,795,795,795,795,795,795,795,800,801,802,802,802,802,802,802,801,800,795,788,783,779,772,759,717,686,629,601,523,431,412,407,405,405,405,405,405,405,405,405,405,405,405,405,405,407,413,424,436],"ymouse":[613,613,613,613,613,613,613,613,613,613,613,613,613,613,613,613,613,613,613,613,613,613,613,613,613,613,613,613,613,613,613,613,613,613,613,613,613,613,613,613,613,613,613,613,613,613,613,613,613,613,613,613,613,613,613,613,612,598,591,581,573,566,555,551,546,537,534,491,468,443,417,386,345,235,175,67,33,0,0,0,0,0,0,0,0,0,0,0,0,0,0,0,0,0,0,5,16,28],"timestamp_mouse":[10,36,46,65,87,106,126,146,166,186,207,227,246,266,286,306,327,346,366,386,406,427,446,466,486,507,526,546,566,586,607,625,647,666,686,706,727,746,766,786,806,825,847,865,885,905,926,947,967,985,1007,1025,1046,1066,1086,1105,1127,1146,1166,1185,1206,1227,1246,1265,1285,1306,1327,1346,1366,1386,1406,1427,1446,1465,1485,1506,1526,1546,1567,1586,1607,1627,1647,1666,1686,1706,1726,1746,1766,1786,1807,1826,1847,1867,1887,1906,1926,1947],"xSR":741.5,"ySR":573.95,"xT1":424.9,"yT1":0,"xT2":1058.1,"yT2":0,"toosoon":0,"cond_shown":"randomdotsizeEA","ratio_trial":900,"smaller_num":"9","larger_num":"10","correct_side":2,"subjID":"AngelJeronimoFonseca21","gender":"0","age":"9","school":"4"},{"start_time":1552070319831,"click_time":1552070321405,"finger_time":1552070320606,"fix_duration":725.7252782109705,"trial":55,"RT":775,"MT":799,"sideResp":2,"stimulus":"img/750/randomdotsizeEA/R/12_Ratio_750_L_3_R_4.png","xmouse":[786,786,786,786,786,786,786,786,786,786,786,786,786,786,786,786,786,786,786,786,786,786,786,786,786,786,786,786,786,786,786,786,786,786,786,786,798,817,864,933,945,953,959,962,965,965,966,967,968,975,979,983,989,993,1006,1016,1026,1040,1055,1066,1086,1093,1099,1103,1107,1107,1107,1107,1107,1107,1107,1107,1107,1107,1107,1107,1107,1106,1105],"ymouse":[643,643,643,643,643,643,643,643,643,643,643,643,643,643,643,643,643,643,643,643,643,643,643,643,643,643,643,643,643,643,643,643,643,643,643,643,634,620,588,539,529,516,504,494,474,472,470,467,465,453,447,440,430,420,382,361,337,310,284,255,208,190,174,159,144,142,142,142,142,142,142,142,142,141,132,122,113,102,93],"timestamp_mouse":[14,43,54,75,94,113,133,154,174,195,214,234,254,275,295,314,333,354,374,395,414,435,455,475,494,515,535,554,574,595,613,635,655,673,693,714,733,754,775,794,814,835,854,875,894,913,934,954,974,994,1014,1034,1053,1075,1094,1115,1133,1155,1174,1193,1213,1234,1254,1275,1294,1313,1335,1354,1373,1393,1414,1434,1454,1473,1494,1515,1534,1554,1574],"xSR":741.5,"ySR":573.95,"xT1":424.9,"yT1":0,"xT2":1058.1,"yT2":0,"toosoon":0,"cond_shown":"randomdotsizeEA","ratio_trial":750,"smaller_num":"3","larger_num":"4","correct_side":2,"subjID":"AngelJeronimoFonseca21","gender":"0","age":"9","school":"4"},{"start_time":1552070324004,"click_time":1552070324985,"finger_time":1552070324826,"fix_duration":1356.8902931985995,"trial":56,"RT":822,"MT":159,"sideResp":2,"stimulus":"img/500/equaldotanddens/R/1_Ratio_500_L_9_R_18.png","xmouse":[793,793,793,793,793,793,793,793,793,793,793,793,793,793,793,793,793,793,793,793,793,793,793,793,793,793,793,793,793,793,793,793,793,793,793,793,793,795,808,819,832,862,882,907,930,974,1048,1089,1123,1146],"ymouse":[620,620,620,620,620,620,620,620,620,620,620,620,620,620,620,620,620,620,620,620,620,620,620,620,620,620,620,620,620,620,620,620,620,620,620,620,620,616,606,596,583,545,517,486,455,387,271,206,143,87],"timestamp_mouse":[10,21,41,61,82,101,121,141,160,180,202,221,242,262,281,301,321,342,361,380,402,421,440,461,482,501,521,