[{"start_time":1552069165770,"click_time":1552069172989,"finger_time":1552069165781,"fix_duration":436.4018406929756,"trial":0,"RT":11,"MT":7208,"sideResp":2,"stimulus":[],"xmouse":[785,785,785,785,785,785,785,785,785,785,785,785,785,785,785,785,785,785,785,785,785,785,785,785,785,785,785,785,785,785,785,785,785,785,785,785,785,785,785,785,785,785,785,785,785,785,785,785,785,785,785,785,785,785,785,785,785,785,785,785,785,785,785,785,785,785,785,785,785,785,785,785,785,785,785,785,785,785,785,785,785,785,785,785,785,785,785,785,785,785,785,785,785,785,785,785,785,785,785,785,785,785,785,785,785,785,785,785,785,785,785,785,785,785,785,785,785,785,785,785,785,785,785,785,785,785,785,785,785,785,785,785,785,785,785,785,785,785,785,785,785,785,785,785,785,785,785,785,785,785,785,785,785,785,785,785,785,785,785,785,785,785,785,785,785,785,785,785,785,785,785,785,785,785,785,785,784,778,773,765,761,761,760,760,758,758,758,758,758,758,758,758,758,758,758,758,758,759,760,763,766,766,769,770,773,773,773,773,773,773,773,773,773,773,773,773,773,773,773,773,773,773,773,773,773,773,773,773,773,773,773,773,773,773,773,773,773,773,773,773,773,773,773,773,773,773,773,773,773,773,773,773,773,773,773,773,773,773,773,773,773,773,773,773,773,773,773,773,773,773,773,773,773,773,773,773,773,773,773,773,773,773,773,773,773,773,773,773,773,773,773,773,773,773,773,773,773,773,773,773,773,773,773,773,773,773,773,775,777,782,830,855,884,917,983,1015,1048,1075,1095,1136,1149,1159,1169,1183,1198,1229,1242,1250,1254,1261,1262,1264,1264,1264,1262,1254,1244,1239,1237,1236,1236,1236,1236,1236,1236,1236,1236,1235,1228,1200,1189,1180,1174,1173,1173,1173,1173,1173,1173,1173,1165,1158],"ymouse":[554,554,554,554,554,554,554,554,554,554,554,554,554,554,554,554,554,554,554,554,554,554,554,554,554,554,554,554,554,554,554,554,554,554,554,554,554,554,554,554,554,554,554,554,554,554,554,554,554,554,554,554,554,554,554,554,554,554,554,554,554,554,554,554,554,554,554,554,554,554,554,554,554,554,554,554,554,554,554,554,554,554,554,554,554,554,554,554,554,554,554,554,554,554,554,554,554,554,554,554,554,554,554,554,554,554,554,554,554,554,554,554,554,554,554,554,554,554,554,554,554,554,554,554,554,554,554,554,554,554,554,554,554,554,554,554,554,554,554,554,554,554,554,554,554,554,554,554,554,554,554,554,554,554,554,554,554,554,554,554,554,554,554,554,554,554,554,554,554,554,554,554,554,554,554,554,555,568,581,594,599,603,607,611,618,618,618,618,618,618,618,618,618,618,618,618,619,619,619,617,616,615,614,614,611,611,611,611,611,611,611,611,611,611,611,611,611,611,611,611,611,611,611,611,611,611,611,611,611,611,611,611,611,611,611,611,611,611,611,611,611,611,611,611,611,611,611,611,611,611,611,611,611,611,611,611,611,611,611,611,611,611,611,611,611,611,611,611,611,611,611,611,611,611,611,611,611,611,611,611,611,611,611,611,611,611,611,611,611,611,611,611,611,611,611,611,611,611,611,611,611,611,611,611,611,611,611,610,608,606,605,605,605,603,589,580,570,562,553,531,522,514,505,489,470,430,412,395,381,350,339,324,305,284,243,219,198,181,172,165,145,142,141,141,141,141,141,140,129,97,86,77,71,69,69,69,69,69,69,69,68,68],"timestamp_mouse":[11,18,39,59,79,99,118,138,158,179,198,218,239,258,278,298,318,339,359,378,398,419,438,459,478,497,518,539,559,579,599,618,639,658,678,698,718,738,759,778,798,818,838,858,877,899,919,939,959,978,999,1017,1038,1059,1078,1098,1118,1139,1159,1178,1199,1219,1238,1257,1279,1299,1319,1338,1358,1378,1398,1419,1438,1458,1478,1498,1518,1538,1559,1578,1598,1618,1639,1659,1678,1698,1718,1737,1758,1779,1798,1819,1839,1858,1878,1898,1918,1938,1959,1978,1999,2019,2039,2059,2077,2098,2118,2137,2157,2179,2199,2218,2239,2259,2279,2298,2318,2339,2359,2378,2398,2418,2439,2458,2478,2498,2519,2539,2559,2577,2598,2618,2639,2658,2678,2698,2717,2738,2758,2779,2798,2818,2838,2859,2878,2898,2918,2938,2959,2978,2998,3019,3039,3058,3078,3099,3118,3139,3159,3178,3198,3218,3238,3259,3279,3298,3317,3338,3359,3378,3399,3418,3438,3459,3479,3499,3518,3538,3559,3578,3599,3618,3639,3658,3678,3698,3719,3738,3759,3777,3798,3817,3839,3858,3877,3899,3919,3938,3959,3978,3999,4018,4038,4058,4078,4098,4119,4138,4159,4177,4198,4217,4239,4257,4277,4299,4317,4338,4359,4378,4399,4418,4439,4459,4478,4498,4519,4538,4559,4578,4599,4618,4639,4658,4678,4699,4718,4738,4759,4778,4799,4819,4837,4857,4877,4899,4918,4939,4958,4978,4999,5019,5039,5059,5078,5098,5118,5137,5159,5178,5199,5219,5239,5258,5278,5298,5319,5339,5357,5377,5398,5417,5437,5458,5478,5497,5518,5538,5559,5578,5598,5619,5639,5659,5678,5698,5718,5738,5757,5778,5799,5818,5839,5859,5878,5899,5918,5938,5959,5978,5999,6018,6039,6058,6078,6099,6119,6138,6159,6177,6198,6218,6239,6258,6278,6298,6318,6338,6359,6379,6398,6419,6438,6458,6478,6498,6518,6539,6558,6578,6597,6618,6638,6659,6678,6698,6719,6739,6759,6779,6798,6818,6838,6858,6878,6899,6919,6938,6959,6978,6997,7019,7039,7059,7079,7098,7118,7139,7159,7178,7198,7218],"xSR":741.5,"ySR":501.8,"xT1":424.9,"yT1":0,"xT2":1058.1,"yT2":0,"toosoon":0,"cond_shown":"Incongruent","ratio_trial":200,"L_num":14,"L_den":30,"R_num":6,"R_den":9,"correct_side":2,"subjID":"AngelJerónimoFonsecaBonilla21","gender":"0","age":"9","school":"4a","test":{"fix_dur":[250,1500],"timestim":1000,"targets_dim":[100,100],"targets_relative_coord":[0.3,0.7],"size_stim":[880,420],"start_dim":[100,100],"size_start":[300,300],"size_fix":60,"samplingrate":20,"img_types":["Congruent","Incongruent"],"ratios":[100,200,300],"rep_conds":19,"nTrials":120,"trials_to_rest":500,"Trials_order":[27,22,115,1,107,71,97,110,31,60,43,95,81,111,76,23,91,117,66,14,11,61,88,49,101,70,84,37,33,44,36,108,64,40,6,50,52,83,19,48,72,41,59,8,46,100,92,65,16,24,53,102,7,73,106,29,69,87,15,77,45,113,82,109,90,114,93,57,54,67,105,75,9,89,35,0,55,38,2,25,112,34,119,21,96,58,118,4,13,104,12,30,3,116,18,63,79,85,103,26,51,80,17,47,39,78,99,42,5,10,28,98,32,20,86,62,74,68,56,94],"cond_shown":["Incongruent","Congruent","Incongruent","Incongruent","Incongruent","Incongruent","Incongruent","Congruent","Incongruent","Congruent","Incongruent","Incongruent","Incongruent","Incongruent","Congruent","Incongruent","Incongruent","Incongruent","Congruent","Congruent","Incongruent","Incongruent","Congruent","Incongruent","Incongruent","Congruent","Congruent","Incongruent","Incongruent","Congruent","Congruent","Congruent","Congruent","Congruent","Congruent","Congruent","Congruent","Incongruent","Incongruent","Congruent","Congruent","Incongruent","Incongruent","Congruent","Congruent","Congruent","Congruent","Incongruent","Congruent","Congruent","Incongruent","Congruent","Incongruent","Incongruent","Congruent","Incongruent","Incongruent","Incongruent","Incongruent","Incongruent","Incongruent","Incongruent","Congruent","Incongruent","Congruent","Congruent","Incongruent","Incongruent","Congruent","Incongruent","Incongruent","Incongruent","Incongruent","Incongruent","Incongruent","Congruent","Incongruent","Congruent","Congruent","Incongruent","Congruent","Congruent","Incongruent","Incongruent","Congruent","Congruent","Congruent","Congruent","Incongruent","Congruent","Congruent","Congruent","Incongruent","Congruent","Congruent","Incongruent","Incongruent","Incongruent","Incongruent","Congruent","Incongruent","Congruent","Incongruent","Incongruent","Incongruent","Congruent","Incongruent","Congruent","Incongruent","Congruent","Congruent","Congruent","Congruent","Congruent","Congruent","Congruent","Congruent","Congruent","Congruent","Congruent"],"ratio_trial":[200,300,100,100,300,300,100,200,100,100,100,300,200,200,300,300,100,200,100,200,300,100,300,100,300,300,100,100,200,200,100,100,300,300,100,200,300,300,100,100,100,300,300,200,300,300,200,300,300,100,300,100,100,100,300,300,200,200,200,300,200,300,300,100,100,100,200,200,100,100,200,200,200,300,300,100,100,200,200,100,300,300,300,200,100,300,300,300,100,200,100,100,200,200,100,200,100,100,100,200,200,200,300,300,200,100,200,100,300,300,300,200,200,200,200,200,200,200,200,300],"left_num":[14,20,6,3,13,4,13,5,8,6,12,7,11,3,20,8,6,7,10,3,13,6,7,6,4,24,8,11,4,9,3,3,5,1,15,3,12,8,9,2,11,13,3,1,2,4,6,4,3,2,4,6,9,13,12,13,1,4,14,4,14,4,5,6,7,2,9,11,6,6,7,3,7,1,2,6,6,5,3,3,5,11,4,11,9,1,5,24,2,5,4,11,4,7,11,7,9,2,2,6,3,4,13,3,7,4,6,11,13,5,11,3,7,3,5,7,4,1,1,2],"right_num":[6,14,7,11,12,2,6,14,6,5,9,8,3,11,14,14,3,12,3,9,12,11,20,7,6,2,2,9,1,13,2,2,6,19,13,11,2,14,20,11,4,12,4,21,10,13,3,6,4,11,2,5,14,12,2,12,2,6,6,8,12,8,6,13,15,11,8,3,15,13,6,11,4,3,6,15,3,14,11,4,7,2,8,3,8,8,6,2,8,14,15,6,1,18,4,4,13,6,8,11,1,3,12,4,8,6,3,4,12,7,1,9,2,11,14,18,3,21,21,10],"left_den":[30,25,10,5,26,20,26,10,16,20,24,10,20,4,25,10,12,10,25,12,26,10,14,10,5,30,16,22,30,30,6,6,25,3,25,10,24,10,10,5,22,26,6,2,20,20,15,5,6,5,20,20,15,26,24,26,3,5,30,5,30,5,25,10,14,5,15,20,12,10,15,4,15,2,4,12,12,10,10,6,25,22,5,20,15,30,25,30,4,10,10,22,30,15,22,15,15,4,4,20,10,10,26,6,10,8,20,22,26,25,22,12,21,10,10,15,8,2,2,20],"right_den":[9,28,14,22,15,4,10,20,10,25,15,20,4,20,28,28,5,24,10,20,15,22,25,14,12,4,5,15,3,26,5,5,12,30,26,22,10,28,25,22,10,15,20,30,25,26,15,12,5,22,4,25,28,20,10,15,15,10,9,16,18,16,12,26,25,22,10,4,25,26,9,20,6,15,30,25,5,20,22,10,14,10,16,4,16,24,12,4,20,20,30,15,3,27,10,6,26,15,20,22,2,15,15,20,16,10,6,10,15,14,5,20,15,22,20,27,10,30,30,25],"correct_side":[2,1,1,1,2,2,2,2,2,1,2,1,2,1,1,1,2,1,1,2,2,1,2,1,1,1,1,2,2,2,1,1,2,2,1,2,1,1,1,2,1,2,1,2,2,2,1,1,2,2,2,1,1,2,1,2,1,1,2,1,2,1,2,1,2,2,2,2,2,1,2,1,2,1,1,2,2,2,2,1,2,1,1,2,1,2,2,1,1,2,2,1,2,2,1,2,1,1,1,2,2,1,2,1,1,2,2,1,2,2,1,2,1,2,2,2,1,2,2,2],"img_shown":["img2/200/Incongruent/R/I_Dist_200_LN_14_LD_30_RN_6_RD_9_1.png","img2/300/Congruent/L/C_Dist_300_LN_20_LD_25_RN_14_RD_28_0.png","img2/100/Incongruent/L/I_Dist_100_LN_6_LD_10_RN_7_RD_14_0.png","img2/100/Incongruent/L/I_Dist_100_LN_3_LD_5_RN_11_RD_22_0.png","img2/300/Incongruent/R/I_Dist_300_LN_13_LD_26_RN_12_RD_15_1.png","img2/300/Incongruent/R/I_Dist_300_LN_4_LD_20_RN_2_RD_4_1.png","img2/100/Incongruent/R/I_Dist_100_LN_13_LD_26_RN_6_RD_10_1.png","img2/200/Congruent/R/C_Dist_200_LN_5_LD_10_RN_14_RD_20_1.png","img2/100/Incongruent/R/I_Dist_100_LN_8_LD_16_RN_6_RD_10_1.png","img2/100/Congruent/L/C_Dist_100_LN_6_LD_20_RN_5_RD_25_0.png","img2/100/Incongruent/R/I_Dist_100_LN_12_LD_24_RN_9_RD_15_1.png","img2/300/Incongruent/L/I_Dist_300_LN_7_LD_10_RN_8_RD_20_0.png","img2/200/Incongruent/R/I_Dist_200_LN_11_LD_20_RN_3_RD_4_1.png","img2/200/Incongruent/L/I_Dist_200_LN_3_LD_4_RN_11_RD_20_0.png","img2/300/Congruent/L/C_Dist_300_LN_20_LD_25_RN_14_RD_28_0.png","img2/300/Incongruent/L/I_Dist_300_LN_8_LD_10_RN_14_RD_28_0.png","img2/100/Incongruent/R/I_Dist_100_LN_6_LD_12_RN_3_RD_5_1.png","img2/200/Incongruent/L/I_Dist_200_LN_7_LD_10_RN_12_RD_24_0.png","img2/100/Congruent/L/C_Dist_100_LN_10_LD_25_RN_3_RD_10_0.png","img2/200/Congruent/R/C_Dist_200_LN_3_LD_12_RN_9_RD_20_1.png","img2/300/Incongruent/R/I_Dist_300_LN_13_LD_26_RN_12_RD_15_1.png","img2/100/Incongruent/L/I_Dist_100_LN_6_LD_10_RN_11_RD_22_0.png","img2/300/Congruent/R/C_Dist_300_LN_7_LD_14_RN_20_RD_25_1.png","img2/100/Incongruent/L/I_Dist_100_LN_6_LD_10_RN_7_RD_14_0.png","img2/300/Incongruent/L/I_Dist_300_LN_4_LD_5_RN_6_RD_12_0.png","img2/300/Congruent/L/C_Dist_300_LN_24_LD_30_RN_2_RD_4_0.png","img2/100/Congruent/L/C_Dist_100_LN_8_LD_16_RN_2_RD_5_0.png","img2/100/Incongruent/R/I_Dist_100_LN_11_LD_22_RN_9_RD_15_1.png","img2/200/Incongruent/R/I_Dist_200_LN_4_LD_30_RN_1_RD_3_1.png","img2/200/Congruent/R/C_Dist_200_LN_9_LD_30_RN_13_RD_26_1.png","img2/100/Congruent/L/C_Dist_100_LN_3_LD_6_RN_2_RD_5_0.png","img2/100/Congruent/L/C_Dist_100_LN_3_LD_6_RN_2_RD_5_0.png","img2/300/Congruent/R/C_Dist_300_LN_5_LD_25_RN_6_RD_12_1.png","img2/300/Congruent/R/C_Dist_300_LN_1_LD_3_RN_19_RD_30_1.png","img2/100/Congruent/L/C_Dist_100_LN_15_LD_25_RN_13_RD_26_0.png","img2/200/Congruent/R/C_Dist_200_LN_3_LD_10_RN_11_RD_22_1.png","img2/300/Congruent/L/C_Dist_300_LN_12_LD_24_RN_2_RD_10_0.png","img2/300/Incongruent/L/I_Dist_300_LN_8_LD_10_RN_14_RD_28_0.png","img2/100/Incongruent/L/I_Dist_100_LN_9_LD_10_RN_20_RD_25_0.png","img2/100/Congruent/R/C_Dist_100_LN_2_LD_5_RN_11_RD_22_1.png","img2/100/Congruent/L/C_Dist_100_LN_11_LD_22_RN_4_RD_10_0.png","img2/300/Incongruent/R/I_Dist_300_LN_13_LD_26_RN_12_RD_15_1.png","img2/300/Incongruent/L/I_Dist_300_LN_3_LD_6_RN_4_RD_20_0.png","img2/200/Congruent/R/C_Dist_200_LN_1_LD_2_RN_21_RD_30_1.png","img2/300/Congruent/R/C_Dist_300_LN_2_LD_20_RN_10_RD_25_1.png","img2/300/Congruent/R/C_Dist_300_LN_4_LD_20_RN_13_RD_26_1.png","img2/200/Congruent/L/C_Dist_200_LN_6_LD_15_RN_3_RD_15_0.png","img2/300/Incongruent/L/I_Dist_300_LN_4_LD_5_RN_6_RD_12_0.png","img2/300/Congruent/R/C_Dist_300_LN_3_LD_6_RN_4_RD_5_1.png","img2/100/Congruent/R/C_Dist_100_LN_2_LD_5_RN_11_RD_22_1.png","img2/300/Incongruent/R/I_Dist_300_LN_4_LD_20_RN_2_RD_4_1.png","img2/100/Congruent/L/C_Dist_100_LN_6_LD_20_RN_5_RD_25_0.png","img2/100/Incongruent/L/I_Dist_100_LN_9_LD_15_RN_14_RD_28_0.png","img2/100/Incongruent/R/I_Dist_100_LN_13_LD_26_RN_12_RD_20_1.png","img2/300/Congruent/L/C_Dist_300_LN_12_LD_24_RN_2_RD_10_0.png","img2/300/Incongruent/R/I_Dist_300_LN_13_LD_26_RN_12_RD_15_1.png","img2/200/Incongruent/L/I_Dist_200_LN_1_LD_3_RN_2_RD_15_0.png","img2/200/Incongruent/L/I_Dist_200_LN_4_LD_5_RN_6_RD_10_0.png","img2/200/Incongruent/R/I_Dist_200_LN_14_LD_30_RN_6_RD_9_1.png","img2/300/Incongruent/L/I_Dist_300_LN_4_LD_5_RN_8_RD_16_0.png","img2/200/Incongruent/R/I_Dist_200_LN_14_LD_30_RN_12_RD_18_1.png","img2/300/Incongruent/L/I_Dist_300_LN_4_LD_5_RN_8_RD_16_0.png","img2/300/Congruent/R/C_Dist_300_LN_5_LD_25_RN_6_RD_12_1.png","img2/100/Incongruent/L/I_Dist_100_LN_6_LD_10_RN_13_RD_26_0.png","img2/100/Congruent/R/C_Dist_100_LN_7_LD_14_RN_15_RD_25_1.png","img2/100/Congruent/R/C_Dist_100_LN_2_LD_5_RN_11_RD_22_1.png","img2/200/Incongruent/R/I_Dist_200_LN_9_LD_15_RN_8_RD_10_1.png","img2/200/Incongruent/R/I_Dist_200_LN_11_LD_20_RN_3_RD_4_1.png","img2/100/Congruent/R/C_Dist_100_LN_6_LD_12_RN_15_RD_25_1.png","img2/100/Incongruent/L/I_Dist_100_LN_6_LD_10_RN_13_RD_26_0.png","img2/200/Incongruent/R/I_Dist_200_LN_7_LD_15_RN_6_RD_9_1.png","img2/200/Incongruent/L/I_Dist_200_LN_3_LD_4_RN_11_RD_20_0.png","img2/200/Incongruent/R/I_Dist_200_LN_7_LD_15_RN_4_RD_6_1.png","img2/300/Incongruent/L/I_Dist_300_LN_1_LD_2_RN_3_RD_15_0.png","img2/300/Incongruent/L/I_Dist_300_LN_2_LD_4_RN_6_RD_30_0.png","img2/100/Congruent/R/C_Dist_100_LN_6_LD_12_RN_15_RD_25_1.png","img2/100/Incongruent/R/I_Dist_100_LN_6_LD_12_RN_3_RD_5_1.png","img2/200/Congruent/R/C_Dist_200_LN_5_LD_10_RN_14_RD_20_1.png","img2/200/Congruent/R/C_Dist_200_LN_3_LD_10_RN_11_RD_22_1.png","img2/100/Incongruent/L/I_Dist_100_LN_3_LD_6_RN_4_RD_10_0.png","img2/300/Congruent/R/C_Dist_300_LN_5_LD_25_RN_7_RD_14_1.png","img2/300/Congruent/L/C_Dist_300_LN_11_LD_22_RN_2_RD_10_0.png","img2/300/Incongruent/L/I_Dist_300_LN_4_LD_5_RN_8_RD_16_0.png","img2/200/Incongruent/R/I_Dist_200_LN_11_LD_20_RN_3_RD_4_1.png","img2/100/Congruent/L/C_Dist_100_LN_9_LD_15_RN_8_RD_16_0.png","img2/300/Congruent/R/C_Dist_300_LN_1_LD_30_RN_8_RD_24_1.png","img2/300/Congruent/R/C_Dist_300_LN_5_LD_25_RN_6_RD_12_1.png","img2/300/Congruent/L/C_Dist_300_LN_24_LD_30_RN_2_RD_4_0.png","img2/100/Incongruent/L/I_Dist_100_LN_2_LD_4_RN_8_RD_20_0.png","img2/200/Congruent/R/C_Dist_200_LN_5_LD_10_RN_14_RD_20_1.png","img2/100/Congruent/R/C_Dist_100_LN_4_LD_10_RN_15_RD_30_1.png","img2/100/Congruent/L/C_Dist_100_LN_11_LD_22_RN_6_RD_15_0.png","img2/200/Incongruent/R/I_Dist_200_LN_4_LD_30_RN_1_RD_3_1.png","img2/200/Congruent/R/C_Dist_200_LN_7_LD_15_RN_18_RD_27_1.png","img2/100/Congruent/L/C_Dist_100_LN_11_LD_22_RN_4_RD_10_0.png","img2/200/Incongruent/R/I_Dist_200_LN_7_LD_15_RN_4_RD_6_1.png","img2/100/Incongruent/L/I_Dist_100_LN_9_LD_15_RN_13_RD_26_0.png","img2/100/Incongruent/L/I_Dist_100_LN_2_LD_4_RN_6_RD_15_0.png","img2/100/Incongruent/L/I_Dist_100_LN_2_LD_4_RN_8_RD_20_0.png","img2/200/Congruent/R/C_Dist_200_LN_6_LD_20_RN_11_RD_22_1.png","img2/200/Incongruent/R/I_Dist_200_LN_3_LD_10_RN_1_RD_2_1.png","img2/200/Congruent/L/C_Dist_200_LN_4_LD_10_RN_3_RD_15_0.png","img2/300/Incongruent/R/I_Dist_300_LN_13_LD_26_RN_12_RD_15_1.png","img2/300/Incongruent/L/I_Dist_300_LN_3_LD_6_RN_4_RD_20_0.png","img2/200/Incongruent/L/I_Dist_200_LN_7_LD_10_RN_8_RD_16_0.png","img2/100/Congruent/R/C_Dist_100_LN_4_LD_8_RN_6_RD_10_1.png","img2/200/Incongruent/R/I_Dist_200_LN_6_LD_20_RN_3_RD_6_1.png","img2/100/Congruent/L/C_Dist_100_LN_11_LD_22_RN_4_RD_10_0.png","img2/300/Incongruent/R/I_Dist_300_LN_13_LD_26_RN_12_RD_15_1.png","img2/300/Congruent/R/C_Dist_300_LN_5_LD_25_RN_7_RD_14_1.png","img2/300/Congruent/L/C_Dist_300_LN_11_LD_22_RN_1_RD_5_0.png","img2/200/Congruent/R/C_Dist_200_LN_3_LD_12_RN_9_RD_20_1.png","img2/200/Congruent/L/C_Dist_200_LN_7_LD_21_RN_2_RD_15_0.png","img2/200/Congruent/R/C_Dist_200_LN_3_LD_10_RN_11_RD_22_1.png","img2/200/Congruent/R/C_Dist_200_LN_5_LD_10_RN_14_RD_20_1.png","img2/200/Congruent/R/C_Dist_200_LN_7_LD_15_RN_18_RD_27_1.png","img2/200/Congruent/L/C_Dist_200_LN_4_LD_8_RN_3_RD_10_0.png","img2/200/Congruent/R/C_Dist_200_LN_1_LD_2_RN_21_RD_30_1.png","img2/200/Congruent/R/C_Dist_200_LN_1_LD_2_RN_21_RD_30_1.png","img2/300/Congruent/R/C_Dist_300_LN_2_LD_20_RN_10_RD_25_1.png"],"dist100_C":[["C_Dist_100_LN_10_LD_25_RN_3_RD_10_0.png","C_Dist_100_LN_11_LD_22_RN_4_RD_10_0.png","C_Dist_100_LN_11_LD_22_RN_6_RD_15_0.png","C_Dist_100_LN_15_LD_25_RN_13_RD_26_0.png","C_Dist_100_LN_3_LD_6_RN_2_RD_5_0.png","C_Dist_100_LN_6_LD_20_RN_5_RD_25_0.png","C_Dist_100_LN_8_LD_16_RN_2_RD_5_0.png","C_Dist_100_LN_9_LD_15_RN_8_RD_16_0.png"],["C_Dist_100_LN_1_LD_2_RN_18_RD_30_1.png","C_Dist_100_LN_1_LD_2_RN_3_RD_5_1.png","C_Dist_100_LN_12_LD_30_RN_13_RD_26_1.png","C_Dist_100_LN_2_LD_5_RN_11_RD_22_1.png","C_Dist_100_LN_2_LD_5_RN_6_RD_12_1.png","C_Dist_100_LN_3_LD_20_RN_4_RD_16_1.png","C_Dist_100_LN_4_LD_10_RN_15_RD_30_1.png","C_Dist_100_LN_4_LD_8_RN_6_RD_10_1.png","C_Dist_100_LN_6_LD_12_RN_15_RD_25_1.png","C_Dist_100_LN_7_LD_14_RN_15_RD_25_1.png","C_Dist_100_LN_7_LD_14_RN_9_RD_15_1.png"]],"dist100_I":[["I_Dist_100_LN_1_LD_2_RN_8_RD_20_0.png","I_Dist_100_LN_2_LD_4_RN_6_RD_15_0.png","I_Dist_100_LN_2_LD_4_RN_8_RD_20_0.png","I_Dist_100_LN_3_LD_5_RN_11_RD_22_0.png","I_Dist_100_LN_3_LD_5_RN_8_RD_16_0.png","I_Dist_100_LN_3_LD_6_RN_4_RD_10_0.png","I_Dist_100_LN_3_LD_9_RN_7_RD_30_0.png","I_Dist_100_LN_4_LD_8_RN_8_RD_20_0.png","I_Dist_100_LN_6_LD_10_RN_11_RD_22_0.png","I_Dist_100_LN_6_LD_10_RN_13_RD_26_0.png","I_Dist_100_LN_6_LD_10_RN_7_RD_14_0.png","I_Dist_100_LN_9_LD_10_RN_20_RD_25_0.png","I_Dist_100_LN_9_LD_15_RN_13_RD_26_0.png","I_Dist_100_LN_9_LD_15_RN_14_RD_28_0.png"],["I_Dist_100_LN_10_LD_25_RN_8_RD_16_1.png","I_Dist_100_LN_10_LD_25_RN_9_RD_18_1.png","I_Dist_100_LN_11_LD_22_RN_9_RD_15_1.png","I_Dist_100_LN_12_LD_24_RN_9_RD_15_1.png","I_Dist_100_LN_12_LD_30_RN_2_RD_4_1.png","I_Dist_100_LN_13_LD_26_RN_12_RD_20_1.png","I_Dist_100_LN_13_LD_26_RN_6_RD_10_1.png","I_Dist_100_LN_17_LD_30_RN_10_RD_15_1.png","I_Dist_100_LN_6_LD_12_RN_3_RD_5_1.png","I_Dist_100_LN_8_LD_16_RN_6_RD_10_1.png","I_Dist_100_LN_8_LD_20_RN_1_RD_2_1.png","I_Dist_100_LN_9_LD_18_RN_6_RD_10_1.png"]],"dist100_S":[["E_Dist_100_LN_2_LD_12_RN_2_RD_30_0.png","E_Dist_100_LN_6_LD_10_RN_6_RD_12_0.png"],["E_Dist_100_LN_6_LD_12_RN_6_RD_10_1.png"]],"dist200_C":[["C_Dist_200_LN_11_LD_22_RN_3_RD_10_0.png","C_Dist_200_LN_12_LD_15_RN_6_RD_10_0.png","C_Dist_200_LN_12_LD_20_RN_6_RD_15_0.png","C_Dist_200_LN_14_LD_28_RN_6_RD_20_0.png","C_Dist_200_LN_15_LD_25_RN_4_RD_10_0.png","C_Dist_200_LN_16_LD_20_RN_12_RD_20_0.png","C_Dist_200_LN_16_LD_30_RN_9_RD_27_0.png","C_Dist_200_LN_20_LD_25_RN_9_RD_15_0.png","C_Dist_200_LN_21_LD_30_RN_2_RD_4_0.png","C_Dist_200_LN_4_LD_10_RN_3_RD_15_0.png","C_Dist_200_LN_4_LD_8_RN_3_RD_10_0.png","C_Dist_200_LN_6_LD_15_RN_3_RD_15_0.png","C_Dist_200_LN_7_LD_21_RN_2_RD_15_0.png","C_Dist_200_LN_8_LD_15_RN_2_RD_6_0.png","C_Dist_200_LN_8_LD_15_RN_3_RD_9_0.png","C_Dist_200_LN_8_LD_15_RN_7_RD_21_0.png","C_Dist_200_LN_9_LD_20_RN_4_RD_16_0.png"],["C_Dist_200_LN_1_LD_2_RN_21_RD_30_1.png","C_Dist_200_LN_13_LD_26_RN_14_RD_20_1.png","C_Dist_200_LN_3_LD_10_RN_11_RD_22_1.png","C_Dist_200_LN_3_LD_10_RN_14_RD_28_1.png","C_Dist_200_LN_3_LD_10_RN_7_RD_14_1.png","C_Dist_200_LN_3_LD_12_RN_9_RD_20_1.png","C_Dist_200_LN_3_LD_6_RN_14_RD_20_1.png","C_Dist_200_LN_5_LD_10_RN_14_RD_20_1.png","C_Dist_200_LN_6_LD_12_RN_7_RD_10_1.png","C_Dist_200_LN_6_LD_20_RN_11_RD_22_1.png","C_Dist_200_LN_7_LD_15_RN_18_RD_27_1.png","C_Dist_200_LN_9_LD_30_RN_13_RD_26_1.png"]],"dist200_I":[["I_Dist_200_LN_1_LD_2_RN_3_RD_10_0.png","I_Dist_200_LN_1_LD_3_RN_2_RD_15_0.png","I_Dist_200_LN_3_LD_4_RN_11_RD_20_0.png","I_Dist_200_LN_4_LD_5_RN_6_RD_10_0.png","I_Dist_200_LN_4_LD_6_RN_14_RD_30_0.png","I_Dist_200_LN_7_LD_10_RN_12_RD_24_0.png","I_Dist_200_LN_7_LD_10_RN_14_RD_28_0.png","I_Dist_200_LN_7_LD_10_RN_8_RD_16_0.png"],["I_Dist_200_LN_11_LD_20_RN_3_RD_4_1.png","I_Dist_200_LN_14_LD_30_RN_12_RD_18_1.png","I_Dist_200_LN_14_LD_30_RN_6_RD_9_1.png","I_Dist_200_LN_3_LD_10_RN_1_RD_2_1.png","I_Dist_200_LN_4_LD_30_RN_1_RD_3_1.png","I_Dist_200_LN_6_LD_20_RN_3_RD_6_1.png","I_Dist_200_LN_7_LD_15_RN_4_RD_6_1.png","I_Dist_200_LN_7_LD_15_RN_6_RD_9_1.png","I_Dist_200_LN_9_LD_15_RN_8_RD_10_1.png"]],"dist200_S":[["E_Dist_200_LN_3_LD_6_RN_3_RD_10_0.png"],["E_Dist_200_LN_3_LD_10_RN_3_RD_6_1.png"]],"dist300_C":[["C_Dist_300_LN_11_LD_22_RN_1_RD_5_0.png","C_Dist_300_LN_11_LD_22_RN_2_RD_10_0.png","C_Dist_300_LN_11_LD_22_RN_4_RD_20_0.png","C_Dist_300_LN_12_LD_24_RN_2_RD_10_0.png","C_Dist_300_LN_18_LD_20_RN_9_RD_15_0.png","C_Dist_300_LN_20_LD_25_RN_13_RD_26_0.png","C_Dist_300_LN_20_LD_25_RN_14_RD_28_0.png","C_Dist_300_LN_20_LD_25_RN_5_RD_10_0.png","C_Dist_300_LN_20_LD_25_RN_8_RD_16_0.png","C_Dist_300_LN_20_LD_25_RN_9_RD_18_0.png","C_Dist_300_LN_24_LD_30_RN_2_RD_4_0.png","C_Dist_300_LN_24_LD_30_RN_8_RD_16_0.png","C_Dist_300_LN_3_LD_6_RN_2_RD_10_0.png","C_Dist_300_LN_4_LD_10_RN_1_RD_10_0.png","C_Dist_300_LN_4_LD_5_RN_2_RD_4_0.png","C_Dist_300_LN_8_LD_16_RN_1_RD_5_0.png","C_Dist_300_LN_9_LD_10_RN_3_RD_5_0.png"],["C_Dist_300_LN_1_LD_20_RN_7_RD_20_1.png","C_Dist_300_LN_1_LD_3_RN_19_RD_30_1.png","C_Dist_300_LN_1_LD_30_RN_8_RD_24_1.png","C_Dist_300_LN_1_LD_5_RN_11_RD_22_1.png","C_Dist_300_LN_1_LD_5_RN_3_RD_6_1.png","C_Dist_300_LN_1_LD_5_RN_6_RD_12_1.png","C_Dist_300_LN_2_LD_10_RN_12_RD_24_1.png","C_Dist_300_LN_2_LD_20_RN_10_RD_25_1.png","C_Dist_300_LN_3_LD_12_RN_11_RD_20_1.png","C_Dist_300_LN_3_LD_6_RN_4_RD_5_1.png","C_Dist_300_LN_4_LD_20_RN_13_RD_26_1.png","C_Dist_300_LN_5_LD_25_RN_6_RD_12_1.png","C_Dist_300_LN_5_LD_25_RN_7_RD_14_1.png","C_Dist_300_LN_7_LD_14_RN_20_RD_25_1.png","C_Dist_300_LN_8_LD_15_RN_10_RD_12_1.png"]],"dist300_I":[["I_Dist_300_LN_1_LD_2_RN_2_RD_10_0.png","I_Dist_300_LN_1_LD_2_RN_3_RD_15_0.png","I_Dist_300_LN_2_LD_4_RN_6_RD_30_0.png","I_Dist_300_LN_3_LD_6_RN_4_RD_20_0.png","I_Dist_300_LN_4_LD_5_RN_6_RD_12_0.png","I_Dist_300_LN_4_LD_5_RN_8_RD_16_0.png","I_Dist_300_LN_7_LD_10_RN_8_RD_20_0.png","I_Dist_300_LN_8_LD_10_RN_14_RD_28_0.png","I_Dist_300_LN_8_LD_10_RN_9_RD_18_0.png"],["I_Dist_300_LN_13_LD_26_RN_12_RD_15_1.png","I_Dist_300_LN_4_LD_20_RN_2_RD_4_1.png"]],"dist300_S":[["E_Dist_300_LN_9_LD_12_RN_9_RD_20_0.png"],["E_Dist_300_LN_18_LD_30_RN_18_RD_20_1.png","E_Dist_300_LN_3_LD_10_RN_3_RD_5_1.png","E_Dist_300_LN_9_LD_20_RN_9_RD_12_1.png"]],"dist500_C":[["C_Dist_500_LN_10_LD_13_RN_7_RD_26_0.png","C_Dist_500_LN_10_LD_15_RN_4_RD_24_0.png","C_Dist_500_LN_12_LD_16_RN_3_RD_12_0.png","C_Dist_500_LN_12_LD_18_RN_4_RD_24_0.png","C_Dist_500_LN_15_LD_18_RN_5_RD_15_0.png","C_Dist_500_LN_15_LD_20_RN_1_RD_4_0.png","C_Dist_500_LN_18_LD_27_RN_1_RD_6_0.png","C_Dist_500_LN_20_LD_24_RN_1_RD_3_0.png","C_Dist_500_LN_20_LD_24_RN_3_RD_9_0.png","C_Dist_500_LN_20_LD_24_RN_7_RD_21_0.png","C_Dist_500_LN_20_LD_28_RN_3_RD_14_0.png","C_Dist_500_LN_21_LD_28_RN_6_RD_24_0.png","C_Dist_500_LN_22_LD_28_RN_2_RD_7_0.png","C_Dist_500_LN_25_LD_30_RN_9_RD_27_0.png","C_Dist_500_LN_4_LD_6_RN_1_RD_6_0.png","C_Dist_500_LN_5_LD_6_RN_2_RD_6_0.png","C_Dist_500_LN_6_LD_9_RN_1_RD_6_0.png","C_Dist_500_LN_7_LD_10_RN_1_RD_5_0.png","C_Dist_500_LN_8_LD_12_RN_1_RD_6_0.png","C_Dist_500_LN_8_LD_12_RN_4_RD_24_0.png"],["C_Dist_500_LN_1_LD_4_RN_12_RD_16_1.png","C_Dist_500_LN_1_LD_4_RN_9_RD_12_1.png","C_Dist_500_LN_1_LD_9_RN_11_RD_18_1.png","C_Dist_500_LN_10_LD_24_RN_22_RD_24_1.png","C_Dist_500_LN_2_LD_12_RN_10_RD_15_1.png","C_Dist_500_LN_2_LD_12_RN_12_RD_18_1.png","C_Dist_500_LN_2_LD_12_RN_4_RD_6_1.png","C_Dist_500_LN_2_LD_24_RN_7_RD_12_1.png","C_Dist_500_LN_2_LD_5_RN_18_RD_20_1.png","C_Dist_500_LN_2_LD_5_RN_9_RD_10_1.png","C_Dist_500_LN_2_LD_8_RN_12_RD_16_1.png","C_Dist_500_LN_2_LD_8_RN_21_RD_28_1.png","C_Dist_500_LN_3_LD_10_RN_4_RD_5_1.png","C_Dist_500_LN_3_LD_12_RN_15_RD_20_1.png","C_Dist_500_LN_3_LD_30_RN_6_RD_10_1.png","C_Dist_500_LN_3_LD_8_RN_14_RD_16_1.png","C_Dist_500_LN_4_LD_16_RN_15_RD_20_1.png","C_Dist_500_LN_4_LD_24_RN_12_RD_18_1.png","C_Dist_500_LN_5_LD_14_RN_6_RD_7_1.png","C_Dist_500_LN_7_LD_21_RN_20_RD_24_1.png","C_Dist_500_LN_7_LD_28_RN_12_RD_16_1.png","C_Dist_500_LN_7_LD_28_RN_9_RD_12_1.png","C_Dist_500_LN_9_LD_27_RN_20_RD_24_1.png"]],"dist500_I":[["I_Dist_500_LN_2_LD_3_RN_4_RD_24_0.png","I_Dist_500_LN_5_LD_6_RN_6_RD_18_0.png","I_Dist_500_LN_7_LD_8_RN_9_RD_24_0.png"],["I_Dist_500_LN_7_LD_21_RN_5_RD_6_1.png"]],"dist500_S":[["E_Dist_500_LN_6_LD_8_RN_6_RD_24_0.png"],["E_Dist_500_LN_2_LD_12_RN_2_RD_3_1.png","E_Dist_500_LN_6_LD_24_RN_6_RD_8_1.png"]]}},{"start_time":1552069175522,"click_time":1552069179388,"finger_time":1552069177909,"fix_duration":752.0693338476107,"trial":1,"RT":2387,"MT":1479,"sideResp":1,"stimulus":[],"xmouse":[784,784,784,784,784,784,784,784,784,784,784,784,784,784,784,784,784,784,784,784,784,784,784,784,784,784,784,784,784,784,784,784,784,784,784,784,784,784,784,784,784,784,784,784,784,784,784,784,784,784,784,784,784,784,784,784,784,784,784,784,784,784,784,784,784,784,784,784,784,784,784,784,784,784,784,784,784,784,784,784,784,784,784,784,784,784,784,784,784,784,784,784,784,784,784,784,784,784,784,784,784,784,784,784,784,784,784,784,784,784,784,784,784,784,784,784,784,784,780,778,774,770,766,765,762,760,758,751,745,731,719,709,690,681,670,661,655,648,645,642,640,634,631,630,629,628,626,622,619,599,580,564,550,535,535,535,535,535,535,535,535,535,535,535,535,535,535,535,535,535,535,535,535,534,533,532,532,532,532,532,532,532,532,532,532,532,532,532,532,532,531,528,523,520],"ymouse":[605,605,605,605,605,605,605,605,605,605,605,605,605,605,605,605,605,605,605,605,605,605,605,605,605,605,605,605,605,605,605,605,605,605,605,605,605,605,605,605,605,605,605,605,605,605,605,605,605,605,605,605,605,605,605,605,605,605,605,605,605,605,605,605,605,605,605,605,605,605,605,605,605,605,605,605,605,605,605,605,605,605,605,605,605,605,605,605,605,605,605,605,605,605,605,605,605,605,605,605,605,605,605,605,605,605,605,605,605,605,605,605,605,605,605,605,605,605,577,562,527,500,464,454,444,438,432,425,418,401,387,372,346,335,320,303,289,269,262,253,243,230,221,219,217,216,214,211,207,193,179,168,157,146,146,146,146,146,146,146,146,146,146,146,146,146,146,146,146,146,146,146,145,142,141,140,140,140,140,139,139,139,139,139,139,139,139,139,139,139,136,128,108,98],"timestamp_mouse":[10,26,47,66,86,105,127,147,166,187,206,226,247,266,287,306,327,346,366,385,407,427,447,466,487,506,527,546,567,586,605,627,647,666,686,707,727,746,766,786,807,827,847,867,885,907,927,947,967,986,1006,1026,1046,1066,1087,1107,1126,1147,1166,1186,1206,1226,1246,1266,1287,1306,1326,1346,1366,1386,1407,1427,1446,1466,1487,1506,1527,1546,1565,1586,1607,1627,1646,1665,1687,1706,1726,1745,1767,1787,1807,1826,1846,1866,1887,1906,1927,1946,1965,1987,2006,2027,2047,2065,2087,2106,2127,2145,2167,2187,2207,2227,2246,2267,2286,2306,2327,2346,2367,2387,2407,2427,2446,2466,2486,2506,2525,2546,2567,2586,2607,2626,2645,2666,2686,2706,2726,2746,2765,2786,2806,2827,2846,2866,2886,2905,2927,2946,2966,2986,3006,3026,3046,3067,3087,3106,3126,3147,3166,3185,3207,3226,3246,3267,3286,3306,3325,3345,3366,3386,3407,3426,3446,3465,3486,3506,3526,3546,3566,3587,3606,3626,3645,3666,3686,3707,3726,3746,3766,3786,3807,3826,3846,3866],"xSR":741.5,"ySR":573.95,"xT1":424.9,"yT1":0,"xT2":1058.1,"yT2":0,"toosoon":0,"cond_shown":"Congruent","ratio_trial":300,"L_num":20,"L_den":25,"R_num":14,"R_den":28,"correct_side":1,"subjID":"AngelJerónimoFonsecaBonilla21","gender":"0","school":"4a","age":"9"},{"start_time":1552069183190,"click_time":1552069185789,"finger_time":1552069184708,"fix_duration":979.0376591584185,"trial":2,"RT":1518,"MT":1081,"sideResp":2,"stimulus":[],"xmouse":[796,796,796,796,796,796,796,796,796,796,796,796,796,796,796,796,796,796,796,796,796,796,796,796,796,796,796,796,796,796,796,796,796,796,796,796,796,796,796,796,796,796,796,796,796,796,796,796,796,796,796,796,796,796,796,796,796,796,796,796,796,796,796,796,796,796,796,796,796,796,796,796,796,796,832,869,893,916,975,1000,1027,1054,1075,1088,1102,1105,1110,1117,1125,1135,1139,1142,1143,1144,1144,1141,1136,1126,1108,1086,1086,1086,1086,1088,1092,1094,1096,1098,1099,1100,1100,1100,1103,1104,1105,1105,1105,1105,1105,1105,1105,1105,1106,1106,1106,1106,1106,1106,1106,1106],"ymouse":[625,625,625,625,625,625,625,625,625,625,625,625,625,625,625,625,625,625,625,625,625,625,625,625,625,625,625,625,625,625,625,625,625,625,625,625,625,625,625,625,625,625,625,625,625,625,625,625,625,625,625,625,625,625,625,625,625,625,625,625,625,625,625,625,625,625,625,625,625,625,625,625,625,625,608,601,597,591,565,549,532,516,505,494,481,478,472,463,449,421,406,385,377,359,337,322,305,277,232,181,168,159,151,145,137,133,130,128,128,127,127,127,124,121,112,107,104,104,104,104,103,102,100,100,100,100,100,100,100,99],"timestamp_mouse":[19,42,59,78,98,119,138,158,179,198,218,239,259,277,298,318,338,357,379,399,417,439,459,479,499,519,538,559,579,599,618,639,657,677,699,718,739,759,778,797,818,839,858,878,899,918,939,958,978,999,1019,1039,1058,1079,1097,1119,1139,1158,1178,1198,1219,1239,1259,1279,1297,1319,1339,1359,1378,1398,1417,1438,1459,1477,1498,1518,1539,1559,1579,1598,1618,1639,1658,1678,1698,1718,1738,1758,1779,1797,1819,1837,1859,1878,1897,1918,1938,1959,1978,1998,2019,2038,2059,2078,2098,2118,2138,2158,2178,2198,2219,2238,2259,2278,2298,2318,2338,2357,2378,2399,2419,2438,2458,2479,2499,2518,2538,2558,2579,2598],"xSR":741.5,"ySR":573.95,"xT1":424.9,"yT1":0,"xT2":1058.1,"yT2":0,"toosoon":0,"cond_shown":"Incongruent","ratio_trial":100,"L_num":6,"L_den":10,"R_num":7,"R_den":14,"correct_side":1,"subjID":"AngelJerónimoFonsecaBonilla21","gender":"0","school":"4a","age":"9"},{"start_time":1552069191282,"click_time":1552069194329,"finger_time":1552069193348,"fix_duration":671.5715530932251,"trial":3,"RT":2066,"MT":981,"sideResp":2,"stimulus":[],"xmouse":[783,783,783,783,783,783,783,783,783,783,783,783,783,783,783,783,783,783,783,783,783,783,783,783,783,783,783,783,783,783,783,783,783,783,783,783,783,783,783,783,783,783,783,783,783,783,783,783,783,783,783,783,783,783,783,783,783,783,783,783,783,783,783,783,783,783,783,783,783,783,783,783,783,783,783,783,783,783,783,783,783,783,783,783,783,783,783,783,783,783,783,783,783,783,783,783,783,783,783,783,786,808,836,881,929,973,1073,1122,1170,1226,1273,1351,1380,1406,1419,1432,1430,1422,1413,1401,1391,1366,1348,1326,1313,1306,1300,1298,1297,1294,1289,1276,1268,1264,1259,1252,1242,1242,1239,1236,1231,1220,1215,1202,1190,1181,1172,1170,1168,1168,1168,1164,1157],"ymouse":[630,630,630,630,630,630,630,630,630,630,630,630,630,630,630,630,630,630,630,630,630,630,630,630,630,630,630,630,630,630,630,630,630,630,630,630,630,630,630,630,630,630,630,630,630,630,630,630,630,630,630,630,630,630,630,630,630,630,630,630,630,630,630,630,630,630,630,630,630,630,630,630,630,630,630,630,630,630,630,630,630,630,630,630,630,630,630,630,630,630,630,630,630,630,630,630,630,630,630,630,627,614,598,572,543,509,411,355,298,241,193,104,67,31,9,0,0,0,0,0,0,0,0,0,0,0,1,1,2,3,6,10,14,16,19,21,25,25,26,28,29,31,33,36,38,39,39,40,40,40,40,41,43],"timestamp_mouse":[10,35,46,65,86,107,127,147,166,187,205,225,247,266,287,307,326,347,367,386,407,426,446,466,485,505,527,547,566,585,606,625,646,666,686,707,726,746,767,787,806,827,847,866,887,907,926,947,967,986,1006,1027,1047,1066,1086,1106,1126,1147,1167,1185,1207,1227,1247,1267,1287,1307,1327,1347,1367,1387,1407,1426,1447,1465,1487,1506,1526,1545,1567,1586,1606,1626,1646,1666,1686,1706,1727,1746,1767,1786,1807,1826,1847,1866,1885,1907,1927,1946,1966,1987,2006,2026,2047,2066,2086,2107,2126,2146,2166,2186,2206,2226,2246,2266,2286,2306,2326,2346,2366,2385,2406,2426,2447,2467,2485,2505,2526,2546,2566,2585,2607,2627,2647,2667,2686,2706,2726,2746,2767,2786,2805,2826,2846,2866,2886,2907,2926,2946,2967,2986,3007,3026,3047],"xSR":741.5,"ySR":573.95,"xT1":424.9,"yT1":0,"xT2":1058.1,"yT2":0,"toosoon":0,"cond_shown":"Incongruent","ratio_trial":100,"L_num":3,"L_den":5,"R_num":11,"R_den":22,"correct_side":1,"subjID":"AngelJerónimoFonsecaBonilla21","gender":"0","school":"4a","age":"9"},{"start_time":1552069198826,"click_time":1552069202229,"finger_time":1552069201588,"fix_duration":1015.8330568795797,"trial":4,"RT":2762,"MT":641,"sideResp":2,"stimulus":[],"xmouse":[802,802,802,802,802,802,802,802,802,802,802,802,802,802,802,802,802,802,802,802,802,802,802,802,802,802,802,802,802,802,802,802,802,802,802,802,802,802,802,802,802,802,802,802,802,802,802,802,802,802,802,802,802,802,802,802,802,802,802,802,802,802,802,802,802,802,802,802,802,802,802,802,802,802,802,802,802,802,802,802,802,802,802,802,802,802,802,802,802,802,802,802,802,802,802,802,802,802,802,802,802,802,802,802,802,802,802,802,802,802,802,802,802,802,802,802,802,802,802,802,802,802,802,802,802,802,802,802,802,802,802,802,802,802,802,817,829,841,856,898,924,953,984,992,1001,1011,1011,1011,1011,1012,1015,1017,1018,1018,1018,1020,1021,1022,1024,1026,1031,1034,1037,1040,1042,1049,1055,1059,1063,1065,1069],"ymouse":[628,628,628,628,628,628,628,628,628,628,628,628,628,628,628,628,628,628,628,628,628,628,628,628,628,628,628,628,628,628,628,628,628,628,628,628,628,628,628,628,628,628,628,628,628,628,628,628,628,628,628,628,628,628,628,628,628,628,628,628,628,628,628,628,628,628,628,628,628,628,628,628,628,628,628,628,628,628,628,628,628,628,628,628,628,628,628,628,628,628,628,628,628,628,628,628,628,628,628,628,628,628,628,628,628,628,628,628,628,628,628,628,628,628,628,628,628,628,628,628,628,628,628,628,628,628,628,628,628,628,628,628,628,628,629,611,596,584,570,517,474,426,370,355,329,276,257,241,229,218,197,188,184,178,174,170,167,164,161,157,151,146,143,140,136,123,116,109,104,102,98],"timestamp_mouse":[17,30,44,61,82,103,122,142,162,182,202,223,241,262,282,303,322,343,362,383,403,423,442,462,482,503,523,543,561,583,603,623,643,661,683,703,723,742,763,781,803,823,842,861,883,903,923,942,963,983,1002,1022,1041,1063,1083,1103,1121,1142,1163,1181,1201,1221,1241,1262,1283,1303,1321,1342,1362,1382,1403,1422,1443,1462,1483,1503,1521,1543,1562,1583,1602,1623,1643,1661,1683,1703,1722,1742,1763,1782,1803,1823,1842,1862,1883,1903,1922,1941,1962,1983,2002,2023,2043,2062,2081,2102,2123,2143,2163,2182,2201,2221,2242,2262,2283,2302,2323,2342,2363,2381,2401,2422,2443,2463,2482,2502,2522,2542,2563,2583,2602,2623,2643,2662,2682,2702,2722,2742,2762,2783,2802,2823,2842,2862,2882,2902,2923,2941,2962,2983,3002,3022,3042,3061,3082,3102,3122,3142,3162,3182,3202,3223,3242,3262,3282,3302,3322,3342,3362,3383,3403],"xSR":741.5,"ySR":573.95,"xT1":424.9,"yT1":0,"xT2":1058.1,"yT2":0,"toosoon":0,"cond_shown":"Incongruent","ratio_trial":300,"L_num":13,"L_den":26,"R_num":12,"R_den":15,"correct_side":2,"subjID":"AngelJerónimoFonsecaBonilla21","gender":"0","school":"4a","age":"9"},{"start_time":1552069205241,"click_time":1552069208008,"finger_time":1552069207889,"fix_duration":892.3802143077097,"trial":5,"RT":2648,"MT":119,"sideResp":1,"stimulus":[],"xmouse":[802,802,802,802,802,802,802,802,802,802,802,802,802,802,802,802,802,802,802,802,802,802,802,802,802,802,802,802,802,802,802,802,802,802,802,802,802,802,802,802,802,802,802,802,802,802,802,802,802,802,802,802,802,802,802,802,802,802,802,802,802,802,802,802,802,802,802,802,802,802,802,802,802,802,802,802,802,802,802,802,802,802,802,802,802,802,802,802,802,802,802,802,802,802,802,802,802,802,802,802,802,802,802,802,802,802,802,802,802,802,802,802,802,802,802,802,802,802,802,802,802,802,802,802,802,802,802,802,802,802,802,802,786,756,716,612,557,509,465],"ymouse":[619,619,619,619,619,619,619,619,619,619,619,619,619,619,619,619,619,619,619,619,619,619,619,619,619,619,619,619,619,619,619,619,619,619,619,619,619,619,619,619,619,619,619,619,619,619,619,619,619,619,619,619,619,619,619,619,619,619,619,619,619,619,619,619,619,619,619,619,619,619,619,619,619,619,619,619,619,619,619,619,619,619,619,619,619,619,619,619,619,619,619,619,619,619,619,619,619,619,619,619,619,619,619,619,619,619,619,619,619,619,619,619,619,619,619,619,619,619,619,619,619,619,619,619,619,619,619,619,619,619,619,618,573,508,436,277,201,120,43],"timestamp_mouse":[11,27,53,67,87,108,128,148,168,187,207,227,248,268,287,308,326,347,368,387,408,428,448,467,486,507,528,548,567,586,606,626,647,668,687,707,726,748,768,787,806,828,848,867,886,908,928,948,967,987,1007,1027,1047,1066,1087,1106,1127,1147,1166,1187,1206,1226,1247,1267,1287,1308,1327,1348,1368,1387,1407,1426,1448,1467,1487,1506,1527,1547,1566,1586,1607,1628,1647,1668,1687,1707,1728,1747,1767,1788,1808,1827,1846,1867,1887,1906,1928,1946,1968,1987,2008,2027,2047,2066,2087,2108,2128,2147,2168,2187,2208,2228,2248,2268,2287,2308,2334,2346,2367,2387,2407,2428,2447,2468,2486,2507,2527,2547,2567,2587,2608,2627,2648,2667,2687,2706,2727,2747,2767],"xSR":741.5,"ySR":573.95,"xT1":424.9,"yT1":0,"xT2":1058.1,"yT2":0,"toosoon":0,"cond_shown":"Incongruent","ratio_trial":300,"L_num":4,"L_den":20,"R_num":2,"R_den":4,"correct_side":2,"subjID":"AngelJerónimoFonsecaBonilla21","gender":"0","school":"4a","age":"9"},{"start_time":1552069213604,"click_time":1552069217988,"finger_time":1552069215607,"fix_duration":534.8563369049475,"trial":6,"RT":2003,"MT":2381,"sideResp":2,"stimulus":[],"xmouse":[813,813,813,813,813,813,813,813,813,813,813,813,813,813,813,813,813,813,813,813,813,813,813,813,813,813,813,813,813,813,813,813,813,813,813,813,813,813,813,813,813,813,813,813,813,813,813,813,813,813,813,813,813,813,813,813,813,813,813,813,813,813,813,813,813,813,813,813,813,813,813,813,813,813,813,813,813,813,813,813,813,813,818,825,830,834,837,838,838,838,838,838,838,838,838,838,838,838,838,838,843,846,861,873,886,903,919,954,977,986,993,999,1005,1015,1020,1026,1030,1038,1040,1040,1040,1040,1036,1035,1035,1034,1034,1034,1034,1034,1034,1034,1034,1034,1035,1035,1035,1035,1035,1035,1035,1035,1035,1035,1035,1035,1035,1035,1035,1035,1035,1035,1035,1035,1035,1035,1035,1035,1035,1035,1035,1035,1035,1035,1035,1035,1035,1035,1035,1035,1035,1035,1035,1035,1035,1035,1035,1035,1035,1035,1035,1035,1035,1035,1035,1035,1035,1035,1035,1035,1035,1035,1035,1035,1035,1035,1035,1035,1035,1035,1035,1035,1035,1035,1035,1035,1035,1035,1035,1035,1035,1035,1035,1035,1035,1035,1035,1035,1051,1138],"ymouse":[657,657,657,657,657,657,657,657,657,657,657,657,657,657,657,657,657,657,657,657,657,657,657,657,657,657,657,657,657,657,657,657,657,657,657,657,657,657,657,657,657,657,657,657,657,657,657,657,657,657,657,657,657,657,657,657,657,657,657,657,657,657,657,657,657,657,657,657,657,657,657,657,657,657,657,657,657,657,657,657,657,657,653,639,627,616,605,592,589,588,588,588,588,588,588,588,588,588,588,588,579,569,537,518,501,479,457,405,365,342,325,311,298,276,264,251,239,218,200,189,178,167,146,136,126,118,106,97,80,74,70,68,64,64,63,63,63,63,63,63,63,63,63,63,63,63,63,63,63,63,63,63,63,63,63,63,63,63,63,63,63,63,63,63,63,63,63,63,63,63,63,63,63,63,63,63,63,63,63,63,63,63,63,63,63,63,63,63,63,63,63,63,63,63,63,63,63,63,63,63,63,63,63,63,63,63,63,63,63,63,63,63,63,63,63,63,63,63,61,60],"timestamp_mouse":[10,23,45,65,85,105,123,144,165,185,204,225,244,264,285,304,325,344,364,385,404,425,444,465,484,505,524,544,564,584,604,625,644,664,684,705,725,744,764,785,804,825,844,864,883,905,925,944,964,984,1003,1024,1044,1065,1083,1105,1124,1144,1164,1184,1204,1225,1244,1265,1285,1305,1324,1344,1364,1385,1404,1425,1444,1464,1485,1504,1525,1544,1564,1583,1605,1625,1644,1664,1683,1705,1725,1744,1763,1785,1804,1824,1844,1864,1885,1905,1924,1944,1965,1984,2003,2024,2044,2064,2084,2104,2125,2145,2163,2184,2205,2224,2244,2264,2284,2305,2324,2344,2363,2385,2403,2424,2444,2463,2485,2504,2524,2544,2564,2584,2605,2624,2644,2663,2685,2705,2725,2744,2764,2785,2805,2825,2844,2864,2885,2904,2924,2945,2964,2985,3004,3025,3044,3063,3084,3104,3125,3144,3164,3184,3205,3224,3245,3265,3285,3303,3325,3345,3365,3384,3404,3424,3445,3464,3484,3505,3523,3545,3564,3585,3604,3624,3645,3664,3684,3704,3725,3745,3764,3784,3804,3823,3845,3864,3884,3905,3924,3944,3965,3984,4004,4025,4045,4064,4084,4104,4123,4145,4165,4185,4204,4225,4245,4264,4284,4305,4325,4345,4364,4384],"xSR":741.5,"ySR":573.95,"xT1":424.9,"yT1":0,"xT2":1058.1,"yT2":0,"toosoon":0,"cond_shown":"Incongruent","ratio_trial":100,"L_num":13,"L_den":26,"R_num":6,"R_den":10,"correct_side":2,"subjID":"AngelJerónimoFonsecaBonilla21","gender":"0","school":"4a","age":"9"},{"start_time":1552069223102,"click_time":1552069225308,"finger_time":1552069224568,"fix_duration":1412.4649889762704,"trial":7,"RT":1466,"MT":740,"sideResp":1,"stimulus":[],"xmouse":[808,808,808,808,808,808,808,808,808,808,808,808,808,808,808,808,808,808,808,808,808,808,808,808,808,808,808,808,808,808,808,808,808,808,808,808,808,808,808,808,808,808,808,808,808,808,808,808,808,808,808,808,808,808,808,808,808,808,808,808,808,808,808,808,808,808,808,808,808,808,809,798,784,756,662,618,575,544,514,508,506,506,506,506,506,507,507,507,509,513,517,519,523,528,530,531,532,532,532,532,532,532,532,532,532,532,531,529,527,525,523],"ymouse":[666,666,666,666,666,666,666,666,666,666,666,666,666,666,666,666,666,666,666,666,666,666,666,666,666,666,666,666,666,666,666,666,666,666,666,666,666,666,666,666,666,666,666,666,666,666,666,666,666,666,666,666,666,666,666,666,666,666,666,666,666,666,666,666,666,666,666,666,666,666,662,633,609,565,455,404,353,312,267,255,248,247,246,242,236,229,218,206,191,157,139,121,101,63,49,44,43,43,43,43,43,43,43,43,43,43,44,48,51,54,56],"timestamp_mouse":[10,26,45,65,87,106,126,146,166,187,205,227,247,266,286,306,327,346,366,387,406,427,446,465,487,506,526,547,566,586,607,626,647,666,686,706,727,746,766,786,807,827,846,866,886,907,927,946,966,987,1006,1026,1047,1067,1086,1107,1126,1147,1167,1186,1206,1226,1247,1266,1287,1306,1327,1347,1366,1387,1406,1426,1446,1466,1486,1506,1526,1548,1567,1586,1606,1627,1646,1666,1686,1706,1726,1746,1766,1786,1807,1827,1846,1867,1886,1906,1927,1947,1967,1987,2007,2026,2046,2066,2086,2107,2126,2147,2166,2186,2206],"xSR":741.5,"ySR":573.95,"xT1":424.9,"yT1":0,"xT2":1058.1,"yT2":0,"toosoon":0,"cond_shown":"Congruent","ratio_trial":200,"L_num":5,"L_den":10,"R_num":14,"R_den":20,"correct_side":2,"subjID":"AngelJerónimoFonsecaBonilla21","gender":"0","school":"4a","age":"9"},{"start_time":1552069230114,"click_time":1552069233608,"finger_time":1552069231408,"fix_duration":984.9148948506577,"trial":8,"RT":1294,"MT":2200,"sideResp":1,"stimulus":[],"xmouse":[791,791,791,791,791,791,791,791,791,791,791,791,791,791,791,791,791,791,791,791,791,791,791,791,791,791,791,791,791,791,791,791,791,791,791,791,791,791,791,791,791,791,791,791,791,791,791,791,791,791,791,791,791,791,791,791,791,791,791,791,791,791,791,797,812,825,838,854,886,899,912,925,936,948,953,954,958,960,965,966,966,966,966,967,978,982,988,992,999,1000,1002,1003,1004,1006,1006,1006,1006,1006,1006,1006,1006,1006,1006,1006,1006,1006,1008,1011,1017,1022,1023,1023,1024,1025,1027,1027,1027,1027,1029,1030,1032,1033,1034,1035,1036,1037,1037,1039,1039,1040,1040,1040,1041,1042,1042,1043,1043,1043,1043,1043,1034,1008,982,944,890,822,752,690,639,582,560,545,535,518,507,505,503,503,503,503,503,503,503,503,503,503,503,503,503,503,503,503,503,503,502],"ymouse":[597,597,597,597,597,597,597,597,597,597,597,597,597,597,597,597,597,597,597,597,597,597,597,597,597,597,597,597,597,597,597,597,597,597,597,597,597,597,597,597,597,597,597,597,597,597,597,597,597,597,597,597,597,597,597,597,597,597,597,597,597,597,596,578,556,539,520,499,453,429,407,388,374,355,345,343,334,330,314,306,300,294,287,279,245,231,215,200,176,166,160,156,152,149,149,149,149,149,149,149,149,149,149,149,149,149,146,145,143,141,140,140,138,138,137,136,136,135,131,128,126,124,122,119,115,115,114,112,112,111,110,110,110,108,107,106,105,105,105,105,103,95,90,82,78,70,59,46,32,17,10,6,1,0,0,0,0,0,0,0,0,0,0,0,0,0,0,0,0,0,0,0,0,0,3],"timestamp_mouse":[16,45,54,75,95,114,135,154,175,194,215,235,255,276,294,315,335,355,374,394,415,435,455,474,494,515,535,555,574,594,615,635,655,674,694,716,735,754,774,795,814,834,855,874,894,915,935,954,974,994,1014,1036,1055,1074,1095,1115,1136,1155,1174,1195,1214,1234,1255,1274,1294,1314,1334,1354,1374,1394,1415,1434,1454,1475,1494,1514,1535,1554,1574,1594,1615,1635,1655,1674,1694,1714,1735,1754,1774,1794,1814,1834,1855,1874,1894,1914,1934,1955,1975,1995,2014,2034,2054,2074,2095,2114,2134,2154,2174,2194,2214,2234,2254,2274,2296,2314,2335,2354,2374,2394,2415,2434,2455,2474,2495,2515,2534,2554,2574,2594,2614,2635,2655,2674,2694,2716,2736,2755,2775,2794,2814,2834,2854,2875,2894,2914,2934,2954,2974,2994,3014,3035,3054,3075,3095,3114,3134,3154,3174,3194,3214,3235,3255,3275,3294,3315,3334,3354,3375,3395,3414,3434,3454,3475,3494],"xSR":741.5,"ySR":573.95,"xT1":424.9,"yT1":0,"xT2":1058.1,"yT2":0,"toosoon":0,"cond_shown":"Incongruent","ratio_trial":100,"L_num":8,"L_den":16,"R_num":6,"R_den":10,"correct_side":2,"subjID":"AngelJerónimoFonsecaBonilla21","gender":"0","school":"4a","age":"9"},{"start_time":1552069236061,"click_time":1552069238510,"finger_time":1552069238129,"fix_duration":250,"trial":9,"RT":2068,"MT":381,"sideResp":2,"stimulus":[],"xmouse":[798,800,803,806,807,808,812,813,814,814,814,814,814,814,814,814,814,814,813,810,808,807,806,806,806,806,806,806,806,806,806,806,806,806,806,806,806,806,806,806,806,806,806,806,806,806,806,806,806,806,806,806,806,806,806,806,806,806,806,806,806,806,806,806,806,806,806,806,806,806,806,806,806,806,806,806,806,806,806,806,806,806,806,806,806,806,806,806,806,806,806,806,806,806,806,806,806,806,806,806,806,808,824,843,868,909,977,1053,1092,1129,1165,1197,1230,1233,1233,1226,1218,1195,1184,1174,1168,1163,1151],"ymouse":[591,589,586,583,582,581,579,578,577,577,577,577,577,577,577,577,577,577,583,590,595,598,600,600,600,600,600,600,600,600,600,600,600,600,600,600,600,600,600,600,600,600,600,600,600,600,600,600,600,600,600,600,600,600,600,600,600,600,600,600,600,600,600,600,600,600,600,600,600,600,600,600,600,600,600,600,600,600,600,600,600,600,600,600,600,600,600,600,600,600,600,600,600,600,600,600,600,600,600,600,600,599,592,579,560,531,476,400,354,309,264,215,116,33,0,0,0,0,0,0,0,0,8],"timestamp_mouse":[7,27,47,67,87,107,128,147,167,187,207,227,247,267,287,307,328,349,367,388,407,427,447,467,488,507,527,547,568,587,607,627,648,667,687,707,727,748,768,789,808,827,847,867,887,907,927,947,967,987,1008,1027,1047,1067,1087,1107,1127,1147,1167,1187,1207,1227,1247,1267,1287,1308,1329,1348,1368,1387,1408,1428,1447,1468,1488,1507,1527,1547,1568,1588,1607,1628,1648,1668,1687,1707,1728,1747,1768,1788,1808,1827,1848,1868,1887,1908,1927,1947,1968,1987,2008,2028,2047,2068,2087,2107,2127,2147,2168,2187,2207,2228,2247,2268,2288,2308,2327,2348,2367,2387,2407,2427,2449],"xSR":741.5,"ySR":573.95,"xT1":424.9,"yT1":0,"xT2":1058.1,"yT2":0,"toosoon":0,"cond_shown":"Congruent","ratio_trial":100,"L_num":6,"L_den":20,"R_num":5,"R_den":25,"correct_side":1,"subjID":"AngelJerónimoFonsecaBonilla21","gender":"0","school":"4a","age":"9"},{"start_time":1552069243382,"click_time":1552069249809,"finger_time":1552069244969,"fix_duration":992.7606533686009,"trial":10,"RT":1587,"MT":4840,"sideResp":1,"stimulus":[],"xmouse":[801,801,801,801,801,801,801,801,801,801,801,801,801,801,801,801,801,801,801,801,801,801,801,801,801,801,801,801,801,801,801,801,801,801,801,801,801,801,801,801,801,801,801,801,801,801,801,801,801,801,801,801,801,801,801,801,801,801,801,801,801,801,801,801,801,801,801,801,801,801,801,801,801,801,801,801,801,805,817,840,863,887,920,932,934,936,936,936,937,937,938,938,941,944,947,949,950,950,950,950,950,951,954,959,969,971,985,1001,1005,1009,1012,1015,1016,1016,1016,1016,1016,1016,1016,1016,1016,1016,1016,1016,1016,1016,1006,974,948,922,898,880,845,824,817,803,797,786,780,776,773,770,760,749,721,688,655,618,612,612,612,612,612,612,612,612,612,612,612,612,612,612,612,612,600,587,580,579,579,579,579,579,579,579,579,579,579,579,578,575,572,569,568,568,568,566,565,555,549,540,533,530,530,530,530,530,530,530,530,530,530,530,530,530,530,530,530,530,530,530,530,530,530,530,530,530,530,530,530,530,530,533,545,628,725,785,828,867,871,871,871,873,876,878,878,879,879,879,878,863,837,796,686,661,654,654,654,658,662,670,688,709,759,783,811,824,834,840,840,840,840,840,843,844,847,847,848,848,848,846,828,799,704,676,664,664,664,664,679,703,724,743,758,761,761,761,761,764,764,764,764,763,743,692,680,679,679,679,679,679,679,684,694,815,858,889,902,909,914,926,934,936,936,936,936,930,905,766,679,598,540,522],"ymouse":[645,645,645,645,645,645,645,645,645,645,645,645,645,645,645,645,645,645,645,645,645,645,645,645,645,645,645,645,645,645,645,645,645,645,645,645,645,645,645,645,645,645,645,645,645,645,645,645,645,645,645,645,645,645,645,645,645,645,645,645,645,645,645,645,645,645,645,645,645,645,645,645,645,645,645,645,645,644,602,548,492,452,417,407,405,404,403,400,398,394,392,387,368,354,341,333,325,323,323,323,323,321,316,310,299,297,282,253,241,232,225,220,219,219,219,219,219,219,219,219,219,219,219,219,219,218,213,205,197,189,182,176,166,164,163,161,161,161,161,160,160,160,158,155,146,135,121,105,102,102,102,102,102,102,102,102,102,102,102,102,102,102,102,102,100,99,98,97,97,97,97,97,97,97,97,97,97,97,97,97,97,97,97,97,97,97,97,98,98,99,99,99,99,99,99,99,99,99,99,99,99,99,99,99,99,99,99,99,99,99,99,99,99,99,99,99,99,99,99,99,99,99,101,114,129,137,142,146,146,146,146,146,140,136,134,131,130,128,126,126,126,128,144,146,147,147,147,147,145,145,145,145,145,145,145,145,145,145,145,145,145,145,144,142,140,139,139,139,139,137,132,124,105,100,97,97,97,97,96,96,98,109,120,122,122,122,122,122,122,122,122,122,120,101,96,95,95,95,95,95,95,95,95,127,144,154,159,160,160,160,160,160,160,160,160,159,155,121,96,72,54,48],"timestamp_mouse":[9,26,47,66,86,107,127,147,166,187,206,228,246,266,286,308,327,346,366,387,406,427,447,466,487,506,526,547,567,586,607,628,647,667,686,706,727,746,766,786,808,827,846,866,887,906,927,946,967,987,1006,1027,1046,1066,1086,1107,1127,1148,1167,1186,1206,1226,1246,1266,1287,1307,1327,1347,1367,1387,1407,1427,1446,1466,1487,1506,1527,1546,1566,1587,1606,1626,1646,1667,1686,1707,1726,1747,1766,1787,1806,1827,1846,1867,1886,1906,1926,1947,1967,1987,2006,2026,2046,2067,2087,2106,2126,2146,2166,2187,2206,2227,2247,2266,2287,2306,2327,2346,2367,2387,2407,2427,2447,2467,2487,2506,2526,2546,2566,2587,2606,2626,2646,2667,2686,2707,2727,2746,2767,2786,2807,2826,2846,2867,2886,2906,2926,2947,2966,2986,3007,3027,3046,3067,3087,3106,3126,3146,3166,3187,3207,3227,3250,3267,3287,3306,3326,3347,3366,3386,3406,3427,3446,3466,3487,3507,3527,3546,3566,3586,3606,3627,3647,3667,3687,3706,3727,3746,3766,3786,3806,3827,3846,3866,3887,3906,3926,3947,3966,3986,4006,4026,4046,4066,4088,4106,4126,4147,4168,4187,4206,4226,4246,4266,4286,4306,4326,4347,4366,4386,4406,4426,4446,4467,4487,4507,4526,4546,4566,4586,4606,4626,4646,4666,4687,4707,4726,4747,4766,4786,4807,4826,4846,4866,4887,4907,4926,4946,4967,4986,5006,5026,5046,5066,5086,5106,5126,5146,5167,5187,5207,5226,5246,5267,5286,5306,5327,5346,5366,5386,5407,5426,5446,5466,5487,5506,5527,5546,5566,5586,5607,5626,5646,5666,5686,5706,5726,5746,5766,5787,5806,5826,5846,5867,5886,5908,5926,5946,5967,5986,6006,6026,6046,6067,6087,6106,6126,6146,6166,6187,6207,6226,6246,6267,6287,6306,6327,6346,6366,6386,6406,6427],"xSR":741.5,"ySR":573.95,"xT1":424.9,"yT1":0,"xT2":1058.1,"yT2":0,"toosoon":0,"cond_shown":"Incongruent","ratio_trial":100,"L_num":12,"L_den":24,"R_num":9,"R_den":15,"correct_side":2,"subjID":"AngelJerónimoFonsecaBonilla21","gender":"0","school":"4a","age":"9"},{"start_time":1552069256260,"click_time":1552069258028,"finger_time":1552069257948,"fix_duration":1190.4276803988805,"trial":11,"RT":1688,"MT":80,"sideResp":2,"stimulus":[],"xmouse":[801,801,801,801,801,801,801,801,801,801,801,801,801,801,801,801,801,801,801,801,801,801,801,801,801,801,801,801,801,801,801,801,801,801,801,801,801,801,801,801,801,801,801,801,801,801,801,801,801,801,801,801,801,801,801,801,801,801,801,801,801,801,801,801,801,801,801,801,801,801,801,801,801,801,801,801,801,801,801,801,801,801,800,812,892,984,1046,1103,1145],"ymouse":[611,611,611,611,611,611,611,611,611,611,611,611,611,611,611,611,611,611,611,611,611,611,611,611,611,611,611,611,611,611,611,611,611,611,611,611,611,611,611,611,611,611,611,611,611,611,611,611,611,611,611,611,611,611,611,611,611,611,611,611,611,611,611,611,611,611,611,611,611,611,611,611,611,611,611,611,611,611,611,611,611,611,610,592,424,286,194,108,23],"timestamp_mouse":[11,43,48,69,89,109,128,149,169,189,209,229,249,269,288,309,329,349,368,389,408,429,449,469,488,508,529,548,569,588,608,629,649,669,688,709,728,749,769,788,808,830,849,869,888,910,928,948,969,988,1008,1028,1049,1069,1088,1109,1128,1148,1168,1188,1209,1229,1248,1269,1288,1309,1329,1349,1368,1388,1409,1428,1448,1470,1488,1509,1528,1549,1568,1588,1609,1628,1648,1668,1688,1708,1729,1748,1768],"xSR":741.5,"ySR":573.95,"xT1":424.9,"yT1":0,"xT2":1058.1,"yT2":0,"toosoon":0,"cond_shown":"Incongruent","ratio_trial":300,"L_num":7,"L_den":10,"R_num":8,"R_den":20,"correct_side":1,"subjID":"AngelJerónimoFonsecaBonilla21","gender":"0","school":"4a","age":"9"},{"start_time":1552069261279,"click_time":1552069262428,"finger_time":1552069262028,"fix_duration":1109.4676622531745,"trial":12,"RT":749,"MT":400,"sideResp":2,"stimulus":[],"xmouse":[775,775,775,775,775,775,775,775,775,775,775,775,775,775,775,775,775,775,775,775,775,775,775,775,775,775,775,775,775,775,775,775,775,775,775,786,801,821,847,917,943,962,981,1014,1061,1077,1086,1088,1088,1088,1088,1090,1091,1091,1091,1091,1091,1091],"ymouse":[619,619,619,619,619,619,619,619,619,619,619,619,619,619,619,619,619,619,619,619,619,619,619,619,619,619,619,619,619,619,619,619,619,619,619,606,589,562,523,403,334,269,201,87,0,0,0,0,0,0,0,0,0,0,0,0,0,3],"timestamp_mouse":[15,32,50,70,90,110,129,150,169,190,210,229,250,270,289,309,329,349,370,389,409,430,449,469,489,510,530,549,569,590,610,629,650,669,689,709,729,749,769,789,810,830,849,870,889,909,929,950,971,990,1010,1029,1049,1069,1090,1109,1129,1149],"xSR":741.5,"ySR":573.95,"xT1":424.9,"yT1":0,"xT2":1058.1,"yT2":0,"toosoon":0,"cond_shown":"Incongruent","ratio_trial":200,"L_num":11,"L_den":20,"R_num":3,"R_den":4,"correct_side":2,"subjID":"AngelJerónimoFonsecaBonilla21","gender":"0","school":"4a","age":"9"},{"start_time":1552069264695,"click_time":1552069266188,"finger_time":1552069265829,"fix_duration":386.7502578869335,"trial":13,"RT":1134,"MT":359,"sideResp":1,"stimulus":[],"xmouse":[795,795,795,795,795,795,795,795,795,795,795,795,795,795,795,795,795,795,795,795,795,795,795,795,795,795,795,795,795,795,795,795,795,795,795,795,795,795,795,795,795,795,795,795,795,795,795,795,795,795,795,795,795,795,794,783,759,738,685,665,647,622,605,573,560,551,548,548,545,541,539,533,526,502,488],"ymouse":[613,613,613,613,613,613,613,613,613,613,613,613,613,613,613,613,613,613,613,613,613,613,613,613,613,613,613,613,613,613,613,613,613,613,613,613,613,613,613,613,613,613,613,613,613,613,613,613,613,613,613,613,613,613,612,588,545,504,429,394,367,331,313,288,277,272,269,267,259,247,243,221,196,122,73],"timestamp_mouse":[14,47,53,74,94,113,134,153,173,193,213,233,253,273,293,314,333,353,373,393,413,433,454,474,494,514,533,554,573,594,614,634,653,673,693,714,733,753,774,793,813,834,854,874,894,913,934,954,973,994,1014,1034,1053,1073,1093,1113,1134,1153,1173,1193,1214,1234,1253,1274,1293,1313,1333,1353,1373,1395,1414,1434,1454,1473,1493],"xSR":741.5,"ySR":573.95,"xT1":424.9,"yT1":0,"xT2":1058.1,"yT2":0,"toosoon":0,"cond_shown":"Incongruent","ratio_trial":200,"L_num":3,"L_den":4,"R_num":11,"R_den":20,"correct_side":1,"subjID":"AngelJerónimoFonsecaBonilla21","gender":"0","school":"4a","age":"9"},{"start_time":1552069267793,"click_time":1552069269788,"finger_time":1552069269488,"fix_duration":464.5955600335906,"trial":14,"RT":1695,"MT":300,"sideResp":1,"stimulus":[],"xmouse":[757,757,757,757,767,780,789,793,793,793,793,793,793,793,793,793,793,793,793,793,793,793,793,793,793,793,793,793,793,793,793,793,793,793,793,793,793,793,793,793,793,793,793,793,793,793,793,793,793,793,793,793,793,793,793,793,793,793,793,793,793,793,793,793,792,791,789,788,788,788,788,788,788,788,788,788,788,788,788,788,788,788,788,787,769,755,742,730,699,671,645,626,600,562,523,514,509,506,494,481],"ymouse":[606,606,606,606,606,601,598,596,596,596,596,596,596,596,596,596,596,596,596,596,596,596,596,596,596,596,596,596,596,596,596,596,596,596,596,596,596,596,596,596,596,596,596,596,596,596,596,596,596,596,596,596,596,596,596,596,596,596,596,596,596,596,596,596,598,599,601,601,601,601,601,601,601,601,601,601,601,601,601,601,601,601,601,601,572,551,529,508,465,432,403,377,347,305,251,226,202,177,116,77],"timestamp_mouse":[23,44,56,75,96,115,136,155,176,195,216,236,255,275,296,316,336,356,375,396,417,435,456,475,495,516,535,556,575,597,617,637,657,675,696,715,735,756,775,796,815,836,856,875,895,916,935,955,976,995,1015,1036,1056,1075,1096,1116,1135,1156,1175,1195,1216,1235,1255,1276,1296,1315,1336,1355,1376,1396,1416,1435,1456,1475,1496,1515,1536,1556,1575,1596,1616,1635,1655,1676,1695,1716,1735,1755,1776,1795,1815,1835,1855,1875,1896,1916,1936,1955,1976,1995],"xSR":741.5,"ySR":573.95,"xT1":424.9,"yT1":0,"xT2":1058.1,"yT2":0,"toosoon":0,"cond_shown":"Congruent","ratio_trial":300,"L_num":20,"L_den":25,"R_num":14,"R_den":28,"correct_side":1,"subjID":"AngelJerónimoFonsecaBonilla21","gender":"0","school":"4a","age":"9"},{"start_time":1552069271461,"click_time":1552069273309,"finger_time":1552069272988,"fix_duration":250,"trial":15,"RT":1527,"MT":321,"sideResp":1,"stimulus":[],"xmouse":[784,784,784,784,784,784,784,784,784,784,784,784,784,784,784,784,784,784,784,784,784,784,784,784,784,784,784,784,784,784,784,784,784,784,784,784,784,784,784,784,784,784,784,784,784,784,784,784,784,784,784,784,784,784,784,784,784,784,784,784,784,784,784,784,784,784,784,784,784,784,784,784,784,784,784,784,770,760,747,735,726,699,677,649,623,605,580,555,539,519,501,478,471],"ymouse":[591,591,591,591,591,591,591,591,591,591,591,591,591,591,591,591,591,591,591,591,591,591,591,591,591,591,591,591,591,591,591,591,591,591,591,591,591,591,591,591,591,591,591,591,591,591,591,591,591,591,591,591,591,591,591,591,591,591,591,591,591,591,591,591,591,591,591,591,591,591,591,591,591,591,591,588,568,556,541,524,504,448,412,372,333,304,259,221,195,169,144,102,84],"timestamp_mouse":[10,39,47,67,87,108,128,147,168,187,207,228,247,267,288,307,327,347,368,387,407,429,448,467,488,507,527,548,567,587,608,627,648,668,688,707,728,747,768,788,808,828,848,868,887,908,928,947,967,988,1007,1027,1047,1067,1087,1108,1127,1147,1167,1187,1208,1228,1247,1268,1287,1308,1328,1348,1367,1387,1407,1427,1448,1468,1487,1507,1527,1547,1567,1587,1608,1627,1647,1668,1688,1708,1728,1747,1767,1788,1808,1827,1847],"xSR":741.5,"ySR":573.95,"xT1":424.9,"yT1":0,"xT2":1058.1,"yT2":0,"toosoon":0,"cond_shown":"Incongruent","ratio_trial":300,"L_num":8,"L_den":10,"R_num":14,"R_den":28,"correct_side":1,"subjID":"AngelJerónimoFonsecaBonilla21","gender":"0","school":"4a","age":"9"},{"start_time":1552069274841,"click_time":1552069276708,"finger_time":1552069276289,"fix_duration":250,"trial":16,"RT":1448,"MT":419,"sideResp":2,"stimulus":[],"xmouse":[768,768,768,768,768,768,768,768,768,768,768,768,768,768,768,768,768,768,768,768,768,768,768,768,768,768,768,768,768,768,768,768,768,768,768,768,768,768,768,768,768,768,768,768,768,768,768,768,768,768,768,768,768,768,768,768,768,768,768,768,768,768,768,768,768,768,768,768,768,768,774,781,797,833,843,856,864,887,903,913,921,927,938,942,945,945,945,956,964,975,986,1001,1041,1062],"ymouse":[599,599,599,599,599,599,599,599,599,599,599,599,599,599,599,599,599,599,599,599,599,599,599,599,599,599,599,599,599,599,599,599,599,599,599,599,599,599,599,599,599,599,599,599,599,599,599,599,599,599,599,599,599,599,599,599,599,599,599,599,599,599,599,599,599,599,599,599,599,599,591,585,570,543,530,507,487,434,400,378,356,334,290,265,239,215,188,144,118,103,88,73,50,39],"timestamp_mouse":[11,30,47,67,88,107,127,147,168,187,207,228,247,267,287,308,328,348,367,387,408,427,447,467,488,507,528,547,567,587,608,627,647,667,688,707,728,747,767,787,808,827,847,868,888,909,927,947,967,988,1007,1027,1047,1068,1087,1107,1128,1147,1168,1187,1207,1227,1247,1268,1287,1308,1328,1348,1367,1387,1407,1427,1448,1467,1487,1508,1527,1547,1568,1588,1608,1628,1647,1667,1688,1707,1728,1747,1767,1788,1807,1827,1847,1867],"xSR":741.5,"ySR":573.95,"xT1":424.9,"yT1":0,"xT2":1058.1,"yT2":0,"toosoon":0,"cond_shown":"Incongruent","ratio_trial":100,"L_num":6,"L_den":12,"R_num":3,"R_den":5,"correct_side":2,"subjID":"AngelJerónimoFonsecaBonilla21","gender":"0","school":"4a","age":"9"},{"start_time":1552069278988,"click_time":1552069281069,"finger_time":1552069280368,"fix_duration":636.6504597614207,"trial":17,"RT":1380,"MT":701,"sideResp":1,"stimulus":[],"xmouse":[809,809,809,809,809,809,809,809,809,809,809,809,809,809,809,809,809,809,809,809,809,809,809,809,809,809,809,809,809,809,809,809,809,809,809,809,809,809,809,809,809,809,809,809,809,809,809,809,809,809,809,809,809,809,809,809,809,809,809,809,809,809,809,809,809,809,809,802,793,783,761,735,726,722,718,715,707,700,694,687,684,673,663,651,634,606,599,592,590,582,572,552,544,541,539,538,534,533,533,533,533,530,527,525,522],"ymouse":[626,626,626,626,626,626,626,626,626,626,626,626,626,626,626,626,626,626,626,626,626,626,626,626,626,626,626,626,626,626,626,626,626,626,626,626,626,626,626,626,626,626,626,626,626,626,626,626,626,626,626,626,626,626,626,626,626,626,626,626,626,626,626,626,626,626,626,603,578,555,522,489,479,471,464,458,445,435,425,410,396,364,344,319,286,230,204,170,158,127,105,67,54,44,41,37,32,31,31,31,31,30,30,30,30],"timestamp_mouse":[9,20,41,61,80,100,121,141,160,181,201,220,240,261,280,300,320,340,361,380,401,420,440,461,481,501,520,540,561,581,600,620,641,661,681,702,720,741,761,780,801,822,841,860,880,900,921,941,961,981,1002,1021,1040,1060,1080,1101,1120,1140,1160,1180,1200,1220,1241,1260,1281,1301,1320,1341,1360,1380,1400,1420,1440,1462,1480,1501,1520,1541,1560,1580,1600,1621,1640,1660,1680,1702,1720,1741,1761,1780,1801,1820,1841,1860,1881,1900,1920,1940,1960,1981,2000,2020,2040,2060,2081],"xSR":741.5,"ySR":573.95,"xT1":424.9,"yT1":0,"xT2":1058.1,"yT2":0,"toosoon":0,"cond_shown":"Incongruent","ratio_trial":200,"L_num":7,"L_den":10,"R_num":12,"R_den":24,"correct_side":1,"subjID":"AngelJerónimoFonsecaBonilla21","gender":"0","school":"4a","age":"9"},{"start_time":1552069282928,"click_time":1552069284549,"finger_time":1552069283868,"fix_duration":318.6864347604116,"trial":18,"RT":940,"MT":681,"sideResp":2,"stimulus":[],"xmouse":[787,787,787,787,787,787,787,787,787,787,787,787,787,787,787,787,787,787,787,787,787,787,787,787,787,787,787,787,787,787,787,787,787,787,787,787,787,787,787,787,787,787,787,787,789,802,814,822,832,843,845,845,847,848,852,854,858,865,873,894,903,911,916,926,943,951,956,962,968,982,993,998,1004,1009,1011,1012,1012,1016,1023,1042,1054,1059],"ymouse":[640,640,640,640,640,640,640,640,640,640,640,640,640,640,640,640,640,640,640,640,640,640,640,640,640,640,640,640,640,640,640,640,640,640,640,640,640,640,640,640,640,640,640,640,640,613,590,573,554,524,514,504,500,495,486,479,465,448,427,372,343,306,267,234,173,148,129,115,102,78,57,48,41,36,35,34,34,34,34,37,41,43],"timestamp_mouse":[13,26,40,60,81,101,120,140,160,180,200,221,241,260,280,300,320,340,362,380,400,420,440,460,481,500,520,540,561,580,600,622,642,661,680,700,721,740,760,780,800,821,840,861,880,900,921,940,961,980,1001,1021,1041,1060,1080,1100,1121,1140,1160,1180,1200,1220,1241,1260,1280,1300,1321,1340,1360,1380,1399,1420,1441,1460,1480,1501,1520,1540,1560,1580,1601,1621],"xSR":741.5,"ySR":573.95,"xT1":424.9,"yT1":0,"xT2":1058.1,"yT2":0,"toosoon":0,"cond_shown":"Congruent","ratio_trial":100,"L_num":10,"L_den":25,"R_num":3,"R_den":10,"correct_side":1,"subjID":"AngelJerónimoFonsecaBonilla21","gender":"0","school":"4a","age":"9"},{"start_time":1552069290060,"click_time":1552069292108,"finger_time":1552069291728,"fix_duration":649.5556064680322,"trial":19,"RT":1668,"MT":380,"sideResp":2,"stimulus":[],"xmouse":[798,798,798,798,798,798,798,798,798,798,798,798,798,798,798,798,798,798,798,798,798,798,798,798,798,798,798,798,798,798,798,798,798,798,798,798,798,798,798,798,798,798,798,798,798,798,798,798,798,798,798,798,798,798,798,798,798,798,798,798,798,798,798,798,798,798,798,798,798,798,798,798,798,798,798,798,798,798,798,798,798,800,809,909,972,1018,1043,1059,1073,1074,1074,1074,1074,1074,1074,1074,1074,1074,1079,1092,1098,1100,1101],"ymouse":[649,649,649,649,649,649,649,649,649,649,649,649,649,649,649,649,649,649,649,649,649,649,649,649,649,649,649,649,649,649,649,649,649,649,649,649,649,649,649,649,649,649,649,649,649,649,649,649,649,649,649,649,649,649,649,649,649,649,649,649,649,649,649,649,649,649,649,649,649,649,649,649,649,649,649,649,649,649,649,649,649,645,637,563,522,479,443,418,390,386,386,386,386,385,384,381,379,374,322,236,174,119,61],"timestamp_mouse":[10,27,48,68,89,108,128,149,168,189,209,229,248,268,289,308,329,348,369,389,408,428,449,468,489,509,528,549,569,589,608,629,649,668,689,709,729,749,769,788,808,829,848,868,888,908,928,948,968,988,1009,1028,1048,1069,1088,1108,1128,1148,1168,1189,1208,1228,1248,1268,1288,1309,1329,1349,1369,1389,1408,1428,1449,1469,1488,1509,1529,1548,1568,1589,1609,1628,1648,1668,1688,1708,1728,1748,1768,1788,1808,1829,1848,1869,1888,1909,1927,1948,1968,1988,2008,2029,2048],"xSR":741.5,"ySR":573.95,"xT1":424.9,"yT1":0,"xT2":1058.1,"yT2":0,"toosoon":0,"cond_shown":"Congruent","ratio_trial":200,"L_num":3,"L_den":12,"R_num":9,"R_den":20,"correct_side":2,"subjID":"AngelJerónimoFonsecaBonilla21","gender":"0","school":"4a","age":"9"},{"start_time":1552069295314,"click_time":1552069297129,"finger_time":1552069296788,"fix_duration":1384.7910585963898,"trial":20,"RT":1474,"MT":341,"sideResp":2,"stimulus":[],"xmouse":[801,801,801,801,801,801,801,801,801,801,801,801,801,801,801,801,801,801,801,801,801,801,801,801,801,801,801,801,801,801,801,801,801,801,801,801,801,801,801,801,801,801,801,801,801,801,801,801,801,801,801,801,801,801,801,801,801,801,801,801,801,801,801,801,801,801,801,801,801,801,801,801,804,814,820,853,917,940,957,966,971,978,982,988,994,1007,1028,1039,1053,1062,1077],"ymouse":[586,586,586,586,586,586,586,586,586,586,586,586,586,586,586,586,586,586,586,586,586,586,586,586,586,586,586,586,586,586,586,586,586,586,586,586,586,586,586,586,586,586,586,586,586,586,586,586,586,586,586,586,586,586,586,586,586,586,586,586,586,586,586,586,586,586,586,586,586,586,586,586,587,569,559,515,435,398,366,342,324,299,287,272,256,230,189,167,146,127,95],"timestamp_mouse":[14,34,54,74,95,114,134,154,175,195,214,234,254,274,295,315,334,354,374,394,415,434,455,474,494,514,535,555,574,594,615,635,655,676,695,715,735,754,775,795,815,835,855,874,895,915,934,955,975,995,1015,1034,1054,1074,1094,1114,1134,1155,1175,1195,1215,1234,1255,1275,1294,1314,1334,1354,1374,1394,1415,1434,1454,1474,1494,1514,1535,1554,1574,1594,1615,1634,1655,1674,1694,1714,1734,1755,1774,1795,1815],"xSR":741.5,"ySR":573.95,"xT1":424.9,"yT1":0,"xT2":1058.1,"yT2":0,"toosoon":0,"cond_shown":"Incongruent","ratio_trial":300,"L_num":13,"L_den":26,"R_num":12,"R_den":15,"correct_side":2,"subjID":"AngelJerónimoFonsecaBonilla21","gender":"0","school":"4a","age":"9"},{"start_time":1552069301062,"click_time":1552069305709,"finger_time":1552069303048,"fix_duration":1032.2980638315896,"trial":21,"RT":1986,"MT":2661,"sideResp":1,"stimulus":[],"xmouse":[777,777,777,777,777,777,778,781,784,788,788,788,788,788,788,788,788,789,791,792,793,793,793,793,793,793,793,793,793,793,793,793,793,793,793,793,793,795,796,796,796,796,796,796,796,796,796,796,796,796,796,796,796,796,796,796,796,796,796,796,796,796,796,796,796,796,796,796,796,796,796,796,796,796,796,796,796,796,796,796,796,796,796,796,796,796,796,796,796,796,796,796,796,796,796,796,796,800,809,840,860,871,879,885,887,894,898,903,909,915,925,927,929,930,930,930,930,930,930,930,930,930,930,930,930,930,930,930,930,930,930,930,930,930,931,931,931,931,931,931,931,931,931,931,931,926,924,921,918,890,886,875,863,847,833,833,833,833,822,822,822,822,822,822,822,822,822,822,822,822,822,822,822,822,822,822,822,822,822,822,822,822,822,822,822,822,822,820,800,744,550,463,417,408,408,484,542,613,676,749,761,766,769,775,787,789,792,793,793,788,781,771,761,749,712,697,684,670,659,648,632,629,626,621,617,606,601,592,582,557,544,533,522],"ymouse":[617,617,617,617,617,617,621,628,635,643,645,645,645,645,645,645,645,645,643,641,640,640,640,640,640,640,640,640,640,640,640,640,640,640,640,640,640,636,634,632,632,632,632,632,632,632,632,632,632,632,632,632,632,632,632,632,632,632,632,632,632,632,632,632,632,632,632,632,632,632,632,632,632,632,632,632,632,632,632,632,632,632,632,632,632,632,632,632,632,632,632,632,632,632,632,632,632,621,608,568,542,520,500,481,476,459,451,439,428,418,396,389,386,384,384,384,384,384,384,384,384,384,384,384,384,384,384,384,384,384,384,384,384,384,380,378,378,378,378,378,378,378,378,377,375,370,367,364,361,353,352,350,345,340,336,336,336,336,327,327,327,327,327,327,327,327,327,327,327,327,327,327,327,327,327,327,327,327,327,327,327,327,327,327,327,327,327,326,321,311,288,286,287,313,329,504,563,611,645,672,674,674,667,650,597,576,554,533,513,474,457,442,428,413,369,350,334,314,298,284,260,251,244,229,222,198,182,162,137,79,49,24,4],"timestamp_mouse":[16,30,46,66,86,107,126,147,166,186,207,226,247,267,286,306,326,347,366,386,406,427,446,466,486,507,526,546,566,586,606,627,646,666,686,706,726,747,767,786,806,828,847,866,886,906,927,947,967,986,1007,1027,1047,1067,1086,1106,1127,1146,1167,1187,1206,1227,1247,1267,1286,1306,1326,1347,1367,1386,1406,1426,1447,1466,1487,1507,1527,1547,1566,1586,1606,1627,1646,1667,1686,1707,1727,1746,1767,1787,1807,1827,1847,1866,1887,1906,1926,1947,1966,1986,2005,2026,2046,2067,2086,2106,2127,2147,2167,2187,2207,2226,2247,2267,2287,2306,2326,2346,2366,2386,2406,2427,2447,2467,2487,2507,2526,2546,2566,2587,2606,2626,2646,2667,2686,2707,2727,2747,2767,2786,2807,2826,2847,2867,2886,2906,2927,2947,2966,2986,3006,3026,3046,3066,3087,3107,3126,3147,3166,3186,3207,3226,3246,3267,3287,3305,3327,3346,3366,3386,3407,3426,3446,3467,3487,3506,3526,3547,3566,3587,3605,3627,3646,3666,3687,3706,3727,3747,3767,3786,3806,3827,3846,3866,3886,3906,3927,3946,3966,3987,4006,4026,4047,4067,4087,4106,4126,4146,4166,4187,4206,4226,4246,4266,4288,4306,4327,4347,4366,4386,4406,4427,4446,4466,4486,4506,4526,4546,4567,4588,4607,4627,4646],"xSR":741.5,"ySR":573.95,"xT1":424.9,"yT1":0,"xT2":1058.1,"yT2":0,"toosoon":0,"cond_shown":"Incongruent","ratio_trial":100,"L_num":6,"L_den":10,"R_num":11,"R_den":22,"correct_side":1,"subjID":"AngelJerónimoFonsecaBonilla21","gender":"0","school":"4a","age":"9"},{"start_time":1552069308241,"click_time":1552069310688,"finger_time":1552069310429,"fix_duration":250,"trial":22,"RT":2188,"MT":259,"sideResp":2,"stimulus":[],"xmouse":[785,785,785,785,785,785,785,785,785,785,785,785,785,785,785,785,785,785,785,785,785,785,785,785,785,785,785,785,785,785,785,785,785,785,785,785,785,785,785,785,785,785,785,785,785,785,785,785,785,785,785,785,785,785,785,785,785,785,785,785,785,785,785,785,785,785,785,785,785,785,785,785,785,785,785,785,785,785,785,785,785,785,785,785,785,785,785,785,785,785,785,785,785,785,785,785,785,785,785,785,785,785,785,785,785,785,785,787,794,805,817,835,891,912,926,940,968,1049,1083,1102,1113,1119,1122],"ymouse":[596,596,596,596,596,596,596,596,596,596,596,596,596,596,596,596,596,596,596,596,596,596,596,596,596,596,596,596,596,596,596,596,596,596,596,596,596,596,596,596,596,596,596,596,596,596,596,596,596,596,596,596,596,596,596,596,596,596,596,596,596,596,596,596,596,596,596,596,596,596,596,596,596,596,596,596,596,596,596,596,596,596,596,596,596,596,596,596,596,596,596,596,596,596,596,596,596,596,596,596,596,596,596,596,596,596,596,596,586,570,551,526,442,407,379,353,303,216,180,155,134,102,83],"timestamp_mouse":[10,39,47,68,87,106,127,147,168,187,207,227,248,268,287,307,327,347,368,388,408,427,448,467,487,507,527,547,568,588,608,627,647,668,687,708,727,748,767,788,807,827,848,868,888,908,928,947,967,987,1007,1027,1047,1068,1087,1108,1127,1147,1167,1187,1209,1227,1248,1267,1288,1308,1327,1348,1368,1388,1406,1427,1448,1467,1487,1507,1527,1548,1567,1588,1608,1628,1648,1668,1688,1707,1727,1747,1767,1788,1808,1827,1848,1867,1887,1908,1927,1948,1968,1987,2008,2027,2048,2068,2088,2107,2127,2147,2167,2188,2207,2227,2248,2267,2287,2307,2327,2347,2368,2387,2407,2427,2447],"xSR":741.5,"ySR":573.95,"xT1":424.9,"yT1":0,"xT2":1058.1,"yT2":0,"toosoon":0,"cond_shown":"Congruent","ratio_trial":300,"L_num":7,"L_den":14,"R_num":20,"R_den":25,"correct_side":2,"subjID":"AngelJerónimoFonsecaBonilla21","gender":"0","school":"4a","age":"9"},{"start_time":1552069313656,"click_time":1552069316049,"finger_time":1552069315688,"fix_duration":1425.2821221257975,"trial":23,"RT":2032,"MT":361,"sideResp":2,"stimulus":[],"xmouse":[786,786,786,786,786,786,786,786,786,786,786,786,786,786,786,786,786,786,786,786,786,786,786,786,786,786,786,786,786,786,786,786,786,786,786,786,786,786,786,786,786,786,786,786,786,786,786,786,786,786,786,786,786,786,786,786,786,786,786,786,786,786,786,786,786,786,786,786,786,786,786,786,786,786,786,786,786,786,786,786,786,786,786,786,786,786,786,786,786,786,786,786,786,786,786,786,786,786,790,801,815,863,890,916,936,946,956,960,967,969,971,974,978,984,994,1005,1031,1044,1062,1070],"ymouse":[618,618,618,618,618,618,618,618,618,618,618,618,618,618,618,618,618,618,618,618,618,618,618,618,618,618,618,618,618,618,618,618,618,618,618,618,618,618,618,618,618,618,618,618,618,618,618,618,618,618,618,618,618,618,618,618,618,618,618,618,618,618,618,618,618,618,618,618,618,618,618,618,618,618,618,618,618,618,618,618,618,618,618,618,618,618,618,618,618,618,618,618,618,618,618,618,618,618,611,598,579,532,491,441,395,362,326,317,306,303,300,291,282,270,253,233,185,158,116,93],"timestamp_mouse":[14,32,52,72,92,113,132,153,172,193,213,232,253,273,293,313,333,352,373,393,413,433,453,472,492,512,532,553,573,593,613,632,653,673,692,712,732,753,773,793,813,832,852,873,892,913,932,952,973,992,1012,1033,1052,1073,1092,1113,1132,1152,1173,1192,1212,1232,1252,1272,1292,1313,1332,1353,1372,1393,1412,1432,1452,1473,1493,1513,1532,1553,1572,1592,1612,1632,1652,1672,1693,1712,1732,1752,1772,1792,1812,1832,1853,1872,1892,1912,1933,1952,1972,1993,2012,2032,2052,2073,2092,2112,2132,2152,2172,2192,2212,2232,2252,2272,2293,2312,2332,2353,2372,2393],"xSR":741.5,"ySR":573.95,"xT1":424.9,"yT1":0,"xT2":1058.1,"yT2":0,"toosoon":0,"cond_shown":"Incongruent","ratio_trial":100,"L_num":6,"L_den":10,"R_num":7,"R_den":14,"correct_side":1,"subjID":"AngelJerónimoFonsecaBonilla21","gender":"0","school":"4a","age":"9"},{"start_time":1552069321740,"click_time":1552069324390,"finger_time":1552069323768,"fix_duration":1090.4663388476406,"trial":24,"RT":2028,"MT":622,"sideResp":1,"stimulus":[],"xmouse":[765,765,765,765,765,765,765,765,765,765,765,765,765,765,765,765,765,765,765,765,765,765,765,765,765,765,765,765,765,765,765,765,765,765,765,765,765,765,765,765,765,765,765,765,765,765,765,765,765,765,765,765,765,765,765,765,765,765,765,765,765,765,765,765,765,765,765,765,765,765,765,765,765,765,765,765,765,765,765,765,765,765,765,765,765,765,765,765,765,765,765,765,765,765,765,764,763,762,757,751,742,714,693,655,640,624,606,526,481,442,414,386,374,355,347,343,342,342,342,342,342,342,342,342,342,342,342,342,342,342,349,369,452],"ymouse":[643,643,643,643,643,643,643,643,643,643,643,643,643,643,643,643,643,643,643,643,643,643,643,643,643,643,643,643,643,643,643,643,643,643,643,643,643,643,643,643,643,643,643,643,643,643,643,643,643,643,643,643,643,643,643,643,643,643,643,643,643,643,643,643,643,643,643,643,643,643,643,643,643,643,643,643,643,643,643,643,643,643,643,643,643,643,643,643,643,643,643,643,643,640,638,635,632,629,621,614,597,532,462,285,182,76,0,0,0,0,0,0,0,0,0,0,0,0,0,0,0,0,0,0,0,0,0,0,0,0,0,3,17],"timestamp_mouse":[10,40,49,69,88,108,129,150,168,188,209,228,249,269,289,309,329,348,369,388,409,428,449,469,489,509,528,549,569,589,608,629,649,669,689,708,729,749,769,789,809,829,848,868,889,908,928,949,968,989,1009,1029,1049,1069,1088,1108,1129,1148,1168,1189,1209,1228,1248,1268,1288,1308,1328,1349,1369,1388,1408,1429,1448,1468,1489,1509,1529,1549,1569,1589,1608,1628,1648,1669,1688,1708,1728,1749,1769,1788,1810,1828,1849,1869,1888,1908,1928,1948,1968,1989,2008,2028,2049,2068,2088,2108,2128,2149,2169,2188,2209,2228,2248,2268,2289,2308,2328,2349,2368,2389,2409,2428,2449,2469,2488,2508,2528,2549,2569,2588,2608,2629,2649],"xSR":741.5,"ySR":573.95,"xT1":424.9,"yT1":0,"xT2":1058.1,"yT2":0,"toosoon":0,"cond_shown":"Incongruent","ratio_trial":300,"L_num":4,"L_den":5,"R_num":6,"R_den":12,"correct_side":1,"subjID":"AngelJerónimoFonsecaBonilla21","gender":"0","school":"4a","age":"9"},{"start_time":1552069328202,"click_time":1552069331708,"finger_time":1552069330128,"fix_duration":772.9274697480471,"trial":25,"RT":1926,"MT":1580,"sideResp":1,"stimulus":[],"xmouse":[803,803,803,803,803,803,803,803,803,803,803,803,803,803,803,803,803,803,803,803,803,803,803,803,803,803,803,803,803,803,803,803,803,803,803,803,803,803,803,803,803,803,803,803,803,803,803,803,803,803,803,803,803,803,803,803,803,803,803,803,803,803,803,803,803,803,803,803,803,803,803,803,803,803,803,803,803,803,803,803,803,803,803,803,803,803,803,803,803,803,803,803,803,802,801,787,744,722,702,684,647,635,626,619,614,611,611,611,611,611,610,608,602,596,587,575,567,564,559,556,550,546,545,543,541,541,541,539,537,533,529,520,514,511,507,504,502,501,501,501,501,501,500,500,500,500,500,500,500,500,500,500,500,500,500,500,500,500,500,500,500,500,500,499,499,498,498,498,498,498,498,497,496,496,496,495],"ymouse":[620,620,620,620,620,620,620,620,620,620,620,620,620,620,620,620,620,620,620,620,620,620,620,620,620,620,620,620,620,620,620,620,620,620,620,620,620,620,620,620,620,620,620,620,620,620,620,620,620,620,620,620,620,620,620,620,620,620,620,620,620,620,620,620,620,620,620,620,620,620,620,620,620,620,620,620,620,620,620,620,620,620,620,620,620,620,620,620,620,620,620,620,620,620,617,604,573,557,539,519,464,432,408,383,362,322,313,308,305,304,302,300,295,289,280,269,260,256,252,249,246,242,234,223,214,202,190,184,178,172,166,151,141,135,127,121,117,116,115,114,113,112,111,111,111,111,111,111,111,111,111,111,111,111,111,111,111,111,111,111,111,111,111,111,109,107,106,106,106,106,106,103,101,100,100,97],"timestamp_mouse":[9,33,45,66,86,106,127,147,167,187,206,226,247,267,287,306,326,346,367,387,406,426,447,467,486,506,527,546,567,586,607,627,646,666,686,707,727,746,767,786,807,827,847,866,887,906,927,947,967,987,1008,1026,1047,1067,1086,1106,1126,1146,1167,1187,1206,1226,1247,1267,1286,1306,1327,1346,1367,1387,1406,1426,1447,1466,1487,1506,1526,1547,1566,1586,1607,1626,1647,1666,1687,1706,1726,1746,1766,1786,1807,1827,1847,1866,1887,1906,1926,1946,1966,1986,2007,2026,2046,2067,2087,2107,2126,2146,2166,2187,2207,2226,2247,2265,2286,2307,2326,2346,2367,2386,2407,2426,2447,2466,2486,2506,2526,2546,2566,2586,2607,2626,2646,2666,2687,2706,2727,2746,2767,2786,2806,2826,2847,2867,2887,2907,2926,2947,2967,2986,3006,3026,3046,3066,3086,3107,3126,3146,3166,3187,3207,3226,3246,3266,3287,3306,3327,3347,3366,3386,3407,3426,3446,3467,3487,3506],"xSR":741.5,"ySR":573.95,"xT1":424.9,"yT1":0,"xT2":1058.1,"yT2":0,"toosoon":0,"cond_shown":"Congruent","ratio_trial":300,"L_num":24,"L_den":30,"R_num":2,"R_den":4,"correct_side":1,"subjID":"AngelJerónimoFonsecaBonilla21","gender":"0","school":"4a","age":"9"},{"start_time":1552069335109,"click_time":1552069337488,"finger_time":1552069337209,"fix_duration":1479.7773548605487,"trial":26,"RT":2100,"MT":279,"sideResp":2,"stimulus":[],"xmouse":[799,799,799,799,799,799,799,799,799,799,799,799,799,799,799,799,799,799,799,799,799,799,799,799,799,799,799,799,799,799,799,799,799,799,799,799,799,799,799,799,799,799,799,799,799,799,799,799,799,799,799,799,799,799,799,799,799,799,799,799,799,799,799,799,799,799,799,799,799,799,799,799,799,799,799,799,799,799,799,799,799,799,799,799,799,799,799,799,799,799,799,799,799,799,799,799,799,799,799,799,799,799,802,806,813,818,843,872,890,910,926,945,946,948,951,957,969,1028,1064,1095],"ymouse":[640,640,640,640,640,640,640,640,640,640,640,640,640,640,640,640,640,640,640,640,640,640,640,640,640,640,640,640,640,640,640,640,640,640,640,640,640,640,640,640,640,640,640,640,640,640,640,640,640,640,640,640,640,640,640,640,640,640,640,640,640,640,640,640,640,640,640,640,640,640,640,640,640,640,640,640,640,640,640,640,640,640,640,640,640,640,640,640,640,640,640,640,640,640,640,640,640,640,640,640,640,640,628,614,591,569,480,388,337,307,290,277,276,275,273,265,253,188,139,93],"timestamp_mouse":[2,20,46,60,80,99,119,139,159,179,200,219,239,260,280,299,319,340,360,379,400,419,440,460,479,499,519,539,559,580,600,619,639,660,679,699,720,740,759,779,800,819,839,860,880,900,919,939,960,979,998,1019,1039,1060,1079,1099,1119,1139,1160,1179,1199,1219,1239,1259,1279,1300,1319,1340,1360,1379,1400,1419,1440,1460,1480,1499,1519,1540,1560,1579,1600,1619,1640,1660,1680,1699,1720,1740,1760,1780,1799,1820,1840,1859,1879,1899,1919,1940,1959,1980,1999,2019,2039,2060,2079,2100,2119,2138,2159,2179,2200,2219,2239,2260,2279,2299,2319,2339,2359,2379],"xSR":741.5,"ySR":573.95,"xT1":424.9,"yT1":0,"xT2":1058.1,"yT2":0,"toosoon":0,"cond_shown":"Congruent","ratio_trial":100,"L_num":8,"L_den":16,"R_num":2,"R_den":5,"correct_side":1,"subjID":"AngelJerónimoFonsecaBonilla21","gender":"0","school":"4a","age":"9"},{"start_time":1552069341840,"click_time":1552069344648,"finger_time":1552069344148,"fix_duration":250,"trial":27,"RT":2308,"MT":500,"sideResp":1,"stimulus":[],"xmouse":[783,783,783,783,783,783,783,783,783,783,783,783,783,783,783,783,783,783,783,783,783,783,783,783,783,783,783,783,783,783,783,783,783,783,783,783,783,783,783,783,783,783,783,783,783,783,783,783,783,783,783,783,783,783,783,783,783,783,783,783,783,783,783,783,783,783,783,783,783,783,783,783,783,783,783,783,783,783,783,783,783,783,783,783,783,783,783,783,783,783,783,783,783,783,783,783,783,783,783,783,783,783,783,783,783,783,783,783,783,783,783,783,780,770,742,682,650,628,608,583,517,478,447,425,413,400,396,393,392,390,389,389,389,392,393,394,394,394,403,418,504],"ymouse":[612,612,612,612,612,612,612,612,612,612,612,612,612,612,612,612,612,612,612,612,612,612,612,612,612,612,612,612,612,612,612,612,612,612,612,612,612,612,612,612,612,612,612,612,612,612,612,612,612,612,612,612,612,612,612,612,612,612,612,612,612,612,612,612,612,612,612,612,612,612,612,612,612,612,612,612,612,612,612,612,612,612,612,612,612,612,612,612,612,612,612,612,612,612,612,612,612,612,612,612,612,612,612,612,612,612,612,612,612,612,612,612,608,602,588,561,539,524,507,483,407,361,326,293,270,231,208,191,174,155,123,112,104,99,96,96,96,96,95,93,79],"timestamp_mouse":[9,41,48,68,87,109,129,148,168,189,209,228,248,268,289,309,329,348,369,389,409,428,449,468,489,508,528,548,569,588,608,628,648,669,688,708,729,748,769,789,808,829,848,868,888,908,928,949,969,989,1008,1029,1049,1069,1089,1108,1129,1148,1168,1189,1208,1229,1249,1270,1289,1308,1328,1349,1369,1389,1408,1428,1449,1469,1488,1509,1528,1548,1569,1589,1609,1628,1649,1669,1688,1709,1729,1748,1769,1789,1809,1828,1849,1869,1889,1908,1929,1949,1969,1988,2008,2029,2049,2069,2089,2108,2128,2148,2169,2188,2208,2228,2248,2268,2289,2308,2328,2348,2369,2388,2408,2428,2448,2469,2488,2508,2529,2547,2568,2589,2608,2628,2648,2668,2688,2708,2729,2748,2769,2788,2807],"xSR":741.5,"ySR":573.95,"xT1":424.9,"yT1":0,"xT2":1058.1,"yT2":0,"toosoon":0,"cond_shown":"Incongruent","ratio_trial":100,"L_num":11,"L_den":22,"R_num":9,"R_den":15,"correct_side":2,"subjID":"AngelJerónimoFonsecaBonilla21","gender":"0","school":"4a","age":"9"},{"start_time":1552069348019,"click_time":1552069353089,"finger_time":1552069350368,"fix_duration":768.1656739214608,"trial":28,"RT":2349,"MT":2721,"sideResp":2,"stimulus":[],"xmouse":[787,787,787,787,787,787,787,787,787,787,787,787,787,787,787,787,787,787,787,787,787,787,787,787,787,787,787,787,787,787,787,787,787,787,787,787,787,787,787,787,787,787,787,787,787,787,787,787,787,787,787,787,787,787,787,787,787,787,787,787,787,787,787,787,787,787,787,787,787,787,787,787,787,787,787,787,787,787,787,787,787,787,787,787,787,787,787,787,787,787,787,787,787,787,787,787,787,787,787,787,787,787,787,787,787,787,787,787,787,787,787,787,787,787,787,787,785,750,708,639,541,431,216,151,110,60,34,0,0,0,0,0,34,53,93,115,132,170,192,219,257,283,325,337,337,337,338,345,357,366,375,379,381,383,387,391,394,394,395,395,395,395,395,395,395,395,395,395,395,395,395,395,395,395,395,395,395,395,395,395,395,395,395,395,395,395,395,395,395,395,395,395,395,395,395,395,395,395,395,395,395,395,395,395,395,395,395,395,395,395,395,395,395,395,395,396,403,436,486,547,629,714,896,1035,1119,1197,1258,1316,1331,1344,1354,1367,1391,1404,1409,1411,1412,1407,1398,1387,1373,1357,1339,1282,1259,1235,1213,1183,1178,1175,1173,1170,1164,1158],"ymouse":[580,580,580,580,580,580,580,580,580,580,580,580,580,580,580,580,580,580,580,580,580,580,580,580,580,580,580,580,580,580,580,580,580,580,580,580,580,580,580,580,580,580,580,580,580,580,580,580,580,580,580,580,580,580,580,580,580,580,580,580,580,580,580,580,580,580,580,580,580,580,580,580,580,580,580,580,580,580,580,580,580,580,580,580,580,580,580,580,580,580,580,580,580,580,580,580,580,580,580,580,580,580,580,580,580,580,580,580,580,580,580,580,580,580,580,580,578,556,532,495,445,375,196,113,37,0,0,0,0,0,0,0,0,0,0,0,0,6,14,23,33,41,53,56,56,56,57,61,66,70,74,75,77,77,78,78,79,79,79,79,79,79,79,79,79,79,79,79,79,79,79,79,79,79,79,79,79,79,79,79,79,79,79,79,79,79,79,79,79,79,79,79,79,79,79,79,79,79,79,79,79,79,79,79,79,79,79,79,79,79,79,79,79,79,79,79,85,120,158,210,269,330,424,451,451,441,419,361,323,289,258,224,166,130,107,85,64,24,5,0,0,0,0,0,7,16,27,44,48,51,53,54,55,57],"timestamp_mouse":[11,40,49,68,90,110,129,149,170,189,210,230,248,270,289,309,330,350,369,390,410,430,450,470,490,509,529,549,569,590,610,630,650,669,690,709,730,750,770,790,809,830,849,870,890,909,930,950,970,990,1010,1030,1049,1069,1090,1109,1129,1149,1169,1189,1209,1229,1249,1270,1289,1309,1330,1348,1370,1390,1410,1430,1449,1470,1490,1509,1530,1549,1570,1590,1609,1629,1650,1669,1690,1709,1730,1749,1769,1788,1809,1830,1849,1870,1890,1909,1930,1949,1970,1990,2010,2030,2049,2070,2088,2110,2130,2149,2170,2189,2209,2230,2249,2269,2290,2309,2329,2349,2369,2389,2410,2430,2449,2469,2489,2510,2529,2549,2570,2589,2609,2630,2649,2670,2689,2710,2730,2749,2769,2789,2809,2829,2849,2869,2890,2910,2928,2950,2969,2989,3009,3029,3049,3069,3089,3109,3130,3150,3169,3189,3209,3229,3249,3269,3288,3310,3329,3350,3369,3389,3410,3430,3449,3470,3489,3510,3529,3550,3570,3589,3609,3629,3649,3670,3689,3708,3729,3750,3769,3789,3809,3829,3849,3869,3889,3910,3929,3949,3969,3989,4008,4030,4050,4069,4089,4109,4128,4149,4169,4189,4209,4229,4249,4270,4290,4309,4329,4349,4369,4389,4409,4429,4449,4470,4489,4510,4529,4549,4570,4589,4609,4630,4649,4670,4689,4709,4730,4749,4769,4789,4809,4830,4849,4869,4889,4910,4929,4950,4969,4989,5008,5029,5050,5070],"xSR":741.5,"ySR":573.95,"xT1":424.9,"yT1":0,"xT2":1058.1,"yT2":0,"toosoon":0,"cond_shown":"Incongruent","ratio_trial":200,"L_num":4,"L_den":30,"R_num":1,"R_den":3,"correct_side":2,"subjID":"AngelJerónimoFonsecaBonilla21","gender":"0","school":"4a","age":"9"},{"start_time":1552069356450,"click_time":1552069363708,"finger_time":1552069359388,"fix_duration":560.4307116952981,"trial":29,"RT":2938,"MT":4320,"sideResp":2,"stimulus":[],"xmouse":[814,814,814,814,814,814,814,814,814,814,814,814,814,814,814,814,814,814,814,814,814,814,814,814,814,814,814,814,814,814,814,814,814,814,814,814,814,814,814,814,814,814,814,814,814,814,814,814,814,814,814,814,814,814,814,814,814,814,814,814,814,814,814,814,814,814,814,814,814,814,814,814,814,814,814,814,814,814,814,814,814,814,814,814,814,814,814,814,814,814,814,814,814,814,814,814,814,814,814,814,814,814,814,814,814,814,814,814,814,814,814,814,814,814,814,814,814,814,814,814,814,814,814,814,814,814,814,814,814,818,820,823,824,824,825,826,826,827,827,828,829,831,831,833,835,837,844,851,860,870,875,883,884,887,888,889,891,892,893,894,896,903,906,911,916,917,922,925,927,929,932,934,935,936,937,938,940,942,943,944,945,946,946,946,946,946,946,946,946,948,950,951,953,954,957,959,960,962,963,964,964,964,964,964,964,964,963,955,931,909,857,780,727,682,653,616,607,603,603,603,603,603,603,603,603,603,603,603,603,603,603,603,603,603,603,603,603,601,601,600,600,599,599,599,598,598,597,597,596,596,594,590,589,587,587,587,587,587,586,586,586,586,586,586,586,586,586,585,579,572,567,564,564,564,564,564,564,564,564,564,563,559,556,555,553,552,550,550,550,549,546,544,544,544,544,544,544,544,544,544,544,544,544,544,545,546,556,586,670,836,915,1351,1351,1351,1351,1351,1351,1351,1351,1351,1351,1351,1351,1351,1351,1351,1351,1351,1351,1351,1351,1351,1351,1351,1351,1351,1351,1351,1351,1351,1351,1351,1578,1559,1531,1497,1437,1377,1358,1353,1352,1352,1352,1351,1349,1328,1328,1297,1279,1256,1235,1161,1114],"ymouse":[651,651,651,651,651,651,651,651,651,651,651,651,651,651,651,651,651,651,651,651,651,651,651,651,651,651,651,651,651,651,651,651,651,651,651,651,651,651,651,651,651,651,651,651,651,651,651,651,651,651,651,651,651,651,651,651,651,651,651,651,651,651,651,651,651,651,651,651,651,651,651,651,651,651,651,651,651,651,651,651,651,651,651,651,651,651,651,651,651,651,651,651,651,651,651,651,651,651,651,651,651,651,651,651,651,651,651,651,651,651,651,651,651,651,651,651,651,651,651,651,651,651,651,651,651,651,651,651,651,643,639,631,628,627,625,623,622,619,618,615,615,611,609,606,601,598,579,563,542,515,499,477,470,465,460,458,455,454,453,452,450,447,444,441,438,436,433,431,429,428,426,424,423,423,421,420,417,416,415,414,413,412,412,412,412,412,412,412,412,410,407,405,402,401,398,394,393,391,389,387,386,385,385,385,385,383,380,376,362,349,321,279,247,221,203,182,178,176,176,176,176,176,176,176,176,176,176,176,176,176,176,176,176,176,176,176,176,174,172,171,171,171,170,168,168,167,166,166,165,165,164,162,162,162,162,162,162,162,162,162,162,162,162,162,162,162,162,162,159,155,153,152,152,152,152,152,152,152,152,152,152,150,148,147,146,145,143,143,143,143,143,143,143,143,143,143,143,143,143,143,143,143,143,142,140,140,137,133,120,103,96,41,41,41,41,41,41,41,41,41,41,41,41,41,41,41,41,41,41,41,41,41,41,41,41,41,41,41,41,41,41,41,2,6,10,11,11,11,11,11,11,11,11,11,11,11,11,11,11,11,13,31,44],"timestamp_mouse":[25,44,59,79,99,118,139,157,178,199,219,237,258,279,299,318,338,359,379,399,418,439,458,478,498,518,538,559,578,599,618,639,659,679,699,718,739,758,777,799,819,838,859,878,899,919,939,959,979,998,1019,1039,1059,1079,1098,1118,1139,1159,1178,1199,1218,1237,1258,1278,1298,1319,1338,1359,1378,1398,1418,1439,1458,1478,1499,1518,1538,1559,1579,1598,1618,1639,1658,1679,1699,1718,1738,1758,1779,1798,1819,1839,1858,1879,1899,1919,1938,1959,1979,1999,2019,2038,2059,2077,2098,2117,2138,2158,2178,2199,2219,2238,2259,2279,2299,2318,2339,2358,2378,2399,2418,2439,2458,2479,2499,2518,2538,2559,2578,2598,2619,2638,2658,2679,2698,2719,2737,2758,2778,2798,2818,2838,2858,2878,2898,2918,2938,2958,2978,2997,3018,3038,3058,3078,3098,3117,3138,3157,3178,3198,3218,3238,3259,3278,3298,3318,3338,3358,3378,3399,3418,3438,3458,3478,3497,3519,3538,3557,3579,3598,3618,3638,3658,3678,3698,3718,3739,3759,3778,3798,3819,3837,3858,3878,3899,3918,3937,3957,3978,3998,4018,4038,4060,4078,4098,4118,4138,4158,4178,4198,4218,4238,4258,4279,4298,4318,4338,4358,4378,4398,4418,4438,4459,4478,4498,4519,4539,4559,4579,4598,4619,4638,4658,4678,4697,4717,4738,4758,4778,4798,4819,4838,4858,4879,4898,4919,4938,4959,4979,4998,5018,5038,5058,5079,5098,5119,5138,5159,5178,5199,5219,5238,5258,5279,5299,5317,5337,5358,5378,5398,5419,5438,5457,5478,5498,5519,5539,5559,5578,5598,5618,5638,5658,5679,5698,5719,5738,5759,5778,5798,5818,5838,5858,5878,5898,5919,5938,5958,5978,5997,6019,6038,6059,6078,6098,6118,6138,6158,6179,6198,6218,6238,6258,6279,6298,6317,6338,6358,6378,6397,6418,6438,6458,6478,6499,6518,6537,6558,6578,6598,6618,6638,6658,6678,6698,6719,6739,6758,6779,6798,6818,6839,6858,6878,6898,6917,6939,6958,6979,6998,7018,7039,7059,7078,7098,7119,7137,7157,7178,7198,7218,7238,7258],"xSR":741.5,"ySR":573.95,"xT1":424.9,"yT1":0,"xT2":1058.1,"yT2":0,"toosoon":0,"cond_shown":"Congruent","ratio_trial":200,"L_num":9,"L_den":30,"R_num":13,"R_den":26,"correct_side":2,"subjID":"AngelJerónimoFonsecaBonilla21","gender":"0","school":"4a","age":"9"},{"start_time":1552069366959,"click_time":1552069369690,"finger_time":1552069368568,"fix_duration":250,"trial":30,"RT":1609,"MT":1122,"sideResp":1,"stimulus":[],"xmouse":[787,787,787,787,787,787,787,787,787,787,787,787,787,787,787,787,787,787,787,787,787,787,787,787,787,787,787,787,787,787,787,787,787,787,787,787,787,787,787,787,787,787,787,787,787,787,787,787,787,787,787,787,787,787,787,787,787,787,787,787,787,787,787,787,787,787,787,787,787,787,787,787,787,787,787,787,787,787,784,779,775,767,760,756,753,749,742,739,736,729,723,711,699,689,677,662,633,611,601,589,585,582,580,579,579,579,579,579,579,579,579,579,579,579,579,579,579,579,579,579,579,579,579,579,578,574,564,556,550,546,542,538,532,530,529,526,523],"ymouse":[623,623,623,623,623,623,623,623,623,623,623,623,623,623,623,623,623,623,623,623,623,623,623,623,623,623,623,623,623,623,623,623,623,623,623,623,623,623,623,623,623,623,623,623,623,623,623,623,623,623,623,623,623,623,623,623,623,623,623,623,623,623,623,623,623,623,623,623,623,623,623,623,623,623,623,623,616,608,596,576,562,541,526,517,507,499,483,474,466,448,434,407,373,340,286,225,129,58,25,0,0,0,0,0,0,0,0,0,0,0,0,0,0,0,0,0,0,0,0,0,0,0,0,0,0,2,8,15,19,21,21,24,24,25,26,26,27],"timestamp_mouse":[12,31,61,70,89,108,130,150,170,189,209,229,250,270,288,310,329,350,370,389,410,428,450,469,489,510,530,549,569,590,610,629,650,669,690,709,730,750,769,790,809,829,849,869,890,910,929,948,970,990,1010,1030,1049,1070,1089,1110,1129,1149,1170,1190,1209,1229,1249,1270,1288,1309,1329,1349,1369,1389,1410,1429,1448,1469,1490,1509,1529,1548,1570,1589,1609,1629,1649,1669,1689,1709,1730,1749,1770,1789,1809,1830,1849,1869,1889,1910,1929,1949,1970,1990,2009,2029,2050,2069,2089,2109,2129,2149,2168,2190,2209,2229,2249,2269,2290,2309,2330,2349,2369,2390,2409,2429,2449,2470,2489,2509,2529,2549,2571,2589,2609,2629,2649,2669,2689,2709,2730],"xSR":741.5,"ySR":573.95,"xT1":424.9,"yT1":0,"xT2":1058.1,"yT2":0,"toosoon":0,"cond_shown":"Congruent","ratio_trial":100,"L_num":3,"L_den":6,"R_num":2,"R_den":5,"correct_side":1,"subjID":"AngelJerónimoFonsecaBonilla21","gender":"0","school":"4a","age":"9"},{"start_time":1552069372779,"click_time":1552069375049,"finger_time":1552069374188,"fix_duration":1010.1304583492933,"trial":31,"RT":1409,"MT":861,"sideResp":1,"stimulus":[],"xmouse":[804,804,804,804,804,804,804,804,804,804,804,804,804,804,804,804,804,804,804,804,804,804,804,804,804,804,804,804,804,804,804,804,804,804,804,804,804,804,804,804,804,804,804,804,804,804,804,804,804,804,804,804,804,804,804,804,804,804,804,804,804,804,804,804,804,804,804,804,803,802,797,778,763,746,717,709,670,659,652,648,645,640,636,631,624,616,596,590,585,580,573,560,555,553,549,547,544,544,544,544,544,544,544,543,543,540,539,533,531,530,529,529,525,523],"ymouse":[588,588,588,588,588,588,588,588,588,588,588,588,588,588,588,588,588,588,588,588,588,588,588,588,588,588,588,588,588,588,588,588,588,588,588,588,588,588,588,588,588,588,588,588,588,588,588,588,588,588,588,588,588,588,588,588,588,588,588,588,588,588,588,588,588,588,588,588,588,583,571,534,515,496,462,454,421,410,402,396,390,375,362,345,320,294,222,199,178,156,138,108,99,92,87,85,82,82,82,82,82,82,82,82,82,80,79,77,76,75,75,75,74,73],"timestamp_mouse":[9,30,50,70,89,110,129,150,169,190,209,229,250,269,290,310,329,350,370,389,410,430,450,470,489,509,530,549,570,589,609,629,650,670,690,710,730,750,769,789,810,829,849,869,888,910,929,949,970,989,1009,1029,1050,1069,1089,1109,1129,1149,1169,1189,1210,1230,1250,1269,1289,1310,1328,1349,1368,1389,1409,1430,1449,1470,1489,1508,1530,1549,1569,1589,1609,1630,1649,1669,1689,1709,1730,1749,1769,1789,1809,1830,1849,1869,1889,1910,1930,1949,1969,1989,2009,2029,2050,2069,2089,2110,2129,2150,2169,2189,2209,2229,2250,2270],"xSR":741.5,"ySR":573.95,"xT1":424.9,"yT1":0,"xT2":1058.1,"yT2":0,"toosoon":0,"cond_shown":"Congruent","ratio_trial":100,"L_num":3,"L_den":6,"R_num":2,"R_den":5,"correct_side":1,"subjID":"AngelJerónimoFonsecaBonilla21","gender":"0","school":"4a","age":"9"},{"start_time":1552069377692,"click_time":1552069380048,"finger_time":1552069379409,"fix_duration":1362.1325355707204,"trial":32,"RT":1717,"MT":639,"sideResp":1,"stimulus":[],"xmouse":[799,799,799,799,799,799,799,799,799,799,799,799,799,799,799,799,799,799,799,799,799,799,799,799,799,799,799,799,799,799,799,799,799,799,799,799,799,799,799,799,799,799,799,799,799,799,799,799,799,799,799,799,799,799,799,799,799,799,799,799,799,799,799,799,799,799,799,799,799,799,799,799,799,799,799,799,799,799,799,799,799,799,799,792,774,751,652,531,454,398,364,358,349,345,344,344,344,344,344,344,344,344,344,344,344,344,344,344,350,361,369,378,392,400,408,413,422,426],"ymouse":[611,611,611,611,611,611,611,611,611,611,611,611,611,611,611,611,611,611,611,611,611,611,611,611,611,611,611,611,611,611,611,611,611,611,611,611,611,611,611,611,611,611,611,611,611,611,611,611,611,611,611,611,611,611,611,611,611,611,611,611,611,611,611,611,611,611,611,611,611,611,611,611,611,611,611,611,611,611,611,611,611,611,611,600,579,558,442,289,178,67,0,0,0,0,0,0,0,0,0,0,0,0,0,0,0,0,0,0,1,7,12,17,25,30,32,36,41,42],"timestamp_mouse":[16,40,56,76,97,116,136,156,177,198,217,237,256,276,296,317,336,356,377,397,416,437,457,476,496,517,536,557,576,596,617,636,656,677,697,716,737,756,776,796,815,836,857,876,897,916,936,956,976,996,1017,1036,1056,1077,1097,1116,1136,1156,1177,1196,1216,1236,1256,1276,1297,1316,1336,1356,1376,1397,1415,1436,1456,1476,1497,1516,1535,1556,1576,1597,1617,1635,1656,1676,1696,1717,1736,1755,1776,1796,1817,1836,1856,1877,1896,1916,1937,1956,1976,1996,2016,2036,2055,2076,2097,2117,2136,2157,2176,2197,2216,2236,2256,2276,2297,2317,2336,2356],"xSR":741.5,"ySR":573.95,"xT1":424.9,"yT1":0,"xT2":1058.1,"yT2":0,"toosoon":0,"cond_shown":"Congruent","ratio_trial":300,"L_num":5,"L_den":25,"R_num":6,"R_den":12,"correct_side":2,"subjID":"AngelJerónimoFonsecaBonilla21","gender":"0","school":"4a","age":"9"},{"start_time":1552069384630,"click_time":1552069388508,"finger_time":1552069386147,"fix_duration":299.4476196055624,"trial":33,"RT":1517,"MT":2361,"sideResp":2,"stimulus":[],"xmouse":[785,785,785,785,785,785,785,785,785,785,785,785,785,785,785,785,785,785,785,785,785,785,785,785,785,785,785,785,785,785,785,785,785,785,785,785,785,785,785,785,785,785,785,785,785,785,785,785,785,785,785,785,785,785,785,785,785,785,785,785,785,785,785,785,785,785,785,785,785,789,793,794,797,797,799,801,804,807,809,811,813,815,817,818,821,827,831,833,834,837,840,842,843,845,846,851,853,856,859,862,866,867,869,872,874,878,879,881,882,883,884,885,886,886,887,888,889,891,892,894,898,901,904,907,908,914,920,924,929,933,938,942,944,947,949,953,956,959,961,962,967,968,970,971,972,976,977,978,979,980,982,983,983,984,985,986,988,990,991,991,993,995,996,998,1000,1005,1007,1009,1010,1011,1012,1012,1013,1014,1014,1015,1017,1019,1020,1024,1026,1032,1035,1037,1039,1044,1047,1049,1051,1053,1055,1058,1058,1060],"ymouse":[615,615,615,615,615,615,615,615,615,615,615,615,615,615,615,615,615,615,615,615,615,615,615,615,615,615,615,615,615,615,615,615,615,615,615,615,615,615,615,615,6