[{"start_time":1552327280900,"click_time":1552327354481,"finger_time":1552327291000,"fix_duration":1415.951203061466,"trial":0,"RT":10100,"MT":63481,"sideResp":1,"stimulus":[],"xmouse":[788,788,788,788,788,788,788,788,788,788,788,788,788,788,788,788,788,788,788,788,788,788,788,788,788,788,788,788,788,788,788,788,788,788,788,788,788,788,787,787,787,786,786,786,786,786,786,786,786,785,785,784,783,783,783,783,783,783,783,783,783,783,783,783,783,783,783,783,783,783,783,783,783,783,783,783,783,783,783,783,783,783,783,783,783,783,783,783,783,783,783,783,783,783,783,783,783,783,783,783,783,783,783,783,783,783,783,783,783,783,783,783,783,783,783,783,783,783,783,783,783,783,783,783,783,783,783,783,783,783,783,783,783,783,783,783,783,783,783,783,783,783,781,781,781,781,781,781,781,781,781,781,781,781,781,781,781,781,781,781,781,781,781,781,781,781,781,781,781,781,781,781,781,781,781,781,781,781,781,781,781,781,781,781,781,781,781,781,781,781,781,781,781,781,781,781,781,781,781,781,781,781,781,781,781,781,781,781,781,781,781,782,783,784,784,784,784,784,784,784,784,786,787,788,791,796,814,822,827,828,828,828,828,826,824,821,812,808,803,799,794,789,789,789,789,789,789,789,789,789,789,789,789,789,789,789,789,789,789,788,787,785,784,784,784,784,784,784,784,784,784,784,784,784,784,784,784,784,784,784,784,784,784,784,784,784,784,784,784,784,784,784,784,784,784,784,784,784,784,784,784,784,784,784,784,784,784,784,784,784,784,784,784,784,784,784,784,784,784,784,784,784,784,784,784,784,784,784,784,784,784,784,784,784,784,784,784,784,784,784,784,784,784,784,784,784,784,784,784,784,784,784,784,784,784,784,784,784,784,784,784,784,784,784,784,784,784,784,784,784,784,784,784,784,784,784,784,784,784,784,784,784,784,784,784,784,784,784,784,784,784,784,784,784,784,784,784,784,784,784,784,784,784,784,784,784,784,784,784,784,784,784,784,784,784,784,784,784,784,784,784,784,784,784,784,784,784,784,784,784,784,784,784,784,784,784,784,784,784,784,784,784,784,784,784,784,784,784,784,784,784,784,784,784,784,784,784,784,784,784,784,784,784,784,784,783,785,788,789,790,790,790,790,790,790,790,790,789,789,789,788,788,788,787,787,787,786,786,785,785,785,785,785,785,786,789,790,795,796,797,797,798,798,798,798,798,798,798,798,798,798,798,798,797,794,791,788,777,772,769,766,765,763,762,762,762,762,762,762,763,765,765,767,767,767,767,767,767,767,767,767,767,768,768,768,768,768,768,768,768,768,768,768,768,768,768,768,768,768,768,768,768,768,768,768,768,768,768,768,768,768,768,768,768,768,768,768,768,768,768,768,768,768,768,768,768,768,768,768,768,768,768,768,768,768,768,768,768,768,768,768,767,767,767,767,767,767,767,767,767,767,767,767,767,767,767,767,767,768,768,768,768,766,764,763,763,763,763,763,763,763,763,763,763,763,761,759,755,754,754,754,754,755,755,755,755,755,755,755,755,755,755,754,753,753,753,753,755,757,757,757,757,761,761,761,761,761,761,761,761,761,761,761,761,761,761,761,761,761,761,761,761,761,761,761,761,761,761,761,761,761,761,761,761,761,761,761,761,761,761,761,766,766,784,789,791,791,791,791,791,791,791,791,791,791,791,791,791,791,791,791,791,791,791,791,791,791,791,791,791,791,791,791,791,791,791,791,791,791,789,789,789,789,789,789,789,789,789,789,789,789,789,789,789,789,789,789,789,789,789,789,789,789,789,789,789,789,789,789,789,789,789,789,789,789,789,789,789,789,789,789,789,789,789,789,789,789,789,789,789,789,789,789,789,789,789,789,789,789,789,570,573,579,598,606,613,621,632,637,643,646,648,652,655,666,675,685,705,715,727,741,751,758,760,760,760,760,760,763,765,765,765,765,765,765,765,765,765,765,765,765,794,794,795,795,795,795,795,795,794,792,790,788,786,785,782,781,779,779,779,779,779,781,782,782,782,782,782,782,782,782,782,777,772,758,755,755,755,754,754,754,754,754,754,754,754,754,754,754,754,754,754,754,754,754,754,754,754,754,754,754,801,801,801,801,802,803,803,804,804,804,804,804,804,804,804,804,804,804,804,806,807,811,817,821,822,822,823,824,824,824,824,824,824,824,824,824,825,827,827,827,827,827,827,827,827,827,827,827,827,827,827,827,827,827,827,827,827,827,827,827,827,827,827,827,827,1046,1065,1259,1341,1371,1387,1387,1387,1387,1387,1387,1387,1387,1387,1387,1387,1303,1263,1220,1172,1126,1088,1001,955,955,955,955,955,955,955,955,955,955,955,743,743,744,767,783,797,815,835,869,880,883,884,884,884,884,884,884,881,881,879,879,879,879,879,879,879,879,879,879,879,879,879,879,879,879,879,879,879,764,765,765,766,767,767,767,768,770,771,771,771,771,771,771,771,771,801,823,848,896,914,926,932,941,1016,1082,1140,1181,1205,1222,1223,1223,1226,1231,1275,1411,1497,1533,1539,1536,1528,1517,1504,1476,1438,1422,1412,1407,1404,1394,1385,1374,1361,1343,1317,1301,1284,1264,1242,1198,1175,1153,1119,1087,962,867,788,734,716,711,704,700,691,676,660,620,605,590,576,543,526,508,485,482,493,511,535,553,563,568,569,576,589,589,589,589,589,589,589,589,589,589,589,589,632,638,639,639,639,639,639,639,639,638,636,633,633,634,637,643,643,644,654,671,696,766,789,798,802,803,803,804,805,815,859,877,889,894,895,895,895,895,895,898,904,904,904,904,904,904,904,904,904,904,907,907,907,907,907,907,907,907,907,907,907,907,907,907,907,907,907,907,907,907,907,907,907,907,907,907,907,907,907,907,907,915,915,915,915,906,881,863,859,858,858,856,853,845,838,830,827,821,816,808,796,793,791,790,790,790,790,790,790,790,790,790,790,790,790,790,790,790,790,791,793,796,796,796,796,796,796,796,796,796,796,796,796,796,796,796,796,796,796,796,796,822,822,822,822,822,822,822,822,822,822,822,822,822,822,822,822,822,822,822,822,822,822,822,822,822,822,822,822,822,817,817,816,816,816,816,816,816,815,815,814,814,814,814,814,814,814,814,814,812,811,811,810,810,810,810,809,809,812,814,816,821,824,827,828,833,845,849,851,853,854,852,850,847,843,835,834,834,834,834,834,812,799,795,792,787,773,767,763,761,761,760,760,760,759,753,745,743,742,741,741,741,744,746,748,749,749,749,749,747,746,746,746,746,745,745,745,745,745,745,745,745,745,745,745,745,748,749,751,751,752,752,752,752,752,752,752,752,752,752,752,752,752,753,753,753,753,753,753,753,753,753,753,753,753,753,753,753,753,753,753,753,753,753,753,753,753,753,753,753,753,753,753,753,753,753,753,753,753,753,753,753,753,753,753,753,753,753,753,753,753,753,753,753,753,753,753,753,753,753,753,753,753,753,753,753,753,753,753,753,753,753,753,753,753,753,753,753,753,753,753,753,753,753,753,753,753,753,753,753,753,753,753,753,753,753,753,723,723,723,723,723,723,723,723,723,723,723,728,727,727,727,727,727,727,727,727,728,728,728,728,728,730,730,731,731,732,732,732,735,736,739,742,743,743,743,743,743,743,744,744,734,734,734,734,734,734,734,734,700,699,699,705,709,717,724,725,725,725,725,725,725,725,725,725,725,725,725,725,725,725,725,725,725,725,725,725,725,725,725,725,725,725,725,725,725,725,725,725,725,725,725,725,725,725,725,589,624,643,666,678,690,695,699,702,705,708,722,738,762,804,885,914,917,917,917,917,908,897,882,864,818,791,787,787,787,787,787,787,787,787,787,787,787,787,787,787,787,787,787,787,787,787,787,791,793,804,809,812,813,815,822,827,828,829,831,832,833,833,833,833,833,833,833,833,833,833,833,833,833,833,833,833,833,833,833,834,834,834,834,834,834,834,834,834,834,834,834,834,834,834,834,834,834,834,834,834,834,834,834,834,834,834,834,834,834,834,834,834,834,834,834,834,834,834,834,834,834,834,834,834,834,834,834,834,834,834,834,834,834,834,834,834,834,834,834,834,834,835,835,835,835,835,835,835,835,835,835,835,835,835,835,835,835,835,835,835,835,835,835,835,835,835,835,835,835,835,835,835,835,835,835,835,835,835,835,835,835,835,835,835,835,835,834,833,832,831,828,825,821,814,774,710,671,639,619,605,580,572,564,557,549,512,459,367,220,48,0,0,0,1,5,23,43,62,81,92,121,160,182,182,182,182,182,182,182,182,182,182,182,182,182,182,182,182,182,182,182,182,182,182,182,182,182,182,182,182,182,182,182,182,182,182,182,182,182,182,182,182,182,182,182,182,182,182,182,182,182,182,182,182,182,182,182,182,182,182,182,182,182,182,182,182,182,182,182,182,182,182,182,182,182,182,182,182,182,182,182,182,182,182,182,182,182,182,182,182,182,182,182,182,182,182,182,182,182,182,182,182,182,182,182,182,182,182,182,182,182,182,182,182,182,182,182,182,182,182,182,182,182,182,182,182,182,182,182,182,182,182,182,182,182,182,182,182,182,182,182,182,182,182,182,182,182,182,182,182,182,182,182,182,182,182,182,182,182,182,182,182,182,182,182,182,182,182,182,182,182,182,182,182,182,182,182,182,182,182,182,182,182,182,182,182,182,182,182,182,182,182,182,182,182,182,182,182,182,182,182,182,182,182,182,182,182,182,182,182,182,182,182,182,182,182,182,182,182,182,182,182,182,182,182,182,182,182,182,182,182,182,182,182,182,182,182,182,182,182,182,182,182,182,182,182,182,182,182,182,182,182,182,182,182,182,182,182,182,182,182,182,470],"ymouse":[542,542,542,542,542,542,542,542,542,542,542,542,542,542,542,542,542,542,542,542,542,542,542,542,542,542,542,542,542,542,542,542,543,543,543,543,543,543,543,543,543,543,543,543,543,543,543,543,543,543,543,543,543,543,543,543,543,543,543,543,543,543,543,543,543,543,543,543,543,543,543,543,543,543,543,543,543,543,543,543,543,543,543,543,543,543,543,543,543,543,543,543,543,543,543,543,543,543,543,543,543,543,543,543,543,543,543,543,543,543,543,543,543,543,543,543,543,543,543,543,543,543,543,543,543,543,543,543,543,543,543,543,543,543,543,543,543,543,543,543,543,543,543,544,544,544,544,544,544,544,544,544,544,544,544,544,544,544,544,544,544,544,544,544,544,544,544,544,544,544,544,544,544,544,544,544,544,544,544,544,544,544,544,544,544,544,544,544,544,544,544,544,544,544,544,544,544,544,544,544,544,544,544,544,544,544,544,544,544,542,541,539,538,538,538,538,538,538,538,538,539,545,547,548,548,548,548,548,547,547,547,547,547,547,547,547,548,549,551,553,555,558,558,558,558,558,558,558,558,558,558,558,558,558,558,558,558,558,558,558,559,560,560,561,561,561,561,561,561,561,561,561,561,561,561,561,561,561,561,561,561,561,561,561,561,561,561,561,561,561,561,561,561,561,561,561,561,561,561,561,561,561,561,561,561,561,561,561,561,561,561,561,561,561,561,561,561,561,561,561,561,561,561,561,561,561,561,561,561,561,561,561,561,561,561,561,561,561,561,561,561,561,561,561,561,561,561,561,561,561,561,561,561,561,561,561,561,561,561,561,561,561,561,561,561,561,561,561,561,561,561,561,561,561,561,561,561,561,561,561,561,561,561,561,561,561,561,561,561,561,561,561,561,561,561,561,561,561,561,561,561,561,561,561,561,561,561,561,561,561,561,561,561,561,561,561,561,561,561,561,561,561,561,561,561,561,561,561,561,561,561,561,561,561,561,561,561,561,561,561,561,561,561,561,561,561,561,561,561,561,561,561,561,561,561,561,561,561,561,561,561,561,561,561,561,560,554,549,548,547,547,547,547,547,547,548,549,556,558,560,560,561,562,563,564,565,567,569,570,570,570,570,570,566,562,551,541,522,514,509,508,506,505,503,502,501,499,499,499,499,499,499,498,498,498,498,499,507,510,514,516,519,522,523,524,525,527,534,538,543,547,551,554,555,555,555,555,555,555,555,555,554,552,550,549,548,547,546,546,546,546,546,546,546,546,546,546,547,547,549,550,550,550,550,550,550,550,550,550,550,550,550,550,550,550,550,550,550,550,550,550,550,550,550,550,550,550,550,550,550,550,550,550,550,550,550,550,550,550,550,549,549,549,549,549,553,555,557,557,557,557,557,557,557,557,557,555,549,548,548,548,548,548,557,561,561,561,561,561,561,561,561,561,561,561,612,611,602,599,597,595,593,591,589,586,581,580,580,580,580,580,579,579,579,580,580,582,582,582,582,582,582,578,578,578,578,578,578,579,579,579,579,579,579,579,579,579,579,579,579,579,579,579,579,579,579,579,579,579,579,579,579,579,579,580,580,580,580,580,580,580,580,580,576,574,573,573,573,573,573,573,573,573,573,573,573,573,573,573,573,573,573,573,573,573,573,573,573,573,573,573,573,573,573,573,573,573,573,573,578,578,578,578,578,578,578,578,578,578,578,578,578,578,578,578,578,578,578,578,578,578,578,578,578,578,578,578,578,578,578,578,578,578,578,578,578,578,578,578,578,578,578,578,578,578,578,578,578,578,578,578,578,578,578,578,578,578,578,578,578,416,416,416,417,418,419,420,422,424,426,428,428,430,432,439,445,451,467,476,486,498,509,518,521,521,521,523,525,535,540,540,540,540,540,540,540,540,540,540,540,540,502,500,496,496,496,496,496,496,497,498,503,506,511,514,516,519,522,522,522,524,526,532,534,534,534,534,534,534,534,534,534,524,519,506,504,504,504,504,508,508,508,508,508,508,508,508,508,508,508,508,508,508,508,508,508,508,508,508,508,508,485,485,482,482,481,479,479,478,478,478,478,478,478,478,479,480,480,481,482,484,485,487,492,494,494,494,495,496,496,496,496,496,496,497,499,499,500,504,504,504,504,504,504,504,504,504,504,504,504,504,504,504,504,504,504,504,504,504,504,504,504,504,504,504,504,399,394,282,175,70,18,18,18,18,18,18,18,18,18,18,18,0,28,56,83,103,121,158,172,172,172,172,172,172,172,172,172,172,172,220,223,226,237,243,253,269,301,370,387,390,390,390,390,390,390,390,393,396,402,402,402,402,402,402,402,402,402,402,402,402,402,402,402,402,402,402,402,503,497,490,486,483,483,483,483,486,490,490,490,490,490,490,490,490,487,485,485,485,485,485,485,485,487,497,507,512,515,521,522,522,523,525,540,571,592,604,607,613,615,616,617,617,617,617,617,617,617,617,617,617,615,611,599,589,579,570,561,544,534,525,512,498,443,397,342,307,291,285,276,270,258,246,229,190,173,161,152,133,123,116,107,107,111,118,123,128,129,131,134,148,218,229,229,229,229,229,229,229,229,229,229,229,252,255,255,256,256,256,258,261,274,288,315,327,345,362,374,393,393,393,388,378,369,352,350,350,350,350,350,350,366,401,479,495,507,514,518,522,530,544,559,573,587,591,592,595,597,600,600,601,602,604,607,607,607,607,607,607,607,607,607,607,607,607,607,607,605,596,596,596,596,596,596,596,596,596,596,596,596,596,596,596,596,532,532,530,523,514,498,491,490,489,489,489,489,490,493,495,496,499,504,512,530,537,542,546,548,548,548,548,548,548,548,548,548,548,548,548,548,548,548,549,549,548,548,548,548,548,548,548,548,548,548,548,548,548,548,548,548,548,548,548,548,419,419,419,419,419,419,419,419,419,419,419,419,419,419,419,419,419,419,419,419,419,419,419,419,419,419,419,419,419,420,420,421,421,421,421,421,421,421,423,429,429,429,429,429,429,429,429,429,425,425,425,425,425,425,425,424,423,420,415,411,398,388,383,382,382,391,396,403,412,418,424,427,433,439,449,449,449,449,449,449,438,434,434,435,446,483,505,527,546,557,561,561,561,562,562,564,566,567,567,568,569,569,569,569,570,572,572,572,572,572,572,572,572,572,571,571,570,570,570,570,570,570,569,568,566,560,558,556,554,553,553,553,553,553,553,553,553,553,553,553,553,553,553,553,553,553,553,553,553,553,553,553,553,553,553,553,553,553,553,553,553,553,553,553,553,553,553,553,553,553,553,553,553,553,553,553,553,553,553,553,553,553,553,553,553,553,553,553,553,553,553,553,553,553,553,553,553,553,553,553,553,553,553,553,553,553,553,553,553,553,553,553,553,553,553,553,553,553,553,553,553,553,553,553,553,553,553,553,553,553,553,553,553,553,553,553,518,518,518,518,518,518,518,518,518,518,518,558,558,558,558,558,558,558,558,558,558,558,558,558,558,559,559,561,561,562,562,562,562,562,561,561,561,561,561,561,561,561,561,562,570,570,570,570,570,570,570,570,537,537,542,571,594,658,717,750,750,750,750,750,750,750,750,750,750,750,750,750,750,750,750,750,750,750,750,750,750,750,750,750,750,750,750,750,750,750,750,750,750,750,750,750,750,750,750,764,723,675,624,595,562,545,537,531,527,525,522,519,514,510,506,505,505,505,505,505,505,505,507,512,519,525,526,526,526,526,526,526,526,526,526,526,526,526,526,526,526,526,526,526,526,526,526,528,529,537,539,542,543,543,546,549,549,550,550,551,552,552,552,552,552,552,552,552,552,552,552,552,552,552,552,552,552,552,552,552,552,552,552,552,552,552,552,552,552,552,552,552,552,552,552,552,552,552,552,552,552,552,552,552,552,552,552,552,552,552,552,552,552,552,552,552,552,552,552,552,552,552,552,552,552,552,552,552,552,552,552,552,552,552,552,552,553,553,553,553,553,554,554,554,554,554,554,554,554,554,554,554,554,554,554,554,554,554,554,554,554,554,554,554,554,554,554,554,554,554,554,556,556,557,558,558,558,559,560,561,561,561,561,561,562,564,565,565,567,569,571,572,573,573,562,526,504,485,472,464,452,446,442,438,433,422,411,384,332,256,133,115,113,112,107,96,87,79,66,61,47,19,5,5,5,5,5,5,5,5,5,5,5,5,5,5,5,5,5,5,5,5,5,5,5,5,5,5,5,5,5,5,5,5,5,5,5,5,5,5,5,5,5,5,5,5,5,5,5,5,5,5,5,5,5,5,5,5,5,5,5,5,5,5,5,5,5,5,5,5,5,5,5,5,5,5,5,5,5,5,5,5,5,5,5,5,5,5,5,5,5,5,5,5,5,5,5,5,5,5,5,5,5,5,5,5,5,5,5,5,5,5,5,5,5,5,5,5,5,5,5,5,5,5,5,5,5,5,5,5,5,5,5,5,5,5,5,5,5,5,5,5,5,5,5,5,5,5,5,5,5,5,5,5,5,5,5,5,5,5,5,5,5,5,5,5,5,5,5,5,5,5,5,5,5,5,5,5,5,5,5,5,5,5,5,5,5,5,5,5,5,5,5,5,5,5,5,5,5,5,5,5,5,5,5,5,5,5,5,5,5,5,5,5,5,5,5,5,5,5,5,5,5,5,5,5,5,5,5,5,5,5,5,5,5,5,5,5,5,5,5,5,5,5,5,5,5,5,5,5,5,5,5,5,5,5,5,5,5,5,5,5,29],"timestamp_mouse":[10,33,41,60,81,100,120,140,160,180,201,220,241,260,281,299,321,341,361,380,399,419,440,461,481,500,521,540,561,580,600,620,640,661,680,700,720,740,760,780,800,821,840,859,881,900,921,939,961,980,1000,1020,1040,1059,1080,1101,1120,1140,1161,1180,1201,1221,1241,1261,1281,1299,1320,1339,1360,1381,1401,1421,1441,1461,1480,1499,1520,1541,1560,1580,1601,1620,1641,1660,1680,1699,1721,1741,1760,1781,1801,1820,1841,1861,1881,1900,1921,1941,1959,1980,2000,2021,2041,2060,2080,2099,2119,2140,2161,2180,2201,2220,2240,2261,2280,2301,2320,2339,2361,2381,2400,2421,2441,2460,2481,2500,2521,2541,2561,2581,2600,2620,2641,2661,2680,2700,2720,2741,2761,2779,2800,2821,2840,2861,2881,2900,2921,2941,2961,2980,3000,3019,3041,3060,3079,3100,3120,3139,3161,3180,3200,3221,3241,3260,3281,3301,3321,3340,3361,3381,3400,3421,3441,3460,3480,3501,3521,3540,3560,3581,3600,3621,3640,3660,3681,3700,3719,3740,3761,3780,3799,3821,3841,3861,3880,3901,3920,3941,3960,3980,3999,4021,4040,4060,4081,4101,4121,4140,4161,4179,4201,4220,4240,4261,4280,4299,4320,4339,4360,4380,4401,4420,4440,4460,4481,4500,4520,4540,4561,4580,4601,4621,4641,4660,4680,4701,4720,4740,4761,4781,4801,4820,4841,4860,4881,4901,4921,4940,4961,4981,5000,5021,5040,5061,5081,5100,5119,5141,5161,5181,5201,5220,5241,5260,5281,5301,5319,5341,5361,5380,5400,5420,5439,5460,5480,5500,5521,5539,5560,5581,5599,5620,5641,5660,5681,5699,5720,5740,5761,5781,5799,5821,5841,5861,5881,5901,5919,5940,5961,5981,5999,6020,6040,6059,6081,6100,6120,6141,6160,6180,6201,6219,6240,6261,6279,6301,6320,6340,6360,6381,6401,6420,6441,6461,6479,6501,6520,6541,6561,6580,6599,6620,6641,6659,6681,6701,6719,6741,6761,6779,6801,6820,6841,6861,6880,6901,6920,6940,6961,6980,6999,7021,7039,7059,7081,7101,7121,7139,7161,7181,7199,7220,7239,7260,7280,7300,7320,7341,7360,7380,7400,7421,7440,7460,7479,7500,7520,7540,7561,7581,7599,7621,7640,7660,7680,7701,7720,7741,7761,7780,7799,7820,7839,7861,7881,7901,7920,7941,7960,7981,8000,8020,8041,8061,8081,8101,8120,8141,8161,8179,8201,8220,8241,8260,8280,8301,8320,8341,8361,8381,8400,8420,8439,8460,8481,8501,8521,8540,8560,8581,8601,8620,8640,8661,8680,8700,8720,8740,8761,8780,8800,8821,8840,8860,8881,8899,8920,8941,8959,8981,8999,9021,9040,9060,9081,9099,9120,9140,9161,9181,9201,9220,9241,9261,9281,9300,9320,9341,9361,9379,9401,9420,9439,9461,9481,9501,9520,9541,9561,9580,9600,9621,9641,9660,9681,9700,9721,9740,9759,9781,9800,9821,9840,9860,9880,9901,9921,9941,9961,9979,10000,10021,10041,10061,10080,10100,10121,10140,10160,10180,10200,10219,10240,10261,10281,10300,10321,10339,10361,10380,10400,10420,10441,10460,10480,10500,10520,10540,10560,10580,10600,10620,10641,10659,10681,10700,10720,10741,10760,10780,10801,10821,10841,10861,10880,10901,10920,10941,10961,10980,11000,11021,11039,11060,11080,11100,11121,11140,11160,11180,11201,11219,11240,11261,11279,11301,11320,11340,11361,11380,11401,11420,11441,11459,11480,11501,11520,11540,11559,11581,11600,11620,11640,11660,11681,11701,11720,11740,11761,11781,11801,11820,11839,11861,11881,11900,11920,11941,11961,11981,12000,12020,12039,12060,12081,12101,12121,12140,12160,12181,12200,12220,12239,12260,12280,12301,12321,12340,12361,12380,12400,12420,12441,12460,12480,12501,12520,12541,12560,12581,12601,12620,12641,12661,12680,12700,12719,12741,12759,12780,12800,12820,12840,12860,12881,12901,12919,12940,12959,12981,12999,13020,13041,13060,13080,13100,13120,13140,13161,13180,13200,13220,13241,13259,13280,13300,13320,13341,13361,13381,13401,13420,13441,13461,13481,13500,13520,13541,13560,13579,13599,13621,13641,13660,13681,13701,13720,13741,13759,13779,13801,13820,13841,13859,13880,13900,13921,13941,13960,13979,14001,14020,14040,14061,14080,14101,14119,14140,14161,14181,14199,14221,14241,14259,14280,14301,14320,14340,14361,14381,14399,14420,14440,14461,14480,14501,14521,14540,14560,14581,14600,14621,14640,14661,14680,14701,14720,14740,14760,14781,14800,14821,14839,14860,14880,14901,14921,14940,14959,14981,15001,15021,15040,15060,15081,15101,15121,15140,15160,15180,15201,15221,15240,15261,15281,15300,15321,15340,15361,15380,15401,15420,15440,15461,15480,15500,15520,15540,15560,15580,15601,15620,15641,15661,15680,15699,15721,15740,15761,15781,15800,15821,15841,15860,15881,15901,15921,15940,15960,15980,16000,16020,16041,16061,16079,16101,16121,16141,16160,16180,16201,16220,16241,16259,16280,16300,16321,16341,16360,16380,16401,16421,16441,16460,16480,16499,16521,16541,16560,16579,16600,16620,16640,16661,16680,16700,16720,16740,16760,16781,16800,16820,16840,16860,16880,16901,16921,16941,16960,16980,17000,17020,17040,17060,17081,17100,17121,17140,17159,17181,17200,17220,17240,17260,17281,17301,17320,17341,17361,17380,17400,17421,17440,17461,17481,17500,17521,17540,17559,17581,17601,17621,17639,17661,17680,17701,17721,17740,17760,17780,17801,17821,17840,17860,17880,17901,17921,17941,17961,17980,18000,18021,18040,18060,18080,18100,18119,18140,18160,18180,18201,18219,18241,18260,18280,18300,18319,18341,18360,18380,18400,18421,18440,18460,18480,18500,18521,18541,18560,18581,18600,18620,18640,18660,18680,18700,18721,18741,18760,18781,18800,18820,18841,18861,18880,18900,18920,18941,18961,18981,19001,19020,19039,19061,19081,19101,19121,19140,19160,19181,19201,19221,19241,19260,19281,19301,19320,19339,19361,19381,19401,19420,19441,19460,19479,19501,19521,19541,19560,19580,19600,19621,19642,19659,19680,19700,19721,19739,19760,19781,19800,19820,19840,19860,19881,19900,19921,19940,19961,19980,20000,20019,20040,20059,20080,20100,20121,20141,20160,20180,20201,20220,20240,20259,20279,20299,20321,20340,20360,20380,20401,20420,20440,20460,20480,20500,20520,20540,20560,20580,20600,20619,20640,20660,20680,20701,20720,20740,20760,20780,20800,20820,20839,20859,20881,20901,20920,20940,20961,20981,21001,21021,21042,21060,21080,21100,21121,21140,21160,21180,21200,21221,21241,21259,21281,21301,21319,21340,21360,21380,21401,21420,21441,21459,21480,21500,21521,21541,21561,21580,21601,21620,21641,21661,21680,21699,21720,21740,21760,21780,21800,21821,21840,21860,21881,21900,21921,21940,21960,21979,21999,22019,22040,22060,22080,22100,22120,22141,22160,22181,22200,22219,22239,22260,22279,22299,22319,22339,22360,22379,22400,22421,22440,22460,22480,22501,22519,22539,22561,22581,22600,22620,22641,22660,22680,22701,22720,22740,22760,22780,22799,22819,22839,22860,22880,22900,22921,22941,22960,22981,23001,23020,23041,23059,23081,23100,23120,23141,23160,23179,23201,23221,23241,23260,23281,23301,23321,23340,23360,23381,23401,23420,23440,23460,23480,23501,23521,23540,23561,23580,23600,23620,23641,23661,23680,23700,23721,23740,23761,23781,23800,23820,23840,23859,23879,23900,23920,23940,23960,23980,24001,24020,24041,24061,24081,24101,24120,24141,24162,24180,24200,24221,24240,24260,24280,24300,24321,24341,24360,24381,24401,24421,24440,24460,24480,24500,24520,24539,24561,24581,24600,24620,24640,24660,24681,24700,24721,24741,24761,24780,24800,24820,24840,24860,24879,24899,24921,24941,24960,24979,25000,25021,25041,25059,25080,25101,25120,25141,25160,25181,25199,25220,25240,25259,25280,25300,25321,25341,25361,25380,25400,25420,25441,25460,25481,25501,25520,25540,25561,25581,25600,25621,25640,25661,25680,25701,25719,25740,25761,25780,25800,25820,25839,25861,25879,25901,25921,25941,25960,25980,26000,26020,26040,26060,26081,26100,26120,26140,26161,26180,26201,26220,26241,26262,26280,26300,26320,26340,26360,26381,26400,26421,26441,26461,26479,26500,26521,26541,26561,26580,26600,26620,26640,26660,26680,26699,26721,26740,26761,26780,26800,26820,26840,26861,26881,26900,26921,26940,26960,26980,27001,27021,27040,27060,27079,27100,27120,27140,27162,27180,27200,27220,27239,27259,27280,27300,27321,27341,27360,27380,27400,27421,27439,27461,27481,27501,27520,27541,27560,27581,27600,27621,27641,27660,27680,27701,27720,27741,27760,27780,27801,27819,27841,27860,27881,27901,27919,27939,27961,27981,28001,28021,28041,28060,28081,28101,28121,28140,28160,28180,28200,28221,28240,28261,28281,28300,28321,28341,28361,28381,28400,28421,28440,28460,28481,28500,28521,28541,28561,28580,28601,28620,28641,28661,28680,28700,28720,28740,28759,28781,28800,28820,28840,28861,28881,28900,28920,28941,28960,28980,28999,29021,29040,29061,29081,29100,29120,29140,29160,29181,29201,29221,29240,29260,29280,29301,29320,29341,29359,29380,29399,29419,29439,29460,29479,29499,29520,29539,29561,29581,29601,29620,29641,29661,29681,29701,29720,29739,29761,29780,29801,29819,29839,29861,29879,29901,29921,29939,29961,29981,30000,30020,30040,30061,30079,30100,30121,30141,30161,30180,30200,30221,30240,30260,30280,30299,30320,30339,30360,30381,30401,30420,30441,30461,30480,30499,30520,30539,30560,30580,30600,30619,30640,30661,30680,30701,30720,30741,30761,30781,30800,30820,30841,30860,30880,30901,30920,30941,30960,30981,30999,31020,31040,31060,31081,31100,31121,31141,31160,31180,31200,31219,31240,31260,31282,31300,31320,31340,31361,31380,31400,31420,31441,31461,31480,31501,31521,31540,31560,31580,31599,31621,31641,31660,31681,31700,31720,31740,31761,31780,31801,31820,31840,31860,31880,31901,31920,31940,31960,31980,32000,32021,32041,32060,32080,32100,32121,32139,32160,32180,32200,32221,32240,32259,32279,32300,32321,32341,32361,32380,32400,32421,32440,32460,32481,32499,32520,32540,32560,32580,32600,32620,32640,32660,32680,32700,32721,32740,32759,32780,32799,32820,32839,32859,32881,32900,32920,32941,32960,32979,33001,33021,33039,33059,33080,33100,33121,33140,33160,33179,33201,33221,33240,33260,33280,33300,33321,33340,33361,33381,33401,33421,33440,33460,33480,33501,33520,33541,33560,33581,33601,33621,33639,33661,33680,33699,33720,33741,33761,33780,33800,33819,33841,33861,33879,33901,33921,33941,33961,33980,34001,34021,34039,34061,34080,34099,34121,34140,34159,34180,34201,34220,34241,34261,34279,34301,34321,34341,34360,34381,34399,34421,34441,34459,34481,34499,34521,34541,34559,34580,34601,34619,34639,34660,34679,34701,34721,34740,34761,34780,34800,34819,34841,34859,34879,34899,34921,34939,34960,34981,34999,35020,35039,35061,35080,35100,35119,35140,35161,35179,35199,35220,35239,35261,35281,35300,35321,35341,35360,35380,35400,35421,35440,35459,35481,35499,35519,35539,35561,35580,35599,35621,35640,35660,35680,35699,35721,35740,35761,35781,35800,35819,35841,35860,35880,35900,35920,35939,35960,35979,35999,36021,36039,36061,36081,36099,36120,36140,36160,36180,36200,36220,36241,36260,36281,36299,36320,36339,36360,36380,36401,36421,36440,36461,36481,36500,36519,36541,36560,36580,36601,36621,36641,36659,36681,36700,36719,36740,36759,36779,36800,36819,36839,36859,36879,36899,36920,36940,36960,36980,37001,37020,37041,37060,37081,37099,37120,37140,37160,37179,37200,37221,37239,37259,37281,37301,37319,37339,37360,37380,37400,37420,37440,37461,38077,38079,38524,38539,38559,38579,38600,38620,38640,38660,38681,38701,38720,38739,38760,38780,38801,38821,38840,38860,38880,38899,38920,38939,38960,38980,38999,39020,39040,39061,39080,39101,39120,39141,39160,39179,39200,39219,39240,39259,39280,39301,39320,39339,39360,39380,39400,39419,39439,39460,39479,39501,39520,39541,39560,39581,39601,39620,39641,39661,39680,39700,39720,39740,39759,39779,39801,39820,39841,39861,39880,39900,39920,39941,39961,39981,40000,40078,40080,41077,41079,42077,42079,42824,42839,42859,42880,42901,42920,42940,42960,42980,43000,43020,43040,43060,43080,43100,43120,43140,43161,43181,43201,43221,43240,43260,43280,43300,43320,43339,43360,43379,43401,43420,43439,43459,43480,43501,43520,43539,43560,43580,43601,43620,43640,43660,43681,43701,43720,43740,43760,43780,43799,43820,43841,43861,43879,44079,44079,45078,45080,46077,46079,47078,47080,48077,48079,49078,49080,50077,50079,51078,51080,52079,53078,53080,54078,54080,55079,55079,56078,56080,57078,57080,58079,58080,59078,59081,60077,60080,61079,62078,62080,63087,64079,64079,65078,65080,66082,67087,68092,69079,69079,70083,71088,72092,72752,72760,72780,72800,72820,72841,72860,72880,72900,72919,72940,72960,72980,73000,73020,73039,73061,73080,73100,73120,73141,73160,73180,73200,73220,73239,73261,73279,73300,73319,73341,73361,73380,73400,73420,73441,73460,73481,73499,73520,73539,73559,73580],"xSR":741.5,"ySR":469.95,"xT1":424.9,"yT1":0,"xT2":1058.1,"yT2":0,"toosoon":0,"cond_shown":"Congruent","ratio_trial":100,"L_num":12,"L_den":30,"R_num":13,"R_den":26,"correct_side":2,"subjID":"VALERIA HERREÑOO URIBE","gender":"No_gender","age":"No_age","school":"No_school","test":{"fix_dur":[250,1500],"timestim":1000,"targets_dim":[100,100],"targets_relative_coord":[0.3,0.7],"size_stim":[880,420],"start_dim":[100,100],"size_start":[300,300],"size_fix":60,"samplingrate":20,"img_types":["Congruent","Incongruent"],"ratios":[100,200,300],"rep_conds":19,"nTrials":120,"trials_to_rest":500,"Trials_order":[24,119,107,78,75,15,102,72,45,28,116,118,86,16,19,46,67,9,100,83,21,8,57,79,56,66,42,35,101,74,117,29,106,77,7,55,65,37,81,27,112,0,114,93,105,104,103,40,22,52,108,20,111,69,82,94,58,110,23,70,60,85,4,61,96,109,6,98,59,43,87,88,31,33,1,80,63,34,11,90,76,62,25,18,38,3,51,12,41,92,99,30,44,39,32,91,64,68,53,48,113,14,26,36,17,5,50,2,54,47,84,89,95,49,13,71,10,115,97,73],"cond_shown":["Congruent","Incongruent","Incongruent","Congruent","Incongruent","Incongruent","Congruent","Congruent","Incongruent","Congruent","Congruent","Congruent","Congruent","Congruent","Incongruent","Congruent","Incongruent","Incongruent","Congruent","Incongruent","Incongruent","Congruent","Incongruent","Incongruent","Congruent","Congruent","Congruent","Incongruent","Incongruent","Congruent","Incongruent","Incongruent","Congruent","Incongruent","Incongruent","Incongruent","Incongruent","Incongruent","Incongruent","Incongruent","Congruent","Congruent","Congruent","Incongruent","Incongruent","Congruent","Incongruent","Congruent","Congruent","Congruent","Congruent","Congruent","Incongruent","Incongruent","Congruent","Congruent","Congruent","Congruent","Incongruent","Congruent","Congruent","Incongruent","Congruent","Incongruent","Congruent","Incongruent","Congruent","Congruent","Incongruent","Incongruent","Incongruent","Congruent","Incongruent","Incongruent","Incongruent","Congruent","Incongruent","Congruent","Incongruent","Congruent","Congruent","Congruent","Incongruent","Congruent","Congruent","Incongruent","Incongruent","Congruent","Incongruent","Congruent","Incongruent","Congruent","Congruent","Incongruent","Congruent","Incongruent","Congruent","Congruent","Incongruent","Congruent","Incongruent","Congruent","Congruent","Congruent","Incongruent","Incongruent","Congruent","Congruent","Congruent","Incongruent","Congruent","Incongruent","Incongruent","Incongruent","Incongruent","Incongruent","Congruent","Incongruent","Incongruent","Incongruent"],"ratio_trial":[100,300,300,100,200,200,100,100,200,300,200,300,200,300,100,300,100,200,300,300,200,200,200,100,200,100,100,300,300,200,200,300,300,300,100,100,300,100,200,200,300,100,100,200,200,200,100,300,300,300,100,200,200,200,300,300,300,200,300,300,100,100,300,100,100,100,100,200,300,100,200,300,100,200,100,200,200,300,300,100,300,200,100,100,200,200,200,100,300,200,200,100,200,200,200,100,300,200,300,100,300,200,200,100,300,300,200,200,100,300,100,300,300,100,100,300,300,100,100,100],"left_num":[12,8,2,1,3,7,8,10,7,2,6,24,3,20,6,4,9,14,9,7,7,6,7,17,21,7,1,4,4,8,6,13,20,4,3,10,4,6,14,1,11,6,7,3,6,3,3,1,1,4,15,7,7,7,20,20,3,21,4,3,10,9,8,2,2,10,1,8,8,2,7,24,12,7,9,13,1,20,4,3,20,1,2,11,20,4,7,3,4,3,7,2,8,7,5,9,8,9,13,10,4,20,1,6,13,13,8,5,11,13,2,4,1,10,6,1,1,9,6,3],"right_num":[13,14,6,3,11,12,2,3,12,12,7,8,14,13,11,1,6,6,3,8,4,7,8,10,2,9,3,2,2,3,3,12,14,2,8,9,2,11,6,2,1,15,9,11,3,7,4,3,11,13,13,18,12,4,13,5,11,2,2,11,3,13,10,6,6,8,3,3,14,6,14,2,2,4,6,14,3,8,2,2,13,21,6,6,9,14,6,2,2,11,8,11,7,4,14,20,10,13,12,3,6,9,21,15,12,12,2,14,4,12,6,8,3,8,7,2,11,6,13,4],"left_den":[30,10,4,2,4,10,16,25,10,10,12,30,10,25,10,10,18,30,10,10,15,12,10,30,30,14,2,20,20,15,20,26,25,20,5,25,20,10,30,3,22,12,14,4,20,10,6,5,5,20,25,15,10,15,25,25,12,30,20,12,25,15,15,4,5,25,2,15,10,4,10,30,30,15,18,26,2,25,20,6,25,2,4,22,25,6,15,6,20,10,10,5,15,15,10,10,15,30,26,25,5,25,2,12,26,26,15,10,22,26,5,5,2,25,10,2,5,18,10,6],"right_den":[26,28,30,5,20,24,5,10,24,24,10,16,28,26,22,10,10,9,5,20,6,10,16,15,4,15,5,4,4,9,6,15,28,4,16,18,4,22,9,15,5,25,15,20,6,14,10,6,22,26,26,27,24,6,26,10,20,4,4,20,10,26,12,15,12,16,5,9,28,15,28,4,4,6,10,20,10,16,4,5,26,30,15,15,15,30,9,5,4,22,16,22,21,6,20,25,12,26,15,10,12,15,30,25,15,15,6,20,10,15,12,16,15,16,14,10,22,10,26,10],"correct_side":[2,1,1,2,1,1,1,1,1,2,2,1,2,1,1,1,2,2,1,1,2,2,1,2,1,2,2,2,2,1,2,2,1,2,1,2,2,1,2,1,1,2,2,1,2,2,1,2,2,2,1,2,1,2,1,1,2,1,2,2,1,1,2,1,2,2,2,1,1,1,1,1,2,2,2,2,1,1,2,1,1,2,1,1,1,1,2,1,2,2,1,2,1,2,2,1,2,2,2,1,1,1,2,2,2,2,1,2,1,2,2,1,1,2,1,1,2,2,1,1],"img_shown":["img2/100/Congruent/R/C_Dist_100_LN_12_LD_30_RN_13_RD_26_1.png","img2/300/Incongruent/L/I_Dist_300_LN_8_LD_10_RN_14_RD_28_0.png","img2/300/Incongruent/L/I_Dist_300_LN_2_LD_4_RN_6_RD_30_0.png","img2/100/Congruent/R/C_Dist_100_LN_1_LD_2_RN_3_RD_5_1.png","img2/200/Incongruent/L/I_Dist_200_LN_3_LD_4_RN_11_RD_20_0.png","img2/200/Incongruent/L/I_Dist_200_LN_7_LD_10_RN_12_RD_24_0.png","img2/100/Congruent/L/C_Dist_100_LN_8_LD_16_RN_2_RD_5_0.png","img2/100/Congruent/L/C_Dist_100_LN_10_LD_25_RN_3_RD_10_0.png","img2/200/Incongruent/L/I_Dist_200_LN_7_LD_10_RN_12_RD_24_0.png","img2/300/Congruent/R/C_Dist_300_LN_2_LD_10_RN_12_RD_24_1.png","img2/200/Congruent/R/C_Dist_200_LN_6_LD_12_RN_7_RD_10_1.png","img2/300/Congruent/L/C_Dist_300_LN_24_LD_30_RN_8_RD_16_0.png","img2/200/Congruent/R/C_Dist_200_LN_3_LD_10_RN_14_RD_28_1.png","img2/300/Congruent/L/C_Dist_300_LN_20_LD_25_RN_13_RD_26_0.png","img2/100/Incongruent/L/I_Dist_100_LN_6_LD_10_RN_11_RD_22_0.png","img2/300/Congruent/L/C_Dist_300_LN_4_LD_10_RN_1_RD_10_0.png","img2/100/Incongruent/R/I_Dist_100_LN_9_LD_18_RN_6_RD_10_1.png","img2/200/Incongruent/R/I_Dist_200_LN_14_LD_30_RN_6_RD_9_1.png","img2/300/Congruent/L/C_Dist_300_LN_9_LD_10_RN_3_RD_5_0.png","img2/300/Incongruent/L/I_Dist_300_LN_7_LD_10_RN_8_RD_20_0.png","img2/200/Incongruent/R/I_Dist_200_LN_7_LD_15_RN_4_RD_6_1.png","img2/200/Congruent/R/C_Dist_200_LN_6_LD_12_RN_7_RD_10_1.png","img2/200/Incongruent/L/I_Dist_200_LN_7_LD_10_RN_8_RD_16_0.png","img2/100/Incongruent/R/I_Dist_100_LN_17_LD_30_RN_10_RD_15_1.png","img2/200/Congruent/L/C_Dist_200_LN_21_LD_30_RN_2_RD_4_0.png","img2/100/Congruent/R/C_Dist_100_LN_7_LD_14_RN_9_RD_15_1.png","img2/100/Congruent/R/C_Dist_100_LN_1_LD_2_RN_3_RD_5_1.png","img2/300/Incongruent/R/I_Dist_300_LN_4_LD_20_RN_2_RD_4_1.png","img2/300/Incongruent/R/I_Dist_300_LN_4_LD_20_RN_2_RD_4_1.png","img2/200/Congruent/L/C_Dist_200_LN_8_LD_15_RN_3_RD_9_0.png","img2/200/Incongruent/R/I_Dist_200_LN_6_LD_20_RN_3_RD_6_1.png","img2/300/Incongruent/R/I_Dist_300_LN_13_LD_26_RN_12_RD_15_1.png","img2/300/Congruent/L/C_Dist_300_LN_20_LD_25_RN_14_RD_28_0.png","img2/300/Incongruent/R/I_Dist_300_LN_4_LD_20_RN_2_RD_4_1.png","img2/100/Incongruent/L/I_Dist_100_LN_3_LD_5_RN_8_RD_16_0.png","img2/100/Incongruent/R/I_Dist_100_LN_10_LD_25_RN_9_RD_18_1.png","img2/300/Incongruent/R/I_Dist_300_LN_4_LD_20_RN_2_RD_4_1.png","img2/100/Incongruent/L/I_Dist_100_LN_6_LD_10_RN_11_RD_22_0.png","img2/200/Incongruent/R/I_Dist_200_LN_14_LD_30_RN_6_RD_9_1.png","img2/200/Incongruent/L/I_Dist_200_LN_1_LD_3_RN_2_RD_15_0.png","img2/300/Congruent/L/C_Dist_300_LN_11_LD_22_RN_1_RD_5_0.png","img2/100/Congruent/R/C_Dist_100_LN_6_LD_12_RN_15_RD_25_1.png","img2/100/Congruent/R/C_Dist_100_LN_7_LD_14_RN_9_RD_15_1.png","img2/200/Incongruent/L/I_Dist_200_LN_3_LD_4_RN_11_RD_20_0.png","img2/200/Incongruent/R/I_Dist_200_LN_6_LD_20_RN_3_RD_6_1.png","img2/200/Congruent/R/C_Dist_200_LN_3_LD_10_RN_7_RD_14_1.png","img2/100/Incongruent/L/I_Dist_100_LN_3_LD_6_RN_4_RD_10_0.png","img2/300/Congruent/R/C_Dist_300_LN_1_LD_5_RN_3_RD_6_1.png","img2/300/Congruent/R/C_Dist_300_LN_1_LD_5_RN_11_RD_22_1.png","img2/300/Congruent/R/C_Dist_300_LN_4_LD_20_RN_13_RD_26_1.png","img2/100/Congruent/L/C_Dist_100_LN_15_LD_25_RN_13_RD_26_0.png","img2/200/Congruent/R/C_Dist_200_LN_7_LD_15_RN_18_RD_27_1.png","img2/200/Incongruent/L/I_Dist_200_LN_7_LD_10_RN_12_RD_24_0.png","img2/200/Incongruent/R/I_Dist_200_LN_7_LD_15_RN_4_RD_6_1.png","img2/300/Congruent/L/C_Dist_300_LN_20_LD_25_RN_13_RD_26_0.png","img2/300/Congruent/L/C_Dist_300_LN_20_LD_25_RN_5_RD_10_0.png","img2/300/Congruent/R/C_Dist_300_LN_3_LD_12_RN_11_RD_20_1.png","img2/200/Congruent/L/C_Dist_200_LN_21_LD_30_RN_2_RD_4_0.png","img2/300/Incongruent/R/I_Dist_300_LN_4_LD_20_RN_2_RD_4_1.png","img2/300/Congruent/R/C_Dist_300_LN_3_LD_12_RN_11_RD_20_1.png","img2/100/Congruent/L/C_Dist_100_LN_10_LD_25_RN_3_RD_10_0.png","img2/100/Incongruent/L/I_Dist_100_LN_9_LD_15_RN_13_RD_26_0.png","img2/300/Congruent/R/C_Dist_300_LN_8_LD_15_RN_10_RD_12_1.png","img2/100/Incongruent/L/I_Dist_100_LN_2_LD_4_RN_6_RD_15_0.png","img2/100/Congruent/R/C_Dist_100_LN_2_LD_5_RN_6_RD_12_1.png","img2/100/Incongruent/R/I_Dist_100_LN_10_LD_25_RN_8_RD_16_1.png","img2/100/Congruent/R/C_Dist_100_LN_1_LD_2_RN_3_RD_5_1.png","img2/200/Congruent/L/C_Dist_200_LN_8_LD_15_RN_3_RD_9_0.png","img2/300/Incongruent/L/I_Dist_300_LN_8_LD_10_RN_14_RD_28_0.png","img2/100/Incongruent/L/I_Dist_100_LN_2_LD_4_RN_6_RD_15_0.png","img2/200/Incongruent/L/I_Dist_200_LN_7_LD_10_RN_14_RD_28_0.png","img2/300/Congruent/L/C_Dist_300_LN_24_LD_30_RN_2_RD_4_0.png","img2/100/Incongruent/R/I_Dist_100_LN_12_LD_30_RN_2_RD_4_1.png","img2/200/Incongruent/R/I_Dist_200_LN_7_LD_15_RN_4_RD_6_1.png","img2/100/Incongruent/R/I_Dist_100_LN_9_LD_18_RN_6_RD_10_1.png","img2/200/Congruent/R/C_Dist_200_LN_13_LD_26_RN_14_RD_20_1.png","img2/200/Incongruent/L/I_Dist_200_LN_1_LD_2_RN_3_RD_10_0.png","img2/300/Congruent/L/C_Dist_300_LN_20_LD_25_RN_8_RD_16_0.png","img2/300/Incongruent/R/I_Dist_300_LN_4_LD_20_RN_2_RD_4_1.png","img2/100/Congruent/L/C_Dist_100_LN_3_LD_6_RN_2_RD_5_0.png","img2/300/Congruent/L/C_Dist_300_LN_20_LD_25_RN_13_RD_26_0.png","img2/200/Congruent/R/C_Dist_200_LN_1_LD_2_RN_21_RD_30_1.png","img2/100/Incongruent/L/I_Dist_100_LN_2_LD_4_RN_6_RD_15_0.png","img2/100/Congruent/L/C_Dist_100_LN_11_LD_22_RN_6_RD_15_0.png","img2/200/Congruent/L/C_Dist_200_LN_20_LD_25_RN_9_RD_15_0.png","img2/200/Incongruent/L/I_Dist_200_LN_4_LD_6_RN_14_RD_30_0.png","img2/200/Incongruent/R/I_Dist_200_LN_7_LD_15_RN_6_RD_9_1.png","img2/100/Congruent/L/C_Dist_100_LN_3_LD_6_RN_2_RD_5_0.png","img2/300/Incongruent/R/I_Dist_300_LN_4_LD_20_RN_2_RD_4_1.png","img2/200/Congruent/R/C_Dist_200_LN_3_LD_10_RN_11_RD_22_1.png","img2/200/Incongruent/L/I_Dist_200_LN_7_LD_10_RN_8_RD_16_0.png","img2/100/Congruent/R/C_Dist_100_LN_2_LD_5_RN_11_RD_22_1.png","img2/200/Congruent/L/C_Dist_200_LN_8_LD_15_RN_7_RD_21_0.png","img2/200/Incongruent/R/I_Dist_200_LN_7_LD_15_RN_4_RD_6_1.png","img2/200/Congruent/R/C_Dist_200_LN_5_LD_10_RN_14_RD_20_1.png","img2/100/Incongruent/L/I_Dist_100_LN_9_LD_10_RN_20_RD_25_0.png","img2/300/Congruent/R/C_Dist_300_LN_8_LD_15_RN_10_RD_12_1.png","img2/200/Congruent/R/C_Dist_200_LN_9_LD_30_RN_13_RD_26_1.png","img2/300/Incongruent/R/I_Dist_300_LN_13_LD_26_RN_12_RD_15_1.png","img2/100/Congruent/L/C_Dist_100_LN_10_LD_25_RN_3_RD_10_0.png","img2/300/Incongruent/L/I_Dist_300_LN_4_LD_5_RN_6_RD_12_0.png","img2/200/Congruent/L/C_Dist_200_LN_20_LD_25_RN_9_RD_15_0.png","img2/200/Congruent/R/C_Dist_200_LN_1_LD_2_RN_21_RD_30_1.png","img2/100/Congruent/R/C_Dist_100_LN_6_LD_12_RN_15_RD_25_1.png","img2/300/Incongruent/R/I_Dist_300_LN_13_LD_26_RN_12_RD_15_1.png","img2/300/Incongruent/R/I_Dist_300_LN_13_LD_26_RN_12_RD_15_1.png","img2/200/Congruent/L/C_Dist_200_LN_8_LD_15_RN_2_RD_6_0.png","img2/200/Congruent/R/C_Dist_200_LN_5_LD_10_RN_14_RD_20_1.png","img2/100/Congruent/L/C_Dist_100_LN_11_LD_22_RN_4_RD_10_0.png","img2/300/Incongruent/R/I_Dist_300_LN_13_LD_26_RN_12_RD_15_1.png","img2/100/Congruent/R/C_Dist_100_LN_2_LD_5_RN_6_RD_12_1.png","img2/300/Incongruent/L/I_Dist_300_LN_4_LD_5_RN_8_RD_16_0.png","img2/300/Incongruent/L/I_Dist_300_LN_1_LD_2_RN_3_RD_15_0.png","img2/100/Incongruent/R/I_Dist_100_LN_10_LD_25_RN_8_RD_16_1.png","img2/100/Incongruent/L/I_Dist_100_LN_6_LD_10_RN_7_RD_14_0.png","img2/300/Incongruent/L/I_Dist_300_LN_1_LD_2_RN_2_RD_10_0.png","img2/300/Congruent/R/C_Dist_300_LN_1_LD_5_RN_11_RD_22_1.png","img2/100/Incongruent/R/I_Dist_100_LN_9_LD_18_RN_6_RD_10_1.png","img2/100/Incongruent/L/I_Dist_100_LN_6_LD_10_RN_13_RD_26_0.png","img2/100/Incongruent/L/I_Dist_100_LN_3_LD_6_RN_4_RD_10_0.png"],"dist100_C":[["C_Dist_100_LN_10_LD_25_RN_3_RD_10_0.png","C_Dist_100_LN_11_LD_22_RN_4_RD_10_0.png","C_Dist_100_LN_11_LD_22_RN_6_RD_15_0.png","C_Dist_100_LN_15_LD_25_RN_13_RD_26_0.png","C_Dist_100_LN_3_LD_6_RN_2_RD_5_0.png","C_Dist_100_LN_6_LD_20_RN_5_RD_25_0.png","C_Dist_100_LN_8_LD_16_RN_2_RD_5_0.png","C_Dist_100_LN_9_LD_15_RN_8_RD_16_0.png"],["C_Dist_100_LN_1_LD_2_RN_18_RD_30_1.png","C_Dist_100_LN_1_LD_2_RN_3_RD_5_1.png","C_Dist_100_LN_12_LD_30_RN_13_RD_26_1.png","C_Dist_100_LN_2_LD_5_RN_11_RD_22_1.png","C_Dist_100_LN_2_LD_5_RN_6_RD_12_1.png","C_Dist_100_LN_3_LD_20_RN_4_RD_16_1.png","C_Dist_100_LN_4_LD_10_RN_15_RD_30_1.png","C_Dist_100_LN_4_LD_8_RN_6_RD_10_1.png","C_Dist_100_LN_6_LD_12_RN_15_RD_25_1.png","C_Dist_100_LN_7_LD_14_RN_15_RD_25_1.png","C_Dist_100_LN_7_LD_14_RN_9_RD_15_1.png"]],"dist100_I":[["I_Dist_100_LN_1_LD_2_RN_8_RD_20_0.png","I_Dist_100_LN_2_LD_4_RN_6_RD_15_0.png","I_Dist_100_LN_2_LD_4_RN_8_RD_20_0.png","I_Dist_100_LN_3_LD_5_RN_11_RD_22_0.png","I_Dist_100_LN_3_LD_5_RN_8_RD_16_0.png","I_Dist_100_LN_3_LD_6_RN_4_RD_10_0.png","I_Dist_100_LN_3_LD_9_RN_7_RD_30_0.png","I_Dist_100_LN_4_LD_8_RN_8_RD_20_0.png","I_Dist_100_LN_6_LD_10_RN_11_RD_22_0.png","I_Dist_100_LN_6_LD_10_RN_13_RD_26_0.png","I_Dist_100_LN_6_LD_10_RN_7_RD_14_0.png","I_Dist_100_LN_9_LD_10_RN_20_RD_25_0.png","I_Dist_100_LN_9_LD_15_RN_13_RD_26_0.png","I_Dist_100_LN_9_LD_15_RN_14_RD_28_0.png"],["I_Dist_100_LN_10_LD_25_RN_8_RD_16_1.png","I_Dist_100_LN_10_LD_25_RN_9_RD_18_1.png","I_Dist_100_LN_11_LD_22_RN_9_RD_15_1.png","I_Dist_100_LN_12_LD_24_RN_9_RD_15_1.png","I_Dist_100_LN_12_LD_30_RN_2_RD_4_1.png","I_Dist_100_LN_13_LD_26_RN_12_RD_20_1.png","I_Dist_100_LN_13_LD_26_RN_6_RD_10_1.png","I_Dist_100_LN_17_LD_30_RN_10_RD_15_1.png","I_Dist_100_LN_6_LD_12_RN_3_RD_5_1.png","I_Dist_100_LN_8_LD_16_RN_6_RD_10_1.png","I_Dist_100_LN_8_LD_20_RN_1_RD_2_1.png","I_Dist_100_LN_9_LD_18_RN_6_RD_10_1.png"]],"dist100_S":[["E_Dist_100_LN_2_LD_12_RN_2_RD_30_0.png","E_Dist_100_LN_6_LD_10_RN_6_RD_12_0.png"],["E_Dist_100_LN_6_LD_12_RN_6_RD_10_1.png"]],"dist200_C":[["C_Dist_200_LN_11_LD_22_RN_3_RD_10_0.png","C_Dist_200_LN_12_LD_15_RN_6_RD_10_0.png","C_Dist_200_LN_12_LD_20_RN_6_RD_15_0.png","C_Dist_200_LN_14_LD_28_RN_6_RD_20_0.png","C_Dist_200_LN_15_LD_25_RN_4_RD_10_0.png","C_Dist_200_LN_16_LD_20_RN_12_RD_20_0.png","C_Dist_200_LN_16_LD_30_RN_9_RD_27_0.png","C_Dist_200_LN_20_LD_25_RN_9_RD_15_0.png","C_Dist_200_LN_21_LD_30_RN_2_RD_4_0.png","C_Dist_200_LN_4_LD_10_RN_3_RD_15_0.png","C_Dist_200_LN_4_LD_8_RN_3_RD_10_0.png","C_Dist_200_LN_6_LD_15_RN_3_RD_15_0.png","C_Dist_200_LN_7_LD_21_RN_2_RD_15_0.png","C_Dist_200_LN_8_LD_15_RN_2_RD_6_0.png","C_Dist_200_LN_8_LD_15_RN_3_RD_9_0.png","C_Dist_200_LN_8_LD_15_RN_7_RD_21_0.png","C_Dist_200_LN_9_LD_20_RN_4_RD_16_0.png"],["C_Dist_200_LN_1_LD_2_RN_21_RD_30_1.png","C_Dist_200_LN_13_LD_26_RN_14_RD_20_1.png","C_Dist_200_LN_3_LD_10_RN_11_RD_22_1.png","C_Dist_200_LN_3_LD_10_RN_14_RD_28_1.png","C_Dist_200_LN_3_LD_10_RN_7_RD_14_1.png","C_Dist_200_LN_3_LD_12_RN_9_RD_20_1.png","C_Dist_200_LN_3_LD_6_RN_14_RD_20_1.png","C_Dist_200_LN_5_LD_10_RN_14_RD_20_1.png","C_Dist_200_LN_6_LD_12_RN_7_RD_10_1.png","C_Dist_200_LN_6_LD_20_RN_11_RD_22_1.png","C_Dist_200_LN_7_LD_15_RN_18_RD_27_1.png","C_Dist_200_LN_9_LD_30_RN_13_RD_26_1.png"]],"dist200_I":[["I_Dist_200_LN_1_LD_2_RN_3_RD_10_0.png","I_Dist_200_LN_1_LD_3_RN_2_RD_15_0.png","I_Dist_200_LN_3_LD_4_RN_11_RD_20_0.png","I_Dist_200_LN_4_LD_5_RN_6_RD_10_0.png","I_Dist_200_LN_4_LD_6_RN_14_RD_30_0.png","I_Dist_200_LN_7_LD_10_RN_12_RD_24_0.png","I_Dist_200_LN_7_LD_10_RN_14_RD_28_0.png","I_Dist_200_LN_7_LD_10_RN_8_RD_16_0.png"],["I_Dist_200_LN_11_LD_20_RN_3_RD_4_1.png","I_Dist_200_LN_14_LD_30_RN_12_RD_18_1.png","I_Dist_200_LN_14_LD_30_RN_6_RD_9_1.png","I_Dist_200_LN_3_LD_10_RN_1_RD_2_1.png","I_Dist_200_LN_4_LD_30_RN_1_RD_3_1.png","I_Dist_200_LN_6_LD_20_RN_3_RD_6_1.png","I_Dist_200_LN_7_LD_15_RN_4_RD_6_1.png","I_Dist_200_LN_7_LD_15_RN_6_RD_9_1.png","I_Dist_200_LN_9_LD_15_RN_8_RD_10_1.png"]],"dist200_S":[["E_Dist_200_LN_3_LD_6_RN_3_RD_10_0.png"],["E_Dist_200_LN_3_LD_10_RN_3_RD_6_1.png"]],"dist300_C":[["C_Dist_300_LN_11_LD_22_RN_1_RD_5_0.png","C_Dist_300_LN_11_LD_22_RN_2_RD_10_0.png","C_Dist_300_LN_11_LD_22_RN_4_RD_20_0.png","C_Dist_300_LN_12_LD_24_RN_2_RD_10_0.png","C_Dist_300_LN_18_LD_20_RN_9_RD_15_0.png","C_Dist_300_LN_20_LD_25_RN_13_RD_26_0.png","C_Dist_300_LN_20_LD_25_RN_14_RD_28_0.png","C_Dist_300_LN_20_LD_25_RN_5_RD_10_0.png","C_Dist_300_LN_20_LD_25_RN_8_RD_16_0.png","C_Dist_300_LN_20_LD_25_RN_9_RD_18_0.png","C_Dist_300_LN_24_LD_30_RN_2_RD_4_0.png","C_Dist_300_LN_24_LD_30_RN_8_RD_16_0.png","C_Dist_300_LN_3_LD_6_RN_2_RD_10_0.png","C_Dist_300_LN_4_LD_10_RN_1_RD_10_0.png","C_Dist_300_LN_4_LD_5_RN_2_RD_4_0.png","C_Dist_300_LN_8_LD_16_RN_1_RD_5_0.png","C_Dist_300_LN_9_LD_10_RN_3_RD_5_0.png"],["C_Dist_300_LN_1_LD_20_RN_7_RD_20_1.png","C_Dist_300_LN_1_LD_3_RN_19_RD_30_1.png","C_Dist_300_LN_1_LD_30_RN_8_RD_24_1.png","C_Dist_300_LN_1_LD_5_RN_11_RD_22_1.png","C_Dist_300_LN_1_LD_5_RN_3_RD_6_1.png","C_Dist_300_LN_1_LD_5_RN_6_RD_12_1.png","C_Dist_300_LN_2_LD_10_RN_12_RD_24_1.png","C_Dist_300_LN_2_LD_20_RN_10_RD_25_1.png","C_Dist_300_LN_3_LD_12_RN_11_RD_20_1.png","C_Dist_300_LN_3_LD_6_RN_4_RD_5_1.png","C_Dist_300_LN_4_LD_20_RN_13_RD_26_1.png","C_Dist_300_LN_5_LD_25_RN_6_RD_12_1.png","C_Dist_300_LN_5_LD_25_RN_7_RD_14_1.png","C_Dist_300_LN_7_LD_14_RN_20_RD_25_1.png","C_Dist_300_LN_8_LD_15_RN_10_RD_12_1.png"]],"dist300_I":[["I_Dist_300_LN_1_LD_2_RN_2_RD_10_0.png","I_Dist_300_LN_1_LD_2_RN_3_RD_15_0.png","I_Dist_300_LN_2_LD_4_RN_6_RD_30_0.png","I_Dist_300_LN_3_LD_6_RN_4_RD_20_0.png","I_Dist_300_LN_4_LD_5_RN_6_RD_12_0.png","I_Dist_300_LN_4_LD_5_RN_8_RD_16_0.png","I_Dist_300_LN_7_LD_10_RN_8_RD_20_0.png","I_Dist_300_LN_8_LD_10_RN_14_RD_28_0.png","I_Dist_300_LN_8_LD_10_RN_9_RD_18_0.png"],["I_Dist_300_LN_13_LD_26_RN_12_RD_15_1.png","I_Dist_300_LN_4_LD_20_RN_2_RD_4_1.png"]],"dist300_S":[["E_Dist_300_LN_9_LD_12_RN_9_RD_20_0.png"],["E_Dist_300_LN_18_LD_30_RN_18_RD_20_1.png","E_Dist_300_LN_3_LD_10_RN_3_RD_5_1.png","E_Dist_300_LN_9_LD_20_RN_9_RD_12_1.png"]],"dist500_C":[["C_Dist_500_LN_10_LD_13_RN_7_RD_26_0.png","C_Dist_500_LN_10_LD_15_RN_4_RD_24_0.png","C_Dist_500_LN_12_LD_16_RN_3_RD_12_0.png","C_Dist_500_LN_12_LD_18_RN_4_RD_24_0.png","C_Dist_500_LN_15_LD_18_RN_5_RD_15_0.png","C_Dist_500_LN_15_LD_20_RN_1_RD_4_0.png","C_Dist_500_LN_18_LD_27_RN_1_RD_6_0.png","C_Dist_500_LN_20_LD_24_RN_1_RD_3_0.png","C_Dist_500_LN_20_LD_24_RN_3_RD_9_0.png","C_Dist_500_LN_20_LD_24_RN_7_RD_21_0.png","C_Dist_500_LN_20_LD_28_RN_3_RD_14_0.png","C_Dist_500_LN_21_LD_28_RN_6_RD_24_0.png","C_Dist_500_LN_22_LD_28_RN_2_RD_7_0.png","C_Dist_500_LN_25_LD_30_RN_9_RD_27_0.png","C_Dist_500_LN_4_LD_6_RN_1_RD_6_0.png","C_Dist_500_LN_5_LD_6_RN_2_RD_6_0.png","C_Dist_500_LN_6_LD_9_RN_1_RD_6_0.png","C_Dist_500_LN_7_LD_10_RN_1_RD_5_0.png","C_Dist_500_LN_8_LD_12_RN_1_RD_6_0.png","C_Dist_500_LN_8_LD_12_RN_4_RD_24_0.png"],["C_Dist_500_LN_1_LD_4_RN_12_RD_16_1.png","C_Dist_500_LN_1_LD_4_RN_9_RD_12_1.png","C_Dist_500_LN_1_LD_9_RN_11_RD_18_1.png","C_Dist_500_LN_10_LD_24_RN_22_RD_24_1.png","C_Dist_500_LN_2_LD_12_RN_10_RD_15_1.png","C_Dist_500_LN_2_LD_12_RN_12_RD_18_1.png","C_Dist_500_LN_2_LD_12_RN_4_RD_6_1.png","C_Dist_500_LN_2_LD_24_RN_7_RD_12_1.png","C_Dist_500_LN_2_LD_5_RN_18_RD_20_1.png","C_Dist_500_LN_2_LD_5_RN_9_RD_10_1.png","C_Dist_500_LN_2_LD_8_RN_12_RD_16_1.png","C_Dist_500_LN_2_LD_8_RN_21_RD_28_1.png","C_Dist_500_LN_3_LD_10_RN_4_RD_5_1.png","C_Dist_500_LN_3_LD_12_RN_15_RD_20_1.png","C_Dist_500_LN_3_LD_30_RN_6_RD_10_1.png","C_Dist_500_LN_3_LD_8_RN_14_RD_16_1.png","C_Dist_500_LN_4_LD_16_RN_15_RD_20_1.png","C_Dist_500_LN_4_LD_24_RN_12_RD_18_1.png","C_Dist_500_LN_5_LD_14_RN_6_RD_7_1.png","C_Dist_500_LN_7_LD_21_RN_20_RD_24_1.png","C_Dist_500_LN_7_LD_28_RN_12_RD_16_1.png","C_Dist_500_LN_7_LD_28_RN_9_RD_12_1.png","C_Dist_500_LN_9_LD_27_RN_20_RD_24_1.png"]],"dist500_I":[["I_Dist_500_LN_2_LD_3_RN_4_RD_24_0.png","I_Dist_500_LN_5_LD_6_RN_6_RD_18_0.png","I_Dist_500_LN_7_LD_8_RN_9_RD_24_0.png"],["I_Dist_500_LN_7_LD_21_RN_5_RD_6_1.png"]],"dist500_S":[["E_Dist_500_LN_6_LD_8_RN_6_RD_24_0.png"],["E_Dist_500_LN_2_LD_12_RN_2_RD_3_1.png","E_Dist_500_LN_6_LD_24_RN_6_RD_8_1.png"]]}},{"start_time":1552327357131,"click_time":1552327378240,"finger_time":1552327377140,"fix_duration":1309.4010957666392,"trial":1,"RT":20009,"MT":1100,"sideResp":1,"stimulus":[],"xmouse":[799,799,799,799,799,799,799,799,799,799,799,799,799,799,799,799,799,799,799,799,799,799,799,799,799,799,799,799,799,799,799,799,799,799,799,799,799,799,799,799,799,799,799,799,799,799,799,799,799,799,799,799,799,799,799,799,799,799,799,799,799,799,799,799,799,799,799,799,799,799,799,799,799,799,799,799,799,799,799,799,799,799,799,799,799,799,799,799,799,799,799,799,799,799,799,799,799,799,799,799,799,799,798,798,798,798,798,798,798,798,798,798,798,798,798,798,798,798,798,798,798,798,798,798,798,798,798,798,798,801,804,805,805,807,809,812,818,823,826,826,826,826,826,826,826,827,827,827,827,827,827,827,827,827,827,827,827,827,827,827,827,827,827,827,828,829,829,832,832,833,833,834,834,834,833,832,831,831,831,831,831,831,831,831,831,831,831,831,831,831,831,831,831,831,831,831,831,831,831,831,831,831,831,831,831,831,831,831,831,831,831,831,831,831,831,831,831,831,831,831,831,831,831,831,831,831,831,831,831,831,831,831,831,831,831,831,831,831,831,831,831,831,831,831,831,831,831,831,831,831,831,831,831,831,831,831,831,831,831,831,831,831,831,831,831,831,831,831,831,831,831,831,831,831,831,831,831,831,831,831,831,831,831,831,831,831,831,831,831,831,831,831,831,831,831,831,831,831,831,831,831,831,831,831,831,831,831,831,831,831,831,831,831,831,831,831,831,831,831,831,831,831,831,831,831,831,831,831,831,831,831,831,831,831,831,831,831,831,831,831,831,831,831,831,831,831,831,831,831,831,831,831,831,831,831,831,831,831,831,831,831,831,831,831,831,831,831,831,831,831,831,831,831,831,831,831,831,831,831,831,831,831,831,831,831,831,831,831,831,831,831,831,831,831,831,831,831,831,831,831,831,831,831,831,831,831,831,831,831,831,831,831,831,831,831,831,831,831,831,831,831,831,831,831,831,831,831,831,831,831,831,831,831,831,831,831,831,831,831,831,831,831,831,831,831,831,831,831,831,831,831,831,831,831,831,831,831,831,831,831,831,831,831,831,831,831,831,831,831,831,831,831,831,831,831,831,831,831,831,831,831,831,831,831,831,831,831,831,831,831,831,831,831,831,831,831,831,831,831,831,831,831,831,831,831,831,831,831,831,831,831,831,831,831,831,831,831,831,831,831,831,831,831,831,831,831,831,831,831,831,831,831,831,831,831,831,831,831,831,831,831,831,831,831,831,831,831,831,831,831,831,831,831,831,831,831,831,831,831,831,831,831,831,831,831,831,831,831,831,831,831,831,831,831,831,831,831,831,831,831,831,831,831,831,831,831,831,831,831,831,831,831,831,831,831,831,831,831,831,831,831,831,831,831,831,831,831,831,831,831,831,831,831,831,831,831,831,831,831,831,831,831,831,831,831,831,831,831,831,831,831,831,831,831,831,831,831,831,831,831,831,831,831,831,831,831,831,831,831,831,831,831,831,831,831,831,831,831,831,831,831,831,831,831,831,831,831,831,831,831,831,831,831,831,831,831,831,831,831,831,831,831,831,831,831,831,831,831,831,831,831,831,831,831,831,831,831,831,831,831,831,831,831,831,831,831,831,831,831,831,831,831,831,831,831,831,831,831,831,831,831,831,831,831,831,831,831,831,831,831,831,831,831,831,831,831,831,831,831,831,831,831,831,831,831,831,831,831,831,831,831,831,831,831,831,831,831,831,831,831,831,831,831,831,831,831,831,831,831,831,831,831,831,831,831,831,831,831,831,831,831,831,831,831,831,831,831,831,831,831,831,831,831,831,831,831,831,831,831,831,831,831,831,831,831,831,831,831,831,831,831,831,831,831,831,831,831,831,831,831,831,831,831,831,831,831,831,831,831,831,831,831,831,831,831,831,831,831,831,831,831,831,831,831,831,831,831,831,831,831,831,831,831,831,831,831,831,831,831,831,831,831,831,831,831,831,831,831,831,831,831,831,831,831,831,831,831,831,831,831,831,831,831,831,831,831,831,831,831,831,831,831,831,831,831,831,831,831,831,831,831,831,831,831,831,831,831,831,831,831,831,831,831,831,831,831,831,831,831,831,831,831,831,831,831,831,831,831,831,831,831,831,831,831,831,831,831,831,831,831,831,831,831,831,831,831,831,831,831,831,831,831,831,831,831,831,831,831,831,831,831,831,823,820,819,819,819,819,819,819,819,819,819,819,819,819,819,819,819,819,819,819,819,819,819,819,819,819,819,819,819,819,804,797,782,773,773,773,773,773,952,1030,1097,1148,1190,1199,1203,1205,1205,1205,1202,1191,1169,1132,1076,907,829,762,742,738,737,736,727,707,675,600,590,588,588,588,594,598,602,602,602,602,602,602,602,602,602,602,602,602,601,582,577,567,551,535,517,515,515,515,515,514],"ymouse":[561,561,561,561,561,561,561,561,561,561,561,561,561,561,561,561,561,561,561,561,561,561,561,561,561,561,561,561,561,561,561,561,561,561,561,561,561,561,561,561,561,561,561,561,561,561,561,561,561,561,561,561,561,561,561,561,561,561,561,561,561,561,561,561,561,561,561,561,561,561,561,561,561,561,561,561,561,561,561,561,561,561,561,561,561,561,561,561,561,561,561,561,561,561,561,561,561,561,560,559,559,558,557,557,557,557,557,557,557,557,557,557,557,557,557,557,557,557,557,557,557,557,557,557,557,557,556,555,555,553,553,553,553,553,553,552,551,550,550,549,549,549,549,549,549,549,549,549,549,549,549,549,549,549,549,549,549,549,549,550,551,552,554,559,561,564,566,577,584,586,586,587,587,587,590,591,593,593,593,593,593,593,593,593,593,593,593,593,593,593,593,593,593,593,593,593,593,593,593,593,593,593,593,593,593,593,593,593,593,593,593,593,593,593,593,593,593,593,593,593,593,593,593,593,593,593,593,593,593,593,593,593,593,593,593,593,593,593,593,593,593,593,593,593,593,593,593,593,593,593,593,593,593,593,593,593,593,593,593,593,593,593,593,593,593,593,593,593,593,593,593,593,593,593,593,593,593,593,593,593,593,593,593,593,593,593,593,593,593,593,593,593,593,593,593,593,593,593,593,593,593,593,593,593,593,593,593,593,593,593,593,593,593,593,593,593,593,593,593,593,593,593,593,593,593,593,593,593,593,593,593,593,593,593,593,593,593,593,593,593,593,593,593,593,593,593,593,593,593,593,593,593,593,593,593,593,593,593,593,593,593,593,593,593,593,593,593,593,593,593,593,593,593,593,593,593,593,593,593,593,593,593,593,593,593,593,593,593,593,593,593,593,593,593,593,593,593,593,593,593,593,593,593,593,593,593,593,593,593,593,593,593,593,593,593,593,593,593,593,593,593,593,593,593,593,593,593,593,593,593,593,593,593,593,593,593,593,593,593,593,593,593,593,593,593,593,593,593,593,593,593,593,593,593,593,593,593,593,593,593,593,593,593,593,593,593,593,593,593,593,593,593,593,593,593,593,593,593,593,593,593,593,593,593,593,593,593,593,593,593,593,593,593,593,593,593,593,593,593,593,593,593,593,593,593,593,593,593,593,593,593,593,593,593,593,593,593,593,593,593,593,593,593,593,593,593,593,593,593,593,593,593,593,593,593,593,593,593,593,593,593,593,593,593,593,593,593,593,593,593,593,593,593,593,593,593,593,593,593,593,593,593,593,593,593,593,593,593,593,593,593,593,593,593,593,593,593,593,593,593,593,593,593,593,593,593,593,593,593,593,593,593,593,593,593,593,593,593,593,593,593,593,593,593,593,593,593,593,593,593,593,593,593,593,593,593,593,593,593,593,593,593,593,593,593,593,593,593,593,593,593,593,593,593,593,593,593,593,593,593,593,593,593,593,593,593,593,593,593,593,593,593,593,593,593,593,593,593,593,593,593,593,593,593,593,593,593,593,593,593,593,593,593,593,593,593,593,593,593,593,593,593,593,593,593,593,593,593,593,593,593,593,593,593,593,593,593,593,593,593,593,593,593,593,593,593,593,593,593,593,593,593,593,593,593,593,593,593,593,593,593,593,593,593,593,593,593,593,593,593,593,593,593,593,593,593,593,593,593,593,593,593,593,593,593,593,593,593,593,593,593,593,593,593,593,593,593,593,593,593,593,593,593,593,593,593,593,593,593,593,593,593,593,593,593,593,593,593,593,593,593,593,593,593,593,593,593,593,593,593,593,593,593,593,593,593,593,593,593,593,593,593,593,593,593,593,593,593,593,593,593,593,593,593,593,593,593,593,593,593,593,593,593,593,593,593,593,593,593,593,593,593,593,593,593,593,593,593,593,593,593,593,593,593,593,593,593,593,593,593,593,593,593,593,593,593,593,593,593,593,593,593,593,593,593,593,593,593,593,593,593,593,593,593,593,593,593,593,593,593,593,593,593,593,593,593,593,593,593,593,593,593,593,593,593,593,593,593,593,593,593,593,593,593,593,593,593,593,593,593,593,593,593,593,593,593,593,593,593,593,593,593,593,593,593,593,593,593,593,593,593,593,593,593,593,593,593,593,593,593,593,593,593,593,593,593,593,593,593,593,593,593,593,593,593,593,593,593,593,593,593,593,581,577,577,577,577,577,577,577,577,577,577,577,577,577,577,577,577,577,577,577,577,577,577,577,577,577,577,577,577,577,554,544,543,581,581,581,581,581,720,634,551,480,448,448,458,461,461,462,459,449,438,421,398,350,328,310,304,301,298,296,291,285,272,225,217,215,214,214,195,177,167,166,166,166,166,166,166,166,166,166,165,164,163,146,135,125,117,110,107,107,107,104,100,92],"timestamp_mouse":[13,36,48,69,88,109,129,149,169,189,209,230,248,269,290,308,329,349,369,390,408,430,448,468,490,508,530,550,569,588,609,630,648,668,689,710,728,748,770,789,810,828,849,870,888,908,929,949,968,990,1008,1028,1048,1069,1088,1109,1129,1149,1169,1189,1210,1228,1249,1269,1289,1309,1328,1350,1370,1388,1409,1429,1450,1469,1489,1509,1528,1548,1570,1588,1610,1628,1649,1669,1688,1708,1729,1749,1769,1789,1809,1830,1850,1869,1889,1908,1930,1949,1969,1989,2010,2030,2049,2070,2090,2109,2130,2150,2168,2188,2208,2229,2250,2270,2289,2310,2328,2349,2369,2389,2409,2430,2450,2469,2489,2509,2530,2550,2569,2589,2610,2629,2649,2668,2689,2709,2729,2748,2769,2789,2810,2829,2848,2869,2888,2908,2929,2950,2969,2989,3009,3028,3048,3070,3089,3110,3129,3149,3170,3189,3208,3228,3250,3269,3289,3309,3328,3350,3368,3390,3408,3429,3448,3470,3488,3508,3530,3548,3570,3588,3609,3630,3648,3670,3689,3708,3729,3748,3770,3788,3810,3828,3850,3869,3888,3909,3928,3948,3970,3988,4009,4030,4049,4069,4089,4110,4128,4148,4168,4189,4209,4229,4249,4270,4289,4309,4329,4349,4369,4389,4408,4429,4450,4468,4490,4510,4529,4548,4570,4590,4609,4628,4649,4670,4690,4709,4728,4748,4768,4789,4809,4828,4850,4869,4888,4910,4929,4949,4968,4988,5009,5030,5049,5069,5090,5110,5130,5149,5170,5190,5209,5228,5250,5270,5288,5308,5329,5348,5370,5390,5408,5429,5450,5468,5488,5508,5529,5550,5569,5589,5609,5630,5649,5670,5690,5709,5729,5750,5769,5790,5809,5830,5849,5870,5889,5909,5930,5949,5968,5989,6010,6028,6049,6070,6090,6108,6128,6148,6170,6189,6210,6229,6249,6268,6289,6310,6329,6349,6370,6390,6408,6429,6449,6470,6489,6510,6528,6549,6569,6589,6609,6630,6648,6668,6688,6709,6729,6749,6768,6789,6810,6830,6850,6868,6888,6909,6929,6950,6970,6989,7009,7030,7048,7069,7090,7110,7129,7148,7170,7189,7209,7229,7248,7268,7289,7309,7330,7350,7369,7388,7408,7428,7448,7468,7489,7510,7529,7549,7569,7588,7609,7630,7649,7669,7689,7709,7730,7748,7768,7790,7810,7828,7848,7869,7890,7909,7930,7949,7969,7989,8009,8029,8049,8068,8089,8119,8129,8149,8169,8188,8209,8230,8250,8269,8289,8309,8329,8349,8369,8389,8409,8429,8450,8469,8488,8509,8530,8550,8569,8590,8609,8630,8648,8669,8689,8709,8730,8748,8768,8790,8809,8828,8848,8869,8888,8909,8930,8950,8969,8989,9009,9029,9050,9069,9088,9108,9128,9149,9168,9189,9209,9230,9249,9269,9288,9309,9329,9350,9369,9389,9409,9430,9449,9469,9489,9509,9529,9549,9570,9589,9608,9628,9650,9670,9690,9709,9728,9749,9770,9788,9809,9830,9849,9870,9890,9909,9929,9949,9968,9988,10009,10030,10049,10068,10088,10109,10129,10150,10168,10188,10209,10230,10248,10268,10289,10310,10328,10348,10370,10389,10408,10428,10449,10468,10489,10509,10529,10548,10569,10590,10610,10629,10648,10670,10689,10709,10728,10749,10768,10790,10809,10829,10849,10868,10889,10910,10929,10948,10968,10988,11010,11028,11050,11069,11089,11109,11129,11150,11170,11190,11208,11228,11250,11268,11290,11309,11329,11349,11369,11389,11409,11429,11450,11469,11490,11509,11528,11550,11569,11589,11609,11630,11649,11668,11688,11710,11729,11748,11768,11788,11810,11830,11848,11869,11890,11910,11930,11948,11969,11988,12010,12029,12048,12068,12088,12108,12129,12149,12170,12188,12208,12229,12250,12268,12290,12308,12329,12350,12370,12390,12408,12428,12450,12469,12490,12509,12530,12549,12569,12588,12609,12630,12650,12670,12689,12710,12729,12749,12768,12789,12809,12829,12850,12869,12889,12909,12929,12949,12970,12989,13009,13029,13049,13068,13090,13108,13129,13150,13170,13190,13209,13228,13248,13269,13288,13310,13329,13350,13369,13389,13409,13430,13449,13468,13490,13508,13530,13548,13568,13589,13610,13629,13648,13669,13689,13708,13730,13750,13769,13789,13809,13830,13850,13868,13888,13910,13929,13948,13968,13988,14010,14029,14049,14068,14090,14110,14129,14150,14169,14188,14209,14228,14250,14269,14290,14309,14328,14348,14369,14388,14408,14430,14450,14468,14489,14509,14529,14549,14568,14590,14608,14629,14648,14669,14690,14709,14729,14748,14770,14790,14809,14829,14849,14870,14890,14909,14928,14948,14968,14990,15009,15030,15049,15069,15088,15109,15128,15150,15170,15188,15209,15229,15250,15269,15289,15308,15330,15350,15368,15388,15410,15429,15449,15470,15488,15508,15530,15550,15568,15588,15609,15630,15648,15669,15688,15710,15729,15748,15769,15788,15809,15830,15850,15870,15890,15908,15928,15950,15969,15988,16009,16029,16050,16069,16088,16110,16128,16149,16170,16189,16210,16229,16248,16269,16289,16309,16329,16348,16368,16389,16409,16429,16449,16470,16488,16508,16529,16549,16569,16589,16609,16629,16649,16669,16688,16709,16730,16749,16768,16789,16808,16830,16849,16869,16888,16908,16930,16948,16970,16989,17009,17029,17048,17069,17090,17108,17129,17150,17168,17188,17210,17230,17248,17268,17290,17309,17329,17349,17369,17389,17408,17430,17448,17469,17488,17509,17529,17548,17569,17589,17609,17629,17649,17670,17689,17709,17728,17750,17770,17789,17808,17830,17848,17869,17888,17910,17930,17949,17968,17989,18009,18030,18050,18068,18089,18110,18128,18148,18170,18189,18210,18229,18248,18269,18289,18310,18329,18348,18369,18388,18410,18429,18449,18469,18489,18509,18528,18549,18569,18589,18609,18629,18650,18669,18688,18709,18728,18749,18768,18788,18809,18829,18848,18868,18889,18908,18929,18949,18968,18988,19009,19028,19048,19068,19089,19108,19128,19148,19170,19188,19209,19229,19248,19268,19289,19309,19329,19348,19369,19389,19409,19429,19449,19469,19488,19509,19528,19549,19569,19589,19608,19629,19648,19668,19689,19708,19728,19749,19768,19789,19808,19829,19848,19869,19888,19909,19929,19948,19968,19988,20009,20029,20048,20069,20089,20108,20129,20148,20169,20188,20209,20228,20248,20269,20289,20308,20328,20348,20369,20388,20408,20428,20448,20468,20488,20508,20529,20548,20568,20589,20608,20628,20649,20668,20689,20708,20729,20748,20768,20788,20808,20829,20848,20868,20888,20909,20929,20948,20969,20988,21008,21028,21049,21068,21088,21108],"xSR":741.5,"ySR":501.8,"xT1":424.9,"yT1":0,"xT2":1058.1,"yT2":0,"toosoon":0,"cond_shown":"Incongruent","ratio_trial":300,"L_num":8,"L_den":10,"R_num":14,"R_den":28,"correct_side":1,"subjID":"VALERIA HERREÑOO URIBE","gender":"No_gender","school":"No_school","age":"No_age"},{"start_time":1552327409093,"click_time":1552327424559,"finger_time":1552327409500,"fix_duration":1490.654614327209,"trial":2,"RT":407,"MT":15059,"sideResp":1,"stimulus":[],"xmouse":[807,807,807,807,807,807,807,807,807,807,807,807,807,807,807,807,807,808,809,814,829,852,869,881,887,891,892,892,892,892,893,895,896,897,897,897,897,898,898,898,898,898,898,898,896,894,888,884,879,873,868,856,850,846,841,837,828,824,821,819,814,811,805,803,800,799,797,796,796,796,795,795,795,795,795,795,795,795,795,795,795,795,795,795,795,795,795,795,795,795,795,795,795,795,795,795,795,795,795,795,795,795,795,795,795,795,795,795,795,795,795,795,795,795,795,795,795,795,795,795,795,795,795,795,795,795,795,795,795,795,795,795,795,795,795,795,795,795,795,795,795,795,795,795,795,795,795,795,795,795,795,795,795,795,795,795,795,795,795,795,796,796,796,796,796,796,796,796,796,796,796,796,796,796,796,796,796,796,796,796,796,796,796,796,796,796,796,796,796,796,796,796,796,796,796,796,796,796,796,796,796,796,796,796,796,796,796,796,796,796,796,796,796,796,796,796,797,797,797,797,797,797,797,797,797,797,797,797,797,797,797,797,797,797,798,798,798,798,798,798,798,798,798,798,798,798,798,798,798,798,798,798,798,798,798,798,798,798,798,798,798,798,798,798,798,798,798,798,798,798,798,798,798,798,798,798,798,798,798,798,797,797,797,797,797,797,797,797,797,797,797,797,797,797,796,796,794,793,792,790,790,790,789,789,788,787,785,779,768,748,739,734,734,734,734,734,734,734,735,739,743,748,761,770,779,788,791,792,793,794,794,796,796,796,796,796,796,795,795,795,795,794,794,793,793,792,790,788,788,788,788,788,788,788,788,788,788,788,785,784,783,782,781,781,781,781,781,781,781,781,781,781,781,781,778,774,767,764,763,762,761,760,760,760,760,759,759,758,757,757,756,755,755,755,755,755,755,755,755,755,755,755,755,753,753,752,752,752,752,752,752,752,752,752,752,752,752,752,752,752,752,752,752,752,752,752,752,752,752,752,752,752,752,752,752,752,752,752,752,752,752,752,752,752,752,752,752,753,754,755,755,756,756,756,756,756,756,756,756,756,756,756,756,756,756,756,756,756,755,755,754,753,753,753,753,752,749,742,735,726,719,701,694,685,676,650,586,425,314,266,236,231,226,226,226,226,226,226,226,226,226,226,226,227,236,252,280,296,301,308,314,321,328,328,328,328,328,328,328,328,328,328,328,328,328,328,328,328,328,328,328,328,328,328,328,328,328,328,328,328,328,328,328,328,328,328,328,328,328,328,328,328,328,328,328,328,328,328,328,328,328,328,328,328,328,328,328,328,328,328,328,328,328,328,328,328,328,328,328,328,328,328,328,328,328,328,328,328,328,328,328,328,328,328,328,328,328,328,328,328,328,328,328,328,328,328,328,328,328,328,461],"ymouse":[547,547,547,547,547,547,547,547,547,547,547,547,547,547,547,547,547,545,542,530,496,456,430,409,396,384,382,382,382,381,379,376,373,372,371,370,370,369,369,369,369,369,369,369,371,378,386,396,408,422,434,461,476,486,496,503,516,521,525,527,534,536,543,545,550,552,554,555,555,555,556,556,556,556,556,556,556,556,556,556,556,556,556,557,557,557,558,558,558,558,558,558,558,558,558,558,558,558,558,558,558,558,558,558,558,558,558,558,558,558,558,558,558,558,558,558,558,558,558,558,558,558,559,559,560,560,560,560,560,560,560,560,560,560,560,561,561,561,561,561,561,561,561,561,561,562,562,562,562,562,562,562,562,562,562,562,562,562,562,562,562,561,560,560,560,560,560,560,560,560,560,560,560,560,560,560,560,560,560,560,560,560,560,560,560,560,560,560,560,560,560,560,560,560,560,560,560,560,560,560,560,560,560,560,560,560,560,560,560,560,560,560,560,560,560,560,559,559,559,559,559,559,559,559,559,559,559,559,559,559,559,559,559,558,557,557,557,557,557,557,557,557,557,557,557,557,557,557,557,557,557,557,557,557,557,557,557,557,557,557,557,557,557,557,557,557,557,557,557,557,557,557,557,557,557,556,554,551,549,547,546,546,546,546,546,546,546,546,546,546,546,546,546,546,545,546,550,551,552,554,554,555,557,557,559,560,565,570,576,585,589,593,593,593,593,593,593,593,593,593,593,593,593,593,590,587,584,579,574,563,558,548,545,543,541,538,531,529,528,528,527,526,525,523,522,520,515,513,512,512,512,512,512,512,512,512,512,512,513,517,519,527,532,537,542,544,546,547,549,551,552,553,554,557,562,570,581,586,586,587,589,590,590,590,590,590,590,591,592,592,593,594,594,594,594,594,594,594,594,594,594,594,594,596,597,597,598,598,598,598,598,598,598,598,598,598,598,598,598,598,598,598,598,598,598,598,598,598,598,598,598,598,598,598,598,598,598,598,598,598,598,598,598,598,598,598,598,597,596,594,593,593,593,593,593,593,593,593,593,593,593,593,593,593,593,593,592,592,592,593,593,593,594,594,594,594,592,581,566,552,532,498,485,470,455,425,355,224,146,119,102,96,95,95,95,95,95,95,95,95,95,95,95,94,87,73,51,43,41,41,37,27,3,3,3,3,3,3,3,3,3,3,3,3,3,3,3,3,3,3,3,3,3,3,3,3,3,3,3,3,3,3,3,3,3,3,3,3,3,3,3,3,3,3,3,3,3,3,3,3,3,3,3,3,3,3,3,3,3,3,3,3,3,3,3,3,3,3,3,3,3,3,3,3,3,3,3,3,3,3,3,3,3,3,3,3,3,3,3,3,3,3,3,3,3,3,3,3,3,3,32],"timestamp_mouse":[13,42,47,66,86,106,127,146,166,187,207,226,247,266,287,306,326,346,366,386,407,426,446,467,486,506,527,547,567,586,609,626,646,666,686,707,727,746,766,786,807,826,846,867,887,908,926,947,966,986,1006,1026,1046,1066,1086,1106,1127,1146,1167,1186,1208,1226,1246,1266,1287,1306,1327,1347,1366,1386,1406,1426,1446,1467,1486,1507,1527,1546,1566,1586,1607,1627,1646,1667,1686,1707,1727,1746,1766,1786,1806,1827,1846,1866,1886,1907,1926,1947,1967,1987,2007,2027,2047,2067,2087,2108,2127,2147,2167,2187,2207,2228,2247,2267,2286,2306,2326,2347,2366,2387,2407,2426,2447,2467,2487,2507,2527,2546,2567,2587,2606,2626,2646,2666,2688,2706,2726,2746,2766,2787,2807,2827,2847,2868,2887,2906,2926,2947,2967,2986,3006,3027,3047,3066,3087,3106,3126,3146,3166,3187,3206,3226,3247,3266,3287,3306,3327,3346,3366,3387,3406,3427,3447,3466,3487,3506,3527,3547,3566,3587,3606,3627,3646,3667,3686,3707,3727,3746,3766,3786,3807,3826,3847,3866,3886,3906,3927,3948,3967,3987,4007,4026,4047,4066,4086,4107,4128,4146,4167,4188,4207,4227,4247,4267,4286,4306,4327,4346,4366,4387,4406,4426,4446,4466,4486,4507,4527,4547,4567,4587,4606,4627,4647,4666,4687,4706,4726,4746,4767,4787,4807,4827,4847,4866,4887,4906,4927,4947,4966,4987,5006,5027,5046,5066,5086,5106,5128,5146,5167,5186,5207,5226,5247,5267,5286,5306,5326,5346,5367,5386,5406,5427,5446,5466,5486,5507,5527,5546,5567,5586,5606,5627,5647,5667,5687,5707,5727,5747,5766,5786,5807,5827,5847,5866,5886,5907,5927,5947,5966,5986,6007,6027,6047,6067,6087,6108,6126,6147,6167,6187,6207,6226,6247,6266,6286,6306,6326,6347,6367,6387,6407,6426,6446,6466,6486,6507,6526,6547,6567,6587,6607,6626,6647,6667,6687,6707,6726,6746,6767,6786,6806,6827,6847,6866,6887,6907,6926,6948,6967,6987,7006,7026,7046,7067,7086,7106,7127,7147,7167,7186,7207,7226,7247,7266,7287,7307,7326,7346,7367,7386,7406,7427,7447,7468,7486,7507,7526,7547,7567,7586,7607,7627,7647,7666,7686,7706,7727,7746,7767,7786,7807,7826,7846,7866,7886,7906,7926,7946,7966,7986,8006,8027,8046,8066,8086,8107,8127,8146,8168,8186,8206,8226,8246,8267,8287,8306,8326,8346,8366,8386,8407,8426,8446,8466,8487,8506,8526,8546,8567,8586,8607,8627,8646,8666,8687,8707,8726,8747,8767,8787,8806,8826,8846,8867,8887,8906,8927,8947,8966,8987,9006,9027,9046,9067,9087,9107,9127,9146,9166,9186,9207,9226,9247,9267,9286,9306,9327,9346,9367,9387,9407,9426,9448,9467,9487,9506,9527,9547,9567,9586,9607,9627,9646,9667,9686,9706,9726,9746,9766,9786,9807,9827,9846,9867,9886,9906,9927,9947,9967,9987,10007,10027,10046,10066,10086,10107,10127,10146,10166,10187,10207,10226,10246,10266,10286,10306,10327,10347,10366,10386,10407,10429,10447,10467,10486,10507,10527,10546,10567,10586,10606,10627,10646,10667,10687,10706,10727,10747,10766,10786,10807,10827,10846,10866,10887,10907,10927,10946,10966,10986,11006,11027,11047,11066,11087,11107,11885,11887,12884,12886,13885,13886,14516,14526,14546,14567,14586,14606,14626,14646,14667,14687,14706,14727,14746,14766,14787,14807,14827,14847,14867,14887,14906,14927,14947,14966,14987,15006,15027,15046,15067,15086,15107,15126,15146,15166,15187,15207,15226,15247,15267,15287,15306,15326,15347,15366,15386,15407,15427,15446,15466],"xSR":741.5,"ySR":501.8,"xT1":424.9,"yT1":0,"xT2":1058.1,"yT2":0,"toosoon":0,"cond_shown":"Incongruent","ratio_trial":300,"L_num":2,"L_den":4,"R_num":6,"R_den":30,"correct_side":1,"subjID":"VALERIA HERREÑOO URIBE","gender":"No_gender","school":"No_school","age":"No_age"},{"start_time":1552327425531,"click_time":1552327439658,"finger_time":1552327426179,"fix_duration":250,"trial":3,"RT":648,"MT":13479,"sideResp":2,"stimulus":[],"xmouse":[795,795,792,791,791,791,791,791,791,791,791,791,791,791,791,791,791,791,791,791,791,791,791,791,791,793,793,794,794,796,803,811,830,843,857,882,889,895,898,899,900,900,900,900,900,900,900,900,900,900,900,900,900,900,900,900,900,898,895,881,865,836,825,822,820,811,801,795,786,781,779,779,779,779,779,779,780,781,782,782,782,783,783,785,785,786,786,786,787,787,787,787,787,787,787,787,788,788,788,788,788,788,788,789,789,789,789,789,789,789,789,789,789,789,789,789,789,789,789,789,789,789,789,789,789,789,789,789,789,789,789,789,789,789,789,789,782,774,770,770,770,770,770,775,782,789,790,790,790,790,790,790,790,788,784,780,779,779,779,779,779,779,779,779,779,779,779,779,779,779,779,779,779,779,779,779,779,779,779,779,779,779,779,779,779,779,779,779,779,779,779,779,779,779,779,779,780,780,781,782,782,782,782,782,782,782,782,782,782,782,782,782,782,782,782,784,802,815,833,856,869,895,908,922,933,946,963,968,970,972,974,979,980,980,980,980,980,980,981,981,974,963,960,956,952,942,915,903,889,874,861,833,826,820,811,801,789,785,784,784,783,781,780,777,774,771,770,770,770,770,770,770,770,770,770,770,770,770,770,770,770,770,770,770,770,770,770,770,770,770,770,770,770,770,770,770,770,770,770,770,770,770,770,770,770,770,770,770,770,770,770,770,770,770,770,770,770,770,770,770,770,770,770,770,772,777,786,788,789,789,790,790,791,791,791,795,804,811,812,813,813,813,814,816,819,819,812,806,803,827,862,886,919,931,938,950,964,964,964,964,964,964,964,964,964,964,964,964,964,964,964,964,964,964,964,964,964,964,964,964,964,964,964,964,964,964,964,964,964,964,964,964,964,964,964,964,964,964,964,964,964,964,964,964,964,964,964,964,964,964,964,964,964,964,964,964,964,964,964,964,964,964,964,964,964,964,964,964,964,964,964,964,964,964,964,964,964,964,964,964,964,964,964,964,964,964,964,964,964,964,964,964,964,964,964,964,964,964,964,964,964,964,964,964,964,964,964,964,964,964,964,964,964,964,964,964,964,964,964,964,964,964,964,964,964,964,964,964,964,964,964,964,964,964,964,964,964,964,964,964,964,964,964,964,964,964,964,964,964,964,964,964,964,964,964,964,964,964,964,964,964,964,964,964,964,964,964,964,964,964,964,964,964,964,958,957,957,961,967,973,975,975,975,975,975,975,975,975,975,975,975,975,975,975,975,975,975,975,975,975,975,975,975,975,975,975,975,975,975,975,975,975,975,975,975,975,975,975,975,975,975,975,975,975,975,975,975,975,975,975,975,975,975,975,975,975,975,975,975,975,975,975,975,975,975,975,975,975,975,975,975,975,975,975,975,975,975,975,975,975,975,975,975,975,975,975,975,975,975,975,975,975,975,975,975,975,975,977,978,979,982,983,984,985,985,985,985,985,985,985,985,985,985,985,985,985,985,985,985,985,985,985,985,984,981,980,979,977,975,975,975,975,975,975,975,982,987,994,997,998,1000,1001,1001,1001,1001,1001,1001,1001,1001,1001,1001,997,997,997,997,1013,1027,1056,1056,1056,1056,1056,1056,1056,1056,1056,1070],"ymouse":[536,536,536,536,536,536,536,536,536,536,536,536,536,536,536,536,536,536,536,536,536,536,536,536,535,533,532,531,530,529,524,517,501,483,461,409,391,380,375,371,370,370,370,370,370,370,370,370,370,370,370,370,370,370,370,370,370,372,376,384,393,414,425,427,430,441,454,466,481,495,507,529,536,543,549,562,573,577,577,577,577,578,576,574,572,569,567,565,564,563,562,559,558,557,557,555,554,553,552,551,550,548,547,546,545,544,543,543,543,543,542,542,541,540,540,540,539,539,539,539,539,539,539,539,539,539,539,539,539,539,539,539,539,539,539,538,538,538,538,538,538,538,534,526,518,508,506,506,506,506,506,506,506,509,518,538,546,553,558,561,563,566,567,567,567,567,567,567,567,567,567,567,567,567,567,567,567,567,567,567,567,567,567,567,567,567,567,567,567,567,567,567,567,567,565,563,557,555,553,551,551,551,551,551,551,551,553,554,554,554,554,554,554,554,555,554,522,502,478,449,433,404,391,377,365,350,327,322,319,317,314,308,306,306,306,306,306,306,305,305,306,313,323,334,346,359,397,413,428,444,455,467,468,469,470,471,473,473,473,473,474,475,476,479,483,489,493,493,493,493,493,493,493,493,493,493,493,493,493,493,493,493,493,493,493,493,493,493,493,493,493,493,493,493,493,493,493,493,493,493,493,493,493,493,493,493,493,493,493,493,493,493,493,493,493,493,493,493,493,493,493,493,493,493,495,505,526,532,538,541,545,548,549,550,550,551,551,551,551,551,551,551,551,548,535,505,399,340,281,216,171,146,87,73,51,30,9,9,9,9,9,9,9,9,9,9,9,9,9,9,9,9,9,9,9,9,9,9,9,9,9,9,9,9,9,9,9,9,9,9,9,9,9,9,9,9,9,9,9,9,9,9,9,9,9,9,9,9,9,9,9,9,9,9,9,9,9,9,9,9,9,9,9,9,9,9,9,9,9,9,9,9,9,9,9,9,9,9,9,9,9,9,9,9,9,9,9,9,9,9,9,9,9,9,9,9,9,9,9,9,9,9,9,9,9,9,9,9,9,9,9,9,9,9,9,9,9,9,9,9,9,9,9,9,9,9,9,9,9,9,9,9,9,9,9,9,9,9,9,9,9,9,9,9,9,9,9,9,9,9,9,9,9,9,9,9,9,9,9,9,9,9,9,9,9,9,9,9,9,9,9,9,9,9,12,37,59,113,130,138,141,142,142,142,142,142,142,142,142,142,142,142,142,142,142,142,142,142,142,142,142,142,142,142,142,142,142,142,142,142,142,142,142,142,142,142,142,142,142,142,142,142,142,142,142,142,142,142,142,142,142,142,142,142,142,142,142,142,142,142,142,142,142,142,142,142,142,142,142,142,142,142,142,142,142,142,142,142,142,142,142,142,142,142,142,142,142,142,142,142,142,142,142,142,142,142,140,133,133,132,130,129,127,126,125,124,124,124,124,124,124,124,124,124,124,124,124,124,124,124,124,124,123,123,124,127,129,133,135,138,140,140,140,141,144,148,151,154,156,158,161,164,169,170,172,173,174,179,179,179,182,186,186,186,184,140,104,31,31,31,31,31,31,31,31,31,31],"timestamp_mouse":[26,29,48,68,88,108,129,148,169,189,209,229,249,269,289,308,329,348,369,388,408,428,449,468,488,509,528,548,568,589,610,629,648,669,688,709,729,748,769,789,809,828,849,869,888,909,928,948,968,988,1010,1028,1048,1069,1088,1109,1129,1149,1169,1189,1209,1229,1248,1269,1289,1309,1329,1348,1368,1388,1408,1428,1448,1468,1488,1508,1529,1549,1568,1589,1609,1628,1648,1669,1688,1709,1729,1748,1768,1789,1808,1828,1849,1868,1888,1909,1928,1949,1968,1988,2008,2029,2049,2068,2088,2108,2129,2149,2169,2188,2208,2229,2249,2269,2289,2309,2329,2349,2369,2388,2409,2429,2448,2468,2488,2509,2529,2549,2569,2590,2609,2629,2649,2669,2689,2708,2728,2749,2769,2788,2808,2829,2848,2869,2888,2910,2928,2949,2969,2988,3009,3028,3048,3069,3089,3109,3129,3149,3169,3188,3208,3228,3248,3268,3289,3308,3328,3348,3369,3389,3409,3429,3448,3469,3489,3509,3528,3548,3569,3589,3609,3629,3649,3669,3689,3709,3728,3748,3768,3788,3808,3828,3849,3869,3888,3908,3928,3948,3968,3989,4008,4029,4049,4069,4089,4108,4129,4148,4169,4189,4208,4229,4249,4268,4288,4309,4329,4348,4368,4389,4408,4428,4448,4468,4488,4509,4528,4548,4569,4588,4608,4628,4648,4669,4689,4709,4729,4748,4768,4789,4809,4828,4848,4868,4888,4908,4928,4948,4968,4989,5008,5029,5047,5068,5088,5108,5128,5149,5168,5189,5208,5228,5249,5269,5289,5309,5328,5348,5368,5388,5408,5428,5449,5469,5489,5509,5528,5549,5568,5588,5608,5629,5648,5669,5688,5709,5728,5749,5769,5789,5808,5829,5849,5868,5888,5909,5928,5949,5968,5988,6008,6028,6048,6069,6089,6109,6128,6149,6168,6189,6208,6228,6248,6268,6288,6308,6329,6348,6369,6388,6409,6429,6448,6468,6488,6508,6528,6548,6569,6589,6608,6628,6649,6669,6689,6709,6729,6748,6768,6789,6808,6828,6849,6868,6888,6909,6929,6948,6968,6989,7009,7028,7049,7068,7088,7109,7129,7149,7168,7189,7208,7228,7248,7268,7289,7309,7329,7348,7368,7389,7409,7429,7448,7469,7489,7509,7528,7549,7569,7588,7609,7629,7649,7668,7689,7708,7729,7748,7768,7788,7808,7830,7848,7869,7888,7908,7929,7949,7968,7988,8009,8029,8048,8069,8089,8109,8128,8148,8169,8189,8208,8228,8248,8268,8288,8308,8330,8348,8369,8388,8409,8430,8449,8468,8488,8509,8530,8549,8568,8588,8609,8629,8649,8669,8688,8709,8729,8747,8769,8788,8810,8829,8849,8868,8888,8908,8929,8948,8969,8988,9009,9029,9048,9069,9089,9109,9129,9148,9168,9189,9209,9228,9248,9269,9289,9308,9329,9348,9368,9388,9409,9428,9449,9468,9488,9509,9529,9549,9568,9588,9609,9628,9648,9670,9688,9708,9728,9749,9769,9788,9809,9829,9849,9869,9889,9908,9929,9949,9968,9987,10008,10029,10048,10068,10088,10108,10128,10147,10167,10189,10208,10229,10248,10268,10288,10308,10328,10348,10367,10389,10408,10429,10447,10469,10487,10508,10529,10549,10568,10589,10609,10627,10648,10667,10687,10707,10727,10747,10767,10788,10808,10827,10848,10867,10888,10907,10929,10949,10968,10988,11009,11028,11048,11068,11088,11108,11128,11148,11167,11188,11209,11228,11248,11269,11288,11308,11328,11348,11369,11388,11409,11429,11448,11469,11488,11508,11527,11547,11567,11588,11607,11629,11648,11668,11687,11708,11727,11748,11768,11788,11809,11828,11849,11868,11887,11909,11928,11949,11968,11988,12008,12028,12047,12067,12088,12109,12128,12149,12168,12188,12208,12228,12248,12268,12289,12308,12328,12349,12368,12388,12408,12428,12447,12469,12487,12507,12528,12548,12568,12589,12608,12629,12648,12669,12689,12708,12727,12748,12769,12788,12809,12828,12847,12869,12887,12908,12927,12947,12968,12988,13009,13028,13048,13068,13088,13108,13129,13148,13169,13188,13208,13228,13247,13268,13288,13307,13328,13348,13368,13388,13408,13427,13448,13469,13488,13508,13527,13548,13568,13587,13608,13629,13648,13668,13689,13708,13727,13749,13769,13788,13807,13828,13847,13867,13889,13909,13929,13947,13967,13989,14009,14029,14048,14068,14087,14108,14127],"xSR":741.5,"ySR":501.8,"xT1":424.9,"yT1":0,"xT2":1058.1,"yT2":0,"toosoon":0,"cond_shown":"Congruent","ratio_trial":100,"L_num":1,"L_den":2,"R_num":3,"R_den":5,"correct_side":2,"subjID":"VALERIA HERREÑOO URIBE","gender":"No_gender","school":"No_school","age":"No_age"},{"start_time":1552327448362,"click_time":1552327451340,"finger_time":1552327448679,"fix_duration":701.9633496141678,"trial":4,"RT":317,"MT":2661,"sideResp":1,"stimulus":[],"xmouse":[781,781,781,781,781,781,781,781,781,781,781,781,781,782,793,835,940,970,986,992,992,1002,1009,1021,1031,1039,1043,1043,1043,1043,1043,1043,1043,1041,1036,1031,1016,1007,984,975,946,914,900,891,880,870,840,826,815,811,808,806,804,802,800,799,795,794,792,791,790,787,786,784,783,782,782,782,782,782,782,782,782,782,782,782,782,782,782,782,782,782,782,782,782,782,782,782,782,782,782,782,782,782,782,782,782,782,782,782,782,782,782,782,782,782,782,782,782,782,782,782,782,782,782,782,782,782,782,782,782,782,782,782,782,782,782,782,782,782,781,772,766,760,759,758,758,758,758,758,758,758,756,753,745,733,677,578,503],"ymouse":[532,532,532,532,532,532,532,532,532,532,532,532,532,526,516,474,362,335,321,312,312,305,301,296,292,287,285,285,285,285,285,285,285,285,285,285,292,299,316,323,342,370,384,392,402,410,429,437,445,448,451,454,456,459,462,464,472,477,481,487,490,499,503,507,510,512,515,516,516,516,516,516,516,516,516,516,516,516,516,516,516,516,516,516,516,516,516,516,516,516,516,516,516,516,516,516,516,516,516,516,516,516,516,516,516,516,516,516,516,516,516,516,516,516,516,516,516,516,516,516,516,516,516,516,516,516,516,516,516,516,516,494,479,466,462,461,461,461,461,461,461,455,446,432,410,381,286,157,78],"timestamp_mouse":[16,37,57,76,97,117,136,157,177,197,218,236,258,278,296,316,337,357,378,397,416,436,458,478,497,518,537,558,577,597,616,637,656,676,697,718,737,756,777,797,818,836,856,878,897,916,937,956,977,997,1018,1037,1056,1076,1097,1117,1137,1157,1177,1198,1218,1237,1257,1277,1296,1317,1336,1358,1377,1397,1416,1437,1457,1478,1497,1517,1536,1557,1577,1597,1617,1636,1656,1677,1698,1718,1736,1757,1778,1797,1817,1836,1856,1877,1898,1917,1936,1956,1978,1997,2017,2036,2056,2078,2097,2118,2138,2158,2176,2197,2218,2238,2257,2277,2297,2316,2336,2357,2377,2398,2417,2436,2458,2478,2498,2517,2538,2557,2577,2596,2617,2636,2658,2676,2697,2717,2737,2756,2776,2797,2818,2837,2856,2877,2896,2917,2938,2956,2977],"xSR":741.5,"ySR":501.8,"xT1":424.9,"yT1":0,"xT2":1058.1,"yT2":0,"toosoon":0,"cond_shown":"Incongruent","ratio_trial":200,"L_num":3,"L_den":4,"R_num":11,"R_den":20,"correct_side":1,"subjID":"VALERIA HERREÑOO URIBE","gender":"No_gender","school":"No_school","age":"No_age"},{"start_time":1552327454899,"click_time":1552327466178,"finger_time":1552327455118,"fix_duration":1019.3030436683197,"trial":5,"RT":219,"MT":11060,"sideResp":1,"stimulus":[],"xmouse":[775,775,775,775,775,775,775,782,788,801,820,856,870,882,891,896,903,903,903,903,902,901,901,901,901,901,900,896,883,856,835,820,819,818,817,814,803,798,794,790,785,783,783,783,783,783,783,782,782,782,782,782,782,782,782,780,779,777,776,775,774,773,773,772,771,771,771,771,771,771,771,771,771,773,773,774,777,779,780,780,780,780,780,780,781,781,782,782,782,782,782,782,782,782,782,782,782,782,782,782,782,782,782,783,783,783,783,783,784,784,785,786,787,787,787,787,787,787,787,787,788,788,789,790,790,791,792,793,794,794,796,798,798,799,800,800,800,800,800,800,800,796,788,782,778,776,776,777,784,788,790,791,791,792,793,794,795,803,828,838,871,910,925,936,946,953,965,970,975,975,975,975,975,975,975,972,958,950,917,908,883,862,856,844,831,813,791,771,769,769,769,769,766,745,706,667,645,642,642,642,642,641,641,641,641,648,673,765,812,861,880,890,890,890,890,890,885,884,883,881,880,878,878,878,878,878,878,878,878,878,878,878,878,878,878,878,878,878,878,878,878,878,878,878,878,878,878,878,878,878,878,878,878,878,878,878,878,878,878,878,878,878,878,878,878,878,878,797,797,797,797,797,797,797,797,797,797,797,797,797,797,797,794,793,793,793,793,793,793,793,793,793,793,793,793,793,793,793,792,791,791,790,790,790,790,789,788,784,781,774,765,742,732,723,719,718,718,718,719,721,722,725,727,730,731,735,744,748,750,753,755,760,762,764,767,769,771,776,777,778,778,778,778,778,778,778,778,778,778,778,778,778,778,778,778,778,778,777,776,775,774,773,773,773,773,773,772,771,770,770,769,764,757,749,735,717,663,570,419,320,238,171,171,171,171,172,178,185,192,192,192,192,192,192,192,192,192,192,192,192,192,192,192,192,192,192,192,192,192,192,192,192,192,192,192,192,192,192,192,192,192,192,192,192,192,192,192,192,192,192,192,192,192,192,192,192,192,192,192,192,192,192,192,192,192,192,192,192,192,192,192,192,192,192,192,192,192,192,192,192,192,192,192,192,192,192,192,192,192,192,192,192,192,192,192,192,192,192,192,192,192,192,192,192,192,192,192,192,192,192,192,192,192,192,192,192,192,192,192,192,192,192,192,192,192,192,192,192,192,192,192,192,192,192,192,192,192,192,192,192,192,192,419,462],"ymouse":[527,527,527,527,527,527,527,525,523,517,507,478,463,445,429,416,386,371,357,347,336,328,326,326,326,326,325,350,389,450,480,499,501,502,502,502,502,502,502,502,500,499,499,499,499,499,499,499,499,499,499,499,499,499,499,499,502,504,505,507,511,516,518,522,525,529,532,533,534,535,535,536,537,538,539,539,542,544,545,545,545,545,545,545,545,545,545,545,545,545,545,545,545,545,545,545,545,545,545,545,545,545,545,545,545,545,545,545,545,545,544,543,543,543,543,543,543,543,542,542,542,542,541,541,540,539,539,538,537,536,531,527,525,524,522,521,519,519,519,518,518,518,518,518,520,523,538,545,551,555,555,555,555,555,555,554,554,552,544,539,519,486,468,451,432,410,339,277,233,196,188,185,183,183,183,183,189,197,214,219,234,248,261,325,399,485,566,640,648,648,648,648,642,609,564,537,528,526,526,526,526,526,526,526,526,526,526,511,496,484,478,476,476,476,476,476,488,491,493,495,497,500,500,501,501,501,501,501,501,501,501,501,501,501,501,501,501,501,501,501,501,501,501,501,501,501,501,501,501,501,501,501,501,501,501,501,501,501,501,501,501,501,501,501,501,501,501,526,526,526,526,526,526,526,526,526,526,526,526,526,526,526,525,524,523,523,523,523,523,523,523,523,523,523,523,523,520,512,503,500,498,497,497,497,497,496,496,497,498,503,507,520,530,541,550,556,559,564,566,567,569,571,573,574,575,577,580,580,581,581,582,584,585,585,586,587,587,589,589,589,589,589,589,589,589,589,589,589,589,589,589,589,589,589,589,589,589,589,589,589,589,590,590,590,590,590,590,587,584,580,574,559,545,529,509,482,416,321,203,138,82,41,41,40,40,38,28,19,4,4,4,4,4,4,4,4,4,4,4,4,4,4,4,4,4,4,4,4,4,4,4,4,4,4,4,4,4,4,4,4,4,4,4,4,4,4,4,4,4,4,4,4,4,4,4,4,4,4,4,4,4,4,4,4,4,4,4,4,4,4,4,4,4,4,4,4,4,4,4,4,4,4,4,4,4,4,4,4,4,4,4,4,4,4,4,4,4,4,4,4,4,4,4,4,4,4,4,4,4,4,4,4,4,4,4,4,4,4,4,4,4,4,4,4,4,4,4,4,4,4,4,4,4,4,4,4,4,4,4,4,4,4,13,57],"timestamp_mouse":[1,20,39,61,81,100,120,140,161,180,199,219,240,260,280,300,319,341,361,380,400,420,439,459,480,500,520,540,561,579,599,619,640,660,679,700,720,741,759,780,801,819,840,861,880,899,919,940,960,980,999,1020,1040,1060,1080,1100,1120,1139,1160,1179,1200,1221,1239,1260,1280,1300,1320,1340,1360,1379,1401,1420,1440,1460,1480,1499,1519,1541,1559,1579,1599,1621,1639,1660,1681,1701,1719,1740,1759,1779,1800,1821,1841,1860,1880,1900,1919,1940,1961,1981,1999,2020,2039,2061,2081,2099,2119,2140,2161,2180,2201,2219,2240,2261,2279,2301,2321,2340,2359,2380,2400,2420,2439,2460,2480,2501,2520,2541,2559,2579,2601,2619,2640,2660,2680,2699,2720,2741,2759,2780,2801,2819,2841,2860,2881,2899,2921,2940,2960,2981,3000,3020,3039,3060,3079,3100,3120,3140,3160,3180,3199,3220,3240,3260,3280,3300,3320,3340,3359,3379,3400,3420,3440,3460,3481,3500,3520,3540,3560,3580,3600,3620,3641,3661,3680,3701,3720,3740,3761,3780,3800,3820,3840,3860,3880,3900,3919,3940,3960,3979,3999,4020,4041,4061,4080,4100,4119,4140,4159,4180,4200,4220,4239,4261,4280,4299,4321,4339,4360,4381,4401,4421,4441,4460,4480,4500,4520,4540,4560,4580,4600,4620,4641,4660,4679,4700,4720,4740,4760,4780,4800,4820,4840,4859,4879,4900,4921,4940,4960,4979,5000,5020,5040,5060,5079,5100,5119,5140,5165,5179,5200,5220,5240,5260,5280,5301,5320,5340,5361,5381,5400,5420,5440,5460,5480,5501,5519,5540,5561,5580,5599,5620,5641,5659,5679,5700,5720,5740,5760,5781,5799,5820,5840,5859,5881,5899,5920,5940,5959,5981,6001,6020,6040,6060,6080,6099,6121,6140,6160,6180,6201,6220,6241,6261,6280,6301,6319,6339,6359,6380,6400,6421,6439,6461,6480,6501,6521,6540,6559,6580,6600,6619,6640,6660,6679,6699,6721,6740,6760,6779,6800,6820,6840,6859,6880,6901,6919,6940,6959,6979,7001,7020,7040,7059,7080,7099,7120,7141,7161,7180,7200,7220,7240,7259,7279,7301,7320,7341,7361,7381,7399,7421,7441,7459,7479,7500,7521,7540,7561,7581,7600,7621,7640,7660,7680,7699,7722,7740,7759,7779,7800,7821,7839,7860,7880,7899,7921,7941,7961,7980,7999,8019,8039,8059,8080,8100,8120,8140,8159,8179,8199,8221,8240,8260,8279,8299,8321,8341,8359,8379,8399,8420,8440,8460,8481,8501,8520,8540,8559,8579,8600,8621,8640,8661,8680,8700,8719,8740,8760,8780,8800,8821,8841,8861,8881,8901,8921,8941,8961,8981,9001,9020,9040,9061,9079,9099,9119,9141,9160,9180,9200,9220,9239,9260,9280,9300,9319,9339,9361,9380,9400,9420,9441,9460,9480,9500,9520,9540,9561,9580,9601,9620,9640,9660,9680,9699,9722,9739,9759,9780,9799,9821,9839,9860,9881,9901,9920,9940,9960,9979,10001,10021,10040,10061,10081,10101,10942,10960,10980,11000,11019,11040,11059,11079,11100,11119,11139,11160,11180,11199,11220,11240,11260,11279],"xSR":741.5,"ySR":501.8,"xT1":424.9,"yT1":0,"xT2":1058.1,"yT2":0,"toosoon":0,"cond_shown":"Incongruent","ratio_trial":200,"L_num":7,"L_den":10,"R_num":12,"R_den":24,"correct_side":1,"subjID":"VALERIA HERREÑOO URIBE","gender":"No_gender","school":"No_school","age":"No_age"},{"start_time":1552327467210,"click_time":1552327475938,"finger_time":1552327467580,"fix_duration":250,"trial":6,"RT":370,"MT":8358,"sideResp":1,"stimulus":[],"xmouse":[765,765,765,765,765,765,765,765,765,765,765,765,765,765,765,767,769,791,820,830,854,867,884,890,890,891,888,880,873,827,800,750,743,741,741,741,738,737,737,737,737,737,737,737,735,733,728,702,679,667,663,659,657,657,657,657,665,686,709,729,748,769,776,786,796,802,804,808,810,810,810,810,808,805,803,802,802,802,802,802,802,802,800,799,796,793,792,790,789,789,789,789,789,789,789,788,788,788,788,788,788,788,788,788,788,788,788,788,788,788,788,788,788,788,788,788,788,788,788,788,788,788,788,788,788,788,788,788,788,788,788,788,788,788,788,792,801,782,775,774,774,776,780,784,790,798,811,825,825,825,825,825,825,826,827,830,832,832,832,831,826,818,796,796,796,796,796,796,796,796,796,796,796,796,796,796,796,796,796,796,796,796,796,796,796,796,796,796,796,796,796,796,796,796,796,796,796,796,796,796,796,796,796,796,796,796,796,796,796,796,796,796,796,796,796,796,796,796,796,796,796,796,796,796,796,796,796,796,796,796,796,796,796,796,796,796,796,796,796,796,796,796,796,796,796,796,796,796,796,796,796,796,796,796,796,796,796,796,796,796,796,796,796,796,796,796,796,796,796,796,796,796,796,796,796,796,796,796,796,796,796,796,796,796,796,796,796,796,796,796,796,796,796,796,796,796,796,796,796,796,796,796,796,796,796,796,796,796,796,796,796,452],"ymouse":[541,541,541,541,541,541,541,541,541,541,541,541,541,541,541,541,541,521,483,469,426,402,367,358,354,352,345,341,340,328,323,317,317,316,316,316,316,316,316,316,316,316,316,316,316,317,320,331,345,353,357,363,369,377,385,396,430,486,520,538,547,550,550,551,551,551,551,548,543,542,538,531,527,523,520,519,519,519,519,519,519,519,519,519,519,520,521,523,523,524,524,525,527,529,530,532,534,535,535,535,535,535,535,535,535,535,535,535,535,535,535,535,535,535,535,535,535,535,535,535,535,535,535,535,535,535,535,535,534,529,523,517,497,482,463,445,366,271,235,210,192,181,170,166,164,164,162,159,159,159,159,159,159,159,155,145,135,105,88,70,55,39,6,6,6,6,6,6,6,6,6,6,6,6,6,6,6,6,6,6,6,6,6,6,6,6,6,6,6,6,6,6,6,6,6,6,6,6,6,6,6,6,6,6,6,6,6,6,6,6,6,6,6,6,6,6,6,6,6,6,6,6,6,6,6,6,6,6,6,6,6,6,6,6,6,6,6,6,6,6,6,6,6,6,6,6,6,6,6,6,6,6,6,6,6,6,6,6,6,6,6,6,6,6,6,6,6,6,6,6,6,6,6,6,6,6,6,6,6,6,6,6,6,6,6,6,6,6,6,6,6,6,6,6,6,6,6,6,6,6,6,6,6,6,6,6,6,6,6,6,6,28],"timestamp_mouse":[10,34,48,68,89,108,128,148,168,189,209,228,249,269,288,309,329,350,370,388,408,429,450,469,489,510,529,548,569,589,609,629,649,670,690,709,730,748,770,789,808,828,848,869,890,910,929,950,969,988,1009,1029,1048,1069,1088,1110,1129,1150,1169,1188,1209,1228,1249,1268,1289,1310,1329,1348,1368,1389,1409,1429,1450,1469,1488,1508,1530,1548,1568,1589,1610,1628,1648,1670,1689,1709,1728,1749,1769,1788,1808,1830,1849,1869,1888,1909,1929,1949,1970,1989,2009,2029,2048,2070,2088,2109,2130,2148,2168,2189,2210,2230,2249,2269,2288,2308,2330,2349,2369,2389,2408,2428,2449,2468,2488,2508,2528,2549,2569,2589,2610,2629,2650,2668,2689,2709,2730,2748,2769,2788,2808,2830,2848,2868,2889,2909,2929,2948,2968,2989,3010,3030,3049,3070,3088,3108,3128,3148,3170,3190,3210,3230,3250,3269,3290,3310,3330,3350,3370,3389,3409,3428,3448,3469,3489,3508,3530,3548,3569,3590,3609,3630,3648,3670,3690,3709,3730,3750,3770,3788,3808,3829,3850,3868,3889,3910,3930,3950,3970,3989,4010,4029,4050,4070,4090,4110,4128,4149,4170,4190,4209,4229,4250,4270,4289,4310,4330,4349,4369,4388,4408,4430,4449,4468,4489,4509,4530,4549,4767,4769,5768,5768,6485,6488,6509,6528,6549,6568,6589,6608,6630,6648,6669,6690,6709,6729,6750,6769,6790,6809,6829,6850,6869,6889,6909,6929,6948,6969,6989,7009,7028,7048,7070,7089,7108,7128,7148,7169,7189,7209,7230,7768,7961,7968,7988,8009,8028,8048,8069,8089,8108,8129,8148,8168,8189,8210,8228,8249,8269,8289,8308,8329,8349,8369,8388,8409,8430,8449,8469,8489,8509,8529,8550,8569,8590,8609,8629,8648,8669,8689,8708,8728],"xSR":741.5,"ySR":501.8,"xT1":424.9,"yT1":0,"xT2":1058.1,"yT2":0,"toosoon":0,"cond_shown":"Congruent","ratio_trial":100,"L_num":8,"L_den":16,"R_num":2,"R_den":5,"correct_side":1,"subjID":"VALERIA HERREÑOO URIBE","gender":"No_gender","school":"No_school","age":"No_age"},{"start_time":1552327482494,"click_time":1552327487881,"finger_time":1552327482780,"fix_duration":1033.832772429776,"trial":7,"RT":286,"MT":5101,"sideResp":1,"stimulus":[],"xmouse":[770,770,770,770,770,770,770,770,770,770,770,767,764,757,741,728,705,668,635,563,542,531,530,530,530,530,530,530,530,530,530,530,530,530,529,530,544,620,721,913,959,972,973,973,972,970,968,960,955,938,921,904,882,858,827,821,818,818,819,827,832,838,843,847,850,850,848,846,839,825,816,804,794,786,769,761,740,730,719,718,718,718,718,718,718,719,719,721,721,729,738,748,753,755,755,755,755,755,755,755,755,755,755,755,755,755,755,755,755,756,756,756,756,756,756,756,756,756,756,756,756,756,756,756,755,753,753,752,751,750,749,749,749,749,749,749,749,749,749,749,749,749,749,750,755,761,764,766,767,767,767,767,767,768,768,768,768,768,768,768,768,768,769,769,769,769,769,770,770,770,770,770,770,770,770,770,770,770,770,770,770,770,770,770,770,770,770,769,769,769,769,768,767,767,765,765,764,764,764,764,764,764,764,764,764,764,764,764,764,766,766,766,766,766,766,766,766,767,767,767,767,767,767,767,767,767,767,768,768,768,768,768,768,768,768,768,768,768,768,768,768,768,768,769,769,770,767,756,746,739,730,728,728,724,694,672,653,633,618,600,596,593,584,577,567,546,538,531,520,486],"ymouse":[548,548,548,548,548,548,548,548,548,548,548,537,529,507,452,410,357,267,206,102,72,58,57,57,57,57,57,57,57,57,57,57,57,57,57,64,78,130,187,272,291,298,300,300,303,306,311,324,331,351,366,377,390,400,416,421,423,425,429,438,447,455,467,484,514,516,518,519,522,528,529,532,533,534,536,536,535,533,531,531,530,530,530,529,526,525,524,522,521,521,519,518,517,516,516,516,516,516,516,516,516,516,516,516,516,516,516,516,516,515,515,515,515,515,515,515,514,514,514,514,514,514,514,513,513,511,511,510,510,510,510,510,510,510,510,510,510,510,510,510,510,510,510,510,512,512,513,513,513,513,513,513,513,513,513,513,513,513,513,512,511,510,509,508,507,507,506,505,505,505,505,505,505,505,505,505,505,505,505,505,505,505,505,505,505,504,504,502,501,500,500,498,497,495,492,491,489,489,488,488,487,486,486,486,486,486,486,486,486,487,487,487,487,487,487,487,487,488,488,488,488,488,488,488,488,488,488,488,488,489,489,489,489,489,489,489,489,490,490,490,490,490,490,490,490,490,487,480,470,462,446,440,434,423,345,305,283,265,254,240,236,233,224,216,206,182,172,161,145,89],"timestamp_mouse":[21,30,45,65,85,105,125,146,165,184,206,226,245,265,285,305,326,345,366,385,405,424,445,466,486,505,525,544,564,584,605,625,646,665,685,706,725,745,765,785,805,824,845,866,885,905,924,945,965,984,1005,1025,1045,1066,1085,1104,1126,1144,1166,1185,1206,1225,1246,1265,1285,1306,1325,1345,1365,1385,1405,1425,1444,1464,1484,1504,1525,1545,1565,1585,1606,1624,1644,1664,1686,1704,1726,1746,1765,1785,1806,1826,1845,1866,1886,1904,1925,1945,1964,1984,2005,2025,2044,2064,2084,2105,2125,2145,2164,2186,2205,2226,2245,2265,2284,2306,2326,2344,2364,2386,2405,2425,2445,2466,2485,2504,2526,2545,2564,2586,2606,2625,2644,2665,2685,2706,2726,2744,2764,2785,2805,2825,2846,2866,2886,2906,2925,2946,2966,2984,3005,3026,3044,3065,3085,3106,3125,3145,3165,3185,3206,3226,3246,3265,3285,3304,3326,3346,3366,3384,3404,3425,3445,3465,3484,3506,3525,3546,3566,3585,3604,3626,3644,3664,3685,3705,3724,3746,3765,3785,3804,3826,3846,3865,3886,3904,3925,3945,3964,3985,4005,4024,4046,4065,4086,4105,4126,4144,4164,4185,4204,4226,4245,4266,4285,4306,4326,4346,4365,4385,4404,4424,4445,4464,4485,4505,4525,4546,4565,4584,4605,4625,4644,4665,4686,4705,4725,4744,4764,4785,4806,4825,4845,4866,4885,4904,4925,4945,4965,4986,5004,5026,5046,5066,5086,5104,5124,5145,5165,5186,5205,5226,5245,5266,5284,5304,5325,5345,5365,5387],"xSR":741.5,"ySR":501.8,"xT1":424.9,"yT1":0,"xT2":1058.1,"yT2":0,"toosoon":0,"cond_shown":"Congruent","ratio_trial":100,"L_num":10,"L_den":25,"R_num":3,"R_den":10,"correct_side":1,"subjID":"VALERIA HERREÑOO URIBE","gender":"No_gender","school":"No_school","age":"No_age"},{"start_time":1552327508600,"click_time":1552327509419,"finger_time":1552327509038,"fix_duration":1261.034865022831,"trial":8,"RT":438,"MT":381,"sideResp":1,"stimulus":[],"xmouse":[771,771,771,771,771,771,771,771,771,771,771,771,771,771,771,771,771,771,771,772,772,722,689,658,632,617,599,592,587,583,579,577,577,577,577,577,567,556,548,541,521],"ymouse":[550,550,550,550,550,550,550,550,550,550,550,550,550,550,550,550,550,550,547,539,502,381,323,274,229,187,118,98,84,74,60,54,54,54,54,54,54,54,54,54,54],"timestamp_mouse":[18,39,58,78,98,118,139,157,178,199,219,239,257,278,299,317,339,357,378,398,418,438,457,478,498,518,537,558,578,598,618,638,658,679,699,718,738,758,779,798,819],"xSR":741.5,"ySR":501.8,"xT1":424.9,"yT1":0,"xT2":1058.1,"yT2":0,"toosoon":0,"cond_shown":"Incongruent","ratio_trial":200,"L_num":7,"L_den":10,"R_num":12,"R_den":24,"correct_side":1,"subjID":"VALERIA HERREÑOO URIBE","gender":"No_gender","school":"No_school","age":"No_age"},{"start_time":1552327511968,"click_time":1552327512917,"finger_time":1552327512419,"fix_duration":1407.3571428665944,"trial":9,"RT":451,"MT":498,"sideResp":2,"stimulus":[],"x