[{"start_time":1552328210733,"click_time":1552328212456,"finger_time":1552328210742,"fix_duration":1452.4327679940886,"trial":0,"RT":9,"MT":1714,"sideResp":1,"stimulus":"img/750/equaldotsize/L/6_Ratio_750_L_24_R_18.png","xmouse":[766,766,766,766,766,766,766,766,766,766,766,766,766,766,766,766,766,766,766,766,766,766,766,766,766,766,766,766,766,766,766,766,766,766,766,766,766,766,766,766,766,766,766,766,766,766,766,765,755,749,749,749,749,749,749,749,749,749,749,749,749,749,749,749,749,747,747,718,653,616,600,594,593,591,584,564,516,496,488,486,485,485,484,479,478,477,481],"ymouse":[496,496,496,496,496,496,496,496,496,496,496,496,496,496,496,496,496,496,496,496,496,496,496,496,496,496,496,496,496,496,496,496,496,496,496,496,496,496,496,496,496,496,496,496,496,496,496,496,496,495,495,495,495,495,495,495,495,495,495,495,495,495,495,495,495,493,493,465,434,419,408,401,396,388,368,335,274,245,228,215,204,176,157,135,119,107,90],"timestamp_mouse":[9,23,42,63,83,103,123,144,164,182,203,224,243,263,283,303,322,343,362,384,403,423,443,463,483,503,522,544,563,583,602,624,644,663,683,703,723,743,763,783,803,824,843,863,883,903,923,942,962,982,1003,1022,1043,1063,1083,1103,1123,1143,1162,1183,1203,1222,1243,1263,1283,1302,1322,1342,1363,1383,1403,1423,1442,1463,1482,1502,1523,1542,1563,1583,1604,1623,1643,1664,1683,1704,1722],"xSR":741.5,"ySR":469.95,"xT1":424.9,"yT1":0,"xT2":1058.1,"yT2":0,"toosoon":0,"cond_shown":"equaldotsize","ratio_trial":750,"smaller_num":"18","larger_num":"24","correct_side":1,"subjID":"vALERIAHerreño18","gender":"1","age":"9","school":"4","test":{"fix_dur":[250,1500],"timestim":300,"targets_dim":[100,100],"targets_relative_coord":[0.3,0.7],"size_stim":[880,420],"start_dim":[100,100],"size_start":[300,300],"size_fix":60,"samplingrate":20,"img_types":["equaldotsize","equaldotanddens","randomdotsizeEA"],"ratios":[250,500,750,900],"rep_conds":9,"nTrials":120,"trials_to_rest":500,"Trials_order":[42,22,59,55,40,45,76,70,31,56,16,63,10,50,93,100,60,39,61,84,115,53,46,90,48,62,71,8,49,94,68,83,79,43,118,17,82,14,77,116,2,108,87,3,30,24,11,88,103,75,78,112,66,20,7,119,72,6,18,47,9,92,85,104,110,41,105,51,107,91,80,33,117,44,34,64,111,74,67,54,98,52,57,15,102,89,69,12,101,26,38,19,73,36,86,99,27,5,96,0,4,113,58,13,106,109,29,35,21,1,65,37,28,114,25,95,97,23,32,81],"cond_shown":["equaldotsize","equaldotanddens","randomdotsizeEA","equaldotanddens","equaldotanddens","equaldotsize","equaldotanddens","equaldotanddens","equaldotanddens","randomdotsizeEA","equaldotanddens","equaldotsize","equaldotanddens","randomdotsizeEA","equaldotsize","equaldotanddens","equaldotsize","equaldotsize","equaldotanddens","equaldotsize","equaldotanddens","randomdotsizeEA","equaldotanddens","equaldotsize","equaldotsize","randomdotsizeEA","randomdotsizeEA","randomdotsizeEA","equaldotanddens","equaldotanddens","randomdotsizeEA","randomdotsizeEA","equaldotanddens","equaldotanddens","equaldotanddens","randomdotsizeEA","equaldotanddens","randomdotsizeEA","randomdotsizeEA","randomdotsizeEA","randomdotsizeEA","equaldotsize","equaldotsize","equaldotsize","equaldotsize","equaldotsize","randomdotsizeEA","equaldotanddens","equaldotanddens","equaldotsize","equaldotsize","equaldotanddens","equaldotsize","randomdotsizeEA","equaldotanddens","randomdotsizeEA","equaldotsize","equaldotsize","equaldotsize","randomdotsizeEA","equaldotsize","randomdotsizeEA","equaldotanddens","randomdotsizeEA","randomdotsizeEA","randomdotsizeEA","equaldotsize","equaldotsize","randomdotsizeEA","equaldotanddens","randomdotsizeEA","equaldotsize","equaldotsize","randomdotsizeEA","equaldotanddens","equaldotanddens","equaldotsize","randomdotsizeEA","equaldotanddens","equaldotsize","randomdotsizeEA","equaldotanddens","equaldotsize","equaldotsize","equaldotsize","randomdotsizeEA","equaldotsize","equaldotsize","randomdotsizeEA","randomdotsizeEA","randomdotsizeEA","equaldotanddens","equaldotanddens","equaldotsize","randomdotsizeEA","equaldotsize","equaldotsize","randomdotsizeEA","equaldotsize","equaldotsize","equaldotanddens","randomdotsizeEA","equaldotanddens","equaldotanddens","equaldotanddens","equaldotanddens","randomdotsizeEA","randomdotsizeEA","equaldotsize","equaldotanddens","randomdotsizeEA","equaldotanddens","equaldotanddens","equaldotsize","equaldotanddens","randomdotsizeEA","equaldotanddens","randomdotsizeEA","randomdotsizeEA","equaldotsize"],"ratio_trial":[750,900,900,750,500,900,500,900,750,750,500,500,900,250,900,500,250,500,250,250,750,500,900,750,250,250,900,750,250,900,750,900,750,750,900,500,900,250,500,750,250,250,500,500,750,250,900,500,750,500,750,500,750,750,750,900,250,750,750,900,900,750,250,750,250,500,900,500,900,750,750,900,900,750,900,500,500,250,750,750,250,500,900,500,750,500,900,250,500,250,250,750,250,250,250,500,500,500,250,250,500,500,900,250,900,250,500,900,900,250,500,250,500,750,250,900,250,900,750,900],"smaller_num":["18","9","18","15","9","9","9","9","15","15","1","3","18","3","18","9","2","1","3","2","3","2","18","6","2","6","18","3","3","9","9","18","3","3","9","6","9","3","2","18","2","2","2","2","15","3","18","10","6","9","9","2","9","15","3","18","2","15","3","9","9","12","3","3","3","2","18","4","9","15","6","18","9","3","9","6","6","3","3","3","2","6","18","5","15","5","18","6","9","1","3","3","2","6","6","6","9","2","6","4","2","5","9","3","9","3","5","9","18","4","3","3","9","3","3","18","2","9","15","18"],"larger_num":["24","10","20","20","18","10","18","10","20","20","2","6","20","12","20","18","8","2","12","8","4","4","20","8","8","24","20","4","12","10","12","20","4","4","10","12","10","12","4","24","8","8","4","4","20","12","20","20","8","18","12","4","12","20","4","20","8","20","4","10","10","16","12","4","12","4","20","8","10","20","8","20","10","4","10","12","12","12","4","4","8","12","20","10","20","10","20","24","18","4","12","4","8","24","24","12","18","4","24","16","4","10","10","12","10","12","10","10","20","16","6","12","18","4","12","20","8","10","20","20"],"correct_side":[1,1,1,1,1,2,1,2,1,2,2,2,2,2,1,2,2,2,2,1,2,2,2,2,1,1,2,2,2,2,2,1,1,1,2,1,2,2,2,1,2,2,1,1,2,2,2,2,1,2,2,2,2,2,1,2,1,1,2,2,2,2,2,1,1,2,2,1,1,1,2,1,2,1,2,1,1,2,2,2,2,1,1,2,2,1,1,2,1,2,1,1,1,2,1,1,2,1,1,1,2,1,2,2,2,2,2,2,2,2,2,2,2,2,1,1,1,1,1,1],"img_shown":["img/750/equaldotsize/L/6_Ratio_750_L_24_R_18.png","img/900/equaldotanddens/L/1_Ratio_900_L_10_R_9.png","img/900/randomdotsizeEA/L/4_Ratio_900_L_20_R_18.png","img/750/equaldotanddens/L/1_Ratio_750_L_20_R_15.png","img/500/equaldotanddens/L/4_Ratio_500_L_18_R_9.png","img/900/equaldotsize/R/15_Ratio_900_L_9_R_10.png","img/500/equaldotanddens/L/4_Ratio_500_L_18_R_9.png","img/900/equaldotanddens/R/15_Ratio_900_L_9_R_10.png","img/750/equaldotanddens/L/1_Ratio_750_L_20_R_15.png","img/750/randomdotsizeEA/R/4_Ratio_750_L_15_R_20.png","img/500/equaldotanddens/R/15_Ratio_500_L_1_R_2.png","img/500/equaldotsize/R/2_Ratio_500_L_3_R_6.png","img/900/equaldotanddens/R/11_Ratio_900_L_18_R_20.png","img/250/randomdotsizeEA/R/11_Ratio_250_L_3_R_12.png","img/900/equaldotsize/L/2_Ratio_900_L_20_R_18.png","img/500/equaldotanddens/R/6_Ratio_500_L_9_R_18.png","img/250/equaldotsize/R/13_Ratio_250_L_2_R_8.png","img/500/equaldotsize/R/15_Ratio_500_L_1_R_2.png","img/250/equaldotanddens/R/11_Ratio_250_L_3_R_12.png","img/250/equaldotsize/L/7_Ratio_250_L_8_R_2.png","img/750/equaldotanddens/R/7_Ratio_750_L_3_R_4.png","img/500/randomdotsizeEA/R/9_Ratio_500_L_2_R_4.png","img/900/equaldotanddens/R/12_Ratio_900_L_18_R_20.png","img/750/equaldotsize/R/2_Ratio_750_L_6_R_8.png","img/250/equaldotsize/L/1_Ratio_250_L_8_R_2.png","img/250/randomdotsizeEA/L/5_Ratio_250_L_24_R_6.png","img/900/randomdotsizeEA/R/12_Ratio_900_L_18_R_20.png","img/750/randomdotsizeEA/R/7_Ratio_750_L_3_R_4.png","img/250/equaldotanddens/R/11_Ratio_250_L_3_R_12.png","img/900/equaldotanddens/R/7_Ratio_900_L_9_R_10.png","img/750/randomdotsizeEA/R/15_Ratio_750_L_9_R_12.png","img/900/randomdotsizeEA/L/2_Ratio_900_L_20_R_18.png","img/750/equaldotanddens/L/8_Ratio_750_L_4_R_3.png","img/750/equaldotanddens/L/8_Ratio_750_L_4_R_3.png","img/900/equaldotanddens/R/15_Ratio_900_L_9_R_10.png","img/500/randomdotsizeEA/L/11_Ratio_500_L_12_R_6.png","img/900/equaldotanddens/R/15_Ratio_900_L_9_R_10.png","img/250/randomdotsizeEA/R/4_Ratio_250_L_3_R_12.png","img/500/randomdotsizeEA/R/9_Ratio_500_L_2_R_4.png","img/750/randomdotsizeEA/L/6_Ratio_750_L_24_R_18.png","img/250/randomdotsizeEA/R/13_Ratio_250_L_2_R_8.png","img/250/equaldotsize/R/13_Ratio_250_L_2_R_8.png","img/500/equaldotsize/L/5_Ratio_500_L_4_R_2.png","img/500/equaldotsize/L/10_Ratio_500_L_4_R_2.png","img/750/equaldotsize/R/4_Ratio_750_L_15_R_20.png","img/250/equaldotsize/R/9_Ratio_250_L_3_R_12.png","img/900/randomdotsizeEA/R/11_Ratio_900_L_18_R_20.png","img/500/equaldotanddens/R/3_Ratio_500_L_10_R_20.png","img/750/equaldotanddens/L/14_Ratio_750_L_8_R_6.png","img/500/equaldotsize/R/6_Ratio_500_L_9_R_18.png","img/750/equaldotsize/R/15_Ratio_750_L_9_R_12.png","img/500/equaldotanddens/R/9_Ratio_500_L_2_R_4.png","img/750/equaldotsize/R/15_Ratio_750_L_9_R_12.png","img/750/randomdotsizeEA/R/4_Ratio_750_L_15_R_20.png","img/750/equaldotanddens/L/9_Ratio_750_L_4_R_3.png","img/900/randomdotsizeEA/R/13_Ratio_900_L_18_R_20.png","img/250/equaldotsize/L/3_Ratio_250_L_8_R_2.png","img/750/equaldotsize/L/1_Ratio_750_L_20_R_15.png","img/750/equaldotsize/R/12_Ratio_750_L_3_R_4.png","img/900/randomdotsizeEA/R/15_Ratio_900_L_9_R_10.png","img/900/equaldotsize/R/6_Ratio_900_L_9_R_10.png","img/750/randomdotsizeEA/R/11_Ratio_750_L_12_R_16.png","img/250/equaldotanddens/R/4_Ratio_250_L_3_R_12.png","img/750/randomdotsizeEA/L/8_Ratio_750_L_4_R_3.png","img/250/randomdotsizeEA/L/14_Ratio_250_L_12_R_3.png","img/500/randomdotsizeEA/R/9_Ratio_500_L_2_R_4.png","img/900/equaldotsize/R/13_Ratio_900_L_18_R_20.png","img/500/equaldotsize/L/8_Ratio_500_L_8_R_4.png","img/900/randomdotsizeEA/L/1_Ratio_900_L_10_R_9.png","img/750/equaldotanddens/L/1_Ratio_750_L_20_R_15.png","img/750/randomdotsizeEA/R/2_Ratio_750_L_6_R_8.png","img/900/equaldotsize/L/8_Ratio_900_L_20_R_18.png","img/900/equaldotsize/R/3_Ratio_900_L_9_R_10.png","img/750/randomdotsizeEA/L/8_Ratio_750_L_4_R_3.png","img/900/equaldotanddens/R/7_Ratio_900_L_9_R_10.png","img/500/equaldotanddens/L/13_Ratio_500_L_12_R_6.png","img/500/equaldotsize/L/13_Ratio_500_L_12_R_6.png","img/250/randomdotsizeEA/R/11_Ratio_250_L_3_R_12.png","img/750/equaldotanddens/R/12_Ratio_750_L_3_R_4.png","img/750/equaldotsize/R/12_Ratio_750_L_3_R_4.png","img/250/randomdotsizeEA/R/13_Ratio_250_L_2_R_8.png","img/500/equaldotanddens/L/13_Ratio_500_L_12_R_6.png","img/900/equaldotsize/L/10_Ratio_900_L_20_R_18.png","img/500/equaldotsize/R/14_Ratio_500_L_5_R_10.png","img/750/equaldotsize/R/3_Ratio_750_L_15_R_20.png","img/500/randomdotsizeEA/L/7_Ratio_500_L_10_R_5.png","img/900/equaldotsize/L/4_Ratio_900_L_20_R_18.png","img/250/equaldotsize/R/6_Ratio_250_L_6_R_24.png","img/500/randomdotsizeEA/L/4_Ratio_500_L_18_R_9.png","img/250/randomdotsizeEA/R/8_Ratio_250_L_1_R_4.png","img/250/randomdotsizeEA/L/15_Ratio_250_L_12_R_3.png","img/750/equaldotanddens/L/8_Ratio_750_L_4_R_3.png","img/250/equaldotanddens/L/7_Ratio_250_L_8_R_2.png","img/250/equaldotsize/R/6_Ratio_250_L_6_R_24.png","img/250/randomdotsizeEA/L/5_Ratio_250_L_24_R_6.png","img/500/equaldotsize/L/11_Ratio_500_L_12_R_6.png","img/500/equaldotsize/R/1_Ratio_500_L_9_R_18.png","img/500/randomdotsizeEA/L/10_Ratio_500_L_4_R_2.png","img/250/equaldotsize/L/5_Ratio_250_L_24_R_6.png","img/250/equaldotsize/L/2_Ratio_250_L_16_R_4.png","img/500/equaldotanddens/R/9_Ratio_500_L_2_R_4.png","img/500/randomdotsizeEA/L/7_Ratio_500_L_10_R_5.png","img/900/equaldotanddens/R/7_Ratio_900_L_9_R_10.png","img/250/equaldotanddens/R/9_Ratio_250_L_3_R_12.png","img/900/equaldotanddens/R/3_Ratio_900_L_9_R_10.png","img/250/equaldotanddens/R/11_Ratio_250_L_3_R_12.png","img/500/randomdotsizeEA/R/14_Ratio_500_L_5_R_10.png","img/900/randomdotsizeEA/R/15_Ratio_900_L_9_R_10.png","img/900/equaldotsize/R/13_Ratio_900_L_18_R_20.png","img/250/equaldotanddens/R/10_Ratio_250_L_4_R_16.png","img/500/randomdotsizeEA/R/2_Ratio_500_L_3_R_6.png","img/250/equaldotanddens/R/4_Ratio_250_L_3_R_12.png","img/500/equaldotanddens/R/6_Ratio_500_L_9_R_18.png","img/750/equaldotsize/R/7_Ratio_750_L_3_R_4.png","img/250/equaldotanddens/L/15_Ratio_250_L_12_R_3.png","img/900/randomdotsizeEA/L/8_Ratio_900_L_20_R_18.png","img/250/equaldotanddens/L/7_Ratio_250_L_8_R_2.png","img/900/randomdotsizeEA/L/1_Ratio_900_L_10_R_9.png","img/750/randomdotsizeEA/L/1_Ratio_750_L_20_R_15.png","img/900/equaldotsize/L/10_Ratio_900_L_20_R_18.png"],"Rat0":[["12_Ratio_0_L_9_R_0.png","13_Ratio_0_L_6_R_0.png","5_Ratio_0_L_2_R_0.png","6_Ratio_0_L_4_R_0.png","8_Ratio_0_L_6_R_0.png"],["1_Ratio_0_L_0_R_17.png","10_Ratio_0_L_0_R_22.png","11_Ratio_0_L_0_R_1.png","14_Ratio_0_L_0_R_24.png","15_Ratio_0_L_0_R_4.png","2_Ratio_0_L_0_R_5.png","3_Ratio_0_L_0_R_17.png","4_Ratio_0_L_0_R_7.png","7_Ratio_0_L_0_R_19.png","9_Ratio_0_L_0_R_15.png"]],"Rat250":[["1_Ratio_250_L_8_R_2.png","14_Ratio_250_L_12_R_3.png","15_Ratio_250_L_12_R_3.png","2_Ratio_250_L_16_R_4.png","3_Ratio_250_L_8_R_2.png","5_Ratio_250_L_24_R_6.png","7_Ratio_250_L_8_R_2.png"],["10_Ratio_250_L_4_R_16.png","11_Ratio_250_L_3_R_12.png","12_Ratio_250_L_5_R_20.png","13_Ratio_250_L_2_R_8.png","4_Ratio_250_L_3_R_12.png","6_Ratio_250_L_6_R_24.png","8_Ratio_250_L_1_R_4.png","9_Ratio_250_L_3_R_12.png"]],"Rat500":[["10_Ratio_500_L_4_R_2.png","11_Ratio_500_L_12_R_6.png","13_Ratio_500_L_12_R_6.png","4_Ratio_500_L_18_R_9.png","5_Ratio_500_L_4_R_2.png","7_Ratio_500_L_10_R_5.png","8_Ratio_500_L_8_R_4.png"],["1_Ratio_500_L_9_R_18.png","12_Ratio_500_L_1_R_2.png","14_Ratio_500_L_5_R_10.png","15_Ratio_500_L_1_R_2.png","2_Ratio_500_L_3_R_6.png","3_Ratio_500_L_10_R_20.png","6_Ratio_500_L_9_R_18.png","9_Ratio_500_L_2_R_4.png"]],"Rat750":[["1_Ratio_750_L_20_R_15.png","10_Ratio_750_L_4_R_3.png","13_Ratio_750_L_8_R_6.png","14_Ratio_750_L_8_R_6.png","6_Ratio_750_L_24_R_18.png","8_Ratio_750_L_4_R_3.png","9_Ratio_750_L_4_R_3.png"],["11_Ratio_750_L_12_R_16.png","12_Ratio_750_L_3_R_4.png","15_Ratio_750_L_9_R_12.png","2_Ratio_750_L_6_R_8.png","3_Ratio_750_L_15_R_20.png","4_Ratio_750_L_15_R_20.png","5_Ratio_750_L_15_R_20.png","7_Ratio_750_L_3_R_4.png"]],"Rat900":[["1_Ratio_900_L_10_R_9.png","10_Ratio_900_L_20_R_18.png","2_Ratio_900_L_20_R_18.png","4_Ratio_900_L_20_R_18.png","8_Ratio_900_L_20_R_18.png"],["11_Ratio_900_L_18_R_20.png","12_Ratio_900_L_18_R_20.png","13_Ratio_900_L_18_R_20.png","14_Ratio_900_L_18_R_20.png","15_Ratio_900_L_9_R_10.png","3_Ratio_900_L_9_R_10.png","5_Ratio_900_L_9_R_10.png","6_Ratio_900_L_9_R_10.png","7_Ratio_900_L_9_R_10.png","9_Ratio_900_L_18_R_20.png"]],"Rat1000":[["10_Ratio_1000_L_16_R_16.png","11_Ratio_1000_L_6_R_6.png","12_Ratio_1000_L_14_R_14.png","13_Ratio_1000_L_20_R_20.png","15_Ratio_1000_L_15_R_15.png","2_Ratio_1000_L_17_R_17.png","4_Ratio_1000_L_9_R_9.png","5_Ratio_1000_L_6_R_6.png","6_Ratio_1000_L_19_R_19.png","8_Ratio_1000_L_14_R_14.png","9_Ratio_1000_L_25_R_25.png"],["1_Ratio_1000_L_1_R_1.png","14_Ratio_1000_L_17_R_17.png","3_Ratio_1000_L_17_R_17.png","7_Ratio_1000_L_6_R_6.png"]]}},{"start_time":1552328214877,"click_time":1552328215776,"finger_time":1552328215535,"fix_duration":1459.264431294967,"trial":1,"RT":658,"MT":241,"sideResp":2,"stimulus":"img/900/equaldotanddens/L/1_Ratio_900_L_10_R_9.png","xmouse":[776,776,776,776,776,776,776,776,776,777,777,777,777,777,777,778,778,778,778,778,778,778,778,778,778,778,779,779,780,781,792,804,815,829,842,859,865,871,880,896,938,980,1010,1044,1070,1104],"ymouse":[653,653,653,653,653,653,653,653,653,651,650,650,650,650,650,650,649,649,649,648,647,646,646,645,644,643,642,642,640,636,619,603,585,566,549,522,513,500,485,468,418,355,290,212,140,65],"timestamp_mouse":[1,18,39,58,78,98,119,140,158,178,199,219,239,259,278,298,318,339,359,378,398,418,439,459,478,498,519,539,560,578,599,618,639,658,678,698,719,738,759,778,799,818,838,859,879,899],"xSR":741.5,"ySR":573.95,"xT1":424.9,"yT1":0,"xT2":1058.1,"yT2":0,"toosoon":0,"cond_shown":"equaldotanddens","ratio_trial":900,"smaller_num":"9","larger_num":"10","correct_side":1,"subjID":"vALERIAHerreño18","gender":"1","age":"9","school":"4"},{"start_time":1552328217098,"click_time":1552328218236,"finger_time":1552328217875,"fix_duration":300.44822232011524,"trial":2,"RT":777,"MT":361,"sideResp":1,"stimulus":"img/900/randomdotsizeEA/L/4_Ratio_900_L_20_R_18.png","xmouse":[757,757,757,757,757,757,757,757,757,757,757,757,757,757,757,757,757,757,757,757,757,757,757,757,757,757,757,757,757,757,757,757,757,757,757,757,757,755,712,662,605,541,481,389,355,351,353,354,358,361,365,373,387,417,433,447,464],"ymouse":[612,612,612,612,612,612,612,612,612,612,612,612,612,612,612,612,612,612,612,612,612,612,612,612,611,610,609,608,608,608,608,608,608,608,608,608,608,606,577,550,514,456,391,262,199,184,174,173,171,170,166,160,150,132,121,111,99],"timestamp_mouse":[18,37,58,77,98,119,137,157,177,198,217,239,259,278,298,318,339,358,377,398,417,439,459,478,498,517,539,557,577,598,617,639,657,677,698,718,737,758,777,797,818,837,857,878,898,918,937,957,978,998,1017,1037,1057,1077,1098,1117,1138],"xSR":741.5,"ySR":573.95,"xT1":424.9,"yT1":0,"xT2":1058.1,"yT2":0,"toosoon":0,"cond_shown":"randomdotsizeEA","ratio_trial":900,"smaller_num":"18","larger_num":"20","correct_side":1,"subjID":"vALERIAHerreño18","gender":"1","age":"9","school":"4"},{"start_time":1552328220011,"click_time":1552328221176,"finger_time":1552328220775,"fix_duration":734.2274871310474,"trial":3,"RT":764,"MT":401,"sideResp":1,"stimulus":"img/750/equaldotanddens/L/1_Ratio_750_L_20_R_15.png","xmouse":[780,780,780,780,780,780,780,780,780,780,780,780,780,780,780,780,780,780,780,780,780,780,780,780,780,780,780,780,780,780,780,780,780,780,780,775,770,755,668,540,469,428,404,385,381,378,373,369,366,366,367,374,385,406,412,416,420,422,426],"ymouse":[635,635,635,635,635,635,635,635,635,635,635,635,635,635,635,635,635,635,635,635,635,635,635,635,635,635,635,635,635,635,635,635,635,635,633,622,613,593,485,369,304,264,241,210,196,182,166,150,124,108,102,92,83,71,67,63,61,59,55],"timestamp_mouse":[14,24,44,65,85,104,124,146,165,185,206,224,244,264,286,304,324,345,364,386,405,424,446,466,485,505,526,546,565,586,606,625,646,664,684,705,724,746,764,784,805,824,845,864,884,904,925,945,965,984,1005,1025,1045,1065,1084,1104,1125,1144,1165],"xSR":741.5,"ySR":573.95,"xT1":424.9,"yT1":0,"xT2":1058.1,"yT2":0,"toosoon":0,"cond_shown":"equaldotanddens","ratio_trial":750,"smaller_num":"15","larger_num":"20","correct_side":1,"subjID":"vALERIAHerreño18","gender":"1","age":"9","school":"4"},{"start_time":1552328223870,"click_time":1552328225196,"finger_time":1552328224356,"fix_duration":1471.156902454475,"trial":4,"RT":486,"MT":840,"sideResp":1,"stimulus":"img/500/equaldotanddens/L/4_Ratio_500_L_18_R_9.png","xmouse":[762,764,764,764,764,766,767,768,768,768,768,768,768,768,768,768,768,768,768,768,768,768,768,768,768,768,754,740,717,670,508,437,399,377,361,335,292,259,245,216,206,206,206,208,221,249,281,290,293,293,294,295,296,299,301,303,305,308,315,325,341,376,387,393,394,411,431],"ymouse":[609,609,609,609,609,608,601,599,598,598,598,598,598,598,598,598,598,598,598,598,598,595,588,579,568,552,513,489,462,426,359,338,321,309,295,244,146,71,32,0,0,0,0,0,0,6,15,17,17,17,17,17,17,10,5,2,2,1,1,1,1,2,3,4,5,6,6],"timestamp_mouse":[5,32,45,66,86,106,125,146,165,185,206,225,245,267,285,305,327,345,366,386,407,426,445,466,486,505,526,546,565,586,606,625,646,666,686,706,725,745,766,786,806,825,846,866,886,905,926,945,966,986,1006,1025,1047,1066,1085,1107,1126,1145,1165,1185,1205,1226,1245,1266,1286,1308,1326],"xSR":741.5,"ySR":573.95,"xT1":424.9,"yT1":0,"xT2":1058.1,"yT2":0,"toosoon":0,"cond_shown":"equaldotanddens","ratio_trial":500,"smaller_num":"9","larger_num":"18","correct_side":1,"subjID":"vALERIAHerreño18","gender":"1","age":"9","school":"4"},{"start_time":1552328226891,"click_time":1552328228555,"finger_time":1552328227115,"fix_duration":274.37507958935737,"trial":5,"RT":224,"MT":1440,"sideResp":2,"stimulus":"img/900/equaldotsize/R/15_Ratio_900_L_9_R_10.png","xmouse":[808,808,808,811,811,811,811,811,811,812,817,824,831,840,843,843,843,843,843,843,845,846,846,846,846,846,846,846,846,846,846,847,847,847,847,847,847,847,847,847,847,847,847,846,843,834,834,834,834,834,834,834,834,834,837,851,863,870,872,873,875,882,894,900,900,891,875,857,845,836,834,834,834,834,866,1104,1172,1186,1186,1178,1158,1154,1148,1144],"ymouse":[657,656,656,655,655,655,655,655,655,656,665,675,683,691,692,692,692,692,692,692,690,688,688,688,688,688,688,688,688,688,683,678,675,674,674,674,674,674,674,674,674,674,674,668,653,616,598,578,554,529,483,459,451,431,414,393,387,383,381,381,380,377,375,371,366,318,294,279,272,268,268,268,268,268,266,192,162,157,157,146,119,112,100,89],"timestamp_mouse":[12,42,45,64,86,106,126,144,164,185,204,224,245,264,284,304,325,344,366,386,404,424,444,464,485,506,525,544,565,585,604,625,644,665,685,706,725,744,765,786,804,826,844,865,885,906,925,946,964,984,1005,1024,1045,1065,1085,1104,1125,1144,1166,1185,1205,1225,1245,1264,1285,1304,1324,1344,1364,1386,1405,1425,1444,1464,1485,1505,1524,1545,1565,1585,1605,1625,1644,1664],"xSR":741.5,"ySR":573.95,"xT1":424.9,"yT1":0,"xT2":1058.1,"yT2":0,"toosoon":0,"cond_shown":"equaldotsize","ratio_trial":900,"smaller_num":"9","larger_num":"10","correct_side":2,"subjID":"vALERIAHerreño18","gender":"1","age":"9","school":"4"},{"start_time":1552328233188,"click_time":1552328234353,"finger_time":1552328233697,"fix_duration":250,"trial":6,"RT":509,"MT":656,"sideResp":1,"stimulus":"img/500/equaldotanddens/L/4_Ratio_500_L_18_R_9.png","xmouse":[780,780,780,780,780,780,780,780,780,780,780,780,780,780,780,777,777,776,775,773,771,769,768,766,765,765,765,765,765,765,764,761,750,734,707,670,641,630,618,608,593,582,564,548,529,501,468,460,452,446,443,436,435,435,435,435,443,447,449],"ymouse":[614,614,614,614,614,614,614,614,614,614,614,614,614,614,614,612,611,610,608,604,593,588,582,576,574,572,572,572,572,572,571,569,558,546,523,493,461,447,425,407,383,367,347,327,307,278,244,233,222,213,206,189,183,178,165,154,118,103,95],"timestamp_mouse":[12,33,49,67,88,108,129,148,169,187,207,229,248,268,288,309,328,348,367,387,408,428,448,468,488,509,529,547,568,587,608,628,648,668,689,708,728,747,767,788,806,825,846,865,885,905,926,947,966,985,1007,1026,1045,1065,1086,1105,1125,1145,1165],"xSR":741.5,"ySR":573.95,"xT1":424.9,"yT1":0,"xT2":1058.1,"yT2":0,"toosoon":0,"cond_shown":"equaldotanddens","ratio_trial":500,"smaller_num":"9","larger_num":"18","correct_side":1,"subjID":"vALERIAHerreño18","gender":"1","age":"9","school":"4"},{"start_time":1552328236284,"click_time":1552328237754,"finger_time":1552328237014,"fix_duration":888.3904650929162,"trial":7,"RT":730,"MT":740,"sideResp":2,"stimulus":"img/900/equaldotanddens/R/15_Ratio_900_L_9_R_10.png","xmouse":[747,747,747,747,747,747,747,747,747,747,747,747,747,747,747,747,747,747,747,747,747,747,747,747,747,747,747,747,747,747,747,747,747,747,747,747,757,765,770,774,782,786,792,805,823,835,846,847,850,854,858,874,884,892,902,914,946,966,979,997,1008,1021,1025,1030,1034,1039,1043,1044,1044,1045,1049,1060,1071,1087],"ymouse":[637,637,637,637,637,637,637,637,637,637,637,637,637,637,637,637,637,637,637,637,637,637,637,637,637,637,637,637,637,637,637,637,637,637,627,619,546,489,453,427,392,353,334,305,276,254,230,226,223,220,218,211,207,205,199,190,167,156,150,143,139,133,131,129,127,125,123,122,122,122,119,112,104,95],"timestamp_mouse":[12,44,51,70,90,111,129,149,170,190,210,231,250,270,290,310,331,351,369,389,409,431,449,469,490,511,529,549,570,589,611,629,650,669,689,710,730,750,770,791,810,829,849,869,889,909,929,949,969,990,1011,1029,1050,1069,1089,1109,1130,1150,1171,1190,1211,1230,1249,1269,1290,1309,1330,1350,1370,1390,1410,1429,1450,1470],"xSR":741.5,"ySR":573.95,"xT1":424.9,"yT1":0,"xT2":1058.1,"yT2":0,"toosoon":0,"cond_shown":"equaldotanddens","ratio_trial":900,"smaller_num":"9","larger_num":"10","correct_side":2,"subjID":"vALERIAHerreño18","gender":"1","age":"9","school":"4"},{"start_time":1552328240556,"click_time":1552328242155,"finger_time":1552328241414,"fix_duration":1399.6689899472797,"trial":8,"RT":858,"MT":741,"sideResp":1,"stimulus":"img/750/equaldotanddens/L/1_Ratio_750_L_20_R_15.png","xmouse":[769,769,769,769,769,770,771,771,771,772,772,773,774,774,774,774,774,774,775,775,775,775,775,775,775,775,775,775,775,775,775,775,775,775,775,775,775,775,775,775,774,763,727,695,683,675,669,667,666,666,663,660,641,620,591,544,498,441,428,420,416,413,412,410,410,410,410,423,435,447,459,470,477,479,479,479,478,478,477,476],"ymouse":[616,615,615,614,613,612,611,610,609,608,607,606,604,603,603,602,602,602,602,602,601,601,601,601,601,601,601,601,601,600,600,600,600,600,600,600,600,600,600,597,594,587,571,560,557,553,551,550,549,549,541,534,499,469,429,365,314,257,243,231,222,214,209,201,195,190,183,163,152,142,133,124,118,115,113,111,108,106,102,99],"timestamp_mouse":[18,37,58,78,97,117,138,159,178,198,218,238,257,278,298,318,338,358,378,398,418,437,458,477,497,519,539,558,578,597,618,638,657,678,698,717,737,757,778,797,817,838,857,877,898,917,938,959,979,997,1017,1039,1058,1077,1097,1118,1137,1157,1178,1198,1217,1238,1258,1279,1298,1318,1338,1358,1377,1398,1418,1437,1458,1477,1497,1518,1537,1557,1577,1598],"xSR":741.5,"ySR":573.95,"xT1":424.9,"yT1":0,"xT2":1058.1,"yT2":0,"toosoon":0,"cond_shown":"equaldotanddens","ratio_trial":750,"smaller_num":"15","larger_num":"20","correct_side":1,"subjID":"vALERIAHerreño18","gender":"1","age":"9","school":"4"},{"start_time":1552328243612,"click_time":1552328247075,"finger_time":1552328244454,"fix_duration":495.02137467914775,"trial":9,"RT":842,"MT":2621,"sideResp":2,"stimulus":"img/750/randomdotsizeEA/R/4_Ratio_750_L_15_R_20.png","xmouse":[832,832,832,832,832,832,832,832,832,832,832,832,832,832,832,832,832,832,832,832,832,830,830,830,830,829,829,828,828,828,828,828,828,828,828,828,828,828,828,828,828,821,818,815,812,811,810,809,809,809,809,809,809,809,809,809,809,809,809,809,809,809,809,809,809,809,809,809,809,809,809,809,809,809,808,808,806,805,805,804,804,802,802,802,802,802,802,802,802,802,802,802,802,802,802,802,802,801,800,799,799,797,797,796,794,793,783,771,753,715,649,526,508,498,495,494,494,494,494,493,493,493,493,493,493,493,493,493,493,493,493,493,501,525,570,640,791,851,886,906,914,928,937,944,951,960,977,984,991,997,1013,1034,1046,1051,1054,1055,1055,1055,1055,1055,1055,1055,1055,1055,1055,1055,1055,1055,1055,1056,1056,1056,1057,1063],"ymouse":[619,619,619,619,619,619,619,619,619,619,619,619,619,619,619,619,619,619,619,619,619,619,619,619,619,619,618,617,617,617,617,617,617,617,617,617,617,617,617,617,615,585,571,560,552,549,547,546,546,546,546,546,546,546,546,546,546,546,546,546,546,546,546,546,546,546,546,546,546,546,546,546,545,545,544,544,542,542,541,540,540,539,539,539,539,539,539,539,539,539,539,539,539,539,539,539,539,538,536,536,535,533,532,532,529,528,522,516,509,488,452,402,397,393,390,390,390,390,390,389,389,389,389,389,389,389,389,389,389,389,389,389,387,379,364,334,267,236,209,180,159,122,108,95,81,67,51,46,42,40,35,27,24,23,22,22,22,22,22,22,22,22,22,22,22,22,22,22,22,22,22,25,27,35],"timestamp_mouse":[20,21,42,61,82,102,123,142,163,181,202,222,241,263,282,301,322,341,363,381,402,421,442,463,481,501,521,541,562,581,602,623,642,662,682,701,722,742,763,783,802,821,842,863,882,902,922,941,962,983,1002,1021,1043,1062,1082,1101,1122,1143,1162,1183,1203,1222,1242,1261,1282,1301,1322,1341,1362,1381,1401,1421,1442,1461,1481,1502,1521,1542,1561,1582,1602,1622,1643,1663,1681,1701,1722,1742,1763,1782,1802,1822,1842,1861,1881,1901,1922,1941,1962,1982,2002,2021,2042,2061,2081,2102,2121,2143,2162,2182,2202,2221,2242,2261,2282,2301,2321,2341,2361,2382,2402,2422,2442,2461,2481,2503,2521,2541,2561,2581,2601,2621,2641,2662,2682,2703,2721,2742,2762,2781,2802,2821,2842,2862,2882,2901,2921,2941,2961,2983,3003,3022,3042,3063,3081,3101,3123,3142,3161,3181,3202,3222,3242,3263,3283,3302,3322,3341,3361,3382,3402,3422,3442,3463],"xSR":741.5,"ySR":573.95,"xT1":424.9,"yT1":0,"xT2":1058.1,"yT2":0,"toosoon":0,"cond_shown":"randomdotsizeEA","ratio_trial":750,"smaller_num":"15","larger_num":"20","correct_side":2,"subjID":"vALERIAHerreño18","gender":"1","age":"9","school":"4"},{"start_time":1552328248246,"click_time":1552328250054,"finger_time":1552328249274,"fix_duration":250,"trial":10,"RT":1028,"MT":780,"sideResp":2,"stimulus":"img/500/equaldotanddens/R/15_Ratio_500_L_1_R_2.png","xmouse":[813,813,813,813,813,813,813,813,813,813,813,813,813,813,813,813,813,813,813,813,813,813,813,813,813,813,813,813,813,813,813,813,813,813,813,813,813,813,813,813,813,813,813,813,813,813,813,813,813,818,822,830,841,852,895,902,938,955,967,978,978,976,973,973,973,976,981,985,992,1004,1010,1016,1021,1027,1036,1038,1039,1039,1039,1040,1040,1040,1040,1041,1042,1043,1044,1047,1049,1056,1060],"ymouse":[634,634,634,634,634,634,634,632,632,632,632,632,632,632,632,632,632,632,632,632,632,632,632,632,632,632,632,632,631,628,626,626,626,626,626,626,626,626,626,625,625,625,625,625,625,625,625,625,624,604,588,569,547,528,480,472,433,405,381,304,275,248,223,195,146,119,102,89,78,61,57,54,53,52,52,52,52,52,52,52,52,52,52,52,52,52,52,52,52,54,55],"timestamp_mouse":[12,29,47,67,88,107,127,148,169,188,208,229,248,267,288,307,328,347,367,388,408,428,448,468,488,508,527,548,568,587,608,628,647,667,688,709,728,748,769,787,808,829,847,868,889,907,928,948,968,987,1008,1028,1047,1067,1088,1107,1128,1147,1168,1189,1208,1228,1247,1267,1287,1307,1328,1348,1368,1388,1407,1427,1447,1467,1487,1509,1528,1547,1568,1587,1607,1629,1648,1669,1688,1708,1728,1748,1767,1788,1808],"xSR":741.5,"ySR":573.95,"xT1":424.9,"yT1":0,"xT2":1058.1,"yT2":0,"toosoon":0,"cond_shown":"equaldotanddens","ratio_trial":500,"smaller_num":"1","larger_num":"2","correct_side":2,"subjID":"vALERIAHerreño18","gender":"1","age":"9","school":"4"},{"start_time":1552328251720,"click_time":1552328253594,"finger_time":1552328252934,"fix_duration":624.7921952210354,"trial":11,"RT":1214,"MT":660,"sideResp":2,"stimulus":"img/500/equaldotsize/R/2_Ratio_500_L_3_R_6.png","xmouse":[777,777,777,777,777,777,777,777,777,777,777,777,777,777,777,777,777,777,777,777,777,777,777,777,777,777,777,777,777,777,777,777,777,777,777,777,777,777,777,777,777,777,777,777,777,777,777,777,777,777,777,777,777,777,777,777,778,779,784,789,805,817,830,841,850,874,892,903,913,919,932,946,963,999,1045,1100,1187,1200,1212,1219,1223,1223,1223,1223,1223,1223,1223,1223,1223,1213,1208,1185,1170,1151],"ymouse":[653,653,653,653,653,653,653,653,653,653,653,653,653,653,653,653,653,653,653,653,653,653,653,653,653,653,653,653,653,653,653,653,653,653,652,652,652,652,652,652,652,652,652,652,652,652,652,652,652,652,652,652,650,649,648,646,643,637,625,612,569,547,527,508,489,435,390,366,349,338,319,303,291,262,201,127,29,10,0,0,0,0,0,0,0,0,0,0,0,0,0,10,17,28],"timestamp_mouse":[21,37,53,73,93,114,133,153,173,193,215,235,253,273,293,314,334,354,373,395,413,433,455,474,494,514,535,554,573,594,613,633,654,673,694,714,734,754,774,794,813,834,853,873,894,913,933,953,975,995,1013,1034,1055,1073,1095,1114,1133,1154,1174,1194,1214,1233,1254,1274,1294,1313,1333,1354,1374,1394,1414,1434,1454,1474,1493,1513,1533,1554,1574,1595,1615,1635,1654,1673,1693,1715,1734,1753,1774,1793,1813,1834,1853,1873],"xSR":741.5,"ySR":573.95,"xT1":424.9,"yT1":0,"xT2":1058.1,"yT2":0,"toosoon":0,"cond_shown":"equaldotsize","ratio_trial":500,"smaller_num":"3","larger_num":"6","correct_side":2,"subjID":"vALERIAHerreño18","gender":"1","age":"9","school":"4"},{"start_time":1552328256232,"click_time":1552328257955,"finger_time":1552328257074,"fix_duration":1197.1277606305391,"trial":12,"RT":842,"MT":881,"sideResp":2,"stimulus":"img/900/equaldotanddens/R/11_Ratio_900_L_18_R_20.png","xmouse":[745,745,745,745,745,745,745,745,745,745,745,745,745,745,745,745,745,745,745,745,745,745,745,745,745,745,745,745,745,745,745,745,745,745,745,745,745,745,745,752,759,773,810,841,867,890,906,908,910,914,916,919,926,932,940,948,970,977,978,978,978,979,981,982,986,994,1004,1025,1036,1046,1050,1051,1051,1051,1051,1051,1052,1052,1052,1052,1052,1052,1052,1052,1055,1057,1069],"ymouse":[608,608,608,608,608,608,608,608,608,608,608,608,608,608,608,608,608,608,608,608,608,608,608,608,608,608,608,608,608,608,608,608,608,608,608,608,608,608,608,602,597,584,547,498,444,392,325,301,279,254,235,219,196,186,173,159,107,93,84,81,80,77,75,74,71,66,63,55,51,48,48,48,48,48,48,48,48,48,48,48,48,48,48,48,48,48,48],"timestamp_mouse":[9,36,41,61,81,102,122,141,161,181,203,221,243,262,282,301,322,342,362,383,402,422,441,461,482,503,521,542,562,581,602,623,642,662,681,703,722,741,762,781,802,822,842,861,881,901,922,942,962,983,1003,1022,1042,1063,1082,1101,1122,1141,1161,1181,1201,1222,1241,1261,1281,1301,1322,1341,1362,1383,1402,1422,1441,1461,1481,1502,1522,1541,1561,1581,1601,1621,1643,1662,1683,1702,1722],"xSR":741.5,"ySR":573.95,"xT1":424.9,"yT1":0,"xT2":1058.1,"yT2":0,"toosoon":0,"cond_shown":"equaldotanddens","ratio_trial":900,"smaller_num":"18","larger_num":"20","correct_side":2,"subjID":"vALERIAHerreño18","gender":"1","age":"9","school":"4"},{"start_time":1552328260186,"click_time":1552328262434,"finger_time":1552328261195,"fix_duration":1249.8549434543438,"trial":13,"RT":1009,"MT":1239,"sideResp":1,"stimulus":"img/250/randomdotsizeEA/R/11_Ratio_250_L_3_R_12.png","xmouse":[792,792,792,792,792,792,792,792,792,792,792,792,792,792,792,792,792,792,792,792,792,792,792,792,792,792,792,792,792,792,792,792,792,792,792,792,792,792,792,792,792,792,792,792,791,789,787,784,780,769,763,758,749,744,732,728,723,717,705,698,690,683,674,658,629,610,595,584,568,564,561,559,557,552,539,533,528,521,514,503,500,495,491,490,490,490,490,490,490,490,489,487,487,487,487,487,487,487,487,487,487,487,487,487,487,487,487,487,487,487,487,487,488],"ymouse":[650,650,650,650,650,650,650,650,650,650,650,650,650,650,650,650,650,650,650,650,650,650,650,650,650,650,650,650,650,650,650,650,650,650,650,650,650,650,650,650,650,650,650,650,644,636,628,618,606,581,567,552,531,521,498,491,482,473,451,439,424,412,397,373,333,312,294,281,261,256,252,250,247,241,230,227,224,222,221,218,217,215,214,214,214,214,214,213,208,187,171,150,141,132,122,119,117,114,112,111,110,110,110,110,110,109,108,107,105,103,102,101,98],"timestamp_mouse":[20,55,56,68,88,108,127,149,169,188,208,227,247,268,287,307,327,349,368,387,408,429,448,468,488,507,529,548,567,588,607,627,648,668,687,707,728,747,769,787,807,829,847,867,888,908,928,948,967,987,1009,1028,1047,1068,1088,1107,1128,1147,1169,1188,1208,1227,1247,1267,1288,1307,1327,1349,1369,1388,1407,1428,1448,1468,1487,1507,1527,1547,1568,1587,1608,1628,1648,1668,1689,1708,1728,1747,1767,1788,1807,1827,1847,1868,1888,1907,1927,1947,1967,1988,2008,2029,2048,2067,2087,2108,2127,2148,2167,2187,2208,2227,2247],"xSR":741.5,"ySR":573.95,"xT1":424.9,"yT1":0,"xT2":1058.1,"yT2":0,"toosoon":0,"cond_shown":"randomdotsizeEA","ratio_trial":250,"smaller_num":"3","larger_num":"12","correct_side":2,"subjID":"vALERIAHerreño18","gender":"1","age":"9","school":"4"},{"start_time":1552328268058,"click_time":1552328269354,"finger_time":1552328268493,"fix_duration":403.92507992922856,"trial":14,"RT":435,"MT":861,"sideResp":2,"stimulus":"img/900/equaldotsize/L/2_Ratio_900_L_20_R_18.png","xmouse":[785,785,785,785,785,785,785,785,785,785,785,785,785,785,785,785,785,785,785,784,780,766,760,758,758,758,758,758,758,758,758,758,758,758,758,758,758,767,785,823,924,965,988,998,999,999,999,999,999,1000,1001,1005,1006,1006,1007,1009,1020,1037,1045,1050,1056,1061,1064,1068,1070],"ymouse":[603,603,603,603,603,603,603,603,603,603,603,603,603,603,603,603,603,603,600,595,583,556,546,542,542,542,542,542,542,542,542,542,542,542,541,541,539,527,507,475,386,331,286,258,229,219,186,176,167,155,147,135,131,129,129,125,117,115,114,111,109,106,104,101,99],"timestamp_mouse":[16,35,55,75,96,116,136,156,177,197,216,235,257,276,297,317,336,355,375,395,415,435,457,476,495,515,535,555,575,597,617,636,656,675,696,716,735,756,775,796,816,836,855,876,895,916,936,956,976,995,1015,1035,1057,1075,1097,1116,1136,1156,1176,1195,1215,1235,1256,1275,1296],"xSR":741.5,"ySR":573.95,"xT1":424.9,"yT1":0,"xT2":1058.1,"yT2":0,"toosoon":0,"cond_shown":"equaldotsize","ratio_trial":900,"smaller_num":"18","larger_num":"20","correct_side":1,"subjID":"vALERIAHerreño18","gender":"1","age":"9","school":"4"},{"start_time":1552328270744,"click_time":1552328273373,"finger_time":1552328270813,"fix_duration":250,"trial":15,"RT":69,"MT":2560,"sideResp":1,"stimulus":"img/500/equaldotanddens/R/6_Ratio_500_L_9_R_18.png","xmouse":[790,786,786,769,764,761,760,760,760,760,760,760,760,760,760,760,759,757,755,750,748,735,732,730,730,730,730,730,730,730,734,742,766,776,783,786,788,788,788,788,788,788,788,789,789,790,791,792,792,793,793,793,793,793,793,793,793,793,793,793,794,796,797,797,799,799,799,799,799,800,800,800,801,801,801,801,801,802,802,802,802,802,803,803,803,803,803,803,803,803,803,803,803,803,803,803,803,803,803,803,804,805,810,811,811,810,805,801,797,795,793,790,783,769,753,737,723,694,675,669,657,648,626,620,617,616,610,585,567,536,520,501],"ymouse":[647,658,658,698,709,715,718,718,718,717,714,713,713,713,709,700,674,658,640,608,596,546,535,527,525,523,523,523,523,525,543,558,588,602,615,626,632,634,634,634,634,634,635,634,630,626,614,607,602,599,598,598,598,598,598,598,598,598,598,601,607,615,628,630,634,635,635,635,635,635,635,635,635,635,635,634,632,632,632,631,630,629,627,625,624,623,622,621,621,621,621,621,621,621,621,621,621,621,620,620,616,612,592,573,550,531,514,478,458,434,402,387,351,321,305,295,284,261,240,233,210,196,172,164,160,157,150,135,124,110,101,94],"timestamp_mouse":[9,41,49,69,91,110,130,150,169,190,209,230,250,269,290,309,331,349,370,389,411,430,450,469,490,510,530,551,570,591,610,629,649,669,689,709,729,749,770,791,811,830,850,869,890,911,931,950,970,990,1009,1030,1050,1069,1089,1109,1131,1151,1170,1190,1211,1229,1251,1270,1290,1310,1329,1351,1370,1390,1409,1430,1450,1470,1489,1509,1529,1551,1571,1590,1610,1629,1651,1671,1691,1709,1730,1749,1769,1789,1810,1830,1849,1871,1890,1910,1931,1951,1970,1990,2011,2029,2049,2070,2089,2109,2130,2149,2169,2190,2210,2229,2249,2270,2291,2309,2329,2349,2369,2390,2409,2430,2450,2470,2490,2510,2530,2549,2570,2590,2609,2629],"xSR":741.5,"ySR":573.95,"xT1":424.9,"yT1":0,"xT2":1058.1,"yT2":0,"toosoon":0,"cond_shown":"equaldotanddens","ratio_trial":500,"smaller_num":"9","larger_num":"18","correct_side":2,"subjID":"vALERIAHerreño18","gender":"1","age":"9","school":"4"},{"start_time":1552328274801,"click_time":1552328276114,"finger_time":1552328275173,"fix_duration":286.51952480826924,"trial":16,"RT":372,"MT":941,"sideResp":2,"stimulus":"img/250/equaldotsize/R/13_Ratio_250_L_2_R_8.png","xmouse":[805,805,805,805,805,805,805,805,805,805,805,805,805,805,805,805,805,808,808,809,809,809,809,809,809,809,809,809,809,811,812,813,815,815,815,815,815,815,814,813,813,813,815,822,839,852,873,917,951,1001,1019,1030,1038,1044,1045,1045,1045,1046,1048,1052,1058,1058,1058,1058,1058,1060],"ymouse":[616,616,616,616,616,616,615,615,615,615,615,615,615,615,615,611,606,583,570,553,548,544,540,535,529,526,522,519,515,504,496,487,475,465,442,437,435,431,429,417,399,369,313,246,124,57,0,0,0,0,0,0,0,0,0,0,1,5,20,38,55,55,55,55,55,59],"timestamp_mouse":[14,45,53,72,92,112,132,154,173,193,212,234,253,272,292,314,333,353,372,392,412,432,453,473,493,513,533,553,573,592,613,632,652,673,692,712,733,753,773,792,813,834,852,873,892,912,932,953,972,995,1012,1033,1053,1073,1093,1112,1132,1152,1173,1193,1212,1234,1254,1272,1293,1312],"xSR":741.5,"ySR":573.95,"xT1":424.9,"yT1":0,"xT2":1058.1,"yT2":0,"toosoon":0,"cond_shown":"equaldotsize","ratio_trial":250,"smaller_num":"2","larger_num":"8","correct_side":2,"subjID":"vALERIAHerreño18","gender":"1","age":"9","school":"4"},{"start_time":1552328277759,"click_time":1552328278554,"finger_time":1552328278313,"fix_duration":924.2390753404031,"trial":17,"RT":554,"MT":241,"sideResp":2,"stimulus":"img/500/equaldotsize/R/15_Ratio_500_L_1_R_2.png","xmouse":[792,792,792,792,792,792,792,792,792,792,792,792,792,792,792,792,792,792,792,792,792,792,792,792,792,792,792,808,823,843,861,882,933,955,973,1008,1028,1055,1060,1064],"ymouse":[607,607,607,607,607,607,607,607,607,607,607,607,607,607,607,607,607,607,607,607,607,607,607,607,607,607,603,572,549,522,483,435,349,319,292,234,188,125,110,97],"timestamp_mouse":[15,37,55,75,96,114,134,154,174,195,215,236,255,275,295,315,336,355,375,394,415,435,454,474,495,515,534,554,575,594,614,634,654,676,695,715,735,754,775,795],"xSR":741.5,"ySR":573.95,"xT1":424.9,"yT1":0,"xT2":1058.1,"yT2":0,"toosoon":0,"cond_shown":"equaldotsize","ratio_trial":500,"smaller_num":"1","larger_num":"2","correct_side":2,"subjID":"vALERIAHerreño18","gender":"1","age":"9","school":"4"},{"start_time":1552328282221,"click_time":1552328283733,"finger_time":1552328282934,"fix_duration":1084.5601110741675,"trial":18,"RT":713,"MT":799,"sideResp":2,"stimulus":"img/250/equaldotanddens/R/11_Ratio_250_L_3_R_12.png","xmouse":[776,776,774,774,774,774,774,774,774,774,774,774,774,774,774,774,774,774,774,774,774,774,774,774,774,774,774,774,774,774,774,774,779,784,797,809,825,841,857,888,904,911,918,922,933,935,939,941,943,946,953,957,963,972,993,1074,1113,1136,1141,1142,1142,1142,1142,1141,1131,1125,1119,1113,1110,1109,1108,1108,1108,1108,1108,1106],"ymouse":[623,623,626,627,628,628,628,628,629,631,631,632,634,634,634,634,634,634,634,634,634,634,634,634,634,634,634,634,634,634,634,630,622,611,584,564,540,511,484,434,405,386,363,341,310,300,291,286,281,277,264,260,256,251,251,251,251,249,247,242,240,238,233,223,198,185,169,156,150,140,135,133,129,123,116,95],"timestamp_mouse":[31,32,53,73,93,114,132,152,173,192,213,233,253,274,292,313,332,353,373,393,413,432,453,473,493,513,532,553,572,594,613,633,653,672,692,713,733,753,773,793,813,833,853,874,892,912,932,952,973,992,1012,1033,1054,1072,1093,1112,1132,1152,1173,1193,1212,1233,1253,1272,1293,1312,1333,1352,1373,1393,1412,1432,1453,1472,1492,1512],"xSR":741.5,"ySR":573.95,"xT1":424.9,"yT1":0,"xT2":1058.1,"yT2":0,"toosoon":0,"cond_shown":"equaldotanddens","ratio_trial":250,"smaller_num":"3","larger_num":"12","correct_side":2,"subjID":"vALERIAHerreño18","gender":"1","age":"9","school":"4"},{"start_time":1552328286488,"click_time":1552328287273,"finger_time":1552328287094,"fix_duration":1212.0855912187928,"trial":19,"RT":606,"MT":179,"sideResp":1,"stimulus":"img/250/equaldotsize/L/7_Ratio_250_L_8_R_2.png","xmouse":[771,771,771,771,771,771,771,771,771,771,771,771,766,766,766,766,766,765,765,765,765,765,765,765,765,765,765,765,764,761,753,741,685,642,596,561,523,484,476,473],"ymouse":[616,616,616,616,616,616,616,616,616,616,616,615,616,616,616,616,616,616,615,611,608,598,597,596,595,595,594,592,590,583,573,558,504,466,417,372,289,166,114,86],"timestamp_mouse":[13,27,45,65,87,106,125,146,166,186,206,226,245,266,286,305,326,346,366,385,407,427,445,467,486,507,526,545,566,587,606,626,645,665,687,706,726,747,766,785],"xSR":741.5,"ySR":573.95,"xT1":424.9,"yT1":0,"xT2":1058.1,"yT2":0,"toosoon":0,"cond_shown":"equaldotsize","ratio_trial":250,"smaller_num":"2","larger_num":"8","correct_side":1,"subjID":"vALERIAHerreño18","gender":"1","age":"9","school":"4"},{"start_time":1552328288774,"click_time":1552328291474,"finger_time":1552328289613,"fix_duration":438.1161758219999,"trial":20,"RT":839,"MT":1861,"sideResp":2,"stimulus":"img/750/equaldotanddens/R/7_Ratio_750_L_3_R_4.png","xmouse":[746,746,746,746,746,746,746,746,746,746,746,746,746,746,746,746,746,746,746,746,746,746,746,746,746,746,746,746,746,746,746,746,746,746,746,746,746,746,746,749,761,768,778,799,809,827,853,883,938,963,970,984,990,997,999,1001,1003,1004,1004,1004,1004,1004,1004,1005,1006,1007,1010,1013,1014,1016,1016,1016,1016,1016,1016,1016,1016,1016,1016,1016,1016,1016,1017,1017,1017,1017,1018,1019,1022,1022,1025,1025,1027,1027,1027,1027,1027,1027,1027,1027,1027,1027,1027,1027,1027,1028,1029,1031,1036,1040,1044,1048,1050,1051,1051,1051,1051,1051,1051,1052,1052,1052,1050,1050,1051,1053,1056,1056,1058,1059,1062,1063,1065,1066,1069,1070],"ymouse":[656,656,656,656,656,656,656,656,656,656,656,656,656,656,656,656,656,656,656,656,656,656,656,656,656,656,656,656,656,656,656,656,656,656,656,656,656,656,656,645,614,594,571,524,501,466,421,377,306,274,265,241,225,191,176,162,152,145,140,135,132,130,124,111,101,90,78,67,61,51,51,51,51,51,50,50,50,50,50,50,50,50,49,49,49,49,49,49,47,47,45,44,43,43,43,43,43,43,43,43,43,43,43,43,43,43,43,45,61,75,92,105,112,116,116,116,116,116,116,116,116,116,112,112,111,109,108,108,107,106,105,104,103,103,100,99],"timestamp_mouse":[1,19,39,60,80,100,119,140,159,180,199,219,240,261,279,299,319,341,360,379,400,421,441,460,479,499,519,541,561,580,601,619,640,661,679,699,720,739,760,779,800,819,839,859,879,900,919,940,960,980,999,1020,1039,1059,1079,1100,1119,1139,1159,1181,1200,1221,1239,1259,1280,1300,1320,1341,1359,1379,1400,1420,1440,1459,1480,1500,1521,1540,1559,1580,1601,1619,1640,1659,1680,1701,1720,1740,1759,1779,1801,1820,1840,1860,1880,1899,1920,1939,1960,1981,2000,2020,2040,2059,2079,2100,2121,2140,2159,2179,2200,2220,2239,2259,2280,2301,2319,2340,2361,2380,2401,2420,2439,2459,2480,2500,2520,2539,2559,2579,2600,2620,2640,2660,2679,2699],"xSR":741.5,"ySR":573.95,"xT1":424.9,"yT1":0,"xT2":1058.1,"yT2":0,"toosoon":0,"cond_shown":"equaldotanddens","ratio_trial":750,"smaller_num":"3","larger_num":"4","correct_side":2,"subjID":"vALERIAHerreño18","gender":"1","age":"9","school":"4"},{"start_time":1552328297844,"click_time":1552328299412,"finger_time":1552328298471,"fix_duration":1491.4796250486525,"trial":21,"RT":627,"MT":941,"sideResp":2,"stimulus":"img/500/randomdotsizeEA/R/9_Ratio_500_L_2_R_4.png","xmouse":[746,746,746,746,746,746,746,746,745,745,745,745,745,745,745,745,745,745,745,745,745,745,745,745,745,745,746,761,782,805,837,843,844,826,797,743,729,722,719,716,708,705,704,704,704,712,720,726,733,742,768,788,801,801,802,814,821,832,845,854,873,888,899,908,918,931,938,948,957,968,979,982,984,986,988,1003,1024,1055,1085],"ymouse":[665,665,665,665,665,665,665,665,665,665,665,665,665,665,665,665,665,665,665,665,665,665,665,665,665,665,663,656,645,632,604,584,539,488,428,351,333,325,318,310,292,285,275,267,261,244,233,226,221,216,204,197,194,193,192,186,183,178,174,172,166,159,154,146,139,127,120,113,104,95,84,81,81,80,79,72,62,50,41],"timestamp_mouse":[14,41,48,68,89,108,128,148,167,187,208,227,249,267,288,307,327,347,368,388,407,427,447,467,488,509,527,548,567,588,607,627,647,667,687,707,727,747,767,787,808,827,848,867,888,907,927,947,967,987,1007,1027,1048,1067,1088,1107,1127,1148,1168,1187,1207,1227,1248,1268,1288,1307,1327,1347,1367,1388,1407,1427,1447,1467,1487,1508,1527,1547,1568],"xSR":741.5,"ySR":573.95,"xT1":424.9,"yT1":0,"xT2":1058.1,"yT2":0,"toosoon":0,"cond_shown":"randomdotsizeEA","ratio_trial":500,"smaller_num":"2","larger_num":"4","correct_side":2,"subjID":"vALERIAHerreño18","gender":"1","age":"9","school":"4"},{"start_time":1552328305586,"click_time":1552328306772,"finger_time":1552328306272,"fix_duration":652.3277990335009,"trial":22,"RT":686,"MT":500,"sideResp":2,"stimulus":"img/900/equaldotanddens/R/12_Ratio_900_L_18_R_20.png","xmouse":[774,774,774,774,774,774,774,774,774,774,774,774,774,774,774,774,774,774,774,774,774,774,774,774,774,774,774,774,774,774,774,772,772,770,767,767,767,767,769,783,793,807,819,830,865,880,888,891,891,852,836,834,834,837,880,907,944,996,1051,1085],"ymouse":[597,597,597,597,597,597,597,597,597,597,597,597,597,597,597,597,597,597,597,597,597,597,597,597,597,597,596,596,595,592,590,582,580,575,564,552,536,518,497,443,414,385,368,339,257,170,102,38,0,0,0,0,0,0,5,12,21,31,38,41],"timestamp_mouse":[15,30,46,66,86,105,125,145,165,186,206,226,246,265,285,306,325,346,365,385,405,426,447,466,486,505,525,545,566,585,605,625,646,667,686,706,726,745,767,785,805,826,845,865,885,905,925,945,965,989,1006,1025,1045,1065,1087,1105,1126,1145,1166,1185],"xSR":741.5,"ySR":573.95,"xT1":424.9,"yT1":0,"xT2":1058.1,"yT2":0,"toosoon":0,"cond_shown":"equaldotanddens","ratio_trial":900,"smaller_num":"18","larger_num":"20","correct_side":2,"subjID":"vALERIAHerreño18","gender":"1","age":"9","school":"4"},{"start_time":1552328313259,"click_time":1552328314611,"finger_time":1552328313691,"fix_duration":464.95993089279887,"trial":23,"RT":432,"MT":920,"sideResp":2,"stimulus":"img/750/equaldotsize/R/2_Ratio_750_L_6_R_8.png","xmouse":[757,757,757,757,757,757,757,757,757,757,757,757,757,757,757,757,757,757,760,762,781,831,865,898,917,929,934,934,934,936,938,941,943,946,948,950,954,957,959,961,961,964,965,966,970,975,993,1004,1016,1026,1037,1065,1076,1090,1098,1103,1113,1118,1121,1124,1127,1132,1134,1134,1133,1132,1129,1129],"ymouse":[596,596,596,596,596,596,596,596,596,596,596,596,596,596,596,596,596,596,596,593,585,561,534,490,451,418,383,368,356,343,333,319,313,308,303,301,292,288,284,281,279,276,274,273,268,263,243,233,223,213,202,184,179,173,169,166,158,154,150,147,143,129,123,118,111,108,102,99],"timestamp_mouse":[14,32,53,73,92,112,133,152,172,192,212,232,253,273,292,313,332,353,373,393,412,432,452,472,492,512,544,553,573,593,613,633,652,672,693,712,732,752,772,792,812,832,853,873,892,912,932,953,972,992,1013,1032,1054,1073,1093,1113,1132,1153,1172,1192,1213,1232,1252,1272,1293,1312,1332,1352],"xSR":741.5,"ySR":573.95,"xT1":424.9,"yT1":0,"xT2":1058.1,"yT2":0,"toosoon":0,"cond_shown":"equaldotsize","ratio_trial":750,"smaller_num":"6","larger_num":"8","correct_side":2,"subjID":"vALERIAHerreño18","gender":"1","age":"9","school":"4"},{"start_time":1552328316759,"click_time":1552328317992,"finger_time":1552328317171,"fix_duration":924.7468525080253,"trial":24,"RT":412,"MT":821,"sideResp":1,"stimulus":"img/250/equaldotsize/L/1_Ratio_250_L_8_R_2.png","xmouse":[780,780,780,780,779,779,779,778,778,778,777,777,777,776,776,775,773,766,758,750,744,724,715,707,701,691,681,660,652,644,640,635,633,631,629,626,614,611,608,603,598,590,588,584,581,581,581,581,581,581,581,581,581,579,576,568,548,522,499,487,483,482],"ymouse":[618,618,618,618,617,617,617,615,615,614,614,613,613,612,611,610,606,597,586,576,566,539,525,512,494,473,447,402,386,373,363,352,349,345,341,336,328,326,325,323,322,318,316,313,312,311,311,311,311,311,311,311,311,309,302,292,264,197,152,130,116,89],"timestamp_mouse":[12,39,52,73,92,113,133,153,172,192,212,232,252,273,292,312,332,353,372,393,412,432,452,473,493,512,532,552,572,592,613,632,652,672,692,714,734,752,773,792,813,832,852,872,893,912,933,953,974,993,1013,1032,1052,1073,1092,1112,1132,1152,1173,1193,1213,1233],"xSR":741.5,"ySR":573.95,"xT1":424.9,"yT1":0,"xT2":1058.1,"yT2":0,"toosoon":0,"cond_shown":"equaldotsize","ratio_trial":250,"smaller_num":"2","larger_num":"8","correct_side":1,"subjID":"vALERIAHerreño18","gender":"1","age":"9","school":"4"},{"start_time":1552328319837,"click_time":1552328321191,"finger_time":1552328320692,"fix_duration":744.9244877796613,"trial":25,"RT":855,"MT":499,"sideResp":1,"stimulus":"img/250/randomdotsizeEA/L/5_Ratio_250_L_24_R_6.png","xmouse":[783,783,783,783,783,783,783,783,783,783,783,783,783,783,783,783,783,783,783,783,783,783,783,783,783,783,783,783,783,783,782,782,782,782,782,781,781,780,773,771,767,763,712,660,589,510,438,359,353,352,352,352,352,354,354,354,355,361,368,375,387,394,401,407,412,418,422,425],"ymouse":[622,622,622,622,622,622,622,622,622,622,622,622,622,622,622,622,622,622,622,622,622,622,622,622,622,622,622,622,622,621,620,620,620,620,619,619,617,616,609,606,601,596,506,423,330,238,164,73,61,54,50,45,39,36,34,33,31,26,23,22,19,16,15,14,14,14,14,14],"timestamp_mouse":[23,34,54,74,94,114,134,154,175,196,214,235,255,274,294,314,334,354,374,394,414,435,455,474,494,514,534,555,574,595,615,635,655,674,694,715,734,754,774,795,814,834,855,874,895,915,935,955,974,994,1014,1035,1055,1074,1094,1115,1134,1156,1174,1194,1214,1234,1255,1274,1294,1314,1335,1354],"xSR":741.5,"ySR":573.95,"xT1":424.9,"yT1":0,"xT2":1058.1,"yT2":0,"toosoon":0,"cond_shown":"randomdotsizeEA","ratio_trial":250,"smaller_num":"6","larger_num":"24","correct_side":1,"subjID":"vALERIAHerreño18","gender":"1","age":"9","school":"4"},{"start_time":1552328323437,"click_time":1552328327232,"finger_time":1552328325231,"fix_duration":823.9020880473536,"trial":26,"RT":1794,"MT":2001,"sideResp":1,"stimulus":"img/900/randomdotsizeEA/R/12_Ratio_900_L_18_R_20.png","xmouse":[780,780,780,780,780,780,780,780,780,780,780,780,780,780,780,780,780,780,780,780,780,780,780,780,780,780,780,780,780,780,780,780,780,780,780,780,780,780,780,780,780,780,780,780,780,780,780,780,780,780,780,780,780,780,780,780,780,780,780,780,780,780,780,780,780,780,780,780,780,780,780,780,780,780,780,780,780,780,780,780,780,780,780,780,780,780,780,778,769,762,754,753,751,743,739,736,733,732,726,722,721,717,710,691,680,667,649,632,598,576,566,557,547,531,525,520,515,508,494,490,485,483,480,478,478,477,476,476,475,475,475,475,475,473,472,471,470,467,467,466,466,466,466,466,465,464,464,464,463,463,462,461,461,461,461,461,461,461,461,461,461,461,461,461,461,461,461,461,461,461,461,461,461,461,461,461,461,461,461,460,460,460,460,460,459,459,459,458,458,458],"ymouse":[604,604,604,604,604,604,604,604,604,604,604,604,604,604,604,604,604,604,604,604,604,604,604,604,604,604,604,604,604,604,604,604,604,604,604,604,604,604,604,604,604,604,604,604,604,604,604,604,604,604,604,604,604,604,604,604,604,604,604,604,604,604,604,604,604,604,604,604,604,604,604,604,604,604,604,604,604,604,604,604,604,604,604,603,603,602,600,595,580,568,556,554,548,520,507,494,485,480,461,449,446,439,428,403,388,372,353,336,308,289,280,272,260,244,237,230,222,213,195,190,181,177,175,171,170,169,168,167,166,165,165,163,160,154,152,149,144,141,138,137,136,135,135,134,132,131,130,128,124,122,120,119,118,116,115,115,115,115,115,115,114,114,114,112,107,106,106,106,106,106,106,106,106,106,106,106,106,106,105,104,104,104,103,102,101,101,101,100,100,99],"timestamp_mouse":[14,38,55,74,96,115,134,154,176,194,214,235,255,275,294,314,335,354,375,394,414,434,455,475,494,515,535,555,575,595,615,634,654,675,695,715,735,755,774,794,816,834,854,874,895,915,934,955,974,994,1015,1034,1055,1074,1096,1115,1135,1154,1175,1195,1215,1235,1255,1274,1294,1315,1334,1355,1375,1395,1415,1435,1455,1475,1495,1515,1535,1555,1575,1594,1615,1634,1654,1675,1694,1714,1734,1755,1774,1794,1814,1835,1854,1874,1894,1915,1935,1954,1974,1994,2014,2035,2055,2074,2094,2114,2134,2155,2174,2194,2214,2234,2254,2274,2295,2314,2334,2355,2374,2395,2415,2434,2455,2474,2494,2515,2534,2555,2574,2594,2615,2634,2654,2675,2695,2714,2734,2754,2774,2794,2814,2836,2854,2874,2894,2915,2935,2954,2975,2996,3014,3035,3055,3075,3094,3115,3134,3155,3175,3195,3214,3235,3254,3274,3294,3314,3335,3355,3375,3394,3414,3434,3454,3474,3495,3515,3534,3555,3574,3595,3615,3635,3655,3675,3694,3715,3734,3755,3774,3794],"xSR":741.5,"ySR":573.95,"xT1":424.9,"yT1":0,"xT2":1058.1,"yT2":0,"toosoon":0,"cond_shown":"randomdotsizeEA","ratio_trial":900,"smaller_num":"18","larger_num":"20","correct_side":2,"subjID":"vALERIAHerreño18","gender":"1","age":"9","school":"4"},{"start_time":1552328331176,"click_time":1552328332311,"finger_time":1552328331691,"fix_duration":1444.271747323801,"trial":27,"RT":515,"MT":620,"sideResp":2,"stimulus":"img/750/randomdotsizeEA/R/7_Ratio_750_L_3_R_4.png","xmouse":[769,769,769,769,769,769,769,769,769,769,769,769,769,769,769,769,769,769,769,769,769,769,765,762,759,753,746,746,748,752,756,761,765,771,777,783,790,812,824,842,860,920,951,1005,1068,1130,1182,1221,1224,1225,1222,1214,1191,1176,1164,1159,1149],"ymouse":[643,643,643,643,643,643,643,643,643,643,643,643,643,643,643,643,643,643,643,643,643,644,633,614,586,542,464,436,412,392,367,290,281,274,268,262,255,240,234,227,222,205,199,191,183,175,168,154,149,133,118,94,66,57,50,49,46],"timestamp_mouse":[15,37,56,76,96,115,136,156,176,195,217,236,255,276,296,315,335,356,375,395,416,435,456,475,496,515,536,556,575,596,615,636,655,676,695,716,735,755,775,796,816,836,855,875,895,916,935,955,976,995,1015,1035,1055,1075,1095,1115,1135],"xSR":741.5,"ySR":573.95,"xT1":424.9,"yT1":0,"xT2":1058.1,"yT2":0,"toosoon":0,"cond_shown":"randomdotsizeEA","ratio_trial":750,"smaller_num":"3","larger_num":"4","correct_side":2,"subjID":"vALERIAHerreño18","gender":"1","age":"9","school":"4"},{"start_time":1552328335869,"click_time":1552328336632,"finger_time":1552328336291,"fix_duration":357.4716603182516,"trial":28,"RT":422,"MT":341,"sideResp":2,"stimulus":"img/250/equaldotanddens/R/11_Ratio_250_L_3_R_12.png","xmouse":[801,801,801,801,801,801,801,801,801,801,801,801,801,801,801,801,801,801,801,802,803,805,805,805,804,803,802,802,805,810,818,828,843,884,912,976,1032,1076,1130],"ymouse":[606,606,606,606,606,606,606,606,606,606,606,606,606,606,606,606,605,602,597,595,586,571,554,509,486,478,455,441,418,400,374,347,315,248,215,167,133,114,97],"timestamp_mouse":[19,26,42,62,83,103,122,143,163,183,202,223,242,263,282,303,322,343,363,382,403,422,442,462,482,502,523,542,562,582,602,622,644,662,682,702,723,742,763],"xSR":741.5,"ySR":573.95,"xT1":424.9,"yT1":0,"xT2":1058.1,"yT2":0,"toosoon":0,"cond_shown":"equaldotanddens","ratio_trial":250,"smaller_num":"3","larger_num":"12","correct_side":2,"subjID":"vALERIAHerreño18","gender":"1","age":"9","school":"4"},{"start_time":1552328339983,"click_time":1552328342211,"finger_time":1552328340292,"fix_duration":1249.9605922752878,"trial":29,"RT":309,"MT":1919,"sideResp":1,"stimulus":"img/900/equaldotanddens/R/7_Ratio_900_L_9_R_10.png","xmouse":[772,772,772,772,772,772,772,772,772,770,770,770,770,770,770,770,770,770,770,770,770,770,770,769,766,764,761,754,750,750,750,750,750,750,750,750,750,750,752,752,752,752,752,752,752,752,752,752,752,752,752,752,752,752,752,752,752,752,758,775,793,813,841,866,873,877,879,882,890,919,931,939,946,951,953,953,953,953,935,911,884,847,809,766,752,742,733,724,695,677,660,641,627,597,585,568,557,551,543,540,537,536,535,535,535,535,535,535,535,534,528,523],"ymouse":[652,652,652,652,652,652,652,652,656,660,664,669,673,673,673,674,674,675,676,676,676,676,676,673,664,653,639,609,587,580,577,576,575,575,575,575,575,575,576,577,579,579,580,580,581,581,581,581,581,581,581,581,581,581,581,581,581,581,574,560,547,532,502,475,468,463,461,457,452,438,433,432,429,428,427,427,425,423,411,404,396,389,378,366,358,352,344,337,312,297,281,266,250,215,196,167,149,139,121,113,108,103,101,99,98,96,95,93,92,91,90,90],"timestamp_mouse":[8,30,61,69,88,108,128,148,168,188,209,230,249,268,289,309,329,349,368,388,408,429,449,468,488,508,529,549,568,588,609,628,649,669,688,708,730,748,768,788,810,828,848,869,889,909,930,949,968,988,1010,1028,1049,1068,1088,1108,1128,1149,1170,1188,1208,1229,1249,1269,1288,1309,1330,1348,1368,1388,1408,1428,1449,1468,1490,1508,1529,1548,1568,1588,1609,1628,1649,1668,1688,1709,1728,1749,1768,1788,1809,1828,1848,1868,1888,1909,1928,1949,1968,1988,2009,2029,2050,2068,2088,2108,2129,2148,2168,2188,2208,2228],"xSR":741.5,"ySR":573.95,"xT1":424.9,"yT1":0,"xT2":1058.1,"yT2":0,"toosoon":0,"cond_shown":"equaldotanddens","ratio_trial":900,"smaller_num":"9","larger_num":"10","correct_side":2,"subjID":"vALERIAHerreño18","gender":"1","age":"9","school":"4"},{"start_time":1552328348951,"click_time":1552328352412,"finger_time":1552328351312,"fix_duration":1199.3887269264712,"trial":30,"RT":2361,"MT":1100,"sideResp":2,"stimulus":"img/750/randomdotsizeEA/R/15_Ratio_750_L_9_R_12.png","xmouse":[744,744,744,744,744,744,744,744,744,744,744,744,744,744,744,744,744,744,744,744,744,744,744,744,744,744,744,744,744,744,744,744,744,744,744,744,744,744,744,744,744,744,744,744,744,744,744,744,744,744,744,744,744,744,744,744,744,744,744,744,744,744,744,744,744,744,744,744,744,744,744,744,744,744,744,744,744,744,744,744,744,744,744,744,744,744,744,744,744,744,744,744,744,744,744,744,744,744,744,744,744,744,744,744,744,744,744,744,744,744,744,744,744,744,744,744,744,742,738,735,735,735,735,733,732,731,731,731,731,731,731,731,731,731,731,733,740,744,749,753,760,781,797,827,855,882,1005,1098,1197,1283,1347,1398,1398,1399,1399,1400,1400,1400,1400,1398,1396,1392,1335,1305,1277,1250,1210,1199,1190,1185,1179,1167,1159,1152],"ymouse":[660,660,660,660,660,660,660,660,660,660,660,660,660,660,660,660,660,660,660,660,660,660,660,660,660,660,660,660,660,660,660,660,660,660,660,660,660,660,660,660,660,660,660,660,660,660,660,660,660,660,660,660,660,660,660,660,660,660,660,660,660,660,660,660,660,660,660,660,660,660,660,660,660,660,660,660,660,660,660,660,660,660,660,660,660,660,660,660,660,660,660,660,660,660,660,660,660,660,660,660,660,660,660,660,660,660,660,660,660,660,660,660,660,660,660,660,660,661,659,657,657,657,657,657,657,657,657,657,657,657,657,657,657,657,653,641,614,601,591,583,573,548,530,499,455,396,264,196,133,84,43,6,6,5,5,4,3,3,3,3,3,3,11,13,13,16,23,27,30,31,35,46,56,68],"timestamp_mouse":[10,34,40,61,80,100,121,140,161,180,200,222,240,260,280,300,321,340,360,380,401,421,440,460,481,500,520,541,560,582,601,621,640,661,680,701,720,740,762,781,800,821,841,860,881,900,920,942,961,980,1001,1020,1040,1060,1081,1101,1120,1140,1161,1181,1200,1221,1240,1260,1281,1302,1321,1341,1360,1382,1400,1421,1440,1461,1480,1500,1522,1541,1560,1581,1601,1620,1641,1661,1680,1700,1720,1741,1760,1780,1802,1820,1841,1860,1881,1901,1920,1940,1962,1982,2001,2020,2041,2061,2081,2101,2121,2140,2161,2180,2201,2220,2240,2261,2281,2301,2321,2340,2361,2381,2400,2420,2441,2460,2481,2500,2521,2541,2561,2580,2601,2620,2640,2661,2681,2700,2720,2740,2760,2780,2801,2820,2840,2861,2881,2901,2921,2940,2960,2980,3001,3020,3040,3062,3081,3100,3122,3141,3161,3180,3200,3220,3241,3260,3280,3300,3320,3340,3360,3380,3401,3422,3440,3460],"xSR":741.5,"ySR":573.95,"xT1":424.9,"yT1":0,"xT2":1058.1,"yT2":0,"toosoon":0,"cond_shown":"randomdotsizeEA","ratio_trial":750,"smaller_num":"9","larger_num":"12","correct_side":2,"subjID":"vALERIAHerreño18","gender":"1","age":"9","school":"4"},{"start_time":1552328354725,"click_time":1552328357511,"finger_time":1552328356771,"fix_duration":250,"trial":31,"RT":2046,"MT":740,"sideResp":2,"stimulus":"img/900/randomdotsizeEA/L/2_Ratio_900_L_20_R_18.png","xmouse":[791,791,791,791,791,791,791,791,791,791,791,791,791,791,791,791,791,791,791,791,791,791,791,791,791,791,791,791,791,791,791,791,791,791,791,791,791,791,791,791,791,791,791,791,791,791,791,791,791,791,791,791,791,791,791,791,791,791,791,791,791,791,791,791,791,791,791,791,791,791,791,791,791,791,791,791,791,791,791,791,791,791,791,789,787,784,781,781,779,775,773,771,771,769,769,768,766,764,758,753,744,743,741,741,741,741,741,741,744,750,764,781,788,814,825,838,848,857,875,881,887,889,896,900,903,907,913,922,944,954,966,983,994,1016,1027,1042,1059,1078,1112,1123],"ymouse":[607,607,607,607,607,607,607,607,607,608,608,608,608,608,608,608,608,608,608,608,608,608,608,608,608,608,608,608,608,608,608,608,608,608,608,608,608,608,608,608,608,608,608,608,608,608,608,608,608,608,608,608,608,608,608,608,608,608,608,608,608,608,608,608,608,608,608,608,608,608,608,608,608,608,608,608,608,608,608,608,608,608,608,605,603,600,598,598,597,594,594,593,592,591,590,590,589,587,582,580,578,578,577,577,577,577,577,575,568,559,545,531,525,468,445,421,402,387,354,343,328,325,315,306,304,298,291,280,253,238,221,201,190,169,159,146,134,124,103,93],"timestamp_mouse":[12,38,47,67,86,107,126,146,166,186,207,227,247,266,287,306,326,346,366,386,406,427,448,466,488,507,527,547,566,586,607,627,646,666,687,707,726,747,766,786,806,827,846,866,888,907,927,947,966,986,1007,1026,1046,1066,1085,1107,1125,1147,1165,1185,1206,1225,1246,1265,1285,1306,1325,1347,1365,1385,1406,1427,1447,1465,1487,1505,1527,1547,1566,1585,1606,1627,1646,1665,1686,1706,1725,1747,1766,1785,1806,1825,1845,1866,1886,1906,1926,1946,1965,1987,2006,2026,2046,2066,2086,2105,2126,2146,2166,2186,2206,2226,2246,2265,2286,2305,2326,2346,2366,2386,2406,2425,2445,2465,2485,2506,2527,2545,2565,2586,2606,2626,2645,2665,2686,2705,2725,2745,2765,2786],"xSR":741.5,"ySR":573.95,"xT1":424.9,"yT1":0,"xT2":1058.1,"yT2":0,"toosoon":0,"cond_shown":"randomdotsizeEA","ratio_trial":900,"smaller_num":"18","larger_num":"20","correct_side":1,"subjID":"vALERIAHerreño18","gender":"1","age":"9","school":"4"},{"start_time":1552328358945,"click_time":1552328360232,"finger_time":1552328359390,"fix_duration":692.0458133669022,"trial":32,"RT":445,"MT":842,"sideResp":1,"stimulus":"img/750/equaldotanddens/L/8_Ratio_750_L_4_R_3.png","xmouse":[789,789,788,781,781,781,781,781,781,781,781,781,779,778,775,773,771,767,763,758,756,753,748,747,746,745,745,745,745,745,745,745,745,745,745,744,742,735,732,732,730,729,728,724,720,711,705,683,649,620,586,548,469,449,436,431,429,429,429,430,432,433,438,441,443],"ymouse":[620,620,620,621,621,621,621,621,621,621,621,621,621,619,616,614,611,606,601,591,584,577,559,555,553,551,551,551,551,551,551,551,551,551,551,551,551,551,551,551,551,551,551,551,548,543,537,504,455,413,366,316,225,201,182,171,165,157,146,137,125,117,104,100,95],"timestamp_mouse":[12,26,46,67,86,106,127,147,166,187,207,226,245,265,287,306,327,345,366,386,406,426,445,466,486,506,526,547,567,586,606,625,645,667,686,706,727,745,765,786,806,825,845,865,886,906,925,946,965,986,1006,1026,1045,1065,1085,1105,1127,1145,1165,1185,1206,1226,1246,1266,1286],"xSR":741.5,"ySR":573.95,"xT1":424.9,"yT1":0,"xT2":1058.1,"yT2":0,"toosoon":0,"cond_shown":"equaldotanddens","ratio_trial":750,"smaller_num":"3","larger_num":"4","correct_side":1,"subjID":"vALERIAHerreño18","gender":"1","age":"9","school":"4"},{"start_time":1552328362251,"click_time":1552328364210,"finger_time":1552328363211,"fix_duration":816.8404623689217,"trial":33,"RT":960,"MT":999,"sideResp":1,"stimulus":"img/750/equaldotanddens/L/8_Ratio_750_L_4_R_3.png","xmouse":[779,779,779,778,777,776,776,775,773,772,771,771,771,771,771,771,771,771,771,771,771,771,771,770,770,770,770,770,770,770,770,770,770,770,770,770,770,770,770,769,769,769,769,769,768,768,768,767,761,756,744,722,679,628,609,593,584,577,571,569,565,560,554,541,537,533,531,529,529,529,529,529,529,529,529,529,529,529,528,528,528,528,528,528,528,528,528,528,528,528,528,528,528,528,528,527,527,525,520],"ymouse":[610,610,610,611,611,611,611,611,610,609,608,608,608,608,608,608,608,608,608,608,608,608,608,607,607,607,607,607,607,607,607,607,607,607,607,607,607,607,607,606,606,605,604,601,597,595,590,581,550,529,504,465,409,358,346,337,330,325,317,312,303,290,272,232,215,202,195,183,181,179,176,172,154,142,128,114,101,92,88,88,88,88,88,88,88,88,88,88,88,88,88,88,88,88,88,87,87,87,89],"timestamp_mouse":[9,20,40,60,81,99,119,140,159,181,201,221,240,259,280,301,321,340,361,379,400,421,440,459,480,500,519,541,560,579,600,619,641,661,680,699,720,741,759,779,800,820,840,861,880,899,920,939,960,980,1000,1020,1040,1060,1080,1099,1120,1140,1160,1180,1199,1219,1239,1260,1280,1300,1320,1340,1359,1381,1401,1419,1440,1459,1480,1499,1520,1540,1561,1580,1601,1620,1639,1659,1679,1700,1719,1740,1760,1780,1799,1819,1840,1860,1880,1900,1920,1939,1959],"xSR":741.5,"ySR":573.95,"xT1":424.9,"yT1":0,"xT2":1058.1,"yT2":0,"toosoon":0,"cond_shown":"equaldotanddens","ratio_trial":750,"smaller_num":"3","larger_num":"4","correct_side":1,"subjID":"vALERIAHerreño18","gender":"1","age":"9","school":"4"},{"start_time":1552328369130,"click_time":1552328370211,"finger_time":1552328369951,"fix_duration":757.0052223911265,"trial":34,"RT":821,"MT":260,"sideResp":2,"stimulus":"img/900/equaldotanddens/R/15_Ratio_900_L_9_R_10.png","xmouse":[752,752,752,752,752,752,752,752,752,752,752,752,752,752,752,752,752,752,752,752,752,752,752,751,750,749,748,748,748,748,748,748,748,748,748,748,748,748,750,770,792,821,865,911,953,962,964,969,974,997,1011,1025,1037,1049,1079],"ymouse":[632,632,632,632,632,632,632,632,632,632,632,632,632,632,632,632,632,632,632,632,633,633,635,637,639,643,645,645,645,645,645,645,645,645,644,642,641,639,634,610,590,567,536,499,420,371,343,316,295,230,198,168,143,122,90],"timestamp_mouse":[10,36,40,60,81,100,121,141,161,181,201,221,242,262,280,301,320,342,360,380,401,420,441,462,480,500,520,540,562,581,602,621,640,660,681,702,720,741,760,781,800,821,841,862,880,901,921,940,960,981,1000,1021,1041,1060,1081],"xSR":741.5,"ySR":573.95,"xT1":424.9,"yT1":0,"xT2":1058.1,"yT2":0,"toosoon":0,"cond_shown":"equaldotanddens","ratio_trial":900,"smaller_num":"9","larger_num":"10","correct_side":2,"subjID":"vALERIAHerreño18","gender":"1","age":"9","school":"4"},{"start_time":1552328372681,"click_time":1552328373930,"finger_time":1552328373531,"fix_duration":250,"trial":35,"RT":850,"MT":399,"sideResp":1,"stimulus":"img/500/randomdotsizeEA/L/11_Ratio_500_L_12_R_6.png","xmouse":[832,832,832,832,832,832,832,832,832,831,830,827,827,827,827,827,827,826,825,823,823,822,821,821,820,820,820,820,820,820,820,820,820,820,820,819,809,801,789,780,773,765,745,731,719,698,654,634,614,594,580,564,556,550,545,538,530,522,522,521,520,517,507],"ymouse":[620,620,620,620,620,620,620,620,620,620,621,625,625,625,625,625,625,625,625,624,622,621,620,620,618,618,618,618,618,618,618,618,618,618,617,617,611,607,602,597,591,583,558,537,515,471,367,328,296,259,233,192,176,162,151,140,132,125,124,122,117,109,87],"timestamp_mouse":[9,35,50,70,89,110,130,150,170,189,210,230,250,271,290,309,329,349,370,389,411,431,449,470,489,510,531,550,570,589,610,631,649,670,690,711,731,750,770,791,810,829,850,870,890,909,931,950,970,989,1009,1031,1049,1070,1090,1111,1130,1151,1170,1189,1209,1230,1249],"xSR":741.5,"ySR":573.95,"xT1":424.9,"yT1":0,"xT2":1058.1,"yT2":0,"toosoon":0,"cond_shown":"randomdotsizeEA","ratio_trial":500,"smaller_num":"6","larger_num":"12","correct_side":1,"subjID":"vALERIAHerreño18","gender":"1","age":"9","school":"4"},{"start_time":1552328375023,"click_time":1552328376311,"finger_time":1552328375950,"fix_duration":250,"trial":36,"RT":927,"MT":361,"sideResp":2,"stimulus":"img/900/equaldotanddens/R/15_Ratio_900_L_9_R_10.png","xmouse":[779,779,779,779,779,779,779,779,779,779,779,779,779,779,779,779,779,779,779,779,779,779,779,779,779,779,779,779,779,779,779,779,779,779,779,779,779,779,779,779,779,779,772,772,775,806,829,850,873,911,946,949,951,953,955,965,971,977,983,994,1009,1019,1035,1057,1084],"ymouse":[640,640,640,640,640,640,640,640,640,640,640,640,640,641,641,641,641,641,641,641,641,641,641,641,641,641,641,641,641,641,641,641,641,641,641,641,641,641,641,641,641,641,637,635,631,588,557,531,495,412,203,128,108,101,94,84,79,75,70,64,59,56,54,51,46],"timestamp_mouse":[12,37,49,68,88,108,128,148,169,187,207,229,249,268,288,307,328,348,367,388,408,429,449,468,487,508,527,548,568,587,607,629,649,669,689,708,728,749,767,787,808,827,848,868,888,908,927,947,968,988,1008,1028,1049,1067,1089,1108,1128,1148,1168,1187,1208,1228,1248,1269,1288],"xSR":741.5,"ySR":573.95,"xT1":424.9,"yT1":0,"xT2":1058.1,"yT2":0,"toosoon":0,"cond_shown":"equaldotanddens","ratio_trial":900,"smaller_num":"9","larger_num":"10","correct_side":2,"subjID":"vALERIAHerreño18","gender":"1","age":"9","school":"4"},{"start_time":1552328378093,"click_time":1552328379351,"finger_time":1552328378992,"fix_duration":761.1589807953378,"trial":37,"RT":899,"MT":359,"sideResp":2,"stimulus":"img/250/randomdotsizeEA/R/4_Ratio_250_L_3_R_12.png","xmouse":[792,792,792,792,792,792,792,792,792,792,792,792,792,792,792,792,792,792,792,792,792,792,792,792,792,792,792,792,792,792,792,792,792,792,792,792,792,792,792,792,792,799,808,823,839,855,922,971,1017,1058,1087,1116,1124,1131,1135,1138,1140,1140,1141,1141,1141,1134,1131],"ymouse":[628,628,628,628,628,628,628,628,628,628,628,628,628,628,628,628,628,628,628,628,628,628,628,628,628,628,628,628,628,628,628,628,628,628,628,628,628,628,628,628,627,610,597,574,550,528,433,379,336,298,270,239,228,219,211,205,187,174,157,141,126,101,94],"timestamp_mouse":[19,42,59,79,98,118,138,157,179,198,217,237,259,277,297,317,338,359,377,397,418,437,458,477,498,517,537,557,578,598,619,638,657,678,699,717,738,759,779,798,819,837,858,878,899,917,937,958,978,998,1018,1038,1058,1079,1098,1119,1138,1158,1178,1197,1218,1238,1257],"xSR":741.5,"ySR":573.95,"xT1":424.9,"yT1":0,"xT2":1058.1,"yT2":0,"toosoon":0,"cond_shown":"randomdotsizeEA","ratio_trial":250,"smaller_num":"3","larger_num":"12","correct_side":2,"subjID":"vALERIAHerreño18","gender":"1","age":"9","school":"4"},{"start_time":1552328380644,"click_time":1552328382531,"finger_time":1552328381970,"fix_duration":250,"trial":38,"RT":1326,"MT":561,"sideResp":2,"stimulus":"img/500/randomdotsizeEA/R/9_Ratio_500_L_2_R_4.png","xmouse":[804,804,804,804,803,802,800,800,800,800,800,800,800,800,800,800,800,800,800,800,800,800,800,800,800,800,800,799,799,799,799,799,799,799,799,799,799,799,799,799,799,799,798,798,797,797,796,796,796,796,796,796,795,795,795,795,792,788,788,788,788,788,788,787,790,809,826,852,873,905,911,912,912,912,912,919,939,961,982,1005,1008,1008,1009,1009,1010,1011,1012,1013,1014,1015,1025,1031,1040,1052,1061],"ymouse":[611,611,611,612,616,620,625,626,626,626,626,626,626,626,626,626,626,626,626,626,626,626,626,626,626,626,626,627,627,627,627,627,627,627,627,627,627,627,627,627,627,627,626,625,621,621,621,620,620,620,620,620,620,620,620,619,616,614,613,613,613,613,613,612,603,579,560,532,508,452,421,387,356,329,271,229,193,162,140,108,101,96,93,90,85,80,78,76,75,74,71,70,68,64,63],"timestamp_mouse":[12,38,47,68,86,106,127,147,166,187,206,226,248,268,288,307,326,348,368,388,406,426,447,467,488,508,526,546,568,587,606,627,646,667,688,707,727,748,767,788,806,827,847,868,888,906,926,948,968,986,1006,1028,1048,1068,1087,1106,1126,1148,1168,1187,1207,1226,1246,1267,1287,1308,1326,1347,1366,1387,1406,1426,1447,1467,1488,1506,1527,1548,1567,1587,1607,1627,1647,1666,1687,1706,1727,1747,1767,1786,1807,1826,1848,1867,1887],"xSR":741.5,"ySR":573.95,"xT1":424.9,"yT1":0,"xT2":1058.1,"yT2":0,"toosoon":0,"cond_shown":"randomdotsizeEA","ratio_trial":500,"smaller_num":"2","larger_num":"4","correct_side":2,"subjID":"vALERIAHerreño18","gender":"1","age":"9","school":"4"},{"start_time":1552328384501,"click_time":1552328387412,"finger_time":1552328386131,"fix_duration":1329.1513841026538,"trial":39,"RT":1630,"MT":1281,"sideResp":2,"stimulus":"img/750/randomdotsizeEA/L/6_Ratio_750_L_24_R_18.png","xmouse":[801,801,801,801,801,801,801,801,801,801,801,801,801,801,801,801,801,801,801,801,801,801,801,801,801,801,801,801,801,801,801,801,801,801,801,801,801,801,801,801,801,801,801,801,801,801,801,801,801,801,801,801,801,801,801,801,801,801,801,801,801,801,801,801,801,801,801,801,801,801,801,803,804,805,805,807,808,813,819,824,833,851,876,887,895,903,912,931,940,950,963,967,989,995,1001,1004,1006,1009,1010,1011,1013,1014,1015,1019,1020,1021,1023,1028,1030,1032,1036,1040,1045,1049,1050,1054,1060,1064,1065,1067,1069,1071,1073,1075,1075,1076,1076,1076,1076,1076,1076,1077,1078,1079,1079,1080,1081,1081,1081,1081,1082,1082,1087,1090,1093,1095],"ymouse":[639,639,639,639,639,639,639,639,639,639,639,639,639,639,639,639,639,639,639,639,639,639,639,639,639,639,639,639,639,639,639,639,639,639,639,639,639,639,639,639,639,639,639,639,639,639,639,639,639,639,639,639,639,639,639,639,639,639,639,639,639,639,639,639,639,639,639,639,639,639,638,635,633,631,630,628,625,616,608,600,585,557,508,487,467,448,427,380,361,339,311,301,253,239,226,217,212,205,203,202,200,198,196,195,194,194,193,190,189,188,187,185,183,182,181,179,176,172,170,168,164,161,158,156,155,154,153,153,153,153,153,153,151,150,148,147,145,144,144,144,143,140,126,114,103,95],"timestamp_mouse":[20,36,50,69,89,110,129,150,169,189,210,230,250,269,289,310,331,349,370,390,410,429,450,471,489,510,530,551,569,589,610,631,651,671,689,710,731,749,769,791,810,831,850,869,890,911,931,949,970,991,1011,1030,1051,1070,1091,1111,1130,1149,1169,1190,1210,1231,1250,1270,1290,1311,1331,1350,1370,1390,1411,1431,1451,1470,1490,1509,1529,1550,1571,1590,1609,1630,1650,1669,1690,1709,1729,1750,1770,1790,1810,1830,1850,1870,1889,1910,1930,1950,1971,1990,2009,2029,2050,2070,2089,2109,2130,2149,2171,2190,2211,2230,2249,2271,2290,2309,2331,2350,2371,2390,2409,2429,2449,2469,2489,2510,2531,2550,2571,2590,2610,2630,2650,2670,2690,2711,2730,2750,2770,2789,2809,2830,2849,2870,2891,2911],"xSR":741.5,"ySR":573.95,"xT1":424.9,"yT1":0,"xT2":1058.1,"yT2":0,"toosoon":0,"cond_shown":"randomdotsizeEA","ratio_trial":750,"smaller_num":"18","larger_num":"24","correct_side":1,"subjID":"vALERIAHerreño18","gender":"1","age":"9","school":"4"},{"start_time":1552328393595,"click_time":1552328395311,"finger_time":1552328394371,"fix_duration":284.99768161246766,"trial":40,"RT":776,"MT":940,"sideResp":1,"stimulus":"img/250/randomdotsizeEA/R/13_Ratio_250_L_2_R_8.png","xmouse":[773,773,773,773,773,773,773,773,773,773,773,773,773,773,773,773,773,773,768,765,765,764,764,764,764,764,764,764,764,764,764,764,764,762,761,761,759,758,755,754,753,751,747,742,741,739,737,736,732,728,725,718,707,679,671,663,657,651,637,633,632,631,629,625,616,601,585,569,526,500,475,453,442,438,437,435,434,434,434,434,436,442,455,456,457,457],"ymouse":[640,640,640,639,639,639,639,639,639,639,639,639,639,639,639,639,636,633,616,611,608,607,607,607,607,607,607,607,607,607,607,605,603,596,593,589,584,578,568,561,552,545,538,526,521,513,508,504,491,480,464,444,419,371,357,343,331,322,303,297,295,294,292,286,275,263,253,243,224,215,203,195,189,184,178,174,170,168,159,155,146,138,115,108,102,99],"timestamp_mouse":[34,36,57,76,97,117,136,156,175,196,215,236,256,275,296,316,336,355,375,395,416,436,455,476,496,515,537,556,576,595,616,637,655,677,696,716,737,756,776,796,816,836,856,875,896,917,936,956,976,997,1016,1035,1055,1077,1096,1116,1135,1156,1176,1196,1216,1236,1255,1275,1296,1316,1335,1355,1375,1396,1415,1436,1455,1475,1496,1517,1537,1557,1576,1596,1616,1636,1656,1675,1696,1716],"xSR":741.5,"ySR":573.95,"xT1":424.9,"yT1":0,"xT2":1058.1,"yT2":0,"toosoon":0,"cond_shown":"randomdotsizeEA","ratio_trial":250,"smaller_num":"2","larger_num":"8","correct_side":2,"subjID":"vALERIAHerreño18","gender":"1","age":"9","school":"4"},{"start_time":1552328397270,"click_time":1552328398511,"finger_time":1552328397431,"fix_duration":816.7474672501638,"trial":41,"RT":161,"MT":1080,"sideResp":2,"stimulus":"img/250/equaldotsize/R/13_Ratio_250_L_2_R_8.png","xmouse":[750,750,750,754,760,775,782,792,810,823,861,878,884,897,914,963,1007,1038,1055,1073,1100,1112,1122,1128,1130,1131,1131,1131,1131,1129,1111,1101,1096,1094,1093,1085,1081,1078,1076,1075,1081,1089,1095,1095,1098,1107,1110,1110,1110,1110,1110,1110,1110,1110,1110,1110,1110,1110,1110,1110,1110,1109,1108],"ymouse":[642,642,642,635,629,611,602,587,560,541,505,495,486,476,466,427,397,367,341,315,273,253,236,223,217,215,215,215,215,215,217,218,218,218,213,193,181,172,166,161,152,149,148,148,145,126,114,106,102,102,102,102,102,102,102,102,102,102,102,102,100,100,99],"timestamp_mouse":[9,33,40,61,81,101,120,141,161,180,200,221,241,262,280,300,322,342,360,381,400,421,441,461,480,501,521,541,561,580,600,621,640,660,681,701,722,741,762,780,800,820,840,861,881,901,921,941,961,981,1000,1021,1041,1061,1081,1101,1120,1140,1161,1181,1200,1221,1241],"xSR":741.5,"ySR":573.95,"xT1":424.9,"yT1":0,"xT2":1058.1,"yT2":0,"toosoon":0,"cond_shown":"equaldotsize","ratio_trial":250,"smaller_num":"2","larger_num":"8","correct_side":2,"subjID":"vALERIAHerreño18","gender":"1","age":"9","school":"4"},{"start_time":1552328400399,"click_time":1552328401811,"finger_time":1552328401170,"fix_duration":907.1452848750139,"trial":42,"RT":771,"MT":641,"sideResp":1,"stimulus":"img/500/equaldotsize/L/5_Ratio_500_L_4_R_2.png","xmouse":[791,791,791,791,791,791,791,791,791,791,791,791,791,791,791,791,791,791,791,791,791,791,791,791,791,791,791,791,791,791,791,791,791,791,791,791,788,778,725,673,602,570,552,544,541,539,535,531,526,510,501,493,489,484,476,470,467,463,461,459,459,459,459,459,460,460,460,460,460,461,463],"ymouse":[605,605,605,605,605,605,605,605,605,605,605,605,605,605,604,604,603,603,603,603,603,603,603,603,603,603,603,603,603,603,603,603,603,603,603,598,591,574,501,425,343,317,301,293,285,280,267,256,246,219,207,198,190,181,159,143,134,128,124,118,114,111,108,106,105,105,105,105,103,102,96],"timestamp_mouse":[11,46,51,72,92,111,131,151,172,191,213,233,251,273,293,312,332,353,372,392,412,433,453,471,492,513,533,551,572,593,612,633,651,672,692,712,733,752,771,792,812,833,852,873,891,911,932,952,972,991,1012,1031,1051,1072,1091,1111,1132,1152,1172,1191,1212,1232,1252,1272,1292,1312,1331,1351,1371,1392,1411],"xSR":741.5,"ySR":573.95,"xT1":424.9,"yT1":0,"xT2":1058.1,"yT2":0,"toosoon":0,"cond_shown":"equaldotsize","ratio_trial":500,"smaller_num":"2","larger_num":"4","correct_side":1,"subjID":"vALERIAHerreño18","gender":"1","age":"9","school":"4"},{"start_time":1552328415213,"click_time":1552328416310,"finger_time":1552328415850,"fix_duration":1160.2797330946921,"trial":43,"RT":637,"MT":460,"sideResp":1,"stimulus":"img/500/equaldotsize/L/10_Ratio_500_L_4_R_2.png","xmouse":[804,804,804,804,804,804,804,804,804,804,804,804,804,804,804,804,804,804,804,804,805,805,805,805,805,806,806,806,806,806,805,799,789,775,753,683,641,592,533,508,506,505,505,504,504,501,497,493,488,475,473,472,470,468,465],"ymouse":[589,589,589,589,589,589,589,589,589,589,589,589,589,589,589,589,589,589,589,589,589,589,589,588,588,588,587,587,585,584,576,567,557,543,524,450,380,314,227,193,188,187,185,182,179,167,157,148,137,116,112,108,107,101,95],"timestamp_mouse":[18,39,58,77,98,118,138,158,179,198,217,238,258,279,297,318,338,357,378,397,418,438,457,477,498,516,537,556,577,597,616,637,657,676,697,717,738,757,778,798,816,837,856,876,896,916,938,957,977,998,1016,1036,1056,1076,1097],"xSR":741.5,"ySR":573.95,"xT1":424.9,"yT1":0,"xT2":1058.1,"yT2":0,"toosoon":0,"cond_shown":"equaldotsize","ratio_trial":500,"smaller_num":"2","larger_num":"4","correct_side":1,"subjID":"vALERIAHerreño18","gender":"1","age":"9","school":"4"},{"start_time":1552328418509,"click_time":1552328420449,"finger_time":1552328419130,"fix_duration":1017.5437747450936,"trial":44,"RT":621,"MT":1319,"sideResp":2,"stimulus":"img/750/equaldotsize/R/4_Ratio_750_L_15_R_20.png","xmouse":[771,771,771,769,767,766,761,755,752,751,751,751,751,751,751,751,751,751,751,751,751,751,751,751,751,751,752,767,785,804,824,860,884,920,960,971,982,992,1003,1009,1014,1015,1015,1013,1009,1007,1006,1005,1005,1005,1005,1005,1005,1005,1005,1005,1007,1007,1009,1010,1011,1013,1013,1013,1013,1014,1015,1016,1017,1017,1017,1018,1020,1021,1022,1023,1023,1024,1025,1026,1027,1029,1031,1034,1036,1037,1040,1041,1041,1042,1042,1046,1051,1053,1055,1056,1058,1059],"ymouse":[628,629,629,632,637,638,647,654,659,661,661,661,661,661,661,661,661,661,661,661,661,661,661,661,661,661,662,659,653,644,633,602,578,544,492,464,397,364,331,305,287,264,252,249,240,235,233,228,227,227,227,227,226,221,221,218,194,190,184,179,171,160,156,155,152,147,135,126,120,114,110,105,102,99,97,96,95,93,91,90,89,84,83,76,74,72,67,67,65,65,65,63,62,62,62,62,62,62],"timestamp_mouse":[9,36,41,61,81,101,120,141,162,180,201,221,240,261,280,301,320,341,362,380,402,421,440,461,480,500,520,541,561,580,600,621,641,661,681,700,720,740,762,780,802,820,840,861,881,901,920,941,960,981,1001,1020,1041,1062,1081,1100,1120,1141,1160,1180,1201,1220,1240,1261,1281,1300,1320,1340,1361,1381,1400,1420,1440,1461,1480,1500,1520,1540,1560,1580,1601,1621,1640,1662,1681,1701,1720,1741,1760,1781,1800,1820,1841,1861,1881,1900,1920,1940],"xSR":741.5,"ySR":573.95,"xT1":424.9,"yT1":0,"xT2":1058.1,"yT2":0,"toosoon":0,"cond_shown":"equaldotsize","ratio_trial":750,"smaller_num":"15","larger_num":"20","correct_side":2,"subjID":"vALERIAHerreño18","gender":"1","age":"9","school":"4"},{"start_time":1552328427061,"click_time":1552328428670,"finger_time":1552328427749,"fix_duration":250,"trial":45,"RT":688,"MT":921,"sideResp":2,"stimulus":"img/250/equaldotsize/R/9_Ratio_250_L_3_R_12.png","xmouse":[781,781,781,781,781,781,781,781,781,781,781,781,781,781,781,781,781,781,781,781,781,781,781,781,781,781,781,781,781,781,781,781,784,789,824,851,862,856,831,804,804,804,816,826,842,848,857,873,896,927,1005,1076,1109,1139,1164,1164,1165,1165,1166,1167,1168,1168,1168,1169,1170,1170,1170,1170,1170,1170,1170,1170,1170,1170,1170,1170,1170,1170,1167,1159,1154],"ymouse":[607,607,607,607,607,607,607,607,607,607,607,607,607,607,607,607,607,607,607,607,607,607,607,607,607,607,607,607,607,607,607,606,600,592,531,464,401,331,257,153,114,105,85,75,59,52,42,31,19,6,0,0,0,0,0,0,0,0,1,8,31,43,58,69,75,76,76,76,76,76,76,76,76,76,76,76,76,76,77,78,78],"timestamp_mouse":[10,35,49,69,89,109,129,148,168,188,208,229,249,268,290,308,329,348,369,388,409,429,450,469,489,508,528,550,568,589,609,629,648,668,688,709,729,749,769,788,808,828,849,868,888,909,930,949,969,988,1008,1028,1049,1069,1089,1108,1128,1148,1169,1189,1208,1228,1249,1269,1289,1308,1328,1350,1368,1388,1409,1429,1449,1468,1490,1509,1530,1549,1568,1591,1609],"xSR":741.5,"ySR":573.95,"xT1":424.9,"yT1":0,"xT2":1058.1,"yT2":0,"toosoon":0,"cond_shown":"equaldotsize","ratio_trial":250,"smaller_num":"3","larger_num":"12","correct_side":2,"subjID":"vALERIAHerreño18","gender":"1","age":"9","school":"4"},{"start_time":1552328431352,"click_time":1552328432810,"finger_time":1552328431770,"fix_duration":1460.1115561564961,"trial":46,"RT":418,"MT":1040,"sideResp":1,"stimulus":"img/900/randomdotsizeEA/R/11_Ratio_900_L_18_R_20.png","xmouse":[803,803,803,803,803,803,803,803,803,803,803,803,801,800,797,793,792,792,792,792,805,811,815,820,822,822,822,819,816,810,788,770,752,738,723,702,700,700,700,695,690,683,675,666,640,635,631,626,621,614,598,593,587,584,578,574,572,569,564,560,546,534,520,507,494,487,487,486,486,486,486,486,486],"ymouse":[641,641,639,639,639,636,635,634,632,628,626,622,618,616,612,607,605,603,596,581,538,515,497,481,466,447,439,430,424,419,409,405,401,399,397,390,390,390,390,384,373,364,353,342,310,300,284,265,247,230,204,196,186,181,172,167,165,163,163,162,162,162,160,154,147,141,136,132,126,122,110,103,93],"timestamp_mouse":[37,37,59,79,98,118,138,159,178,198,218,237,258,278,298,318,337,359,378,397,418,437,457,478,498,517,539,559,578,597,617,637,657,677,697,718,737,758,777,798,818,838,857,878,898,918,938,957,977,997,1017,1039,1058,1077,1098,1118,1137,1158,1177,1197,1217,1238,1257,1278,1297,1318,1337,1358,1377,1398,1417,1438,1458],"xSR":741.5,"ySR":573.95,"xT1":424.9,"yT1":0,"xT2":1058.1,"yT2":0,"toosoon":0,"cond_shown":"randomdotsizeEA","ratio_trial":900,"smaller_num":"18","larger_num":"20","correct_side":2,"subjID":"vALERIAHerreño18","gender":"1","age":"9","school":"4"},{"start_time":1552328434938,"click_time":1552328436170,"finger_time":1552328435649,"fix_duration":986.5994996397327,"trial":47,"RT":711,"MT":521,"sideResp":2,"stimulus":"img/500/equaldotanddens/R/3_Ratio_500_L_10_R_20.png","xmouse":[783,783,783,783,783,783,783,783,783,783,783,783,783,783,782,782,782,782,782,782,782,782,782,782,782,782,782,782,782,782,782,782,783,788,806,837,868,878,887,902,918,992,1055,1151,1200,1224,1238,1239,1239,1239,1236,1220,1211,1201,1199,1197,1192,1187,1181,1172,1162,1152],"ymouse":[610,610,610,610,610,610,610,610,610,610,610,610,610,610,610,610,610,610,610,610,610,610,610,610,610,610,610,610,610,610,610,610,608,602,580,545,491,470,449,428,412,354,309,239,195,164,116,99,83,67,47,5,0,0,0,0,0,0,1,7,13,18],"timestamp_mouse":[14,44,52,71,91,112,132,151,172,192,211,232,252,271,292,311,331,352,371,392,413,431,452,472,491,511,531,553,571,592,611,633,652,672,691,711,731,751,772,792,811,832,852,872,892,912,932,952,972,992,1011,1031,1051,1071,1092,1112,1132,1151,1172,1192,1212,1232],"xSR":741.5,"ySR":573.95,"xT1":424.9,"yT1":0,"xT2":1058.1,"yT2":0,"toosoon":0,"cond_shown":"equaldotanddens","ratio_trial":500,"smaller_num":"10","larger_num":"20","correct_side":2,"subjID":"vALERIAHerreño18","gender":"1","age":"9","school":"4"},{"start_time":1552328438019,"click_time":1552328439910,"finger_time":1552328439270,"fix_duration":927.6145950432108,"trial":48,"RT":1251,"MT":640,"sideResp":1,"stimulus":"img/750/equaldotanddens/L/14_Ratio_750_L_8_R_6.png","xmouse":[765,765,765,765,765,765,765,765,765,765,765,765,765,765,765,765,765,765,766,766,767,767,767,767,767,767,767,767,767,767,767,767,767,767,767,767,767,767,767,767,767,767,767,767,767,767,767,767,767,767,767,767,767,767,767,767,767,767,767,767,767,767,753,747,742,736,733,727,723,720,716,710,693,683,668,648,626,570,533,517,502,491,478,474,473,473,472,471,471,472,474,476,481,482,485],"ymouse":[615,615,615,615,615,615,615,615,615,615,615,615,615,615,615,615,615,615,611,608,607,605,604,604,604,604,604,604,604,604,604,604,604,604,604,604,604,604,604,604,604,604,604,604,604,604,604,604,604,604,604,604,604,604,604,604,604,604,599,596,592,585,552,537,522,511,504,493,484,478,469,460,436,423,411,396,379,329,283,259,236,215,182,173,165,159,154,142,133,127,122,115,105,100,95],"timestamp_mouse":[13,38,51,71,91,112,131,150,170,190,212,230,250,272,291,311,331,351,371,390,412,430,451,471,490,510,532,552,572,591,611,631,652,670,691,710,731,751,772,791,811,830,851,870,892,911,931,950,971,990,1012,1030,1051,1070,1090,1111,1132,1151,1170,1191,1211,1231,1251,1270,1291,1311,1331,1351,1370,1392,1411,1430,1451,1471,1491,1511,1531,1551,1570,1590,1611,1631,1651,1670,1690,1710,1732,1751,1771,1790,1811,1830,1851,1870,1891],"xSR":741.5,"ySR":573.95,"xT1":424.9,"yT1":0,"xT2":1058.1,"yT2":0,"toosoon":0,"cond_shown":"equaldotanddens","ratio_trial":750,"smaller_num":"6","larger_num":"8","correct_side":1,"subjID":"vALERIAHerreño18","gender":"1","age":"9","school":"4"},{"start_time":1552328445901,"click_time":1552328446709,"finger_time":1552328446489,"fix_duration":250,"trial":49,"RT":588,"MT":220,"sideResp":2,"stimulus":"img/500/equaldotsize/R/6_Ratio_500_L_9_R_18.png","xmouse":[792,792,792,792,792,792,792,792,792,792,792,792,792,792,792,792,792,792,792,792,792,792,792,792,792,792,803,820,840,860,888,908,933,971,1045,1071,1081,1082,1081,1078,1078],"ymouse":[623,623,623,623,623,623,623,623,623,623,623,623,623,623,623,623,623,623,623,623,623,623,623,623,623,618,604,594,586,578,556,526,483,414,266,205,165,139,120,101,77],"timestamp_mouse":[13,34,49,68,90,110,129,149,168,188,208,230,249,268,289,308,328,348,368,388,410,429,449,469,489,508,529,549,569,588,608,629,648,668,689,709,729,750,769,788,808],"xSR":741.5,"ySR":573.95,"xT1":424.9,"yT1":0,"xT2":1058.1,"yT2":0,"toosoon":0,"cond_shown":"equaldotsize","ratio_trial":500,"smaller_num":"9","larger_num":"18","correct_side":2,"subjID":"vALERIAHerreño18","gender":"1","age":"9","school":"4"},{"start_time":1552328450487,"click_time":1552328451709,"finger_time":1552328450909,"fix_duration":554.1978530566792,"trial":50,"RT":422,"MT":800,"sideResp":2,"stimulus":"img/750/equaldotsize/R/15_Ratio_750_L_9_R_12.png","xmouse":[789,789,789,789,789,789,790,790,790,790,790,790,791,791,791,793,794,795,795,797,798,800,801,803,803,804,804,804,804,805,806,808,808,810,812,814,819,822,825,830,837,858,864,871,878,885,889,890,896,905,908,906,905,904,902,902,902,902,904,927,974,1082],"ymouse":[595,595,595,593,593,592,591,591,591,591,591,590,589,588,586,584,581,580,579,576,575,572,570,569,569,568,568,568,568,567,566,563,562,560,555,543,517,502,483,465,443,384,359,333,314,300,292,288,279,256,242,222,216,212,207,203,191,185,176,145,113,56],"timestamp_mouse":[12,38,44,63,82,103,122,144,163,182,203,223,243,263,284,303,324,344,363,383,403,422,442,462,482,503,523,543,563,582,603,622,643,663,682,703,723,742,763,782,802,822,843,862,883,904,923,942,963,982,1002,1022,1043,1062,1082,1102,1122,1143,1162,1184,1203,1222],"xSR":741.5,"ySR":573.95,"xT1":424.9,"yT1":0,"xT2":1058.1,"yT2":0,"toosoon":0,"cond_shown":"equaldotsize","ratio_trial":750,"smaller_num":"9","larger_num":"12","correct_side":2,"subjID":"vALERIAHerreño18","gender":"1","age":"9","school":"4"},{"start_time":1552328455928,"click_time":1552328456931,"finger_time":1552328456310,"fix_duration":1097.3546293891225,"trial":51,"RT":382,"MT":621,"sideResp":2,"stimulus":"img/500/equaldotanddens/R/9_Ratio_500_L_2_R_4.png","xmouse":[793,793,793,793,793,793,793,793,793,793,793,793,793,793,793,793,793,793,794,810,825,841,871,900,946,972,984,990,995,999,1000,1001,1001,1002,1006,1010,1014,1014,1014,1014,1014,1014,1016,1019,1023,1023,1023,1023,1026,1053,1066],"ymouse":[589,589,589,589,589,589,589,589,589,589,589,589,589,589,589,589,589,587,582,563,551,535,510,467,307,184,115,76,52,25,20,20,19,18,17,15,14,14,14,14,14,29,50,66,77,77,77,77,77,72,66],"timestamp_mouse":[9,34,42,61,82,101,122,143,161,182,202,222,241,261,282,302,322,341,363,382,402,422,442,462,482,501,522,542,562,582,601,622,641,663,682,703,721,741,762,782,802,823,843,863,881,903,923,943,962,981,1003],"xSR":741.5,"ySR":573.95,"xT1":424.9,"yT1":0,"xT2":1058.1,"yT2":0,"toosoon":0,"cond_shown":"equaldotanddens","ratio_trial":500,"smaller_num":"2","larger_num":"4","correct_side":2,"subjID":"vALERIAHerreño18","gender":"1","age":"9","school":"4"},{"start_time":1552328459072,"click_time":1552328460810,"finger_time":1552328459590,"fix_duration":881.9918924683208,"trial":52,"RT":518,"MT":1220,"sideResp":2,"stimulus":"img/750/equaldotsize/R/15_Ratio_750_L_9_R_12.png","xmouse":[821,821,821,821,821,821,821,821,821,820,818,806,802,800,797,796,795,793,792,791,789,787,787,786,783,781,775,772,771,771,771,771,771,771,771,771,771,771,771,771,771,771,771,771,771,771,771,771,771,773,774,776,784,792,797,799,801,801,801,801,801,801,821,847,881,917,974,985,989,994,1003,1012,1032,1040,1047,1050,1052,1053,1053,1053,1053,1053,1053,1053,1054,1056,1059],"ymouse":[601,601,601,601,601,601,601,601,601,602,602,602,602,602,602,602,602,600,599,599,596,593,589,584,580,570,555,547,545,545,545,545,545,545,545,545,545,545,545,545,545,545,545,544,542,537,532,526,523,521,518,516,503,493,484,480,477,475,475,475,475,474,445,417,383,340,262,244,220,194,164,138,103,89,77,68,59,52,52,52,52,52,52,52,50,49,46],"timestamp_mouse":[17,38,57,77,99,117,138,159,178,197,218,238,257,278,298,318,338,358,378,399,418,438,458,478,498,518,538,557,577,598,619,638,658,678,699,718,738,757,777,798,818,838,859,878,897,917,937,957,978,998,1017,1038,1058,1078,1098,1117,1138,1158,1178,1199,1218,1238,1258,1278,1297,1318,1338,1357,1377,1398,1417,1437,1457,1478,1498,1517,1539,1557,1578,1599,1618,1637,1658,1678,1697,1719,1738],"xSR":741.5,"ySR":573.95,"xT1":424.9,"yT1":0,"xT2":1058.1,"yT2":0,"toosoon":0,"cond_shown":"equaldotsize","ratio_trial":750,"smaller_num":"9","larger_num":"12","correct_side":2,"subjID":"vALERIAHerreño18","gender":"1","age":"9","school":"4"},{"start_time":1552328470082,"click_time":1552328472850,"finger_time":1552328470950,"fix_duration":710.8559039066349,"trial":53,"RT":868,"MT":1900,"sideResp":1,"stimulus":"img/750/randomdotsizeEA/R/4_Ratio_750_L_15_R_20.png","xmouse":[764,764,764,764,764,764,764,764,764,764,764,763,763,763,763,763,762,762,762,762,762,762,762,762,762,762,762,762,762,762,762,762,762,762,762,762,762,762,762,762,762,766,770,775,782,788,795,800,807,809,810,810,810,810,810,808,799,789,752,701,651,610,574,521,509,504,501,499,487,473,469,460,457,454,452,449,447,445,442,441,441,441,441,441,441,441,441,441,441,441,441,441,441,442,442,442,442,442,442,442,442,442,442,442,442,442,442,442,441,440,440,440,439,439,439,439,439,439,439,439,439,439,439,439,439,439,439,439,439,439,439,440,441,442,442,442,442,442,442],"ymouse":[622,622,622,622,622,622,622,622,622,622,622,621,620,619,617,615,613,612,609,608,608,608,608,608,608,608,608,608,608,608,608,608,608,608,608,608,608,608,608,605,602,595,586,572,558,543,530,512,474,462,457,455,453,451,440,432,418,407,384,362,347,336,322,307,302,299,296,292,277,258,252,238,229,219,196,175,159,145,133,131,131,130,129,126,124,124,123,122,121,120,120,117,117,116,115,115,115,115,115,115,115,115,115,115,115,115,115,115,110,106,106,105,104,104,104,104,104,104,104,104,104,104,104,104,104,104,104,104,104,103,103,101,100,100,100,100,100,100,99],"timestamp_mouse":[12,33,47,67,87,108,128,148,168,187,208,228,247,269,288,307,327,348,368,387,409,428,447,468,487,507,527,549,569,588,608,629,647,669,687,707,727,748,769,788,808,828,849,868,888,908,928,949,968,987,1009,1029,1048,1067,1088,1107,1128,1148,1167,1187,1208,1227,1247,1268,1288,1308,1328,1347,1367,1387,1408,1428,1449,1467,1487,1507,1528,1547,1567,1587,1608,1628,1647,1667,1687,1707,1727,1749,1768,1789,1808,1828,1848,1867,1887,1908,1928,1949,1968,1987,2008,2027,2049,2068,2089,2107,2128,2148,2167,2187,2208,2227,2248,2268,2288,2308,2327,2347,2368,2387,2408,2428,2449,2468,2488,2508,2528,2547,2568,2588,2608,2628,2647,2668,2687,2709,2728,2747,2768],"xSR":741.5,"ySR":573.95,"xT1":424.9,"yT1":0,"xT2":1058.1,"yT2":0,"toosoon":0,"cond_shown":"randomdotsizeEA","ratio_trial":750,"smaller_num":"15","larger_num":"20","correct_side":2,"subjID":"vALERIAHerreño18","gender":"1","age":"9","school":"4"},{"start_time":1552328479092,"click_time":1552328480869,"finger_time":1552328479929,"fix_duration":1481.3518530218507,"trial":54,"RT":837,"MT":940,"sideResp":1,"stimulus":"img/750/equaldotanddens/L/9_Ratio_750_L_4_R_3.png","xmouse":[800,800,800,800,800,800,800,800,800,800,800,800,800,800,800,800,800,800,800,800,800,800,800,800,800,800,800,800,800,800,800,800,800,800,800,800,800,800,800,800,797,788,777,748,732,713,699,696,696,696,696,695,693,690,690,688,687,680,670,658,647,636,627,613,605,599,590,585,577,575,571,569,567,563,559,554,549,542,537,534,531,529,529,528,528,528,528,527,524],"ymouse":[577,577,577,577,577,577,577,577,577,577,577,577,577,577,577,577,577,577,577,577,577,577,577,577,577,577,577,577,577,577,577,577,577,577,577,577,577,577,577,577,574,567,561,550,545,539,536,536,536,536,536,536,536,535,535,534,533,525,503,482,459,436,415,370,347,328,304,292,274,269,263,257,252,237,226,214,202,185,166,152,133,117,105,93,89,86,82,81,75],"timestamp_mouse":[16,46,56,76,98,118,136,157,176,196,217,237,257,276,296,316,336,356,376,396,416,436,456,476,496,517,536,557,578,596,616,636,657,677,696,717,737,757,777,796,817,837,857,876,898,918,936,956,976,997,1016,1037,1057,1076,1097,1117,1136,1156,1176,1196,1216,1238,1257,1277,1296,1316,1336,1358,1377,1397,1416,1436,1457,1476,1497,1517,1537,1557,1576,1596,1617,1636,1657,1676,1696,1716,1738,1756,1777],"xSR":741.5,"ySR":573.95,"xT1":424.9,"yT1":0,"xT2":1058.1,"yT2":0,"toosoon":0,"cond_shown":"equaldotanddens","ratio_trial":750,"smaller_num":"3","larger_num":"4","correct_side":1,"subjID":"vALERIAHerreño18","gender":"1","age":"9","school":"4"},{"start_time":1552328483238,"click_time":1552328484829,"finger_time":1552328484389,"fix_duration":1188.978320502647,"trial":55,"RT":1151,"MT":440,"sideResp":2,"stimulus":"img/900/randomdotsizeEA/R/13_Ratio_900_L_18_R_20.png","xmouse":[785,785,785,785,785,785,785,785,785,785,785,785,785,785,785,785,785,785,785,785,785,785,785,785,785,785,785,785,785,785,785,785,785,785,785,785,785,785,785,785,785,785,785,785,785,785,785,785,785,785,785,785,785,785,785,784,770,743,721,696,678,657,653,651,649,649,648,647,647,647,647,653,663,684,722,780,912,1010,1070,1110],"ymouse":[611,611,611,611,611,611,611,611,611,611,611,611,611,611,611,611,611,611,611,611,611,611,611,611,611,611,611,611,611,611,611,611,611,611,611,611,611,611,611,611,611,611,611,611,611,611,611,611,611,611,611,611,611,611,611,608,589,562,545,525,506,479,470,465,459,457,452,450,449,447,444,432,419,402,373,329,228,159,116,86],"timestamp_mouse":[13,35,50,71,90,111,131,150,172,192,211,231,250,270,290,310,332,350,370,390,411,431,450,470,491,510,531,550,570,591,610,632,650,671,690,711,730,750,770,792,811,831,850,870,891,910,931,950,971,990,1010,1030,1051,1070,1090,1111,1131,1151,1170,1190,1211,1231,1250,1270,1290,1311,1331,1351,1370,1390,1411,1430,1450,1471,1492,1510,1531,1550,1570,1591],"xSR":741.5,"ySR":573.95,"xT1":424.9,"yT1":0,"xT2":1058.1,"yT2":0,"toosoon":0,"cond_shown":"randomdotsizeEA","ratio_trial":900,"smaller_num":"18","larger_num":"20","correct_side":2,"subjID":"vALERIAHerreño18","gender":"1","age":"9","school":"4"},{"start_time":1552328487650,"click_time":1552328496289,"finger_time":1552328487708,"fix_duration":420.60704443270515,"trial":56,"RT":58,"MT":8581,"sideResp":2,"stimulus":"img/250/equaldotsize/L/3_Ratio_250_L_8_R_2.png","xmouse":[785,799,807,805,799,795,784,774,771,770,770,770,770,770,770,770,770,770,770,770,770,770,770,770,770,770,770,770,770,770,770,770,770,770,770,770,770,770,770,770,770,770,770,770,768,768,765,764,762,762,762,762,762,762,762,762,762,762,762,762,762,761,759,756,755,752,752,752,752,751,750,746,743,743,743,743,743,742,742,742,742,742,742,742,742,742,742,742,742,742,742,742,742,742,742,742,742,742,742,742