[{"start_time":1552055047658,"click_time":1552055050587,"finger_time":1552055047667,"fix_duration":250,"trial":0,"RT":9,"MT":2920,"sideResp":2,"stimulus":"img/250/randomdotsizeEA/L/2_Ratio_250_L_16_R_4.png","xmouse":[758,758,758,758,758,758,758,758,758,758,758,758,758,758,758,758,758,758,758,758,758,758,758,758,758,758,758,758,758,758,758,758,758,758,758,758,758,758,757,757,757,755,754,753,753,756,759,764,772,775,777,780,782,782,782,782,782,782,782,782,782,782,782,782,782,782,782,782,782,782,782,782,782,782,782,782,782,782,782,782,782,782,782,782,782,782,782,782,782,782,783,783,788,791,793,799,808,824,848,856,863,874,878,895,904,913,919,925,940,949,961,1006,1046,1049,1049,1049,1049,1049,1049,1050,1052,1054,1058,1062,1064,1065,1068,1079,1086,1088,1092,1094,1096,1096,1097,1097,1098,1098,1099,1099,1099,1099,1099,1099,1099,1099,1099],"ymouse":[527,527,527,527,527,527,527,527,527,527,527,527,527,527,527,527,527,527,527,527,527,527,527,527,527,527,527,527,527,527,527,527,527,527,528,528,530,535,537,538,541,544,555,560,566,577,585,593,612,618,622,627,630,630,630,630,630,630,630,630,630,630,630,630,630,630,630,630,630,630,630,630,630,630,630,630,630,630,630,630,630,630,630,630,630,630,630,630,630,630,629,628,620,615,612,605,595,579,552,538,525,495,486,446,425,405,389,372,333,315,290,234,201,199,199,199,199,199,198,197,194,189,180,174,171,168,162,138,128,122,116,111,108,108,107,106,104,103,102,102,102,102,102,102,102,101,99],"timestamp_mouse":[9,29,49,68,88,108,129,148,169,189,209,228,249,270,289,309,330,350,369,389,409,428,449,468,489,509,528,550,569,590,609,628,648,669,688,708,730,748,769,788,809,829,848,868,888,909,928,948,969,989,1009,1029,1048,1070,1089,1109,1128,1148,1168,1190,1209,1229,1249,1269,1289,1308,1328,1349,1370,1388,1410,1428,1448,1468,1488,1509,1528,1548,1569,1589,1608,1628,1648,1668,1688,1709,1728,1749,1768,1788,1808,1829,1848,1868,1888,1909,1928,1949,1969,1989,2008,2028,2048,2069,2088,2108,2128,2148,2168,2190,2209,2230,2248,2268,2288,2309,2328,2349,2369,2390,2409,2429,2448,2469,2489,2509,2529,2549,2569,2589,2609,2629,2649,2669,2689,2708,2729,2749,2769,2788,2809,2828,2848,2869,2888,2909,2929],"xSR":732.5,"ySR":490.1,"xT1":419.5,"yT1":0,"xT2":1045.5,"yT2":0,"toosoon":0,"cond_shown":"randomdotsizeEA","ratio_trial":250,"smaller_num":"4","larger_num":"16","correct_side":1,"subjID":"VALERIAMARTINEZBUITRAGO","gender":"1","age":"9","school":"4","test":{"fix_dur":[250,1500],"timestim":300,"targets_dim":[100,100],"targets_relative_coord":[0.3,0.7],"size_stim":[880,420],"start_dim":[100,100],"size_start":[300,300],"size_fix":60,"samplingrate":20,"img_types":["equaldotsize","equaldotanddens","randomdotsizeEA"],"ratios":[250,500,750,900],"rep_conds":9,"nTrials":120,"trials_to_rest":500,"Trials_order":[86,105,94,32,64,81,55,52,22,28,33,73,0,11,13,100,116,46,56,59,49,62,10,91,65,35,12,19,58,44,118,109,103,14,115,99,92,25,102,17,48,114,69,20,96,74,76,101,78,84,50,57,34,88,54,31,79,1,67,39,36,83,4,72,38,43,42,77,60,15,66,6,85,75,71,113,63,7,16,104,24,89,107,87,80,70,2,23,93,82,41,106,45,108,9,3,27,29,90,5,18,40,21,61,98,47,8,112,30,95,119,26,110,97,51,37,111,117,53,68],"cond_shown":["randomdotsizeEA","equaldotsize","equaldotanddens","randomdotsizeEA","equaldotanddens","equaldotsize","equaldotanddens","equaldotanddens","equaldotanddens","equaldotanddens","equaldotsize","equaldotanddens","equaldotsize","randomdotsizeEA","equaldotanddens","equaldotanddens","randomdotsizeEA","equaldotanddens","randomdotsizeEA","randomdotsizeEA","equaldotanddens","randomdotsizeEA","equaldotanddens","equaldotanddens","randomdotsizeEA","randomdotsizeEA","equaldotsize","equaldotanddens","equaldotanddens","randomdotsizeEA","equaldotanddens","equaldotanddens","equaldotanddens","randomdotsizeEA","equaldotanddens","equaldotsize","randomdotsizeEA","equaldotanddens","equaldotsize","randomdotsizeEA","equaldotsize","equaldotsize","equaldotsize","randomdotsizeEA","equaldotsize","randomdotsizeEA","equaldotanddens","randomdotsizeEA","equaldotsize","equaldotsize","randomdotsizeEA","equaldotsize","equaldotanddens","equaldotanddens","equaldotsize","equaldotanddens","equaldotanddens","equaldotanddens","equaldotanddens","equaldotsize","equaldotsize","randomdotsizeEA","equaldotanddens","equaldotsize","randomdotsizeEA","equaldotanddens","equaldotsize","randomdotsizeEA","equaldotsize","equaldotsize","equaldotsize","equaldotsize","equaldotanddens","equaldotsize","randomdotsizeEA","randomdotsizeEA","equaldotsize","equaldotanddens","equaldotanddens","randomdotsizeEA","equaldotsize","randomdotsizeEA","randomdotsizeEA","equaldotsize","randomdotsizeEA","equaldotanddens","randomdotsizeEA","randomdotsizeEA","equaldotsize","equaldotanddens","randomdotsizeEA","equaldotanddens","equaldotsize","equaldotsize","equaldotsize","equaldotsize","equaldotsize","randomdotsizeEA","equaldotsize","randomdotsizeEA","equaldotsize","equaldotanddens","equaldotsize","equaldotanddens","randomdotsizeEA","randomdotsizeEA","randomdotsizeEA","equaldotanddens","equaldotsize","randomdotsizeEA","randomdotsizeEA","randomdotsizeEA","randomdotsizeEA","equaldotanddens","equaldotsize","equaldotanddens","equaldotsize","equaldotsize","randomdotsizeEA","randomdotsizeEA"],"ratio_trial":[250,900,900,750,500,900,750,500,900,500,900,250,250,900,250,500,750,900,750,900,250,250,900,750,500,900,250,750,900,750,900,250,750,250,750,500,750,250,750,500,250,750,900,750,250,250,500,500,750,250,250,900,900,500,750,750,750,250,750,500,250,900,500,250,250,750,750,500,250,500,750,750,250,500,900,500,500,750,500,750,250,500,900,500,750,900,250,900,900,900,500,900,900,250,900,500,500,500,750,500,750,500,900,250,250,900,750,500,750,900,900,250,250,250,500,250,500,900,500,750],"smaller_num":["4","18","18","3","9","18","15","6","18","9","18","2","3","9","3","2","6","18","15","18","4","2","9","15","1","9","2","18","9","18","9","6","3","3","12","6","15","6","15","5","2","18","9","9","2","2","1","6","15","3","3","18","9","5","3","9","9","2","3","1","3","18","3","3","4","15","3","2","5","9","18","6","1","5","9","1","1","18","2","3","2","6","9","2","6","18","3","18","9","9","5","18","18","3","18","5","10","3","18","6","3","2","18","3","2","9","15","9","3","9","9","2","2","3","9","4","2","18","3","6"],"larger_num":["16","20","20","4","18","20","20","12","20","18","20","8","12","10","12","4","8","20","20","20","16","8","10","20","2","10","8","24","10","24","10","24","4","12","16","12","20","24","20","10","8","24","10","12","8","8","2","12","20","12","12","20","10","10","4","12","12","8","4","2","12","20","6","12","16","20","4","4","20","18","24","8","4","10","10","2","2","24","4","4","8","12","10","4","8","20","12","20","10","10","10","20","20","12","20","10","20","6","24","12","4","4","20","12","8","10","20","18","4","10","10","8","8","12","18","16","4","20","6","8"],"correct_side":[1,1,1,2,2,1,2,1,1,2,1,1,1,2,2,1,1,1,2,1,2,1,2,1,2,2,1,1,2,1,2,2,1,2,2,1,2,1,2,1,1,1,1,2,1,1,2,1,1,2,1,2,1,2,2,2,2,1,1,2,2,1,2,1,1,2,1,1,2,2,1,1,2,2,2,2,2,1,1,1,1,1,2,2,1,1,2,1,2,1,2,2,1,1,1,1,2,2,1,1,1,2,1,1,1,1,2,2,1,1,2,2,1,2,2,1,1,1,2,1],"img_shown":["img/250/randomdotsizeEA/L/2_Ratio_250_L_16_R_4.png","img/900/equaldotsize/L/8_Ratio_900_L_20_R_18.png","img/900/equaldotanddens/L/2_Ratio_900_L_20_R_18.png","img/750/randomdotsizeEA/R/12_Ratio_750_L_3_R_4.png","img/500/equaldotanddens/R/1_Ratio_500_L_9_R_18.png","img/900/equaldotsize/L/10_Ratio_900_L_20_R_18.png","img/750/equaldotanddens/R/3_Ratio_750_L_15_R_20.png","img/500/equaldotanddens/L/11_Ratio_500_L_12_R_6.png","img/900/equaldotanddens/L/10_Ratio_900_L_20_R_18.png","img/500/equaldotanddens/R/1_Ratio_500_L_9_R_18.png","img/900/equaldotsize/L/4_Ratio_900_L_20_R_18.png","img/250/equaldotanddens/L/7_Ratio_250_L_8_R_2.png","img/250/equaldotsize/L/14_Ratio_250_L_12_R_3.png","img/900/randomdotsizeEA/R/5_Ratio_900_L_9_R_10.png","img/250/equaldotanddens/R/4_Ratio_250_L_3_R_12.png","img/500/equaldotanddens/L/10_Ratio_500_L_4_R_2.png","img/750/randomdotsizeEA/L/13_Ratio_750_L_8_R_6.png","img/900/equaldotanddens/L/10_Ratio_900_L_20_R_18.png","img/750/randomdotsizeEA/R/4_Ratio_750_L_15_R_20.png","img/900/randomdotsizeEA/L/2_Ratio_900_L_20_R_18.png","img/250/equaldotanddens/R/10_Ratio_250_L_4_R_16.png","img/250/randomdotsizeEA/L/3_Ratio_250_L_8_R_2.png","img/900/equaldotanddens/R/3_Ratio_900_L_9_R_10.png","img/750/equaldotanddens/L/1_Ratio_750_L_20_R_15.png","img/500/randomdotsizeEA/R/15_Ratio_500_L_1_R_2.png","img/900/randomdotsizeEA/R/3_Ratio_900_L_9_R_10.png","img/250/equaldotsize/L/7_Ratio_250_L_8_R_2.png","img/750/equaldotanddens/L/6_Ratio_750_L_24_R_18.png","img/900/equaldotanddens/R/3_Ratio_900_L_9_R_10.png","img/750/randomdotsizeEA/L/6_Ratio_750_L_24_R_18.png","img/900/equaldotanddens/R/15_Ratio_900_L_9_R_10.png","img/250/equaldotanddens/R/6_Ratio_250_L_6_R_24.png","img/750/equaldotanddens/L/8_Ratio_750_L_4_R_3.png","img/250/randomdotsizeEA/R/4_Ratio_250_L_3_R_12.png","img/750/equaldotanddens/R/11_Ratio_750_L_12_R_16.png","img/500/equaldotsize/L/13_Ratio_500_L_12_R_6.png","img/750/randomdotsizeEA/R/3_Ratio_750_L_15_R_20.png","img/250/equaldotanddens/L/5_Ratio_250_L_24_R_6.png","img/750/equaldotsize/R/4_Ratio_750_L_15_R_20.png","img/500/randomdotsizeEA/L/7_Ratio_500_L_10_R_5.png","img/250/equaldotsize/L/1_Ratio_250_L_8_R_2.png","img/750/equaldotsize/L/6_Ratio_750_L_24_R_18.png","img/900/equaldotsize/L/1_Ratio_900_L_10_R_9.png","img/750/randomdotsizeEA/R/15_Ratio_750_L_9_R_12.png","img/250/equaldotsize/L/7_Ratio_250_L_8_R_2.png","img/250/randomdotsizeEA/L/1_Ratio_250_L_8_R_2.png","img/500/equaldotanddens/R/15_Ratio_500_L_1_R_2.png","img/500/randomdotsizeEA/L/11_Ratio_500_L_12_R_6.png","img/750/equaldotsize/L/1_Ratio_750_L_20_R_15.png","img/250/equaldotsize/R/9_Ratio_250_L_3_R_12.png","img/250/randomdotsizeEA/L/14_Ratio_250_L_12_R_3.png","img/900/equaldotsize/R/12_Ratio_900_L_18_R_20.png","img/900/equaldotanddens/L/1_Ratio_900_L_10_R_9.png","img/500/equaldotanddens/R/14_Ratio_500_L_5_R_10.png","img/750/equaldotsize/R/7_Ratio_750_L_3_R_4.png","img/750/equaldotanddens/R/15_Ratio_750_L_9_R_12.png","img/750/equaldotanddens/R/15_Ratio_750_L_9_R_12.png","img/250/equaldotanddens/L/3_Ratio_250_L_8_R_2.png","img/750/equaldotanddens/L/8_Ratio_750_L_4_R_3.png","img/500/equaldotsize/R/12_Ratio_500_L_1_R_2.png","img/250/equaldotsize/R/4_Ratio_250_L_3_R_12.png","img/900/randomdotsizeEA/L/8_Ratio_900_L_20_R_18.png","img/500/equaldotanddens/R/2_Ratio_500_L_3_R_6.png","img/250/equaldotsize/L/14_Ratio_250_L_12_R_3.png","img/250/randomdotsizeEA/L/2_Ratio_250_L_16_R_4.png","img/750/equaldotanddens/R/4_Ratio_750_L_15_R_20.png","img/750/equaldotsize/L/8_Ratio_750_L_4_R_3.png","img/500/randomdotsizeEA/L/5_Ratio_500_L_4_R_2.png","img/250/equaldotsize/R/12_Ratio_250_L_5_R_20.png","img/500/equaldotsize/R/1_Ratio_500_L_9_R_18.png","img/750/equaldotsize/L/6_Ratio_750_L_24_R_18.png","img/750/equaldotsize/L/13_Ratio_750_L_8_R_6.png","img/250/equaldotanddens/R/8_Ratio_250_L_1_R_4.png","img/500/equaldotsize/R/14_Ratio_500_L_5_R_10.png","img/900/randomdotsizeEA/R/7_Ratio_900_L_9_R_10.png","img/500/randomdotsizeEA/R/12_Ratio_500_L_1_R_2.png","img/500/equaldotsize/R/12_Ratio_500_L_1_R_2.png","img/750/equaldotanddens/L/6_Ratio_750_L_24_R_18.png","img/500/equaldotanddens/L/5_Ratio_500_L_4_R_2.png","img/750/randomdotsizeEA/L/10_Ratio_750_L_4_R_3.png","img/250/equaldotsize/L/3_Ratio_250_L_8_R_2.png","img/500/randomdotsizeEA/L/13_Ratio_500_L_12_R_6.png","img/900/randomdotsizeEA/R/15_Ratio_900_L_9_R_10.png","img/500/equaldotsize/R/9_Ratio_500_L_2_R_4.png","img/750/randomdotsizeEA/L/13_Ratio_750_L_8_R_6.png","img/900/equaldotanddens/L/10_Ratio_900_L_20_R_18.png","img/250/randomdotsizeEA/R/11_Ratio_250_L_3_R_12.png","img/900/randomdotsizeEA/L/10_Ratio_900_L_20_R_18.png","img/900/equaldotsize/R/15_Ratio_900_L_9_R_10.png","img/900/equaldotanddens/L/1_Ratio_900_L_10_R_9.png","img/500/randomdotsizeEA/R/14_Ratio_500_L_5_R_10.png","img/900/equaldotanddens/R/9_Ratio_900_L_18_R_20.png","img/900/equaldotsize/L/4_Ratio_900_L_20_R_18.png","img/250/equaldotsize/L/14_Ratio_250_L_12_R_3.png","img/900/equaldotsize/L/4_Ratio_900_L_20_R_18.png","img/500/equaldotsize/L/7_Ratio_500_L_10_R_5.png","img/500/equaldotsize/R/3_Ratio_500_L_10_R_20.png","img/500/randomdotsizeEA/R/2_Ratio_500_L_3_R_6.png","img/750/equaldotsize/L/6_Ratio_750_L_24_R_18.png","img/500/randomdotsizeEA/L/13_Ratio_500_L_12_R_6.png","img/750/equaldotsize/L/9_Ratio_750_L_4_R_3.png","img/500/equaldotanddens/R/9_Ratio_500_L_2_R_4.png","img/900/equaldotsize/L/2_Ratio_900_L_20_R_18.png","img/250/equaldotanddens/L/14_Ratio_250_L_12_R_3.png","img/250/randomdotsizeEA/L/3_Ratio_250_L_8_R_2.png","img/900/randomdotsizeEA/L/1_Ratio_900_L_10_R_9.png","img/750/randomdotsizeEA/R/5_Ratio_750_L_15_R_20.png","img/500/equaldotanddens/R/1_Ratio_500_L_9_R_18.png","img/750/equaldotsize/L/8_Ratio_750_L_4_R_3.png","img/900/randomdotsizeEA/L/1_Ratio_900_L_10_R_9.png","img/900/randomdotsizeEA/R/15_Ratio_900_L_9_R_10.png","img/250/randomdotsizeEA/R/13_Ratio_250_L_2_R_8.png","img/250/randomdotsizeEA/L/1_Ratio_250_L_8_R_2.png","img/250/equaldotanddens/R/9_Ratio_250_L_3_R_12.png","img/500/equaldotsize/R/6_Ratio_500_L_9_R_18.png","img/250/equaldotanddens/L/2_Ratio_250_L_16_R_4.png","img/500/equaldotsize/L/10_Ratio_500_L_4_R_2.png","img/900/equaldotsize/L/4_Ratio_900_L_20_R_18.png","img/500/randomdotsizeEA/R/2_Ratio_500_L_3_R_6.png","img/750/randomdotsizeEA/L/14_Ratio_750_L_8_R_6.png"],"Rat0":[["12_Ratio_0_L_9_R_0.png","13_Ratio_0_L_6_R_0.png","5_Ratio_0_L_2_R_0.png","6_Ratio_0_L_4_R_0.png","8_Ratio_0_L_6_R_0.png"],["1_Ratio_0_L_0_R_17.png","10_Ratio_0_L_0_R_22.png","11_Ratio_0_L_0_R_1.png","14_Ratio_0_L_0_R_24.png","15_Ratio_0_L_0_R_4.png","2_Ratio_0_L_0_R_5.png","3_Ratio_0_L_0_R_17.png","4_Ratio_0_L_0_R_7.png","7_Ratio_0_L_0_R_19.png","9_Ratio_0_L_0_R_15.png"]],"Rat250":[["1_Ratio_250_L_8_R_2.png","14_Ratio_250_L_12_R_3.png","15_Ratio_250_L_12_R_3.png","2_Ratio_250_L_16_R_4.png","3_Ratio_250_L_8_R_2.png","5_Ratio_250_L_24_R_6.png","7_Ratio_250_L_8_R_2.png"],["10_Ratio_250_L_4_R_16.png","11_Ratio_250_L_3_R_12.png","12_Ratio_250_L_5_R_20.png","13_Ratio_250_L_2_R_8.png","4_Ratio_250_L_3_R_12.png","6_Ratio_250_L_6_R_24.png","8_Ratio_250_L_1_R_4.png","9_Ratio_250_L_3_R_12.png"]],"Rat500":[["10_Ratio_500_L_4_R_2.png","11_Ratio_500_L_12_R_6.png","13_Ratio_500_L_12_R_6.png","4_Ratio_500_L_18_R_9.png","5_Ratio_500_L_4_R_2.png","7_Ratio_500_L_10_R_5.png","8_Ratio_500_L_8_R_4.png"],["1_Ratio_500_L_9_R_18.png","12_Ratio_500_L_1_R_2.png","14_Ratio_500_L_5_R_10.png","15_Ratio_500_L_1_R_2.png","2_Ratio_500_L_3_R_6.png","3_Ratio_500_L_10_R_20.png","6_Ratio_500_L_9_R_18.png","9_Ratio_500_L_2_R_4.png"]],"Rat750":[["1_Ratio_750_L_20_R_15.png","10_Ratio_750_L_4_R_3.png","13_Ratio_750_L_8_R_6.png","14_Ratio_750_L_8_R_6.png","6_Ratio_750_L_24_R_18.png","8_Ratio_750_L_4_R_3.png","9_Ratio_750_L_4_R_3.png"],["11_Ratio_750_L_12_R_16.png","12_Ratio_750_L_3_R_4.png","15_Ratio_750_L_9_R_12.png","2_Ratio_750_L_6_R_8.png","3_Ratio_750_L_15_R_20.png","4_Ratio_750_L_15_R_20.png","5_Ratio_750_L_15_R_20.png","7_Ratio_750_L_3_R_4.png"]],"Rat900":[["1_Ratio_900_L_10_R_9.png","10_Ratio_900_L_20_R_18.png","2_Ratio_900_L_20_R_18.png","4_Ratio_900_L_20_R_18.png","8_Ratio_900_L_20_R_18.png"],["11_Ratio_900_L_18_R_20.png","12_Ratio_900_L_18_R_20.png","13_Ratio_900_L_18_R_20.png","14_Ratio_900_L_18_R_20.png","15_Ratio_900_L_9_R_10.png","3_Ratio_900_L_9_R_10.png","5_Ratio_900_L_9_R_10.png","6_Ratio_900_L_9_R_10.png","7_Ratio_900_L_9_R_10.png","9_Ratio_900_L_18_R_20.png"]],"Rat1000":[["10_Ratio_1000_L_16_R_16.png","11_Ratio_1000_L_6_R_6.png","12_Ratio_1000_L_14_R_14.png","13_Ratio_1000_L_20_R_20.png","15_Ratio_1000_L_15_R_15.png","2_Ratio_1000_L_17_R_17.png","4_Ratio_1000_L_9_R_9.png","5_Ratio_1000_L_6_R_6.png","6_Ratio_1000_L_19_R_19.png","8_Ratio_1000_L_14_R_14.png","9_Ratio_1000_L_25_R_25.png"],["1_Ratio_1000_L_1_R_1.png","14_Ratio_1000_L_17_R_17.png","3_Ratio_1000_L_17_R_17.png","7_Ratio_1000_L_6_R_6.png"]]}},{"start_time":1552055053835,"click_time":1552055055087,"finger_time":1552055054627,"fix_duration":605.0106760451715,"trial":1,"RT":792,"MT":460,"sideResp":2,"stimulus":"img/900/equaldotsize/L/8_Ratio_900_L_20_R_18.png","xmouse":[790,790,790,790,790,790,790,790,790,790,790,790,790,790,790,790,790,790,790,790,790,790,790,790,790,790,790,790,790,790,790,790,790,790,790,790,790,793,796,817,841,892,917,931,953,962,969,973,977,990,1002,1007,1026,1035,1045,1046,1047,1048,1049,1052,1054,1059,1059],"ymouse":[634,633,632,632,632,632,632,632,632,632,632,632,632,632,632,632,632,632,632,632,632,632,632,632,632,632,632,632,632,632,632,632,632,632,632,632,631,626,618,567,505,398,355,331,292,272,259,249,238,219,205,199,184,173,159,157,156,154,152,147,141,113,96],"timestamp_mouse":[17,32,51,73,91,111,131,151,173,191,213,232,252,271,291,313,333,352,371,392,411,432,451,471,492,511,531,551,571,592,611,632,651,671,691,713,731,751,771,792,811,832,851,871,891,911,933,952,971,991,1011,1031,1051,1072,1092,1111,1131,1151,1173,1191,1212,1231,1252],"xSR":741.5,"ySR":573.95,"xT1":424.9,"yT1":0,"xT2":1058.1,"yT2":0,"toosoon":0,"cond_shown":"equaldotsize","ratio_trial":900,"smaller_num":"18","larger_num":"20","correct_side":1,"subjID":"VALERIAMARTINEZBUITRAGO","gender":"1","age":"9","school":"4"},{"start_time":1552055056657,"click_time":1552055058288,"finger_time":1552055057586,"fix_duration":489.8589400898757,"trial":2,"RT":929,"MT":702,"sideResp":1,"stimulus":"img/900/equaldotanddens/L/2_Ratio_900_L_20_R_18.png","xmouse":[792,793,793,793,793,793,793,793,793,793,793,793,793,793,793,793,793,793,793,793,793,793,793,793,793,793,793,793,793,793,793,793,793,793,793,793,793,793,793,793,793,793,794,794,793,787,782,778,764,758,749,740,733,725,718,711,703,691,662,636,621,608,592,553,535,527,526,526,533,534,534,534,534,533,532,529,529,528,528,527,525,524],"ymouse":[636,636,636,636,636,636,636,636,636,636,636,636,636,636,636,636,636,636,636,636,636,636,636,636,636,636,636,636,636,636,636,636,636,636,636,636,636,636,636,636,636,636,633,618,597,575,557,542,495,472,448,429,414,388,361,333,313,296,268,252,240,227,209,177,164,152,144,138,127,124,117,111,106,97,94,90,90,89,89,89,89,89],"timestamp_mouse":[10,30,50,70,90,110,129,149,170,191,210,229,249,269,289,309,329,349,369,389,409,429,450,471,489,509,529,549,570,589,610,629,650,669,691,710,730,750,771,789,809,829,849,870,889,909,929,950,969,990,1010,1030,1049,1070,1090,1109,1129,1150,1170,1189,1210,1230,1250,1269,1290,1309,1329,1350,1369,1390,1410,1429,1449,1470,1490,1511,1530,1551,1570,1589,1609,1631],"xSR":741.5,"ySR":573.95,"xT1":424.9,"yT1":0,"xT2":1058.1,"yT2":0,"toosoon":0,"cond_shown":"equaldotanddens","ratio_trial":900,"smaller_num":"18","larger_num":"20","correct_side":1,"subjID":"VALERIAMARTINEZBUITRAGO","gender":"1","age":"9","school":"4"},{"start_time":1552055061047,"click_time":1552055062387,"finger_time":1552055061827,"fix_duration":1399.9423120750557,"trial":3,"RT":780,"MT":560,"sideResp":2,"stimulus":"img/750/randomdotsizeEA/R/12_Ratio_750_L_3_R_4.png","xmouse":[777,777,777,777,777,777,777,777,777,777,777,777,777,777,777,777,777,777,777,777,777,777,777,777,777,777,777,777,777,777,777,777,777,777,777,777,779,790,822,898,987,1014,1034,1048,1059,1074,1083,1089,1097,1104,1107,1108,1108,1109,1109,1102,1100,1096,1091,1088,1084,1083,1083,1083,1083,1083,1083,1082],"ymouse":[614,614,614,614,614,614,614,614,614,614,614,614,614,614,614,614,614,614,614,614,614,614,614,614,614,614,614,614,614,614,614,614,614,614,614,614,611,606,599,577,540,517,495,474,453,411,385,348,321,287,269,264,258,252,244,206,192,170,134,117,106,104,104,104,104,101,100,98],"timestamp_mouse":[1,19,40,60,80,99,119,139,159,179,199,220,241,259,279,299,320,340,359,379,399,421,441,459,479,501,520,539,561,580,600,620,639,660,680,700,719,739,760,780,799,820,839,860,880,900,919,939,960,980,999,1019,1040,1059,1079,1100,1119,1140,1160,1180,1199,1219,1239,1260,1280,1300,1319,1340],"xSR":741.5,"ySR":573.95,"xT1":424.9,"yT1":0,"xT2":1058.1,"yT2":0,"toosoon":0,"cond_shown":"randomdotsizeEA","ratio_trial":750,"smaller_num":"3","larger_num":"4","correct_side":2,"subjID":"VALERIAMARTINEZBUITRAGO","gender":"1","age":"9","school":"4"},{"start_time":1552055064243,"click_time":1552055065367,"finger_time":1552055064926,"fix_duration":596.8515598214449,"trial":4,"RT":683,"MT":441,"sideResp":2,"stimulus":"img/500/equaldotanddens/R/1_Ratio_500_L_9_R_18.png","xmouse":[820,819,819,819,819,819,818,818,818,818,818,818,818,818,818,818,818,818,818,818,818,818,818,818,818,818,818,818,818,818,818,818,822,837,864,930,971,995,1023,1058,1099,1113,1121,1125,1127,1131,1133,1135,1135,1132,1121,1117,1115,1113,1112,1110,1110],"ymouse":[631,631,631,631,631,631,631,631,631,631,631,631,631,631,631,631,631,631,631,631,631,631,631,631,631,631,631,631,631,631,631,629,623,608,576,481,427,402,377,347,297,272,250,229,214,182,171,155,148,140,124,118,115,110,107,103,99],"timestamp_mouse":[4,23,44,63,85,105,124,143,164,185,203,224,243,264,285,303,323,343,364,384,404,423,445,465,485,504,523,543,563,583,603,623,644,663,683,703,724,743,763,783,803,823,843,863,883,904,923,943,963,984,1003,1023,1043,1064,1084,1104,1124],"xSR":741.5,"ySR":573.95,"xT1":424.9,"yT1":0,"xT2":1058.1,"yT2":0,"toosoon":0,"cond_shown":"equaldotanddens","ratio_trial":500,"smaller_num":"9","larger_num":"18","correct_side":2,"subjID":"VALERIAMARTINEZBUITRAGO","gender":"1","age":"9","school":"4"},{"start_time":1552055067976,"click_time":1552055069287,"finger_time":1552055068966,"fix_duration":1489.6261913515198,"trial":5,"RT":990,"MT":321,"sideResp":1,"stimulus":"img/900/equaldotsize/L/10_Ratio_900_L_20_R_18.png","xmouse":[767,767,767,767,767,767,767,767,767,767,767,767,767,767,767,767,767,767,767,767,767,767,767,767,767,767,767,767,767,767,767,767,767,768,775,780,784,787,787,788,788,788,788,788,788,788,788,784,772,694,654,620,604,589,589,589,585,580,573,570,569,567,561,543,532,520],"ymouse":[615,615,615,615,615,615,615,615,615,615,615,615,615,615,615,615,615,615,615,615,615,615,615,615,615,615,615,615,615,615,615,615,615,615,611,608,607,605,604,602,602,602,602,602,602,601,601,597,589,455,374,326,304,256,225,179,139,113,82,75,68,61,53,36,31,29],"timestamp_mouse":[11,31,51,70,90,112,132,150,170,190,212,231,250,270,292,310,330,350,372,390,410,430,451,472,492,511,530,550,571,590,612,630,651,671,690,710,730,752,770,790,811,830,851,871,890,910,930,951,970,990,1010,1030,1050,1071,1091,1111,1130,1152,1170,1191,1211,1231,1250,1270,1291,1311],"xSR":741.5,"ySR":573.95,"xT1":424.9,"yT1":0,"xT2":1058.1,"yT2":0,"toosoon":0,"cond_shown":"equaldotsize","ratio_trial":900,"smaller_num":"18","larger_num":"20","correct_side":1,"subjID":"VALERIAMARTINEZBUITRAGO","gender":"1","age":"9","school":"4"},{"start_time":1552055070634,"click_time":1552055071947,"finger_time":1552055071326,"fix_duration":426.4411612852739,"trial":6,"RT":692,"MT":621,"sideResp":2,"stimulus":"img/750/equaldotanddens/R/3_Ratio_750_L_15_R_20.png","xmouse":[780,779,779,779,779,779,779,779,779,779,779,779,779,779,779,779,779,779,779,779,779,779,779,779,779,779,779,779,779,783,788,793,800,825,861,879,891,896,904,913,922,933,939,952,980,999,1034,1048,1064,1091,1159,1178,1196,1206,1213,1214,1220,1220,1218,1216,1214,1209,1205,1198,1176,1153],"ymouse":[605,605,605,605,605,605,605,605,605,605,605,605,605,605,605,605,605,605,605,605,605,605,605,605,605,605,605,605,605,605,601,598,592,575,543,524,515,508,500,488,474,462,456,439,405,385,346,325,301,269,206,187,162,145,127,123,102,97,92,89,87,84,83,83,79,74],"timestamp_mouse":[12,32,52,73,94,114,133,152,173,193,214,232,253,272,294,312,332,353,374,392,414,432,453,472,494,514,533,553,573,592,613,633,653,672,692,712,734,753,772,792,812,833,852,872,892,912,934,953,972,993,1013,1033,1052,1072,1092,1112,1133,1153,1173,1192,1212,1233,1252,1272,1293,1313],"xSR":741.5,"ySR":573.95,"xT1":424.9,"yT1":0,"xT2":1058.1,"yT2":0,"toosoon":0,"cond_shown":"equaldotanddens","ratio_trial":750,"smaller_num":"15","larger_num":"20","correct_side":2,"subjID":"VALERIAMARTINEZBUITRAGO","gender":"1","age":"9","school":"4"},{"start_time":1552055073680,"click_time":1552055074969,"finger_time":1552055074427,"fix_duration":571.6466620428257,"trial":7,"RT":747,"MT":542,"sideResp":1,"stimulus":"img/500/equaldotanddens/L/11_Ratio_500_L_12_R_6.png","xmouse":[831,831,831,831,831,831,831,831,831,831,831,831,831,831,831,831,831,831,831,831,831,831,831,831,831,831,831,831,831,831,831,831,831,831,831,825,817,796,770,711,697,687,668,645,593,569,549,534,527,525,524,524,524,523,523,522,522,522,522,522,522,522,519,518,515],"ymouse":[626,626,626,626,626,626,626,626,626,626,626,626,626,626,626,626,626,626,626,626,626,626,626,626,626,626,626,626,626,626,626,626,626,626,626,607,580,529,474,389,366,348,303,247,133,74,35,15,7,1,0,0,0,0,0,0,0,0,0,0,0,0,0,0,1],"timestamp_mouse":[10,27,47,68,87,107,127,146,168,188,207,226,248,266,286,307,328,346,367,386,406,428,446,466,487,508,526,547,568,587,607,627,647,667,686,706,727,747,767,787,807,826,846,866,886,906,926,946,968,987,1006,1026,1046,1066,1087,1107,1127,1146,1167,1187,1207,1227,1247,1267,1288],"xSR":741.5,"ySR":573.95,"xT1":424.9,"yT1":0,"xT2":1058.1,"yT2":0,"toosoon":0,"cond_shown":"equaldotanddens","ratio_trial":500,"smaller_num":"6","larger_num":"12","correct_side":1,"subjID":"VALERIAMARTINEZBUITRAGO","gender":"1","age":"9","school":"4"},{"start_time":1552055076534,"click_time":1552055078167,"finger_time":1552055077866,"fix_duration":386.3973156940159,"trial":8,"RT":1332,"MT":301,"sideResp":1,"stimulus":"img/900/equaldotanddens/L/10_Ratio_900_L_20_R_18.png","xmouse":[804,804,804,804,804,804,803,803,803,803,803,803,803,803,803,803,803,803,803,803,803,803,803,803,803,803,804,807,808,810,811,812,813,814,815,815,815,815,815,815,816,817,820,821,821,821,821,821,821,821,821,821,821,821,821,821,821,821,821,821,821,821,821,821,820,805,771,671,637,615,605,602,602,601,596,588,578,561,551,541,531,513],"ymouse":[662,662,662,662,662,662,662,662,662,662,661,661,661,661,661,661,661,661,661,661,661,661,661,661,661,660,659,655,653,647,642,638,625,614,612,612,612,612,612,612,611,611,610,610,610,610,610,610,610,610,610,610,610,610,610,610,610,610,610,610,610,610,610,607,603,574,494,310,232,181,157,138,134,131,119,105,89,67,57,48,41,25],"timestamp_mouse":[13,33,52,74,94,112,132,152,174,192,213,233,254,273,292,312,333,353,372,393,413,432,452,472,492,513,533,552,572,592,612,632,652,674,692,713,732,752,772,792,813,833,852,873,893,912,933,952,972,992,1014,1032,1052,1072,1092,1114,1133,1152,1173,1193,1214,1232,1253,1272,1292,1313,1332,1352,1372,1394,1412,1433,1452,1472,1492,1512,1532,1553,1572,1592,1613,1633],"xSR":741.5,"ySR":573.95,"xT1":424.9,"yT1":0,"xT2":1058.1,"yT2":0,"toosoon":0,"cond_shown":"equaldotanddens","ratio_trial":900,"smaller_num":"18","larger_num":"20","correct_side":1,"subjID":"VALERIAMARTINEZBUITRAGO","gender":"1","age":"9","school":"4"},{"start_time":1552055080558,"click_time":1552055082327,"finger_time":1552055081326,"fix_duration":250,"trial":9,"RT":768,"MT":1001,"sideResp":2,"stimulus":"img/500/equaldotanddens/R/1_Ratio_500_L_9_R_18.png","xmouse":[775,775,775,775,775,775,775,775,775,775,775,775,775,775,775,775,775,775,775,775,775,775,775,775,775,775,775,775,775,775,775,775,775,780,787,791,796,798,803,809,821,859,881,890,894,897,904,910,916,927,937,950,956,957,959,959,961,964,975,999,1037,1075,1103,1104,1104,1106,1112,1116,1121,1128,1135,1138,1142,1143,1143,1143,1144,1146,1146,1147,1147,1148,1148,1147,1146,1144,1143,1143,1143],"ymouse":[652,652,652,652,652,652,652,652,652,652,652,652,652,653,653,653,653,653,653,653,653,653,653,653,653,653,653,653,653,653,653,653,650,638,621,606,586,577,562,546,528,486,466,455,450,446,438,431,424,413,403,390,384,384,383,383,382,379,370,350,325,300,282,281,279,271,252,242,229,210,194,183,166,162,158,153,137,132,127,123,121,117,115,113,111,107,104,102,99],"timestamp_mouse":[15,30,49,69,88,110,129,148,170,189,209,230,250,268,289,308,328,349,369,388,409,430,450,468,488,508,529,550,568,588,608,629,649,669,688,708,729,748,768,788,808,828,850,869,890,909,928,948,970,989,1010,1028,1048,1068,1089,1109,1128,1149,1168,1188,1209,1228,1248,1269,1289,1309,1329,1349,1368,1388,1408,1428,1448,1469,1488,1508,1528,1548,1568,1589,1608,1628,1649,1669,1689,1708,1729,1749,1769],"xSR":741.5,"ySR":573.95,"xT1":424.9,"yT1":0,"xT2":1058.1,"yT2":0,"toosoon":0,"cond_shown":"equaldotanddens","ratio_trial":500,"smaller_num":"9","larger_num":"18","correct_side":2,"subjID":"VALERIAMARTINEZBUITRAGO","gender":"1","age":"9","school":"4"},{"start_time":1552055084613,"click_time":1552055086407,"finger_time":1552055085666,"fix_duration":885.0379563588377,"trial":10,"RT":1053,"MT":741,"sideResp":1,"stimulus":"img/900/equaldotsize/L/4_Ratio_900_L_20_R_18.png","xmouse":[801,801,801,801,801,801,801,801,801,801,801,801,801,801,801,801,801,801,801,801,801,801,801,801,801,801,801,801,801,801,801,801,801,801,801,801,801,801,801,801,801,801,801,801,801,801,801,801,801,801,800,779,733,675,546,497,465,450,448,448,445,442,439,435,430,430,430,432,439,446,446,447,447,446,442,442,441,440,440,440,441,441,442,442,443,444,448,452,457,471],"ymouse":[639,639,639,639,639,639,639,639,639,639,639,639,639,639,639,639,639,639,639,639,639,639,639,639,639,639,639,639,639,639,639,639,639,639,639,639,639,639,639,639,639,639,639,639,639,639,639,639,639,639,636,623,602,571,490,456,431,417,413,407,391,368,346,324,288,273,262,250,230,207,195,187,181,177,168,164,155,149,147,145,142,140,140,136,132,127,122,116,107,92],"timestamp_mouse":[15,34,53,73,95,114,134,155,173,193,214,234,253,274,294,314,335,354,373,393,413,433,453,474,493,514,533,554,574,593,615,634,653,675,693,714,734,755,773,793,814,833,854,874,893,915,934,953,973,994,1013,1035,1053,1073,1093,1114,1134,1155,1173,1193,1213,1233,1253,1274,1293,1315,1333,1353,1373,1393,1413,1433,1453,1473,1494,1514,1534,1554,1573,1593,1613,1633,1653,1674,1694,1713,1733,1754,1773,1793],"xSR":741.5,"ySR":573.95,"xT1":424.9,"yT1":0,"xT2":1058.1,"yT2":0,"toosoon":0,"cond_shown":"equaldotsize","ratio_trial":900,"smaller_num":"18","larger_num":"20","correct_side":1,"subjID":"VALERIAMARTINEZBUITRAGO","gender":"1","age":"9","school":"4"},{"start_time":1552055088481,"click_time":1552055090346,"finger_time":1552055089206,"fix_duration":993.0299662188645,"trial":11,"RT":725,"MT":1140,"sideResp":1,"stimulus":"img/250/equaldotanddens/L/7_Ratio_250_L_8_R_2.png","xmouse":[799,799,799,799,799,799,799,799,799,799,799,799,799,799,799,799,799,799,799,799,799,799,799,799,799,798,792,784,776,765,756,752,751,750,750,748,740,733,723,705,677,578,495,386,204,136,111,111,113,116,119,127,130,131,131,131,137,143,156,175,192,216,234,243,255,273,294,331,341,345,347,347,350,359,366,375,398,410,418,426,439,467,472,472,472,472,472,472,472,473,473,473,473,473],"ymouse":[630,627,626,626,626,626,626,626,626,626,626,626,626,626,626,626,626,626,626,626,626,626,626,626,626,624,619,614,610,604,598,594,592,591,589,587,570,552,531,498,448,292,205,126,42,10,0,0,0,0,0,0,0,0,0,0,0,1,5,10,13,19,23,24,28,34,43,59,65,68,68,68,68,69,71,75,86,93,97,102,105,108,109,109,109,109,109,109,109,109,108,105,102,99],"timestamp_mouse":[6,26,46,67,86,106,126,145,165,185,206,226,245,266,286,307,326,345,365,386,406,427,447,466,485,505,525,545,565,585,607,626,645,665,686,705,725,745,765,785,807,826,845,865,887,905,925,945,966,985,1006,1025,1046,1067,1086,1105,1127,1146,1167,1186,1207,1226,1245,1265,1286,1305,1325,1345,1366,1385,1406,1426,1445,1466,1486,1506,1526,1545,1565,1586,1607,1625,1646,1665,1685,1705,1725,1746,1767,1785,1806,1825,1845,1865],"xSR":741.5,"ySR":573.95,"xT1":424.9,"yT1":0,"xT2":1058.1,"yT2":0,"toosoon":0,"cond_shown":"equaldotanddens","ratio_trial":250,"smaller_num":"2","larger_num":"8","correct_side":1,"subjID":"VALERIAMARTINEZBUITRAGO","gender":"1","age":"9","school":"4"},{"start_time":1552055093910,"click_time":1552055095107,"finger_time":1552055094626,"fix_duration":382.16942487136794,"trial":12,"RT":716,"MT":481,"sideResp":1,"stimulus":"img/250/equaldotsize/L/14_Ratio_250_L_12_R_3.png","xmouse":[794,794,794,794,794,794,794,794,794,794,794,794,794,794,794,794,794,794,794,794,794,794,794,794,794,794,794,794,794,794,794,794,794,794,791,749,706,681,649,630,604,598,592,585,579,572,571,571,571,570,561,552,544,530,514,491,482,475,466,451],"ymouse":[625,625,625,625,625,625,625,625,625,625,625,625,625,625,625,625,625,625,625,625,625,625,625,625,625,625,625,625,625,625,625,625,625,625,622,573,529,501,465,443,411,397,383,370,355,337,333,331,327,318,282,261,243,217,189,148,133,120,107,85],"timestamp_mouse":[17,37,56,76,97,116,138,158,176,196,217,238,256,278,297,317,336,358,377,396,416,437,458,477,496,516,536,556,577,597,617,636,657,677,697,716,737,757,776,796,816,836,858,877,897,916,937,957,977,996,1017,1037,1056,1076,1096,1116,1136,1156,1176,1196],"xSR":741.5,"ySR":573.95,"xT1":424.9,"yT1":0,"xT2":1058.1,"yT2":0,"toosoon":0,"cond_shown":"equaldotsize","ratio_trial":250,"smaller_num":"3","larger_num":"12","correct_side":1,"subjID":"VALERIAMARTINEZBUITRAGO","gender":"1","age":"9","school":"4"},{"start_time":1552055098681,"click_time":1552055100788,"finger_time":1552055100007,"fix_duration":592.5151616953599,"trial":13,"RT":1326,"MT":781,"sideResp":1,"stimulus":"img/900/randomdotsizeEA/R/5_Ratio_900_L_9_R_10.png","xmouse":[760,760,760,760,760,760,760,760,760,760,760,760,760,760,760,760,760,760,760,760,760,760,760,760,760,760,760,760,760,760,760,760,760,760,760,760,760,760,760,760,760,760,760,760,760,760,760,760,760,760,760,760,760,760,760,760,760,760,760,760,760,760,760,758,756,746,723,674,642,639,639,640,646,648,651,652,653,653,653,653,650,645,636,611,590,572,549,513,481,479,479,479,480,480,482,483,483,483,483,483,483,485,495,503,511,519],"ymouse":[623,623,623,623,623,623,623,623,623,623,623,623,623,623,623,623,623,623,623,623,623,623,623,623,623,623,623,623,623,623,623,623,623,623,623,623,623,623,623,623,623,623,623,623,623,623,623,623,623,623,623,623,623,623,623,623,623,623,623,623,623,623,623,621,616,595,548,481,446,438,432,421,396,389,381,376,371,370,352,348,338,326,311,288,277,272,264,251,235,233,232,229,224,223,221,220,220,217,216,215,215,205,166,141,118,94],"timestamp_mouse":[6,27,45,66,87,107,126,145,165,187,206,226,246,266,287,306,325,345,365,386,407,425,445,465,485,506,525,545,566,586,606,626,646,666,685,706,725,746,765,786,807,825,846,866,887,905,925,946,967,985,1006,1026,1046,1066,1086,1107,1127,1145,1166,1186,1205,1225,1247,1265,1285,1306,1326,1345,1365,1385,1406,1426,1446,1466,1486,1505,1527,1546,1565,1586,1606,1625,1647,1667,1688,1706,1727,1747,1767,1787,1807,1827,1848,1867,1887,1907,1927,1947,1968,1987,2007,2027,2048,2067,2087,2107],"xSR":741.5,"ySR":573.95,"xT1":424.9,"yT1":0,"xT2":1058.1,"yT2":0,"toosoon":0,"cond_shown":"randomdotsizeEA","ratio_trial":900,"smaller_num":"9","larger_num":"10","correct_side":2,"subjID":"VALERIAMARTINEZBUITRAGO","gender":"1","age":"9","school":"4"},{"start_time":1552055102655,"click_time":1552055104108,"finger_time":1552055103308,"fix_duration":365.1984120744224,"trial":14,"RT":653,"MT":800,"sideResp":2,"stimulus":"img/250/equaldotanddens/R/4_Ratio_250_L_3_R_12.png","xmouse":[789,789,789,789,789,789,790,791,793,795,797,798,798,798,799,799,799,799,799,799,799,799,799,799,799,799,800,805,810,819,825,833,850,877,950,982,1003,1035,1056,1100,1119,1139,1150,1164,1173,1178,1185,1194,1199,1210,1214,1218,1222,1225,1226,1226,1226,1226,1226,1226,1226,1226,1226,1226,1225,1224,1220,1213,1203,1188,1181,1169,1157],"ymouse":[612,612,612,612,612,612,612,612,612,612,612,611,611,611,611,611,611,611,611,611,611,611,611,611,611,610,610,608,607,604,603,600,595,587,562,550,540,522,505,452,418,372,334,288,267,247,225,195,175,152,140,127,115,106,100,100,100,100,100,100,100,100,100,100,99,99,98,96,92,84,80,77,72],"timestamp_mouse":[14,33,54,73,94,114,133,154,174,193,213,234,254,273,294,314,333,353,374,394,413,433,453,473,494,513,533,554,573,593,613,633,653,673,693,714,733,753,773,794,813,834,853,873,893,914,932,953,973,993,1014,1033,1053,1073,1094,1113,1133,1154,1173,1193,1214,1234,1253,1272,1292,1313,1333,1353,1373,1393,1413,1433,1453],"xSR":741.5,"ySR":573.95,"xT1":424.9,"yT1":0,"xT2":1058.1,"yT2":0,"toosoon":0,"cond_shown":"equaldotanddens","ratio_trial":250,"smaller_num":"3","larger_num":"12","correct_side":2,"subjID":"VALERIAMARTINEZBUITRAGO","gender":"1","age":"9","school":"4"},{"start_time":1552055106658,"click_time":1552055107948,"finger_time":1552055107369,"fix_duration":1348.1783401355203,"trial":15,"RT":711,"MT":579,"sideResp":1,"stimulus":"img/500/equaldotanddens/L/10_Ratio_500_L_4_R_2.png","xmouse":[795,795,795,795,795,795,795,795,795,795,795,795,795,795,795,795,795,795,795,795,795,795,795,795,795,795,795,795,795,795,795,795,795,794,790,779,756,739,724,687,670,655,641,630,620,603,598,595,590,581,573,565,558,553,548,541,533,518,501,485,485,487,491,499,506],"ymouse":[597,597,597,597,597,597,597,597,597,597,597,597,597,597,597,597,597,597,597,597,597,597,597,597,597,597,597,597,597,597,597,597,597,597,586,565,532,511,496,463,446,431,419,409,397,373,365,359,350,332,319,306,293,280,247,209,181,161,142,122,119,116,110,100,90],"timestamp_mouse":[12,30,50,70,90,111,130,151,169,191,209,230,251,270,290,309,330,350,371,390,411,431,449,471,490,510,531,550,570,591,611,630,651,670,691,711,730,750,770,790,811,830,850,871,890,910,930,951,970,990,1010,1031,1050,1071,1090,1110,1130,1150,1170,1190,1210,1231,1250,1270,1290],"xSR":741.5,"ySR":573.95,"xT1":424.9,"yT1":0,"xT2":1058.1,"yT2":0,"toosoon":0,"cond_shown":"equaldotanddens","ratio_trial":500,"smaller_num":"2","larger_num":"4","correct_side":1,"subjID":"VALERIAMARTINEZBUITRAGO","gender":"1","age":"9","school":"4"},{"start_time":1552055112075,"click_time":1552055113708,"finger_time":1552055113028,"fix_duration":1425.9542100204374,"trial":16,"RT":953,"MT":680,"sideResp":1,"stimulus":"img/750/randomdotsizeEA/L/13_Ratio_750_L_8_R_6.png","xmouse":[772,772,772,772,772,772,772,772,772,772,772,772,772,772,772,772,772,772,772,772,772,772,772,772,772,772,772,772,772,772,772,772,772,772,772,772,772,772,772,772,772,772,772,772,770,762,749,733,701,695,693,690,690,689,684,680,673,664,654,639,630,604,594,559,520,501,489,485,484,484,484,484,484,484,484,484,484,484,484,485,485,483],"ymouse":[621,621,621,621,621,621,621,621,621,621,621,621,621,621,621,621,621,621,621,621,621,621,621,621,621,621,621,621,621,621,621,621,621,621,621,621,621,621,621,621,621,620,619,618,612,597,576,557,521,511,499,485,471,453,432,418,402,386,369,334,308,254,238,194,159,143,133,129,127,127,127,127,127,127,127,127,127,127,124,113,101,91],"timestamp_mouse":[13,33,54,73,93,113,132,154,173,193,213,233,254,274,293,312,334,353,373,393,413,433,453,473,494,514,534,553,573,594,612,634,654,673,694,714,734,754,774,793,814,833,853,873,894,913,934,953,973,993,1014,1033,1054,1073,1093,1113,1134,1153,1173,1193,1213,1233,1253,1273,1293,1313,1334,1354,1373,1393,1414,1434,1453,1474,1493,1514,1534,1554,1573,1594,1613,1633],"xSR":741.5,"ySR":573.95,"xT1":424.9,"yT1":0,"xT2":1058.1,"yT2":0,"toosoon":0,"cond_shown":"randomdotsizeEA","ratio_trial":750,"smaller_num":"6","larger_num":"8","correct_side":1,"subjID":"VALERIAMARTINEZBUITRAGO","gender":"1","age":"9","school":"4"},{"start_time":1552055115579,"click_time":1552055117427,"finger_time":1552055116628,"fix_duration":709.5570174986752,"trial":17,"RT":1049,"MT":799,"sideResp":1,"stimulus":"img/900/equaldotanddens/L/10_Ratio_900_L_20_R_18.png","xmouse":[785,785,785,785,785,785,785,785,785,785,785,785,785,785,785,785,785,785,785,785,785,785,785,785,785,785,785,785,785,785,785,785,785,785,785,785,785,785,785,785,785,785,785,785,785,785,785,785,785,787,787,787,788,790,790,789,788,784,779,762,743,717,695,677,652,636,610,590,573,556,553,551,548,546,539,534,531,530,530,531,532,532,532,532,525,520,519,519,518,517,516,515,513],"ymouse":[632,632,632,632,632,632,632,632,632,632,632,632,632,632,632,632,632,632,632,632,632,632,632,632,632,632,632,632,632,632,632,632,632,632,632,632,632,632,632,632,632,632,632,632,632,632,632,632,632,629,608,579,551,535,522,512,501,485,467,440,428,414,405,399,381,363,337,319,302,277,267,257,242,227,195,179,171,170,170,166,161,153,146,140,126,121,121,121,120,115,109,101,97],"timestamp_mouse":[10,29,50,69,90,110,129,149,169,190,209,230,250,270,289,309,330,350,369,390,410,428,450,469,490,509,530,548,569,589,610,630,649,668,690,710,729,750,770,790,810,830,850,870,889,910,928,950,970,989,1009,1029,1049,1069,1089,1109,1129,1148,1169,1189,1209,1230,1249,1269,1290,1310,1329,1349,1369,1389,1409,1429,1449,1469,1489,1509,1529,1550,1569,1588,1609,1629,1649,1670,1689,1710,1730,1749,1770,1789,1809,1830,1848],"xSR":741.5,"ySR":573.95,"xT1":424.9,"yT1":0,"xT2":1058.1,"yT2":0,"toosoon":0,"cond_shown":"equaldotanddens","ratio_trial":900,"smaller_num":"18","larger_num":"20","correct_side":1,"subjID":"VALERIAMARTINEZBUITRAGO","gender":"1","age":"9","school":"4"},{"start_time":1552055118758,"click_time":1552055119668,"finger_time":1552055119449,"fix_duration":250,"trial":18,"RT":691,"MT":219,"sideResp":1,"stimulus":"img/750/randomdotsizeEA/R/4_Ratio_750_L_15_R_20.png","xmouse":[781,781,781,781,781,781,781,781,781,781,781,781,781,781,781,781,781,781,781,781,781,781,781,781,781,781,781,781,780,778,771,766,757,744,732,702,693,682,671,655,618,587,549,515,488,447],"ymouse":[645,645,645,645,645,645,645,645,645,645,645,645,645,645,645,645,645,645,645,645,645,645,645,645,645,645,645,643,641,637,623,614,602,591,577,547,540,531,521,507,471,430,361,277,180,57],"timestamp_mouse":[13,30,50,71,91,110,130,150,171,191,210,230,251,270,290,310,330,349,370,390,411,431,450,471,491,509,530,550,570,590,611,630,651,670,691,709,730,750,770,790,811,830,851,871,890,910],"xSR":741.5,"ySR":573.95,"xT1":424.9,"yT1":0,"xT2":1058.1,"yT2":0,"toosoon":0,"cond_shown":"randomdotsizeEA","ratio_trial":750,"smaller_num":"15","larger_num":"20","correct_side":2,"subjID":"VALERIAMARTINEZBUITRAGO","gender":"1","age":"9","school":"4"},{"start_time":1552055122764,"click_time":1552055125468,"finger_time":1552055124028,"fix_duration":1495.858818908323,"trial":19,"RT":1264,"MT":1440,"sideResp":1,"stimulus":"img/900/randomdotsizeEA/L/2_Ratio_900_L_20_R_18.png","xmouse":[803,803,803,803,803,803,803,803,803,803,803,803,803,803,802,802,802,802,802,802,802,802,802,802,802,802,802,802,802,802,802,802,802,802,802,802,802,801,801,801,800,800,800,798,797,797,796,796,796,796,796,796,796,796,795,795,795,795,795,793,787,767,752,740,730,722,709,702,696,688,679,645,623,584,549,501,417,383,358,345,339,337,337,337,337,337,337,337,337,337,337,341,343,344,346,348,352,355,359,363,366,370,372,374,378,383,393,400,409,418,421,422,422,422,422,422,422,422,422,422,422,422,422,422,422,422,422,422,422,422,422,422,422,422,423,425],"ymouse":[639,639,638,638,638,638,638,638,637,637,637,637,637,637,637,637,637,637,637,637,637,637,637,637,637,637,637,637,637,637,637,637,637,637,637,637,637,635,635,635,634,634,633,631,630,629,628,628,628,628,628,628,628,628,628,628,628,628,626,623,618,604,586,569,549,531,484,455,422,387,359,296,259,208,177,141,86,67,53,42,37,36,36,36,36,36,36,36,36,36,36,36,36,36,36,36,38,39,40,41,41,43,43,43,44,45,45,45,45,45,45,45,46,46,46,46,46,46,46,46,46,46,46,46,46,46,46,46,46,46,46,46,46,46,46,46],"timestamp_mouse":[4,25,44,64,85,104,125,144,165,185,204,225,244,265,285,303,325,344,365,385,405,425,444,463,485,505,525,545,564,583,605,625,645,663,684,705,725,743,764,784,805,824,844,864,884,904,925,944,964,984,1004,1025,1044,1064,1084,1105,1123,1144,1164,1184,1204,1224,1243,1264,1284,1304,1324,1344,1365,1384,1405,1424,1445,1465,1484,1504,1525,1544,1564,1584,1604,1625,1644,1664,1684,1704,1724,1743,1764,1784,1803,1824,1845,1864,1884,1904,1925,1944,1965,1984,2005,2023,2044,2064,2084,2103,2123,2144,2163,2183,2203,2223,2244,2264,2285,2304,2325,2345,2365,2385,2404,2424,2445,2465,2485,2505,2525,2545,2564,2584,2605,2625,2645,2663,2684,2704],"xSR":741.5,"ySR":573.95,"xT1":424.9,"yT1":0,"xT2":1058.1,"yT2":0,"toosoon":0,"cond_shown":"randomdotsizeEA","ratio_trial":900,"smaller_num":"18","larger_num":"20","correct_side":1,"subjID":"VALERIAMARTINEZBUITRAGO","gender":"1","age":"9","school":"4"},{"start_time":1552055126979,"click_time":1552055128708,"finger_time":1552055127668,"fix_duration":250,"trial":20,"RT":689,"MT":1040,"sideResp":2,"stimulus":"img/250/equaldotanddens/R/10_Ratio_250_L_4_R_16.png","xmouse":[774,774,774,774,774,774,774,774,774,774,774,774,774,774,774,774,774,774,774,774,774,774,774,774,774,774,774,774,779,782,813,822,829,836,849,873,884,898,919,939,958,997,1014,1030,1047,1075,1086,1097,1103,1103,1104,1108,1108,1110,1112,1115,1121,1122,1122,1122,1122,1125,1128,1130,1130,1130,1131,1131,1131,1133,1133,1133,1133,1134,1134,1134,1134,1134,1134,1134,1134,1133,1132,1132,1132,1132,1132],"ymouse":[612,612,612,612,612,612,612,612,612,612,612,612,612,612,612,612,612,612,612,612,612,612,612,612,612,612,612,612,612,612,597,593,590,587,581,569,561,553,540,527,514,470,444,415,384,336,317,302,288,288,285,277,277,274,269,260,242,234,223,215,215,186,169,152,146,131,126,122,119,116,111,109,109,108,108,108,108,108,107,107,107,106,105,105,105,102,98],"timestamp_mouse":[15,29,49,70,89,108,129,150,169,189,210,229,249,270,289,310,329,349,369,390,410,429,450,469,488,510,530,549,569,590,609,629,649,669,689,709,729,750,769,789,809,829,849,870,889,909,929,950,970,990,1009,1029,1049,1070,1088,1109,1129,1149,1169,1189,1208,1229,1249,1270,1289,1309,1329,1349,1369,1389,1409,1429,1449,1470,1490,1509,1529,1549,1568,1590,1609,1629,1650,1669,1689,1710,1729],"xSR":741.5,"ySR":573.95,"xT1":424.9,"yT1":0,"xT2":1058.1,"yT2":0,"toosoon":0,"cond_shown":"equaldotanddens","ratio_trial":250,"smaller_num":"4","larger_num":"16","correct_side":2,"subjID":"VALERIAMARTINEZBUITRAGO","gender":"1","age":"9","school":"4"},{"start_time":1552055130073,"click_time":1552055131528,"finger_time":1552055130988,"fix_duration":403.16958062346754,"trial":21,"RT":915,"MT":540,"sideResp":1,"stimulus":"img/250/randomdotsizeEA/L/3_Ratio_250_L_8_R_2.png","xmouse":[770,770,770,770,770,770,770,770,770,770,770,770,770,770,770,770,770,770,770,770,770,770,770,770,770,770,770,770,770,770,770,770,770,770,770,770,770,770,770,770,770,770,770,770,768,760,748,741,733,723,705,641,601,567,527,512,503,499,495,486,477,470,470,470,470,470,472,473,475,476,477,482,486],"ymouse":[637,637,637,637,637,637,637,637,637,637,637,637,637,637,637,637,637,637,637,637,637,637,637,637,637,637,637,637,637,637,637,637,637,637,637,637,637,637,637,637,637,637,635,630,596,565,515,492,467,434,396,312,280,259,231,219,209,203,195,184,175,169,169,169,169,168,158,153,146,135,126,107,97],"timestamp_mouse":[20,35,55,76,96,115,135,156,175,196,216,235,256,275,294,316,335,356,375,394,415,436,454,476,496,515,536,555,575,596,615,635,656,675,695,715,735,756,775,795,815,835,856,875,896,915,936,955,975,995,1015,1035,1055,1075,1095,1115,1136,1155,1176,1195,1215,1235,1255,1275,1295,1315,1335,1355,1375,1395,1416,1435,1454],"xSR":741.5,"ySR":573.95,"xT1":424.9,"yT1":0,"xT2":1058.1,"yT2":0,"toosoon":0,"cond_shown":"randomdotsizeEA","ratio_trial":250,"smaller_num":"2","larger_num":"8","correct_side":1,"subjID":"VALERIAMARTINEZBUITRAGO","gender":"1","age":"9","school":"4"},{"start_time":1552055134629,"click_time":1552055136069,"finger_time":1552055135307,"fix_duration":499.71031786378995,"trial":22,"RT":678,"MT":762,"sideResp":2,"stimulus":"img/900/equaldotanddens/R/3_Ratio_900_L_9_R_10.png","xmouse":[812,812,812,812,812,812,812,812,812,812,812,812,812,812,812,812,812,812,812,812,812,812,812,812,812,812,812,812,812,812,812,812,813,824,869,883,895,908,912,930,940,945,956,968,983,1022,1037,1049,1059,1072,1075,1077,1078,1080,1081,1084,1084,1085,1088,1099,1105,1112,1118,1122,1129,1130,1132,1132,1133,1133,1133,1133,1133],"ymouse":[637,637,636,636,636,636,636,636,636,636,636,636,636,636,636,636,636,636,636,636,636,636,636,636,636,636,636,636,636,636,636,633,629,613,549,531,520,508,502,480,469,465,456,447,435,408,394,382,371,348,339,333,327,322,316,289,274,257,238,197,179,159,144,134,117,113,111,110,108,104,103,101,99],"timestamp_mouse":[0,19,39,59,78,100,119,140,160,180,199,219,239,260,279,299,319,340,359,379,399,419,440,459,480,500,520,539,560,579,599,619,639,659,678,700,719,739,759,779,799,819,839,859,879,899,919,940,959,978,999,1019,1039,1060,1079,1099,1119,1139,1159,1180,1199,1220,1239,1259,1279,1299,1319,1339,1359,1380,1399,1419,1439],"xSR":741.5,"ySR":573.95,"xT1":424.9,"yT1":0,"xT2":1058.1,"yT2":0,"toosoon":0,"cond_shown":"equaldotanddens","ratio_trial":900,"smaller_num":"9","larger_num":"10","correct_side":2,"subjID":"VALERIAMARTINEZBUITRAGO","gender":"1","age":"9","school":"4"},{"start_time":1552055138621,"click_time":1552055140228,"finger_time":1552055139388,"fix_duration":1431.2326459560168,"trial":23,"RT":767,"MT":840,"sideResp":1,"stimulus":"img/750/equaldotanddens/L/1_Ratio_750_L_20_R_15.png","xmouse":[781,781,781,781,781,781,781,781,781,781,781,781,781,781,781,781,781,781,781,781,781,781,781,781,781,781,781,781,781,781,781,781,779,778,774,763,754,748,738,725,694,677,666,659,656,655,655,662,676,694,727,731,733,733,733,721,713,702,686,670,630,610,590,573,552,543,541,541,541,541,541,541,539,538,535,529,527,527,525,525,522],"ymouse":[629,629,629,629,629,629,629,629,629,629,629,629,629,629,629,629,629,629,629,629,629,629,629,629,629,629,629,629,629,629,629,629,628,628,625,619,616,614,611,605,595,590,585,581,573,553,534,505,456,408,326,298,277,257,247,221,205,188,170,153,127,115,102,90,74,68,66,66,66,66,66,66,65,65,63,60,60,59,59,58,57],"timestamp_mouse":[7,28,47,67,88,107,127,147,168,187,207,228,247,267,288,308,327,348,367,388,407,427,447,467,488,506,528,548,567,586,608,627,646,667,687,707,727,748,767,787,807,828,847,868,887,908,927,948,967,986,1008,1028,1047,1067,1087,1107,1127,1147,1167,1187,1207,1228,1247,1266,1287,1307,1327,1348,1367,1388,1406,1428,1446,1467,1487,1508,1527,1547,1568,1587,1607],"xSR":741.5,"ySR":573.95,"xT1":424.9,"yT1":0,"xT2":1058.1,"yT2":0,"toosoon":0,"cond_shown":"equaldotanddens","ratio_trial":750,"smaller_num":"15","larger_num":"20","correct_side":1,"subjID":"VALERIAMARTINEZBUITRAGO","gender":"1","age":"9","school":"4"},{"start_time":1552055142324,"click_time":1552055143548,"finger_time":1552055143071,"fix_duration":796.4984450216928,"trial":24,"RT":747,"MT":477,"sideResp":2,"stimulus":"img/500/randomdotsizeEA/R/15_Ratio_500_L_1_R_2.png","xmouse":[816,816,816,816,816,816,816,816,816,816,816,816,816,816,816,816,815,814,814,814,813,812,812,812,812,812,812,812,812,812,812,814,815,817,821,827,831,845,860,875,912,928,960,988,1018,1066,1083,1115,1132,1146,1165,1174,1181,1187,1192,1199,1199,1199,1193,1181,1146,1127],"ymouse":[608,608,608,608,608,608,608,608,608,608,608,608,608,608,608,608,609,609,609,609,610,611,611,611,611,611,611,611,611,611,611,610,609,607,603,598,594,582,571,563,541,532,519,506,494,466,452,419,399,379,352,340,328,317,302,264,239,210,176,154,108,88],"timestamp_mouse":[4,24,44,65,85,104,124,145,164,185,204,224,244,265,285,304,324,343,365,385,404,424,445,465,485,505,524,545,565,585,604,624,645,664,685,704,725,747,764,784,804,824,844,864,885,904,924,943,965,984,1004,1024,1044,1064,1083,1104,1125,1144,1164,1184,1204,1224],"xSR":741.5,"ySR":573.95,"xT1":424.9,"yT1":0,"xT2":1058.1,"yT2":0,"toosoon":0,"cond_shown":"randomdotsizeEA","ratio_trial":500,"smaller_num":"1","larger_num":"2","correct_side":2,"subjID":"VALERIAMARTINEZBUITRAGO","gender":"1","age":"9","school":"4"},{"start_time":1552055145570,"click_time":1552055147348,"finger_time":1552055146988,"fix_duration":980.8632429630487,"trial":25,"RT":1418,"MT":360,"sideResp":2,"stimulus":"img/900/randomdotsizeEA/R/3_Ratio_900_L_9_R_10.png","xmouse":[790,790,790,790,790,790,790,790,790,790,790,790,790,790,790,790,790,790,790,790,790,790,790,790,790,790,790,790,790,790,790,790,790,790,790,790,790,790,790,790,790,790,790,790,790,790,790,790,790,790,790,790,787,783,776,770,768,768,768,768,768,768,768,768,769,773,777,792,804,819,837,864,899,925,944,965,987,1030,1051,1077,1099,1111,1123,1123,1123,1120,1117,1111,1111],"ymouse":[645,645,645,644,644,644,644,644,644,644,644,644,644,644,644,644,644,644,644,644,644,644,644,644,644,644,644,644,644,644,644,644,644,644,644,644,644,644,644,644,644,644,644,644,644,644,644,644,644,644,644,644,641,637,627,619,617,617,617,617,617,617,616,615,614,612,610,599,590,580,567,545,513,489,473,458,439,400,378,346,313,289,234,210,187,166,144,104,86],"timestamp_mouse":[18,39,59,78,99,118,138,159,179,198,218,239,257,279,298,319,338,359,379,398,418,438,458,479,498,518,538,559,578,598,618,638,658,679,697,718,738,758,779,797,818,838,859,878,898,918,938,958,978,999,1018,1038,1057,1078,1099,1119,1139,1159,1178,1199,1218,1239,1258,1278,1298,1318,1338,1358,1378,1397,1418,1438,1458,1478,1498,1518,1538,1559,1578,1599,1618,1639,1657,1679,1698,1718,1738,1758,1778],"xSR":741.5,"ySR":573.95,"xT1":424.9,"yT1":0,"xT2":1058.1,"yT2":0,"toosoon":0,"cond_shown":"randomdotsizeEA","ratio_trial":900,"smaller_num":"9","larger_num":"10","correct_side":2,"subjID":"VALERIAMARTINEZBUITRAGO","gender":"1","age":"9","school":"4"},{"start_time":1552055149099,"click_time":1552055150788,"finger_time":1552055149668,"fix_duration":250,"trial":26,"RT":569,"MT":1120,"sideResp":1,"stimulus":"img/250/equaldotsize/L/7_Ratio_250_L_8_R_2.png","xmouse":[777,777,777,778,778,778,778,778,778,778,778,778,778,778,778,778,778,778,778,778,778,778,778,778,778,778,778,783,786,787,787,787,782,779,777,777,777,774,766,751,731,706,670,656,649,642,637,624,607,583,565,551,548,548,548,546,543,540,538,538,538,538,538,538,537,530,527,525,525,525,525,525,525,525,525,525,525,525,525,525,525,525,525,525,523],"ymouse":[603,603,603,603,603,603,603,603,603,603,603,603,603,603,603,603,603,603,603,603,603,603,603,603,603,603,601,589,571,540,488,439,368,344,329,313,299,262,238,211,178,151,114,101,91,79,73,61,50,36,29,24,23,23,23,23,21,21,21,21,21,21,21,21,20,18,18,17,17,17,17,17,17,17,17,17,17,17,17,17,17,17,17,17,17],"timestamp_mouse":[10,29,49,69,90,108,129,150,170,189,210,229,248,270,289,310,329,348,369,389,410,429,450,468,489,510,529,549,569,589,609,629,649,670,689,709,729,750,769,789,809,829,849,870,889,910,929,950,969,990,1009,1029,1049,1069,1088,1109,1129,1149,1169,1189,1210,1230,1249,1269,1289,1309,1329,1350,1369,1389,1409,1429,1450,1469,1489,1509,1529,1550,1569,1589,1609,1629,1650,1670,1689],"xSR":741.5,"ySR":573.95,"xT1":424.9,"yT1":0,"xT2":1058.1,"yT2":0,"toosoon":0,"cond_shown":"equaldotsize","ratio_trial":250,"smaller_num":"2","larger_num":"8","correct_side":1,"subjID":"VALERIAMARTINEZBUITRAGO","gender":"1","age":"9","school":"4"},{"start_time":1552055156837,"click_time":1552055158048,"finger_time":1552055157648,"fix_duration":849.520012430626,"trial":27,"RT":811,"MT":400,"sideResp":1,"stimulus":"img/750/equaldotanddens/L/6_Ratio_750_L_24_R_18.png","xmouse":[794,794,794,794,794,794,794,794,794,794,794,794,794,794,794,794,794,794,794,794,794,794,794,794,794,794,794,794,794,794,794,794,794,794,794,794,794,797,798,791,732,702,682,668,660,653,652,649,643,637,633,632,631,629,618,610,555,529,506,486,445],"ymouse":[653,653,653,653,653,653,653,653,653,653,653,653,653,653,653,653,653,653,653,653,653,653,653,653,653,653,653,653,653,653,653,653,653,653,653,653,651,646,641,621,514,461,415,385,362,327,304,288,275,267,258,256,254,249,235,226,177,158,139,117,80],"timestamp_mouse":[15,31,51,72,92,111,132,152,172,191,212,232,252,271,291,312,331,351,371,391,411,432,451,471,490,511,532,551,572,592,612,632,652,672,692,711,731,750,771,791,811,830,851,871,892,911,931,951,972,991,1011,1031,1051,1071,1092,1111,1131,1151,1171,1191,1211],"xSR":741.5,"ySR":573.95,"xT1":424.9,"yT1":0,"xT2":1058.1,"yT2":0,"toosoon":0,"cond_shown":"equaldotanddens","ratio_trial":750,"smaller_num":"18","larger_num":"24","correct_side":1,"subjID":"VALERIAMARTINEZBUITRAGO","gender":"1","age":"9","school":"4"},{"start_time":1552055160861,"click_time":1552055162290,"finger_time":1552055161529,"fix_duration":250,"trial":28,"RT":668,"MT":761,"sideResp":2,"stimulus":"img/900/equaldotanddens/R/3_Ratio_900_L_9_R_10.png","xmouse":[813,813,813,812,811,808,808,808,808,808,808,808,808,808,808,808,808,808,808,808,808,808,808,808,808,808,808,808,808,808,815,827,833,851,871,889,921,934,948,975,984,1030,1059,1081,1093,1099,1099,1101,1101,1102,1103,1107,1110,1114,1118,1126,1127,1127,1127,1127,1127,1127,1128,1128,1128,1128,1114,1106,1103,1103,1103,1098],"ymouse":[629,629,629,629,629,630,630,630,630,630,630,630,630,630,630,630,630,630,630,630,630,630,630,630,630,630,630,630,630,630,629,621,617,606,588,569,537,519,503,478,469,417,373,336,300,257,241,231,224,217,212,202,192,180,171,148,142,138,137,136,135,132,128,126,124,121,107,102,100,100,100,85],"timestamp_mouse":[11,28,48,69,88,108,128,148,168,188,208,228,249,269,288,308,327,348,369,388,408,428,447,468,489,508,527,549,568,589,607,627,648,668,687,709,728,748,769,787,807,829,848,868,888,907,928,948,968,989,1008,1029,1048,1068,1087,1108,1129,1147,1168,1189,1208,1229,1248,1268,1288,1307,1328,1348,1368,1388,1408,1429],"xSR":741.5,"ySR":573.95,"xT1":424.9,"yT1":0,"xT2":1058.1,"yT2":0,"toosoon":0,"cond_shown":"equaldotanddens","ratio_trial":900,"smaller_num":"9","larger_num":"10","correct_side":2,"subjID":"VALERIAMARTINEZBUITRAGO","gender":"1","age":"9","school":"4"},{"start_time":1552055165392,"click_time":1552055166689,"finger_time":1552055166388,"fix_duration":1442.257829351085,"trial":29,"RT":996,"MT":301,"sideResp":1,"stimulus":"img/750/randomdotsizeEA/L/6_Ratio_750_L_24_R_18.png","xmouse":[775,775,775,775,775,775,775,775,775,775,775,775,775,775,775,775,775,775,775,775,775,775,775,775,775,775,775,775,775,775,775,775,775,775,775,775,775,775,775,775,775,775,775,775,775,775,775,775,775,764,725,619,555,514,475,474,474,474,480,483,484,485,487,487,489],"ymouse":[600,600,600,600,600,600,600,600,600,600,600,600,600,600,600,600,600,600,600,600,600,600,600,600,600,600,600,600,598,594,589,580,578,576,576,576,576,576,576,576,576,576,576,576,576,576,576,576,576,564,520,417,348,309,258,230,207,190,166,125,116,109,102,100,96],"timestamp_mouse":[16,38,57,76,96,117,138,157,177,197,216,238,257,277,296,317,337,356,377,397,417,438,456,477,498,517,537,558,576,597,618,637,658,676,697,718,737,757,777,796,818,838,857,877,898,917,937,957,976,996,1016,1036,1057,1077,1096,1117,1136,1156,1178,1197,1217,1237,1257,1276,1296],"xSR":741.5,"ySR":573.95,"xT1":424.9,"yT1":0,"xT2":1058.1,"yT2":0,"toosoon":0,"cond_shown":"randomdotsizeEA","ratio_trial":750,"smaller_num":"18","larger_num":"24","correct_side":1,"subjID":"VALERIAMARTINEZBUITRAGO","gender":"1","age":"9","school":"4"},{"start_time":1552055169764,"click_time":1552055171489,"finger_time":1552055170488,"fix_duration":554.7927730384537,"trial":30,"RT":724,"MT":1001,"sideResp":2,"stimulus":"img/900/equaldotanddens/R/15_Ratio_900_L_9_R_10.png","xmouse":[778,778,778,778,778,778,778,778,778,778,778,778,778,778,778,778,778,777,775,772,770,769,766,765,765,765,765,765,765,765,765,765,773,791,813,841,881,958,976,992,1008,1021,1044,1047,1048,1048,1048,1052,1053,1055,1060,1070,1086,1096,1104,1107,1109,1111,1114,1123,1132,1150,1154,1160,1161,1162,1168,1171,1174,1177,1179,1182,1185,1185,1185,1185,1185,1185,1185,1185,1181,1178,1171,1168,1165,1161,1157],"ymouse":[639,639,639,639,639,639,639,639,639,639,639,639,639,639,639,639,640,643,644,645,646,647,649,650,650,650,650,650,650,650,650,650,647,639,624,602,572,516,499,481,458,439,392,372,358,352,349,343,340,335,324,306,286,280,279,278,278,278,278,278,273,248,233,216,203,194,177,171,161,148,137,120,103,98,96,95,94,94,94,93,91,90,88,88,88,87,86],"timestamp_mouse":[7,25,45,65,85,106,125,145,165,185,205,225,245,265,285,305,325,346,365,385,405,425,445,465,485,505,525,545,565,584,604,624,644,664,684,704,724,744,765,784,804,824,844,865,884,904,924,945,964,984,1004,1024,1044,1065,1084,1106,1124,1146,1166,1186,1206,1225,1244,1265,1285,1305,1325,1345,1366,1386,1407,1425,1446,1465,1486,1506,1525,1546,1565,1585,1604,1624,1646,1664,1685,1705,1725],"xSR":741.5,"ySR":573.95,"xT1":424.9,"yT1":0,"xT2":1058.1,"yT2":0,"toosoon":0,"cond_shown":"equaldotanddens","ratio_trial":900,"smaller_num":"9","larger_num":"10","correct_side":2,"subjID":"VALERIAMARTINEZBUITRAGO","gender":"1","age":"9","school":"4"},{"start_time":1552055174313,"click_time":1552055175369,"finger_time":1552055174908,"fix_duration":822.4692492040554,"trial":31,"RT":595,"MT":461,"sideResp":2,"stimulus":"img/250/equaldotanddens/R/6_Ratio_250_L_6_R_24.png","xmouse":[799,799,799,799,799,799,799,799,799,799,799,799,799,799,799,799,799,799,799,799,799,799,799,799,799,799,799,806,812,855,926,981,1034,1096,1192,1218,1237,1246,1250,1254,1256,1257,1259,1260,1259,1259,1259,1259,1259,1246,1212,1167,1150],"ymouse":[604,604,604,604,604,604,604,604,604,604,604,604,604,604,604,604,604,604,604,604,604,604,604,604,604,604,604,592,585,544,479,430,372,295,184,159,143,136,130,121,111,107,97,84,69,69,69,69,68,66,64,54,48],"timestamp_mouse":[16,37,55,76,97,117,136,155,176,195,216,237,257,277,295,316,336,356,377,397,416,436,455,477,497,517,536,556,577,595,616,635,657,676,696,715,736,755,776,795,816,836,856,876,896,916,936,956,977,996,1016,1035,1056],"xSR":741.5,"ySR":573.95,"xT1":424.9,"yT1":0,"xT2":1058.1,"yT2":0,"toosoon":0,"cond_shown":"equaldotanddens","ratio_trial":250,"smaller_num":"6","larger_num":"24","correct_side":2,"subjID":"VALERIAMARTINEZBUITRAGO","gender":"1","age":"9","school":"4"},{"start_time":1552055177371,"click_time":1552055179349,"finger_time":1552055178429,"fix_duration":662.3240662533075,"trial":32,"RT":1058,"MT":920,"sideResp":1,"stimulus":"img/750/equaldotanddens/L/8_Ratio_750_L_4_R_3.png","xmouse":[802,802,802,802,802,802,802,802,802,802,802,802,802,802,802,802,802,802,802,802,802,802,802,802,802,802,802,802,802,802,802,802,802,802,802,802,802,802,802,802,802,802,802,802,802,802,802,802,802,802,802,796,784,766,746,731,703,683,673,661,648,605,573,542,520,508,502,502,502,502,502,501,501,501,501,504,528,530,532,532,532,532,532,532,532,532,532,532,532,532,532,532,532,532,532,532,532,531,524],"ymouse":[606,606,606,606,606,606,606,606,606,606,606,606,606,606,606,606,606,606,606,606,606,606,606,606,606,606,606,606,606,606,606,606,606,606,606,606,606,606,606,606,606,606,606,606,606,606,606,606,606,606,606,592,567,531,492,468,433,410,396,380,362,300,264,241,225,216,213,212,204,188,162,121,113,110,107,103,70,62,58,56,56,56,56,56,56,56,56,56,56,56,56,56,56,56,56,56,56,56,56],"timestamp_mouse":[19,39,58,79,99,118,138,158,179,198,218,238,258,279,298,318,337,359,379,399,417,438,459,479,499,518,537,559,579,597,618,638,657,679,699,718,737,759,778,798,818,837,858,879,898,918,939,958,978,998,1017,1038,1058,1078,1097,1119,1138,1158,1177,1197,1218,1238,1258,1279,1298,1319,1339,1359,1378,1397,1418,1439,1458,1478,1498,1518,1537,1557,1577,1599,1618,1638,1657,1678,1699,1718,1739,1757,1777,1797,1818,1839,1858,1878,1899,1918,1938,1958,1978],"xSR":741.5,"ySR":573.95,"xT1":424.9,"yT1":0,"xT2":1058.1,"yT2":0,"toosoon":0,"cond_shown":"equaldotanddens","ratio_trial":750,"smaller_num":"3","larger_num":"4","correct_side":1,"subjID":"VALERIAMARTINEZBUITRAGO","gender":"1","age":"9","school":"4"},{"start_time":1552055184018,"click_time":1552055185889,"finger_time":1552055184928,"fix_duration":1288.3330395819564,"trial":33,"RT":910,"MT":961,"sideResp":2,"stimulus":"img/250/randomdotsizeEA/R/4_Ratio_250_L_3_R_12.png","xmouse":[827,827,827,827,827,827,827,827,827,827,827,827,827,827,827,827,827,827,827,827,826,826,826,826,826,826,826,826,826,826,826,826,826,826,826,826,826,826,826,826,826,827,832,832,832,846,856,860,862,862,862,864,892,906,906,927,931,933,938,947,970,981,1002,1024,1061,1155,1182,1196,1208,1226,1250,1258,1259,1260,1260,1260,1260,1260,1259,1250,1237,1230,1229,1227,1225,1216,1203,1189,1179,1172,1168,1164,1160,1150],"ymouse":[637,637,637,637,637,637,637,637,637,637,637,637,637,637,637,637,637,637,637,637,636,636,636,636,636,636,636,636,636,636,636,636,636,636,636,636,636,636,633,630,630,627,622,622,622,606,598,595,595,595,595,593,584,579,577,545,534,526,519,500,462,440,404,378,335,265,245,233,224,212,193,186,182,179,177,177,177,177,175,166,155,149,147,144,139,122,105,91,84,80,77,76,75,70],"timestamp_mouse":[13,32,51,70,91,110,132,152,171,191,212,231,251,271,291,310,331,351,372,391,410,431,450,471,492,512,530,551,571,592,611,632,651,672,692,711,731,750,770,790,812,830,850,871,891,910,931,951,970,992,1011,1032,1051,1071,1090,1111,1131,1150,1171,1191,1211,1231,1251,1270,1291,1311,1331,1352,1371,1391,1410,1431,1450,1471,1490,1510,1532,1551,1571,1592,1610,1631,1651,1671,1690,1712,1730,1751,1771,1791,1811,1830,1850,1871],"xSR":741.5,"ySR":573.95,"xT1":424.9,"yT1":0,"xT2":1058.1,"yT2":0,"toosoon":0,"cond_shown":"randomdotsizeEA","ratio_trial":250,"smaller_num":"3","larger_num":"12","correct_side":2,"subjID":"VALERIAMARTINEZBUITRAGO","gender":"1","age":"9","school":"4"},{"start_time":1552055188420,"click_time":1552055189589,"finger_time":1552055189169,"fix_duration":888.9930388930887,"trial":34,"RT":749,"MT":420,"sideResp":2,"stimulus":"img/750/equaldotanddens/R/11_Ratio_750_L_12_R_16.png","xmouse":[821,821,821,821,821,821,821,821,821,821,821,821,821,821,821,821,821,821,821,821,821,821,821,821,821,821,821,821,821,821,821,821,821,821,823,826,835,850,863,879,903,940,962,984,1000,1031,1047,1062,1072,1082,1105,1117,1129,1139,1149,1162,1159,1151,1145],"ymouse":[622,622,622,622,622,622,622,622,622,622,622,622,622,622,622,622,622,622,622,622,622,622,622,622,622,622,622,622,622,622,622,622,622,622,618,613,605,591,581,567,544,509,488,468,452,419,402,384,371,357,323,307,290,269,241,166,137,107,88],"timestamp_mouse":[12,29,50,70,90,108,128,148,168,190,209,229,248,270,290,309,330,350,368,389,408,430,450,468,490,509,530,549,570,589,608,629,649,668,688,709,728,749,769,789,809,829,849,870,890,909,929,949,970,990,1008,1029,1050,1069,1090,1109,1130,1149,1169],"xSR":741.5,"ySR":573.95,"xT1":424.9,"yT1":0,"xT2":1058.1,"yT2":0,"toosoon":0,"cond_shown":"equaldotanddens","ratio_trial":750,"smaller_num":"12","larger_num":"16","correct_side":2,"subjID":"VALERIAMARTINEZBUITRAGO","gender":"1","age":"9","school":"4"},{"start_time":1552055191848,"click_time":1552055192969,"finger_time":1552055192549,"fix_duration":697.1244029447414,"trial":35,"RT":701,"MT":420,"sideResp":1,"stimulus":"img/500/equaldotsize/L/13_Ratio_500_L_12_R_6.png","xmouse":[788,788,788,788,788,788,788,788,788,788,788,788,788,788,788,788,788,788,788,788,788,788,788,788,788,788,788,788,788,788,788,788,788,786,783,751,716,660,624,585,537,523,515,510,503,492,485,480,479,479,479,479,479,479,479,478,476],"ymouse":[613,613,613,613,613,613,613,613,613,613,613,613,613,613,613,613,613,613,613,613,613,613,613,613,613,613,613,613,613,613,613,613,613,605,592,508,457,393,359,328,285,270,260,251,239,211,194,185,179,175,174,173,170,163,153,120,79],"timestamp_mouse":[4,20,41,61,82,101,122,141,161,181,201,221,241,261,282,302,321,341,361,381,401,421,441,461,481,501,521,541,562,581,602,622,641,661,681,701,721,742,761,781,800,821,841,860,881,901,921,941,960,980,1001,1021,1040,1060,1081,1101,1120],"xSR":741.5,"ySR":573.95,"xT1":424.9,"yT1":0,"xT2":1058.1,"yT2":0,"toosoon":0,"cond_shown":"equaldotsize","ratio_trial":500,"smaller_num":"6","larger_num":"12","correct_side":1,"subjID":"VALERIAMARTINEZBUITRAGO","gender":"1","age":"9","school":"4"},{"start_time":1552055196669,"click_time":1552055198669,"finger_time":1552055198048,"fix_duration":598.8637177666873,"trial":36,"RT":1379,"MT":621,"sideResp":2,"stimulus":"img/750/randomdotsizeEA/R/3_Ratio_750_L_15_R_20.png","xmouse":[810,810,810,810,810,810,810,810,810,810,810,810,810,810,810,810,810,810,810,810,810,810,810,810,810,810,810,810,810,810,810,810,810,810,810,810,810,810,810,810,810,810,810,810,811,811,811,811,811,811,811,811,812,812,812,812,812,812,812,812,812,812,812,812,812,815,819,826,835,848,873,886,901,914,941,1005,1038,1072,1095,1111,1132,1137,1142,1146,1152,1160,1162,1164,1165,1165,1165,1165,1165,1165,1165,1165,1165,1165,1165,1165,1158],"ymouse":[636,636,635,635,635,635,635,635,635,635,635,635,635,635,635,635,635,635,635,635,635,635,635,635,635,635,635,635,635,635,635,635,635,635,635,635,635,635,635,633,632,631,630,629,628,627,627,626,626,626,625,625,624,624,624,624,624,624,624,624,624,624,624,624,623,617,612,604,595,580,550,538,524,510,477,377,324,279,246,220,172,154,138,124,102,87,84,83,82,81,81,81,81,81,81,81,81,81,81,80,76],"timestamp_mouse":[0,19,40,61,80,101,121,141,160,179,201,221,241,261,280,299,320,340,360,380,400,421,439,461,481,500,519,539,560,580,601,619,640,661,681,700,721,739,759,780,800,821,840,860,881,899,919,940,960,980,1000,1021,1039,1060,1080,1100,1121,1140,1160,1180,1200,1221,1240,1259,1279,1300,1319,1339,1359,1379,1399,1421,1440,1460,1480,1501,1520,1540,1559,1580,1600,1619,1640,1660,1679,1699,1720,1739,1761,1781,1801,1820,1840,1860,1880,1900,1921,1939,1960,1980,1999],"xSR":741.5,"ySR":573.95,"xT1":424.9,"yT1":0,"xT2":1058.1,"yT2":0,"toosoon":0,"cond_shown":"randomdotsizeEA","ratio_trial":750,"smaller_num":"15","larger_num":"20","correct_side":2,"subjID":"VALERIAMARTINEZBUITRAGO","gender":"1","age":"9","school":"4"},{"start_time":1552055202163,"click_time":1552055203289,"finger_time":1552055202788,"fix_duration":773.0054290039229,"trial":37,"RT":625,"MT":501,"sideResp":1,"stimulus":"img/250/equaldotanddens/L/5_Ratio_250_L_24_R_6.png","xmouse":[808,808,808,808,808,808,808,808,807,807,807,807,807,807,807,807,807,807,807,807,807,807,807,807,807,807,807,807,807,807,801,780,745,703,649,601,543,531,530,529,528,525,523,520,517,510,495,489,486,486,494,501,503,504,504,504,502],"ymouse":[597,597,597,597,597,597,597,597,597,597,597,597,597,597,597,597,597,597,597,597,597,597,597,597,597,597,597,597,597,595,585,547,495,440,393,360,328,322,322,321,321,317,310,301,288,271,249,231,222,216,199,183,164,142,121,102,79],"timestamp_mouse":[6,27,46,66,85,105,126,147,165,186,205,227,246,267,287,306,326,345,366,387,406,426,446,467,487,506,525,546,566,586,606,625,646,666,685,705,726,746,767,786,806,826,846,865,885,906,925,946,965,985,1005,1026,1047,1066,1085,1105,1126],"xSR":741.5,"ySR":573.95,"xT1":424.9,"yT1":0,"xT2":1058.1,"yT2":0,"toosoon":0,"cond_shown":"equaldotanddens","ratio_trial":250,"smaller_num":"6","larger_num":"24","correct_side":1,"subjID":"VALERIAMARTINEZBUITRAGO","gender":"1","age":"9","school":"4"},{"start_time":1552055205397,"click_time":1552055206829,"finger_time":1552055206068,"fix_duration":966.172712218274,"trial":38,"RT":671,"MT":761,"sideResp":2,"stimulus":"img/750/equaldotsize/R/4_Ratio_750_L_15_R_20.png","xmouse":[810,810,810,810,810,810,810,810,810,810,810,810,810,810,810,810,810,810,810,810,810,810,810,810,810,810,810,810,812,822,831,837,840,872,888,909,926,940,953,972,976,979,981,983,992,993,993,993,993,994,995,996,999,1010,1016,1019,1025,1031,1036,1046,1049,1050,1052,1052,1053,1054,1059,1065,1074,1086,1094,1102],"ymouse":[611,611,611,611,611,611,611,611,611,611,611,611,611,611,611,611,611,611,611,611,611,611,611,611,611,611,611,611,608,596,586,576,574,536,516,494,474,456,441,413,400,386,370,355,290,272,258,247,236,232,228,225,222,208,202,198,193,188,184,175,171,166,161,155,151,148,142,136,129,113,105,99],"timestamp_mouse":[12,33,52,72,91,113,132,153,171,192,212,233,252,272,293,313,332,352,372,391,412,431,453,472,493,512,531,551,572,591,611,633,653,671,691,711,731,751,771,792,812,832,851,871,893,912,932,953,971,991,1012,1031,1052,1071,1092,1112,1132,1151,1173,1192,1212,1232,1253,1271,1293,1312,1333,1351,1372,1392,1413,1432],"xSR":741.5,"ySR":573.95,"xT1":424.9,"yT1":0,"xT2":1058.1,"yT2":0,"toosoon":0,"cond_shown":"equaldotsize","ratio_trial":750,"smaller_num":"15","larger_num":"20","correct_side":2,"subjID":"VALERIAMARTINEZBUITRAGO","gender":"1","age":"9","school":"4"},{"start_time":1552055209581,"click_time":1552055211390,"finger_time":1552055210389,"fix_duration":250,"trial":39,"RT":808,"MT":1001,"sideResp":1,"stimulus":"img/500/randomdotsizeEA/L/7_Ratio_500_L_10_R_5.png","xmouse":[813,813,813,813,814,814,815,815,815,815,815,815,815,815,815,815,815,815,815,815,815,815,815,815,815,815,815,815,815,815,815,815,815,815,816,818,822,827,833,840,858,868,881,899,907,926,932,936,938,938,938,938,938,938,936,917,899,881,863,848,824,813,802,795,785,749,728,705,682,668,657,653,645,641,633,619,614,612,611,609,602,591,588,572,563,539,525,511,495,484,467],"ymouse":[635,635,635,633,631,630,628,628,628,628,628,628,628,628,628,628,628,628,628,628,628,628,628,628,628,628,628,628,628,628,628,628,628,628,627,625,619,610,602,592,570,559,546,526,517,498,488,484,481,480,480,480,480,480,480,481,486,489,494,496,496,496,494,492,486,466,454,442,430,419,403,388,360,340,318,283,271,264,253,238,204,178,170,145,134,118,113,109,105,101,95],"timestamp_mouse":[13,28,49,68,88,107,128,148,168,188,207,227,248,269,288,308,328,347,369,389,408,428,448,468,488,507,529,548,567,587,609,627,648,668,687,707,728,748,769,789,808,828,847,869,888,907,927,947,968,988,1007,1028,1049,1068,1088,1109,1127,1149,1168,1188,1208,1228,1247,1268,1287,1309,1328,1348,1367,1387,1407,1428,1448,1468,1487,1508,1527,1547,1567,1589,1607,1627,1648,1668,1688,1708,1728,1748,1768,1789,1809],"xSR":741.5,"ySR":573.95,"xT1":424.9,"yT1":0,"xT2":1058.1,"yT2":0,"toosoon":0,"cond_shown":"randomdotsizeEA","ratio_trial":500,"smaller_num":"5","larger_num":"10","correct_side":1,"subjID":"VALERIAMARTINEZBUITRAGO","gender":"1","age":"9","school":"4"},{"start_time":1552055214037,"click_time":1552055215810,"finger_time":1552055214689,"fix_duration":666.2277063929358,"trial":40,"RT":652,"MT":1121,"sideResp":1,"stimulus":"img/250/equaldotsize/L/1_Ratio_250_L_8_R_2.png","xmouse":[783,783,783,783,783,783,783,783,783,783,783,783,783,783,783,783,783,783,783,783,783,783,783,783,783,783,783,783,783,786,787,789,789,773,758,748,735,727,727,727,727,725,720,715,710,706,702,702,702,701,701,701,701,701,701,701,698,654,606,554,516,490,460,453,449,447,440,430,428,427,427,427,424,424,423,422,419,415,412,411,410,410,410,410,412,413,416,420,428],"ymouse":[641,641,641,641,641,641,641,641,641,641,641,641,641,641,641,641,641,641,641,641,641,641,641,641,641,641,641,641,635,627,616,601,531,488,460,443,428,422,422,422,421,417,409,402,394,387,379,378,377,375,374,374,374,374,374,374,374,368,362,354,352,348,338,332,324,312,297,276,273,271,267,263,246,238,226,213,201,173,163,157,151,145,132,126,120,114,110,103,94],"timestamp_mouse":[12,32,52,71,91,112,132,152,172,192,212,232,253,272,292,312,332,352,373,392,413,431,452,473,492,512,532,553,572,593,611,631,652,672,693,712,732,752,772,792,811,832,853,872,893,912,932,952,971,991,1012,1033,1053,1073,1092,1112,1132,1151,1171,1191,1212,1232,1251,1272,1293,1312,1332,1353,1372,1392,1411,1432,1452,1471,1492,1512,1532,1552,1571,1592,1613,1632,1651,1672,1691,1712,1732,1752,1773],"xSR":741.5,"ySR":573.95,"xT1":424.9,"yT1":0,"xT2":1058.1,"yT2":0,"toosoon":0,"cond_shown":"equaldotsize","ratio_trial":250,"smaller_num":"2","larger_num":"8","correct_side":1,"subjID":"VALERIAMARTINEZBUITRAGO","gender":"1","age":"9","school":"4"},{"start_time":1552055217986,"click_time":1552055219688,"finger_time":1552055218749,"fix_duration":415.4561304683445,"trial":41,"RT":763,"MT":939,"sideResp":1,"stimulus":"img/750/equaldotsize/L/6_Ratio_750_L_24_R_18.png","xmouse":[800,800,800,800,800,800,800,800,800,800,800,800,800,800,800,800,800,800,800,800,800,800,800,800,800,800,800,800,800,800,799,796,785,770,758,751,746,743,736,725,712,652,612,596,587,582,581,581,581,581,577,575,575,575,576,580,588,595,603,608,602,583,577,572,568,563,552,545,536,526,505,493,489,484,479,475,471,471,471,474,479,480,482,483,483,483],"ymouse":[651,651,651,651,651,651,651,651,651,651,651,651,651,651,651,651,651,651,651,651,651,651,651,651,651,651,651,651,651,651,651,651,653,654,654,653,653,651,642,628,626,617,609,604,597,592,590,589,589,585,563,551,549,547,546,540,524,514,492,445,411,362,340,322,307,290,272,264,258,251,242,236,233,231,228,226,220,214,203,184,158,147,137,124,108,95],"timestamp_mouse":[3,25,42,63,84,104,123,142,163,182,203,222,243,263,283,302,323,343,363,382,404,424,442,463,483,503,523,544,563,584,602,622,642,663,683,703,723,742,763,783,803,824,842,863,882,902,922,942,963,983,1002,1023,1043,1064,1083,1103,1123,1143,1164,1184,1203,1223,1243,1262,1282,1302,1322,1342,1362,1383,1402,1422,1442,1464,1482,1503,1523,1543,1563,1584,1604,1622,1642,1663,1682,1702],"xSR":741.5,"ySR":573.95,"xT1":424.9,"yT1":0,"xT2":1058.1,"yT2":0,"toosoon":0,"cond_shown":"equaldotsize","ratio_trial":750,"smaller_num":"18","larger_num":"24","correct_side":1,"subjID":"VALERIAMARTINEZBUITRAGO","gender":"1","age":"9","school":"4"},{"start_time":1552055224472,"click_time":1552055226531,"finger_time":1552055226209,"fix_duration":742.9563252621955,"trial":42,"RT":1737,"MT":322,"sideResp":2,"stimulus":"img/900/equaldotsize/L/1_Ratio_900_L_10_R_9.png","xmouse":[795,795,795,795,795,795,795,795,795,795,795,795,795,795,795,795,795,795,795,795,795,795,795,795,795,795,795,795,795,795,795,795,795,795,795,794,794,794,794,794,794,794,794,794,794,794,794,794,794,794,794,794,794,794,794,794,794,794,794,794,794,793,792,792,791,790,789,789,789,789,789,789,789,789,789,789,789,789,789,789,789,789,789,789,799,813,830,855,867,888,899,913,941,957,974,992,1008,1046,1068,1092,1101,1108,1125],"ymouse":[632,632,632,632,632,632,632,632,632,632,632,632,632,632,632,632,632,632,632,632,632,632,632,632,632,632,632,632,632,632,632,632,632,632,632,632,631,629,629,629,629,629,629,629,629,629,629,629,629,629,629,629,629,629,629,629,629,629,628,626,625,623,622,620,619,618,617,616,616,616,616,616,616,616,616,616,616,616,616,616,616,616,616,612,601,582,566,537,522,500,488,474,442,423,400,375,349,271,225,167,144,122,94],"timestamp_mouse":[17,37,57,78,98,119,138,157,177,198,218,238,257,277,297,317,337,359,377,398,417,437,457,478,497,519,537,557,578,598,617,638,658,679,699,717,738,757,778,798,817,838,858,877,897,918,937,958,978,998,1018,1037,1057,1079,1097,1118,1137,1157,1177,1197,1217,1238,1259,1277,1297,1317,1337,1357,1378,1398,1417,1438,1458,1478,1499,1517,1538,1558,1578,1597,1618,1639,1657,1677,1699,1717,1737,1757,1777,1798,1817,1837,1858,1877,1897,1917,1937,1957,1978,1998,2017,2038,2059],"xSR":741.5,"ySR":573.95,"xT1":424.9,"yT1":0,"xT2":1058.1,"yT2":0,"toosoon":0,"cond_shown":"equaldotsize","ratio_trial":900,"smaller_num":"9","larger_num":"10","correct_side":1,"subjID":"VALERIAMARTINEZBUITRAGO","gender":"1","age":"9","school":"4"},{"start_time":1552055230120,"click_time":1552055231649,"finger_time":1552055230889,"fix_duration":989.6080438398558,"trial":43,"RT":769,"MT":760,"sideResp":2,"stimulus":"img/750/randomdotsizeEA/R/15_Ratio_750_L_9_R_12.png","xmouse":[832,832,832,832,832,832,832,832,832,832,832,832,832,832,832,832,832,832,832,832,832,832,832,832,832,832,832,832,832,832,832,832,832,832,832,832,832,839,844,857,882,886,891,896,899,918,929,941,952,963,988,1006,1023,1038,1052,1074,1091,1101,1112,1123,1136,1140,1141,1141,1135,1116,1111,1107,1104,1101,1098,1097,1095,1095,1095,1095,1095],"ymouse":[582,582,582,582,582,582,582,582,582,582,582,582,582,582,582,582,582,582,582,582,582,582,582,582,582,582,582,582,582,582,582,582,582,582,582,582,582,576,569,554,530,523,517,510,506,487,478,470,462,453,425,405,385,368,355,339,327,319,306,293,269,254,239,219,200,167,159,152,146,139,129,125,118,113,107,100,83],"timestamp_mouse":[13,29,49,69,91,109,130,149,169,189,211,230,250,269,290,310,329,350,369,391,410,429,450,470,490,511,530,549,571,589,609,630,651,670,690,709,730,750,769,789,809,829,850,869,891,909,929,950,971,989,1009,1029,1051,1069,1089,1109,1129,1149,1171,1189,1209,1229,1250,1269,1290,1309,1330,1349,1369,1389,1410,1429,1450,1470,1489,1509,1529],"xSR":741.5,"ySR":573.95,"xT1":424.9,"yT1":0,"xT2":1058.1,"yT2":0,"toosoon":0,"cond_shown":"randomdotsizeEA","ratio_trial":750,"smaller_num":"9","larger_num":"12","correct_side":2,"subjID":"VALERIAMARTINEZBUITRAGO","gender":"1","age":"9","school":"4"},{"start_time":1552055235114,"click_time":1552055237869,"finger_time":1552055236150,"fix_duration":624.7994268766797,"trial":44,"RT":1036,"MT":1719,"sideResp":1,"stimulus":"img/250/equaldotsize/L/7_Ratio_250_L_8_R_2.png","xmouse":[816,816,816,816,816,816,816,816,816,816,816,816,816,816,816,816,816,816,816,816,816,816,816,818,819,824,830,831,831,831,831,831,831,831,831,831,831,833,835,836,837,838,839,839,839,839,839,839,839,839,839,830,810,800,766,732,688,667,651,640,632,611,597,579,568,563,561,561,561,561,561,553,527,491,455,415,331,324,323,323,323,318,313,309,307,307,307,307,308,312,318,330,336,336,338,338,338,339,341,343,345,350,355,360,360,360,375,375,375,375,375,375,375,375,375,375,375,375,375,377,435,456,457,457,457,457,457,457,457,457,457,457,457,457,457,457,457,458],"ymouse":[630,630,630,630,630,630,630,630,630,630,630,630,630,630,630,630,630,630,630,630,630,630,630,628,626,619,609,607,606,606,606,606,606,606,606,606,606,605,601,600,599,596,596,595,594,593,592,590,589,586,583,564,516,491,429,395,368,359,353,349,346,338,334,327,320,315,314,314,314,313,313,275,238,217,209,187,132,120,110,94,73,34,21,14,11,11,10,9,9,8,8,9,13,14,22,28,40,46,50,55,57,62,64,68,68,68,74,74,74,74,74,74,74,74,74,74,74,74,74,75,101,111,112,112,112,112,112,112,112,112,112,112,112,112,112,110,104,98],"timestamp_mouse":[15,36,55,77,95,115,136,155,176,196,216,236,255,275,296,315,336,356,375,396,417,437,455,475,495,516,536,555,576,595,616,635,656,676,695,716,735,755,777,795,816,836,856,875,895,915,936,955,975,995,1016,1036,1056,1075,1095,1115,1135,1156,1175,1195,1216,1236,1255,1276,1295,1315,1336,1356,1375,1396,1415,1435,1455,1476,1495,1515,1535,1555,1575,1596,1616,1635,1656,1675,1695,1716,1736,1755,1775,1795,1816,1837,1855,1875,1895,1915,1937,1955,1975,1995,2015,2036,2055,2075,2096,2115,2135,2156,2175,2196,2217,2235,2255,2275,2296,2316,2336,2356,2375,2395,2415,2435,2456,2475,2495,2515,2535,2556,2575,2596,2616,2635,2656,2676,2695,2715,2735,2755],"xSR":741.5,"ySR":573.95,"xT1":424.9,"yT1":0,"xT2":1058.1,"yT2":0,"toosoon":0,"cond_shown":"equaldotsize","ratio_trial":250,"smaller_num":"2","larger_num":"8","correct_side":1,"subjID":"VALERIAMARTINEZBUITRAGO","gender":"1","age":"9","school":"4"},{"start_time":1552055240187,"click_time":1552055241710,"finger_time":1552055241029,"fix_duration":1056.3908319579357,"trial":45,"RT":842,"MT":681,"sideResp":1,"stimulus":"img/250/randomdotsizeEA/L/1_Ratio_250_L_8_R_2.png","xmouse":[784,784,783,783,783,783,783,783,783,783,783,783,783,783,783,783,783,783,783,783,783,783,783,783,783,783,783,783,783,783,783,783,784,784,785,785,785,786,786,786,786,780,763,704,673,659,655,654,653,653,653,652,652,652,652,652,652,652,639,621,603,590,579,551,537,526,514,506,497,494,489,485,480,474,467,460,455],"ymouse":[662,662,663,663,663,663,663,663,663,663,663,663,663,663,663,663,663,663,663,663,663,663,663,663,663,663,663,663,663,663,663,663,662,662,661,660,659,658,657,637,620,584,519,342,272,245,233,226,220,212,208,207,207,207,206,205,205,205,198,192,187,183,179,168,163,158,153,151,148,146,144,142,139,134,119,105,91],"timestamp_mouse":[4,22,43,63,83,103,123,142,162,184,203,223,244,262,283,302,322,342,362,383,403,423,442,463,482,502,522,542,562,582,604,624,642,664,682,702,722,742,762,782,802,822,842,863,883,903,922,942,962,982,1002,1023,1044,1063,1083,1103,1122,1142,1162,1182,1202,1223,1243,1263,1283,1302,1322,1343,1362,1384,1402,1423,1442,1462,1482,1502,1523],"xSR":741.5,"ySR":573.95,"xT1":424.9,"yT1":0,"xT2":1058.1,"yT2":0,"toosoon":0,"cond_shown":"randomdotsizeEA","ratio_trial":250,"smaller_num":"2","larger_num":"8","correct_side":1,"subjID":"VALERIAMARTINEZBUITRAGO","gender":"1","age":"9","school":"4"},{"start_time":1552055244661,"click_time":1552055246329,"finger_time":1552055245489,"fix_duration":250,"trial":46,"RT":828,"MT":840,"sideResp":2,"stimulus":"img/500/equaldotanddens/R/15_Ratio_500_L_1_R_2.png","xmouse":[783,783,783,783,783,783,783,783,783,783,783,783,783,783,783,783,783,783,783,783,783,783,783,783,783,783,783,783,783,783,783,784,786,787,787,789,792,798,803,809,833,851,880,888,926,942,946,952,959,963,965,967,968,980,1022,1062,1079,1088,1092,1095,1104,1109,1113,1121,1130,1143,1150,1157,1163,1171,1196,1215,1255,1279,1300,1325,1331,1334,1335,1332,1312,1263,1201,1130],"ymouse":[644,644,644,644,644,644,644,644,644,644,644,644,644,644,644,644,644,644,644,644,644,644,644,644,644,644,644,643,643,642,641,638,634,634,633,631,628,624,621,618,605,599,591,590,580,576,574,570,565,561,560,558,555,545,512,480,462,448,442,438,421,409,401,384,369,338,325,313,302,289,256,235,194,164,133,89,73,64,60,59,59,59,59,59],"timestamp_mouse":[15,29,48,68,89,109,129,150,169,189,210,228,248,268,289,310,328,348,368,389,409,428,448,469,489,509,530,549,568,589,609,628,648,669,688,708,728,748,768,788,808,828,848,869,888,909,929,950,969,989,1009,1029,1048,1068,1088,1108,1128,1148,1168,1189,1208,1228,1248,1269,1288,1309,1329,1348,1368,1388,1408,1428,1448,1469,1488,1508,1528,1548,1569,1589,1608,1628,1648,1668],"xSR":741.5,"ySR":573.95,"xT1":424.9,"yT1":0,"xT2":1058.1,"yT2":0,"toosoon":0,"cond_shown":"equaldotanddens","ratio_trial":500,"smaller_num":"1","larger_num":"2","correct_side":2,"subjID":"VALERIAMARTINEZBUITRAGO","gender":"1","age":"9","school":"4"},{"start_time":1552055248221,"click_time":1552055249789,"finger_time":1552055249089,"fix_duration":250,"trial":47,"RT":868,"MT":700,"sideResp":1,"stimulus":"img/500/randomdotsizeEA/L/11_Ratio_500_L_12_R_6.png","xmouse":[833,833,833,833,833,833,833,833,833,833,833,833,833,833,833,832,832,832,832,832,832,832,832,832,832,832,832,832,831,831,831,831,831,831,831,831,831,831,831,831,831,831,830,824,822,816,807,780,768,762,761,760,755,741,726,704,687,667,663,661,657,652,634,622,608,604,603,602,601,601,597,594,580,563,550,536,520,509,507],"ymouse":[601,601,601,601,601,601,601,601,601,601,600,599,599,599,599,598,598,598,598,598,598,598,598,598,598,598,598,598,597,597,597,597,597,597,597,597,597,597,597,597,597,596,590,571,563,548,522,468,449,437,431,425,407,377,350,323,304,288,284,282,278,274,264,258,249,247,247,247,247,247,246,244,219,178,153,133,115,100,98],"timestamp_mouse":[9,28,49,68,88,108,129,149,168,188,209,229,248,269,289,309,329,348,368,388,408,429,449,470,488,508,530,548,568,588,609,630,648,668,688,708,728,748,768,788,809,829,848,868,889,909,928,948,968,988,1008,1029,1048,1068,1088,1108,1128,1149,1168,1188,1208,1229,1249,1268,1288,1308,1329,1349,1368,1389,1408,1429,1449,1468,1488,1508,1528,1548,1568],"xSR":741.5,"ySR":573.95,"xT1":424.9,"yT1":0,"xT2":1058.1,"yT2":0,"toosoon":0,"cond_shown":"randomdotsizeEA","ratio_trial":500,"smaller_num":"6","larger_num":"12","correct_side":1,"subjID":"VALERIAMARTINEZBUITRAGO","gender":"1","age":"9","school":"4"},{"start_time":1552055252335,"click_time":1552055254989,"finger_time":1552055253949,"fix_duration":1265.7726582840965,"trial":48,"RT":1614,"MT":1040,"sideResp":1,"stimulus":"img/750/equaldotsize/L/1_Ratio_750_L_20_R_15.png","xmouse":[801,801,801,801,801,801,801,801,801,801,801,801,801,801,801,801,801,801,801,801,801,801,801,801,801,801,801,801,801,801,802,802,802,802,802,803,803,803,803,803,803,803,803,803,803,803,803,803,803,803,803,803,803,803,803,803,803,803,803,803,803,803,803,803,803,803,803,803,803,803,803,803,803,803,803,803,803,804,804,804,803,793,784,766,749,723,711,702,701,699,695,684,662,649,642,637,630,622,615,609,605,599,593,589,586,583,580,571,565,557,552,548,537,530,525,520,518,514,512,511,508,507,504,502,501,500,499,497,496,496,496,496,496],"ymouse":[619,619,619,619,619,619,619,619,619,619,619,619,619,619,619,619,619,619,619,619,619,619,619,619,619,619,619,619,619,619,618,618,618,618,617,617,617,616,616,616,616,616,616,616,616,616,616,616,616,616,616,616,616,616,616,616,616,616,616,616,616,616,616,616,616,616,616,616,616,616,616,616,616,616,615,614,613,606,598,576,551,501,478,449,429,406,395,387,385,379,369,355,329,318,312,310,305,294,281,272,267,260,252,248,245,239,234,221,214,204,195,187,167,158,150,138,133,127,124,123,121,120,116,113,111,109,107,103,101,101,100,100,98],"timestamp_mouse":[14,34,54,75,94,116,135,155,174,195,215,234,255,274,296,315,336,354,375,395,415,434,455,475,494,514,534,555,575,594,614,636,654,674,695,714,734,754,774,796,815,834,854,874,896,915,935,955,976,995,1015,1035,1056,1075,1095,1114,1134,1154,1174,1196,1215,1236,1255,1274,1294,1314,1334,1355,1374,1394,1416,1434,1456,1474,1494,1514,1534,1555,1575,1594,1614,1634,1654,1674,1694,1715,1734,1754,1774,1794,1814,1834,1854,1875,1895,1916,1934,1954,1974,1994,2014,2034,2054,2075,2094,2114,2134,2155,2174,2195,2214,2235,2254,2274,2294,2315,2336,2355,2374,2394,2414,2434,2454,2475,2494,2515,2534,2554,2574,2594,2615,2634,2654],"xSR":741.5,"ySR":573.95,"xT1":424.9,"yT1":0,"xT2":1058.1,"yT2":0,"toosoon":0,"cond_shown":"equaldotsize","ratio_trial":750,"smaller_num":"15","larger_num":"20","correct_side":1,"subjID":"VALERIAMARTINEZBUITRAGO","gender":"1","age":"9","school":"4"},{"start_time":1552055257399,"click_time":1552055259130,"finger_time":1552055258069,"fix_duration":1009.9073922850511,"trial":49,"RT":670,"MT":1061,"sideResp":2,"stimulus":"img/250/equaldotsize/R/9_Ratio_250_L_3_R_12.png","xmouse":[801,802,802,802,802,802,803,804,804,805,805,805,805,805,805,805,805,805,805,805,805,805,805,806,806,807,807,808,808,810,812,820,834,869,1088,1188,1248,1273,1285,1291,1296,1304,1307,1310,1317,1318,1320,1320,1320,1309,1301,1293,1290,1289,1285,1285,1285,1285,1285,1285,1282,1279,1276,1276,1269,1261,1256,1256,1252,1239,1225,1205,1193,1180,1161,1148,1138,1127,1118,1107,1106,1106,1106,1106,1106,1107,1116],"ymouse":[615,614,613,612,610,610,609,609,609,607,607,607,607,607,607,607,607,607,607,607,607,607,607,605,605,605,604,602,601,599,596,589,577,561,477,450,431,423,418,400,389,363,341,319,289,283,276,271,262,240,230,222,219,218,216,216,216,216,216,215,211,209,206,205,202,201,198,198,195,184,176,168,162,155,145,139,134,129,123,116,115,114,114,114,110,105,93],"timestamp_mouse":[12,30,50,70,90,110,130,152,170,191,210,230,250,270,292,311,331,351,371,392,410,430,450,470,490,510,530,550,571,591,612,631,651,670,690,710,731,750,771,790,810,832,850,870,891,911,930,950,972,991,1011,1030,1051,1070,1091,1112,1130,1150,1171,1190,1211,1231,1251,1271,1290,1310,1330,1350,1370,1391,1410,1430,1451,1470,1490,1510,1531,1550,1570,1590,1611,1630,1652,1670,1690,1710,1731],"xSR":741.5,"ySR":573.95,"xT1":424.9,"yT1":0,"xT2":1058.1,"yT2":0,"toosoon":0,"cond_shown":"equaldotsize","ratio_trial":250,"smaller_num":"3","larger_num":"12","correct_side":2,"subjID":"VALERIAMARTINEZBUITRAGO","gender":"1","age":"9","school":"4"},{"start_time":1552055262172,"click_time":1552055263810,"finger_time":1552055263029,"fix_duration":402.32995592633813,"trial":50,"RT":857,"MT":781,"sideResp":1,"stimulus":"img/250/randomdotsizeEA/L/14_Ratio_250_L_12_R_3.png","xmouse":[756,756,756,757,758,760,761,762,763,763,764,764,764,764,764,764,764,764,764,764,764,764,764,764,764,764,764,764,764,764,764,764,764,764,764,764,764,764,764,764,766,772,777,777,774,720,699,693,693,694,701,706,708,707,707,707,706,706,703,695,691,679,669,656,641,628,616,607,601,593,581,563,560,559,558,557,548,537,531,527,526,523],"ymouse":[617,617,617,617,616,616,616,616,616,616,616,616,616,616,616,616,616,616,616,616,616,616,616,616,616,616,616,616,616,616,616,616,616,616,616,616,616,616,616,616,612,595,563,492,386,163,119,99,90,82,47,19,0,0,0,0,0,0,0,0,0,0,2,6,10,14,16,20,22,24,27,35,36,37,37,37,40,41,42,43,43,43],"timestamp_mouse":[20,37,57,79,97,118,137,159,179,197,217,237,258,278,299,319,338,358,378,397,419,437,458,478,498,518,538,558,577,598,619,638,659,677,698,717,738,757,777,797,817,838,857,878,898,917,938,957,977,999,1017,1038,1057,1077,1097,1117,1137,1157,1177,1197,1217,1237,1258,1279,1297,1318,1338,1358,1378,1398,1419,1438,1457,1477,1497,1518,1537,1557,1577,1597,1618,1638],"xSR":741.5,"ySR":573.95,"xT1":424.9,"yT1":0,"xT2":1058.1,"yT2":0,"toosoon":0,"cond_shown":"randomdotsizeEA","ratio_trial":250,"smaller_num":"3","larger_num":"12","correct_side":1,"subjID":"VALERIAMARTINEZBUITRAGO","gender":"1","age":"9","school":"4"},{"start_time":1552055267461,"click_time":1552055269090,"finger_time":1552055268389,"fix_duration":250,"trial":51,"RT":928,"MT":701,"sideResp":2,"stimulus":"img/900/equaldotsize/R/12_Ratio_900_L_18_R_20.png","xmouse":[812,812,812,812,812,812,813,813,814,814,814,814,814,814,814,814,814,814,816,816,816,816,816,816,816,816,816,816,816,816,816,816,816,816,808,806,806,806,806,806,807,811,813,815,816,821,828,837,864,896,970,997,1019,1050,1075,1092,1112,1126,1144,1155,1164,1179,1187,1198,1202,1204,1204,1204,1204,1206,1206,1206,1206,1206,1206,1206,1206,1205,1194,1180,1167,1136],"ymouse":[656,656,656,656,656,656,651,648,644,644,644,644,644,644,644,644,644,644,634,631,631,631,631,631,631,631,631,631,631,631,631,631,631,631,636,638,638,638,638,638,631,621,610,594,587,576,564,552,517,481,407,376,347,296,261,236,206,186,159,144,131,105,94,77,70,66,66,65,61,55,48,33,30,27,27,27,27,26,25,22,20,11],"timestamp_mouse":[11,28,48,68,90,109,128,148,168,189,208,229,249,269,290,309,328,349,368,388,408,429,449,468,490,509,528,549,568,590,608,630,649,668,688,709,728,750,769,788,808,830,848,868,889,910,928,948,968,988,1008,1029,1049,1068,1088,1109,1128,1149,1168,1188,1208,1229,1248,1269,1289,1309,1328,1348,1368,1389,1408,1429,1448,1469,1488,1510,1528,1548,1568,1588,1608,1629],"xSR":741.5,"ySR":573.95,"xT1":424.9,"yT1":0,"xT2":1058.1,"yT2":0,"toosoon":0,"cond_shown":"equaldotsize","ratio_trial":900,"smaller_num":"18","larger_num":"20","correct_side":2,"subjID":"VALERIAMARTINEZBUITRAGO","gender":"1","age":"9","school":"4"},{"start_time":1552055271642,"click_time":1552055273809,"finger_time":1552055273030,"fix_duration":250,"trial":52,"RT":1388,"MT":779,"sideResp":2,"stimulus":"img/900/equaldotanddens/L/1_Ratio_900_L_10_R_9.png","xmouse":[775,775,775,775,775,775,775,775,775,775,775,775,775,775,775,775,775,775,775,775,775,775,775,775,775,775,775,775,775,775,775,775,775,775,775,775,775,775,775,775,775,775,775,775,775,775,777,778,779,781,791,796,800,804,807,808,809,810,810,811,812,812,812,812,813,813,813,813,813,813,813,814,815,815,819,826,836,846,854,861,881,897,917,945,965,1020,1049,1070,1087,1125,1144,1165,1181,1194,1200,1203,1203,1203,1203,1203,1203,1203,1203,1203,1203,1202,1185,1159,1128],"ymouse":[620,620,620,620,620,620,620,620,620,620,620,620,620,620,620,620,620,620,620,620,620,620,620,620,620,620,620,619,619,619,619,619,619,619,619,619,619,619,619,619,619,619,619,619,619,619,617,616,614,612,604,602,599,597,594,593,592,590,589,588,587,586,586,585,585,585,584,582,581,571,571,570,567,564,556,542,526,508,494,482,451,432,409,376,352,288,253,228,211,177,159,137,112,96,92,89,89,89,89,89,89,89,89,89,89,86,81,67,50],"timestamp_mouse":[8,28,48,69,87,109,127,148,168,188,209,227,248,268,287,309,328,348,367,388,409,428,448,467,488,508,527,547,568,588,608,627,648,668,689,708,728,748,767,788,807,828,848,868,887,907,927,947,967,987,1008,1027,1048,1068,1088,1107,1127,1147,1168,1188,1207,1228,1247,1267,1288,1307,1327,1347,1367,1388,1408,1427,1447,1467,1488,1507,1527,1548,1569,1587,1607,1627,1647,1667,1687,1707,1727,1747,1768,1787,1807,1827,1848,1867,1887,1907,1927,1948,1967,1989,2007,2027,2048,2068,2087,2108,2127,2147,2167],"xSR":741.5,"ySR":573.95,"xT1":424.9,"yT1":0,"xT2":1058.1,"yT2":0,"toosoon":0,"cond_shown":"equaldotanddens","ratio_trial":900,"smaller_num":"9","larger_num":"10","correct_side":1,"subjID":"VALERIAMARTINEZBUITRAGO","gender":"1","age":"9","school":"4"},{"start_time":1552055276639,"click_time":1552055277949,"finger_time":1552055277369,"fix_duration":969.6792690850251,"trial":53,"RT":730,"MT":580,"sideResp":2,"stimulus":"img/500/equaldotanddens/R/14_Ratio_500_L_5_R_10.png","xmouse":[791,791,791,791,791,791,791,791,791,791,791,791,791,791,791,791,791,791,791,791,791,791,791,791,791,791,791,791,791,791,791,793,796,798,804,836,885,936,1056,1110,1151,1153,1155,1156,1158,1162,1167,1175,1180,1182,1184,1191,1197,1204,1211,1211,1212,1213,1213,1213,1213,1210,1198,1184,1170,1141],"ymouse":[611,611,611,611,611,611,611,611,611,611,611,611,611,611,611,611,611,611,611,611,611,611,611,611,611,611,611,611,611,611,611,611,611,611,611,612,608,598,562,546,521,509,494,474,448,384,343,283,231,208,197,178,165,156,146,146,144,143,141,140,139,133,126,120,113,96],"timestamp_mouse":[13,30,51,70,92,110,130,150,170,190,210,231,251,270,292,311,330,351,371,391,410,430,450,472,490,510,531,551,571,590,610,630,652,670,690,711,730,750,770,790,810,830,851,870,890,910,930,950,970,990,1010,1030,1050,1070,1091,1110,1130,1150,1172,1192,1210,1230,1250,1270,1291,1310],"xSR":741.5,"ySR":573.95,"xT1":424.9,"yT1":0,"xT2":1058.1,"yT2":0,"toosoon":0,"cond_shown":"equaldotanddens","ratio_trial":500,"smaller_num":"5","larger_num":"10","correct_side":2,"subjID":"VALERIAMARTINEZBUITRAGO","gender":"1","age":"9","school":"4"},{"start_time":1552055279553,"click_time":1552055281289,"finger_time":1552055279790,"fix_duration":523.0466662626292,"trial":54,"RT":237,"MT":1499,"sideResp":2,"stimulus":"img/750/equaldotsize/R/7_Ratio_750_L_3_R_4.png","xmouse":[791,795,799,802,811,815,818,819,821,834,840,843,844,845,847,847,847,847,849,850,850,851,851,851,852,852,853,853,853,854,855,855,857,858,860,862,866,876,899,987,1004,1014,1016,1044,1097,1117,1136,1145,1151,1160,1164,1168,1170,1171,1172,1173,1173,1173,1173,1173,1173,1173,1173,1173,1173,1173,1173,1173,1173,1172,1156,1155,1155,1155,1156,1157,1158,1160,1161,1164,1165,1166,1168,1168,1170,1167,1157],"ymouse":[649,648,646,644,640,639,637,636,634,629,627,627,626,626,625,625,624,624,624,623,623,623,623,623,622,622,622,621,620,617,617,616,614,614,612,610,605,598,559,403,372,354,351,308,230,207,186,175,168,158,154,150,148,147,145,144,144,142,142,138,138,137,135,134,133,132,132,132,132,129,121,121,121,121,118,117,115,114,111,106,105,104,101,96,85,77,67],"timestamp_mouse":[16,38,56,76,97,116,136,156,176,196,217,237,258,276,296,317,336,356,377,396,416,436,457,478,498,516,537,557,576,596,616,637,656,676,696,717,737,756,776,796,816,836,857,876,896,917,937,956,976,996,1017,1036,1057,1078,1096,1117,1137,1156,1176,1196,1216,1238,1256,1277,1296,1316,1336,1356,1376,1396,1417,1436,1458,1476,1496,1516,1536,1556,1577,1596,1616,1637,1658,1676,1696,1716,1736],"xSR":741.5,"ySR":573.95,"xT1":424.9,"yT1":0,"xT2":1058.1,"yT2":0,"toosoon":0,"cond_shown":"equaldotsize","ratio_trial":750,"smaller_num":"3","larger_num":"4","correct_side":2,"subjID":"VALERIAMARTINEZBUITRAGO","gender":"1","age":"9","school":"4"},{"start_time":1552055283395,"click_time":1552055284910,"finger_time":1552055284050,"fix_duration":745.1687178688207,"trial":55,"RT":655,"MT":860,"sideResp":2,"stimulus":"img/750/equaldotanddens/R/15_Ratio_750_L_9_R_12.png","xmouse":[816,816,816,816,816,816,816,816,816,816,816,816,816,816,816,816,816,816,816,816,816,816,816,816,816,816,816,817,818,819,820,822,837,866,932,998,1085,1114,1156,1177,1193,1215,1232,1260,1267,1274,1281,1282,1282,1282,1283,1283,1284,1281,1276,1272,1268,1268,1268,1265,1258,1251,1245,1236,1235,1229,1225,1222,1206,1203,1203,1203,1201,1183,1169,1148],"ymouse":[593,593,593,593,593,593,593,593,593,593,593,593,593,593,593,593,593,593,593,593,593,593,593,593,593,593,593,591,590,589,586,583,572,553,508,458,410,392,359,338,316,280,247,185,169,146,120,107,95,92,89,87,81,70,65,61,59,59,59,59,58,55,54,51,51,49,48,48,47,47,47,47,47,54,60,70],"timestamp_mouse":[15,35,55,75,95,114,134,156,174,195,216,235,256,274,296,314,335,355,376,394,414,435,454,475,495,516,535,555,575,596,615,634,655,675,695,715,734,754,775,794,814,834,854,874,894,915,934,954,975,994,1014,1034,1054,1075,1095,1115,1135,1156,1175,1194,1214,1234,1254,1274,1295,1315,1335,1355,1376,1394,1415,1435,1455,1474,1495,1515],"xSR":741.5,"ySR":573.95,"xT1":424.9,"yT1":0,"xT2":1058.1,"yT2":0,"toosoon":0,"cond_shown":"equaldotanddens","ratio_trial":750,"smaller_num":"9","larger_num":"12","correct_side":2,"subjID":"VALERIAMARTINEZBUITRAGO","gender":"1","age":"9","school":"4"},{"start_time":1552055286421,"click_time":1552055287309,"finger_time":1552055287109,"fix_duration":250,"trial":56,"RT":688,"MT":200,"sideResp":2,"stimulus":"img/750/equaldotanddens/R/15_Ratio_750_L_9_R_12.png","xmouse":[773,773,774,774,774,774,774,774,774,774,774,774,774,775,775,775,775,776,777,777,777,778,778,778,779,780,780,780,781,781,782,784,792,802,822,882,922,987,1006,1012,1022,1028,1068,1088,1118],"ymouse":[616,616,615,615,615,615,615,615,615,615,615,615,615,615,614,614,613,611,610,610,610,610,609,609,608,607,607,606,606,604,603,601,590,579,556,467,409,321,287,272,254,243,170,126,73],"timestamp_mouse":[9,29,49,69,90,108,130,149,169,189,209,229,248,268,289,309,329,349,368,389,408,430,450,469,488,509,529,550,569,590,610,628,649,668,688,710,729,749,768,788,808,830,849,869,888],"xSR":741.5,"ySR":573.95,"xT1":424.9,"yT1":0,"xT2":105