[{"start_time":1552054117181,"click_time":1552054119823,"finger_time":1552054117184,"fix_duration":675.0113115563092,"trial":0,"RT":3,"MT":2639,"sideResp":2,"stimulus":[],"xmouse":[787,787,787,787,787,787,787,787,787,787,787,787,787,787,787,787,787,787,787,787,787,787,787,787,787,787,787,787,787,787,787,787,787,787,787,787,787,787,787,787,787,787,787,787,787,787,787,787,787,787,787,787,787,787,787,787,787,787,787,787,787,787,787,787,787,787,787,787,787,787,787,787,787,787,794,803,815,827,836,837,837,839,840,840,842,842,842,842,844,849,860,862,865,865,865,866,870,871,871,872,884,903,940,948,954,961,967,994,1020,1038,1054,1068,1076,1076,1077,1078,1079,1091,1097,1098,1098,1098,1093,1090,1086,1083,1081,1081,1081,1081,1081,1082,1086],"ymouse":[519,519,519,519,519,519,519,519,519,519,519,519,519,519,519,519,519,519,519,519,519,519,519,519,519,519,519,519,519,519,519,519,519,519,519,519,519,519,519,519,519,519,519,519,519,519,519,519,519,519,519,519,519,519,519,519,519,519,519,519,519,519,519,519,519,519,519,519,519,519,519,519,519,517,509,498,484,473,466,464,464,463,462,462,459,459,459,459,455,439,404,395,387,387,386,385,382,382,382,380,369,355,331,325,316,308,302,278,254,240,226,216,208,208,207,205,203,193,180,171,160,149,135,131,124,121,114,113,112,111,108,106,98],"timestamp_mouse":[3,23,42,62,83,102,123,143,162,182,203,224,242,263,282,302,323,343,362,382,402,423,443,462,482,503,522,543,562,583,603,624,643,663,682,702,722,742,763,782,803,822,843,863,882,903,923,942,962,983,1003,1023,1042,1062,1082,1103,1122,1142,1162,1182,1202,1223,1243,1262,1282,1303,1322,1342,1362,1382,1404,1423,1443,1463,1482,1503,1523,1544,1562,1583,1603,1623,1643,1662,1683,1703,1723,1742,1763,1783,1802,1823,1843,1862,1882,1902,1924,1942,1962,1982,2002,2023,2042,2062,2082,2103,2122,2142,2162,2182,2202,2222,2243,2262,2282,2303,2323,2342,2362,2382,2403,2422,2443,2463,2483,2502,2523,2542,2563,2582,2603,2622,2642],"xSR":732.5,"ySR":490.1,"xT1":419.5,"yT1":0,"xT2":1045.5,"yT2":0,"toosoon":0,"cond_shown":"Incongruent","ratio_trial":100,"L_num":6,"L_den":10,"R_num":7,"R_den":14,"correct_side":1,"subjID":"valeriamartinezbuitrago20","gender":"1","age":"9años","school":"4","test":{"fix_dur":[250,1500],"timestim":1000,"targets_dim":[100,100],"targets_relative_coord":[0.3,0.7],"size_stim":[880,420],"start_dim":[100,100],"size_start":[300,300],"size_fix":60,"samplingrate":20,"img_types":["Congruent","Incongruent"],"ratios":[100,200,300],"rep_conds":19,"nTrials":120,"trials_to_rest":500,"Trials_order":[37,56,12,3,8,93,13,60,78,10,99,100,23,34,18,32,112,38,66,33,119,51,42,45,106,83,24,110,14,29,48,103,105,91,96,36,86,59,90,1,0,16,114,84,30,19,113,92,68,22,28,82,7,118,27,17,65,76,63,116,46,54,74,85,109,98,71,111,87,25,67,107,97,115,75,55,69,40,11,9,58,89,72,15,49,2,39,64,77,80,41,31,4,94,35,81,26,117,44,52,47,6,88,62,43,61,21,57,53,50,20,101,5,79,70,104,73,95,108,102],"cond_shown":["Incongruent","Congruent","Congruent","Incongruent","Congruent","Incongruent","Incongruent","Congruent","Congruent","Congruent","Incongruent","Congruent","Incongruent","Congruent","Congruent","Congruent","Congruent","Congruent","Congruent","Incongruent","Incongruent","Incongruent","Congruent","Incongruent","Congruent","Incongruent","Congruent","Congruent","Congruent","Incongruent","Congruent","Incongruent","Incongruent","Incongruent","Congruent","Congruent","Congruent","Incongruent","Congruent","Incongruent","Congruent","Congruent","Congruent","Congruent","Congruent","Incongruent","Incongruent","Congruent","Congruent","Congruent","Congruent","Congruent","Incongruent","Congruent","Incongruent","Incongruent","Incongruent","Congruent","Incongruent","Congruent","Congruent","Congruent","Congruent","Incongruent","Incongruent","Congruent","Incongruent","Incongruent","Incongruent","Incongruent","Incongruent","Incongruent","Incongruent","Incongruent","Incongruent","Incongruent","Incongruent","Congruent","Incongruent","Incongruent","Congruent","Incongruent","Congruent","Incongruent","Incongruent","Congruent","Incongruent","Congruent","Incongruent","Congruent","Incongruent","Incongruent","Congruent","Congruent","Incongruent","Incongruent","Congruent","Incongruent","Congruent","Congruent","Incongruent","Congruent","Congruent","Congruent","Incongruent","Incongruent","Incongruent","Incongruent","Incongruent","Congruent","Congruent","Incongruent","Incongruent","Incongruent","Congruent","Congruent","Incongruent","Incongruent","Congruent","Congruent"],"ratio_trial":[100,200,100,200,200,200,100,100,100,300,200,300,300,300,100,200,300,200,100,200,300,200,100,200,300,300,100,200,200,300,100,100,200,100,100,100,200,300,100,100,100,300,100,100,100,100,300,200,200,300,300,300,100,300,200,300,300,300,200,200,300,100,200,100,100,200,300,200,200,100,100,300,100,100,200,100,200,300,300,200,300,300,100,200,100,200,200,300,300,200,300,100,300,300,300,200,200,200,200,300,300,100,300,200,100,100,200,200,300,200,200,300,300,100,300,200,100,300,100,100],"left_num":[6,13,10,7,8,9,6,8,11,2,7,5,4,20,2,7,20,3,4,7,4,4,6,3,4,7,2,3,5,13,1,3,14,2,9,4,3,4,1,2,11,12,3,4,6,9,13,3,6,20,1,5,9,3,3,2,4,1,4,13,1,6,3,9,6,16,8,7,1,13,3,4,13,2,7,13,3,2,1,4,11,4,11,9,6,3,7,3,13,16,13,11,24,11,1,1,8,7,20,11,4,4,11,16,17,11,7,9,3,3,4,4,3,13,3,3,12,4,6,3],"right_num":[7,14,3,6,3,8,3,2,4,10,14,7,2,14,11,2,8,14,15,4,2,1,5,1,13,8,11,7,14,12,3,8,6,6,8,6,11,2,3,8,4,2,4,15,15,20,12,11,11,9,19,6,6,4,1,6,2,8,6,14,3,5,11,6,7,9,9,6,3,6,4,2,6,8,8,6,11,12,2,6,4,2,4,8,3,14,6,4,12,9,12,9,8,1,3,3,7,4,9,4,6,15,4,9,10,9,14,8,4,14,3,2,4,6,2,11,9,2,5,2],"left_den":[10,26,25,15,15,15,12,16,22,20,10,25,20,25,5,21,25,10,10,15,20,30,20,10,20,10,5,10,10,26,2,5,30,4,15,8,10,20,2,4,22,24,20,10,12,10,26,10,20,25,3,25,18,6,10,4,20,30,5,26,5,20,10,18,10,30,10,15,2,26,6,20,26,4,10,26,4,10,2,5,22,20,22,15,12,10,15,6,26,30,26,22,30,22,2,2,15,15,25,22,5,10,22,30,30,22,10,15,6,10,10,20,6,26,6,10,24,20,20,6],"right_den":[14,20,10,9,9,10,5,5,10,25,28,14,4,28,22,15,16,28,30,6,4,3,25,2,26,20,22,14,20,15,5,16,9,15,16,10,22,4,5,20,10,10,16,30,25,25,15,22,22,18,30,12,10,5,2,30,4,24,10,20,6,25,22,10,14,27,18,9,10,10,10,4,10,20,16,10,20,24,10,10,20,4,10,10,5,28,9,5,15,27,15,15,16,5,15,10,21,6,15,20,12,30,20,27,15,15,28,10,20,28,15,4,20,10,10,22,15,4,25,5],"correct_side":[1,2,1,2,1,2,2,1,1,2,1,2,2,1,2,1,1,2,2,2,2,2,1,2,2,1,2,2,2,2,2,1,2,1,1,2,2,2,2,1,1,1,2,2,2,1,2,2,2,1,2,2,2,2,2,1,2,2,1,2,2,1,2,2,1,1,1,2,1,2,1,2,2,1,1,2,1,2,1,1,1,2,1,2,2,2,2,2,2,1,2,2,1,1,1,1,1,2,1,1,1,2,1,1,2,2,1,2,1,2,1,2,1,2,1,2,2,2,1,1],"img_shown":["img2/100/Incongruent/L/I_Dist_100_LN_6_LD_10_RN_7_RD_14_0.png","img2/200/Congruent/R/C_Dist_200_LN_13_LD_26_RN_14_RD_20_1.png","img2/100/Congruent/L/C_Dist_100_LN_10_LD_25_RN_3_RD_10_0.png","img2/200/Incongruent/R/I_Dist_200_LN_7_LD_15_RN_6_RD_9_1.png","img2/200/Congruent/L/C_Dist_200_LN_8_LD_15_RN_3_RD_9_0.png","img2/200/Incongruent/R/I_Dist_200_LN_9_LD_15_RN_8_RD_10_1.png","img2/100/Incongruent/R/I_Dist_100_LN_6_LD_12_RN_3_RD_5_1.png","img2/100/Congruent/L/C_Dist_100_LN_8_LD_16_RN_2_RD_5_0.png","img2/100/Congruent/L/C_Dist_100_LN_11_LD_22_RN_4_RD_10_0.png","img2/300/Congruent/R/C_Dist_300_LN_2_LD_20_RN_10_RD_25_1.png","img2/200/Incongruent/L/I_Dist_200_LN_7_LD_10_RN_14_RD_28_0.png","img2/300/Congruent/R/C_Dist_300_LN_5_LD_25_RN_7_RD_14_1.png","img2/300/Incongruent/R/I_Dist_300_LN_4_LD_20_RN_2_RD_4_1.png","img2/300/Congruent/L/C_Dist_300_LN_20_LD_25_RN_14_RD_28_0.png","img2/100/Congruent/R/C_Dist_100_LN_2_LD_5_RN_11_RD_22_1.png","img2/200/Congruent/L/C_Dist_200_LN_7_LD_21_RN_2_RD_15_0.png","img2/300/Congruent/L/C_Dist_300_LN_20_LD_25_RN_8_RD_16_0.png","img2/200/Congruent/R/C_Dist_200_LN_3_LD_10_RN_14_RD_28_1.png","img2/100/Congruent/R/C_Dist_100_LN_4_LD_10_RN_15_RD_30_1.png","img2/200/Incongruent/R/I_Dist_200_LN_7_LD_15_RN_4_RD_6_1.png","img2/300/Incongruent/R/I_Dist_300_LN_4_LD_20_RN_2_RD_4_1.png","img2/200/Incongruent/R/I_Dist_200_LN_4_LD_30_RN_1_RD_3_1.png","img2/100/Congruent/L/C_Dist_100_LN_6_LD_20_RN_5_RD_25_0.png","img2/200/Incongruent/R/I_Dist_200_LN_3_LD_10_RN_1_RD_2_1.png","img2/300/Congruent/R/C_Dist_300_LN_4_LD_20_RN_13_RD_26_1.png","img2/300/Incongruent/L/I_Dist_300_LN_7_LD_10_RN_8_RD_20_0.png","img2/100/Congruent/R/C_Dist_100_LN_2_LD_5_RN_11_RD_22_1.png","img2/200/Congruent/R/C_Dist_200_LN_3_LD_10_RN_7_RD_14_1.png","img2/200/Congruent/R/C_Dist_200_LN_5_LD_10_RN_14_RD_20_1.png","img2/300/Incongruent/R/I_Dist_300_LN_13_LD_26_RN_12_RD_15_1.png","img2/100/Congruent/R/C_Dist_100_LN_1_LD_2_RN_3_RD_5_1.png","img2/100/Incongruent/L/I_Dist_100_LN_3_LD_5_RN_8_RD_16_0.png","img2/200/Incongruent/R/I_Dist_200_LN_14_LD_30_RN_6_RD_9_1.png","img2/100/Incongruent/L/I_Dist_100_LN_2_LD_4_RN_6_RD_15_0.png","img2/100/Congruent/L/C_Dist_100_LN_9_LD_15_RN_8_RD_16_0.png","img2/100/Congruent/R/C_Dist_100_LN_4_LD_8_RN_6_RD_10_1.png","img2/200/Congruent/R/C_Dist_200_LN_3_LD_10_RN_11_RD_22_1.png","img2/300/Incongruent/R/I_Dist_300_LN_4_LD_20_RN_2_RD_4_1.png","img2/100/Congruent/R/C_Dist_100_LN_1_LD_2_RN_3_RD_5_1.png","img2/100/Incongruent/L/I_Dist_100_LN_2_LD_4_RN_8_RD_20_0.png","img2/100/Congruent/L/C_Dist_100_LN_11_LD_22_RN_4_RD_10_0.png","img2/300/Congruent/L/C_Dist_300_LN_12_LD_24_RN_2_RD_10_0.png","img2/100/Congruent/R/C_Dist_100_LN_3_LD_20_RN_4_RD_16_1.png","img2/100/Congruent/R/C_Dist_100_LN_4_LD_10_RN_15_RD_30_1.png","img2/100/Congruent/R/C_Dist_100_LN_6_LD_12_RN_15_RD_25_1.png","img2/100/Incongruent/L/I_Dist_100_LN_9_LD_10_RN_20_RD_25_0.png","img2/300/Incongruent/R/I_Dist_300_LN_13_LD_26_RN_12_RD_15_1.png","img2/200/Congruent/R/C_Dist_200_LN_3_LD_10_RN_11_RD_22_1.png","img2/200/Congruent/R/C_Dist_200_LN_6_LD_20_RN_11_RD_22_1.png","img2/300/Congruent/L/C_Dist_300_LN_20_LD_25_RN_9_RD_18_0.png","img2/300/Congruent/R/C_Dist_300_LN_1_LD_3_RN_19_RD_30_1.png","img2/300/Congruent/R/C_Dist_300_LN_5_LD_25_RN_6_RD_12_1.png","img2/100/Incongruent/R/I_Dist_100_LN_9_LD_18_RN_6_RD_10_1.png","img2/300/Congruent/R/C_Dist_300_LN_3_LD_6_RN_4_RD_5_1.png","img2/200/Incongruent/R/I_Dist_200_LN_3_LD_10_RN_1_RD_2_1.png","img2/300/Incongruent/L/I_Dist_300_LN_2_LD_4_RN_6_RD_30_0.png","img2/300/Incongruent/R/I_Dist_300_LN_4_LD_20_RN_2_RD_4_1.png","img2/300/Congruent/R/C_Dist_300_LN_1_LD_30_RN_8_RD_24_1.png","img2/200/Incongruent/L/I_Dist_200_LN_4_LD_5_RN_6_RD_10_0.png","img2/200/Congruent/R/C_Dist_200_LN_13_LD_26_RN_14_RD_20_1.png","img2/300/Congruent/R/C_Dist_300_LN_1_LD_5_RN_3_RD_6_1.png","img2/100/Congruent/L/C_Dist_100_LN_6_LD_20_RN_5_RD_25_0.png","img2/200/Congruent/R/C_Dist_200_LN_3_LD_10_RN_11_RD_22_1.png","img2/100/Incongruent/R/I_Dist_100_LN_9_LD_18_RN_6_RD_10_1.png","img2/100/Incongruent/L/I_Dist_100_LN_6_LD_10_RN_7_RD_14_0.png","img2/200/Congruent/L/C_Dist_200_LN_16_LD_30_RN_9_RD_27_0.png","img2/300/Incongruent/L/I_Dist_300_LN_8_LD_10_RN_9_RD_18_0.png","img2/200/Incongruent/R/I_Dist_200_LN_7_LD_15_RN_6_RD_9_1.png","img2/200/Incongruent/L/I_Dist_200_LN_1_LD_2_RN_3_RD_10_0.png","img2/100/Incongruent/R/I_Dist_100_LN_13_LD_26_RN_6_RD_10_1.png","img2/100/Incongruent/L/I_Dist_100_LN_3_LD_6_RN_4_RD_10_0.png","img2/300/Incongruent/R/I_Dist_300_LN_4_LD_20_RN_2_RD_4_1.png","img2/100/Incongruent/R/I_Dist_100_LN_13_LD_26_RN_6_RD_10_1.png","img2/100/Incongruent/L/I_Dist_100_LN_2_LD_4_RN_8_RD_20_0.png","img2/200/Incongruent/L/I_Dist_200_LN_7_LD_10_RN_8_RD_16_0.png","img2/100/Incongruent/R/I_Dist_100_LN_13_LD_26_RN_6_RD_10_1.png","img2/200/Incongruent/L/I_Dist_200_LN_3_LD_4_RN_11_RD_20_0.png","img2/300/Congruent/R/C_Dist_300_LN_2_LD_10_RN_12_RD_24_1.png","img2/300/Incongruent/L/I_Dist_300_LN_1_LD_2_RN_2_RD_10_0.png","img2/200/Incongruent/L/I_Dist_200_LN_4_LD_5_RN_6_RD_10_0.png","img2/300/Congruent/L/C_Dist_300_LN_11_LD_22_RN_4_RD_20_0.png","img2/300/Incongruent/R/I_Dist_300_LN_4_LD_20_RN_2_RD_4_1.png","img2/100/Congruent/L/C_Dist_100_LN_11_LD_22_RN_4_RD_10_0.png","img2/200/Incongruent/R/I_Dist_200_LN_9_LD_15_RN_8_RD_10_1.png","img2/100/Incongruent/R/I_Dist_100_LN_6_LD_12_RN_3_RD_5_1.png","img2/200/Congruent/R/C_Dist_200_LN_3_LD_10_RN_14_RD_28_1.png","img2/200/Incongruent/R/I_Dist_200_LN_7_LD_15_RN_6_RD_9_1.png","img2/300/Congruent/R/C_Dist_300_LN_3_LD_6_RN_4_RD_5_1.png","img2/300/Incongruent/R/I_Dist_300_LN_13_LD_26_RN_12_RD_15_1.png","img2/200/Congruent/L/C_Dist_200_LN_16_LD_30_RN_9_RD_27_0.png","img2/300/Incongruent/R/I_Dist_300_LN_13_LD_26_RN_12_RD_15_1.png","img2/100/Incongruent/R/I_Dist_100_LN_11_LD_22_RN_9_RD_15_1.png","img2/300/Congruent/L/C_Dist_300_LN_24_LD_30_RN_8_RD_16_0.png","img2/300/Congruent/L/C_Dist_300_LN_11_LD_22_RN_1_RD_5_0.png","img2/300/Incongruent/L/I_Dist_300_LN_1_LD_2_RN_3_RD_15_0.png","img2/200/Incongruent/L/I_Dist_200_LN_1_LD_2_RN_3_RD_10_0.png","img2/200/Congruent/L/C_Dist_200_LN_8_LD_15_RN_7_RD_21_0.png","img2/200/Incongruent/R/I_Dist_200_LN_7_LD_15_RN_4_RD_6_1.png","img2/200/Congruent/L/C_Dist_200_LN_20_LD_25_RN_9_RD_15_0.png","img2/300/Congruent/L/C_Dist_300_LN_11_LD_22_RN_4_RD_20_0.png","img2/300/Incongruent/L/I_Dist_300_LN_4_LD_5_RN_6_RD_12_0.png","img2/100/Congruent/R/C_Dist_100_LN_4_LD_10_RN_15_RD_30_1.png","img2/300/Congruent/L/C_Dist_300_LN_11_LD_22_RN_4_RD_20_0.png","img2/200/Congruent/L/C_Dist_200_LN_16_LD_30_RN_9_RD_27_0.png","img2/100/Incongruent/R/I_Dist_100_LN_17_LD_30_RN_10_RD_15_1.png","img2/100/Incongruent/R/I_Dist_100_LN_11_LD_22_RN_9_RD_15_1.png","img2/200/Incongruent/L/I_Dist_200_LN_7_LD_10_RN_14_RD_28_0.png","img2/200/Incongruent/R/I_Dist_200_LN_9_LD_15_RN_8_RD_10_1.png","img2/300/Incongruent/L/I_Dist_300_LN_3_LD_6_RN_4_RD_20_0.png","img2/200/Congruent/R/C_Dist_200_LN_3_LD_10_RN_14_RD_28_1.png","img2/200/Congruent/L/C_Dist_200_LN_4_LD_10_RN_3_RD_15_0.png","img2/300/Incongruent/R/I_Dist_300_LN_4_LD_20_RN_2_RD_4_1.png","img2/300/Incongruent/L/I_Dist_300_LN_3_LD_6_RN_4_RD_20_0.png","img2/100/Incongruent/R/I_Dist_100_LN_13_LD_26_RN_6_RD_10_1.png","img2/300/Congruent/L/C_Dist_300_LN_3_LD_6_RN_2_RD_10_0.png","img2/200/Congruent/R/C_Dist_200_LN_3_LD_10_RN_11_RD_22_1.png","img2/100/Incongruent/R/I_Dist_100_LN_12_LD_24_RN_9_RD_15_1.png","img2/300/Incongruent/R/I_Dist_300_LN_4_LD_20_RN_2_RD_4_1.png","img2/100/Congruent/L/C_Dist_100_LN_6_LD_20_RN_5_RD_25_0.png","img2/100/Congruent/L/C_Dist_100_LN_3_LD_6_RN_2_RD_5_0.png"],"dist100_C":[["C_Dist_100_LN_10_LD_25_RN_3_RD_10_0.png","C_Dist_100_LN_11_LD_22_RN_4_RD_10_0.png","C_Dist_100_LN_11_LD_22_RN_6_RD_15_0.png","C_Dist_100_LN_15_LD_25_RN_13_RD_26_0.png","C_Dist_100_LN_3_LD_6_RN_2_RD_5_0.png","C_Dist_100_LN_6_LD_20_RN_5_RD_25_0.png","C_Dist_100_LN_8_LD_16_RN_2_RD_5_0.png","C_Dist_100_LN_9_LD_15_RN_8_RD_16_0.png"],["C_Dist_100_LN_1_LD_2_RN_18_RD_30_1.png","C_Dist_100_LN_1_LD_2_RN_3_RD_5_1.png","C_Dist_100_LN_12_LD_30_RN_13_RD_26_1.png","C_Dist_100_LN_2_LD_5_RN_11_RD_22_1.png","C_Dist_100_LN_2_LD_5_RN_6_RD_12_1.png","C_Dist_100_LN_3_LD_20_RN_4_RD_16_1.png","C_Dist_100_LN_4_LD_10_RN_15_RD_30_1.png","C_Dist_100_LN_4_LD_8_RN_6_RD_10_1.png","C_Dist_100_LN_6_LD_12_RN_15_RD_25_1.png","C_Dist_100_LN_7_LD_14_RN_15_RD_25_1.png","C_Dist_100_LN_7_LD_14_RN_9_RD_15_1.png"]],"dist100_I":[["I_Dist_100_LN_1_LD_2_RN_8_RD_20_0.png","I_Dist_100_LN_2_LD_4_RN_6_RD_15_0.png","I_Dist_100_LN_2_LD_4_RN_8_RD_20_0.png","I_Dist_100_LN_3_LD_5_RN_11_RD_22_0.png","I_Dist_100_LN_3_LD_5_RN_8_RD_16_0.png","I_Dist_100_LN_3_LD_6_RN_4_RD_10_0.png","I_Dist_100_LN_3_LD_9_RN_7_RD_30_0.png","I_Dist_100_LN_4_LD_8_RN_8_RD_20_0.png","I_Dist_100_LN_6_LD_10_RN_11_RD_22_0.png","I_Dist_100_LN_6_LD_10_RN_13_RD_26_0.png","I_Dist_100_LN_6_LD_10_RN_7_RD_14_0.png","I_Dist_100_LN_9_LD_10_RN_20_RD_25_0.png","I_Dist_100_LN_9_LD_15_RN_13_RD_26_0.png","I_Dist_100_LN_9_LD_15_RN_14_RD_28_0.png"],["I_Dist_100_LN_10_LD_25_RN_8_RD_16_1.png","I_Dist_100_LN_10_LD_25_RN_9_RD_18_1.png","I_Dist_100_LN_11_LD_22_RN_9_RD_15_1.png","I_Dist_100_LN_12_LD_24_RN_9_RD_15_1.png","I_Dist_100_LN_12_LD_30_RN_2_RD_4_1.png","I_Dist_100_LN_13_LD_26_RN_12_RD_20_1.png","I_Dist_100_LN_13_LD_26_RN_6_RD_10_1.png","I_Dist_100_LN_17_LD_30_RN_10_RD_15_1.png","I_Dist_100_LN_6_LD_12_RN_3_RD_5_1.png","I_Dist_100_LN_8_LD_16_RN_6_RD_10_1.png","I_Dist_100_LN_8_LD_20_RN_1_RD_2_1.png","I_Dist_100_LN_9_LD_18_RN_6_RD_10_1.png"]],"dist100_S":[["E_Dist_100_LN_2_LD_12_RN_2_RD_30_0.png","E_Dist_100_LN_6_LD_10_RN_6_RD_12_0.png"],["E_Dist_100_LN_6_LD_12_RN_6_RD_10_1.png"]],"dist200_C":[["C_Dist_200_LN_11_LD_22_RN_3_RD_10_0.png","C_Dist_200_LN_12_LD_15_RN_6_RD_10_0.png","C_Dist_200_LN_12_LD_20_RN_6_RD_15_0.png","C_Dist_200_LN_14_LD_28_RN_6_RD_20_0.png","C_Dist_200_LN_15_LD_25_RN_4_RD_10_0.png","C_Dist_200_LN_16_LD_20_RN_12_RD_20_0.png","C_Dist_200_LN_16_LD_30_RN_9_RD_27_0.png","C_Dist_200_LN_20_LD_25_RN_9_RD_15_0.png","C_Dist_200_LN_21_LD_30_RN_2_RD_4_0.png","C_Dist_200_LN_4_LD_10_RN_3_RD_15_0.png","C_Dist_200_LN_4_LD_8_RN_3_RD_10_0.png","C_Dist_200_LN_6_LD_15_RN_3_RD_15_0.png","C_Dist_200_LN_7_LD_21_RN_2_RD_15_0.png","C_Dist_200_LN_8_LD_15_RN_2_RD_6_0.png","C_Dist_200_LN_8_LD_15_RN_3_RD_9_0.png","C_Dist_200_LN_8_LD_15_RN_7_RD_21_0.png","C_Dist_200_LN_9_LD_20_RN_4_RD_16_0.png"],["C_Dist_200_LN_1_LD_2_RN_21_RD_30_1.png","C_Dist_200_LN_13_LD_26_RN_14_RD_20_1.png","C_Dist_200_LN_3_LD_10_RN_11_RD_22_1.png","C_Dist_200_LN_3_LD_10_RN_14_RD_28_1.png","C_Dist_200_LN_3_LD_10_RN_7_RD_14_1.png","C_Dist_200_LN_3_LD_12_RN_9_RD_20_1.png","C_Dist_200_LN_3_LD_6_RN_14_RD_20_1.png","C_Dist_200_LN_5_LD_10_RN_14_RD_20_1.png","C_Dist_200_LN_6_LD_12_RN_7_RD_10_1.png","C_Dist_200_LN_6_LD_20_RN_11_RD_22_1.png","C_Dist_200_LN_7_LD_15_RN_18_RD_27_1.png","C_Dist_200_LN_9_LD_30_RN_13_RD_26_1.png"]],"dist200_I":[["I_Dist_200_LN_1_LD_2_RN_3_RD_10_0.png","I_Dist_200_LN_1_LD_3_RN_2_RD_15_0.png","I_Dist_200_LN_3_LD_4_RN_11_RD_20_0.png","I_Dist_200_LN_4_LD_5_RN_6_RD_10_0.png","I_Dist_200_LN_4_LD_6_RN_14_RD_30_0.png","I_Dist_200_LN_7_LD_10_RN_12_RD_24_0.png","I_Dist_200_LN_7_LD_10_RN_14_RD_28_0.png","I_Dist_200_LN_7_LD_10_RN_8_RD_16_0.png"],["I_Dist_200_LN_11_LD_20_RN_3_RD_4_1.png","I_Dist_200_LN_14_LD_30_RN_12_RD_18_1.png","I_Dist_200_LN_14_LD_30_RN_6_RD_9_1.png","I_Dist_200_LN_3_LD_10_RN_1_RD_2_1.png","I_Dist_200_LN_4_LD_30_RN_1_RD_3_1.png","I_Dist_200_LN_6_LD_20_RN_3_RD_6_1.png","I_Dist_200_LN_7_LD_15_RN_4_RD_6_1.png","I_Dist_200_LN_7_LD_15_RN_6_RD_9_1.png","I_Dist_200_LN_9_LD_15_RN_8_RD_10_1.png"]],"dist200_S":[["E_Dist_200_LN_3_LD_6_RN_3_RD_10_0.png"],["E_Dist_200_LN_3_LD_10_RN_3_RD_6_1.png"]],"dist300_C":[["C_Dist_300_LN_11_LD_22_RN_1_RD_5_0.png","C_Dist_300_LN_11_LD_22_RN_2_RD_10_0.png","C_Dist_300_LN_11_LD_22_RN_4_RD_20_0.png","C_Dist_300_LN_12_LD_24_RN_2_RD_10_0.png","C_Dist_300_LN_18_LD_20_RN_9_RD_15_0.png","C_Dist_300_LN_20_LD_25_RN_13_RD_26_0.png","C_Dist_300_LN_20_LD_25_RN_14_RD_28_0.png","C_Dist_300_LN_20_LD_25_RN_5_RD_10_0.png","C_Dist_300_LN_20_LD_25_RN_8_RD_16_0.png","C_Dist_300_LN_20_LD_25_RN_9_RD_18_0.png","C_Dist_300_LN_24_LD_30_RN_2_RD_4_0.png","C_Dist_300_LN_24_LD_30_RN_8_RD_16_0.png","C_Dist_300_LN_3_LD_6_RN_2_RD_10_0.png","C_Dist_300_LN_4_LD_10_RN_1_RD_10_0.png","C_Dist_300_LN_4_LD_5_RN_2_RD_4_0.png","C_Dist_300_LN_8_LD_16_RN_1_RD_5_0.png","C_Dist_300_LN_9_LD_10_RN_3_RD_5_0.png"],["C_Dist_300_LN_1_LD_20_RN_7_RD_20_1.png","C_Dist_300_LN_1_LD_3_RN_19_RD_30_1.png","C_Dist_300_LN_1_LD_30_RN_8_RD_24_1.png","C_Dist_300_LN_1_LD_5_RN_11_RD_22_1.png","C_Dist_300_LN_1_LD_5_RN_3_RD_6_1.png","C_Dist_300_LN_1_LD_5_RN_6_RD_12_1.png","C_Dist_300_LN_2_LD_10_RN_12_RD_24_1.png","C_Dist_300_LN_2_LD_20_RN_10_RD_25_1.png","C_Dist_300_LN_3_LD_12_RN_11_RD_20_1.png","C_Dist_300_LN_3_LD_6_RN_4_RD_5_1.png","C_Dist_300_LN_4_LD_20_RN_13_RD_26_1.png","C_Dist_300_LN_5_LD_25_RN_6_RD_12_1.png","C_Dist_300_LN_5_LD_25_RN_7_RD_14_1.png","C_Dist_300_LN_7_LD_14_RN_20_RD_25_1.png","C_Dist_300_LN_8_LD_15_RN_10_RD_12_1.png"]],"dist300_I":[["I_Dist_300_LN_1_LD_2_RN_2_RD_10_0.png","I_Dist_300_LN_1_LD_2_RN_3_RD_15_0.png","I_Dist_300_LN_2_LD_4_RN_6_RD_30_0.png","I_Dist_300_LN_3_LD_6_RN_4_RD_20_0.png","I_Dist_300_LN_4_LD_5_RN_6_RD_12_0.png","I_Dist_300_LN_4_LD_5_RN_8_RD_16_0.png","I_Dist_300_LN_7_LD_10_RN_8_RD_20_0.png","I_Dist_300_LN_8_LD_10_RN_14_RD_28_0.png","I_Dist_300_LN_8_LD_10_RN_9_RD_18_0.png"],["I_Dist_300_LN_13_LD_26_RN_12_RD_15_1.png","I_Dist_300_LN_4_LD_20_RN_2_RD_4_1.png"]],"dist300_S":[["E_Dist_300_LN_9_LD_12_RN_9_RD_20_0.png"],["E_Dist_300_LN_18_LD_30_RN_18_RD_20_1.png","E_Dist_300_LN_3_LD_10_RN_3_RD_5_1.png","E_Dist_300_LN_9_LD_20_RN_9_RD_12_1.png"]],"dist500_C":[["C_Dist_500_LN_10_LD_13_RN_7_RD_26_0.png","C_Dist_500_LN_10_LD_15_RN_4_RD_24_0.png","C_Dist_500_LN_12_LD_16_RN_3_RD_12_0.png","C_Dist_500_LN_12_LD_18_RN_4_RD_24_0.png","C_Dist_500_LN_15_LD_18_RN_5_RD_15_0.png","C_Dist_500_LN_15_LD_20_RN_1_RD_4_0.png","C_Dist_500_LN_18_LD_27_RN_1_RD_6_0.png","C_Dist_500_LN_20_LD_24_RN_1_RD_3_0.png","C_Dist_500_LN_20_LD_24_RN_3_RD_9_0.png","C_Dist_500_LN_20_LD_24_RN_7_RD_21_0.png","C_Dist_500_LN_20_LD_28_RN_3_RD_14_0.png","C_Dist_500_LN_21_LD_28_RN_6_RD_24_0.png","C_Dist_500_LN_22_LD_28_RN_2_RD_7_0.png","C_Dist_500_LN_25_LD_30_RN_9_RD_27_0.png","C_Dist_500_LN_4_LD_6_RN_1_RD_6_0.png","C_Dist_500_LN_5_LD_6_RN_2_RD_6_0.png","C_Dist_500_LN_6_LD_9_RN_1_RD_6_0.png","C_Dist_500_LN_7_LD_10_RN_1_RD_5_0.png","C_Dist_500_LN_8_LD_12_RN_1_RD_6_0.png","C_Dist_500_LN_8_LD_12_RN_4_RD_24_0.png"],["C_Dist_500_LN_1_LD_4_RN_12_RD_16_1.png","C_Dist_500_LN_1_LD_4_RN_9_RD_12_1.png","C_Dist_500_LN_1_LD_9_RN_11_RD_18_1.png","C_Dist_500_LN_10_LD_24_RN_22_RD_24_1.png","C_Dist_500_LN_2_LD_12_RN_10_RD_15_1.png","C_Dist_500_LN_2_LD_12_RN_12_RD_18_1.png","C_Dist_500_LN_2_LD_12_RN_4_RD_6_1.png","C_Dist_500_LN_2_LD_24_RN_7_RD_12_1.png","C_Dist_500_LN_2_LD_5_RN_18_RD_20_1.png","C_Dist_500_LN_2_LD_5_RN_9_RD_10_1.png","C_Dist_500_LN_2_LD_8_RN_12_RD_16_1.png","C_Dist_500_LN_2_LD_8_RN_21_RD_28_1.png","C_Dist_500_LN_3_LD_10_RN_4_RD_5_1.png","C_Dist_500_LN_3_LD_12_RN_15_RD_20_1.png","C_Dist_500_LN_3_LD_30_RN_6_RD_10_1.png","C_Dist_500_LN_3_LD_8_RN_14_RD_16_1.png","C_Dist_500_LN_4_LD_16_RN_15_RD_20_1.png","C_Dist_500_LN_4_LD_24_RN_12_RD_18_1.png","C_Dist_500_LN_5_LD_14_RN_6_RD_7_1.png","C_Dist_500_LN_7_LD_21_RN_20_RD_24_1.png","C_Dist_500_LN_7_LD_28_RN_12_RD_16_1.png","C_Dist_500_LN_7_LD_28_RN_9_RD_12_1.png","C_Dist_500_LN_9_LD_27_RN_20_RD_24_1.png"]],"dist500_I":[["I_Dist_500_LN_2_LD_3_RN_4_RD_24_0.png","I_Dist_500_LN_5_LD_6_RN_6_RD_18_0.png","I_Dist_500_LN_7_LD_8_RN_9_RD_24_0.png"],["I_Dist_500_LN_7_LD_21_RN_5_RD_6_1.png"]],"dist500_S":[["E_Dist_500_LN_6_LD_8_RN_6_RD_24_0.png"],["E_Dist_500_LN_2_LD_12_RN_2_RD_3_1.png","E_Dist_500_LN_6_LD_24_RN_6_RD_8_1.png"]]}},{"start_time":1552054123572,"click_time":1552054126723,"finger_time":1552054126503,"fix_duration":628.098802845454,"trial":1,"RT":2931,"MT":220,"sideResp":1,"stimulus":[],"xmouse":[787,787,787,787,787,787,787,787,787,787,787,787,787,787,787,787,787,787,787,787,787,787,787,787,787,787,787,787,787,787,787,787,787,787,787,787,787,787,787,787,787,787,787,787,787,787,787,787,787,787,787,787,787,787,787,787,787,787,787,787,787,787,787,787,787,787,787,787,787,787,787,787,787,787,787,787,787,787,787,787,787,787,787,787,787,787,787,787,787,787,787,787,787,787,787,787,787,787,787,787,787,787,787,787,787,787,787,787,787,787,787,787,787,787,787,787,787,787,787,787,787,787,787,787,787,787,787,787,787,787,787,787,787,787,787,787,787,787,787,787,787,787,787,787,784,778,771,744,715,680,651,620,596,585,566,561,536,508],"ymouse":[624,624,624,624,624,624,624,624,624,624,624,624,624,624,624,624,624,624,624,624,624,624,624,624,624,624,624,624,624,624,624,624,624,624,624,624,624,624,624,624,624,624,624,624,624,624,624,624,624,624,624,624,624,624,624,624,624,624,624,624,624,624,624,624,624,624,624,624,624,624,624,624,624,624,624,624,624,624,624,624,624,624,624,624,624,624,624,624,624,624,624,624,624,624,624,624,624,624,624,624,624,624,624,624,624,624,624,624,624,624,624,624,624,624,624,624,624,624,624,624,624,624,624,624,624,624,624,624,624,624,624,624,624,624,624,624,624,624,624,624,624,624,624,624,618,598,571,486,409,336,276,225,184,157,126,118,80,37],"timestamp_mouse":[11,31,51,71,91,112,131,151,172,191,211,231,251,272,291,312,331,352,372,391,412,431,451,471,491,511,533,551,571,591,611,631,651,671,691,712,731,751,771,792,811,832,852,871,892,911,931,951,971,991,1011,1032,1052,1071,1092,1111,1132,1151,1171,1191,1212,1232,1251,1271,1291,1312,1331,1351,1371,1392,1411,1432,1451,1471,1492,1512,1531,1551,1571,1591,1612,1631,1651,1671,1691,1712,1731,1752,1771,1792,1812,1832,1851,1871,1891,1911,1931,1951,1971,1991,2012,2031,2051,2071,2091,2112,2132,2151,2171,2191,2212,2233,2253,2271,2291,2312,2331,2351,2371,2391,2412,2431,2451,2471,2491,2511,2531,2551,2571,2592,2612,2632,2652,2672,2691,2711,2731,2751,2771,2791,2811,2831,2852,2872,2892,2912,2931,2952,2971,2991,3012,3032,3051,3071,3091,3111,3131,3151],"xSR":741.5,"ySR":573.95,"xT1":424.9,"yT1":0,"xT2":1058.1,"yT2":0,"toosoon":0,"cond_shown":"Congruent","ratio_trial":200,"L_num":13,"L_den":26,"R_num":14,"R_den":20,"correct_side":2,"subjID":"valeriamartinezbuitrago20","gender":"1","school":"4","age":"9años"},{"start_time":1552054129675,"click_time":1552054132124,"finger_time":1552054131603,"fix_duration":1089.7301713767972,"trial":2,"RT":1928,"MT":521,"sideResp":2,"stimulus":[],"xmouse":[793,793,793,793,793,793,793,793,793,793,793,793,793,793,793,793,793,793,793,793,793,793,793,793,793,793,793,793,793,793,793,793,793,793,793,793,793,793,793,793,793,793,793,793,793,793,793,793,793,793,793,793,793,793,793,793,793,793,793,793,793,793,793,793,793,793,793,793,793,793,793,793,793,793,793,793,794,794,794,794,794,794,794,794,794,794,794,794,794,794,795,796,800,805,815,820,851,918,1087,1120,1154,1178,1193,1205,1208,1210,1210,1210,1209,1206,1206,1206,1206,1206,1194,1166,1138,1124,1116,1116,1113,1104,1090],"ymouse":[610,610,610,610,610,610,610,610,610,610,610,610,610,610,610,610,610,610,610,610,610,610,610,610,610,610,610,610,610,610,610,610,610,610,610,610,610,610,610,610,610,610,610,610,610,610,610,610,610,610,610,610,610,610,610,610,610,610,610,610,610,610,610,610,610,610,610,610,610,610,610,610,610,610,610,610,610,610,610,610,610,610,610,610,610,610,610,610,610,610,611,611,611,612,612,612,602,574,501,487,460,431,413,395,385,367,343,321,305,298,298,298,298,298,278,239,207,187,151,151,135,109,89],"timestamp_mouse":[10,28,48,70,88,109,129,149,168,188,208,229,248,268,288,308,329,349,368,390,408,429,449,468,489,508,528,549,568,590,608,628,649,669,688,708,729,748,769,788,808,829,848,869,889,908,929,948,968,989,1008,1028,1048,1068,1089,1108,1130,1149,1168,1188,1210,1228,1249,1269,1288,1308,1329,1348,1369,1389,1409,1429,1448,1468,1489,1509,1529,1548,1569,1589,1608,1628,1648,1668,1689,1709,1728,1748,1769,1788,1809,1828,1848,1868,1889,1908,1928,1948,1969,1988,2008,2029,2049,2069,2089,2109,2128,2148,2169,2189,2208,2229,2248,2268,2288,2308,2329,2348,2369,2388,2408,2429,2449],"xSR":741.5,"ySR":573.95,"xT1":424.9,"yT1":0,"xT2":1058.1,"yT2":0,"toosoon":0,"cond_shown":"Congruent","ratio_trial":100,"L_num":10,"L_den":25,"R_num":3,"R_den":10,"correct_side":1,"subjID":"valeriamartinezbuitrago20","gender":"1","school":"4","age":"9años"},{"start_time":1552054134740,"click_time":1552054138365,"finger_time":1552054137384,"fix_duration":1174.5883413238143,"trial":3,"RT":2644,"MT":981,"sideResp":1,"stimulus":[],"xmouse":[822,822,822,822,822,822,822,822,822,822,822,822,822,822,822,822,822,822,822,822,822,822,822,822,822,822,822,822,822,822,822,822,822,822,822,822,822,822,822,822,822,822,822,822,822,822,822,822,822,822,822,822,822,822,822,822,822,822,822,822,822,822,822,822,822,822,822,822,822,822,822,822,822,822,822,822,822,822,822,822,822,822,822,822,822,822,822,822,822,822,822,822,822,822,822,822,822,822,822,822,822,822,822,822,822,822,822,822,822,821,817,815,813,811,809,807,806,806,806,806,806,806,806,806,806,806,806,806,806,805,801,798,795,783,766,742,729,717,706,696,678,668,660,654,641,619,593,565,538,521,517,516,516,516,516,516,516,516,516,516,516,516,516,516,516,516,516,516,516,516,516,516,516,516,516,516,516,516,516,516,515,512],"ymouse":[614,614,614,614,614,614,614,614,614,614,614,614,614,614,614,614,614,614,614,614,614,614,614,614,614,614,614,614,614,614,614,614,614,614,614,614,614,614,614,614,614,614,614,614,614,614,614,614,614,614,614,614,614,614,614,614,614,614,614,614,614,614,614,614,614,614,614,614,614,614,614,614,614,614,614,614,614,614,614,614,614,614,614,614,614,614,614,614,614,614,614,614,614,614,614,614,614,614,614,614,614,614,614,614,614,614,614,614,614,613,611,609,606,601,596,591,589,589,589,589,589,589,589,589,589,589,589,589,589,588,583,577,570,544,506,431,387,341,308,276,208,179,154,133,100,62,34,11,0,0,0,0,0,0,0,0,0,0,0,0,0,0,0,0,0,0,0,0,0,0,0,0,0,0,0,0,0,0,0,0,0,8],"timestamp_mouse":[4,24,44,63,83,103,123,143,164,184,203,224,244,264,284,303,323,344,363,384,403,423,444,464,484,503,523,544,563,583,604,623,644,663,683,703,723,743,764,783,804,823,844,863,884,903,923,943,964,983,1003,1024,1043,1064,1083,1103,1123,1143,1163,1183,1203,1224,1244,1264,1283,1303,1323,1344,1363,1383,1403,1423,1444,1464,1483,1503,1524,1544,1563,1584,1603,1623,1645,1664,1684,1703,1723,1743,1764,1783,1803,1823,1843,1864,1884,1903,1923,1944,1964,1983,2003,2023,2043,2063,2083,2103,2123,2143,2165,2184,2203,2223,2243,2264,2283,2303,2324,2344,2363,2383,2404,2424,2443,2463,2484,2504,2523,2543,2563,2583,2604,2623,2644,2664,2684,2703,2724,2743,2763,2784,2803,2824,2843,2863,2884,2903,2923,2943,2963,2983,3004,3023,3043,3063,3083,3103,3124,3143,3163,3184,3203,3224,3244,3264,3284,3304,3324,3343,3364,3383,3404,3423,3443,3464,3483,3503,3524,3543,3563,3583,3603,3624],"xSR":741.5,"ySR":573.95,"xT1":424.9,"yT1":0,"xT2":1058.1,"yT2":0,"toosoon":0,"cond_shown":"Incongruent","ratio_trial":200,"L_num":7,"L_den":15,"R_num":6,"R_den":9,"correct_side":2,"subjID":"valeriamartinezbuitrago20","gender":"1","school":"4","age":"9años"},{"start_time":1552054142449,"click_time":1552054148724,"finger_time":1552054146724,"fix_duration":304.4524982806878,"trial":4,"RT":4275,"MT":2000,"sideResp":2,"stimulus":[],"xmouse":[793,793,793,793,793,793,793,793,793,793,793,793,793,793,793,793,793,793,793,793,793,793,793,793,793,793,793,793,793,793,793,793,793,793,793,793,793,793,793,793,793,793,793,793,793,793,793,793,793,793,793,793,793,793,793,793,793,793,793,793,793,793,793,793,793,793,793,793,793,793,793,793,793,793,793,793,793,793,793,793,793,793,793,793,793,793,793,793,793,793,793,793,793,793,793,793,793,793,793,793,793,793,793,793,793,793,793,793,793,793,793,793,793,793,793,793,793,793,793,793,793,793,793,793,793,793,793,793,793,793,793,793,793,793,793,793,793,793,793,793,793,793,793,793,793,793,793,793,793,793,793,793,793,793,793,793,793,793,793,793,793,793,793,793,793,793,793,793,793,793,793,793,793,793,793,793,793,793,793,793,793,792,790,789,789,789,789,789,789,789,789,789,788,787,786,786,784,783,782,780,777,774,771,769,767,766,763,762,760,759,756,747,744,740,736,732,720,714,707,701,697,690,688,688,688,687,682,677,673,671,669,661,657,653,652,652,652,652,652,652,652,652,652,652,652,652,652,652,650,647,639,633,631,631,630,630,626,625,623,622,621,621,621,621,621,621,622,624,627,630,632,654,665,675,682,691,704,711,716,726,728,748,756,764,774,789,803,804,811,827,833,837,841,843,844,856,877,896,912,926,934,943,952,965,980,996,1008,1010,1010,1011,1012,1033,1052,1062],"ymouse":[623,623,623,623,623,623,623,623,623,623,623,623,623,623,623,623,623,623,623,623,623,623,623,623,623,623,623,623,623,623,623,623,623,623,623,623,623,623,623,623,623,623,623,623,623,623,623,623,623,623,623,623,623,623,623,623,623,623,623,623,623,623,623,623,623,623,623,623,623,623,623,623,623,623,623,623,623,623,623,623,623,623,623,623,623,623,623,623,623,623,623,623,623,623,623,623,623,623,623,623,623,623,623,623,623,623,623,623,623,623,623,623,623,623,623,623,623,623,623,623,623,623,623,623,623,623,623,623,623,623,623,623,623,623,623,623,623,623,623,623,623,623,623,623,623,623,623,623,623,623,623,623,623,623,623,623,623,623,623,623,623,623,623,623,623,623,623,623,623,623,623,623,623,623,623,623,623,623,623,623,623,619,615,614,613,613,612,612,612,612,612,612,611,610,609,609,606,605,605,601,599,597,595,594,593,592,591,590,590,589,588,583,580,577,575,570,549,533,519,506,496,483,479,478,477,476,467,460,454,452,451,445,443,441,441,441,441,441,441,441,441,441,441,441,441,441,441,441,440,438,430,424,420,419,417,413,402,396,393,388,386,374,369,365,360,359,351,343,336,331,328,305,296,288,285,276,258,248,239,224,220,196,187,180,171,162,154,154,149,141,137,135,131,129,129,121,107,97,88,81,78,74,70,64,58,51,46,46,46,46,45,42,41,41],"timestamp_mouse":[15,34,55,75,96,114,135,154,175,195,214,234,254,276,295,314,335,355,375,395,415,434,455,474,494,515,536,554,575,596,615,634,655,675,695,715,734,756,775,794,815,834,855,874,895,914,935,955,975,995,1015,1035,1054,1074,1095,1115,1134,1154,1174,1194,1215,1234,1255,1275,1294,1314,1334,1354,1374,1394,1415,1434,1454,1474,1496,1516,1534,1555,1575,1594,1615,1634,1655,1674,1694,1715,1734,1754,1775,1795,1815,1834,1855,1874,1895,1916,1935,1955,1974,1995,2014,2034,2055,2076,2094,2114,2135,2155,2174,2194,2215,2235,2255,2274,2294,2314,2334,2355,2375,2396,2415,2434,2455,2474,2494,2514,2535,2555,2574,2594,2614,2635,2655,2674,2694,2714,2735,2755,2774,2794,2814,2836,2854,2874,2895,2914,2934,2956,2974,2995,3014,3035,3055,3074,3095,3115,3134,3155,3174,3194,3215,3234,3255,3275,3295,3314,3334,3354,3375,3395,3414,3434,3454,3475,3495,3515,3534,3555,3575,3594,3614,3634,3654,3675,3694,3714,3734,3754,3774,3795,3815,3834,3855,3875,3895,3915,3935,3954,3975,3995,4015,4034,4055,4075,4095,4115,4134,4155,4174,4195,4216,4234,4255,4275,4295,4315,4335,4354,4374,4395,4415,4435,4455,4475,4494,4514,4534,4554,4574,4594,4615,4634,4654,4675,4696,4714,4734,4755,4774,4795,4814,4834,4854,4874,4894,4915,4935,4954,4974,4994,5014,5034,5054,5075,5094,5115,5134,5154,5175,5195,5214,5234,5254,5274,5295,5314,5334,5354,5375,5394,5415,5435,5454,5474,5495,5514,5535,5554,5574,5594,5615,5635,5655,5674,5694,5714,5734,5755,5774,5795,5815,5834,5854,5875,5894,5914,5934,5955,5975,5995,6014,6034,6054,6074,6095,6114,6134,6155,6174,6195,6214,6235,6255,6275],"xSR":741.5,"ySR":573.95,"xT1":424.9,"yT1":0,"xT2":1058.1,"yT2":0,"toosoon":0,"cond_shown":"Congruent","ratio_trial":200,"L_num":8,"L_den":15,"R_num":3,"R_den":9,"correct_side":1,"subjID":"valeriamartinezbuitrago20","gender":"1","school":"4","age":"9años"},{"start_time":1552054151996,"click_time":1552054154024,"finger_time":1552054153623,"fix_duration":250,"trial":5,"RT":1627,"MT":401,"sideResp":1,"stimulus":[],"xmouse":[817,817,817,817,817,817,817,817,817,817,817,817,817,817,817,817,817,817,817,817,817,817,817,817,817,817,817,817,817,817,817,817,817,817,817,817,817,817,817,817,817,817,817,817,817,817,817,817,817,817,817,817,817,817,817,817,817,817,817,817,817,817,817,817,817,817,817,817,817,817,817,817,817,817,816,814,810,806,792,772,747,732,714,708,705,690,686,685,685,685,675,668,667,667,667,648,635,621,603,584,529,517],"ymouse":[652,652,652,652,652,652,652,652,652,652,652,652,652,652,652,652,652,652,652,652,652,652,652,652,652,652,652,652,652,652,652,652,652,652,652,652,652,652,652,652,652,652,652,652,652,652,652,652,652,652,652,652,652,652,652,652,652,652,652,652,652,652,652,652,652,652,652,652,652,652,652,652,652,652,652,652,652,651,645,634,600,549,479,449,420,359,341,330,319,302,256,239,239,239,239,227,220,208,187,162,98,86],"timestamp_mouse":[7,27,49,68,88,108,127,147,167,188,207,228,248,268,288,308,328,348,368,388,407,427,448,468,487,507,528,548,567,588,607,627,647,667,687,708,727,748,767,787,807,828,848,868,887,907,928,948,968,988,1007,1028,1047,1067,1087,1108,1128,1147,1168,1188,1208,1228,1247,1267,1287,1308,1328,1347,1367,1387,1407,1427,1447,1468,1488,1507,1528,1547,1567,1587,1607,1627,1647,1668,1688,1707,1729,1748,1768,1787,1807,1828,1847,1868,1888,1907,1927,1949,1967,1988,2007,2027],"xSR":741.5,"ySR":573.95,"xT1":424.9,"yT1":0,"xT2":1058.1,"yT2":0,"toosoon":0,"cond_shown":"Incongruent","ratio_trial":200,"L_num":9,"L_den":15,"R_num":8,"R_den":10,"correct_side":2,"subjID":"valeriamartinezbuitrago20","gender":"1","school":"4","age":"9años"},{"start_time":1552054157733,"click_time":1552054162144,"finger_time":1552054161066,"fix_duration":487.8942779223425,"trial":6,"RT":3333,"MT":1078,"sideResp":1,"stimulus":[],"xmouse":[804,804,804,804,804,804,804,804,804,804,804,804,804,804,804,804,804,804,804,804,804,804,804,804,804,804,804,804,804,804,804,804,804,804,804,804,804,804,804,804,804,804,804,804,804,804,804,804,804,804,804,804,804,804,804,804,804,804,804,804,804,804,804,804,804,804,804,804,804,804,804,804,804,804,804,804,804,804,804,804,804,804,804,804,804,804,804,804,804,804,804,804,804,804,804,804,804,804,804,804,804,804,804,804,804,804,804,804,804,804,804,804,804,804,804,804,804,804,804,804,804,804,804,804,804,804,804,804,804,804,804,804,804,804,804,804,804,804,804,804,804,804,804,804,804,804,802,801,795,783,780,779,779,779,779,779,779,779,779,779,779,779,779,779,776,766,747,708,626,603,581,570,570,570,570,569,567,567,567,568,568,568,569,571,572,573,573,573,573,571,571,570,557,542,541,541,541,541,539,535,532,530,529,529,529,529,529,529,529,529,528,528,527,527,527,527,526,526,526,525,523],"ymouse":[617,617,617,617,617,617,617,617,617,617,617,617,617,617,617,617,617,617,617,617,617,617,617,617,617,617,617,617,617,617,617,617,617,617,617,617,617,617,617,617,617,617,617,617,617,617,617,617,617,617,617,617,617,617,617,617,617,617,617,617,617,617,617,617,617,617,617,617,617,617,617,617,617,617,617,617,617,617,617,617,617,617,617,617,617,617,617,617,617,617,617,617,617,617,617,617,617,617,617,617,617,617,617,617,617,617,617,617,617,617,617,617,617,617,617,617,617,617,617,617,617,617,617,617,617,617,617,617,617,617,617,617,617,617,617,617,617,617,617,617,617,617,617,617,617,617,617,617,616,615,614,614,614,614,614,614,614,614,614,614,614,614,614,609,599,577,522,430,271,240,216,198,193,188,177,172,167,159,143,137,130,124,121,112,108,104,100,94,84,81,81,80,74,66,65,65,65,65,64,62,61,60,60,60,60,60,60,60,60,60,60,60,60,60,60,60,60,60,60,60,60],"timestamp_mouse":[12,33,52,72,92,112,132,153,171,191,212,233,253,271,292,312,331,353,371,392,413,432,453,472,492,513,533,551,573,591,613,633,652,671,693,711,731,751,772,791,812,832,853,872,892,912,931,952,973,992,1013,1031,1052,1073,1092,1112,1131,1153,1173,1191,1213,1232,1251,1271,1291,1313,1332,1352,1373,1391,1413,1433,1451,1471,1493,1512,1531,1551,1572,1592,1611,1633,1652,1672,1691,1712,1732,1752,1771,1793,1811,1832,1853,1871,1891,1913,1932,1953,1972,1991,2012,2031,2053,2072,2092,2113,2132,2153,2172,2191,2211,2233,2252,2272,2291,2313,2331,2353,2372,2393,2411,2433,2452,2471,2491,2511,2533,2553,2573,2592,2613,2633,2651,2673,2691,2711,2732,2752,2772,2792,2812,2831,2853,2871,2891,2912,2932,2953,2972,2992,3012,3031,3053,3073,3092,3111,3133,3153,3171,3192,3212,3233,3253,3272,3292,3312,3333,3352,3371,3392,3413,3432,3452,3471,3492,3512,3532,3552,3572,3592,3611,3632,3652,3672,3692,3711,3733,3753,3771,3792,3812,3833,3853,3872,3891,3911,3932,3952,3973,3992,4012,4032,4052,4072,4092,4111,4133,4152,4173,4192,4211,4232,4251,4271,4292,4312,4332,4352,4373,4393,4411],"xSR":741.5,"ySR":573.95,"xT1":424.9,"yT1":0,"xT2":1058.1,"yT2":0,"toosoon":0,"cond_shown":"Incongruent","ratio_trial":100,"L_num":6,"L_den":12,"R_num":3,"R_den":5,"correct_side":2,"subjID":"valeriamartinezbuitrago20","gender":"1","school":"4","age":"9años"},{"start_time":1552054164338,"click_time":1552054166244,"finger_time":1552054165705,"fix_duration":572.3724913922589,"trial":7,"RT":1367,"MT":539,"sideResp":2,"stimulus":[],"xmouse":[773,773,773,773,773,773,773,773,773,773,773,773,773,773,773,773,773,773,773,773,773,773,773,773,773,773,773,773,773,773,773,773,773,773,773,773,773,773,773,773,773,773,773,773,773,773,773,773,773,773,773,773,773,773,773,773,773,773,773,773,773,773,775,776,796,813,815,822,838,930,952,960,963,963,963,963,963,963,964,987,1000,1000,1002,1006,1018,1029,1034,1037,1042,1044,1045,1047,1049,1052,1058,1059],"ymouse":[624,624,624,624,624,624,624,624,624,624,624,624,624,624,624,624,624,624,624,624,624,624,624,624,624,624,624,624,624,624,624,624,624,624,624,624,624,624,624,624,624,624,624,624,624,624,624,624,624,624,624,624,624,624,624,624,624,624,624,624,624,624,623,621,609,598,597,589,562,406,378,364,359,359,359,359,359,357,348,243,212,212,209,200,175,160,155,151,134,103,93,87,83,79,68,65],"timestamp_mouse":[7,27,46,66,87,107,127,148,166,188,207,226,247,268,288,307,326,348,367,387,407,428,447,468,486,508,526,547,568,588,607,627,647,668,688,706,726,748,767,786,807,828,847,866,888,908,926,946,967,987,1007,1026,1047,1067,1088,1107,1126,1148,1166,1188,1206,1228,1247,1268,1287,1307,1327,1347,1367,1387,1407,1428,1446,1466,1488,1508,1528,1547,1568,1587,1606,1627,1648,1668,1686,1707,1727,1747,1767,1787,1806,1826,1848,1867,1887,1906],"xSR":741.5,"ySR":573.95,"xT1":424.9,"yT1":0,"xT2":1058.1,"yT2":0,"toosoon":0,"cond_shown":"Congruent","ratio_trial":100,"L_num":8,"L_den":16,"R_num":2,"R_den":5,"correct_side":1,"subjID":"valeriamartinezbuitrago20","gender":"1","school":"4","age":"9años"},{"start_time":1552054168375,"click_time":1552054170245,"finger_time":1552054169485,"fix_duration":509.638558189159,"trial":8,"RT":1110,"MT":760,"sideResp":1,"stimulus":[],"xmouse":[779,779,779,779,779,779,779,779,779,779,779,779,779,779,779,779,779,779,779,779,779,779,779,779,779,779,779,779,779,779,779,779,779,779,779,779,779,779,779,779,779,779,779,779,779,779,779,779,779,779,779,778,778,775,770,760,754,740,737,734,733,733,733,733,732,724,709,696,674,672,672,672,670,668,664,657,634,599,597,595,595,592,580,574,571,571,570,569,568,565,560,554,525,501],"ymouse":[633,633,633,633,633,633,633,633,633,633,633,633,633,633,633,633,633,633,633,633,633,633,633,633,633,631,631,630,630,630,630,628,628,628,628,628,628,628,628,628,628,628,628,628,628,628,628,628,628,628,628,623,615,593,579,544,522,484,471,463,459,457,457,456,453,438,418,405,379,378,378,378,372,363,333,266,157,104,98,94,89,84,72,69,67,67,65,64,64,64,64,64,64,64],"timestamp_mouse":[9,30,51,69,91,110,131,151,169,191,211,229,251,270,291,310,329,351,371,390,411,429,450,470,490,511,530,549,570,591,611,631,651,670,689,710,731,750,770,791,810,833,851,871,890,909,929,949,970,990,1010,1031,1051,1070,1090,1110,1130,1150,1170,1190,1209,1230,1251,1271,1290,1310,1329,1350,1370,1391,1411,1431,1449,1469,1490,1511,1530,1550,1570,1591,1611,1630,1650,1669,1690,1710,1730,1749,1770,1790,1809,1831,1849,1870],"xSR":741.5,"ySR":573.95,"xT1":424.9,"yT1":0,"xT2":1058.1,"yT2":0,"toosoon":0,"cond_shown":"Congruent","ratio_trial":100,"L_num":11,"L_den":22,"R_num":4,"R_den":10,"correct_side":1,"subjID":"valeriamartinezbuitrago20","gender":"1","school":"4","age":"9años"},{"start_time":1552054173400,"click_time":1552054175666,"finger_time":1552054175005,"fix_duration":1353.4939561491917,"trial":9,"RT":1605,"MT":661,"sideResp":1,"stimulus":[],"xmouse":[799,799,799,799,799,799,799,799,799,799,799,799,799,799,799,799,799,799,799,799,799,799,799,799,799,799,799,799,799,799,799,799,799,799,799,799,799,799,799,799,799,799,799,799,799,799,799,799,799,799,799,799,799,799,799,799,799,799,799,799,799,799,799,799,799,799,799,799,799,799,799,799,799,799,799,799,799,799,794,785,771,764,764,764,760,745,741,692,678,658,637,585,544,438,403,346,310,288,287,286,286,286,286,286,286,288,293,311,326,342,352,368,415,429],"ymouse":[598,598,598,598,598,598,598,598,598,598,598,598,598,598,598,598,598,598,598,598,598,598,598,598,598,598,598,598,598,598,598,598,598,598,598,598,598,598,598,598,598,598,598,598,598,598,598,598,598,598,598,598,598,598,598,598,598,598,598,598,598,598,598,598,598,598,598,598,598,598,598,598,598,598,598,598,598,598,621,651,686,690,690,678,649,597,590,496,470,445,412,350,298,209,181,129,95,67,63,62,60,58,55,53,52,51,49,48,48,48,48,48,50,50],"timestamp_mouse":[5,24,44,65,86,106,125,144,164,185,205,224,246,265,285,305,326,344,365,385,406,424,445,465,485,504,525,546,565,584,606,626,645,665,685,706,726,746,766,786,804,825,846,866,885,906,926,945,964,986,1006,1024,1044,1066,1086,1106,1125,1145,1166,1185,1204,1224,1244,1265,1286,1306,1325,1345,1366,1386,1405,1426,1444,1465,1485,1506,1524,1546,1566,1585,1605,1626,1644,1664,1684,1705,1725,1746,1765,1785,1805,1825,1845,1864,1885,1904,1925,1945,1965,1986,2005,2026,2045,2065,2085,2105,2125,2146,2165,2185,2205,2224,2245,2265],"xSR":741.5,"ySR":573.95,"xT1":424.9,"yT1":0,"xT2":1058.1,"yT2":0,"toosoon":0,"cond_shown":"Congruent","ratio_trial":300,"L_num":2,"L_den":20,"R_num":10,"R_den":25,"correct_side":2,"subjID":"valeriamartinezbuitrago20","gender":"1","school":"4","age":"9años"},{"start_time":1552054178776,"click_time":1552054180465,"finger_time":1552054179965,"fix_duration":250,"trial":10,"RT":1189,"MT":500,"sideResp":1,"stimulus":[],"xmouse":[807,807,807,807,807,807,807,807,807,807,807,807,807,807,807,807,807,807,807,807,807,807,807,807,807,807,807,807,807,807,807,807,807,807,807,807,807,807,807,807,807,807,807,807,807,807,807,807,807,807,807,807,807,807,807,807,807,805,782,730,677,639,632,607,592,572,554,492,445,443,440,440,440,440,440,440,440,440,440,440,440,441,445,450,454],"ymouse":[633,633,633,633,633,633,633,633,633,633,633,633,633,633,633,633,633,633,633,633,633,633,633,633,633,633,633,633,633,633,633,633,633,633,633,633,633,633,633,633,633,633,633,633,633,633,633,633,633,633,633,633,633,633,633,633,629,625,582,503,427,373,364,309,272,244,222,167,132,128,125,125,125,125,125,125,125,124,124,124,124,123,117,101,90],"timestamp_mouse":[9,29,48,68,88,108,128,150,170,190,208,229,250,270,288,309,330,350,369,389,408,430,449,469,489,510,529,549,569,589,608,629,649,669,689,709,730,749,769,789,809,830,848,869,889,910,928,950,969,989,1009,1030,1049,1068,1088,1109,1129,1150,1168,1189,1208,1228,1249,1268,1289,1309,1330,1350,1368,1388,1409,1429,1448,1469,1488,1509,1529,1549,1570,1589,1610,1629,1649,1668,1689],"xSR":741.5,"ySR":573.95,"xT1":424.9,"yT1":0,"xT2":1058.1,"yT2":0,"toosoon":0,"cond_shown":"Incongruent","ratio_trial":200,"L_num":7,"L_den":10,"R_num":14,"R_den":28,"correct_side":1,"subjID":"valeriamartinezbuitrago20","gender":"1","school":"4","age":"9años"},{"start_time":1552054182100,"click_time":1552054183085,"finger_time":1552054182926,"fix_duration":294.124923056331,"trial":11,"RT":826,"MT":159,"sideResp":2,"stimulus":[],"xmouse":[791,791,791,791,791,791,791,791,791,791,791,791,791,791,791,791,791,791,791,791,791,791,791,791,791,791,791,791,791,791,791,791,791,791,791,791,791,791,791,791,802,813,904,960,1000,1013,1025,1033,1052,1061],"ymouse":[591,591,592,592,592,593,593,593,593,593,593,593,593,593,593,593,593,593,593,593,593,593,593,593,593,593,593,593,593,593,593,593,593,593,593,593,593,593,593,593,581,570,438,327,262,240,206,163,95,77],"timestamp_mouse":[6,25,45,64,85,106,126,144,164,186,206,225,245,264,284,305,324,345,366,385,404,424,445,465,485,505,524,546,565,586,605,626,646,665,685,705,725,746,766,785,805,826,845,865,886,906,925,946,965,985],"xSR":741.5,"ySR":573.95,"xT1":424.9,"yT1":0,"xT2":1058.1,"yT2":0,"toosoon":0,"cond_shown":"Congruent","ratio_trial":300,"L_num":5,"L_den":25,"R_num":7,"R_den":14,"correct_side":2,"subjID":"valeriamartinezbuitrago20","gender":"1","school":"4","age":"9años"},{"start_time":1552054184936,"click_time":1552054187326,"finger_time":1552054186165,"fix_duration":550.0548032902233,"trial":12,"RT":1229,"MT":1161,"sideResp":2,"stimulus":[],"xmouse":[811,811,811,811,811,811,811,811,811,811,811,811,811,811,811,811,811,811,811,811,812,812,813,813,813,813,813,813,813,813,814,814,814,815,815,815,816,816,816,816,816,816,816,816,816,816,816,816,816,816,816,816,816,816,816,816,816,818,820,822,828,870,880,895,908,917,956,1008,1079,1134,1167,1188,1188,1188,1188,1188,1190,1190,1189,1184,1181,1181,1181,1181,1180,1177,1174,1173,1173,1173,1173,1173,1173,1173,1173,1173,1173,1173,1173,1172,1171,1170,1162,1160,1160,1160,1160,1160,1160,1160,1160,1160,1160,1160,1160,1160,1160,1160,1160,1157],"ymouse":[592,592,592,592,592,592,592,592,592,592,592,592,592,592,592,592,592,592,592,592,592,592,592,592,592,591,591,591,591,591,591,590,590,589,589,589,588,588,588,588,588,588,588,588,588,588,588,588,588,588,588,588,588,588,588,588,588,587,585,584,578,545,535,521,510,498,444,346,210,119,67,35,35,35,35,35,19,0,0,0,0,0,0,0,0,2,5,7,7,7,7,7,7,7,7,7,7,7,7,8,8,9,11,11,11,11,11,11,11,11,11,12,12,12,12,12,12,12,12,12],"timestamp_mouse":[10,28,50,70,88,108,130,149,168,189,209,230,249,269,289,308,328,350,369,388,410,430,450,470,489,510,530,549,569,588,609,629,649,670,688,708,730,748,769,790,808,828,850,868,888,908,929,950,970,989,1009,1030,1049,1068,1090,1110,1129,1149,1169,1189,1210,1229,1249,1270,1289,1310,1330,1349,1370,1390,1410,1429,1449,1470,1489,1509,1529,1549,1569,1589,1609,1630,1650,1670,1689,1709,1729,1750,1769,1789,1809,1828,1849,1870,1889,1909,1930,1949,1969,1989,2009,2029,2049,2069,2088,2108,2128,2149,2170,2189,2210,2229,2249,2269,2288,2309,2330,2349,2369,2390],"xSR":741.5,"ySR":573.95,"xT1":424.9,"yT1":0,"xT2":1058.1,"yT2":0,"toosoon":0,"cond_shown":"Incongruent","ratio_trial":300,"L_num":4,"L_den":20,"R_num":2,"R_den":4,"correct_side":2,"subjID":"valeriamartinezbuitrago20","gender":"1","school":"4","age":"9años"},{"start_time":1552054191076,"click_time":1552054192984,"finger_time":1552054192424,"fix_duration":250,"trial":13,"RT":1348,"MT":560,"sideResp":1,"stimulus":[],"xmouse":[805,805,805,805,805,805,805,805,805,805,805,805,805,805,805,805,805,805,805,805,805,805,805,805,805,805,805,805,805,805,805,805,805,805,805,805,805,805,805,805,805,805,805,805,805,805,805,805,805,805,805,805,805,805,805,805,805,805,805,805,805,805,805,805,803,797,790,778,761,732,692,678,669,663,663,663,660,657,656,652,639,635,629,618,605,577,568,558,556,553,550,548,541,532,526,523],"ymouse":[585,585,585,585,585,585,585,585,585,585,585,585,585,585,585,585,585,585,585,585,585,585,585,585,585,585,585,585,585,585,585,585,585,585,585,585,585,585,585,585,585,585,585,585,585,585,585,585,585,585,585,585,585,585,585,585,585,585,585,585,585,585,585,585,585,583,578,563,537,468,371,346,326,312,311,311,306,300,298,294,278,275,265,245,217,152,135,118,112,107,97,94,87,81,76,72],"timestamp_mouse":[14,29,49,70,90,110,129,149,168,189,210,229,249,269,289,309,330,349,369,390,409,430,449,470,489,509,529,550,568,589,608,629,650,668,688,710,729,748,769,790,809,830,849,869,889,910,930,950,968,988,1009,1030,1048,1069,1090,1109,1129,1149,1170,1188,1210,1229,1249,1269,1290,1309,1330,1348,1370,1389,1408,1429,1450,1470,1490,1509,1528,1548,1569,1589,1609,1629,1650,1669,1689,1709,1729,1749,1769,1790,1808,1829,1850,1870,1889,1908],"xSR":741.5,"ySR":573.95,"xT1":424.9,"yT1":0,"xT2":1058.1,"yT2":0,"toosoon":0,"cond_shown":"Congruent","ratio_trial":300,"L_num":20,"L_den":25,"R_num":14,"R_den":28,"correct_side":1,"subjID":"valeriamartinezbuitrago20","gender":"1","school":"4","age":"9años"},{"start_time":1552054195403,"click_time":1552054197184,"finger_time":1552054196966,"fix_duration":657.5838555282207,"trial":14,"RT":1563,"MT":218,"sideResp":1,"stimulus":[],"xmouse":[808,808,808,808,808,808,808,808,808,808,808,808,808,808,808,808,808,808,808,808,808,808,808,808,808,808,808,808,808,808,808,808,808,808,808,808,808,808,807,807,807,806,806,806,806,806,806,806,806,806,806,805,805,805,805,805,805,805,805,805,805,805,805,805,805,805,805,805,805,805,805,805,805,805,805,805,800,795,786,767,689,641,635,617,602,596,588,571,549,521],"ymouse":[600,600,600,600,600,600,600,600,600,600,600,600,600,600,600,600,600,600,600,600,600,600,600,600,600,600,600,600,600,600,600,600,600,600,600,600,600,600,599,599,597,596,594,594,594,593,593,593,593,593,593,592,592,592,592,592,592,592,592,592,592,592,592,592,592,592,592,592,592,592,592,592,592,592,592,592,582,574,555,512,344,274,267,249,235,227,214,179,140,98],"timestamp_mouse":[3,21,41,63,82,102,123,142,161,183,203,222,243,261,281,302,323,341,361,383,403,421,443,462,483,502,521,543,562,582,602,623,642,662,681,702,723,742,763,781,802,822,841,863,883,902,922,942,962,982,1002,1022,1041,1062,1081,1101,1122,1142,1163,1183,1202,1223,1242,1263,1283,1301,1322,1343,1363,1382,1401,1422,1443,1463,1483,1502,1523,1543,1563,1582,1603,1621,1641,1662,1683,1702,1723,1742,1761,1781],"xSR":741.5,"ySR":573.95,"xT1":424.9,"yT1":0,"xT2":1058.1,"yT2":0,"toosoon":0,"cond_shown":"Congruent","ratio_trial":100,"L_num":2,"L_den":5,"R_num":11,"R_den":22,"correct_side":2,"subjID":"valeriamartinezbuitrago20","gender":"1","school":"4","age":"9años"},{"start_time":1552054200035,"click_time":1552054202486,"finger_time":1552054202045,"fix_duration":1209.5412457592124,"trial":15,"RT":2010,"MT":441,"sideResp":1,"stimulus":[],"xmouse":[786,786,787,787,788,788,788,788,788,788,788,788,788,788,788,788,788,788,788,788,788,788,788,788,788,788,788,788,788,788,788,788,788,788,788,788,788,788,788,788,788,788,788,788,788,788,788,788,788,788,788,788,788,788,788,788,788,788,788,788,788,788,788,788,788,788,788,788,788,788,788,788,788,788,788,788,788,788,788,788,788,788,788,788,788,788,788,788,788,788,789,789,788,787,785,785,784,782,782,781,781,775,768,757,732,691,650,609,581,564,564,565,566,560,554,548,544,543,543,542,539,530,522],"ymouse":[601,600,600,600,599,599,599,599,599,599,599,599,599,599,599,599,599,599,599,599,599,599,599,599,599,599,599,599,599,599,599,599,599,599,599,599,599,599,599,599,599,599,599,599,599,599,599,599,599,599,599,599,599,599,599,599,599,599,599,599,599,599,599,599,599,599,599,599,599,599,599,599,599,599,599,599,599,599,599,599,599,599,599,599,599,599,599,599,599,599,598,598,595,595,593,590,587,581,581,576,571,560,546,527,482,384,292,218,165,119,114,109,103,85,74,66,61,60,60,59,59,58,56],"timestamp_mouse":[11,31,51,71,90,110,131,151,170,190,211,231,249,271,290,310,331,351,370,391,410,431,449,470,490,511,530,551,570,591,609,630,651,671,691,711,730,751,771,790,810,831,851,870,890,911,931,951,970,989,1010,1030,1050,1071,1091,1110,1130,1151,1171,1189,1209,1230,1250,1271,1289,1309,1330,1350,1371,1390,1410,1429,1450,1471,1490,1509,1529,1551,1569,1591,1609,1630,1650,1669,1689,1710,1731,1751,1770,1790,1811,1831,1851,1870,1890,1910,1930,1951,1971,1989,2010,2030,2051,2070,2091,2109,2130,2150,2170,2190,2209,2231,2249,2270,2290,2311,2330,2350,2371,2390,2411,2430,2451],"xSR":741.5,"ySR":573.95,"xT1":424.9,"yT1":0,"xT2":1058.1,"yT2":0,"toosoon":0,"cond_shown":"Congruent","ratio_trial":200,"L_num":7,"L_den":21,"R_num":2,"R_den":15,"correct_side":1,"subjID":"valeriamartinezbuitrago20","gender":"1","school":"4","age":"9años"},{"start_time":1552054204963,"click_time":1552054205985,"finger_time":1552054205725,"fix_duration":1077.529662473203,"trial":16,"RT":762,"MT":260,"sideResp":1,"stimulus":[],"xmouse":[808,808,808,808,808,808,808,808,808,808,808,808,808,808,808,808,808,808,808,808,808,808,808,808,808,808,808,808,808,808,808,808,808,808,808,809,809,807,790,776,760,741,718,666,621,585,567,554,529,529,525,519],"ymouse":[602,602,602,602,602,602,602,602,602,602,602,602,602,602,602,602,602,602,602,602,602,602,602,602,602,602,602,602,602,602,602,602,602,602,602,601,601,595,568,548,523,482,420,325,262,222,199,178,130,129,113,92],"timestamp_mouse":[5,21,43,63,82,102,121,141,163,181,201,222,242,263,282,303,322,341,363,382,403,421,441,463,482,502,523,542,563,582,602,621,642,662,681,703,722,741,762,782,802,822,842,863,882,901,923,941,963,982,1002,1022],"xSR":741.5,"ySR":573.95,"xT1":424.9,"yT1":0,"xT2":1058.1,"yT2":0,"toosoon":0,"cond_shown":"Congruent","ratio_trial":300,"L_num":20,"L_den":25,"R_num":8,"R_den":16,"correct_side":1,"subjID":"valeriamartinezbuitrago20","gender":"1","school":"4","age":"9años"},{"start_time":1552054207956,"click_time":1552054210586,"finger_time":1552054210185,"fix_duration":250,"trial":17,"RT":2229,"MT":401,"sideResp":1,"stimulus":[],"xmouse":[768,768,768,768,768,768,768,768,768,768,768,768,768,768,768,768,768,768,768,768,768,768,768,768,768,768,768,768,768,768,768,768,768,768,768,768,768,768,768,768,768,768,768,768,768,768,768,768,768,768,768,768,768,768,768,768,768,768,768,768,768,768,768,768,768,768,768,768,768,768,768,769,770,774,774,775,777,777,777,777,777,777,777,777,777,777,777,777,777,777,777,777,777,777,777,777,777,777,777,777,777,777,777,777,777,777,777,777,778,778,778,775,772,767,758,737,703,672,652,643,637,621,605,601,547,523,499,490,480,476,471,467],"ymouse":[603,603,603,603,603,603,603,603,603,603,603,603,603,603,603,603,603,603,603,603,603,603,603,603,603,603,603,603,603,603,603,603,603,603,603,603,603,603,603,603,603,603,603,603,603,603,603,603,603,603,603,603,603,603,603,603,603,603,603,603,603,603,603,603,603,603,603,603,603,603,603,603,602,600,599,598,598,597,597,596,596,596,596,596,596,596,596,596,596,596,596,596,596,596,596,596,596,596,596,596,596,596,596,596,596,596,596,596,596,592,584,570,551,536,505,464,408,365,332,315,301,280,260,254,202,181,158,149,128,116,102,89],"timestamp_mouse":[10,29,50,70,89,110,129,150,170,189,210,228,249,270,289,309,330,348,369,389,410,428,450,470,489,509,530,549,569,590,610,629,648,670,689,710,728,749,769,790,808,830,848,869,890,910,928,950,969,989,1010,1028,1050,1069,1090,1108,1129,1150,1169,1190,1209,1229,1250,1270,1288,1308,1330,1349,1369,1390,1408,1428,1449,1468,1489,1509,1529,1550,1569,1589,1609,1629,1649,1669,1688,1708,1728,1749,1769,1790,1808,1830,1850,1869,1890,1910,1929,1950,1970,1989,2009,2030,2048,2068,2088,2109,2129,2150,2169,2189,2209,2229,2249,2269,2289,2309,2329,2349,2368,2389,2410,2429,2449,2468,2489,2509,2530,2550,2568,2589,2609,2630],"xSR":741.5,"ySR":573.95,"xT1":424.9,"yT1":0,"xT2":1058.1,"yT2":0,"toosoon":0,"cond_shown":"Congruent","ratio_trial":200,"L_num":3,"L_den":10,"R_num":14,"R_den":28,"correct_side":2,"subjID":"valeriamartinezbuitrago20","gender":"1","school":"4","age":"9años"},{"start_time":1552054212167,"click_time":1552054216346,"finger_time":1552054215264,"fix_duration":580.2111219627701,"trial":18,"RT":3097,"MT":1082,"sideResp":1,"stimulus":[],"xmouse":[816,816,816,816,816,816,816,816,816,816,816,816,816,816,816,816,816,816,816,816,816,816,816,816,816,816,816,816,816,816,816,816,816,816,816,816,816,816,816,816,816,816,816,816,816,816,816,815,815,815,815,815,815,815,815,815,814,814,814,814,814,814,814,814,814,814,814,814,814,814,814,814,814,814,814,814,814,814,814,814,814,814,814,814,814,814,814,814,814,814,814,814,814,814,814,814,814,814,814,814,814,814,814,814,813,813,813,813,812,812,812,812,812,812,812,812,812,812,812,812,812,812,812,812,812,812,812,813,813,814,815,817,817,821,824,825,827,829,829,830,830,830,830,831,831,831,831,831,831,831,831,831,831,828,826,821,814,806,791,787,774,774,765,714,698,682,663,650,621,608,597,590,582,568,563,561,560,560,559,559,559,559,559,559,559,559,559,559,559,559,559,559,559,553,549,547,545,544,542,541,540,538,534,533,532,531,528,525,521],"ymouse":[618,618,618,618,618,618,618,618,618,618,618,618,618,618,618,618,618,618,618,618,618,618,618,618,618,618,618,618,618,618,618,618,618,618,618,618,618,618,618,618,618,618,618,618,618,618,618,618,618,618,618,618,618,618,618,618,618,618,618,618,618,618,618,618,618,618,618,618,618,618,618,618,618,618,618,618,618,618,618,618,618,618,618,618,618,618,618,618,618,618,618,618,618,618,618,618,618,618,618,618,618,618,618,618,618,618,617,614,610,608,608,607,607,607,607,607,607,607,607,607,607,607,607,607,607,605,603,601,601,600,599,598,597,596,594,594,593,592,592,591,591,591,591,591,591,591,591,591,591,591,591,589,588,577,561,536,482,430,366,350,311,311,294,210,189,170,151,138,115,106,99,94,87,79,76,74,74,74,73,73,73,73,73,73,73,73,73,73,73,73,73,73,73,74,74,75,76,76,76,76,76,76,76,76,76,76,76,76,76],"timestamp_mouse":[23,38,58,78,98,118,138,159,178,199,218,238,257,277,297,317,338,359,378,399,418,438,457,477,497,518,538,557,577,597,618,637,659,679,698,718,738,758,779,798,818,838,858,878,897,919,939,959,977,999,1017,1037,1058,1078,1098,1117,1137,1158,1178,1197,1218,1239,1257,1278,1298,1318,1338,1357,1377,1397,1417,1437,1458,1478,1499,1519,1538,1558,1578,1598,1619,1638,1659,1678,1699,1719,1739,1758,1778,1798,1818,1839,1858,1877,1897,1919,1938,1958,1978,1998,2019,2037,2057,2077,2099,2118,2138,2158,2179,2197,2218,2237,2259,2279,2298,2317,2337,2358,2378,2398,2418,2438,2458,2478,2498,2519,2537,2558,2577,2598,2618,2638,2657,2677,2699,2718,2738,2759,2778,2797,2818,2838,2859,2878,2897,2919,2939,2958,2978,2999,3017,3038,3058,3079,3097,3118,3138,3158,3178,3198,3217,3238,3258,3279,3298,3317,3338,3359,3377,3398,3417,3439,3457,3478,3497,3519,3539,3559,3579,3598,3618,3639,3657,3678,3697,3719,3738,3759,3779,3797,3817,3839,3857,3879,3898,3918,3938,3957,3979,3998,4017,4038,4058,4078,4098,4118,4138,4158,4179],"xSR":741.5,"ySR":573.95,"xT1":424.9,"yT1":0,"xT2":1058.1,"yT2":0,"toosoon":0,"cond_shown":"Congruent","ratio_trial":100,"L_num":4,"L_den":10,"R_num":15,"R_den":30,"correct_side":2,"subjID":"valeriamartinezbuitrago20","gender":"1","school":"4","age":"9años"},{"start_time":1552054218500,"click_time":1552054220505,"finger_time":1552054219926,"fix_duration":1074.0544387096784,"trial":19,"RT":1426,"MT":579,"sideResp":2,"stimulus":[],"xmouse":[806,806,806,806,806,806,806,806,806,806,806,806,806,805,805,804,803,803,803,802,802,802,802,802,802,802,802,802,802,802,802,802,802,802,802,802,802,802,802,802,802,802,802,802,802,802,802,802,802,802,802,802,802,802,802,802,802,802,802,802,802,802,802,802,802,804,805,816,822,831,837,847,880,893,896,896,897,903,906,912,922,936,963,967,969,976,983,989,993,997,1001,1003,1006,1007,1010,1013,1020,1034,1044,1050,1061],"ymouse":[644,644,644,644,644,644,644,644,644,644,644,644,644,643,643,642,642,641,641,640,640,640,640,640,640,640,640,640,640,640,640,640,640,640,640,640,640,640,640,640,640,640,640,640,640,640,640,640,640,640,640,640,640,640,640,640,640,640,640,640,640,640,640,638,637,635,634,627,621,611,595,568,429,360,331,312,302,287,283,280,273,265,240,233,229,216,201,192,188,184,180,177,170,169,164,156,141,115,100,89,73],"timestamp_mouse":[5,25,45,66,85,106,127,146,165,186,206,225,246,267,285,306,326,346,367,387,406,426,445,467,487,506,526,546,567,586,605,626,646,665,686,706,726,747,767,786,805,826,845,867,886,906,927,946,966,985,1006,1025,1045,1065,1087,1106,1126,1145,1167,1187,1207,1226,1246,1267,1287,1306,1327,1346,1367,1385,1407,1426,1445,1465,1487,1507,1526,1546,1565,1586,1606,1626,1645,1666,1687,1707,1725,1745,1766,1786,1807,1826,1845,1865,1886,1905,1927,1945,1966,1987,2005],"xSR":741.5,"ySR":573.95,"xT1":424.9,"yT1":0,"xT2":1058.1,"yT2":0,"toosoon":0,"cond_shown":"Incongruent","ratio_trial":200,"L_num":7,"L_den":15,"R_num":4,"R_den":6,"correct_side":2,"subjID":"valeriamartinezbuitrago20","gender":"1","school":"4","age":"9años"},{"start_time":1552054223099,"click_time":1552054224266,"finger_time":1552054223886,"fix_duration":1232.0755762422166,"trial":20,"RT":787,"MT":380,"sideResp":2,"stimulus":[],"xmouse":[788,788,788,788,788,788,788,788,788,788,788,788,788,789,789,789,789,789,789,789,789,789,789,789,789,789,789,789,789,789,789,789,789,789,789,789,790,791,793,798,805,816,892,912,918,931,947,968,972,980,990,997,1004,1020,1028,1032,1038,1048,1080],"ymouse":[590,590,590,590,590,590,590,590,590,590,590,590,590,589,589,589,589,589,589,589,589,588,588,588,588,588,588,588,588,588,588,588,588,588,588,588,587,586,580,571,559,535,324,267,246,202,162,124,117,105,89,76,65,44,34,29,27,23,14],"timestamp_mouse":[7,27,46,66,86,107,127,146,166,187,207,226,248,267,286,306,328,348,367,386,408,427,447,466,486,506,526,547,567,587,607,627,647,666,686,708,727,747,767,787,806,827,847,867,886,907,928,947,966,988,1007,1027,1047,1068,1087,1107,1126,1147,1167],"xSR":741.5,"ySR":573.95,"xT1":424.9,"yT1":0,"xT2":1058.1,"yT2":0,"toosoon":0,"cond_shown":"Incongruent","ratio_trial":300,"L_num":4,"L_den":20,"R_num":2,"R_den":4,"correct_side":2,"subjID":"valeriamartinezbuitrago20","gender":"1","school":"4","age":"9años"},{"start_time":1552054226703,"click_time":1552054232065,"finger_time":1552054231465,"fix_duration":895.8889231522006,"trial":21,"RT":4762,"MT":600,"sideResp":1,"stimulus":[],"xmouse":[785,785,785,785,785,785,785,785,785,785,785,785,785,785,785,785,785,785,785,785,785,785,785,785,785,785,785,785,785,785,785,785,785,785,785,785,785,785,785,785,785,785,785,785,785,785,785,785,785,785,785,785,785,785,785,785,785,785,785,785,785,785,785,785,785,785,785,785,785,785,785,785,785,785,785,785,785,785,785,785,785,785,785,785,785,785,785,785,785,785,785,785,785,785,785,785,785,785,785,785,785,785,785,785,785,785,785,785,785,785,785,785,785,785,785,785,785,785,785,785,785,785,785,785,785,785,785,785,785,785,785,785,785,785,785,785,785,785,785,785,785,785,785,785,785,785,785,785,785,785,785,785,785,785,785,785,785,785,785,785,785,785,785,785,785,785,785,785,785,785,785,785,785,785,785,785,785,785,785,785,785,785,785,785,785,785,785,785,785,785,785,785,785,785,785,785,785,785,785,785,785,785,785,785,785,785,785,785,785,785,785,785,785,785,785,785,785,785,785,785,785,785,785,785,785,785,785,785,785,785,785,785,785,785,785,785,785,785,785,785,785,785,782,779,769,754,736,720,713,710,709,709,709,705,697,692,687,684,679,676,674,672,670,657,641,609,571,540,494],"ymouse":[583,583,583,583,583,583,583,583,583,583,583,583,583,583,583,583,583,583,583,583,583,583,583,583,583,583,583,583,583,583,583,583,583,583,583,583,583,583,583,583,583,583,583,583,583,583,583,583,583,583,583,583,583,583,583,583,583,583,583,583,583,583,583,583,583,583,583,583,583,583,583,583,583,583,583,583,583,583,583,583,583,583,583,583,583,583,583,583,583,583,583,583,583,583,583,583,583,583,583,583,583,583,583,583,583,583,583,583,583,583,583,583,583,583,583,583,583,583,583,583,583,583,583,583,583,583,583,583,583,583,583,583,583,583,583,583,583,583,583,583,583,583,583,583,583,583,583,583,583,583,583,583,583,583,583,583,583,583,583,583,583,583,583,583,583,583,583,583,583,583,583,583,583,583,583,583,583,583,583,583,583,583,583,583,583,583,583,583,583,583,583,583,583,583,583,583,583,583,583,583,583,583,583,583,583,583,583,583,583,583,583,583,583,583,583,583,583,583,583,583,583,583,583,583,583,583,583,583,583,583,583,583,583,582,582,580,578,576,571,568,562,561,554,544,524,495,474,455,445,439,434,430,430,416,403,395,389,385,378,374,371,366,361,331,302,249,192,150,86],"timestamp_mouse":[4,22,43,63,83,103,122,142,165,184,202,223,242,263,283,303,322,342,362,382,403,423,443,463,482,502,522,543,564,583,602,622,643,663,683,703,723,742,762,782,803,824,843,862,884,904,924,943,963,982,1002,1022,1044,1063,1084,1102,1123,1142,1162,1183,1204,1223,1243,1263,1283,1303,1322,1343,1364,1383,1402,1424,1443,1464,1484,1502,1523,1543,1564,1582,1603,1622,1644,1664,1682,1703,1723,1744,1764,1782,1803,1822,1843,1863,1883,1903,1924,1944,1963,1982,2002,2024,2044,2062,2082,2103,2123,2143,2163,2183,2203,2222,2244,2263,2282,2304,2324,2343,2363,2382,2402,2424,2442,2463,2482,2504,2523,2543,2564,2582,2603,2624,2644,2664,2683,2702,2723,2743,2763,2783,2802,2822,2843,2864,2883,2904,2922,2943,2963,2983,3004,3024,3042,3062,3084,3102,3123,3144,3162,3184,3204,3224,3242,3262,3283,3303,3324,3344,3364,3383,3403,3424,3442,3463,3483,3503,3524,3542,3563,3583,3604,3623,3643,3664,3683,3704,3722,3742,3763,3783,3802,3822,3843,3864,3882,3903,3923,3943,3964,3982,4003,4023,4043,4064,4082,4103,4122,4143,4164,4183,4202,4223,4244,4264,4283,4303,4322,4344,4364,4383,4402,4423,4442,4462,4483,4504,4522,4544,4564,4584,4602,4623,4644,4663,4683,4703,4722,4743,4762,4783,4803,4823,4843,4863,4882,4904,4923,4943,4962,4982,5003,5022,5042,5062,5083,5103,5123,5143,5162,5182,5202,5223,5243,5262,5283,5303,5323,5343,5362],"xSR":741.5,"ySR":573.95,"xT1":424.9,"yT1":0,"xT2":1058.1,"yT2":0,"toosoon":0,"cond_shown":"Incongruent","ratio_trial":200,"L_num":4,"L_den":30,"R_num":1,"R_den":3,"correct_side":2,"subjID":"valeriamartinezbuitrago20","gender":"1","school":"4","age":"9años"},{"start_time":1552054237169,"click_time":1552054239706,"finger_time":1552054239186,"fix_duration":1142.9844873779005,"trial":22,"RT":2017,"MT":520,"sideResp":1,"stimulus":[],"xmouse":[801,801,801,801,801,801,801,801,801,801,801,801,801,801,801,801,801,801,801,801,801,801,801,801,801,801,801,801,801,801,801,801,801,801,801,801,801,801,801,801,801,801,801,801,801,801,801,801,801,801,801,801,801,801,801,801,801,801,801,801,801,801,801,801,801,801,801,801,801,801,801,801,801,801,801,801,801,801,801,801,801,801,801,801,801,801,801,801,801,801,801,801,801,798,797,795,791,788,783,781,780,779,779,779,779,779,774,772,765,749,735,704,674,661,653,648,643,637,626,610,593,566,548,534,517,497,458],"ymouse":[667,667,667,667,667,667,667,667,667,667,667,667,667,667,667,667,667,667,667,667,667,667,667,667,667,667,667,667,667,667,667,667,667,667,667,667,667,667,667,667,667,667,667,667,667,667,667,667,667,667,667,667,667,667,667,667,667,667,667,667,667,667,667,667,667,667,667,667,667,667,667,667,667,667,667,667,667,667,667,667,667,667,667,667,667,667,667,667,667,667,667,667,666,661,652,646,638,624,597,585,573,564,563,563,563,563,544,520,492,470,458,438,417,407,398,390,379,373,365,352,336,293,261,229,191,143,67],"timestamp_mouse":[16,37,56,77,97,117,136,156,177,198,216,236,257,277,296,317,337,357,377,396,416,437,458,476,496,517,538,557,576,596,617,636,656,678,697,718,736,757,776,798,816,837,858,877,897,918,936,957,977,998,1017,1036,1057,1077,1098,1116,1136,1156,1177,1197,1218,1236,1257,1276,1297,1318,1337,1357,1377,1397,1416,1437,1458,1478,1498,1516,1537,1557,1577,1597,1617,1637,1658,1678,1698,1717,1737,1757,1776,1797,1817,1837,1856,1877,1898,1917,1936,1958,1977,1997,2017,2037,2058,2077,2096,2116,2137,2157,2177,2197,2218,2237,2257,2276,2296,2317,2337,2357,2376,2397,2417,2437,2458,2477,2496,2517,2537],"xSR":741.5,"ySR":573.95,"xT1":424.9,"yT1":0,"xT2":1058.1,"yT2":0,"toosoon":0,"cond_shown":"Congruent","ratio_trial":100,"L_num":6,"L_den":20,"R_num":5,"R_den":25,"correct_side":1,"subjID":"valeriamartinezbuitrago20","gender":"1","school":"4","age":"9años"},{"start_time":1552054241942,"click_time":1552054243607,"finger_time":1552054243005,"fix_duration":575.2634604658589,"trial":23,"RT":1063,"MT":602,"sideResp":2,"stimulus":[],"xmouse":[816,816,816,816,816,816,816,818,820,820,820,820,820,820,820,820,820,820,820,820,820,820,820,820,820,820,820,820,820,820,820,820,820,820,820,820,820,820,820,820,820,820,820,820,820,820,820,820,820,820,820,821,824,898,936,959,967,970,971,973,975,979,991,1002,1007,1007,1009,1023,1043,1064,1090,1112,1134,1157,1167,1174,1178,1180,1180,1180,1177,1169,1163,1130],"ymouse":[605,604,604,604,604,604,604,604,604,604,604,604,604,604,604,604,604,604,604,604,604,604,604,604,604,604,604,604,604,604,604,604,604,604,604,604,604,604,604,604,604,604,604,604,604,604,604,604,604,604,604,605,605,609,609,609,609,609,607,602,594,579,542,487,456,454,449,405,359,324,284,253,225,199,182,165,153,138,129,117,112,104,101,83],"timestamp_mouse":[4,24,45,65,84,103,125,144,163,183,204,223,245,263,284,303,324,344,363,383,403,424,444,463,484,505,523,544,565,585,603,623,643,663,684,704,724,745,764,784,804,824,844,863,885,903,923,943,964,983,1003,1024,1045,1063,1085,1105,1124,1144,1163,1184,1203,1224,1244,1264,1284,1304,1324,1344,1364,1383,1404,1423,1444,1465,1485,1504,1524,1544,1564,1584,1604,1625,1644,1665],"xSR":741.5,"ySR":573.95,"xT1":424.9,"yT1":0,"xT2":1058.1,"yT2":0,"toosoon":0,"cond_shown":"Incongruent","ratio_trial":200,"L_num":3,"L_den":10,"R_num":1,"R_den":2,"correct_side":2,"subjID":"valeriamartinezbuitrago20","gender":"1","school":"4","age":"9años"},{"start_time":1552054245715,"click_time":1552054247426,"finger_time":1552054246847,"fix_duration":409.91447455240916,"trial":24,"RT":1132,"MT":579,"sideResp":2,"stimulus":[],"xmouse":[825,825,825,825,825,825,825,825,825,825,825,825,825,825,825,825,825,825,825,825,825,825,825,825,825,825,817,805,796,795,797,803,807,807,808,806,803,801,799,802,804,804,804,804,804,804,804,804,805,805,794,792,792,794,807,838,848,856,862,863,863,870,886,901,920,921,921,921,921,926,939,942,942,942,942,943,944,947,950,957,981,995,1020,1050,1109,1145],"ymouse":[622,621,621,621,621,621,621,620,620,620,620,620,620,620,620,620,620,620,620,620,620,620,620,620,620,620,620,620,620,620,623,627,628,628,629,633,636,644,652,660,661,661,661,661,661,661,661,661,658,654,631,626,625,622,612,587,572,559,547,534,527,512,496,482,463,462,462,462,462,456,444,442,442,442,442,436,428,417,407,395,360,340,300,250,146,75],"timestamp_mouse":[14,31,50,71,91,110,131,150,171,192,212,231,251,271,291,311,332,350,371,392,411,430,451,470,492,511,531,551,570,591,611,632,651,670,691,710,731,752,772,790,811,832,851,870,892,911,931,951,972,991,1011,1031,1051,1071,1091,1111,1132,1152,1171,1190,1211,1232,1252,1271,1291,1310,1331,1351,1371,1391,1412,1431,1451,1471,1490,1511,1531,1551,1571,1591,1611,1632,1651,1671,1691,1710],"xSR":741.5,"ySR":573.95,"xT1":424.9,"yT1":0,"xT2":1058.1,"yT2":0,"toosoon":0,"cond_shown":"Congruent","ratio_trial":300,"L_num":4,"L_den":20,"R_num":13,"R_den":26,"correct_side":2,"subjID":"valeriamartinezbuitrago20","gender":"1","school":"4","age":"9años"},{"start_time":1552054249540,"click_time":1552054252426,"finger_time":1552054251286,"fix_duration":834.3586319173486,"trial":25,"RT":1746,"MT":1140,"sideResp":1,"stimulus":[],"xmouse":[788,788,788,788,788,788,788,788,788,788,788,788,788,788,788,788,788,788,788,788,788,788,788,788,788,788,788,788,788,788,788,789,790,790,790,790,790,790,790,790,790,790,790,790,790,790,790,790,790,790,790,790,790,790,790,790,790,790,790,790,790,790,790,790,790,790,790,790,790,790,790,790,790,790,790,790,790,790,790,790,790,790,790,790,793,799,802,809,817,835,848,863,873,884,910,924,937,957,963,972,979,987,992,995,997,998,998,998,998,998,998,997,992,986,973,967,958,949,946,936,925,905,872,817,694,605,531,491,448,430,430,430,430,430,430,430,430,430,430,430,430,430,430,430,433],"ymouse":[607,607,607,607,607,607,607,607,607,607,607,607,607,607,607,607,607,607,607,607,607,607,607,607,607,607,607,607,607,607,607,607,607,607,607,607,607,607,607,607,607,607,607,607,607,607,607,607,607,607,607,607,607,607,607,607,607,607,607,607,607,607,607,607,607,607,607,607,607,607,607,607,607,607,607,607,607,607,607,607,607,607,607,607,597,588,582,572,558,532,517,496,480,457,413,389,370,339,327,310,300,287,277,271,266,260,260,260,260,260,260,259,259,262,269,272,277,282,283,282,277,266,248,218,142,70,13,0,0,0,0,0,0,0,0,0,0,0,0,0,0,0,0,0,1],"timestamp_mouse":[7,26,46,65,86,105,126,146,166,185,207,227,245,265,286,307,326,347,366,387,406,427,445,466,486,506,526,545,565,587,607,626,645,667,686,705,727,746,766,786,806,826,847,865,886,906,927,946,967,985,1005,1025,1047,1067,1085,1105,1125,1147,1165,1185,1207,1226,1246,1266,1286,1305,1326,1347,1367,1386,1406,1427,1445,1465,1485,1507,1526,1547,1566,1587,1606,1625,1646,1667,1685,1706,1726,1746,1766,1787,1806,1826,1846,1865,1885,1906,1927,1946,1966,1986,2006,2026,2046,2066,2086,2106,2125,2146,2166,2187,2206,2226,2246,2265,2285,2305,2326,2346,2366,2386,2406,2426,2446,2467,2485,2506,2525,2547,2566,2586,2607,2627,2645,2666,2687,2705,2725,2746,2766,2786,2806,2825,2846,2865,2886],"xSR":741.5,"ySR":573.95,"xT1":424.9,"yT1":0,"xT2":1058.1,"yT2":0,"toosoon":0,"cond_shown":"Incongruent","ratio_trial":300,"L_num":7,"L_den":10,"R_num":8,"R_den":20,"correct_side":1,"subjID":"valeriamartinezbuitrago20","gender":"1","school":"4","age":"9años"},{"start_time":1552054254285,"click_time":1552054255866,"finger_time":1552054255046,"fix_duration":358.52926314901543,"trial":26,"RT":761,"MT":820,"sideResp":1,"stimulus":[],"xmouse":[788,788,788,789,790,791,791,791,792,792,792,792,792,792,792,792,792,792,792,792,792,792,792,792,792,791,789,787,787,787,787,787,787,787,787,791,792,792,793,796,798,798,779,752,724,686,648,625,605,591,576,571,568,566,566,567,570,579,633,640,650,657,662,663,652,638,619,604,577,570,568,566,564,564,564,562,562,561,538,519],"ymouse":[599,599,599,600,600,601,602,603,603,603,603,603,603,603,603,603,603,603,603,603,603,603,603,603,603,606,606,606,606,606,606,606,606,606,606,598,595,578,558,543,522,503,463,440,422,401,376,363,352,342,334,330,326,309,297,284,277,256,161,151,130,108,85,41,17,0,0,0,0,0,0,0,0,0,0,1,1,3,15,18],"timestamp_mouse":[1,20,41,61,81,100,122,141,162,181,202,221,242,262,280,301,322,342,360,382,401,421,441,460,481,502,521,542,562,581,601,620,641,662,681,702,722,741,761,781,801,821,841,861,881,901,921,941,961,980,1001,1021,1041,1061,1081,1101,1122,1141,1162,1181,1201,1221,1242,1261,1282,1301,1322,1341,1361,1380,1401,1421,1442,1461,1482,1501,1520,1540,1561,1581],"xSR":741.5,"ySR":573.95,"xT1":424.9,"yT1":0,"xT2":1058.1,"yT2":0,"toosoon":0,"cond_shown":"Congruent","ratio_trial":100,"L_num":2,"L_den":5,"R_num":11,"R_den":22,"correct_side":2,"subjID":"valeriamartinezbuitrago20","gender":"1","school":"4","age":"9años"},{"start_time":1552054258433,"click_time":1552054260486,"finger_time":1552054260146,"fix_duration":1287.939442745871,"trial":27,"RT":1713,"MT":340,"sideResp":2,"stimulus":[],"xmouse":[808,810,812,814,816,818,821,823,826,827,828,828,828,828,828,828,828,828,828,828,828,828,828,828,828,828,828,828,828,828,828,828,828,828,828,828,828,828,828,828,828,828,828,828,828,828,828,828,828,828,828,828,828,828,828,828,828,828,828,828,828,828,828,828,828,828,828,828,828,828,828,828,828,828,828,828,828,828,828,828,828,828,831,836,837,843,860,878,893,921,953,966,976,977,983,1003,1016,1022,1040,1049,1063,1070,1086],"ymouse":[650,648,647,645,644,643,642,640,639,638,638,638,638,638,638,638,638,638,638,638,638,638,638,638,638,638,638,638,638,638,638,638,638,638,638,638,638,638,638,638,638,638,638,638,638,638,638,638,638,638,638,638,638,638,638,638,638,638,638,638,638,638,638,638,638,638,638,638,638,638,638,638,638,638,638,638,638,638,638,638,638,638,636,631,631,626,605,579,559,538,512,501,491,490,483,459,441,430,385,352,237,180,82],"timestamp_mouse":[20,33,54,74,93,112,133,153,174,192,214,233,254,272,293,314,332,353,373,394,413,434,453,472,492,513,532,554,573,594,613,632,653,673,692,713,732,753,774,794,812,832,853,874,893,912,932,954,974,993,1012,1034,1053,1072,1094,1114,1132,1153,1172,1193,1214,1233,1253,1272,1293,1314,1334,1352,1373,1392,1413,1432,1452,1472,1494,1513,1532,1553,1572,1594,1614,1633,1653,1673,1693,1713,1733,1754,1774,1792,1812,1833,1853,1874,1893,1912,1933,1953,1972,1993,2012,2033,2052],"xSR":741.5,"ySR":573.95,"xT1":424.9,"yT1":0,"xT2":1058.1,"yT2":0,"toosoon":0,"cond_shown":"Congruent","ratio_trial":200,"L_num":3,"L_den":10,"R_num":7,"R_den":14,"correct_side":2,"subjID":"valeriamartinezbuitrago20","gender":"1","school":"4","age":"9años"},{"start_time":1552054262639,"click_time":1552054264906,"finger_time":1552054263946,"fix_duration":250,"trial":28,"RT":1307,"MT":960,"sideResp":2,"stimulus":[],"xmouse":[806,806,806,806,806,806,806,806,806,806,806,806,806,806,806,806,806,806,806,806,806,805,805,805,805,805,805,805,805,805,805,805,805,805,805,805,805,805,805,805,805,805,805,805,805,805,805,805,805,805,805,805,805,805,805,805,805,805,805,805,805,805,805,812,822,858,941,1025,1063,1083,1098,1113,1114,1115,1116,1118,1126,1134,1143,1149,1155,1163,1163,1163,1163,1161,1144,1129,1128,1126,1125,1120,1115,1110,1107,1103,1104,1105,1105,1105,1105,1105,1105,1105,1105,1105,1105,1105,1105,1105,1105,1104,1104,1104],"ymouse":[608,608,608,608,608,608,608,608,608,608,608,608,608,608,608,608,608,608,608,608,608,608,608,608,608,608,608,608,608,608,608,608,608,608,608,608,608,608,608,608,608,608,608,608,608,608,608,608,608,608,608,608,608,608,608,608,608,608,608,608,608,608,607,600,587,546,457,388,353,335,324,309,307,306,305,304,297,288,276,266,255,233,227,222,218,212,201,194,194,189,185,171,157,142,133,124,115,112,111,111,110,110,110,110,110,110,110,110,108,107,104,102,101,99],"timestamp_mouse":[7,28,48,67,87,107,126,147,167,188,207,227,247,267,288,308,328,348,366,388,407,427,447,466,486,507,526,548,567,587,606,627,648,667,687,706,726,747,768,787,806,826,847,868,887,907,928,947,968,987,1008,1028,1046,1067,1088,1108,1126,1146,1167,1187,1208,1226,1247,1267,1287,1307,1328,1347,1367,1386,1407,1428,1447,1468,1487,1507,1527,1547,1568,1587,1608,1627,1647,1667,1687,1707,1727,1747,1767,1787,1807,1828,1847,1867,1888,1906,1926,1947,1966,1987,2008,2026,2046,2066,2087,2107,2127,2147,2168,2186,2207,2226,2247,2267],"xSR":741.5,"ySR":573.95,"xT1":424.9,"yT1":0,"xT2":1058.1,"yT2":0,"toosoon":0,"cond_shown":"Congruent","ratio_trial":200,"L_num":5,"L_den":10,"R_num":14,"R_den":20,"correct_side":2,"subjID":"valeriamartinezbuitrago20","gender":"1","school":"4","age":"9años"},{"start_time":1552054266683,"click_time":1552054268267,"finger_time":1552054267567,"fix_duration":416.4431201563443,"trial":29,"RT":884,"MT":700,"sideResp":2,"stimulus":[],"xmouse":[795,795,795,795,795,795,795,795,795,795,795,795,795,795,795,795,795,795,795,795,795,795,795,795,795,795,795,795,795,795,795,795,795,795,795,795,795,795,795,796,803,813,824,834,858,868,878,891,909,945,956,962,969,973,985,988,991,993,997,1003,1008,1012,1017,1023,1043,1048,1051,1051,1051,1056,1064,1070,1080,1082,1095,1100,1106,1114,1121,1133],"ymouse":[612,612,612,612,612,612,612,612,612,612,612,612,612,612,612,612,612,612,612,612,612,612,612,612,612,612,612,612,612,612,612,612,612,612,612,612,612,612,612,612,607,599,591,581,558,550,543,534,523,502,493,482,470,464,442,435,431,424,419,407,398,390,378,365,330,318,314,311,311,298,277,262,232,223,183,166,147,128,110,87],"timestamp_mouse":[4,23,44,63,82,102,123,143,163,183,203,222,243,263,284,303,322,343,362,384,403,423,442,463,483,503,523,543,562,583,604,623,642,663,683,703,723,744,762,783,803,823,843,864,884,903,924,943,963,983,1002,1023,1042,1064,1083,1103,1123,1143,1162,1184,1203,1223,1242,1263,1283,1303,1323,1344,1363,1383,1403,1422,1442,1462,1483,1502,1523,1543,1563,1584],"xSR":741.5,"ySR":573.95,"xT1":424.9,"yT1":0,"xT2":1058.1,"yT2":0,"toosoon":0,"cond_shown":"Incongruent","ratio_trial":300,"L_num":13,"L_den":26,"R_num":12,"R_den":15,"correct_side":2,"subjID":"valeriamartinezbuitrago20","gender":"1","school":"4","age":"9años"},{"start_time":1552054269992,"click_time":1552054273465,"finger_time":1552054272386,"fix_duration":363.52628944858566,"trial":30,"RT":2394,"MT":1079,"sideResp":1,"stimulus":[],"xmouse":[810,810,810,810,810,810,810,810,810,810,810,810,810,810,810,810,810,810,810,810,810,810,810,810,810,810,810,810,810,810,810,810,810,810,810,810,810,810,810,810,810,810,810,810,810,810,810,810,810,810,810,810,810,810,810,810,810,810,810,810,810,810,810,810,810,810,810,810,810,810,810,810,810,810,810,810,810,810,810,810,810,810,810,810,810,810,808,808,806,805,804,804,804,804,804,804,804,804,804,804,804,804,804,804,804,804,803,803,803,803,803,803,803,803,800,798,797,795,794,794,794,794,794,794,794,794,794,794,794,792,790,787,784,777,773,770,765,762,752,743,736,728,720,690,690,681,659,649,636,630,620,612,605,597,580,576,573,569,567,566,565,563,562,562,565,566,566,567,567,562,551,540,525,512],"ymouse":[609,609,609,609,609,609,609,609,609,609,609,609,609,609,609,609,609,609,609,609,609,609,609,609,609,609,609,609,609,609,609,609,609,609,609,609,609,609,609,609,609,609,609,609,609,609,609,609,609,609,609,609,609,609,609,609,609,609,609,609,609,609,609,609,609,609,609,609,609,609,609,609,609,609,609,609,609,609,609,609,609,609,609,609,609,609,609,609,609,609,609,608,608,608,608,608,608,608,608,608,608,608,608,608,608,608,608,608,608,608,608,608,608,608,603,597,591,586,575,570,564,557,550,538,516,509,504,496,486,467,454,442,432,415,408,398,392,387,369,355,348,337,325,296,296,290,276,270,262,256,249,242,237,231,215,209,202,197,194,189,186,182,179,174,157,151,145,139,127,117,105,94,83,74],"timestamp_mouse":[14,35,54,75,93,114,133,154,174,194,215,233,254,275,295,315,334,354,375,395,414,433,453,475,493,514,533,555,574,595,614,634,653,675,695,715,734,754,775,793,813,834,854,875,893,913,935,953,974,993,1013,1034,1055,1073,1095,1113,1134,1154,1173,1194,1213,1233,1254,1274,1295,1314,1334,1353,1373,1395,1413,1434,1455,1475,1493,1514,1533,1554,1573,1595,1613,1634,1654,1674,1694,1714,1735,1754,1773,1795,1813,1833,1855,1874,1894,1913,1935,1955,1973,1993,2013,2035,2054,2073,2093,2114,2135,2154,2175,2193,2214,2235,2254,2275,2294,2314,2334,2354,2374,2394,2415,2434,2454,2475,2494,2515,2534,2554,2574,2594,2615,2634,2655,2674,2693,2713,2734,2754,2774,2794,2814,2834,2855,2874,2894,2915,2934,2954,2974,2994,3014,3034,3054,3073,3093,3114,3134,3154,3174,3194,3213,3233,3254,3273,3295,3315,3334,3353,3374,3394,3414,3434,3454,3473],"xSR":741.5,"ySR":573.95,"xT1":424.9,"yT1":0,"xT2":1058.1,"yT2":0,"toosoon":0,"cond_shown":"Congruent","ratio_trial":100,"L_num":1,"L_den":2,"R_num":3,"R_den":5,"correct_side":2,"subjID":"valeriamartinezbuitrago20","gender":"1","school":"4","age":"9años"},{"start_time":1552054278903,"click_time":1552054281286,"finger_time":1552054280687,"fix_duration":995.8060478624884,"trial":31,"RT":1784,"MT":599,"sideResp":1,"stimulus":[],"xmouse":[785,785,785,785,785,785,785,785,785,785,785,785,785,785,785,785,785,785,785,785,785,785,785,785,785,785,785,785,785,785,785,785,785,785,785,785,785,785,785,785,785,785,785,785,785,785,785,785,785,785,785,785,785,785,785,785,785,785,785,785,785,785,785,785,785,785,785,785,785,785,785,785,785,785,785,785,785,785,785,785,785,785,785,785,784,781,778,767,754,717,696,676,660,649,629,617,601,581,572,557,551,545,540,532,525,525,525,527,531,536,537,537,538,538,538,538,538,530,525,518],"ymouse":[627,627,627,627,627,627,627,627,627,627,627,627,627,627,627,627,627,627,627,627,627,627,627,627,627,627,627,627,627,627,627,627,627,627,627,627,627,627,627,627,627,627,627,627,627,627,627,627,627,627,627,627,627,627,627,627,627,627,627,627,627,627,627,627,627,627,627,627,627,627,627,627,627,627,627,627,627,627,627,627,627,627,626,624,614,609,605,591,576,537,511,489,470,452,421,406,391,370,355,330,317,295,276,247,198,195,194,189,183,176,174,173,172,172,169,163,146,114,98,78],"timestamp_mouse":[4,24,44,64,84,104,123,143,163,183,204,225,244,263,284,304,323,344,363,384,403,424,443,463,485,504,523,543,564,583,605,623,643,663,683,704,723,743,765,783,804,824,843,863,883,903,923,943,963,983,1004,1025,1044,1063,1085,1104,1123,1143,1163,1183,1205,1223,1244,1263,1284,1303,1324,1344,1363,1383,1403,1423,1443,1463,1484,1503,1523,1543,1563,1585,1603,1624,1643,1663,1683,1703,1724,1743,1764,1784,1803,1823,1844,1864,1883,1905,1923,1943,1963,1983,2004,2024,2043,2064,2084,2103,2124,2144,2164,2183,2203,2225,2243,2263,2284,2303,2323,2344,2363,2383],"xSR":741.5,"ySR":573.95,"xT1":424.9,"yT1":0,"xT2":1058.1,"yT2":0,"toosoon":0,"cond_shown":"Incongruent","ratio_trial":100,"L_num":3,"L_den":5,"R_num":8,"R_den":16,"correct_side":1,"subjID":"valeriamartinezbuitrago20","gender":"1","school":"4","age":"9años"},{"start_time":1552054284658,"click_time":1552054286166,"finger_time":1552054285447,"fix_duration":790.5234296353807,"trial":32,"RT":789,"MT":719,"sideResp":2,"stimulus":[],"xmouse":[800,800,800,800,800,800,800,800,800,800,800,800,800,800,800,800,800,800,800,800,800,800,800,800,800,800,800,800,800,800,800,800,800,800,800,800,800,809,830,860,897,933,991,1027,1062,1094,1118,1160,1168,1173,1175,1177,1180,1181,1181,1181,1181,1172,1166,1162,1161,1161,1161,1164,1167,1168,1168,1169,1169,1169,1169,1169,1167,1165,1163,1158],"ymouse":[648,648,648,648,648,648,648,648,648,648,648,648,648,648,648,648,648,648,648,648,648,648,648,648,648,648,648,648,648,648,648,648,648,648,648,648,648,645,624,591,548,505,442,399,361,328,303,253,239,228,221,215,202,196,186,174,162,133,120,112,105,95,69,57,49,46,45,44,44,44,44,44,45,46,47,49],"timestamp_mouse":[8,28,48,68,88,108,129,149,168,188,208,229,248,268,289,308,328,348,368,390,409,428,450,468,488,508,528,549,568,588,608,629,649,669,689,708,730,749,768,789,809,828,849,869,889,909,929,948,969,988,1008,1029,1050,1068,1089,1108,1129,1148,1169,1188,1208,1229,1248,1268,1288,1309,1329,1348,1368,1388,1408,1430,1449,1469,1488,1508],"xSR":741.5,"ySR":573.95,"xT1":424.9,"yT1":0,"xT2":1058.1,"yT2":0,"toosoon":0,"cond_shown":"Incongruent","ratio_trial":200,"L_num":14,"L_den":30,"R_num":6,"R_den":9,"correct_side":2,"subjID":"valeriamartinezbuitrago20","gender":"1","school":"4","age":"9años"},{"start_time":1552054289895,"click_time":1552054292006,"finger_time":1552054291446,"fix_duration":888.2623467435626,"trial":33,"RT":1551,"MT":560,"sideResp":1,"stimulus":[],"xmouse":[804,804,804,804,804,804,804,804,804,804,804,804,804,804,804,804,804,804,804,804,804,804,804,804,804,804,804,804,804,804,804,804,804,804,804,804,804,804,804,804,804,804,804,804,804,804,804,804,804,804,804,804,804,804,804,804,804,804,804,804,804,804,804,804,804,804,804,804,804,804,804,804,804,804,801,796,782,757,738,732,720,718,715,715,713,702,696,692,687,680,672,664,661,646,625,540,484,448,439,438,438,438,438,440,444,447],"ymouse":[626,626,626,626,626,626,626,626,626,626,626,626,626,626,626,626,626,626,626,626,626,626,626,626,626,626,626,626,626,626,626,626,626,626,626,626,626,626,626,626,626,626,626,626,626,626,626,626,626,626,626,626,626,626,626,626,626,626,626,626,626,626,626,626,626,626,626,626,626,626,626,626,626,626,623,614,596,569,550,540,516,506,496,495,473,424,400,384,355,330,307,292,287,274,265,223,172,137,126,120,112,112,109,105,101,96],"timestamp_mouse":[11,33,51,73,91,112,131,151,171,191,213,232,251,272,291,311,331,351,371,393,412,431,451,471,491,511,531,552,572,591,611,631,651,671,693,712,732,751,771,791,812,832,853,872,891,911,931,951,971,991,1011,1031,1051,1072,1091,1112,1133,1152,1171,1192,1212,1232,1251,1272,1292,1312,1331,1351,1371,1392,1412,1431,1452,1472,1492,1512,1532,1551,1571,1591,1611,1631,1651,1671,1691,1711,1731,1752,1772,1792,1811,1831,1851,1871,1891,1911,1931,1951,1971,1991,2011,2031,2051,2072,2091,2111],"xSR":741.5,"ySR":573.95,"xT1":424.9,"yT1":0,"xT2":1058.1,"yT2":0,"toosoon":0,"cond_shown":"Incongruent","ratio_trial":100,"L_num":2,"L_den":4,"R_num":6,"R_den":15,"correct_side":1,"subjID":"valeriamartinezbuitrago20","gender":"1","school":"4","age":"9años"},{"start_time":1552054295699,"click_time":1552054297627,"finger_time":1552054296766,"fix_duration":471.2051365736551,"trial":34,"RT":1067,"MT":861,"sideResp":1,"stimulus":[],"xmouse":[746,746,746,746,746,746,746,746,746,746,746,746,746,746,746,746,746,746,746,746,746,746,746,746,746,746,746,746,746,746,746,746,746,746,746,746,746,746,746,746,746,746,746,746,746,746,746,746,746,747,749,749,748,747,743,734,719,708,696,691,679,638,631,627,622,613,594,584,573,565,561,560,561,571,582,592,599,601,605,606,606,607,607,607,607,607,605,599,591,580,569,538,522,505,489,480,473],"ymouse":[641,641,641,641,641,641,641,641,641,641,641,641,641,641,641,641,641,641,641,641,641,641,641,641,641,641,641,641,641,641,641,641,641,641,641,641,641,641,641,641,641,641,641,641,641,641,641,641,641,641,636,589,574,560,544,527,506,496,486,481,467,435,430,427,421,413,391,377,362,351,339,321,302,282,266,254,244,242,238,237,237,233,231,231,231,231,222,213,202,190,181,165,152,130,114,106,83],"timestamp_mouse":[8,28,47,67,88,108,127,148,167,189,207,227,247,267,287,308,327,348,368,389,407,427,447,469,489,508,527,547,567,587,607,628,648,668,688,709,727,748,768,787,807,827,848,867,889,907,928,947,969,987,1007,1027,1047,1067,1087,1107,1127,1147,1168,1187,1208,1228,1247,1267,1288,1307,1327,1347,1368,1387,1407,1427,1447,1469,1488,1507,1527,1547,1567,1588,1607,1627,1647,1667,1687,1707,1727,1747,1768,1788,1807,1827,1849,1868,1887,1907,1928],"xSR":741.5,"ySR":573.95,"xT1":424.9,"yT1":0,"xT2":1058.1,"yT2":0,"toosoon":0,"cond_shown":"Congruent","ratio_trial":100,"L_num":9,"L_den":15,"R_num":8,"R_den":16,"correct_side":1,"subjID":"valeriamartinezbuitrago20","gender":"1","school":"4","age":"9años"},{"start_time":1552054303193,"click_time":1552054304867,"finger_time":1552054303986,"fix_duration":485.9010844416443,"trial":35,"RT":793,"MT":881,"sideResp":2,"stimulus":[],"xmouse":[806,806,806,806,806,806,806,806,806,806,806,806,806,806,806,806,806,806,806,806,806,806,806,806,806,806,806,806,806,806,806,806,806,806,806,808,813,829,840,851,862,880,904,914,921,926,930,935,947,953,956,959,964,967,970,977,982,1005,1021,1036,1061,1078,1102,1145,1162,1177,1190,1208,1212,1214,1214,1214,1214,1214,1213,1208,1202,1196,1191,1188,1184,1178,1160,1154],"ymouse":[662,662,662,662,662,662,662,662,662,662,662,662,662,662,662,662,662,662,662,662,662,662,662,662,662,662,662,662,662,662,662,662,662,662,653,643,630,598,580,560,543,517,476,455,435,415,397,385,358,349,344,336,325,318,312,304,296,272,258,244,221,204,182,146,130,116,104,81,73,69,67,67,67,67,67,67,67,67,67,67,67,67,67,67],"timestamp_mouse":[14,33,53,73,93,113,134,155,173,194,214,233,255,274,293,313,333,354,373,394,413,433,453,473,493,513,534,554,573,594,613,634,655,674,694,714,733,754,774,793,814,833,853,873,893,913,935,953,973,994,1013,1033,1054,1073,1093,1114,1133,1154,1173,1193,1213,1233,1254,1273,1294,1314,1334,1353,1373,1393,1414,1434,1453,1474,1493,1514,1533,1553,1574,1594,1614,1633,1653,1673],"xSR":741.5,"ySR":573.95,"xT1":424.9,"yT1":0,"xT2":1058.1,"yT2":0,"toosoon":0,"cond_shown":"Congruent","ratio_trial":100,"L_num":4,"L_den":8,"R_num":6,"R_den":10,"correct_side":2,"subjID":"valeriamartinezbuitrago20","gender":"1","school":"4","age":"9años"},{"start_time":1552054307371,"click_time":1552054309007,"finger_time":1552054308287,"fix_duration":1223.434156837332,"trial":36,"RT":916,"MT":720,"sideResp":1,"stimulus":[],"xmouse":[818,818,818,818,818,818,818,818,818,818,818,818,818,818,818,818,818,818,818,818,818,818,818,818,818,818,818,818,818,818,818,818,818,818,818,818,818,818,818,815,813,808,802,799,789,787,783,779,773,753,753,748,741,734,718,707,696,683,665,606,575,560,549,542,537,535,535,535,535,536,538,539,539,540,543,544,544,544,544,544,539,521],"ymouse":[621,621,621,621,621,621,621,621,621,621,621,621,621,621,621,621,621,621,621,621,621,621,621,621,621,621,621,621,621,621,621,621,621,621,621,621,621,621,621,618,615,606,595,591,574,566,555,543,519,461,461,447,432,421,384,364,346,327,307,263,241,229,218,211,201,194,180,151,122,97,91,89,88,88,84,83,83,83,82,82,82,82],"timestamp_mouse":[16,37,55,75,95,116,135,156,175,195,215,235,255,275,295,315,335,355,375,396,415,436,456,476,496,515,535,555,575,595,615,636,655,676,696,715,735,755,777,796,816,836,855,875,895,916,935,955,975,996,1015,1035,1055,1075,1095,1115,1135,1156,1175,1195,1215,1235,1256,1275,1296,1315,1335,1356,1376,1395,1415,1435,1455,1475,1496,1515,1535,1556,1575,1596,1616,1636],"xSR":741.5,"ySR":573.95,"xT1":424.9,"yT1":0,"xT2":1058.1,"yT2":0,"toosoon":0,"cond_shown":"Congruent","ratio_trial":200,"L_num":3,"L_den":10,"R_num":11,"R_den":22,"correct_side":2,"subjID":"valeriamartinezbuitrago20","gender":"1","school":"4","age":"9años"},{"start_time":1552054312579,"click_time":1552054313866,"finger_time":1552054313346,"fix_duration":250,"trial":37,"RT":767,"MT":520,"sideResp":2,"stimulus":[],"xmouse":[797,799,800,802,803,805,806,807,811,815,816,816,816,816,816,816,816,816,816,816,816,816,816,816,816,816,816,816,816,816,816,816,816,816,816,817,823,827,845,890,930,943,960,987,1021,1038,1055,1058,1062,1063,1065,1067,1068,1070,1073,1076,1078,1078,1078,1080,1082,1085,1087,1091,1103],"ymouse":[672,670,669,667,665,663,661,658,649,640,639,639,639,639,639,639,639,639,639,639,639,639,639,639,639,639,639,639,639,639,639,639,639,639,639,636,621,615,579,473,381,351,328,296,261,242,214,205,191,186,180,176,172,167,158,152,148,146,145,141,138,132,124,114,92],"timestamp_mouse":[10,27,48,68,87,108,128,148,167,188,207,229,248,268,288,307,327,348,369,389,407,428,447,469,489,508,528,547,568,588,609,627,648,668,687,708,727,747,767,787,808,827,847,867,887,908,928,948,967,987,1007,1027,1048,1067,1087,1107,1128,1147,1167,1188,1207,1227,1247,1267,1287],"xSR":741.5,"ySR":573.95,"xT1":424.9,"yT1":0,"xT2":1058.1,"yT2":0,"toosoon":0,"cond_shown":"Incongruent","ratio_trial":300,"L_num":4,"L_den":20,"R_num":2,"R_den":4,"correct_side":2,"subjID":"valeriamartinezbuitrago20","gender":"1","school":"4","age":"9años"},{"start_time":1552054318634,"click_time":1552054320607,"finger_time":1552054320026,"fix_duration":966.7732793014959,"trial":38,"RT":1392,"MT":581,"sideResp":1,"stimulus":[],"xmouse":[750,750,750,750,750,750,750,750,750,750,750,750,750,750,750,750,750,750,750,750,750,750,750,750,750,750,750,750,750,750,750,750,750,750,750,750,750,752,752,753,753,753,753,753,753,753,753,754,754,754,754,754,754,754,754,754,754,754,754,754,754,754,755,755,755,755,755,755,755,755,753,750,750,750,742,729,716,696,688,678,667,666,640,639,639,639,639,639,637,629,620,613,612,612,611,609,595,546,523],"ymouse":[637,637,637,637,637,637,637,637,637,637,637,637,637,637,637,637,637,637,637,637,637,637,637,637,637,637,637,637,637,637,637,637,637,637,637,637,637,637,637,637,637,637,637,637,637,637,637,637,637,637,637,637,637,637,637,637,637,637,637,637,637,637,631,627,622,616,597,586,574,558,538,512,403,354,312,282,260,222,201,177,154,151,97,94,94,94,94,93,93,88,86,84,84,84,84,83,83,77,71],"timestamp_mouse":[12,32,53,72,92,114,132,152,173,193,213,233,253,272,292,312,332,353,373,392,412,432,454,473,492,513,532,554,572,592,613,632,653,673,692,712,732,753,773,792,812,833,853,873,892,912,932,953,972,994,1012,1034,1053,1073,1092,1112,1133,1154,1172,1192,1213,1232,1252,1272,1294,1313,1333,1352,1373,1392,1413,1432,1454,1472,1492,1512,1533,1552,1572,1592,1612,1633,1654,1672,1692,1712,1734,1752,1772,1792,1813,1833,1852,1872,1893,1913,1932,1952,1973],"xSR":741.5,"ySR":573.95,"xT1":424.9,"yT1":0,"xT2":1058.1,"yT2":0,"toosoon":0,"cond_shown":"Congruent","ratio_trial":100,"L_num":1,"L_den":2,"R_num":3,"R_den":5,"correct_side":2,"subjID":"valeriamartinezbuitrago20","gender":"1","school":"4","age":"9años"},{"start_time":1552054325209,"click_time":1552054327206,"finger_time":1552054326726,"fix_duration":1261.0245429475292,"trial":39,"RT":1517,"MT":480,"sideResp":1,"stimulus":[],"xmouse":[816,816,816,816,816,816,816,815,815,815,814,814,811,809,807,806,806,806,806,806,806,806,806,806,806,805,805,805,804,803,802,802,802,802,802,802,802,801,800,800,800,800,800,800,800,800,800,800,800,800,800,800,800,800,800,800,800,800,800,800,800,800,800,800,800,800,800,800,800,800,800,800,799,798,789,769,731,696,668,633,632,632,632,632,632,632,631,630,628,623,622,616,600,569,538,536,534,533,528,497],"ymouse":[629,629,629,629,629,629,629,628,628,628,627,626,623,621,619,617,617,617,617,617,617,617,617,617,617,617,617,617,617,617,617,617,617,617,617,617,617,616,616,615,615,615,615,615,615,615,615,615,615,615,615,615,615,615,615,615,615,615,615,615,615,615,615,615,615,615,615,615,615,615,615,615,614,613,596,562,493,417,337,246,240,240,239,235,208,204,192,188,178,163,158,146,123,102,90,90,88,87,84,73],"timestamp_mouse":[17,37,58,78,97,118,138,157,177,198,217,239,257,277,297,319,337,358,378,397,418,437,457,478,497,518,538,557,578,597,618,637,658,677,698,718,738,758,778,798,817,838,858,878,898,918,938,958,977,997,1018,1038,1059,1077,1098,1118,1138,1158,1179,1197,1218,1237,1258,1277,1298,1318,1338,1357,1377,1398,1418,1437,1457,1478,1497,1517,1537,1557,1578,1597,1617,1637,1658,1678,1699,1717,1737,1758,1778,1797,1818,1837,1857,1879,1897,1917,1938,1958,1978,1997],"xSR":741.5,"ySR":573.95,"xT1":424.9,"yT1":0,"xT2":1058.1,"yT2":0,"toosoon":0,"cond_shown":"Incongruent","ratio_trial":100,"L_num":2,"L_den":4,"R_num":8,"R_den":20,"correct_side":1,"subjID":"valeriamartinezbuitrago20","gender":"1","school":"4","age":"9años"},{"start_time":1552054331967,"click_time":1552054335128,"finger_time":1552054333646,"fix_duration":1259.155440663673,"trial":40,"RT":1679,"MT":1482,"sideResp":2,"stimulus":[],"xmouse":[813,813,813,813,813,813,813,813,813,813,813,813,813,813,813,813,813,813,813,813,813,813,813,813,813,813,813,813,813,813,813,813,813,813,813,813,813,813,813,813,813,813,813,813,813,813,813,813,813,813,813,813,813,813,813,813,813,813,813,813,813,813,813,813,813,813,813,813,813,813,813,813,813,813,813,814,815,817,818,820,823,826,837,847,857,869,882,900,918,926,931,936,941,943,943,944,945,949,962,987,999,1004,1015,1024,1029,1030,1030,1030,1030,1030,1037,1045,1075,1093,1105,1113,1121,1121,1121,1119,1113,1106,1095,1090,1085,1078,1075,1073,1073,1073,1073,1073,1084,1087,1087,1087,1087,1089,1090,1091,1091,1091,1091,1091,1091,1091,1091,1091,1091,1091,1091,1091,1092,1093,1093,1094,1094,1095],"ymouse":[606,606,606,606,606,606,606,606,606,606,606,606,606,606,606,606,606,606,606,606,606,606,606,606,606,606,606,606,606,606,606,606,606,606,606,606,606,606,606,606,606,606,606,606,606,606,606,606,606,606,606,606,606,606,606,606,606,606,606,606,606,606,606,606,606,606,606,606,606,606,606,606,606,606,606,606,606,606,606,604,602,598,585,574,560,546,531,509,489,478,470,465,459,455,453,449,447,445,445,461,466,466,461,450,442,440,440,439,436,426,412,399,359,334,316,299,266,255,251,232,218,205,187,183,180,177,175,175,175,174,173,170,157,153,153,153,153,149,145,143,139,134,132,130,125,118,112,112,112,111,110,109,103,101,101,100,100,99],"timestamp_mouse":[21,40,60,80,99,120,140,159,180,200,221,239,259,280,299,320,339,359,379,399,420,440,460,480,500,519,540,559,579,599,619,640,660,679,700,720,740,759,779,799,819,839,859,880,899,919,941,960,980,999,1020,1039,1060,1079,1100,1120,1139,1159,1179,1200,1219