[{"start_time":1552309710861,"click_time":1552309720628,"finger_time":1552309710868,"fix_duration":250,"trial":0,"RT":7,"MT":9760,"sideResp":2,"stimulus":"img/500/randomdotsizeEA/L/4_Ratio_500_L_18_R_9.png","xmouse":[757,757,757,757,757,757,757,757,757,757,757,757,757,757,759,761,765,769,772,773,773,773,773,773,773,773,773,773,773,773,773,773,773,773,773,773,776,779,785,785,785,785,785,785,785,786,788,788,788,792,797,802,803,803,803,803,803,803,803,803,805,811,816,817,817,815,813,811,809,808,808,808,808,808,808,808,806,805,804,804,804,804,804,804,804,805,805,805,805,804,803,803,801,801,801,801,801,801,801,801,801,801,801,801,801,800,799,799,797,790,787,783,782,782,782,782,782,782,782,782,782,782,782,784,786,789,790,791,792,792,792,792,792,792,792,792,792,792,792,792,792,792,792,792,792,792,792,792,792,792,792,792,792,792,792,792,792,792,792,792,792,792,792,792,792,792,792,792,792,792,792,792,792,792,792,792,792,792,792,792,792,792,792,792,792,792,792,792,792,792,792,792,792,792,792,792,792,792,792,792,792,792,792,792,792,792,792,792,792,792,792,792,792,792,792,792,792,792,792,792,792,792,792,792,792,792,792,792,792,792,792,792,792,792,792,792,792,792,792,792,792,792,792,792,792,792,792,792,792,792,792,792,792,792,792,792,792,792,792,792,792,792,792,792,792,792,792,792,792,792,794,795,795,795,795,795,795,795,795,795,795,795,795,795,795,795,795,795,795,795,795,795,795,795,795,795,795,795,795,795,795,795,795,795,797,798,801,803,805,814,819,822,823,823,823,823,823,823,823,823,823,823,823,823,823,823,823,823,823,823,823,823,823,823,823,823,823,823,823,823,823,822,822,821,821,820,820,820,820,820,820,820,820,820,820,819,819,819,819,819,819,819,819,819,819,819,819,819,819,819,819,819,819,819,819,819,819,819,819,819,818,818,818,818,818,818,818,818,818,818,818,818,818,818,818,818,818,818,818,818,818,818,818,818,818,818,817,814,811,808,808,808,808,808,808,808,808,808,808,808,809,811,812,813,817,819,823,828,830,833,840,845,848,850,855,855,856,856,858,869,879,889,900,912,923,949,961,971,983,994,1009,1017,1028,1040,1057,1067,1079,1083,1087,1091,1098,1103,1110,1118,1138,1148,1161,1170,1177,1184,1196,1202,1209,1216,1221,1228,1228,1228,1228,1227,1223,1220,1214,1206,1199,1184,1171,1164,1155],"ymouse":[585,585,585,585,585,585,585,585,585,585,585,585,585,585,585,585,585,584,583,583,583,583,583,583,583,583,583,583,583,583,583,583,583,583,583,583,582,582,581,581,581,581,581,581,581,581,579,579,579,579,579,582,582,582,582,582,582,582,582,582,582,582,581,581,578,574,570,565,559,558,558,558,558,557,551,546,540,537,534,534,534,533,532,531,531,531,531,531,529,525,524,523,523,523,523,523,523,523,523,523,523,523,523,523,523,523,523,523,523,523,523,523,523,523,523,523,523,523,523,523,523,523,523,523,523,523,522,522,522,522,522,522,522,522,522,522,522,522,522,522,522,522,522,522,522,522,522,522,522,522,522,522,522,522,522,522,522,522,522,522,522,522,522,522,522,522,522,522,522,522,522,522,522,522,522,522,522,522,522,522,522,522,522,522,522,522,522,522,522,522,522,522,522,522,522,522,522,522,522,522,522,522,522,522,522,522,522,522,522,522,522,522,522,522,522,522,522,522,522,522,522,522,522,522,522,522,522,522,522,522,522,522,522,522,522,522,522,522,522,522,522,522,522,522,522,522,522,522,522,522,522,522,522,522,522,522,522,522,522,522,522,522,522,522,522,522,522,522,522,522,521,521,521,521,521,521,521,521,521,521,521,521,521,521,521,521,521,521,521,521,521,521,521,521,521,521,521,521,521,521,521,521,521,521,521,521,520,519,519,517,517,516,516,516,516,516,516,516,516,516,516,516,516,516,516,516,516,516,516,516,516,516,516,516,516,516,516,516,516,516,516,516,516,516,516,516,516,516,516,516,516,516,516,516,516,516,516,516,516,516,516,516,516,516,516,516,516,516,516,516,516,516,516,516,516,516,516,516,516,516,516,516,516,516,516,516,516,516,516,516,516,516,516,516,516,516,516,516,516,516,516,516,516,516,516,516,516,516,516,516,516,516,516,516,516,516,516,516,516,516,516,515,513,513,510,508,507,504,501,500,496,495,494,492,491,490,490,490,490,488,487,485,481,476,471,461,456,451,447,444,439,436,431,424,412,405,395,390,386,381,370,363,354,343,316,300,276,260,243,229,200,189,176,164,153,133,129,128,127,126,124,122,118,114,110,98,89,84,79],"timestamp_mouse":[7,28,48,68,87,107,126,147,168,187,208,227,247,267,287,306,327,347,367,387,407,427,447,466,487,507,528,547,567,587,608,627,648,667,688,707,728,748,768,786,806,827,847,868,888,907,926,948,967,986,1006,1027,1048,1068,1088,1108,1128,1147,1168,1186,1207,1226,1247,1266,1287,1308,1328,1347,1368,1388,1408,1427,1448,1466,1488,1508,1527,1547,1568,1587,1607,1627,1647,1668,1687,1707,1727,1748,1768,1788,1807,1828,1847,1866,1888,1907,1928,1947,1967,1987,2007,2028,2046,2068,2087,2107,2128,2147,2166,2187,2207,2228,2247,2267,2288,2307,2328,2347,2366,2388,2407,2427,2447,2468,2488,2507,2527,2547,2567,2588,2608,2627,2647,2666,2688,2706,2727,2747,2767,2787,2808,2826,2846,2867,2888,2908,2926,2948,2967,2988,3008,3027,3048,3067,3086,3108,3126,3147,3167,3188,3207,3228,3247,3268,3287,3307,3328,3347,3367,3388,3407,3427,3447,3467,3488,3506,3527,3548,3567,3586,3608,3628,3648,3666,3688,3708,3728,3747,3768,3787,3808,3828,3847,3867,3887,3906,3928,3947,3967,3988,4008,4028,4048,4068,4086,4108,4128,4147,4168,4188,4207,4227,4246,4268,4287,4308,4328,4346,4367,4388,4407,4426,4448,4467,4487,4507,4526,4547,4567,4588,4607,4627,4647,4668,4688,4707,4728,4748,4767,4788,4808,4827,4847,4868,4888,4906,4928,4948,4966,4987,5007,5027,5048,5067,5087,5108,5128,5147,5167,5187,5208,5228,5246,5268,5287,5308,5327,5346,5367,5388,5406,5428,5446,5466,5487,5508,5528,5548,5568,5588,5607,5627,5647,5667,5688,5708,5728,5748,5767,5788,5808,5828,5847,5867,5888,5907,5928,5947,5967,5988,6006,6026,6048,6067,6087,6108,6127,6146,6168,6188,6207,6227,6247,6268,6287,6308,6327,6348,6367,6387,6408,6427,6448,6468,6487,6507,6528,6547,6568,6587,6608,6627,6647,6668,6687,6707,6728,6747,6768,6787,6807,6827,6848,6866,6887,6907,6928,6948,6968,6987,7007,7027,7047,7068,7087,7106,7127,7147,7168,7186,7208,7228,7246,7267,7287,7308,7327,7347,7366,7387,7408,7428,7446,7468,7487,7508,7528,7548,7567,7586,7607,7627,7647,7668,7687,7707,7728,7748,7767,7787,7807,7826,7848,7867,7887,7907,7928,7948,7966,7988,8008,8028,8046,8067,8087,8108,8128,8147,8168,8187,8208,8228,8248,8268,8287,8308,8328,8347,8368,8387,8407,8428,8448,8468,8487,8508,8527,8548,8566,8588,8607,8628,8648,8667,8688,8707,8727,8746,8767,8787,8807,8828,8848,8868,8888,8908,8928,8948,8967,8988,9008,9028,9047,9067,9088,9107,9128,9147,9167,9187,9206,9227,9247,9267,9288,9306,9327,9347,9367,9387,9406,9427,9448,9466,9488,9508,9527,9548,9568,9587,9607,9627,9647,9667,9688,9706,9728,9747,9767],"xSR":741.5,"ySR":501.8,"xT1":424.9,"yT1":0,"xT2":1058.1,"yT2":0,"toosoon":0,"cond_shown":"randomdotsizeEA","ratio_trial":500,"smaller_num":"9","larger_num":"18","correct_side":1,"subjID":"ValeriaPorrasMuñoz18","gender":"1","age":"8","school":"4","test":{"fix_dur":[250,1500],"timestim":300,"targets_dim":[100,100],"targets_relative_coord":[0.3,0.7],"size_stim":[880,420],"start_dim":[100,100],"size_start":[300,300],"size_fix":60,"samplingrate":20,"img_types":["equaldotsize","equaldotanddens","randomdotsizeEA"],"ratios":[250,500,750,900],"rep_conds":9,"nTrials":120,"trials_to_rest":500,"Trials_order":[53,87,66,3,39,16,92,30,84,0,24,50,56,14,55,10,2,29,1,110,28,9,54,71,112,70,5,77,51,109,48,119,60,80,114,96,45,86,81,25,34,46,102,89,101,103,105,52,44,18,7,35,32,90,13,4,88,118,72,15,33,49,36,106,82,85,78,97,63,38,91,23,43,64,73,79,100,74,37,12,65,47,20,8,11,104,42,40,76,26,107,68,58,22,108,75,111,115,83,21,94,93,6,62,17,117,61,95,98,99,57,67,31,19,27,59,116,69,113,41],"cond_shown":["randomdotsizeEA","equaldotsize","equaldotsize","equaldotsize","equaldotsize","equaldotanddens","randomdotsizeEA","equaldotsize","equaldotsize","equaldotsize","equaldotsize","randomdotsizeEA","randomdotsizeEA","randomdotsizeEA","equaldotanddens","equaldotanddens","randomdotsizeEA","randomdotsizeEA","equaldotanddens","randomdotsizeEA","equaldotanddens","equaldotsize","equaldotsize","randomdotsizeEA","equaldotanddens","equaldotanddens","randomdotsizeEA","randomdotsizeEA","equaldotsize","equaldotanddens","equaldotsize","randomdotsizeEA","equaldotsize","randomdotsizeEA","equaldotsize","equaldotsize","equaldotsize","randomdotsizeEA","equaldotsize","equaldotanddens","equaldotanddens","equaldotanddens","equaldotsize","randomdotsizeEA","randomdotsizeEA","equaldotanddens","equaldotsize","equaldotanddens","randomdotsizeEA","equaldotsize","equaldotanddens","randomdotsizeEA","randomdotsizeEA","equaldotsize","equaldotanddens","equaldotanddens","equaldotanddens","equaldotanddens","equaldotsize","equaldotsize","equaldotsize","equaldotanddens","equaldotsize","equaldotanddens","equaldotanddens","equaldotanddens","equaldotsize","equaldotanddens","equaldotsize","randomdotsizeEA","equaldotanddens","randomdotsizeEA","equaldotanddens","equaldotanddens","equaldotanddens","equaldotanddens","equaldotanddens","randomdotsizeEA","equaldotanddens","equaldotsize","randomdotsizeEA","randomdotsizeEA","randomdotsizeEA","randomdotsizeEA","randomdotsizeEA","randomdotsizeEA","equaldotsize","equaldotanddens","equaldotanddens","randomdotsizeEA","randomdotsizeEA","randomdotsizeEA","equaldotanddens","equaldotanddens","equaldotsize","equaldotsize","equaldotsize","equaldotanddens","randomdotsizeEA","equaldotsize","equaldotanddens","equaldotsize","equaldotsize","randomdotsizeEA","randomdotsizeEA","equaldotsize","equaldotanddens","randomdotsizeEA","randomdotsizeEA","equaldotsize","equaldotsize","equaldotanddens","equaldotanddens","equaldotanddens","equaldotsize","randomdotsizeEA","randomdotsizeEA","equaldotsize","randomdotsizeEA","randomdotsizeEA"],"ratio_trial":[500,500,750,500,500,500,750,750,250,250,250,250,750,250,750,900,250,500,250,250,500,900,750,900,500,900,500,500,500,250,250,900,250,750,750,250,900,250,900,250,900,900,750,500,500,750,900,500,750,750,750,900,750,750,250,500,500,900,250,500,900,250,250,900,900,250,750,250,500,250,750,900,750,500,250,750,500,250,250,250,500,900,750,750,900,750,750,500,500,250,900,750,900,900,250,500,500,750,900,900,900,900,750,250,500,900,250,900,250,500,900,750,750,750,500,900,750,900,500,500],"smaller_num":["9","9","3","2","2","10","3","15","3","6","5","3","6","3","15","18","6","2","2","5","9","18","3","9","1","9","9","6","6","3","4","9","3","15","3","6","18","3","9","3","9","18","3","9","5","3","18","10","3","15","3","9","6","6","3","2","6","9","2","10","18","1","2","18","18","2","18","2","1","3","3","18","3","2","6","6","9","2","6","3","4","9","6","9","9","18","15","2","5","4","18","3","18","9","3","2","4","3","18","18","9","18","12","4","5","18","2","9","4","4","18","3","9","3","10","18","3","18","1","3"],"larger_num":["18","18","4","4","4","20","4","20","12","24","20","12","8","12","20","20","24","4","8","20","18","20","4","10","2","10","18","12","12","12","16","10","12","20","4","24","20","12","10","12","10","20","4","18","10","4","20","20","4","20","4","10","8","8","12","4","12","10","8","20","20","4","8","20","20","8","24","8","2","12","4","20","4","4","24","8","18","8","24","12","8","10","8","12","10","24","20","4","10","16","20","4","20","10","12","4","8","4","20","20","10","20","16","16","10","20","8","10","16","8","20","4","12","4","20","20","4","20","2","6"],"correct_side":[1,2,1,2,1,2,1,2,1,1,2,2,2,2,2,1,1,1,1,2,1,2,2,2,2,1,1,1,1,2,2,2,1,2,1,1,1,1,1,1,1,1,1,2,1,1,1,2,2,1,1,1,1,1,2,1,1,2,1,2,2,2,1,2,1,2,1,2,2,2,2,2,2,1,2,1,1,2,1,2,1,1,1,2,1,1,1,2,1,1,1,2,1,2,2,1,1,2,2,2,2,1,2,1,1,1,1,2,2,1,2,1,2,1,2,1,2,2,2,2],"img_shown":["img/500/randomdotsizeEA/L/4_Ratio_500_L_18_R_9.png","img/500/equaldotsize/R/6_Ratio_500_L_9_R_18.png","img/750/equaldotsize/L/9_Ratio_750_L_4_R_3.png","img/500/equaldotsize/R/9_Ratio_500_L_2_R_4.png","img/500/equaldotsize/L/10_Ratio_500_L_4_R_2.png","img/500/equaldotanddens/R/3_Ratio_500_L_10_R_20.png","img/750/randomdotsizeEA/L/10_Ratio_750_L_4_R_3.png","img/750/equaldotsize/R/4_Ratio_750_L_15_R_20.png","img/250/equaldotsize/L/15_Ratio_250_L_12_R_3.png","img/250/equaldotsize/L/5_Ratio_250_L_24_R_6.png","img/250/equaldotsize/R/12_Ratio_250_L_5_R_20.png","img/250/randomdotsizeEA/R/9_Ratio_250_L_3_R_12.png","img/750/randomdotsizeEA/R/2_Ratio_750_L_6_R_8.png","img/250/randomdotsizeEA/R/4_Ratio_250_L_3_R_12.png","img/750/equaldotanddens/R/4_Ratio_750_L_15_R_20.png","img/900/equaldotanddens/L/10_Ratio_900_L_20_R_18.png","img/250/randomdotsizeEA/L/5_Ratio_250_L_24_R_6.png","img/500/randomdotsizeEA/L/5_Ratio_500_L_4_R_2.png","img/250/equaldotanddens/L/3_Ratio_250_L_8_R_2.png","img/250/randomdotsizeEA/R/12_Ratio_250_L_5_R_20.png","img/500/equaldotanddens/L/4_Ratio_500_L_18_R_9.png","img/900/equaldotsize/R/9_Ratio_900_L_18_R_20.png","img/750/equaldotsize/R/12_Ratio_750_L_3_R_4.png","img/900/randomdotsizeEA/R/15_Ratio_900_L_9_R_10.png","img/500/equaldotanddens/R/12_Ratio_500_L_1_R_2.png","img/900/equaldotanddens/L/1_Ratio_900_L_10_R_9.png","img/500/randomdotsizeEA/L/4_Ratio_500_L_18_R_9.png","img/500/randomdotsizeEA/L/11_Ratio_500_L_12_R_6.png","img/500/equaldotsize/L/11_Ratio_500_L_12_R_6.png","img/250/equaldotanddens/R/4_Ratio_250_L_3_R_12.png","img/250/equaldotsize/R/10_Ratio_250_L_4_R_16.png","img/900/randomdotsizeEA/R/5_Ratio_900_L_9_R_10.png","img/250/equaldotsize/L/14_Ratio_250_L_12_R_3.png","img/750/randomdotsizeEA/R/5_Ratio_750_L_15_R_20.png","img/750/equaldotsize/L/8_Ratio_750_L_4_R_3.png","img/250/equaldotsize/L/5_Ratio_250_L_24_R_6.png","img/900/equaldotsize/L/8_Ratio_900_L_20_R_18.png","img/250/randomdotsizeEA/L/15_Ratio_250_L_12_R_3.png","img/900/equaldotsize/L/1_Ratio_900_L_10_R_9.png","img/250/equaldotanddens/L/15_Ratio_250_L_12_R_3.png","img/900/equaldotanddens/L/1_Ratio_900_L_10_R_9.png","img/900/equaldotanddens/L/10_Ratio_900_L_20_R_18.png","img/750/equaldotsize/L/9_Ratio_750_L_4_R_3.png","img/500/randomdotsizeEA/R/6_Ratio_500_L_9_R_18.png","img/500/randomdotsizeEA/L/7_Ratio_500_L_10_R_5.png","img/750/equaldotanddens/L/8_Ratio_750_L_4_R_3.png","img/900/equaldotsize/L/10_Ratio_900_L_20_R_18.png","img/500/equaldotanddens/R/3_Ratio_500_L_10_R_20.png","img/750/randomdotsizeEA/R/7_Ratio_750_L_3_R_4.png","img/750/equaldotsize/L/1_Ratio_750_L_20_R_15.png","img/750/equaldotanddens/L/8_Ratio_750_L_4_R_3.png","img/900/randomdotsizeEA/L/1_Ratio_900_L_10_R_9.png","img/750/randomdotsizeEA/L/14_Ratio_750_L_8_R_6.png","img/750/equaldotsize/L/13_Ratio_750_L_8_R_6.png","img/250/equaldotanddens/R/4_Ratio_250_L_3_R_12.png","img/500/equaldotanddens/L/10_Ratio_500_L_4_R_2.png","img/500/equaldotanddens/L/11_Ratio_500_L_12_R_6.png","img/900/equaldotanddens/R/15_Ratio_900_L_9_R_10.png","img/250/equaldotsize/L/7_Ratio_250_L_8_R_2.png","img/500/equaldotsize/R/3_Ratio_500_L_10_R_20.png","img/900/equaldotsize/R/14_Ratio_900_L_18_R_20.png","img/250/equaldotanddens/R/8_Ratio_250_L_1_R_4.png","img/250/equaldotsize/L/7_Ratio_250_L_8_R_2.png","img/900/equaldotanddens/R/14_Ratio_900_L_18_R_20.png","img/900/equaldotanddens/L/4_Ratio_900_L_20_R_18.png","img/250/equaldotanddens/R/13_Ratio_250_L_2_R_8.png","img/750/equaldotsize/L/6_Ratio_750_L_24_R_18.png","img/250/equaldotanddens/R/13_Ratio_250_L_2_R_8.png","img/500/equaldotsize/R/15_Ratio_500_L_1_R_2.png","img/250/randomdotsizeEA/R/11_Ratio_250_L_3_R_12.png","img/750/equaldotanddens/R/12_Ratio_750_L_3_R_4.png","img/900/randomdotsizeEA/R/13_Ratio_900_L_18_R_20.png","img/750/equaldotanddens/R/7_Ratio_750_L_3_R_4.png","img/500/equaldotanddens/L/10_Ratio_500_L_4_R_2.png","img/250/equaldotanddens/R/6_Ratio_250_L_6_R_24.png","img/750/equaldotanddens/L/14_Ratio_750_L_8_R_6.png","img/500/equaldotanddens/L/4_Ratio_500_L_18_R_9.png","img/250/randomdotsizeEA/R/13_Ratio_250_L_2_R_8.png","img/250/equaldotanddens/L/5_Ratio_250_L_24_R_6.png","img/250/equaldotsize/R/11_Ratio_250_L_3_R_12.png","img/500/randomdotsizeEA/L/8_Ratio_500_L_8_R_4.png","img/900/randomdotsizeEA/L/1_Ratio_900_L_10_R_9.png","img/750/randomdotsizeEA/L/13_Ratio_750_L_8_R_6.png","img/750/randomdotsizeEA/R/15_Ratio_750_L_9_R_12.png","img/900/randomdotsizeEA/L/1_Ratio_900_L_10_R_9.png","img/750/randomdotsizeEA/L/6_Ratio_750_L_24_R_18.png","img/750/equaldotsize/L/1_Ratio_750_L_20_R_15.png","img/500/equaldotanddens/R/9_Ratio_500_L_2_R_4.png","img/500/equaldotanddens/L/7_Ratio_500_L_10_R_5.png","img/250/randomdotsizeEA/L/2_Ratio_250_L_16_R_4.png","img/900/randomdotsizeEA/L/4_Ratio_900_L_20_R_18.png","img/750/randomdotsizeEA/R/7_Ratio_750_L_3_R_4.png","img/900/equaldotanddens/L/8_Ratio_900_L_20_R_18.png","img/900/equaldotanddens/R/6_Ratio_900_L_9_R_10.png","img/250/equaldotsize/R/11_Ratio_250_L_3_R_12.png","img/500/equaldotsize/L/10_Ratio_500_L_4_R_2.png","img/500/equaldotsize/L/8_Ratio_500_L_8_R_4.png","img/750/equaldotanddens/R/7_Ratio_750_L_3_R_4.png","img/900/randomdotsizeEA/R/14_Ratio_900_L_18_R_20.png","img/900/equaldotsize/R/12_Ratio_900_L_18_R_20.png","img/900/equaldotanddens/R/15_Ratio_900_L_9_R_10.png","img/900/equaldotsize/L/8_Ratio_900_L_20_R_18.png","img/750/equaldotsize/R/11_Ratio_750_L_12_R_16.png","img/250/randomdotsizeEA/L/2_Ratio_250_L_16_R_4.png","img/500/randomdotsizeEA/L/7_Ratio_500_L_10_R_5.png","img/900/equaldotsize/L/10_Ratio_900_L_20_R_18.png","img/250/equaldotanddens/L/3_Ratio_250_L_8_R_2.png","img/900/randomdotsizeEA/R/7_Ratio_900_L_9_R_10.png","img/250/randomdotsizeEA/R/10_Ratio_250_L_4_R_16.png","img/500/equaldotsize/L/8_Ratio_500_L_8_R_4.png","img/900/equaldotsize/R/14_Ratio_900_L_18_R_20.png","img/750/equaldotanddens/L/8_Ratio_750_L_4_R_3.png","img/750/equaldotanddens/R/15_Ratio_750_L_9_R_12.png","img/750/equaldotanddens/L/8_Ratio_750_L_4_R_3.png","img/500/equaldotsize/R/3_Ratio_500_L_10_R_20.png","img/900/randomdotsizeEA/L/8_Ratio_900_L_20_R_18.png","img/750/randomdotsizeEA/R/7_Ratio_750_L_3_R_4.png","img/900/equaldotsize/R/12_Ratio_900_L_18_R_20.png","img/500/randomdotsizeEA/R/12_Ratio_500_L_1_R_2.png","img/500/randomdotsizeEA/R/2_Ratio_500_L_3_R_6.png"],"Rat0":[["12_Ratio_0_L_9_R_0.png","13_Ratio_0_L_6_R_0.png","5_Ratio_0_L_2_R_0.png","6_Ratio_0_L_4_R_0.png","8_Ratio_0_L_6_R_0.png"],["1_Ratio_0_L_0_R_17.png","10_Ratio_0_L_0_R_22.png","11_Ratio_0_L_0_R_1.png","14_Ratio_0_L_0_R_24.png","15_Ratio_0_L_0_R_4.png","2_Ratio_0_L_0_R_5.png","3_Ratio_0_L_0_R_17.png","4_Ratio_0_L_0_R_7.png","7_Ratio_0_L_0_R_19.png","9_Ratio_0_L_0_R_15.png"]],"Rat250":[["1_Ratio_250_L_8_R_2.png","14_Ratio_250_L_12_R_3.png","15_Ratio_250_L_12_R_3.png","2_Ratio_250_L_16_R_4.png","3_Ratio_250_L_8_R_2.png","5_Ratio_250_L_24_R_6.png","7_Ratio_250_L_8_R_2.png"],["10_Ratio_250_L_4_R_16.png","11_Ratio_250_L_3_R_12.png","12_Ratio_250_L_5_R_20.png","13_Ratio_250_L_2_R_8.png","4_Ratio_250_L_3_R_12.png","6_Ratio_250_L_6_R_24.png","8_Ratio_250_L_1_R_4.png","9_Ratio_250_L_3_R_12.png"]],"Rat500":[["10_Ratio_500_L_4_R_2.png","11_Ratio_500_L_12_R_6.png","13_Ratio_500_L_12_R_6.png","4_Ratio_500_L_18_R_9.png","5_Ratio_500_L_4_R_2.png","7_Ratio_500_L_10_R_5.png","8_Ratio_500_L_8_R_4.png"],["1_Ratio_500_L_9_R_18.png","12_Ratio_500_L_1_R_2.png","14_Ratio_500_L_5_R_10.png","15_Ratio_500_L_1_R_2.png","2_Ratio_500_L_3_R_6.png","3_Ratio_500_L_10_R_20.png","6_Ratio_500_L_9_R_18.png","9_Ratio_500_L_2_R_4.png"]],"Rat750":[["1_Ratio_750_L_20_R_15.png","10_Ratio_750_L_4_R_3.png","13_Ratio_750_L_8_R_6.png","14_Ratio_750_L_8_R_6.png","6_Ratio_750_L_24_R_18.png","8_Ratio_750_L_4_R_3.png","9_Ratio_750_L_4_R_3.png"],["11_Ratio_750_L_12_R_16.png","12_Ratio_750_L_3_R_4.png","15_Ratio_750_L_9_R_12.png","2_Ratio_750_L_6_R_8.png","3_Ratio_750_L_15_R_20.png","4_Ratio_750_L_15_R_20.png","5_Ratio_750_L_15_R_20.png","7_Ratio_750_L_3_R_4.png"]],"Rat900":[["1_Ratio_900_L_10_R_9.png","10_Ratio_900_L_20_R_18.png","2_Ratio_900_L_20_R_18.png","4_Ratio_900_L_20_R_18.png","8_Ratio_900_L_20_R_18.png"],["11_Ratio_900_L_18_R_20.png","12_Ratio_900_L_18_R_20.png","13_Ratio_900_L_18_R_20.png","14_Ratio_900_L_18_R_20.png","15_Ratio_900_L_9_R_10.png","3_Ratio_900_L_9_R_10.png","5_Ratio_900_L_9_R_10.png","6_Ratio_900_L_9_R_10.png","7_Ratio_900_L_9_R_10.png","9_Ratio_900_L_18_R_20.png"]],"Rat1000":[["10_Ratio_1000_L_16_R_16.png","11_Ratio_1000_L_6_R_6.png","12_Ratio_1000_L_14_R_14.png","13_Ratio_1000_L_20_R_20.png","15_Ratio_1000_L_15_R_15.png","2_Ratio_1000_L_17_R_17.png","4_Ratio_1000_L_9_R_9.png","5_Ratio_1000_L_6_R_6.png","6_Ratio_1000_L_19_R_19.png","8_Ratio_1000_L_14_R_14.png","9_Ratio_1000_L_25_R_25.png"],["1_Ratio_1000_L_1_R_1.png","14_Ratio_1000_L_17_R_17.png","3_Ratio_1000_L_17_R_17.png","7_Ratio_1000_L_6_R_6.png"]]}},{"start_time":1552309723468,"click_time":1552309726569,"finger_time":1552309725567,"fix_duration":658.2945373851879,"trial":1,"RT":2099,"MT":1002,"sideResp":2,"stimulus":"img/500/equaldotsize/R/6_Ratio_500_L_9_R_18.png","xmouse":[792,793,793,793,793,795,795,796,796,796,797,797,797,797,797,797,797,797,797,797,797,797,797,797,797,797,797,797,797,797,797,797,797,797,797,797,797,797,797,797,797,797,797,797,797,797,797,797,797,797,797,797,797,797,797,797,797,797,797,797,797,797,797,797,797,797,797,797,797,797,797,799,799,799,799,799,799,799,799,799,799,799,799,799,799,799,799,799,799,799,799,799,799,799,799,799,799,799,799,799,799,802,811,822,836,867,889,917,960,1010,1055,1103,1118,1121,1125,1126,1126,1128,1130,1133,1133,1130,1123,1115,1102,1086,1084,1084,1084,1084,1084,1084,1084,1084,1085,1087,1093,1096,1100,1104,1109,1115,1116,1117,1117,1117,1117,1117,1117,1117,1117,1117,1117,1118,1119,1119],"ymouse":[515,515,515,515,515,515,515,515,515,515,515,515,515,515,515,515,515,515,515,515,515,515,515,515,515,515,515,515,515,515,515,515,515,515,515,515,515,515,515,515,515,515,515,515,515,515,515,515,515,515,515,515,515,515,515,515,515,515,515,515,515,515,515,515,515,515,515,515,515,515,515,515,515,515,515,515,515,515,515,515,515,515,515,515,515,515,515,515,515,515,515,515,515,515,515,515,515,515,515,515,515,515,513,512,509,500,491,478,459,431,407,379,371,369,367,367,366,364,360,350,335,286,257,231,196,171,167,167,167,167,167,167,167,166,163,161,155,151,147,141,135,126,119,115,114,114,114,114,114,114,114,114,112,105,100,92],"timestamp_mouse":[3,19,45,60,80,100,121,141,160,180,201,221,240,260,280,300,321,341,361,380,401,421,441,461,481,500,520,540,561,580,601,621,639,661,681,701,720,740,760,780,800,820,840,860,880,900,921,940,960,981,1001,1021,1040,1060,1081,1101,1120,1141,1161,1181,1201,1221,1239,1260,1281,1300,1321,1341,1359,1381,1400,1420,1440,1459,1481,1500,1520,1540,1560,1581,1601,1620,1640,1660,1681,1700,1721,1739,1760,1781,1800,1821,1840,1860,1881,1900,1919,1939,1959,1980,1999,2020,2040,2060,2079,2099,2120,2140,2161,2179,2200,2220,2240,2260,2280,2300,2320,2340,2360,2381,2400,2420,2441,2459,2481,2500,2520,2540,2560,2580,2600,2621,2640,2661,2680,2700,2720,2741,2760,2780,2800,2820,2840,2861,2879,2900,2920,2940,2959,2980,3001,3020,3040,3060,3080,3101],"xSR":741.5,"ySR":469.95,"xT1":424.9,"yT1":0,"xT2":1058.1,"yT2":0,"toosoon":0,"cond_shown":"equaldotsize","ratio_trial":500,"smaller_num":"9","larger_num":"18","correct_side":2,"subjID":"ValeriaPorrasMuñoz18","gender":"1","age":"8","school":"4"},{"start_time":1552309730175,"click_time":1552309731728,"finger_time":1552309731329,"fix_duration":1426.8905928653955,"trial":2,"RT":1154,"MT":399,"sideResp":1,"stimulus":"img/750/equaldotsize/L/9_Ratio_750_L_4_R_3.png","xmouse":[791,791,791,791,791,791,791,791,791,791,791,791,791,791,791,791,791,791,791,791,791,791,791,791,791,791,791,791,791,791,791,791,791,791,791,791,791,791,791,791,791,791,791,791,791,791,791,791,791,791,791,791,791,789,782,772,768,762,758,754,750,749,749,747,745,737,729,714,691,664,610,590,577,568,555,536,528,520],"ymouse":[501,501,501,501,501,501,501,501,501,501,501,501,501,501,501,501,501,501,501,501,501,501,501,501,501,501,501,501,501,501,501,501,501,501,501,501,501,501,501,501,501,501,501,501,501,501,501,501,501,501,501,501,501,499,495,483,472,460,451,443,433,427,420,413,403,378,365,345,317,287,214,186,165,147,126,104,94,86],"timestamp_mouse":[14,33,53,74,94,113,134,154,173,194,213,233,254,274,294,313,333,354,372,392,414,433,454,474,492,513,534,554,573,594,613,634,653,673,694,713,734,754,773,794,813,834,854,873,894,913,933,954,974,992,1014,1034,1052,1072,1092,1114,1133,1154,1173,1192,1213,1233,1254,1274,1293,1312,1332,1353,1372,1394,1413,1433,1453,1474,1493,1513,1532,1553],"xSR":741.5,"ySR":469.95,"xT1":424.9,"yT1":0,"xT2":1058.1,"yT2":0,"toosoon":0,"cond_shown":"equaldotsize","ratio_trial":750,"smaller_num":"3","larger_num":"4","correct_side":1,"subjID":"ValeriaPorrasMuñoz18","gender":"1","age":"8","school":"4"},{"start_time":1552309734182,"click_time":1552309737268,"finger_time":1552309735387,"fix_duration":793.1170495186741,"trial":3,"RT":1205,"MT":1881,"sideResp":2,"stimulus":"img/500/equaldotsize/R/9_Ratio_500_L_2_R_4.png","xmouse":[786,786,786,786,786,786,786,786,786,786,786,786,786,786,786,786,786,786,786,786,786,786,786,786,786,786,786,786,786,786,786,786,786,786,786,786,786,786,786,786,786,786,786,786,786,786,786,786,786,786,786,786,786,786,786,791,798,806,816,824,842,849,853,856,858,863,864,867,868,870,872,878,884,889,892,902,906,910,914,919,932,939,952,958,965,971,985,991,995,999,1004,1014,1021,1026,1031,1034,1039,1041,1042,1044,1048,1050,1052,1055,1058,1061,1064,1065,1067,1068,1069,1072,1075,1078,1080,1084,1087,1088,1089,1091,1093,1093,1094,1095,1095,1096,1097,1098,1098,1099,1099,1100,1101,1101,1101,1101,1101,1101,1101,1101,1102,1103,1103,1103,1103,1104,1104,1104,1104,1104,1104,1105,1106,1106,1107],"ymouse":[512,512,512,512,512,512,512,512,513,513,513,513,513,513,513,513,513,513,513,513,513,513,513,513,513,513,513,513,513,513,513,513,513,513,513,513,513,513,513,513,513,513,513,513,513,513,513,513,513,513,513,513,513,513,513,509,504,496,486,479,466,460,458,456,455,451,450,449,448,447,446,443,440,437,435,427,424,420,416,410,397,389,374,365,356,348,329,322,315,307,299,285,275,268,263,257,248,245,241,238,228,221,215,208,203,197,189,188,185,183,180,177,173,168,165,160,156,155,154,152,150,148,147,146,146,144,142,140,139,137,136,133,132,132,132,132,130,128,128,126,125,122,121,121,120,119,119,117,116,116,115,108,103,100,98],"timestamp_mouse":[6,27,46,66,86,107,125,147,166,186,205,227,246,265,286,307,327,347,367,386,405,427,447,467,486,506,527,547,566,587,607,627,647,667,687,706,727,745,767,786,806,825,847,866,886,907,925,947,967,987,1006,1025,1046,1066,1086,1106,1126,1146,1166,1186,1205,1226,1245,1266,1286,1307,1327,1345,1366,1387,1407,1426,1446,1467,1487,1506,1526,1546,1566,1587,1606,1626,1646,1665,1685,1706,1726,1746,1766,1786,1807,1826,1847,1866,1886,1905,1926,1947,1966,1987,2006,2026,2047,2066,2086,2105,2125,2146,2166,2186,2205,2227,2246,2266,2286,2307,2326,2346,2366,2386,2407,2427,2446,2466,2486,2507,2526,2546,2566,2586,2606,2626,2645,2665,2686,2705,2725,2745,2767,2786,2807,2827,2846,2866,2886,2907,2926,2945,2966,2987,3006,3027,3047,3066,3086],"xSR":741.5,"ySR":469.95,"xT1":424.9,"yT1":0,"xT2":1058.1,"yT2":0,"toosoon":0,"cond_shown":"equaldotsize","ratio_trial":500,"smaller_num":"2","larger_num":"4","correct_side":2,"subjID":"ValeriaPorrasMuñoz18","gender":"1","age":"8","school":"4"},{"start_time":1552309741970,"click_time":1552309743408,"finger_time":1552309743189,"fix_duration":1061.6791870280604,"trial":4,"RT":1219,"MT":219,"sideResp":1,"stimulus":"img/500/equaldotsize/L/10_Ratio_500_L_4_R_2.png","xmouse":[801,801,801,801,801,801,801,801,801,801,801,801,801,801,801,801,801,801,801,801,801,801,801,801,801,801,801,801,801,801,801,801,801,801,801,801,801,801,801,801,801,801,801,801,801,801,801,801,801,801,801,801,801,801,801,801,801,797,794,788,770,749,739,728,712,692,638,606,577,546,532,522],"ymouse":[500,500,500,500,500,500,500,500,500,500,500,500,500,500,500,500,500,500,500,500,500,500,500,500,500,500,500,500,500,500,500,500,500,500,500,500,500,500,500,500,500,500,500,500,500,500,500,500,500,500,500,500,500,500,500,500,500,497,492,485,464,433,416,392,355,307,199,155,120,85,69,57],"timestamp_mouse":[17,38,57,77,99,119,138,158,178,198,218,238,258,279,297,319,339,358,378,398,419,438,459,477,498,519,539,557,579,598,618,637,659,679,699,718,739,758,779,797,818,838,858,878,898,917,938,959,977,999,1018,1038,1058,1078,1099,1117,1138,1158,1179,1199,1219,1238,1259,1278,1298,1317,1339,1358,1378,1399,1418,1438],"xSR":741.5,"ySR":469.95,"xT1":424.9,"yT1":0,"xT2":1058.1,"yT2":0,"toosoon":0,"cond_shown":"equaldotsize","ratio_trial":500,"smaller_num":"2","larger_num":"4","correct_side":1,"subjID":"ValeriaPorrasMuñoz18","gender":"1","age":"8","school":"4"},{"start_time":1552309747058,"click_time":1552309749569,"finger_time":1552309747928,"fix_duration":629.9106556597231,"trial":5,"RT":870,"MT":1641,"sideResp":2,"stimulus":"img/500/equaldotanddens/R/3_Ratio_500_L_10_R_20.png","xmouse":[745,745,745,745,745,745,745,745,745,746,746,746,746,746,746,746,746,746,746,746,746,746,746,746,746,746,746,746,746,746,746,746,746,746,746,746,746,750,757,768,785,808,833,899,921,939,953,960,962,962,962,962,962,962,963,964,966,969,974,977,979,982,984,985,985,985,985,985,986,987,990,993,1000,1010,1015,1019,1022,1024,1027,1027,1027,1027,1027,1027,1027,1027,1027,1029,1038,1043,1048,1050,1053,1056,1056,1058,1060,1063,1069,1072,1077,1079,1081,1083,1083,1083,1083,1083,1083,1083,1083,1083,1083,1083,1084,1086,1088,1092,1099,1103,1107,1114,1117,1129,1133,1137],"ymouse":[484,484,484,484,484,484,484,484,484,484,484,484,484,484,484,484,484,484,484,484,484,484,484,484,484,484,484,484,484,484,484,484,484,484,484,484,484,484,484,484,484,483,478,459,448,437,429,425,423,423,423,423,423,423,422,418,413,407,390,382,376,371,368,365,365,365,365,364,358,354,345,334,314,287,275,267,261,257,253,253,253,253,253,253,253,252,251,247,237,230,223,218,213,207,207,204,202,199,191,186,181,177,174,171,171,171,171,171,171,171,171,171,171,169,167,165,161,156,143,136,131,124,119,107,103,99],"timestamp_mouse":[10,30,50,71,91,111,130,149,171,190,211,230,251,269,289,311,331,350,371,391,410,430,451,471,490,510,531,551,571,590,610,630,650,671,690,710,731,749,771,791,811,831,849,870,890,910,930,951,970,990,1010,1030,1050,1070,1090,1110,1129,1151,1170,1190,1211,1230,1251,1270,1290,1310,1330,1351,1370,1390,1410,1430,1450,1470,1490,1510,1530,1551,1570,1590,1610,1630,1650,1670,1691,1711,1730,1752,1770,1790,1810,1831,1850,1869,1889,1910,1931,1951,1970,1989,2011,2031,2050,2070,2090,2111,2129,2150,2170,2190,2211,2230,2251,2270,2290,2311,2330,2350,2370,2391,2410,2430,2450,2470,2490,2511],"xSR":741.5,"ySR":469.95,"xT1":424.9,"yT1":0,"xT2":1058.1,"yT2":0,"toosoon":0,"cond_shown":"equaldotanddens","ratio_trial":500,"smaller_num":"10","larger_num":"20","correct_side":2,"subjID":"ValeriaPorrasMuñoz18","gender":"1","age":"8","school":"4"},{"start_time":1552309753078,"click_time":1552309757789,"finger_time":1552309756568,"fix_duration":1108.3344320722795,"trial":6,"RT":3490,"MT":1221,"sideResp":1,"stimulus":"img/750/randomdotsizeEA/L/10_Ratio_750_L_4_R_3.png","xmouse":[813,813,813,813,813,813,813,813,813,813,813,813,813,813,813,813,813,813,813,813,813,813,813,813,813,813,813,813,813,813,813,813,813,813,813,813,813,813,813,813,813,813,813,813,813,813,813,813,813,813,813,813,813,813,813,813,813,813,813,813,813,813,813,813,813,813,813,813,813,813,813,813,813,813,813,813,813,813,813,813,813,813,813,813,813,813,813,813,813,813,813,813,813,813,813,813,813,813,813,813,813,813,813,813,813,813,813,813,813,813,813,813,813,813,813,813,813,813,813,813,813,813,813,813,813,813,813,813,813,813,813,813,813,813,813,813,813,813,813,813,807,793,775,745,743,743,743,742,745,748,749,750,750,750,750,750,750,750,750,750,751,752,753,753,753,753,753,753,753,753,755,755,755,750,740,725,713,697,671,667,663,659,653,633,611,571,517,453,341,319,307,305,305,305,305,305,305,305,305,305,305,305,306,312,317,321,323,326,336,342,349,356,359,362,363,363,364,368,379,384,388,392,396,401,405,410,414,418,420,420,420,420,420,420,424,426],"ymouse":[516,516,516,516,516,516,516,516,516,516,516,516,516,516,516,516,516,516,516,516,516,516,516,516,516,516,516,516,516,516,516,516,516,516,516,516,516,516,516,516,516,516,516,516,516,516,516,516,516,516,516,516,516,516,516,516,516,516,516,516,516,516,516,516,516,516,516,516,516,516,516,516,516,516,516,516,516,516,516,516,516,516,516,516,516,516,516,516,516,516,516,516,516,516,516,516,516,516,516,516,516,516,516,516,516,516,516,516,516,516,516,516,516,516,516,516,516,516,516,516,516,516,516,516,516,516,516,516,516,516,516,516,516,516,516,516,516,516,516,516,516,516,516,509,509,509,509,508,507,506,506,505,505,505,505,505,505,505,505,505,505,505,505,505,505,505,505,505,505,505,504,502,496,483,471,456,444,430,399,391,384,378,371,350,330,298,251,196,70,40,21,13,12,12,12,12,11,11,8,8,7,7,7,7,7,7,7,7,13,18,25,31,33,36,36,36,36,37,41,44,46,48,50,51,51,51,51,51,51,51,51,51,51,51,51,51],"timestamp_mouse":[10,33,51,70,89,111,130,151,171,191,209,230,251,270,290,310,329,351,371,391,410,431,450,471,490,511,530,550,570,589,611,631,650,671,691,711,730,750,770,790,811,831,850,870,891,911,930,950,970,991,1010,1031,1050,1069,1089,1111,1131,1149,1169,1190,1211,1230,1251,1270,1291,1310,1330,1351,1370,1391,1410,1431,1451,1470,1490,1511,1530,1551,1571,1589,1610,1631,1650,1671,1689,1711,1731,1750,1771,1791,1810,1830,1851,1871,1891,1911,1930,1951,1971,1991,2010,2030,2051,2070,2091,2110,2129,2151,2171,2191,2211,2229,2251,2271,2290,2311,2331,2350,2370,2391,2410,2430,2451,2469,2490,2511,2530,2550,2571,2591,2610,2631,2651,2671,2690,2711,2731,2751,2770,2791,2811,2830,2850,2870,2890,2911,2930,2951,2970,2991,3009,3030,3050,3071,3090,3110,3131,3150,3171,3189,3210,3230,3250,3271,3290,3310,3331,3351,3370,3389,3410,3431,3450,3470,3490,3510,3530,3549,3570,3590,3610,3630,3651,3669,3689,3710,3730,3751,3770,3791,3810,3830,3851,3870,3890,3910,3930,3952,3969,3991,4011,4031,4049,4070,4090,4110,4131,4150,4169,4189,4211,4230,4249,4270,4290,4310,4330,4351,4370,4389,4409,4431,4451,4470,4490,4510,4531,4551,4569,4590,4611,4630,4649,4670,4690,4711],"xSR":741.5,"ySR":469.95,"xT1":424.9,"yT1":0,"xT2":1058.1,"yT2":0,"toosoon":0,"cond_shown":"randomdotsizeEA","ratio_trial":750,"smaller_num":"3","larger_num":"4","correct_side":1,"subjID":"ValeriaPorrasMuñoz18","gender":"1","age":"8","school":"4"},{"start_time":1552309759719,"click_time":1552309762588,"finger_time":1552309760649,"fix_duration":250,"trial":7,"RT":930,"MT":1939,"sideResp":2,"stimulus":"img/750/equaldotsize/R/4_Ratio_750_L_15_R_20.png","xmouse":[773,773,773,773,773,773,773,773,773,773,773,773,775,778,780,783,785,785,785,785,785,785,785,785,785,785,785,786,787,787,787,787,787,787,787,787,787,789,791,795,799,804,811,816,823,826,835,841,851,862,873,894,903,908,913,916,918,919,920,921,923,934,946,948,964,972,988,993,998,1002,1007,1012,1014,1015,1015,1015,1016,1019,1021,1022,1022,1024,1027,1030,1032,1034,1036,1045,1048,1051,1052,1053,1053,1053,1053,1053,1053,1053,1055,1059,1064,1071,1079,1082,1085,1087,1088,1088,1088,1088,1088,1088,1090,1090,1091,1091,1092,1094,1099,1104,1110,1118,1120,1121,1121,1121,1121,1121,1121,1121,1121,1121,1121,1121,1121,1121,1121,1121,1121,1123,1123,1125,1129,1132],"ymouse":[543,543,543,543,543,543,543,543,543,543,543,543,541,533,531,526,523,523,523,523,523,523,523,523,523,523,523,522,521,521,521,521,521,521,521,521,520,518,516,513,509,505,497,491,482,478,465,456,444,430,419,398,387,381,374,371,367,365,363,361,359,343,325,319,299,288,270,264,257,254,250,246,246,245,245,245,244,243,242,242,242,242,241,240,239,238,237,231,228,225,223,222,222,222,222,222,222,221,220,212,203,192,177,169,163,160,157,157,157,157,157,157,156,156,155,155,154,153,150,146,141,131,128,127,127,127,127,127,127,127,127,127,127,127,127,127,127,125,123,119,114,110,103,99],"timestamp_mouse":[10,30,49,69,90,109,129,149,170,189,210,229,248,269,289,309,328,349,369,390,408,428,450,470,489,509,529,549,570,590,609,629,650,669,689,710,729,749,768,789,809,829,850,869,889,908,930,949,969,989,1009,1030,1049,1070,1089,1109,1129,1149,1169,1190,1209,1229,1249,1268,1289,1309,1330,1349,1370,1389,1409,1429,1449,1469,1489,1509,1530,1549,1569,1590,1608,1630,1649,1669,1689,1709,1729,1750,1769,1790,1809,1829,1850,1869,1890,1909,1930,1950,1968,1989,2009,2029,2049,2069,2089,2109,2129,2150,2169,2190,2209,2229,2249,2270,2290,2309,2329,2349,2369,2389,2409,2430,2449,2469,2489,2510,2530,2549,2570,2589,2609,2630,2649,2669,2689,2708,2730,2748,2770,2789,2810,2828,2849,2869],"xSR":741.5,"ySR":469.95,"xT1":424.9,"yT1":0,"xT2":1058.1,"yT2":0,"toosoon":0,"cond_shown":"equaldotsize","ratio_trial":750,"smaller_num":"15","larger_num":"20","correct_side":2,"subjID":"ValeriaPorrasMuñoz18","gender":"1","age":"8","school":"4"},{"start_time":1552309766314,"click_time":1552309769487,"finger_time":1552309767408,"fix_duration":685.1931503656757,"trial":8,"RT":1094,"MT":2079,"sideResp":1,"stimulus":"img/250/equaldotsize/L/15_Ratio_250_L_12_R_3.png","xmouse":[776,776,776,776,776,776,776,776,776,776,776,776,776,776,776,776,776,776,776,776,776,776,776,776,776,776,776,776,776,776,776,776,776,776,776,776,776,776,776,776,776,776,776,776,776,776,776,770,766,760,756,753,748,745,732,716,700,669,660,653,653,652,652,652,651,650,647,642,633,622,604,588,566,557,549,544,538,532,529,528,526,525,523,522,522,520,519,519,518,518,518,518,517,517,515,514,513,512,512,512,512,512,512,512,512,512,512,512,512,512,512,512,511,508,505,502,501,499,499,499,497,497,495,495,493,491,491,490,490,489,489,488,486,485,485,484,484,482,479,479,475,472,467,465,465,465,465,465,465,465,465,465,465,465,465,465,464,463,461],"ymouse":[522,522,522,522,522,522,522,522,522,522,522,522,522,522,522,522,522,522,522,522,522,522,522,522,522,522,522,522,522,522,522,522,522,522,522,522,522,522,522,522,522,522,522,522,522,522,522,522,519,515,512,509,504,501,494,483,471,451,445,440,440,440,440,440,440,440,439,437,435,430,418,406,387,379,373,369,364,358,356,354,352,351,347,346,344,341,339,338,336,334,331,329,318,313,307,303,300,289,280,270,257,241,233,226,225,224,224,224,224,224,223,222,219,213,209,205,202,200,199,198,196,196,193,190,187,185,183,182,181,179,179,176,173,171,170,169,169,166,162,161,156,152,144,142,142,142,142,142,142,142,142,142,141,130,124,117,111,105,94],"timestamp_mouse":[14,34,56,74,94,113,134,154,173,193,212,232,254,274,292,312,332,352,372,394,413,432,452,472,494,512,532,552,573,592,614,633,652,672,692,714,733,752,774,793,814,833,852,874,892,912,933,953,973,992,1012,1033,1053,1074,1094,1113,1134,1152,1172,1192,1214,1233,1253,1272,1294,1313,1332,1352,1372,1394,1413,1433,1452,1472,1492,1512,1533,1552,1573,1594,1614,1632,1653,1673,1694,1714,1732,1752,1773,1794,1814,1833,1853,1872,1892,1912,1933,1953,1973,1992,2012,2033,2053,2073,2093,2112,2133,2153,2173,2192,2213,2234,2253,2273,2292,2313,2333,2353,2374,2392,2413,2434,2453,2473,2493,2512,2533,2553,2573,2593,2614,2632,2653,2673,2694,2714,2733,2753,2773,2793,2812,2833,2853,2873,2893,2912,2933,2953,2974,2994,3013,3032,3053,3074,3093,3112,3133,3153,3173],"xSR":741.5,"ySR":469.95,"xT1":424.9,"yT1":0,"xT2":1058.1,"yT2":0,"toosoon":0,"cond_shown":"equaldotsize","ratio_trial":250,"smaller_num":"3","larger_num":"12","correct_side":1,"subjID":"ValeriaPorrasMuñoz18","gender":"1","age":"8","school":"4"},{"start_time":1552309773365,"click_time":1552309776266,"finger_time":1552309775187,"fix_duration":796.1050164919974,"trial":9,"RT":1822,"MT":1079,"sideResp":1,"stimulus":"img/250/equaldotsize/L/5_Ratio_250_L_24_R_6.png","xmouse":[796,796,796,796,796,796,796,796,796,796,796,796,796,796,796,796,796,796,796,796,796,796,796,796,796,796,796,796,796,796,796,796,796,796,796,796,796,796,796,796,796,796,796,796,796,796,796,796,796,796,796,796,796,796,796,796,796,796,796,796,796,796,796,796,796,796,796,796,796,796,796,796,796,796,796,796,796,796,796,796,796,796,796,796,796,796,796,796,796,794,788,710,639,554,483,423,351,336,324,318,311,295,286,278,273,270,270,270,270,270,270,269,272,277,283,293,306,310,317,325,333,343,369,378,393,396,404,407,407,409,411,416,418,422,425,430,435,437,441,443,445,446,447,449,450,450],"ymouse":[515,515,515,515,515,515,515,515,515,515,515,515,515,515,515,515,515,515,515,515,515,515,515,515,515,515,515,515,515,515,515,515,515,515,515,515,515,515,515,515,515,515,515,515,515,515,515,515,515,515,515,515,515,515,515,515,515,515,515,515,515,515,515,515,515,515,515,515,515,515,515,515,515,515,515,515,515,515,515,515,515,515,515,515,515,515,515,515,515,515,514,508,508,512,522,531,537,537,537,536,534,527,525,522,520,518,518,518,518,518,518,517,512,505,496,488,470,461,448,431,413,392,348,331,312,307,297,296,295,294,292,287,284,278,275,265,247,235,221,206,189,153,137,122,110,92],"timestamp_mouse":[3,25,41,62,81,101,121,143,163,181,201,221,242,263,281,303,322,341,362,383,402,422,443,462,482,502,521,543,562,583,603,621,641,661,681,702,722,741,763,783,801,821,843,862,881,901,922,942,962,981,1001,1022,1042,1062,1081,1102,1122,1143,1162,1181,1202,1221,1242,1263,1281,1301,1322,1342,1362,1381,1401,1422,1442,1462,1482,1502,1522,1542,1561,1581,1601,1622,1642,1662,1683,1702,1722,1742,1761,1781,1803,1822,1841,1861,1881,1902,1922,1941,1962,1981,2001,2021,2042,2062,2082,2102,2122,2141,2163,2182,2203,2221,2241,2262,2282,2303,2321,2341,2361,2382,2401,2421,2442,2461,2482,2502,2522,2542,2562,2582,2602,2621,2641,2662,2682,2702,2722,2741,2761,2781,2802,2821,2841,2861,2881,2901],"xSR":741.5,"ySR":469.95,"xT1":424.9,"yT1":0,"xT2":1058.1,"yT2":0,"toosoon":0,"cond_shown":"equaldotsize","ratio_trial":250,"smaller_num":"6","larger_num":"24","correct_side":1,"subjID":"ValeriaPorrasMuñoz18","gender":"1","age":"8","school":"4"},{"start_time":1552309778757,"click_time":1552309781246,"finger_time":1552309779686,"fix_duration":250,"trial":10,"RT":929,"MT":1560,"sideResp":2,"stimulus":"img/250/equaldotsize/R/12_Ratio_250_L_5_R_20.png","xmouse":[789,790,792,794,795,795,796,797,797,797,797,797,797,797,797,797,797,797,797,797,797,797,797,797,797,797,797,797,797,797,797,797,797,797,797,797,797,797,797,797,797,797,797,808,823,841,866,933,961,991,1011,1029,1055,1058,1061,1062,1062,1062,1064,1065,1069,1081,1092,1101,1107,1112,1115,1116,1117,1117,1117,1119,1124,1135,1146,1156,1179,1190,1201,1209,1214,1219,1220,1220,1220,1220,1220,1221,1221,1221,1222,1223,1223,1221,1211,1200,1191,1174,1171,1170,1170,1170,1170,1170,1170,1170,1170,1170,1170,1170,1170,1171,1178,1181,1182,1184,1185,1185,1185,1185,1185,1185,1170,1161,1157],"ymouse":[560,557,547,541,533,528,525,521,520,519,519,519,519,519,519,519,519,519,519,519,519,519,518,518,518,518,518,518,518,518,518,518,518,518,518,518,518,518,518,518,518,518,516,506,493,480,462,421,402,381,365,352,336,334,333,332,332,332,332,332,332,330,329,326,323,321,320,319,319,319,319,318,316,309,303,296,281,273,266,262,258,251,250,250,250,250,250,249,248,247,242,236,235,232,228,223,220,214,213,213,212,206,203,201,201,201,201,200,199,197,195,194,179,174,170,166,161,160,159,158,158,156,133,113,98],"timestamp_mouse":[9,30,51,71,90,110,129,150,171,191,210,230,251,269,290,311,331,349,370,390,411,430,450,469,489,511,531,549,570,590,611,631,649,670,691,710,730,750,769,790,810,830,850,869,889,910,929,950,969,990,1010,1031,1050,1071,1090,1109,1131,1150,1170,1190,1211,1231,1249,1269,1289,1310,1329,1350,1370,1390,1410,1429,1449,1470,1491,1511,1531,1549,1569,1590,1609,1630,1650,1670,1690,1709,1729,1750,1769,1789,1809,1830,1849,1869,1889,1910,1930,1949,1969,1989,2010,2031,2049,2069,2090,2111,2130,2149,2169,2189,2210,2229,2249,2270,2290,2310,2331,2349,2369,2391,2410,2429,2449,2469,2489],"xSR":741.5,"ySR":469.95,"xT1":424.9,"yT1":0,"xT2":1058.1,"yT2":0,"toosoon":0,"cond_shown":"equaldotsize","ratio_trial":250,"smaller_num":"5","larger_num":"20","correct_side":2,"subjID":"ValeriaPorrasMuñoz18","gender":"1","age":"8","school":"4"},{"start_time":1552309785292,"click_time":1552309787626,"finger_time":1552309786527,"fix_duration":582.3567385788205,"trial":11,"RT":1235,"MT":1099,"sideResp":2,"stimulus":"img/250/randomdotsizeEA/R/9_Ratio_250_L_3_R_12.png","xmouse":[761,761,761,761,761,761,761,761,761,761,761,761,761,761,761,761,761,761,761,761,761,761,761,761,761,761,761,761,761,761,761,761,761,761,761,761,761,761,761,761,761,761,761,761,761,761,761,761,761,761,761,761,761,761,761,761,761,761,761,765,775,846,934,962,1043,1074,1123,1139,1159,1177,1189,1189,1189,1189,1189,1191,1194,1201,1206,1211,1222,1229,1239,1244,1247,1250,1253,1253,1253,1253,1253,1255,1255,1256,1256,1256,1244,1234,1222,1216,1211,1211,1210,1204,1200,1184,1178,1173,1172,1170,1166,1165,1164,1164,1163,1161,1157],"ymouse":[497,497,497,497,497,497,497,497,497,497,497,497,497,497,497,497,497,497,497,497,497,497,497,497,497,497,497,497,497,497,497,497,497,497,497,497,497,497,497,497,497,497,497,497,497,497,497,497,497,497,497,497,497,497,497,497,497,497,497,496,489,441,399,389,375,375,375,375,375,372,370,370,370,370,370,370,369,368,368,364,356,347,328,312,293,270,220,192,161,128,101,57,44,35,33,32,27,23,16,13,12,12,12,12,12,12,12,12,12,12,12,13,13,13,13,13,15],"timestamp_mouse":[16,36,56,75,94,115,134,156,175,195,214,235,254,274,296,314,335,356,375,396,414,434,455,475,496,514,535,554,575,595,614,635,656,675,696,714,735,754,775,796,815,835,854,874,895,915,935,955,975,996,1015,1035,1056,1076,1094,1115,1134,1155,1176,1195,1215,1235,1255,1276,1296,1314,1335,1355,1374,1395,1415,1436,1456,1474,1494,1515,1534,1555,1574,1594,1615,1634,1656,1674,1694,1715,1735,1754,1774,1795,1815,1835,1854,1874,1895,1914,1935,1955,1974,1995,2015,2035,2055,2075,2096,2114,2135,2155,2174,2195,2216,2234,2255,2275,2295,2314,2334],"xSR":741.5,"ySR":469.95,"xT1":424.9,"yT1":0,"xT2":1058.1,"yT2":0,"toosoon":0,"cond_shown":"randomdotsizeEA","ratio_trial":250,"smaller_num":"3","larger_num":"12","correct_side":2,"subjID":"ValeriaPorrasMuñoz18","gender":"1","age":"8","school":"4"},{"start_time":1552309792599,"click_time":1552309795326,"finger_time":1552309793746,"fix_duration":512.6748871125393,"trial":12,"RT":1147,"MT":1580,"sideResp":1,"stimulus":"img/750/randomdotsizeEA/R/2_Ratio_750_L_6_R_8.png","xmouse":[813,813,813,813,813,813,813,813,813,813,813,813,813,812,811,811,809,808,805,803,802,802,802,802,802,802,802,802,802,802,802,802,802,802,802,802,802,802,802,802,802,802,802,802,802,802,802,802,802,802,802,802,801,798,787,775,764,744,737,732,731,731,731,731,731,731,731,731,731,731,733,745,754,767,798,831,905,941,972,996,1021,1048,1056,1058,1058,1059,1035,1015,978,909,834,757,604,567,567,567,567,567,567,567,567,567,567,567,567,567,567,567,567,567,567,567,567,567,567,567,351,365,372,378,385,390,401,412,415,420,420,420,424,427,430,431,428,425,422,422,431],"ymouse":[552,549,547,546,546,546,546,546,546,546,546,546,546,546,546,546,545,545,544,543,543,543,543,543,543,543,543,543,543,543,543,543,543,543,543,543,543,543,543,543,543,543,543,543,543,543,543,543,543,543,543,543,542,540,518,496,477,436,421,413,411,410,410,410,410,410,410,410,410,409,409,410,410,411,411,411,401,396,389,382,375,364,360,358,358,357,351,344,327,289,242,182,44,9,9,9,9,9,9,9,9,9,9,9,9,9,9,9,9,9,9,9,9,9,9,9,14,65,89,112,131,151,191,217,229,236,236,236,235,232,226,207,170,145,121,101,75],"timestamp_mouse":[8,30,47,69,88,107,127,148,168,188,209,227,247,269,288,308,328,348,368,389,408,428,448,468,489,508,528,547,567,589,609,627,647,667,689,708,728,747,768,789,809,827,848,869,889,907,927,947,968,989,1008,1029,1048,1067,1088,1107,1127,1147,1167,1188,1207,1228,1248,1268,1288,1307,1327,1348,1368,1389,1408,1428,1447,1468,1487,1507,1527,1547,1567,1587,1607,1627,1647,1668,1688,1707,1728,1748,1769,1788,1808,1827,1847,1867,1887,1907,1927,1947,1967,1988,2009,2028,2048,2068,2087,2108,2127,2147,2167,2188,2208,2228,2248,2269,2288,2307,2327,2347,2367,2387,2408,2427,2448,2467,2489,2509,2527,2548,2568,2587,2607,2627,2649,2667,2688,2707,2727],"xSR":741.5,"ySR":469.95,"xT1":424.9,"yT1":0,"xT2":1058.1,"yT2":0,"toosoon":0,"cond_shown":"randomdotsizeEA","ratio_trial":750,"smaller_num":"6","larger_num":"8","correct_side":2,"subjID":"ValeriaPorrasMuñoz18","gender":"1","age":"8","school":"4"},{"start_time":1552309798755,"click_time":1552309800466,"finger_time":1552309799746,"fix_duration":888.1804689925325,"trial":13,"RT":991,"MT":720,"sideResp":2,"stimulus":"img/250/randomdotsizeEA/R/4_Ratio_250_L_3_R_12.png","xmouse":[805,805,805,805,805,805,805,805,805,805,805,805,805,805,805,805,805,805,805,805,805,805,805,805,805,805,805,805,805,805,805,805,805,805,805,805,805,805,805,805,805,805,805,805,805,805,805,805,822,954,1048,1100,1113,1118,1129,1136,1147,1163,1178,1197,1206,1215,1223,1230,1238,1238,1239,1239,1240,1241,1241,1241,1241,1241,1243,1244,1245,1245,1245,1245,1243,1224,1196,1164,1108,1098],"ymouse":[542,542,542,542,542,542,542,542,542,542,542,542,542,542,542,542,542,542,542,542,542,542,542,542,542,542,542,542,542,542,542,542,542,542,542,542,542,542,542,542,542,542,542,542,542,542,542,542,542,506,483,469,465,464,464,464,460,452,444,430,424,418,412,406,390,386,381,378,375,365,355,344,333,324,316,315,314,314,313,311,303,275,232,187,111,96],"timestamp_mouse":[12,32,51,71,92,113,133,152,173,192,211,232,251,272,291,312,331,351,371,392,412,433,452,473,492,511,531,551,572,591,611,631,652,671,692,713,731,751,773,791,811,831,852,871,892,911,933,952,972,991,1011,1032,1052,1072,1093,1111,1131,1152,1173,1192,1212,1232,1252,1273,1292,1312,1333,1351,1372,1391,1412,1433,1452,1473,1491,1511,1532,1553,1572,1591,1611,1631,1653,1672,1691,1711],"xSR":741.5,"ySR":469.95,"xT1":424.9,"yT1":0,"xT2":1058.1,"yT2":0,"toosoon":0,"cond_shown":"randomdotsizeEA","ratio_trial":250,"smaller_num":"3","larger_num":"12","correct_side":2,"subjID":"ValeriaPorrasMuñoz18","gender":"1","age":"8","school":"4"},{"start_time":1552309803947,"click_time":1552309810206,"finger_time":1552309805987,"fix_duration":1238.6258977153686,"trial":14,"RT":2040,"MT":4219,"sideResp":2,"stimulus":"img/750/equaldotanddens/R/4_Ratio_750_L_15_R_20.png","xmouse":[808,808,808,808,808,808,808,808,808,808,808,808,808,808,808,808,808,808,808,808,808,808,808,808,808,808,808,808,808,808,808,808,808,808,808,808,808,808,808,808,808,808,808,808,808,808,808,808,808,808,808,808,808,808,808,808,808,808,808,808,808,808,808,808,808,808,808,808,808,808,808,808,808,808,808,808,808,808,808,808,808,808,809,809,809,810,810,810,810,809,809,809,809,809,809,809,809,809,814,817,823,841,848,853,861,882,893,901,909,914,919,927,932,938,942,948,956,958,959,960,961,961,961,963,967,967,971,975,978,985,994,995,1000,1002,1004,1004,1004,1004,1004,1004,1004,1005,1005,1005,1006,1007,1011,1012,1012,1012,1012,973,955,946,944,944,944,945,945,945,945,945,945,945,945,945,945,945,948,954,954,954,954,954,954,954,954,954,954,954,954,954,954,954,954,954,954,954,954,954,954,954,954,954,954,954,954,954,954,954,954,954,954,954,954,954,954,954,954,954,954,954,954,954,954,954,954,954,954,954,954,954,954,954,939,848,683,626,587,556,535,521,519,518,518,518,518,518,517,514,510,498,485,468,445,445,445,445,445,445,445,445,445,445,445,445,445,445,445,445,445,445,445,445,445,445,445,445,445,445,445,445,445,445,445,445,445,445,445,445,445,1369,1504,1504,1504,1504,1504,1504,1504,1504,1504,1504,1504,1504,1504,1504,1504,1504,1504,1504,1504,1504,1504,1504,1504,1504,1504,1504,1504,1504,1504,1504,1504,1152],"ymouse":[495,495,495,495,495,495,495,495,495,495,495,495,495,495,495,495,495,495,495,495,495,495,495,495,495,495,495,495,495,495,495,495,495,495,495,495,495,495,495,495,495,495,495,495,495,495,495,495,495,495,495,495,495,495,495,495,495,495,495,495,495,495,495,495,495,495,495,495,495,495,495,495,495,495,495,495,495,495,495,499,502,502,503,503,503,503,503,503,505,506,518,525,525,525,525,525,525,525,526,525,522,514,511,509,505,492,484,476,469,463,457,443,431,422,415,408,395,389,381,373,369,367,367,364,359,357,353,346,337,330,316,315,310,308,308,307,307,307,307,307,307,307,301,294,285,275,258,255,252,251,248,236,227,220,219,219,218,217,217,216,216,216,216,216,216,216,216,216,215,214,214,214,214,214,214,214,214,214,214,214,214,214,214,214,214,214,214,214,214,214,214,214,214,214,214,214,214,214,214,214,214,214,214,214,214,214,214,214,214,214,214,214,214,214,214,214,214,214,214,214,214,214,214,214,224,277,404,467,522,570,620,655,659,661,661,661,661,662,664,667,670,681,690,703,719,719,719,719,719,719,719,719,719,719,719,719,719,719,719,719,719,719,719,719,719,719,719,719,719,719,719,719,719,719,719,719,719,719,719,719,719,657,599,599,599,599,599,599,599,599,599,599,599,599,599,599,599,599,599,599,599,599,599,599,599,599,599,599,599,599,599,599,599,26],"timestamp_mouse":[0,21,41,60,79,100,120,141,160,180,200,220,241,260,279,301,320,341,359,379,401,421,440,459,479,499,520,541,560,580,599,620,641,660,680,700,721,739,760,779,799,819,841,861,879,899,919,941,960,979,999,1020,1041,1061,1080,1100,1121,1141,1161,1180,1201,1219,1240,1260,1280,1301,1320,1341,1360,1379,1400,1421,1440,1460,1480,1500,1520,1541,1560,1579,1600,1621,1640,1660,1679,1700,1720,1741,1759,1779,1800,1820,1840,1860,1879,1901,1921,1939,1959,1979,1999,2019,2040,2059,2080,2100,2120,2139,2159,2179,2199,2219,2239,2259,2279,2299,2320,2339,2359,2379,2399,2419,2439,2459,2479,2499,2521,2540,2559,2580,2600,2620,2641,2660,2680,2701,2719,2739,2760,2781,2801,2820,2840,2860,2880,2899,2920,2939,2961,2980,3000,3019,3040,3060,3080,3100,3120,3139,3161,3180,3201,3219,3241,3260,3280,3299,3320,3339,3359,3380,3400,3419,3439,3460,3480,3501,3520,3541,3560,3579,3601,3620,3640,3660,3680,3701,3721,3739,3760,3780,3801,3819,3840,3860,3880,3899,3919,3941,3960,3979,4000,4020,4040,4061,4080,4100,4119,4141,4161,4181,4200,4221,4240,4260,4280,4300,4319,4339,4360,4379,4400,4419,4439,4460,4480,4499,4519,4539,4560,4579,4601,4620,4640,4660,4679,4699,4720,4740,4759,4781,4800,4820,4840,4860,4880,4900,4920,4940,4961,4979,4999,5020,5040,5059,5079,5101,5120,5140,5160,5181,5200,5219,5240,5259,5280,5301,5319,5340,5359,5379,5399,5420,5440,5459,5479,5501,5521,5540,5560,5581,5601,5620,5640,5660,5680,5700,5720,5739,5759,5779,5799,5821,5840,5860,5880,5901,5921,5941,5960,5979,5999,6019,6039,6059,6080,6100,6120,6139,6160,6180,6200,6221,6240,6259],"xSR":741.5,"ySR":469.95,"xT1":424.9,"yT1":0,"xT2":1058.1,"yT2":0,"toosoon":0,"cond_shown":"equaldotanddens","ratio_trial":750,"smaller_num":"15","larger_num":"20","correct_side":2,"subjID":"ValeriaPorrasMuñoz18","gender":"1","age":"8","school":"4"},{"start_time":1552309812617,"click_time":1552309814066,"finger_time":1552309813608,"fix_duration":250,"trial":15,"RT":991,"MT":458,"sideResp":1,"stimulus":"img/900/equaldotanddens/L/10_Ratio_900_L_20_R_18.png","xmouse":[766,765,761,759,758,757,756,755,753,752,751,751,751,749,749,748,748,747,746,746,746,745,744,744,744,744,744,744,744,744,744,744,744,744,744,744,744,744,744,744,744,744,744,744,744,744,744,744,744,741,734,726,703,692,689,681,680,680,680,680,680,680,680,680,678,678,674,665,623,587,552,523,506],"ymouse":[497,496,494,494,494,494,494,494,494,493,493,493,493,493,493,493,493,493,493,493,493,493,493,493,493,493,493,493,493,493,493,493,493,493,493,493,493,493,493,493,493,493,493,493,493,493,493,493,493,485,470,453,404,376,369,356,353,353,353,353,353,353,353,353,352,351,345,331,271,215,153,103,72],"timestamp_mouse":[10,31,54,70,90,110,130,150,169,189,209,229,251,271,289,311,331,351,370,389,410,431,450,470,491,511,529,549,570,591,611,631,649,670,691,710,731,750,770,791,810,830,850,869,890,909,929,949,970,991,1011,1031,1050,1069,1089,1109,1130,1150,1169,1190,1211,1229,1251,1271,1290,1309,1330,1349,1370,1390,1410,1429,1449],"xSR":741.5,"ySR":469.95,"xT1":424.9,"yT1":0,"xT2":1058.1,"yT2":0,"toosoon":0,"cond_shown":"equaldotanddens","ratio_trial":900,"smaller_num":"18","larger_num":"20","correct_side":1,"subjID":"ValeriaPorrasMuñoz18","gender":"1","age":"8","school":"4"},{"start_time":1552309820948,"click_time":1552309825886,"finger_time":1552309824486,"fix_duration":640.5041595061509,"trial":16,"RT":3538,"MT":1400,"sideResp":1,"stimulus":"img/250/randomdotsizeEA/L/5_Ratio_250_L_24_R_6.png","xmouse":[798,798,798,798,798,798,798,798,798,798,798,798,798,798,798,798,798,798,798,798,798,798,798,798,798,798,798,798,798,798,798,798,798,798,798,798,798,798,798,798,798,798,798,798,798,798,798,798,798,798,798,798,787,782,782,782,782,782,782,782,783,783,783,783,783,783,783,783,783,783,783,783,783,783,783,783,783,783,783,783,783,783,783,783,783,783,783,783,783,783,783,783,783,785,786,788,789,790,790,790,790,790,790,790,790,790,790,790,790,790,790,790,790,790,790,790,790,790,790,790,790,790,790,790,790,790,790,790,791,791,791,791,791,791,792,792,793,793,793,793,793,793,793,793,793,793,793,793,794,795,795,795,795,795,795,795,795,795,795,795,795,795,792,787,783,780,780,780,780,780,780,779,765,759,753,746,741,739,739,739,739,739,742,743,745,745,745,745,745,746,746,746,746,746,745,743,742,729,710,686,624,607,535,529,529,529,527,513,506,503,503,503,502,503,503,503,503,503,496,486,470,455,420,418,418,418,420,425,427,429,430,432,438,440,444,445,448,450,450,450,451,451,451,451,451,451,451],"ymouse":[516,516,516,516,516,516,516,516,516,516,516,516,516,516,516,516,516,516,516,516,516,516,516,516,516,516,516,516,516,516,516,516,516,516,516,516,516,516,516,516,516,516,516,516,516,516,516,516,516,516,516,516,515,515,515,515,515,515,515,515,515,515,515,515,515,515,515,515,515,515,515,515,515,515,515,515,515,515,515,515,515,515,515,515,515,515,515,515,515,515,515,513,511,510,507,505,503,502,502,502,502,502,502,502,502,502,502,502,502,502,502,502,502,502,502,502,502,502,502,502,502,502,502,502,502,502,501,500,499,499,499,499,499,499,499,498,497,497,497,497,497,497,497,497,497,497,497,497,495,493,492,492,492,492,492,492,492,492,492,492,492,492,492,492,492,492,492,492,492,492,492,492,492,492,492,493,495,497,497,497,497,496,484,474,467,462,460,460,460,460,460,460,460,459,454,449,448,446,439,423,364,342,236,227,227,227,225,223,221,221,221,221,216,213,211,210,209,206,201,196,185,171,140,135,134,133,130,126,124,123,121,120,115,114,112,111,110,109,109,109,108,108,108,108,105,100,95],"timestamp_mouse":[20,39,58,79,99,119,138,160,179,200,220,238,258,279,298,319,339,358,378,398,420,440,458,479,500,519,538,558,578,598,619,639,660,680,699,720,739,760,779,799,820,839,860,878,898,919,939,960,979,1000,1020,1039,1059,1079,1099,1119,1139,1160,1179,1199,1220,1239,1258,1279,1300,1320,1339,1359,1378,1399,1418,1439,1458,1479,1499,1520,1539,1559,1578,1599,1619,1640,1660,1680,1698,1719,1739,1759,1780,1800,1820,1839,1859,1880,1900,1919,1939,1959,1979,1999,2019,2039,2059,2079,2100,2118,2138,2158,2178,2198,2218,2238,2258,2278,2298,2318,2338,2360,2380,2400,2420,2440,2460,2480,2499,2520,2540,2560,2580,2599,2620,2639,2659,2679,2700,2719,2739,2759,2779,2800,2820,2838,2858,2878,2899,2920,2939,2958,2979,2999,3018,3040,3060,3079,3099,3120,3140,3160,3178,3199,3220,3239,3259,3279,3298,3318,3339,3360,3379,3399,3419,3439,3458,3478,3499,3519,3538,3559,3579,3599,3618,3639,3660,3679,3698,3718,3739,3759,3778,3798,3819,3838,3858,3879,3899,3919,3940,3960,3978,3998,4018,4038,4058,4080,4100,4118,4139,4158,4178,4199,4218,4240,4258,4278,4299,4319,4339,4358,4378,4398,4419,4440,4459,4479,4498,4519,4539,4558,4579,4600,4620,4639,4658,4679,4699,4720,4739,4759,4779,4800,4819,4839,4858,4878,4900,4920,4938],"xSR":741.5,"ySR":469.95,"xT1":424.9,"yT1":0,"xT2":1058.1,"yT2":0,"toosoon":0,"cond_shown":"randomdotsizeEA","ratio_trial":250,"smaller_num":"6","larger_num":"24","correct_side":1,"subjID":"ValeriaPorrasMuñoz18","gender":"1","age":"8","school":"4"},{"start_time":1552309828592,"click_time":1552309830925,"finger_time":1552309830446,"fix_duration":504.3678744636563,"trial":17,"RT":1854,"MT":479,"sideResp":1,"stimulus":"img/500/randomdotsizeEA/L/5_Ratio_500_L_4_R_2.png","xmouse":[830,830,830,830,830,830,829,827,825,821,819,819,819,819,819,819,817,813,812,810,809,809,809,809,809,809,809,809,809,809,809,809,809,807,806,806,806,806,805,805,805,805,805,805,805,805,805,805,805,805,805,805,805,805,805,805,805,805,805,805,805,805,805,805,805,805,805,805,805,805,805,805,805,805,805,805,805,805,805,805,788,780,772,766,763,762,762,762,761,761,761,761,752,722,669,562,512,503,490,489,489,489,490,491,491,491,491,491,491,491,491,491,491,491,491,491,491],"ymouse":[513,513,513,513,511,508,508,507,507,507,506,506,506,506,506,506,506,506,506,506,506,506,506,506,506,506,506,506,506,506,506,506,506,506,506,506,506,506,506,506,506,506,506,506,506,506,506,506,506,506,506,506,506,506,506,506,506,506,506,506,506,506,506,506,506,506,506,506,506,506,506,506,506,506,506,506,506,506,506,506,506,506,507,507,507,507,507,507,507,505,500,477,456,412,341,208,150,140,125,124,124,121,115,110,105,102,102,102,102,102,102,102,102,102,102,100,94],"timestamp_mouse":[16,34,54,73,93,113,133,153,174,194,213,234,254,274,294,313,334,354,373,394,414,434,453,473,494,513,534,554,574,594,613,633,653,673,693,713,734,753,774,793,813,834,854,874,894,913,933,954,975,995,1013,1034,1054,1074,1094,1113,1134,1154,1173,1194,1213,1233,1254,1274,1295,1313,1334,1354,1373,1394,1414,1434,1454,1473,1494,1514,1533,1553,1573,1593,1613,1633,1654,1674,1693,1713,1735,1754,1774,1795,1814,1833,1854,1873,1893,1914,1933,1954,1973,1993,2014,2033,2053,2074,2094,2115,2133,2154,2173,2194,2214,2233,2253,2273,2293,2314,2333],"xSR":741.5,"ySR":469.95,"xT1":424.9,"yT1":0,"xT2":1058.1,"yT2":0,"toosoon":0,"cond_shown":"randomdotsizeEA","ratio_trial":500,"smaller_num":"2","larger_num":"4","correct_side":1,"subjID":"ValeriaPorrasMuñoz18","gender":"1","age":"8","school":"4"},{"start_time":1552309834120,"click_time":1552309836166,"finger_time":1552309834706,"fix_duration":1393.8392111903497,"trial":18,"RT":586,"MT":1460,"sideResp":1,"stimulus":"img/250/equaldotanddens/L/3_Ratio_250_L_8_R_2.png","xmouse":[751,751,751,751,749,747,747,747,747,747,746,746,745,745,744,744,744,744,744,744,744,744,744,743,743,743,742,742,742,741,740,740,740,740,740,740,740,739,738,731,720,716,711,701,690,661,648,633,618,600,583,575,567,558,552,539,534,528,521,516,511,511,511,511,511,511,509,504,498,492,492,492,492,492,492,492,492,492,492,492,492,492,492,492,492,492,491,489,489,488,488,488,488,488,488,488,488,488,488,488,487,486,485],"ymouse":[496,496,496,496,496,497,497,497,497,497,497,497,498,498,498,498,498,498,498,498,498,498,498,498,498,498,498,498,498,499,499,499,499,499,499,499,499,499,500,500,498,495,491,481,466,425,404,382,360,334,305,291,279,266,255,233,219,204,190,177,165,165,165,165,165,165,161,156,148,140,138,138,138,138,138,138,138,138,138,138,138,138,138,138,136,129,125,121,118,117,116,116,116,116,116,116,116,116,116,116,114,108,98],"timestamp_mouse":[6,25,46,65,86,105,125,147,165,186,205,225,245,266,285,305,325,346,366,387,406,426,446,466,485,506,525,546,566,586,605,625,646,667,686,705,725,746,765,785,805,825,845,866,885,905,925,946,966,985,1005,1025,1045,1066,1085,1105,1125,1145,1165,1185,1205,1227,1245,1265,1286,1305,1325,1345,1365,1385,1406,1425,1445,1466,1485,1505,1525,1545,1565,1586,1605,1625,1645,1666,1685,1705,1725,1745,1766,1785,1805,1826,1846,1866,1886,1905,1925,1945,1965,1986,2005,2025,2046],"xSR":741.5,"ySR":469.95,"xT1":424.9,"yT1":0,"xT2":1058.1,"yT2":0,"toosoon":0,"cond_shown":"equaldotanddens","ratio_trial":250,"smaller_num":"2","larger_num":"8","correct_side":1,"subjID":"ValeriaPorrasMuñoz18","gender":"1","age":"8","school":"4"},{"start_time":1552309839998,"click_time":1552309842327,"finger_time":1552309841005,"fix_duration":250,"trial":19,"RT":1007,"MT":1322,"sideResp":2,"stimulus":"img/250/randomdotsizeEA/R/12_Ratio_250_L_5_R_20.png","xmouse":[790,790,790,790,790,790,790,790,790,790,790,790,790,790,790,790,790,790,790,790,790,790,790,790,790,790,790,790,790,790,790,790,790,790,790,790,790,790,790,790,790,790,790,790,792,796,803,822,833,839,844,850,853,856,859,861,864,867,867,867,867,867,868,869,870,873,877,886,891,896,900,905,914,925,933,945,955,973,978,983,985,986,987,987,988,989,994,1008,1019,1028,1035,1041,1052,1055,1056,1057,1058,1058,1061,1064,1065,1073,1083,1088,1092,1097,1103,1111,1113,1116,1119,1123,1128,1130,1132,1132,1133],"ymouse":[524,524,524,524,524,524,524,524,524,524,524,524,524,524,522,522,521,521,521,521,521,521,521,521,521,521,521,521,521,521,521,521,521,521,521,521,521,521,521,521,521,521,521,521,521,521,520,512,508,503,500,495,493,492,491,489,487,486,486,486,486,486,485,484,483,481,478,472,468,466,464,461,457,450,445,437,431,420,416,410,409,408,408,408,407,406,401,386,373,362,354,347,335,332,331,330,329,329,324,319,315,295,272,255,237,221,204,176,166,154,146,137,119,112,106,102,97],"timestamp_mouse":[7,28,48,67,88,108,129,148,167,188,208,229,247,267,287,308,328,347,368,387,408,428,447,468,488,509,529,547,567,587,608,627,649,668,688,707,727,748,769,787,808,828,847,867,888,907,927,947,968,987,1007,1028,1047,1068,1088,1107,1128,1147,1167,1187,1208,1229,1249,1268,1287,1308,1327,1347,1367,1387,1408,1427,1448,1468,1488,1508,1528,1547,1568,1588,1608,1627,1647,1667,1687,1707,1727,1748,1768,1788,1808,1827,1848,1868,1887,1907,1928,1948,1967,1987,2008,2028,2048,2067,2088,2108,2129,2148,2169,2187,2208,2228,2248,2268,2289,2307,2328],"xSR":741.5,"ySR":469.95,"xT1":424.9,"yT1":0,"xT2":1058.1,"yT2":0,"toosoon":0,"cond_shown":"randomdotsizeEA","ratio_trial":250,"smaller_num":"5","larger_num":"20","correct_side":2,"subjID":"ValeriaPorrasMuñoz18","gender":"1","age":"8","school":"4"},{"start_time":1552309845447,"click_time":1552309847346,"finger_time":1552309845806,"fix_duration":479.8006039653628,"trial":20,"RT":359,"MT":1540,"sideResp":1,"stimulus":"img/500/equaldotanddens/L/4_Ratio_500_L_18_R_9.png","xmouse":[764,764,764,764,764,764,764,764,764,765,766,770,771,776,787,795,805,819,822,825,825,825,825,825,825,825,825,825,825,825,825,825,825,825,822,818,816,814,809,805,800,790,770,734,591,502,419,368,339,336,344,356,368,377,390,394,396,397,397,397,397,397,397,397,397,397,397,397,397,397,398,399,401,403,404,406,409,416,421,426,432,434,435,436,438,439,439,440,440,442,444,446,448,449,455],"ymouse":[520,520,520,520,520,520,520,520,520,520,518,515,514,510,498,492,484,469,466,462,462,462,462,462,462,462,462,462,462,462,462,462,462,462,462,461,461,460,459,459,457,456,453,446,393,354,308,277,255,244,230,214,191,169,134,124,117,115,115,115,115,115,115,115,115,115,115,115,115,115,114,114,114,114,114,113,112,111,109,108,107,107,107,107,107,107,107,106,106,105,105,104,102,100,94],"timestamp_mouse":[20,38,58,79,98,120,140,159,179,198,219,239,259,278,299,318,338,359,378,398,418,438,458,478,498,518,539,559,579,598,619,638,658,679,699,719,739,759,779,798,818,839,859,878,899,918,938,958,978,998,1018,1038,1058,1078,1098,1118,1138,1158,1179,1198,1219,1238,1259,1280,1299,1318,1338,1358,1379,1398,1418,1439,1459,1478,1499,1519,1538,1558,1578,1598,1618,1638,1659,1678,1699,1718,1738,1759,1778,1799,1819,1839,1859,1879,1899],"xSR":741.5,"ySR":469.95,"xT1":424.9,"yT1":0,"xT2":1058.1,"yT2":0,"toosoon":0,"cond_shown":"equaldotanddens","ratio_trial":500,"smaller_num":"9","larger_num":"18","correct_side":1,"subjID":"ValeriaPorrasMuñoz18","gender":"1","age":"8","school":"4"},{"start_time":1552309852616,"click_time":1552309854826,"finger_time":1552309853846,"fix_duration":928.3536494972531,"trial":21,"RT":1230,"MT":980,"sideResp":2,"stimulus":"img/900/equaldotsize/R/9_Ratio_900_L_18_R_20.png","xmouse":[788,788,788,788,788,788,788,788,788,788,788,788,788,787,787,787,787,787,787,787,787,787,787,787,787,787,787,787,787,787,787,787,787,787,787,787,787,787,787,787,787,787,787,787,787,785,785,784,784,783,783,783,787,788,788,788,789,804,818,830,841,850,868,875,882,888,895,901,902,904,905,907,920,930,939,959,970,985,1011,1026,1038,1048,1064,1069,1076,1079,1087,1095,1099,1102,1107,1112,1123,1129,1138,1145,1153,1159,1159,1159,1160,1160,1160,1160,1160,1160,1160,1159,1158,1157,1154],"ymouse":[550,550,550,550,550,550,550,550,550,550,550,549,549,548,548,548,548,548,548,548,548,548,548,548,548,548,548,548,548,548,548,548,548,548,548,548,548,548,548,548,548,548,548,548,548,547,546,545,545,544,544,542,540,539,539,539,539,536,534,528,520,514,500,495,488,483,478,472,471,467,466,463,444,430,413,382,363,343,303,285,268,252,225,216,207,203,193,182,176,172,165,158,141,134,130,125,118,112,110,110,110,110,110,110,110,110,109,107,105,101,97],"timestamp_mouse":[9,29,52,70,90,110,130,150,170,190,209,230,250,270,289,310,330,350,369,390,409,430,450,470,490,509,530,551,570,590,609,630,650,671,690,709,729,749,770,790,809,829,849,870,890,910,929,949,970,989,1009,1030,1049,1069,1089,1110,1130,1150,1169,1191,1209,1230,1249,1269,1289,1309,1329,1349,1369,1389,1409,1429,1449,1469,1489,1511,1529,1549,1570,1590,1610,1629,1649,1669,1689,1709,1730,1749,1769,1789,1810,1831,1850,1869,1890,1909,1930,1949,1970,1990,2010,2029,2049,2069,2089,2109,2129,2149,2169,2190,2210],"xSR":741.5,"ySR":469.95,"xT1":424.9,"yT1":0,"xT2":1058.1,"yT2":0,"toosoon":0,"cond_shown":"equaldotsize","ratio_trial":900,"smaller_num":"18","larger_num":"20","correct_side":2,"subjID":"ValeriaPorrasMuñoz18","gender":"1","age":"8","school":"4"},{"start_time":1552309858808,"click_time":1552309861185,"finger_time":1552309859886,"fix_duration":982.2407496541184,"trial":22,"RT":1078,"MT":1299,"sideResp":2,"stimulus":"img/750/equaldotsize/R/12_Ratio_750_L_3_R_4.png","xmouse":[793,793,793,793,793,793,793,793,793,791,790,789,788,788,788,788,788,788,788,788,788,788,788,784,782,782,782,782,782,782,782,782,782,782,782,782,782,782,782,782,782,782,782,782,782,782,784,785,793,800,807,817,828,844,852,861,873,882,909,920,933,940,951,980,992,1002,1011,1021,1035,1038,1045,1049,1051,1057,1058,1058,1059,1059,1059,1060,1060,1061,1066,1083,1098,1111,1129,1149,1187,1199,1209,1214,1218,1218,1218,1218,1217,1217,1217,1216,1213,1211,1208,1202,1199,1196,1194,1194,1192,1192,1191,1190,1189,1186,1185,1184,1182,1160,1128],"ymouse":[524,524,524,524,524,524,524,524,524,525,525,525,526,526,526,526,526,526,526,526,526,526,526,528,529,529,529,529,529,529,529,529,529,529,529,529,529,529,529,530,530,530,529,528,528,528,526,525,520,517,511,502,492,482,476,470,459,451,429,420,411,403,395,369,358,346,336,323,304,298,288,282,280,271,269,268,268,267,266,265,265,265,257,228,209,186,163,133,78,56,39,28,20,20,20,20,19,19,19,19,17,17,16,15,14,14,14,14,14,14,14,14,15,16,17,18,19,20,19],"timestamp_mouse":[18,38,57,78,97,117,138,157,178,198,218,238,257,278,297,318,337,359,377,397,418,437,457,477,497,517,537,557,577,598,619,637,657,678,697,717,737,757,778,798,817,838,857,878,897,917,937,957,977,997,1018,1039,1057,1078,1097,1117,1138,1157,1177,1197,1217,1237,1257,1277,1297,1317,1338,1357,1377,1398,1417,1437,1458,1477,1498,1517,1537,1557,1577,1597,1617,1637,1657,1678,1698,1718,1737,1757,1778,1797,1817,1838,1858,1877,1898,1917,1938,1957,1977,1997,2018,2037,2057,2077,2097,2117,2138,2157,2177,2197,2219,2237,2257,2277,2297,2317,2338,2357,2377],"xSR":741.5,"ySR":469.95,"xT1":424.9,"yT1":0,"xT2":1058.1,"yT2":0,"toosoon":0,"cond_shown":"equaldotsize","ratio_trial":750,"smaller_num":"3","larger_num":"4","correct_side":2,"subjID":"ValeriaPorrasMuñoz18","gender":"1","age":"8","school":"4"},{"start_time":1552309873420,"click_time":1552309875606,"finger_time":1552309874325,"fix_duration":1213.6330554513427,"trial":23,"RT":905,"MT":1281,"sideResp":1,"stimulus":"img/900/randomdotsizeEA/R/15_Ratio_900_L_9_R_10.png","xmouse":[793,793,793,793,793,793,793,793,793,793,793,793,793,793,793,793,793,793,793,793,793,793,793,793,792,792,790,789,788,787,785,784,782,781,780,780,780,780,780,780,780,781,785,796,831,851,872,881,890,911,923,936,952,968,997,1007,1023,1030,1033,1035,1035,1035,1033,1030,1013,999,941,884,810,622,571,571,571,571,571,571,571,571,571,571,571,571,571,571,571,571,571,571,571,571,571,571,242,263,281,302,304,304,306,307,310,313,316,321,332,378,402,421,435,442],"ymouse":[490,490,490,490,490,490,490,490,490,490,490,490,490,490,490,490,490,490,490,490,490,490,490,490,491,491,493,494,495,495,498,498,501,502,503,503,503,503,503,503,503,503,503,497,473,461,448,444,437,424,417,409,399,387,367,358,344,337,331,330,330,329,329,329,323,314,273,231,178,43,6,6,6,6,6,6,6,6,6,6,6,6,6,6,6,6,6,6,6,6,6,6,55,79,98,118,119,119,119,119,119,119,119,119,119,116,111,105,100,98],"timestamp_mouse":[5,25,45,66,87,106,126,147,165,185,205,227,246,265,285,305,326,346,365,386,406,425,445,466,487,505,525,546,565,585,605,625,646,665,685,705,725,746,766,786,806,826,846,865,885,905,926,945,965,986,1005,1026,1045,1065,1086,1105,1125,1145,1165,1185,1206,1225,1246,1266,1287,1306,1326,1345,1365,1386,1406,1426,1447,1466,1485,1505,1525,1546,1565,1585,1605,1625,1646,1665,1686,1706,1725,1745,1765,1785,1805,1825,1845,1865,1887,1906,1925,1947,1966,1985,2005,2025,2046,2065,2086,2105,2126,2145,2165,2186],"xSR":741.5,"ySR":469.95,"xT1":424.9,"yT1":0,"xT2":1058.1,"yT2":0,"toosoon":0,"cond_shown":"randomdotsizeEA","ratio_trial":900,"smaller_num":"9","larger_num":"10","correct_side":2,"subjID":"ValeriaPorrasMuñoz18","gender":"1","age":"8","school":"4"},{"start_time":1552309879169,"click_time":1552309889584,"finger_time":1552309879765,"fix_duration":1162.9712458617557,"trial":24,"RT":596,"MT":9819,"sideResp":1,"stimulus":"img/500/equaldotanddens/R/12_Ratio_500_L_1_R_2.png","xmouse":[775,773,765,760,757,752,749,749,749,749,749,749,751,752,754,754,757,758,758,758,758,758,758,758,758,755,754,747,742,736,731,724,706,695,684,672,662,659,661,666,675,681,693,697,700,701,701,699,699,699,699,699,699,699,699,699,699,699,699,699,699,699,699,699,699,699,699,699,699,699,699,699,699,699,699,699,699,699,699,699,699,699,699,699,699,699,699,699,699,699,699,699,699,699,699,699,699,699,699,699,699,699,699,499,446,416,388,342,317,286,250,211,119,95,83,77,77,76,76,76,76,76,84,86,87,88,90,96,106,129,166,215,325,388,455,555,600,649,653,654,654,654,656,667,673,685,698,714,744,755,763,770,780,782,786,791,796,800,808,810,811,813,814,821,823,824,826,827,827,826,823,820,814,810,807,805,804,804,804,803,803,802,801,801,799,799,798,794,792,789,788,786,782,782,782,782,782,782,782,782,782,782,782,782,782,782,782,782,782,782,782,782,782,782,782,782,782,782,782,782,782,782,782,782,782,782,782,782,782,782,782,783,783,783,783,783,783,783,783,783,783,782,782,782,782,782,782,782,782,782,782,782,782,782,782,782,782,782,782,782,782,782,782,782,782,782,782,782,782,782,782,782,782,782,782,782,782,782,782,782,782,782,782,782,782,782,782,782,782,782,782,782,782,782,782,782,782,782,780,776,772,765,754,741,739,739,739,739,739,739,739,739,739,739,739,741,744,754,770,775,781,788,793,803,808,811,812,814,816,817,817,817,817,817,817,817,817,817,817,817,817,817,817,817,817,817,817,817,817,817,817,817,817,817,817,817,817,817,817,817,817,817,817,817,815,810,805,803,799,798,798,798,798,798,798,798,798,798,798,798,798,798,798,798,798,798,798,798,798,798,798,798,797,797,797,797,797,797,797,797,797,797,797,797,797,797,797,797,797,797,797,797,797,797,797,796,795,794,792,792,792,791,791,791,791,791,791,791,791,791,792,792,793,795,795,796,796,797,798,798,798,798,798,798,798,798,798,798,798,798,798,798,798,798,798,798,798,798,798,798,798,798,798,798,797,794,793,793,793,793,793,793,759,697,545,545,545,545,545,545,545,545,545,545,545,545,545,545,545,545,545,545,545,545,545,545,545,545,545,545,545,322,330,334,334,334,334,334,335,339,344,351,359,367,370,373,376,381,401,415,431],"ymouse":[520,520,520,520,520,521,521,521,521,521,521,521,520,520,520,520,519,519,519,519,519,519,519,519,519,519,519,520,521,522,522,523,526,527,528,530,534,547,554,561,572,580,598,609,622,646,667,718,718,718,718,718,718,718,718,718,718,718,718,718,718,718,718,718,718,718,718,718,718,718,718,718,718,718,718,718,718,718,718,718,718,718,718,718,718,718,718,718,718,718,718,718,718,718,718,718,718,718,718,718,718,718,718,716,669,630,584,486,429,366,302,238,112,79,56,42,41,41,41,46,54,63,77,80,82,83,83,84,84,84,84,84,93,112,131,159,168,174,174,174,174,174,174,174,175,179,183,190,204,212,221,233,262,281,300,324,335,341,351,353,354,355,357,367,375,381,387,396,400,403,409,411,419,422,425,429,430,431,431,432,434,436,439,442,446,452,456,468,472,477,480,484,490,490,490,490,490,490,490,490,490,490,490,490,490,490,490,490,490,490,490,490,490,490,490,490,490,490,490,490,490,490,490,490,490,490,490,490,490,490,492,494,494,495,496,496,496,496,496,496,499,500,501,502,502,502,502,502,502,502,502,502,502,502,502,502,502,502,502,502,502,502,502,502,502,502,502,502,502,502,502,502,502,502,502,502,502,502,502,502,502,502,502,502,502,502,502,502,502,502,502,504,505,508,512,514,517,520,527,533,537,542,546,550,551,551,551,551,551,551,551,551,551,551,551,551,551,550,548,546,545,543,542,536,534,533,532,531,530,529,529,529,529,529,529,529,529,529,529,529,529,529,529,529,529,529,529,529,529,529,529,529,529,529,529,529,529,529,529,529,529,529,529,529,529,529,530,530,531,531,532,532,532,532,532,532,532,532,532,532,532,532,532,532,532,532,532,532,532,532,530,528,523,521,521,521,521,521,521,521,521,521,521,521,521,521,521,521,521,521,521,521,521,521,521,521,521,521,521,521,521,522,522,522,522,522,522,522,519,517,513,508,505,496,494,491,487,485,480,479,479,479,479,479,479,479,479,479,479,479,479,479,479,479,479,479,479,479,479,479,479,479,479,479,483,486,487,488,488,483,473,435,303,194,23,23,23,23,23,23,23,23,23,23,23,23,23,23,23,23,23,23,23,23,23,23,23,23,23,23,23,3,10,12,12,12,12,12,13,14,16,18,21,24,24,25,25,27,34,38,43],"timestamp_mouse":[17,36,57,77,96,116,138,157,176,197,216,238,257,276,296,316,338,358,377,396,417,436,457,476,497,516,536,556,576,596,617,636,656,676,696,717,736,756,776,796,816,836,856,877,896,917,936,956,976,996,1017,1036,1056,1077,1096,1117,1137,1156,1176,1197,1217,1236,1257,1277,1296,1317,1336,1356,1376,1396,1417,1436,1457,1476,1496,1516,1537,1556,1577,1597,1617,1636,1656,1677,1696,1716,1736,1756,1777,1796,1817,1836,1856,1878,1897,1916,1937,1957,1977,1996,2016,2036,2057,2076,2096,2116,2137,2157,2177,2197,2216,2236,2256,2276,2298,2316,2336,2356,2377,2398,2417,2437,2456,2477,2498,2516,2536,2557,2577,2597,2616,2637,2657,2677,2697,2717,2737,2756,2777,2797,2817,2837,2856,2877,2896,2917,2937,2956,2977,2997,3016,3037,3057,3076,3097,3117,3136,3156,3177,3196,3217,3236,3256,3277,3296,3316,3336,3357,3376,3397,3417,3436,3457,3477,3497,3518,3536,3556,3577,3596,3616,3637,3656,3676,3697,3717,3736,3757,3776,3796,3817,3838,3856,3877,3897,3916,3936,3958,3976,3996,4017,4037,4056,4077,4097,4116,4136,4157,4177,4196,4216,4237,4257,4277,4296,4316,4336,4357,4376,4396,4417,4436,4457,4477,4497,4517,4536,4556,4576,4598,4616,4636,4656,4676,4697,4716,4737,4756,4777,4796,4816,4836,4857,4877,4896,4917,4938,4957,4976,4997,5016,5037,5057,5076,5096,5117,5137,5157,5176,5198,5216,5236,5257,5276,5296,5317,5336,5356,5376,5397,5416,5438,5458,5477,5496,5516,5536,5556,5578,5596,5617,5638,5656,5677,5698,5717,5737,5757,5776,5796,5817,5836,5856,5877,5896,5917,5937,5956,5977,5996,6016,6036,6056,6076,6096,6117,6137,6157,6176,6196,6218,6238,6257,6276,6298,6317,6336,6356,6377,6396,6416,6438,6456,6477,6496,6517,6536,6556,6577,6596,6617,6637,6656,6676,6697,6716,6737,6756,6776,6797,6816,6836,6858,6877,6896,6916,6936,6956,6976,6996,7016,7036,7056,7078,7096,7116,7137,7157,7176,7197,7216,7236,7257,7276,7296,7317,7336,7356,7377,7396,7416,7437,7456,7477,7497,7516,7538,7556,7577,7596,7617,7637,7657,7676,7696,7716,7736,7756,7776,7796,7816,7837,7856,7876,7898,7916,7937,7957,7977,7996,8017,8036,8056,8076,8096,8117,8136,8157,8177,8196,8217,8236,8256,8277,8296,8317,8337,8357,8377,8397,8416,8437,8457,8476,8497,8518,8536,8557,8577,8597,8616,8636,8656,8676,8697,8716,8735,8756,8776,8797,8815,8835,8855,8876,8895,8917,8936,8955,8975,8996,9017,9035,9055,9077,9095,9116,9135,9156,9177,9195,9215,9235,9257,9275,9296,9315,9335,9356,9375,9396,9415,9435,9455,9475,9496,9515,9535,9555,9575,9596,9615,9635,9655,9675,9696,9716,9737,9756,9775,9795,9815,9835,9856,9875,9895,9916,9936,9955,9975,9995,10015,10035,10055,10076,10095,10116,10135,10155,10176,10195,10215,10235,10256,10275,10295,10316,10336,10356,10376,10395,10415],"xSR":741.5,"ySR":469.95,"xT1":424.9,"yT1":0,"xT2":1058.1,"yT2":0,"toosoon":0,"cond_shown":"equaldotanddens","ratio_trial":500,"smaller_num":"1","larger_num":"2","correct_side":2,"subjID":"ValeriaPorrasMuñoz18","gender":"1","age":"8","school":"4"},{"start_time":1552309892108,"click_time":1552309893485,"finger_time":1552309892885,"fix_duration":1142.9350001262908,"trial":25,"RT":777,"MT":600,"sideResp":2,"stimulus":"img/900/equaldotanddens/L/1_Ratio_900_L_10_R_9.png","xmouse":[770,770,770,770,770,770,770,770,770,770,770,770,770,770,770,770,770,770,770,770,770,770,770,770,770,770,770,770,770,770,770,770,770,770,770,770,770,770,783,806,825,843,864,873,876,878,882,883,884,884,884,888,891,895,898,902,916,922,932,938,946,955,984,1001,1015,1029,1041,1055,1060],"ymouse":[484,484,484,484,484,484,484,484,484,484,484,484,484,484,484,484,484,484,484,484,484,484,484,484,484,484,484,484,484,484,484,484,484,484,484,484,484,480,456,425,403,378,341,318,308,299,293,291,290,290,289,287,284,281,277,274,257,251,241,232,219,209,175,160,145,128,115,94,86],"timestamp_mouse":[16,37,57,77,97,116,137,157,177,196,217,236,256,277,297,318,336,356,377,397,418,437,456,476,497,516,537,558,577,596,616,636,656,677,697,717,736,757,777,796,816,837,856,877,897,917,938,956,976,996,1016,1037,1056,1076,1097,1117,1138,1156,1176,1196,1217,1236,1256,1276,1296,1317,1336,1357,1377],"xSR":741.5,"ySR":469.95,"xT1":424.9,"yT1":0,"xT2":1058.1,"yT2":0,"toosoon":0,"cond_shown":"equaldotanddens","ratio_trial":900,"smaller_num":"9","larger_num":"10","correct_side":1,"subjID":"ValeriaPorrasMuñoz18","gender":"1","age":"8","school":"4"},{"start_time":1552309897357,"click_time":1552309899345,"finger_time":1552309898265,"fix_duration":310.22750003764554,"trial":26,"RT":908,"MT":1080,"sideResp":1,"stimulus":"img/500/randomdotsizeEA/L/4_Ratio_500_L_18_R_9.png","xmouse":[766,766,766,766,766,766,766,766,766,766,766,766,766,766,766,766,766,766,766,766,766,766,766,766,766,766,766,766,766,766,766,766,766,766,766,766,766,766,766,766,766,766,766,766,757,720,684,642,601,576,571,569,568,568,567,565,564,562,559,556,541,525,506,482,461,443,423,421,421,421,421,421,421,421,421,421,421,421,421,421,422,424,426,429,432,439,440,441,442,442,442,443,444,447,449,455,458,459,462,462],"ymouse":[501,501,501,501,501,501,501,501,501,501,501,501,501,501,501,501,501,501,501,501,501,501,501,501,501,501,501,501,501,501,501,501,501,501,501,501,501,501,501,501,501,501,501,501,500,485,459,426,392,362,354,341,338,337,335,331,329,326,322,317,297,278,256,236,218,203,183,179,177,176,176,176,176,176,176,176,176,175,173,171,166,164,161,158,154,143,141,139,138,137,137,136,134,128,125,115,109,105,100,99],"timestamp_mouse":[14,28,48,67,88,107,127,149,168,187,207,228,247,268,288,307,328,347,368,388,407,428,448,468,488,507,528,547,567,588,608,628,649,667,687,708,729,749,768,788,808,828,849,868,887,908,927,948,967,988,1008,1028,1048,1068,1088,1108,1128,1147,1167,1189,1208,1227,1247,1267,1287,1308,1327,1347,1367,1388,1408,1427,1448,1467,1487,1507,1527,1548,1568,1587,1608,1628,1647,1667,1687,1707,1728,1748,1768,1788,1808,1827,1847,1867,1887,1908,1927,1949,1967,1988],"xSR":741.5,"ySR":469.95,"xT1":424.9,"yT1":0,"xT2":1058.1,"yT2":0,"toosoon":0,"cond_shown":"randomdotsizeEA","ratio_trial":500,"smaller_num":"9","larger_num":"18","correct_side":1,"subjID":"ValeriaPorrasMuñoz18","gender":"1","age":"8","school":"4"},{"start_time":1552309902898,"click_time":1552309904484,"finger_time":1552309903904,"fix_duration":1072.9491586726829,"trial":27,"RT":1006,"MT":580,"sideResp":1,"stimulus":"img/500/randomdotsizeEA/L/11_Ratio_500_L_12_R_6.png","xmouse":[804,804,804,804,804,804,804,804,804,804,804,804,804,804,804,804,804,804,804,804,804,802,802,802,801,801,801,801,801,801,801,801,801,801,801,800,799,799,798,798,798,798,798,798,798,796,792,786,779,749,730,705,682,662,637,632,629,629,629,627,627,627,627,627,627,626,626,625,625,625,625,625,625,625,625,623,614,592,558,453],"ymouse":[529,529,529,529,529,529,529,529,529,529,529,529,529,529,529,529,529,529,528,522,517,515,511,509,508,508,508,508,508,508,508,508,508,508,507,504,503,502,501,501,501,501,501,501,501,501,501,501,501,491,482,472,462,453,442,439,438,438,437,435,435,435,434,431,428,423,421,420,420,420,420,420,420,416,395,375,339,283,224,81],"timestamp_mouse":[6,29,46,67,86,106,128,147,166,187,206,227,248,267,286,306,326,346,367,387,407,426,446,466,487,507,526,546,567,588,607,627,647,667,687,706,726,747,766,787,807,828,846,867,887,906,927,946,966,987,1006,1026,1047,1066,1086,1107,1126,1146,1166,1186,1206,1228,1248,1268,1286,1307,1327,1347,1366,1386,1408,1426,1448,1466,1487,1507,1526,1546,1567,1586],"xSR":741.5,"ySR":469.95,"xT1":424.9,"yT1":0,"xT2":1058.1,"yT2":0,"toosoon":0,"cond_shown":"randomdotsizeEA","ratio_trial":500,"smaller_num":"6","larger_num":"12","correct_side":1,"subjID":"ValeriaPorrasMuñoz18","gender":"1","age":"8","school":"4"},{"start_time":1552309906135,"click_time":1552309907924,"finger_time":1552309907024,"fix_duration":250,"trial":28,"RT":889,"MT":900,"sideResp":1,"stimulus":"img/500/equaldotsize/L/11_Ratio_500_L_12_R_6.png","xmouse":[821,821,821,821,821,821,821,821,821,821,820,819,815,814,814,814,814,814,814,814,814,814,814,814,814,814,814,814,814,814,813,813,813,813,813,813,813,813,813,813,813,813,813,809,793,781,757,715,702,697,695,694,692,689,689,685,671,645,631,615,600,584,548,536,520,513,510,510,509,509,509,509,509,509,509,508,507,507,506,505,504,502,501,500,499,499,499,499,499,499],"ymouse":[489,489,489,489,489,489,489,489,489,490,491,492,495,496,496,496,496,496,496,496,496,496,496,496,496,496,496,496,496,496,496,496,496,496,496,496,496,496,496,496,496,496,496,488,464,447,420,376,359,347,337,330,324,311,309,303,283,258,246,233,219,206,180,172,161,156,153,153,153,153,153,153,152,150,148,144,142,139,130,126,121,116,111,108,106,105,105,103,101,99],"timestamp_mouse":[9,30,49,70,90,110,130,149,170,189,209,229,250,270,290,310,329,349,370,391,409,429,449,470,490,510,529,549,569,590,609,630,649,671,690,709,729,749,771,790,809,829,849,869,889,909,929,949,970,989,1010,1030,1050,1070,1090,1109,1130,1150,1169,1190,1209,1229,1250,1269,1289,1309,1331,1349,1369,1389,1410,1430,1450,1470,1490,1509,1530,1549,1570,1589,1609,1630,1649,1669,1691,1710,1729,1750,1769,1789],"xSR":741.5,"ySR":469.95,"xT1":424.9,"yT1":0,"xT2":1058.1,"yT2":0,"toosoon":0,"cond_shown":"equaldotsize","ratio_trial":500,"smaller_num":"6","larger_num":"12","correct_side":1,"subjID":"ValeriaPorrasMuñoz18","gender":"1","age":"8","school":"4"},{"start_time":1552309910031,"click_time":1552309912644,"finger_time":1552309910846,"fix_duration":745.9562881438258,"trial":29,"RT":815,"MT":1798,"sideResp":2,"stimulus":"img/250/equaldotanddens/R/4_Ratio_250_L_3_R_12.png","xmouse":[801,801,801,801,801,801,801,801,801,801,801,801,801,801,801,801,801,801,801,801,801,801,801,801,801,801,801,801,801,801,801,801,801,801,801,801,801,801,806,823,846,878,912,972,991,1002,1010,1015,1021,1022,1022,1023,1023,1023,1023,1023,1022,1022,1021,1020,1020,1020,1020,1020,1020,1021,1021,1023,1024,1025,1027,1028,1030,1030,1030,1030,1030,1030,1031,1031,1031,1031,1031,1031,1031,1031,1033,1036,1040,1043,1046,1047,1050,1054,1056,1057,1058,1059,1064,1065,1066,1067,1068,1068,1068,1069,1069,1070,1070,1070,1070,1071,1074,1078,1081,1084,1086,1089,1094,1097,1098,1099,1099,1099,1099,1099,1099,1099,1099,1099,1099],"ymouse":[527,527,527,527,527,527,527,527,527,527,527,527,527,527,527,527,527,527,527,527,527,527,527,527,527,527,527,527,527,527,527,527,527,527,527,527,527,527,524,513,498,472,443,398,381,371,360,351,337,332,328,325,320,314,311,308,305,301,292,287,284,280,279,273,271,267,265,263,258,255,248,244,241,238,238,238,238,237,236,236,236,236,236,236,236,236,229,224,209,197,188,180,174,163,158,154,152,147,138,135,134,132,131,130,130,130,130,129,129,129,129,129,128,125,122,119,116,113,108,104,102,101,101,101,101,101,101,101,101,100,99],"timestamp_mouse":[14,33,55,74,93,113,134,154,174,193,214,233,254,275,293,313,335,353,374,393,413,433,453,474,493,513,534,553,575,594,613,635,655,673,693,713,735,753,773,793,815,833,853,875,893,913,933,953,973,993,1013,1034,1053,1073,1094,1113,1135,1155,1173,1193,1214,1234,1254,1273,1293,1313,1333,1353,1373,1393,1413,1433,1454,1474,1495,1513,1534,1553,1573,1595,1614,1633,1654,1673,1693,1714,1735,1754,1775,1794,1814,1834,1853,1874,1893,1913,1933,1954,1974,1994,2014,2034,2054,2073,2093,2113,2133,2153,2175,2194,2214,2233,2253,2273,2294,2313,2334,2354,2373,2393,2414,2434,2454,2474,2493,2514,2533,2555,2573,2594,2613],"xSR":741.5,"ySR":469.95,"xT1":424.9,"yT1":0,"xT2":1058.1,"yT2":0,"toosoon":0,"cond_shown":"equaldotanddens","ratio_trial":250,"smaller_num":"3","larger_num":"12","correct_side":2,"subjID":"ValeriaPorrasMuñoz18","gender":"1","age":"8","school":"4"},{"start_time":1552309915415,"click_time":1552309917306,"finger_time":1552309916104,"fix_duration":989.4053847762975,"trial":30,"RT":689,"MT":1202,"sideResp":2,"stimulus":"img/250/equaldotsize/R/10_Ratio_250_L_4_R_16.png","xmouse":[789,789,789,789,789,789,789,789,789,789,789,789,789,789,789,789,789,789,789,789,789,789,789,789,789,789,789,789,789,789,797,807,819,838,869,883,900,908,913,915,919,923,925,929,931,935,937,938,939,940,943,944,944,946,946,949,950,953,958,963,972,980,986,992,1007,1013,1018,1025,1030,1035,1042,1046,1048,1050,1053,1056,1056,1056,1056,1057,1057,1058,1058,1058,1059,1059,1059,1060,1060,1060,1061,1063,1064,1068,1071],"ymouse":[530,530,530,530,530,530,530,530,530,530,530,530,530,530,530,530,530,530,530,530,530,530,530,530,530,530,530,530,530,529,518,508,498,486,461,447,427,419,412,409,402,395,391,384,378,368,362,357,353,348,334,328,322,316,315,303,299,294,283,275,257,243,233,222,196,188,178,167,160,153,142,136,130,124,118,111,110,108,108,108,108,107,106,106,105,104,104,104,104,104,103,102,101,100,98],"timestamp_mouse":[9,30,49,70,89,109,129,150,171,190,209,229,249,271,290,309,331,349,369,389,409,430,450,470,489,510,529,551,569,589,609,629,649,670,689,710,729,749,769,789,809,830,849,869,890,910,930,949,970,990,1009,1029,1050,1070,1089,1110,1130,1149,1169,1189,1210,1230,1251,1270,1290,1309,1330,1350,1369,1389,1410,1429,1449,1469,1490,1509,1529,1549,1570,1590,1610,1629,1649,1670,1691,1710,1729,1749,1770,1790,1809,1830,1850,1870,1891],"xSR":741.5,"ySR":469.95,"xT1":424.9,"yT1":0,"xT2":1058.1,"yT2":0,"toosoon":0,"cond_shown":"equaldotsize","ratio_trial":250,"smaller_num":"4","larger_num":"16","correct_side":2,"subjID":"ValeriaPorrasMuñoz18","gender":"1","age":"8","school":"4"},{"start_time":1552309921456,"click_time":1552309924085,"finger_time":1552309922924,"fix_duration":932.5586537576427,"trial":31,"RT":1468,"MT":1161,"sideResp":1,"stimulus":"img/900/randomdotsizeEA/R/5_Ratio_900_L_9_R_10.png","xmouse":[794,794,794,794,794,794,794,794,794,794,794,794,794,794,794,794,794,794,794,794,794,794,794,794,794,794,794,794,794,794,794,794,794,794,794,794,794,794,794,794,794,794,794,794,794,794,794,794,794,794,794,794,794,794,794,794,788,781,765,764,763,761,761,761,761,761,761,761,761,761,761,760,757,741,726,704,673,649,618,608,603,599,598,592,584,569,545,514,438,404,365,324,307,299,299,299,299,299,299,301,303,307,311,319,323,329,334,338,345,349,352,355,357,359,359,359,359,360,364,366,370,374,375,380,383,386,392,399,414,421,424,426],"ymouse":[507,507,507,507,507,507,507,507,507,507,507,507,507,507,507,507,507,507,507,507,507,507,507,507,507,507,507,507,507,507,507,507,507,507,507,507,507,507,507,507,507,507,507,507,507,507,507,507,507,507,507,507,507,507,507,507,502,498,490,489,488,488,487,487,487,487,487,487,487,487,487,487,484,474,467,458,444,434,420,413,407,403,402,394,387,376,362,340,289,265,243,219,208,201,201,200,197,196,191,180,174,168,165,159,156,150,143,137,125,117,108,99,91,84,84,83,82,80,76,74,72,71,70,70,70,69,68,66,63,61,61,61],"timestamp_mouse":[9,28,49,69,89,108,129,148,169,189,208,228,249,269,289,308,328,350,369,388,408,428,448,470,488,508,528,548,568,588,610,629,649,668,689,710,728,749,768,788,810,829,848,868,888,910,928,948,969,989,1009,1028,1048,1070,1089,1108,1128,1148,1168,1189,1209,1229,1250,1268,1289,1308,1329,1350,1368,1389,1409,1429,1449,1468,1489,1509,1528,1549,1568,1588,1608,1628,1649,1668,1689,1708,1729,1749,1768,1788,1808,1828,1848,1868,1888,1908,1928,1948,1968,1988,2009,2028,2048,2069,2089,2109,2129,2149,2168,2188,2208,2228,2248,2269,2289,2309,2328,2348,2368,2388,2408,2430,2448,2469,2489,2509,2528,2549,2569,2589,2609,2629],"xSR":741.5,"ySR":469.95,"xT1":424.9,"yT1":0,"xT2":1058.1,"yT2":0,"toosoon":0,"cond_shown":"randomdotsizeEA","ratio_trial":900,"smaller_num":"9","larger_num":"10","correct_side":2,"subjID":"ValeriaPorrasMuñoz18","gender":"1","age":"8","school":"4"},{"start_time":1552309929236,"click_time":1552309930704,"finger_time":1552309930225,"fix_duration":691.7662413781941,"trial":32,"RT":989,"MT":479,"sideResp":1,"stimulus":"img/250/equaldotsize/L/14_Ratio_250_L_12_R_3.png","xmouse":[805,805,805,805,805,805,805,805,805,805,805,805,805,805,805,805,805,805,805,805,805,805,805,805,805,805,805,805,805,805,805,805,805,805,805,805,805,805,805,805,805,805,805,805,805,805,798,787,748,640,512,465,428,389,365,344,339,339,339,339,338,337,335,335,335,340,347,360,377,396,459,480,494,500],"ymouse":[526,526,526,526,526,526,526,526,526,526,526,526,526,526,526,526,526,526,526,526,526,526,526,526,526,526,526,526,526,526,526,526,526,526,526,526,526,526,526,526,526,526,526,526,526,526,523,517,500,450,388,363,342,321,311,304,302,302,302,302,296,292,288,286,285,276,269,262,252,238,167,133,103,81],"timestamp_mouse":[9,29,49,68,89,109,129,149,169,188,209,228,248,268,289,308,329,349,369,388,408,428,448,468,488,508,528,549,568,588,608,628,648,668,689,709,728,749,769,789,808,829,848,868,888,908,929,949,969,989,1008,1029,1049,1068,1089,1108,1129,1150,1170,1189,1208,1228,1248,1268,1289,1308,1329,1350,1368,1388,1408,1429,1449,1468],"xSR":741.5,"ySR":469.95,"xT1":424.9,"yT1":0,"xT2":1058.1,"yT2":0,"toosoon":0,"cond_shown":"equaldotsize","ratio_trial":250,"smaller_num":"3","larger_num":"12","correct_side":1,"subjID":"ValeriaPorrasMuñoz18","gender":"1","age":"8","school":"4"},{"start_time":1552309935314,"click_time":1552309938164,"finger_time":1552309936984,"fix_duration":748.6342355047043,"trial":33,"RT":1670,"MT":1180,"sideResp":2,"stimulus":"img/750/randomdotsizeEA/R/5_Ratio_750_L_15_R_20.png","xmouse":[780,780,780,780,780,780,779,779,779,779,778,778,778,777,777,777,776,775,775,775,774,774,773,773,772,772,772,772,772,772,772,772,772,772,772,772,772,772,772,772,771,770,770,770,770,770,770,770,770,770,770,770,770,768,768,765,763,757,755,754,753,753,753,753,753,753,753,751,746,744,744,744,744,744,744,744,744,744,744,744,744,743,742,740,727,711,696,689,689,689,699,718,760,779,796,805,805,805,805,806,806,806,806,806,806,806,806,806,806,806,806,806,806,806,806,806,806,806,806,806,806,806,909,928,945,957,965,967,967,967,967,967,968,968,969,970,971,974,975,975,980,1007,1087],"ymouse":[522,522,522,522,522,522,522,522,522,522,522,522,522,522,522,522,522,523,523,523,524,524,524,525,525,525,525,525,525,525,525,525,525,525,525,525,525,525,525,525,525,526,526,526,526,526,526,526,526,526,526,526,526,525,525,524,524,524,524,524,524,524,524,524,524,524,521,511,504,502,502,502,502,502,502,502,502,502,502,502,502,501,500,500,505,515,526,535,536,536,528,513,461,420,355,274,201,84,38,7,7,7,7,7,7,7,7,7,7,7,7,7,7,7,7,7,7,7,7,7,7,7,6,13,20,25,29,30,30,30,30,30,30,30,30,30,30,30,30,30,31,38,61],"timestamp_mouse":[10,31,51,71,90,112,131,151,171,192,212,230,251,271,290,310,330,351,372,391,410,430,451,471,492,512,531,551,570,591,610,631,651,670,690,711,732,752,770,791,812,831,851,871,891,911,931,950,972,992,1012,1030,1051,1071,1090,1110,1130,1151,1170,1191,1211,1230,1251,1271,1291,1312,1330,1351,1370,1391,1410,1430,1451,1471,1492,1511,1530,1551,1570,1592,1611,1631,1651,1670,1691,1711,1731,1750,1770,1790,1811,1832,1851,1871,1890,1911,1931,1950,1970,1991,2012,2031,2051,2070,2091,2110,2130,2150,2170,2190,2211,2230,2250,2270,2290,2310,2332,2351,2370,2390,2410,2430,2451,2471,2491,2511,2530,2550,2570,2591,2611,2630,2650,2672,2690,2710,2731,2750,2770,2790,2810,2832,2850],"xSR":741.5,"ySR":469.95,"xT1":424.9,"yT1":0,"xT2":1058.1,"yT2":0,"toosoon":0,"cond_shown":"randomdotsizeEA","ratio_trial":750,"smaller_num":"15","larger_num":"20","correct_side":2,"subjID":"ValeriaPorrasMuñoz18","gender":"1","age":"8","school":"4"},{"start_time":1552309940271,"click_time":1552309942005,"finger_time":1552309941264,"fix_duration":304.90607027493775,"trial":34,"RT":993,"MT":741,"sideResp":1,"stimulus":"img/750/equaldotsize/L/8_Ratio_750_L_4_R_3.png","xmouse":[768,768,767,766,764,764,764,764,764,764,764,763,762,762,762,762,762,762,762,762,762,762,762,762,762,762,762,762,762,762,762,762,762,762,762,762,762,762,762,762,762,762,762,762,762,762,758,754,745,729,723,721,721,721,721,719,716,714,714,701,692,678,664,633,598,582,567,560,557,556,554,548,546,538,532,532,532,532,532,532,532,531,528,524,520,511,501],"ymouse":[509,507,505,501,499,499,499,499,499,498,498,498,498,498,498,498,498,498,498,498,498,498,498,498,498,498,498,498,498,498,498,498,498,498,498,498,498,498,498,498,498,498,498,498,498,498,498,498,501,504,504,504,504,504,504,498,478,448,415,324,287,257,237,207,179,168,162,159,157,156,154,148,144,137,133,133,133,133,133,132,130,129,123,118,113,101,93],"timestamp_mouse":[13,34,53,75,94,113,133,154,174,193,213,233,253,274,293,315,335,355,373,394,413,434,454,474,493,514,534,555,573,593,614,635,653,674,693,713,734,753,774,795,813,833,853,873,893,914,933,954,974,993,1013,1034,1053,1074,1094,1113,1134,1153,1174,1194,1213,1233,1253,1274,1294,1314,1333,1353,1373,1394,1413,1433,1454,1474,1494,1515,1534,1554,1573,1594,1613,1634,1653,1674,1693,1713,1734],"xSR":741.5,"ySR":469.95,"xT1":424.9,"yT1":0,"xT2":1058.1,"yT2":0,"toosoon":0,"cond_shown":"equaldotsize","ratio_trial":750,"smaller_num":"3","larger_num":"4","correct_side":1,"subjID":"ValeriaPorrasMuñoz18","gender":"1","age":"8","school":"4"},{"start_time":1552309945631,"click_time":1552309946704,"finger_time":1552309946344,"fix_duration":1245.2921787908372,"trial":35,"RT":713,"MT":360,"sideResp":1,"stimulus":"img/250/equaldotsize/L/5_Ratio_250_L_24_R_6.png","xmouse":[814,814,814,814,814,814,814,814,814,814,814,814,813,813,813,813,813,813,813,813,813,813,813,813,813,813,813,812,811,810,810,809,807,802,790,775,753,704,680,661,640,620,587,575,565,555,549,535,530,523,513,504,488,484],"ymouse":[501,501,501,501,501,501,501,501,501,501,501,501,501,501,501,501,501,501,501,501,501,501,501,501,501,501,501,499,498,498,497,497,493,485,471,450,421,361,327,298,263,233,188,175,162,153,148,138,133,128,121,115,102,99],"timestamp_mouse":[13,34,55,75,93,113,133,154,175,195,214,233,253,275,295,314,333,353,373,394,413,434,453,473,495,513,533,554,574,594,613,634,654,673,694,713,733,753,773,795,813,833,853,874,893,913,933,953,974,993,1013,1034,1053,1073],"xSR":741.5,"ySR":469.95,"xT1":424.9,"yT1":0,"xT2":1058.1,"yT2":0,"toosoon":0,"cond_shown":"equaldotsize","ratio_trial":250,"smaller_num":"6","larger_num":"24","correct_side":1,"subjID":"ValeriaPorrasMuñoz18","gender":"1","age":"8","school":"4"},{"start_time":1552309948955,"click_time":1552309951645,"finger_time":1552309949904,"fix_duration":250,"trial":36,"RT":949,"MT":1741,"sideResp":2,"stimulus":"img/900/equaldotsize/L/8_Ratio_900_L_20_R_18.png","xmouse":[790,790,790,790,790,790,790,789,789,789,789,789,789,789,789,789,789,789,789,789,789,789,789,789,789,789,789,789,789,789,789,789,789,789,789,789,789,789,789,789,789,789,789,789,789,789,798,808,822,836,841,854,859,869,874,887,898,913,916,918,919,921,922,927,927,928,929,929,929,929,929,929,929,930,933,935,939,946,947,948,950,962,975,979,997,1005,1016,1021,1025,1028,1032,1070,1094,1134,1170,1200,1232,1236,1236,1236,1236,1236,1236,1236,1236,1236,1236,1236,1236,1235,1233,1231,1230,1230,1230,1230,1230,1230,1229,1228,1227,1223,1221,1216,1205,1195,1190,1184,1182,1182,1180,1175,1167,1162,1157],"ymouse":[485,485,485,485,485,485,485,485,485,485,485,485,485,485,485,485,485,485,485,485,485,485,485,485,485,485,485,485,485,485,485,485,485,485,485,485,485,485,485,485,485,485,485,485,485,482,473,462,448,433,429,411,404,393,389,372,356,306,290,280,269,252,243,224,217,211,209,209,209,209,209,209,209,208,206,204,202,199,199,198,195,189,183,183,178,174,169,167,166,164,160,138,127,106,87,75,56,53,53,53,53,53,53,53,53,53,53,53,53,54,56,57,58,58,58,58,58,58,59,59,60,60,60,60,60,60,60,60,60,60,60,61,62,62,62],"timestamp_mouse":[8,29,49,70,90,108,128,148,169,189,210,229,249,269,288,309,328,350,369,388,409,428,448,470,490,508,529,548,570,590,610,628,649,668,690,710,728,749,768,790,809,829,849,868,888,909,928,949,968,989,1010,1028,1049,1068,1089,1108,1128,1148,1169,1189,1209,1229,1249,1270,1289,1308,1329,1349,1369,1389,1408,1430,1449,1470,1489,1508,1529,1548,1568,1590,1608,1629,1649,1669,1689,1708,1729,1749,1769,1790,1809,1829,1849,1869,1888,1909,1929,1950,1968,1988,2008,2030,2049,2069,2089,2109,2130,2150,2170,2188,2209,2229,2248,2268,2289,2309,2330,2349,2368,2388,2409,2430,2449,2469,2489,2508,2529,2549,2569,2589,2608,2630,2649,2669,2690],"xSR":741.5,"ySR":469.95,"xT1":424.9,"yT1":0,"xT2":1058.1,"yT2":0,"toosoon":0,"cond_shown":"equaldotsize","ratio_trial":900,"smaller_num":"18","larger_num":"20","correct_side":1,"su