[{"start_time":1552308791577,"click_time":1552308831306,"finger_time":1552308791585,"fix_duration":331.4706786927839,"trial":0,"RT":8,"MT":39721,"sideResp":2,"stimulus":[],"xmouse":[791,791,791,791,791,791,791,791,791,791,791,791,791,791,791,791,791,791,791,791,791,791,791,791,791,791,791,791,791,791,791,791,791,791,791,791,791,791,791,791,790,789,786,783,782,782,781,781,781,780,780,779,779,779,779,778,777,776,774,772,771,770,769,768,768,768,767,765,764,760,757,754,753,752,751,751,751,751,751,751,751,751,751,751,751,751,751,751,751,751,751,751,751,751,751,750,750,750,748,747,747,746,746,745,745,745,745,745,745,745,745,745,745,745,745,745,745,745,745,745,745,745,745,745,745,745,745,745,747,748,750,750,750,750,750,750,750,750,750,750,750,750,753,771,787,804,817,828,832,832,832,832,832,832,832,832,832,832,832,832,832,827,823,822,814,810,809,809,808,808,808,808,808,808,808,808,808,808,808,808,808,808,808,808,808,808,808,808,808,808,808,808,808,808,808,808,808,808,808,808,808,808,808,808,808,808,808,808,808,808,808,808,808,808,808,808,808,808,808,808,808,808,808,808,808,808,808,805,796,790,789,789,789,789,789,789,789,789,789,789,789,789,789,789,789,789,789,789,789,789,789,789,789,789,789,789,789,789,789,789,789,789,789,789,789,789,789,789,789,789,789,789,789,789,789,789,789,789,789,789,789,789,789,789,789,789,789,789,789,789,789,789,789,789,789,789,789,789,789,789,789,789,789,789,789,789,789,789,789,789,789,789,789,789,789,789,789,789,789,789,789,789,789,789,789,789,789,789,789,789,789,789,789,789,789,789,789,789,789,789,789,789,789,789,789,789,789,789,789,789,789,789,789,789,789,789,789,789,789,789,789,789,789,789,789,789,789,789,789,789,789,789,789,789,789,789,789,789,789,789,789,789,789,789,789,789,789,789,789,789,789,789,788,792,805,813,820,828,834,847,852,857,860,861,857,844,820,782,735,636,607,594,593,593,593,593,593,593,608,701,747,777,793,800,799,791,773,742,649,542,518,509,509,510,514,514,514,514,514,519,524,534,542,551,569,577,583,593,596,607,609,611,611,612,616,622,629,637,655,691,708,719,728,734,737,737,737,737,737,737,737,737,737,737,737,737,737,737,737,737,737,737,737,737,737,737,737,737,737,737,737,737,737,737,737,740,742,747,755,763,767,772,776,778,786,790,792,794,795,795,795,795,795,795,795,795,795,795,795,795,796,797,797,798,799,800,803,804,806,806,806,806,806,806,806,805,805,804,804,804,804,804,804,804,804,804,804,804,804,804,804,804,804,804,804,804,804,804,804,804,804,804,804,804,804,804,804,804,804,804,804,804,804,804,804,804,804,804,804,804,804,804,804,804,804,804,804,804,804,804,804,804,804,804,804,804,804,804,804,804,804,804,804,804,804,804,804,804,804,804,804,804,804,804,804,804,804,804,804,804,804,804,804,804,804,804,804,804,804,804,804,804,804,804,804,804,804,804,804,804,804,804,804,804,804,804,804,804,804,804,804,804,804,804,804,804,804,804,804,804,804,804,804,804,804,804,804,804,804,804,804,804,804,804,804,804,804,804,804,804,804,804,804,804,804,802,790,781,774,766,763,763,763,764,764,766,770,775,776,776,776,776,776,776,776,778,789,811,831,840,840,840,840,839,839,839,839,839,839,839,839,839,839,837,832,825,818,816,815,813,813,813,813,813,813,813,813,813,813,813,813,813,813,812,811,809,805,802,800,798,798,798,798,798,798,798,798,796,794,790,788,788,788,788,788,788,788,788,788,788,788,788,788,788,788,788,788,788,788,788,788,788,788,788,788,788,788,788,788,788,788,788,788,788,788,788,788,788,788,788,788,787,787,787,786,786,785,785,784,784,784,784,784,784,784,784,784,784,784,784,784,784,784,784,784,784,784,784,784,784,784,784,784,784,784,784,784,784,784,784,784,784,784,784,784,784,784,784,784,784,784,784,784,784,784,784,784,784,784,784,784,784,784,784,784,784,784,784,784,784,784,784,784,784,784,784,784,784,784,784,784,784,784,784,784,784,784,784,784,784,784,784,784,784,784,784,784,784,784,784,780,778,778,778,778,778,778,778,778,778,778,778,778,778,778,778,778,778,778,778,778,778,778,778,778,778,778,778,778,778,778,778,778,778,778,778,778,778,778,778,778,778,778,778,778,778,778,778,778,778,778,778,778,778,778,778,778,778,778,778,778,778,778,778,778,778,778,778,778,778,778,778,778,778,778,778,778,778,778,778,778,778,778,778,778,778,778,778,778,778,778,778,778,778,778,778,778,778,778,778,778,778,778,778,778,778,778,778,778,778,778,778,778,778,778,778,778,778,778,778,778,778,778,778,778,778,778,778,778,778,778,778,778,778,778,778,778,778,778,778,778,778,778,778,778,778,778,778,778,778,778,778,778,778,778,778,778,778,778,778,778,778,778,778,778,778,778,778,778,778,778,778,778,778,778,778,778,778,778,778,778,778,778,778,778,778,778,778,778,778,778,778,778,778,778,778,778,778,778,778,778,778,778,778,778,778,778,778,778,778,778,778,778,778,778,778,778,778,778,778,778,778,778,778,778,778,778,778,778,778,778,778,778,778,778,778,778,778,778,778,778,778,778,778,778,778,778,778,778,778,778,778,778,778,778,778,778,778,778,778,778,778,778,778,778,778,778,778,778,778,778,778,778,778,778,778,778,778,778,778,778,778,778,778,778,778,778,778,778,778,778,778,778,778,778,778,778,778,778,778,778,778,778,778,778,778,778,778,778,778,778,778,778,778,778,778,778,778,778,778,778,778,778,778,778,778,778,778,778,778,778,778,778,778,778,778,778,778,778,778,778,778,778,778,778,778,778,778,778,778,778,778,778,778,778,778,778,778,778,778,778,778,778,778,778,778,778,778,778,778,778,778,778,778,778,778,778,778,778,778,778,778,778,778,778,778,778,778,778,778,778,778,778,778,778,778,778,778,778,778,778,778,778,778,778,778,778,778,778,778,778,778,778,778,778,778,778,778,778,778,778,778,778,778,778,778,778,778,778,778,778,778,778,778,778,778,778,778,778,778,778,778,778,778,778,778,778,778,778,778,778,778,778,778,778,778,778,778,778,778,778,778,778,778,778,778,778,778,778,778,778,778,778,778,778,778,778,778,778,778,778,778,778,778,778,778,778,778,778,778,778,778,778,778,778,778,778,778,778,778,778,778,778,778,778,778,778,778,778,778,778,778,778,778,778,778,778,778,778,778,778,778,778,778,778,778,778,778,778,778,778,778,778,778,778,778,778,778,778,778,778,778,778,778,778,778,778,778,778,778,778,778,778,778,778,778,778,778,778,778,778,778,778,778,778,778,778,778,778,778,778,778,778,778,778,778,778,778,778,778,778,778,778,778,778,778,778,778,778,778,778,778,778,778,778,778,778,778,778,778,778,778,778,778,778,778,778,778,778,778,778,778,778,778,778,778,778,778,778,778,778,778,778,778,778,778,778,778,778,778,778,778,778,778,778,778,778,778,778,778,778,778,778,778,778,778,778,778,778,778,778,778,778,778,778,778,778,778,778,778,778,778,778,778,778,778,778,778,778,778,778,778,778,778,778,778,778,778,778,778,778,778,778,778,778,778,778,778,778,778,778,778,778,778,778,778,778,778,778,778,778,778,778,778,778,778,778,778,778,778,778,778,778,778,778,778,778,778,778,778,778,778,778,778,778,778,778,778,778,778,778,778,778,778,778,778,778,778,778,778,778,778,778,778,778,778,778,778,778,778,778,778,778,778,778,778,778,778,778,778,778,778,778,778,778,778,778,778,778,778,778,778,778,778,778,778,778,778,778,778,778,778,778,778,778,778,778,778,778,778,778,778,778,778,778,778,778,778,778,778,778,778,778,778,778,778,778,778,778,778,778,778,778,778,778,778,778,778,778,778,778,778,778,778,778,778,778,778,778,778,778,778,778,778,778,778,778,778,778,778,778,778,778,778,778,778,777,775,771,768,767,764,763,762,762,762,762,762,762,762,762,762,762,762,762,762,762,762,762,762,762,762,762,762,762,762,762,762,762,762,762,762,762,762,762,762,762,762,762,762,762,762,762,762,762,762,762,762,762,762,762,762,762,762,762,762,762,762,762,762,762,762,762,762,762,762,762,762,762,762,762,762,762,762,762,762,762,762,761,761,761,760,760,760,760,760,760,760,760,760,760,760,760,760,760,760,760,760,760,760,760,760,760,760,761,761,761,762,762,762,762,762,762,762,763,763,763,763,763,763,763,763,763,763,763,763,763,763,763,764,765,765,765,765,765,765,765,765,765,765,765,765,765,765,765,765,765,765,765,765,765,765,765,765,765,765,765,765,765,765,765,765,765,765,765,765,765,765,765,765,765,765,765,765,765,767,768,790,805,819,831,842,854,855,858,861,863,868,870,872,876,878,885,887,890,893,896,902,902,902,898,896,891,887,884,883,883,896,908,920,932,942,961,968,973,979,980,991,997,1003,1012,1021,1042,1047,1052,1053,1054,1055,1055,1055,1055,1056,1057,1057,1058,1058,1059],"ymouse":[542,542,542,542,542,542,542,542,542,542,542,542,542,542,542,542,542,542,542,542,542,542,542,542,542,542,542,542,542,542,542,542,542,542,542,542,542,542,542,542,542,543,546,550,550,551,552,552,552,552,552,553,553,553,553,554,555,556,559,561,562,565,566,567,567,568,569,570,571,575,577,579,580,582,582,582,582,582,582,582,582,582,582,582,582,582,582,582,582,582,582,582,582,582,582,583,583,583,586,587,588,589,591,592,592,592,592,592,592,592,592,592,592,592,592,592,592,592,592,592,592,592,592,592,592,592,596,599,609,611,613,613,613,613,613,613,613,613,613,613,613,613,613,621,628,636,643,648,650,650,650,650,650,650,650,650,650,650,650,650,650,649,646,646,640,636,635,635,634,634,634,634,634,634,634,634,634,634,634,634,634,634,634,634,634,634,634,634,634,634,634,634,634,634,634,634,634,634,634,634,634,634,634,634,634,634,634,634,634,634,634,634,634,634,634,634,634,634,634,634,634,634,634,634,634,634,634,634,630,626,625,625,625,625,625,625,625,625,625,625,625,625,625,625,625,625,625,625,625,625,625,625,625,625,625,625,625,625,625,625,625,625,625,625,625,625,625,625,625,625,625,625,625,625,625,625,625,625,625,625,625,625,625,625,625,625,625,625,625,625,625,625,625,625,625,625,625,625,625,625,625,625,625,625,625,625,625,625,625,625,625,625,625,625,625,625,625,625,625,625,625,625,625,625,625,625,625,625,625,625,625,625,625,625,625,625,625,625,625,625,625,625,625,625,625,625,625,625,625,625,625,625,625,625,625,625,625,625,625,625,625,625,625,625,625,625,625,625,625,625,625,625,625,625,625,625,625,625,625,625,625,625,625,625,625,625,625,625,625,625,625,625,619,613,585,567,548,530,511,466,449,435,422,410,381,363,343,320,292,248,235,231,231,231,231,231,231,234,244,301,328,347,360,366,370,376,386,401,442,512,536,552,560,568,572,572,572,572,572,585,597,610,621,631,643,648,649,652,652,652,652,652,652,652,651,651,651,650,650,650,650,650,650,650,650,650,650,650,650,650,650,650,650,650,650,650,650,650,650,650,650,650,650,650,650,650,650,650,650,650,650,650,650,650,650,649,649,648,647,645,642,640,636,634,630,627,624,623,622,622,622,622,622,622,622,622,622,622,622,622,620,617,617,616,614,612,609,607,606,606,606,606,606,606,606,606,606,606,606,606,606,606,606,606,606,606,606,606,606,606,606,606,606,606,606,606,606,606,606,606,606,606,606,606,606,606,606,606,606,606,606,606,606,606,606,606,606,606,606,606,606,606,606,606,606,606,606,606,606,606,606,606,606,606,606,606,606,606,606,606,606,606,606,606,606,606,606,606,606,606,606,606,606,606,606,606,606,606,606,606,606,606,606,606,606,606,606,606,606,606,606,606,606,606,606,606,606,606,606,606,606,606,606,606,606,606,606,606,606,606,606,606,606,606,606,606,606,606,606,606,606,606,606,606,606,606,606,606,606,606,606,606,606,606,606,606,606,606,606,606,606,606,606,606,606,607,603,604,616,645,671,693,701,701,701,706,718,734,737,737,737,737,737,737,737,738,723,692,665,653,653,653,653,654,654,654,654,654,654,654,654,654,654,654,654,654,654,654,654,650,648,646,645,645,645,645,645,645,645,645,645,644,644,642,642,639,637,635,633,632,632,632,632,632,632,632,632,631,630,628,627,627,627,627,627,627,627,627,627,627,627,627,627,627,627,627,627,627,627,627,627,627,627,627,627,627,627,627,627,627,627,627,627,627,627,627,627,627,627,627,627,625,624,623,621,619,616,616,615,615,614,614,614,614,614,614,614,614,614,614,614,614,614,614,614,614,614,614,614,614,614,614,614,614,614,614,614,614,614,614,614,614,614,614,614,614,614,614,614,614,614,614,614,614,614,614,614,614,614,614,614,614,614,614,614,614,614,614,614,614,614,614,614,614,614,614,614,614,614,614,614,614,614,614,614,614,614,614,614,614,614,614,614,614,614,614,614,614,614,613,615,616,616,616,616,616,616,616,616,616,616,616,616,616,616,616,616,616,616,616,616,616,616,616,616,616,616,616,616,616,616,616,616,616,616,616,616,616,616,616,616,616,616,616,616,616,616,616,616,616,616,616,616,616,616,616,616,616,616,616,616,616,616,616,616,616,616,616,616,616,616,616,616,616,616,616,616,616,616,616,616,616,616,616,616,616,616,616,616,616,616,616,616,616,616,616,616,616,616,616,616,616,616,616,616,616,616,616,616,616,616,616,616,616,616,616,616,616,616,616,616,616,616,616,616,616,616,616,616,616,616,616,616,616,616,616,616,616,616,616,616,616,616,616,616,616,616,616,616,616,616,616,616,616,616,616,616,616,616,616,616,616,616,616,616,616,616,616,616,616,616,616,616,616,616,616,616,616,616,616,616,616,616,616,616,616,616,616,616,616,616,616,616,616,616,616,616,616,616,616,616,616,616,616,616,616,616,616,616,616,616,616,616,616,616,616,616,616,616,616,616,616,616,616,616,616,616,616,616,616,616,616,616,616,616,616,616,616,616,616,616,616,616,616,616,616,616,616,616,616,616,616,616,616,616,616,616,616,616,616,616,616,616,616,616,616,616,616,616,616,616,616,616,616,616,616,616,616,616,616,616,616,616,616,616,616,616,616,616,616,616,616,616,616,616,616,616,616,616,616,616,616,616,616,616,616,616,616,616,616,616,616,616,616,616,616,616,616,616,616,616,616,616,616,616,616,616,616,616,616,616,616,616,616,616,616,616,616,616,616,616,616,616,616,616,616,616,616,616,616,616,616,616,616,616,616,616,616,616,616,616,616,616,616,616,616,616,616,616,616,616,616,616,616,616,616,616,616,616,616,616,616,616,616,616,616,616,616,616,616,616,616,616,616,616,616,616,616,616,616,616,616,616,616,616,616,616,616,616,616,616,616,616,616,616,616,616,616,616,616,616,616,616,616,616,616,616,616,616,616,616,616,616,616,616,616,616,616,616,616,616,616,616,616,616,616,616,616,616,616,616,616,616,616,616,616,616,616,616,616,616,616,616,616,616,616,616,616,616,616,616,616,616,616,616,616,616,616,616,616,616,616,616,616,616,616,616,616,616,616,616,616,616,616,616,616,616,616,616,616,616,616,616,616,616,616,616,616,616,616,616,616,616,616,616,616,616,616,616,616,616,616,616,616,616,616,616,616,616,616,616,616,616,616,616,616,616,616,616,616,616,616,616,616,616,616,616,616,616,616,616,616,616,616,616,616,616,616,616,616,616,616,616,616,616,616,616,616,616,616,616,616,616,616,616,616,616,616,616,616,616,616,616,616,616,616,616,616,616,616,616,616,616,616,616,616,616,616,616,616,616,616,616,616,616,616,616,616,616,616,616,616,616,616,616,616,616,616,616,616,616,616,616,616,616,616,616,616,616,616,616,616,616,616,616,616,616,616,616,616,616,616,616,616,616,616,616,616,616,616,616,616,616,616,616,616,616,616,616,616,616,616,616,616,616,616,616,616,616,616,616,616,616,616,616,616,616,616,616,616,616,616,616,616,616,616,616,616,616,616,616,616,616,616,616,616,616,616,616,616,616,616,616,616,616,616,616,616,616,616,616,616,616,616,616,616,616,616,616,616,616,616,616,616,616,616,616,616,616,616,616,616,616,616,616,616,616,616,616,616,616,616,616,616,616,616,616,616,616,616,616,616,616,616,616,616,616,616,616,616,616,616,616,616,616,616,616,616,616,616,616,616,616,616,616,616,616,616,616,616,616,616,616,616,616,616,616,616,616,616,616,616,616,616,616,616,616,616,616,616,616,616,616,616,616,616,616,616,616,616,616,616,616,616,616,616,616,616,616,616,616,616,616,616,616,616,616,616,616,616,616,616,616,616,616,616,616,616,616,616,616,616,616,616,616,616,616,618,620,621,622,624,624,624,624,624,624,624,624,624,624,624,624,624,624,624,624,624,624,624,624,624,624,624,624,624,624,624,624,624,624,624,624,624,624,624,624,624,624,624,624,624,624,624,624,624,624,624,624,624,624,624,624,624,624,624,624,624,624,624,624,624,624,624,624,624,624,624,624,624,624,624,624,624,624,624,624,624,623,621,619,618,618,618,618,618,618,618,618,618,618,618,618,618,618,618,618,618,618,618,618,618,618,618,618,618,618,618,618,618,618,618,618,618,618,618,618,618,618,618,618,618,618,618,618,618,618,618,618,618,619,619,619,619,619,619,619,619,619,619,619,619,619,619,619,619,619,619,619,619,619,619,619,619,619,619,619,619,619,619,619,619,619,619,619,619,619,619,619,619,619,619,619,619,619,619,619,619,619,619,619,619,619,619,618,618,617,614,612,610,606,604,592,586,579,567,542,482,465,445,425,408,372,352,333,315,293,234,216,200,186,176,164,161,158,156,155,151,148,145,140,132,116,111,105,103,102,101,101,100,99,98,98,97,96,96,95],"timestamp_mouse":[8,29,48,69,89,109,128,148,168,188,209,229,248,267,289,309,329,349,368,388,409,428,448,468,489,508,528,548,567,589,609,629,648,668,689,709,728,748,768,788,808,829,849,868,888,908,928,949,968,988,1007,1027,1049,1069,1089,1108,1128,1147,1169,1189,1209,1228,1249,1267,1289,1308,1328,1349,1368,1388,1409,1428,1448,1468,1489,1509,1528,1549,1568,1589,1608,1628,1648,1668,1688,1709,1729,1747,1769,1789,1807,1828,1849,1869,1889,1909,1928,1949,1969,1988,2008,2028,2049,2069,2089,2108,2129,2148,2169,2189,2209,2229,2249,2269,2287,2309,2327,2348,2368,2388,2409,2429,2449,2468,2488,2509,2529,2549,2568,2587,2609,2628,2648,2668,2688,2708,2728,2748,2769,2787,2808,2828,2848,2867,2889,2908,2929,2949,2969,2989,3008,3029,3048,3068,3088,3109,3128,3149,3169,3187,3208,3229,3249,3268,3288,3308,3328,3348,3369,3389,3409,3429,3448,3468,3488,3507,3528,3548,3568,3588,3609,3628,3647,3668,3688,3708,3727,3748,3768,3789,3807,3829,3849,3869,3887,3909,3929,3949,3968,3989,4009,4028,4049,4068,4088,4109,4127,4148,4168,4188,4208,4228,4248,4269,4288,4308,4328,4348,4368,4388,4409,4428,4448,4468,4488,4509,4528,4549,4568,4589,4609,4628,4649,4668,4688,4709,4729,4748,4769,4787,4808,4829,4848,4869,4888,4909,4928,4948,4968,4987,5009,5029,5048,5068,5088,5109,5127,5149,5168,5188,5208,5229,5247,5268,5289,5308,5328,5348,5368,5388,5409,5428,5448,5469,5488,5507,5528,5548,5568,5588,5608,5628,5648,5668,5688,5708,5728,5748,5768,5789,5807,5828,5848,5868,5888,5908,5927,5948,5968,5988,6008,6029,6047,6068,6088,6109,6129,6148,6168,6188,6208,6228,6248,6268,6288,6308,6327,6348,6368,6387,6408,6428,6448,6468,6488,6508,6529,6549,6567,6588,6608,6628,6649,6667,6688,6708,6728,6748,6769,6789,6808,6828,6848,6868,6888,6908,6929,6948,6969,6988,7008,7028,7048,7068,7089,7107,7128,7149,7168,7187,7209,7229,7247,7268,7288,7308,7329,7349,7369,7388,7408,7428,7449,7468,7488,7509,7529,7548,7569,7588,7608,7628,7648,7668,7688,7709,7727,7748,7768,7789,7808,7828,7849,7869,7889,7909,7928,7948,7969,7988,8008,8028,8048,8067,8088,8108,8129,8149,8169,8187,8208,8228,8249,8268,8289,8308,8328,8349,8368,8388,8407,8428,8448,8468,8488,8508,8528,8549,8569,8588,8608,8629,8649,8669,8689,8709,8727,8748,8769,8787,8808,8829,8849,8869,8887,8909,8928,8948,8968,8987,9008,9028,9049,9068,9088,9109,9128,9149,9168,9188,9208,9228,9247,9269,9287,9308,9328,9348,9368,9388,9408,9428,9448,9467,9489,9508,9528,9549,9568,9588,9608,9628,9648,9668,9688,9708,9728,9749,9768,9788,9809,9828,9849,9868,9888,9908,9929,9948,9968,9988,10009,10028,10048,10069,10088,10109,10128,10148,10168,10189,10209,10227,10247,10269,10288,10308,10327,10349,10368,10389,10409,10428,10448,10468,10488,10509,10528,10549,10568,10588,10609,10629,10647,10668,10688,10709,10729,10749,10769,10788,10808,10829,10849,10869,10889,10909,10929,10949,10968,10988,11008,11029,11049,11068,11088,11109,11129,11149,11168,11188,11207,11229,11249,11269,11289,11308,11329,11349,11369,11387,11409,11429,11449,11468,11488,11509,11528,11549,11568,11588,11608,11628,11648,11669,11689,11708,11728,11749,11768,11788,11808,11828,11849,11869,11888,11908,11928,11949,11969,11988,12008,12028,12049,12068,12088,12108,12128,12147,12168,12188,12208,12228,12247,12269,12288,12308,12329,12348,12369,12387,12408,12429,12449,12468,12489,12508,12528,12547,12569,12588,12608,12628,12649,12668,12688,12708,12729,12749,12768,12788,12808,12828,12849,12869,12887,12908,12929,12948,12969,12988,13008,13028,13048,13068,13089,13107,13128,13149,13169,13188,13208,13228,13249,13267,13289,13308,13327,13349,13369,13388,13408,13428,13449,13469,13489,13507,13527,13548,13569,13589,13607,13628,13649,13669,13688,13708,13728,13749,13768,13788,13809,13829,13848,13869,13889,13907,13928,13949,13969,13988,14009,14029,14049,14069,14088,14108,14128,14148,14168,14188,14208,14229,14249,14268,14288,14308,14329,14348,14368,14388,14408,14428,14449,14469,14487,14509,14529,14549,14568,14588,14608,14629,14648,14669,14687,14709,14729,14749,14769,14789,14808,14828,14848,14869,14888,14908,14929,14949,14969,14989,15009,15028,15049,15068,15089,15109,15127,15148,15169,15188,15209,15227,15249,15268,15289,15309,15327,15349,15368,15388,15408,15429,15448,15467,15488,15508,15528,15549,15569,15588,15609,15629,15649,15669,15689,15709,15728,15749,15768,15789,15807,15829,15848,15868,15888,15908,15929,15949,15969,15988,16009,16028,16048,16069,16088,16108,16128,16148,16168,16188,16208,16229,16249,16267,16288,16308,16329,16349,16369,16387,16408,16429,16448,16468,16489,16508,16528,16549,16569,16588,16607,16629,16649,16669,16689,16708,16729,16748,16769,16788,16808,16829,16848,16868,16889,16908,16929,16948,16968,16987,17009,17029,17047,17069,17088,17107,17128,17148,17169,17188,17208,17229,17249,17268,17288,17308,17328,17348,17369,17389,17408,17429,17448,17469,17489,17508,17528,17549,17569,17587,17609,17628,17649,17667,17689,17709,17728,17748,17769,17789,17809,17828,17848,17868,17889,17908,17929,17948,17968,17988,18009,18029,18048,18069,18088,18108,18128,18148,18169,18189,18208,18228,18249,18268,18288,18308,18328,18348,18368,18388,18407,18429,18449,18467,18489,18508,18528,18548,18568,18588,18608,18628,18649,18669,18688,18707,18729,18749,18769,18787,18808,18828,18847,18869,18887,18908,18929,18949,18967,18988,19008,19029,19048,19069,19088,19108,19129,19149,19168,19188,19209,19229,19248,19267,19288,19308,19328,19348,19368,19389,19408,19429,19449,19469,19488,19508,19528,19549,19568,19589,19608,19628,19648,19669,19688,19708,19729,19748,19767,19788,19808,19828,19849,19869,19889,19908,19928,19949,19968,19988,20008,20028,20049,20069,20087,20108,20128,20149,20168,20189,20208,20229,20247,20269,20288,20308,20328,20347,20369,20389,20408,20428,20447,20469,20489,20508,20528,20549,20568,20587,20608,20628,20648,20669,20688,20708,20728,20749,20769,20789,20809,20829,20847,20869,20889,20908,20929,20949,20969,20988,21008,21028,21048,21067,21088,21108,21128,21148,21168,21188,21208,21228,21248,21269,21288,21308,21328,21348,21368,21389,21408,21428,21449,21468,21488,21508,21528,21549,21568,21587,21608,21628,21649,21669,21687,21708,21728,21748,21768,21787,21808,21828,21848,21868,21889,21908,21927,21949,21969,21988,22009,22028,22048,22068,22089,22108,22128,22149,22168,22188,22208,22229,22248,22268,22288,22308,22329,22348,22368,22388,22408,22429,22448,22469,22488,22507,22528,22549,22569,22588,22608,22628,22649,22667,22689,22709,22728,22748,22769,22788,22807,22828,22848,22867,22889,22909,22928,22948,22969,22988,23008,23028,23049,23068,23088,23108,23128,23148,23169,23188,23208,23228,23249,23269,23287,23308,23328,23348,23368,23389,23408,23429,23448,23469,23488,23508,23528,23549,23568,23588,23608,23628,23648,23669,23688,23708,23728,23748,23767,23788,23808,23828,23848,23868,23889,23908,23928,23948,23968,23989,24007,24028,24049,24068,24088,24108,24128,24149,24168,24188,24208,24229,24248,24269,24288,24308,24328,24348,24369,24388,24409,24428,24449,24469,24488,24508,24528,24548,24568,24588,24608,24628,24648,24669,24688,24708,24728,24749,24768,24788,24808,24828,24848,24868,24889,24908,24929,24949,24967,24988,25008,25029,25049,25068,25088,25108,25129,25147,25169,25188,25208,25229,25247,25268,25289,25309,25328,25348,25369,25389,25407,25429,25449,25468,25489,25507,25528,25549,25569,25588,25608,25629,25648,25668,25688,25708,25728,25749,25769,25787,25808,25829,25848,25867,25889,25908,25928,25948,25969,25989,26008,26028,26048,26068,26087,26108,26127,26149,26168,26188,26208,26228,26248,26268,26288,26308,26328,26349,26368,26389,26409,26427,26448,26469,26488,26508,26529,26547,26568,26589,26608,26628,26648,26669,26688,26708,26727,26749,26767,26788,26808,26828,26848,26868,26888,26908,26928,26949,26968,26988,27009,27028,27048,27069,27088,27108,27128,27148,27169,27188,27208,27228,27248,27267,27287,27308,27328,27348,27369,27389,27408,27429,27448,27468,27488,27508,27528,27548,27568,27588,27608,27628,27649,27668,27687,27708,27729,27747,27768,27789,27808,27828,27849,27869,27889,27908,27929,27948,27968,27988,28008,28028,28048,28068,28087,28108,28128,28149,28169,28188,28207,28228,28249,28269,28288,28308,28328,28348,28368,28389,28408,28428,28448,28468,28488,28508,28527,28548,28569,28588,28608,28629,28647,28669,28688,28709,28729,28748,28768,28789,28808,28828,28849,28868,28889,28908,28928,28949,28969,28988,29007,29028,29049,29069,29088,29108,29128,29148,29169,29189,29207,29229,29247,29268,29289,29308,29329,29348,29369,29387,29408,29429,29448,29469,29488,29508,29527,29548,29568,29589,29608,29628,29649,29669,29687,29709,29728,29749,29768,29787,29808,29829,29848,29867,29889,29909,29929,29948,29969,29987,30008,30029,30048,30068,30089,30108,30127,30149,30169,30188,30209,30228,30248,30268,30288,30308,30329,30347,30368,30389,30408,30429,30449,30467,30489,30508,30529,30548,30568,30589,30608,30628,30649,30668,30688,30707,30727,30749,30769,30789,30808,30828,30848,30869,30889,30908,30929,30948,30967,30988,31009,31029,31048,31068,31089,31108,31129,31148,31169,31188,31209,31228,31248,31268,31289,31308,31329,31348,31367,31389,31409,31429,31449,31468,31493,31509,31528,31548,31568,31588,31608,31629,31648,31667,31688,31708,31729,31748,31768,31788,31808,31828,31848,31869,31887,31907,31928,31949,31968,31987,32009,32029,32048,32069,32088,32108,32128,32149,32168,32188,32209,32228,32248,32269,32287,32309,32328,32348,32369,32389,32408,32428,32449,32468,32488,32507,32529,32549,32568,32589,32608,32628,32649,32669,32688,32708,32728,32748,32769,32789,32807,32828,32849,32869,32889,32907,32929,32948,32969,32988,33008,33027,33049,33068,33088,33108,33128,33149,33167,33189,33209,33228,33249,33267,33288,33308,33328,33349,33369,33388,33408,33428,33448,33468,33488,33507,33528,33549,33567,33588,33608,33628,33649,33668,33688,33708,33729,33748,33769,33789,33809,33828,33849,33867,33888,33908,33929,33949,33969,33988,34008,34028,34048,34068,34087,34108,34128,34147,34169,34187,34208,34229,34248,34267,34288,34308,34328,34348,34369,34388,34408,34428,34448,34467,34488,34509,34529,34547,34568,34589,34608,34628,34649,34668,34688,34709,34728,34748,34768,34788,34808,34828,34847,34869,34889,34908,34928,34948,34969,34988,35009,35028,35048,35069,35089,35109,35129,35148,35168,35188,35209,35229,35249,35267,35289,35309,35329,35348,35369,35389,35409,35428,35448,35469,35489,35508,35528,35549,35568,35589,35609,35629,35649,35669,35688,35709,35729,35748,35768,35788,35809,35829,35849,35867,35889,35909,35929,35948,35968,35988,36008,36028,36048,36068,36089,36109,36128,36148,36169,36189,36207,36229,36248,36269,36287,36309,36329,36348,36369,36387,36409,36428,36448,36469,36488,36509,36527,36548,36568,36588,36609,36629,36649,36668,36689,36708,36728,36749,36768,36789,36808,36828,36848,36869,36887,36909,36928,36948,36968,36988,37009,37029,37047,37068,37089,37108,37128,37149,37169,37188,37208,37228,37249,37267,37288,37308,37328,37348,37368,37388,37407,37428,37449,37469,37488,37508,37527,37549,37568,37589,37609,37628,37649,37668,37689,37708,37728,37749,37769,37788,37808,37829,37847,37868,37888,37908,37928,37948,37968,37988,38008,38027,38049,38067,38088,38108,38128,38148,38168,38189,38208,38228,38248,38267,38288,38309,38329,38348,38368,38388,38407,38429,38448,38469,38488,38508,38529,38549,38568,38588,38609,38628,38647,38668,38689,38709,38729,38748,38768,38788,38809,38828,38848,38869,38888,38908,38929,38948,38968,38988,39009,39028,39049,39068,39088,39108,39128,39149,39168,39189,39208,39227,39248,39268,39289,39308,39329,39348,39368,39389,39409,39428,39447,39468,39489,39509,39528,39547,39567,39589,39609,39628,39648,39669,39688,39709,39728],"xSR":741.5,"ySR":500.5,"xT1":424.9,"yT1":0,"xT2":1058.1,"yT2":0,"toosoon":0,"cond_shown":"Congruent","ratio_trial":200,"L_num":4,"L_den":10,"R_num":3,"R_den":15,"correct_side":1,"subjID":"ValeriaPorrasMuñoz18","gender":"1","age":"8","school":"4","test":{"fix_dur":[250,1500],"timestim":1000,"targets_dim":[100,100],"targets_relative_coord":[0.3,0.7],"size_stim":[880,420],"start_dim":[100,100],"size_start":[300,300],"size_fix":60,"samplingrate":20,"img_types":["Congruent","Incongruent"],"ratios":[100,200,300],"rep_conds":19,"nTrials":120,"trials_to_rest":500,"Trials_order":[38,24,41,91,81,50,18,78,98,116,32,49,13,5,72,119,2,101,76,65,102,33,28,7,114,96,86,107,45,111,6,35,67,105,53,87,117,90,57,8,26,95,58,56,68,79,21,42,17,82,106,1,92,48,69,29,47,103,83,30,20,100,97,14,19,108,94,104,39,109,70,3,23,85,11,54,60,84,22,62,37,31,52,115,63,0,25,9,15,99,10,66,16,88,59,55,71,51,73,43,118,44,40,64,46,93,61,36,27,89,113,4,75,34,80,110,112,12,74,77],"cond_shown":["Congruent","Congruent","Incongruent","Incongruent","Incongruent","Congruent","Congruent","Congruent","Congruent","Congruent","Congruent","Incongruent","Incongruent","Incongruent","Congruent","Incongruent","Congruent","Incongruent","Congruent","Incongruent","Congruent","Incongruent","Congruent","Incongruent","Congruent","Congruent","Congruent","Incongruent","Incongruent","Incongruent","Congruent","Incongruent","Incongruent","Incongruent","Incongruent","Incongruent","Incongruent","Congruent","Incongruent","Congruent","Congruent","Incongruent","Congruent","Congruent","Congruent","Incongruent","Incongruent","Congruent","Incongruent","Congruent","Congruent","Incongruent","Congruent","Congruent","Incongruent","Incongruent","Incongruent","Incongruent","Incongruent","Congruent","Congruent","Congruent","Incongruent","Congruent","Incongruent","Congruent","Congruent","Congruent","Incongruent","Incongruent","Congruent","Incongruent","Incongruent","Incongruent","Incongruent","Congruent","Congruent","Congruent","Congruent","Congruent","Incongruent","Incongruent","Congruent","Incongruent","Incongruent","Congruent","Incongruent","Incongruent","Incongruent","Incongruent","Congruent","Congruent","Congruent","Congruent","Incongruent","Incongruent","Incongruent","Incongruent","Incongruent","Incongruent","Congruent","Congruent","Congruent","Congruent","Congruent","Incongruent","Incongruent","Congruent","Incongruent","Incongruent","Incongruent","Congruent","Incongruent","Congruent","Congruent","Congruent","Congruent","Congruent","Congruent","Incongruent"],"ratio_trial":[200,100,300,100,200,200,100,100,200,200,200,100,100,300,100,300,200,300,300,300,100,200,300,100,100,100,200,300,200,200,100,300,100,200,300,200,200,100,200,200,200,300,300,200,200,100,200,100,300,300,300,100,200,100,200,300,300,100,300,100,200,300,100,200,100,100,300,200,200,100,300,200,300,100,300,100,100,100,300,200,100,100,300,100,200,100,100,200,200,200,300,100,300,300,300,100,300,200,100,100,300,200,300,300,300,200,100,100,200,300,300,300,200,300,200,200,300,100,200,300],"left_num":[4,12,2,6,7,3,11,8,15,6,3,1,13,13,1,8,3,4,3,13,2,4,1,13,12,9,9,13,7,4,15,1,12,7,4,4,6,9,4,16,6,4,5,6,7,3,14,11,8,2,4,8,3,15,7,13,1,17,13,11,9,20,8,12,12,9,1,5,1,10,9,14,13,4,4,9,10,4,4,6,3,10,1,10,14,12,6,4,4,11,3,11,2,7,13,12,7,9,13,8,1,16,1,20,1,14,13,10,3,8,3,11,7,1,6,15,1,8,6,1],"right_num":[3,13,6,13,12,11,6,2,4,11,14,8,12,12,3,9,9,2,4,12,6,6,11,12,13,8,4,12,6,1,13,3,2,8,2,1,3,8,1,12,7,2,6,7,18,4,12,6,14,10,2,1,11,13,12,12,2,10,12,4,4,8,6,6,9,8,7,14,3,9,3,12,12,8,6,8,3,15,2,11,4,9,7,8,6,13,3,14,6,3,11,6,10,20,12,9,8,8,6,6,19,9,8,9,19,12,6,3,1,9,4,4,8,19,3,4,8,2,11,2],"left_den":[10,30,4,10,10,10,22,16,25,20,6,2,26,26,2,10,12,20,6,26,5,5,5,26,30,15,20,26,15,30,25,2,30,10,20,30,20,15,30,20,12,20,25,12,15,6,30,22,10,20,5,20,10,25,10,26,2,30,26,22,20,25,16,15,24,15,20,10,2,25,10,30,26,8,5,15,25,10,5,20,6,25,20,25,30,30,12,6,5,20,12,22,20,14,26,24,10,15,26,16,3,30,30,25,3,30,26,25,10,10,6,22,10,3,15,25,30,16,20,2],"right_den":[15,26,30,26,24,22,15,5,10,22,20,20,20,15,5,18,20,4,5,15,12,10,22,20,26,16,16,15,9,3,26,15,4,16,4,3,6,16,3,20,10,4,12,10,27,10,18,15,28,25,4,2,22,26,24,15,10,15,15,10,16,16,10,10,15,16,20,20,10,18,5,18,15,20,12,16,10,30,4,22,10,18,20,16,9,26,5,30,10,4,20,15,25,25,15,15,20,10,10,10,30,27,24,18,30,18,10,10,2,18,20,20,16,30,15,10,24,5,22,10],"correct_side":[1,2,1,1,1,2,1,1,1,2,2,1,2,2,2,1,2,2,2,2,2,1,2,2,2,1,1,2,2,2,1,1,2,1,2,2,2,1,2,1,2,2,2,2,2,1,2,1,1,2,1,2,2,1,1,2,1,2,2,1,1,1,2,1,2,1,2,2,1,2,1,2,2,1,1,1,1,2,1,2,1,2,2,2,2,2,2,1,1,2,2,1,2,2,2,2,1,2,2,2,2,1,2,1,2,2,2,1,2,1,1,1,1,2,1,1,2,1,2,1],"img_shown":["img2/200/Congruent/L/C_Dist_200_LN_4_LD_10_RN_3_RD_15_0.png","img2/100/Congruent/R/C_Dist_100_LN_12_LD_30_RN_13_RD_26_1.png","img2/300/Incongruent/L/I_Dist_300_LN_2_LD_4_RN_6_RD_30_0.png","img2/100/Incongruent/L/I_Dist_100_LN_6_LD_10_RN_13_RD_26_0.png","img2/200/Incongruent/L/I_Dist_200_LN_7_LD_10_RN_12_RD_24_0.png","img2/200/Congruent/R/C_Dist_200_LN_3_LD_10_RN_11_RD_22_1.png","img2/100/Congruent/L/C_Dist_100_LN_11_LD_22_RN_6_RD_15_0.png","img2/100/Congruent/L/C_Dist_100_LN_8_LD_16_RN_2_RD_5_0.png","img2/200/Congruent/L/C_Dist_200_LN_15_LD_25_RN_4_RD_10_0.png","img2/200/Congruent/R/C_Dist_200_LN_6_LD_20_RN_11_RD_22_1.png","img2/200/Congruent/R/C_Dist_200_LN_3_LD_6_RN_14_RD_20_1.png","img2/100/Incongruent/L/I_Dist_100_LN_1_LD_2_RN_8_RD_20_0.png","img2/100/Incongruent/R/I_Dist_100_LN_13_LD_26_RN_12_RD_20_1.png","img2/300/Incongruent/R/I_Dist_300_LN_13_LD_26_RN_12_RD_15_1.png","img2/100/Congruent/R/C_Dist_100_LN_1_LD_2_RN_3_RD_5_1.png","img2/300/Incongruent/L/I_Dist_300_LN_8_LD_10_RN_9_RD_18_0.png","img2/200/Congruent/R/C_Dist_200_LN_3_LD_12_RN_9_RD_20_1.png","img2/300/Incongruent/R/I_Dist_300_LN_4_LD_20_RN_2_RD_4_1.png","img2/300/Congruent/R/C_Dist_300_LN_3_LD_6_RN_4_RD_5_1.png","img2/300/Incongruent/R/I_Dist_300_LN_13_LD_26_RN_12_RD_15_1.png","img2/100/Congruent/R/C_Dist_100_LN_2_LD_5_RN_6_RD_12_1.png","img2/200/Incongruent/L/I_Dist_200_LN_4_LD_5_RN_6_RD_10_0.png","img2/300/Congruent/R/C_Dist_300_LN_1_LD_5_RN_11_RD_22_1.png","img2/100/Incongruent/R/I_Dist_100_LN_13_LD_26_RN_12_RD_20_1.png","img2/100/Congruent/R/C_Dist_100_LN_12_LD_30_RN_13_RD_26_1.png","img2/100/Congruent/L/C_Dist_100_LN_9_LD_15_RN_8_RD_16_0.png","img2/200/Congruent/L/C_Dist_200_LN_9_LD_20_RN_4_RD_16_0.png","img2/300/Incongruent/R/I_Dist_300_LN_13_LD_26_RN_12_RD_15_1.png","img2/200/Incongruent/R/I_Dist_200_LN_7_LD_15_RN_6_RD_9_1.png","img2/200/Incongruent/R/I_Dist_200_LN_4_LD_30_RN_1_RD_3_1.png","img2/100/Congruent/L/C_Dist_100_LN_15_LD_25_RN_13_RD_26_0.png","img2/300/Incongruent/L/I_Dist_300_LN_1_LD_2_RN_3_RD_15_0.png","img2/100/Incongruent/R/I_Dist_100_LN_12_LD_30_RN_2_RD_4_1.png","img2/200/Incongruent/L/I_Dist_200_LN_7_LD_10_RN_8_RD_16_0.png","img2/300/Incongruent/R/I_Dist_300_LN_4_LD_20_RN_2_RD_4_1.png","img2/200/Incongruent/R/I_Dist_200_LN_4_LD_30_RN_1_RD_3_1.png","img2/200/Incongruent/R/I_Dist_200_LN_6_LD_20_RN_3_RD_6_1.png","img2/100/Congruent/L/C_Dist_100_LN_9_LD_15_RN_8_RD_16_0.png","img2/200/Incongruent/R/I_Dist_200_LN_4_LD_30_RN_1_RD_3_1.png","img2/200/Congruent/L/C_Dist_200_LN_16_LD_20_RN_12_RD_20_0.png","img2/200/Congruent/R/C_Dist_200_LN_6_LD_12_RN_7_RD_10_1.png","img2/300/Incongruent/R/I_Dist_300_LN_4_LD_20_RN_2_RD_4_1.png","img2/300/Congruent/R/C_Dist_300_LN_5_LD_25_RN_6_RD_12_1.png","img2/200/Congruent/R/C_Dist_200_LN_6_LD_12_RN_7_RD_10_1.png","img2/200/Congruent/R/C_Dist_200_LN_7_LD_15_RN_18_RD_27_1.png","img2/100/Incongruent/L/I_Dist_100_LN_3_LD_6_RN_4_RD_10_0.png","img2/200/Incongruent/R/I_Dist_200_LN_14_LD_30_RN_12_RD_18_1.png","img2/100/Congruent/L/C_Dist_100_LN_11_LD_22_RN_6_RD_15_0.png","img2/300/Incongruent/L/I_Dist_300_LN_8_LD_10_RN_14_RD_28_0.png","img2/300/Congruent/R/C_Dist_300_LN_2_LD_20_RN_10_RD_25_1.png","img2/300/Congruent/L/C_Dist_300_LN_4_LD_5_RN_2_RD_4_0.png","img2/100/Incongruent/R/I_Dist_100_LN_8_LD_20_RN_1_RD_2_1.png","img2/200/Congruent/R/C_Dist_200_LN_3_LD_10_RN_11_RD_22_1.png","img2/100/Congruent/L/C_Dist_100_LN_15_LD_25_RN_13_RD_26_0.png","img2/200/Incongruent/L/I_Dist_200_LN_7_LD_10_RN_12_RD_24_0.png","img2/300/Incongruent/R/I_Dist_300_LN_13_LD_26_RN_12_RD_15_1.png","img2/300/Incongruent/L/I_Dist_300_LN_1_LD_2_RN_2_RD_10_0.png","img2/100/Incongruent/R/I_Dist_100_LN_17_LD_30_RN_10_RD_15_1.png","img2/300/Incongruent/R/I_Dist_300_LN_13_LD_26_RN_12_RD_15_1.png","img2/100/Congruent/L/C_Dist_100_LN_11_LD_22_RN_4_RD_10_0.png","img2/200/Congruent/L/C_Dist_200_LN_9_LD_20_RN_4_RD_16_0.png","img2/300/Congruent/L/C_Dist_300_LN_20_LD_25_RN_8_RD_16_0.png","img2/100/Incongruent/R/I_Dist_100_LN_8_LD_16_RN_6_RD_10_1.png","img2/200/Congruent/L/C_Dist_200_LN_12_LD_15_RN_6_RD_10_0.png","img2/100/Incongruent/R/I_Dist_100_LN_12_LD_24_RN_9_RD_15_1.png","img2/100/Congruent/L/C_Dist_100_LN_9_LD_15_RN_8_RD_16_0.png","img2/300/Congruent/R/C_Dist_300_LN_1_LD_20_RN_7_RD_20_1.png","img2/200/Congruent/R/C_Dist_200_LN_5_LD_10_RN_14_RD_20_1.png","img2/200/Incongruent/L/I_Dist_200_LN_1_LD_2_RN_3_RD_10_0.png","img2/100/Incongruent/R/I_Dist_100_LN_10_LD_25_RN_9_RD_18_1.png","img2/300/Congruent/L/C_Dist_300_LN_9_LD_10_RN_3_RD_5_0.png","img2/200/Incongruent/R/I_Dist_200_LN_14_LD_30_RN_12_RD_18_1.png","img2/300/Incongruent/R/I_Dist_300_LN_13_LD_26_RN_12_RD_15_1.png","img2/100/Incongruent/L/I_Dist_100_LN_4_LD_8_RN_8_RD_20_0.png","img2/300/Incongruent/L/I_Dist_300_LN_4_LD_5_RN_6_RD_12_0.png","img2/100/Congruent/L/C_Dist_100_LN_9_LD_15_RN_8_RD_16_0.png","img2/100/Congruent/L/C_Dist_100_LN_10_LD_25_RN_3_RD_10_0.png","img2/100/Congruent/R/C_Dist_100_LN_4_LD_10_RN_15_RD_30_1.png","img2/300/Congruent/L/C_Dist_300_LN_4_LD_5_RN_2_RD_4_0.png","img2/200/Congruent/R/C_Dist_200_LN_6_LD_20_RN_11_RD_22_1.png","img2/100/Incongruent/L/I_Dist_100_LN_3_LD_6_RN_4_RD_10_0.png","img2/100/Incongruent/R/I_Dist_100_LN_10_LD_25_RN_9_RD_18_1.png","img2/300/Congruent/R/C_Dist_300_LN_1_LD_20_RN_7_RD_20_1.png","img2/100/Incongruent/R/I_Dist_100_LN_10_LD_25_RN_8_RD_16_1.png","img2/200/Incongruent/R/I_Dist_200_LN_14_LD_30_RN_6_RD_9_1.png","img2/100/Congruent/R/C_Dist_100_LN_12_LD_30_RN_13_RD_26_1.png","img2/100/Incongruent/R/I_Dist_100_LN_6_LD_12_RN_3_RD_5_1.png","img2/200/Incongruent/L/I_Dist_200_LN_4_LD_6_RN_14_RD_30_0.png","img2/200/Incongruent/L/I_Dist_200_LN_4_LD_5_RN_6_RD_10_0.png","img2/200/Incongruent/R/I_Dist_200_LN_11_LD_20_RN_3_RD_4_1.png","img2/300/Congruent/R/C_Dist_300_LN_3_LD_12_RN_11_RD_20_1.png","img2/100/Congruent/L/C_Dist_100_LN_11_LD_22_RN_6_RD_15_0.png","img2/300/Congruent/R/C_Dist_300_LN_2_LD_20_RN_10_RD_25_1.png","img2/300/Congruent/R/C_Dist_300_LN_7_LD_14_RN_20_RD_25_1.png","img2/300/Incongruent/R/I_Dist_300_LN_13_LD_26_RN_12_RD_15_1.png","img2/100/Incongruent/R/I_Dist_100_LN_12_LD_24_RN_9_RD_15_1.png","img2/300/Incongruent/L/I_Dist_300_LN_7_LD_10_RN_8_RD_20_0.png","img2/200/Incongruent/R/I_Dist_200_LN_9_LD_15_RN_8_RD_10_1.png","img2/100/Incongruent/R/I_Dist_100_LN_13_LD_26_RN_6_RD_10_1.png","img2/100/Incongruent/R/I_Dist_100_LN_8_LD_16_RN_6_RD_10_1.png","img2/300/Congruent/R/C_Dist_300_LN_1_LD_3_RN_19_RD_30_1.png","img2/200/Congruent/L/C_Dist_200_LN_16_LD_30_RN_9_RD_27_0.png","img2/300/Congruent/R/C_Dist_300_LN_1_LD_30_RN_8_RD_24_1.png","img2/300/Congruent/L/C_Dist_300_LN_20_LD_25_RN_9_RD_18_0.png","img2/300/Congruent/R/C_Dist_300_LN_1_LD_3_RN_19_RD_30_1.png","img2/200/Incongruent/R/I_Dist_200_LN_14_LD_30_RN_12_RD_18_1.png","img2/100/Incongruent/R/I_Dist_100_LN_13_LD_26_RN_6_RD_10_1.png","img2/100/Congruent/L/C_Dist_100_LN_10_LD_25_RN_3_RD_10_0.png","img2/200/Incongruent/R/I_Dist_200_LN_3_LD_10_RN_1_RD_2_1.png","img2/300/Incongruent/L/I_Dist_300_LN_8_LD_10_RN_9_RD_18_0.png","img2/300/Incongruent/L/I_Dist_300_LN_3_LD_6_RN_4_RD_20_0.png","img2/300/Congruent/L/C_Dist_300_LN_11_LD_22_RN_4_RD_20_0.png","img2/200/Incongruent/L/I_Dist_200_LN_7_LD_10_RN_8_RD_16_0.png","img2/300/Congruent/R/C_Dist_300_LN_1_LD_3_RN_19_RD_30_1.png","img2/200/Congruent/L/C_Dist_200_LN_6_LD_15_RN_3_RD_15_0.png","img2/200/Congruent/L/C_Dist_200_LN_15_LD_25_RN_4_RD_10_0.png","img2/300/Congruent/R/C_Dist_300_LN_1_LD_30_RN_8_RD_24_1.png","img2/100/Congruent/L/C_Dist_100_LN_8_LD_16_RN_2_RD_5_0.png","img2/200/Congruent/R/C_Dist_200_LN_6_LD_20_RN_11_RD_22_1.png","img2/300/Incongruent/L/I_Dist_300_LN_1_LD_2_RN_2_RD_10_0.png"],"dist100_C":[["C_Dist_100_LN_10_LD_25_RN_3_RD_10_0.png","C_Dist_100_LN_11_LD_22_RN_4_RD_10_0.png","C_Dist_100_LN_11_LD_22_RN_6_RD_15_0.png","C_Dist_100_LN_15_LD_25_RN_13_RD_26_0.png","C_Dist_100_LN_3_LD_6_RN_2_RD_5_0.png","C_Dist_100_LN_6_LD_20_RN_5_RD_25_0.png","C_Dist_100_LN_8_LD_16_RN_2_RD_5_0.png","C_Dist_100_LN_9_LD_15_RN_8_RD_16_0.png"],["C_Dist_100_LN_1_LD_2_RN_18_RD_30_1.png","C_Dist_100_LN_1_LD_2_RN_3_RD_5_1.png","C_Dist_100_LN_12_LD_30_RN_13_RD_26_1.png","C_Dist_100_LN_2_LD_5_RN_11_RD_22_1.png","C_Dist_100_LN_2_LD_5_RN_6_RD_12_1.png","C_Dist_100_LN_3_LD_20_RN_4_RD_16_1.png","C_Dist_100_LN_4_LD_10_RN_15_RD_30_1.png","C_Dist_100_LN_4_LD_8_RN_6_RD_10_1.png","C_Dist_100_LN_6_LD_12_RN_15_RD_25_1.png","C_Dist_100_LN_7_LD_14_RN_15_RD_25_1.png","C_Dist_100_LN_7_LD_14_RN_9_RD_15_1.png"]],"dist100_I":[["I_Dist_100_LN_1_LD_2_RN_8_RD_20_0.png","I_Dist_100_LN_2_LD_4_RN_6_RD_15_0.png","I_Dist_100_LN_2_LD_4_RN_8_RD_20_0.png","I_Dist_100_LN_3_LD_5_RN_11_RD_22_0.png","I_Dist_100_LN_3_LD_5_RN_8_RD_16_0.png","I_Dist_100_LN_3_LD_6_RN_4_RD_10_0.png","I_Dist_100_LN_3_LD_9_RN_7_RD_30_0.png","I_Dist_100_LN_4_LD_8_RN_8_RD_20_0.png","I_Dist_100_LN_6_LD_10_RN_11_RD_22_0.png","I_Dist_100_LN_6_LD_10_RN_13_RD_26_0.png","I_Dist_100_LN_6_LD_10_RN_7_RD_14_0.png","I_Dist_100_LN_9_LD_10_RN_20_RD_25_0.png","I_Dist_100_LN_9_LD_15_RN_13_RD_26_0.png","I_Dist_100_LN_9_LD_15_RN_14_RD_28_0.png"],["I_Dist_100_LN_10_LD_25_RN_8_RD_16_1.png","I_Dist_100_LN_10_LD_25_RN_9_RD_18_1.png","I_Dist_100_LN_11_LD_22_RN_9_RD_15_1.png","I_Dist_100_LN_12_LD_24_RN_9_RD_15_1.png","I_Dist_100_LN_12_LD_30_RN_2_RD_4_1.png","I_Dist_100_LN_13_LD_26_RN_12_RD_20_1.png","I_Dist_100_LN_13_LD_26_RN_6_RD_10_1.png","I_Dist_100_LN_17_LD_30_RN_10_RD_15_1.png","I_Dist_100_LN_6_LD_12_RN_3_RD_5_1.png","I_Dist_100_LN_8_LD_16_RN_6_RD_10_1.png","I_Dist_100_LN_8_LD_20_RN_1_RD_2_1.png","I_Dist_100_LN_9_LD_18_RN_6_RD_10_1.png"]],"dist100_S":[["E_Dist_100_LN_2_LD_12_RN_2_RD_30_0.png","E_Dist_100_LN_6_LD_10_RN_6_RD_12_0.png"],["E_Dist_100_LN_6_LD_12_RN_6_RD_10_1.png"]],"dist200_C":[["C_Dist_200_LN_11_LD_22_RN_3_RD_10_0.png","C_Dist_200_LN_12_LD_15_RN_6_RD_10_0.png","C_Dist_200_LN_12_LD_20_RN_6_RD_15_0.png","C_Dist_200_LN_14_LD_28_RN_6_RD_20_0.png","C_Dist_200_LN_15_LD_25_RN_4_RD_10_0.png","C_Dist_200_LN_16_LD_20_RN_12_RD_20_0.png","C_Dist_200_LN_16_LD_30_RN_9_RD_27_0.png","C_Dist_200_LN_20_LD_25_RN_9_RD_15_0.png","C_Dist_200_LN_21_LD_30_RN_2_RD_4_0.png","C_Dist_200_LN_4_LD_10_RN_3_RD_15_0.png","C_Dist_200_LN_4_LD_8_RN_3_RD_10_0.png","C_Dist_200_LN_6_LD_15_RN_3_RD_15_0.png","C_Dist_200_LN_7_LD_21_RN_2_RD_15_0.png","C_Dist_200_LN_8_LD_15_RN_2_RD_6_0.png","C_Dist_200_LN_8_LD_15_RN_3_RD_9_0.png","C_Dist_200_LN_8_LD_15_RN_7_RD_21_0.png","C_Dist_200_LN_9_LD_20_RN_4_RD_16_0.png"],["C_Dist_200_LN_1_LD_2_RN_21_RD_30_1.png","C_Dist_200_LN_13_LD_26_RN_14_RD_20_1.png","C_Dist_200_LN_3_LD_10_RN_11_RD_22_1.png","C_Dist_200_LN_3_LD_10_RN_14_RD_28_1.png","C_Dist_200_LN_3_LD_10_RN_7_RD_14_1.png","C_Dist_200_LN_3_LD_12_RN_9_RD_20_1.png","C_Dist_200_LN_3_LD_6_RN_14_RD_20_1.png","C_Dist_200_LN_5_LD_10_RN_14_RD_20_1.png","C_Dist_200_LN_6_LD_12_RN_7_RD_10_1.png","C_Dist_200_LN_6_LD_20_RN_11_RD_22_1.png","C_Dist_200_LN_7_LD_15_RN_18_RD_27_1.png","C_Dist_200_LN_9_LD_30_RN_13_RD_26_1.png"]],"dist200_I":[["I_Dist_200_LN_1_LD_2_RN_3_RD_10_0.png","I_Dist_200_LN_1_LD_3_RN_2_RD_15_0.png","I_Dist_200_LN_3_LD_4_RN_11_RD_20_0.png","I_Dist_200_LN_4_LD_5_RN_6_RD_10_0.png","I_Dist_200_LN_4_LD_6_RN_14_RD_30_0.png","I_Dist_200_LN_7_LD_10_RN_12_RD_24_0.png","I_Dist_200_LN_7_LD_10_RN_14_RD_28_0.png","I_Dist_200_LN_7_LD_10_RN_8_RD_16_0.png"],["I_Dist_200_LN_11_LD_20_RN_3_RD_4_1.png","I_Dist_200_LN_14_LD_30_RN_12_RD_18_1.png","I_Dist_200_LN_14_LD_30_RN_6_RD_9_1.png","I_Dist_200_LN_3_LD_10_RN_1_RD_2_1.png","I_Dist_200_LN_4_LD_30_RN_1_RD_3_1.png","I_Dist_200_LN_6_LD_20_RN_3_RD_6_1.png","I_Dist_200_LN_7_LD_15_RN_4_RD_6_1.png","I_Dist_200_LN_7_LD_15_RN_6_RD_9_1.png","I_Dist_200_LN_9_LD_15_RN_8_RD_10_1.png"]],"dist200_S":[["E_Dist_200_LN_3_LD_6_RN_3_RD_10_0.png"],["E_Dist_200_LN_3_LD_10_RN_3_RD_6_1.png"]],"dist300_C":[["C_Dist_300_LN_11_LD_22_RN_1_RD_5_0.png","C_Dist_300_LN_11_LD_22_RN_2_RD_10_0.png","C_Dist_300_LN_11_LD_22_RN_4_RD_20_0.png","C_Dist_300_LN_12_LD_24_RN_2_RD_10_0.png","C_Dist_300_LN_18_LD_20_RN_9_RD_15_0.png","C_Dist_300_LN_20_LD_25_RN_13_RD_26_0.png","C_Dist_300_LN_20_LD_25_RN_14_RD_28_0.png","C_Dist_300_LN_20_LD_25_RN_5_RD_10_0.png","C_Dist_300_LN_20_LD_25_RN_8_RD_16_0.png","C_Dist_300_LN_20_LD_25_RN_9_RD_18_0.png","C_Dist_300_LN_24_LD_30_RN_2_RD_4_0.png","C_Dist_300_LN_24_LD_30_RN_8_RD_16_0.png","C_Dist_300_LN_3_LD_6_RN_2_RD_10_0.png","C_Dist_300_LN_4_LD_10_RN_1_RD_10_0.png","C_Dist_300_LN_4_LD_5_RN_2_RD_4_0.png","C_Dist_300_LN_8_LD_16_RN_1_RD_5_0.png","C_Dist_300_LN_9_LD_10_RN_3_RD_5_0.png"],["C_Dist_300_LN_1_LD_20_RN_7_RD_20_1.png","C_Dist_300_LN_1_LD_3_RN_19_RD_30_1.png","C_Dist_300_LN_1_LD_30_RN_8_RD_24_1.png","C_Dist_300_LN_1_LD_5_RN_11_RD_22_1.png","C_Dist_300_LN_1_LD_5_RN_3_RD_6_1.png","C_Dist_300_LN_1_LD_5_RN_6_RD_12_1.png","C_Dist_300_LN_2_LD_10_RN_12_RD_24_1.png","C_Dist_300_LN_2_LD_20_RN_10_RD_25_1.png","C_Dist_300_LN_3_LD_12_RN_11_RD_20_1.png","C_Dist_300_LN_3_LD_6_RN_4_RD_5_1.png","C_Dist_300_LN_4_LD_20_RN_13_RD_26_1.png","C_Dist_300_LN_5_LD_25_RN_6_RD_12_1.png","C_Dist_300_LN_5_LD_25_RN_7_RD_14_1.png","C_Dist_300_LN_7_LD_14_RN_20_RD_25_1.png","C_Dist_300_LN_8_LD_15_RN_10_RD_12_1.png"]],"dist300_I":[["I_Dist_300_LN_1_LD_2_RN_2_RD_10_0.png","I_Dist_300_LN_1_LD_2_RN_3_RD_15_0.png","I_Dist_300_LN_2_LD_4_RN_6_RD_30_0.png","I_Dist_300_LN_3_LD_6_RN_4_RD_20_0.png","I_Dist_300_LN_4_LD_5_RN_6_RD_12_0.png","I_Dist_300_LN_4_LD_5_RN_8_RD_16_0.png","I_Dist_300_LN_7_LD_10_RN_8_RD_20_0.png","I_Dist_300_LN_8_LD_10_RN_14_RD_28_0.png","I_Dist_300_LN_8_LD_10_RN_9_RD_18_0.png"],["I_Dist_300_LN_13_LD_26_RN_12_RD_15_1.png","I_Dist_300_LN_4_LD_20_RN_2_RD_4_1.png"]],"dist300_S":[["E_Dist_300_LN_9_LD_12_RN_9_RD_20_0.png"],["E_Dist_300_LN_18_LD_30_RN_18_RD_20_1.png","E_Dist_300_LN_3_LD_10_RN_3_RD_5_1.png","E_Dist_300_LN_9_LD_20_RN_9_RD_12_1.png"]],"dist500_C":[["C_Dist_500_LN_10_LD_13_RN_7_RD_26_0.png","C_Dist_500_LN_10_LD_15_RN_4_RD_24_0.png","C_Dist_500_LN_12_LD_16_RN_3_RD_12_0.png","C_Dist_500_LN_12_LD_18_RN_4_RD_24_0.png","C_Dist_500_LN_15_LD_18_RN_5_RD_15_0.png","C_Dist_500_LN_15_LD_20_RN_1_RD_4_0.png","C_Dist_500_LN_18_LD_27_RN_1_RD_6_0.png","C_Dist_500_LN_20_LD_24_RN_1_RD_3_0.png","C_Dist_500_LN_20_LD_24_RN_3_RD_9_0.png","C_Dist_500_LN_20_LD_24_RN_7_RD_21_0.png","C_Dist_500_LN_20_LD_28_RN_3_RD_14_0.png","C_Dist_500_LN_21_LD_28_RN_6_RD_24_0.png","C_Dist_500_LN_22_LD_28_RN_2_RD_7_0.png","C_Dist_500_LN_25_LD_30_RN_9_RD_27_0.png","C_Dist_500_LN_4_LD_6_RN_1_RD_6_0.png","C_Dist_500_LN_5_LD_6_RN_2_RD_6_0.png","C_Dist_500_LN_6_LD_9_RN_1_RD_6_0.png","C_Dist_500_LN_7_LD_10_RN_1_RD_5_0.png","C_Dist_500_LN_8_LD_12_RN_1_RD_6_0.png","C_Dist_500_LN_8_LD_12_RN_4_RD_24_0.png"],["C_Dist_500_LN_1_LD_4_RN_12_RD_16_1.png","C_Dist_500_LN_1_LD_4_RN_9_RD_12_1.png","C_Dist_500_LN_1_LD_9_RN_11_RD_18_1.png","C_Dist_500_LN_10_LD_24_RN_22_RD_24_1.png","C_Dist_500_LN_2_LD_12_RN_10_RD_15_1.png","C_Dist_500_LN_2_LD_12_RN_12_RD_18_1.png","C_Dist_500_LN_2_LD_12_RN_4_RD_6_1.png","C_Dist_500_LN_2_LD_24_RN_7_RD_12_1.png","C_Dist_500_LN_2_LD_5_RN_18_RD_20_1.png","C_Dist_500_LN_2_LD_5_RN_9_RD_10_1.png","C_Dist_500_LN_2_LD_8_RN_12_RD_16_1.png","C_Dist_500_LN_2_LD_8_RN_21_RD_28_1.png","C_Dist_500_LN_3_LD_10_RN_4_RD_5_1.png","C_Dist_500_LN_3_LD_12_RN_15_RD_20_1.png","C_Dist_500_LN_3_LD_30_RN_6_RD_10_1.png","C_Dist_500_LN_3_LD_8_RN_14_RD_16_1.png","C_Dist_500_LN_4_LD_16_RN_15_RD_20_1.png","C_Dist_500_LN_4_LD_24_RN_12_RD_18_1.png","C_Dist_500_LN_5_LD_14_RN_6_RD_7_1.png","C_Dist_500_LN_7_LD_21_RN_20_RD_24_1.png","C_Dist_500_LN_7_LD_28_RN_12_RD_16_1.png","C_Dist_500_LN_7_LD_28_RN_9_RD_12_1.png","C_Dist_500_LN_9_LD_27_RN_20_RD_24_1.png"]],"dist500_I":[["I_Dist_500_LN_2_LD_3_RN_4_RD_24_0.png","I_Dist_500_LN_5_LD_6_RN_6_RD_18_0.png","I_Dist_500_LN_7_LD_8_RN_9_RD_24_0.png"],["I_Dist_500_LN_7_LD_21_RN_5_RD_6_1.png"]],"dist500_S":[["E_Dist_500_LN_6_LD_8_RN_6_RD_24_0.png"],["E_Dist_500_LN_2_LD_12_RN_2_RD_3_1.png","E_Dist_500_LN_6_LD_24_RN_6_RD_8_1.png"]]}},{"start_time":1552308833993,"click_time":1552308836846,"finger_time":1552308835946,"fix_duration":806.2882024975888,"trial":1,"RT":1953,"MT":900,"sideResp":1,"stimulus":[],"xmouse":[765,765,765,765,765,765,765,765,765,765,765,765,765,765,765,765,765,765,765,765,765,765,765,765,765,765,765,765,765,765,765,765,765,765,765,765,765,765,765,765,765,765,765,765,765,765,765,765,765,765,765,765,765,765,765,765,765,766,766,766,766,766,766,766,766,766,766,766,766,766,766,766,766,766,766,766,766,766,766,766,766,766,766,766,766,766,766,766,766,766,766,766,766,766,766,766,771,775,777,777,777,776,776,776,776,776,776,776,776,776,775,770,763,763,763,763,763,763,762,762,759,743,730,718,700,691,673,668,662,654,645,630,622,608,600,591,577,570,560,551,543,530,523],"ymouse":[601,601,601,601,601,601,601,601,601,601,601,601,601,601,601,601,601,601,601,601,601,601,601,601,601,601,601,601,601,601,601,601,601,601,601,601,601,601,601,601,601,601,601,601,601,601,601,601,601,601,601,601,601,601,601,601,597,592,592,592,592,592,592,592,592,592,592,592,592,592,592,592,592,592,592,592,592,592,592,592,592,592,592,592,592,592,592,592,592,592,592,592,592,592,592,592,581,568,557,542,523,515,514,514,514,514,514,514,514,514,508,477,428,426,426,426,426,426,425,425,421,396,378,365,342,329,297,282,266,248,227,190,173,147,133,117,87,73,57,42,29,13,9],"timestamp_mouse":[13,33,52,73,93,113,133,153,173,192,213,233,251,271,292,312,331,353,372,392,412,433,451,473,493,511,532,552,572,591,612,632,653,672,691,712,731,753,772,792,812,832,853,873,891,912,932,953,973,991,1012,1033,1052,1072,1092,1113,1133,1152,1172,1192,1213,1232,1251,1272,1293,1312,1332,1353,1372,1393,1413,1433,1452,1472,1493,1511,1533,1553,1572,1593,1612,1633,1652,1673,1692,1713,1733,1752,1772,1793,1812,1832,1852,1873,1893,1912,1932,1953,1973,1992,2013,2031,2052,2072,2092,2113,2133,2152,2172,2193,2212,2232,2252,2272,2292,2312,2332,2352,2373,2393,2412,2432,2453,2473,2492,2513,2532,2552,2572,2592,2612,2632,2652,2673,2693,2713,2732,2752,2772,2793,2812,2831,2852],"xSR":741.5,"ySR":573.95,"xT1":424.9,"yT1":0,"xT2":1058.1,"yT2":0,"toosoon":0,"cond_shown":"Congruent","ratio_trial":100,"L_num":12,"L_den":30,"R_num":13,"R_den":26,"correct_side":2,"subjID":"ValeriaPorrasMuñoz18","gender":"1","school":"4","age":"8"},{"start_time":1552308840464,"click_time":1552308847245,"finger_time":1552308846586,"fix_duration":779.2390325932427,"trial":2,"RT":6122,"MT":659,"sideResp":1,"stimulus":[],"xmouse":[779,779,779,779,779,779,779,779,779,779,779,779,779,779,779,779,779,779,779,779,779,779,779,779,779,779,779,779,779,779,779,779,779,779,779,779,779,779,779,779,778,777,777,776,776,776,776,776,776,776,776,776,776,776,776,776,776,776,776,776,775,775,775,775,775,775,775,775,775,775,775,775,775,775,775,775,775,775,775,775,775,775,774,774,774,774,774,774,774,774,774,774,774,774,774,774,774,774,773,773,773,772,772,772,772,772,772,771,771,771,771,771,771,770,770,769,769,768,768,768,768,767,766,765,765,764,764,764,763,762,762,761,761,760,760,760,760,760,759,759,759,759,759,759,759,759,759,759,759,759,759,759,759,759,759,759,759,759,759,759,759,759,759,759,759,759,759,759,759,759,759,759,759,759,759,759,759,759,759,759,759,759,759,759,759,759,759,759,759,759,759,759,759,759,759,759,759,760,761,762,765,767,767,767,767,767,767,767,767,767,767,767,767,767,767,767,767,767,767,767,767,767,767,771,773,775,775,775,775,775,775,775,775,775,775,775,777,782,786,788,790,790,790,790,790,790,790,790,790,790,790,790,790,790,790,790,790,790,790,790,790,790,790,790,790,790,790,790,790,790,790,790,790,790,790,790,790,790,790,789,789,789,789,789,789,789,789,787,785,783,780,779,777,775,774,773,772,772,772,772,772,772,771,769,765,743,724,702,682,666,655,647,647,647,647,647,647,642,638,630,617,611,608,606,602,599,590,583,577,571,566,561,559,558,556,546,538,529,519,512],"ymouse":[585,585,585,585,585,585,585,585,585,585,585,585,585,585,585,585,585,585,585,585,585,585,585,585,585,585,585,585,585,585,585,585,585,585,585,585,585,585,585,584,584,584,584,585,586,586,587,587,587,587,587,587,587,587,587,587,587,587,587,588,589,591,592,592,592,592,592,593,593,593,594,594,595,595,595,596,596,596,596,596,597,597,598,598,598,598,599,599,600,601,602,604,604,605,605,606,606,606,607,607,607,608,608,609,610,610,611,611,611,611,613,613,613,613,614,614,615,616,617,617,618,619,619,620,622,623,624,624,625,626,626,626,628,628,628,629,629,629,630,630,630,630,630,630,630,630,630,630,630,630,630,630,630,630,630,630,630,630,630,630,630,630,630,630,630,630,630,630,630,630,630,630,630,630,630,630,630,630,630,630,630,630,630,630,630,630,630,630,630,630,630,630,630,630,630,630,630,631,631,630,629,628,628,628,628,628,628,628,628,628,628,628,628,628,628,628,628,628,628,628,628,628,627,625,623,622,622,622,622,622,622,622,622,622,622,622,622,618,616,614,613,613,613,613,613,613,613,613,613,613,613,613,613,613,613,613,613,613,613,613,613,613,613,613,613,613,613,613,613,613,613,613,613,613,613,613,613,613,613,613,613,613,613,613,613,613,613,613,614,616,618,618,619,621,622,623,623,623,623,623,623,623,623,618,610,585,570,553,535,520,503,451,430,406,381,355,308,285,264,244,216,202,195,190,184,178,163,155,148,144,141,136,135,135,133,127,121,113,103,92],"timestamp_mouse":[3,21,42,61,81,101,121,141,161,181,201,220,241,262,281,300,321,342,361,380,401,421,441,461,481,500,521,541,562,580,601,621,641,661,681,701,721,741,761,781,801,821,841,861,881,900,922,940,960,981,1001,1022,1041,1061,1080,1100,1122,1142,1161,1181,1201,1222,1241,1262,1282,1302,1322,1341,1361,1380,1402,1421,1441,1461,1481,1501,1521,1540,1561,1581,1602,1621,1640,1661,1682,1701,1721,1741,1762,1782,1801,1821,1842,1861,1882,1901,1922,1942,1961,1981,2002,2021,2042,2062,2082,2102,2122,2141,2162,2180,2202,2221,2241,2261,2281,2301,2321,2342,2362,2381,2401,2421,2442,2462,2481,2501,2522,2542,2562,2582,2602,2620,2642,2661,2681,2702,2720,2741,2761,2782,2801,2821,2842,2861,2882,2901,2922,2942,2961,2980,3002,3022,3042,3062,3082,3102,3120,3142,3162,3181,3202,3222,3242,3261,3282,3300,3322,3341,3361,3381,3402,3422,3441,3462,3481,3502,3521,3541,3561,3582,3601,3622,3642,3661,3680,3702,3721,3741,3762,3781,3800,3822,3841,3861,3881,3900,3920,3941,3961,3982,4001,4022,4042,4062,4081,4101,4121,4140,4162,4181,4201,4220,4242,4262,4282,4300,4322,4341,4362,4381,4402,4422,4442,4461,4480,4501,4522,4541,4562,4582,4600,4622,4642,4661,4680,4701,4721,4741,4761,4782,4802,4821,4841,4862,4882,4902,4921,4942,4962,4980,5001,5022,5041,5061,5082,5102,5122,5141,5161,5182,5201,5222,5242,5262,5281,5302,5322,5341,5362,5381,5400,5421,5441,5461,5481,5502,5521,5541,5562,5581,5601,5621,5642,5661,5680,5701,5722,5742,5761,5781,5801,5821,5840,5861,5882,5901,5920,5941,5961,5981,6001,6021,6042,6062,6082,6101,6122,6141,6161,6180,6201,6221,6241,6261,6280,6300,6321,6340,6361,6380,6400,6420,6441,6461,6482,6500,6521,6540,6562,6580,6600,6620,6640,6660,6680,6701,6720,6741,6761,6781],"xSR":741.5,"ySR":573.95,"xT1":424.9,"yT1":0,"xT2":1058.1,"yT2":0,"toosoon":0,"cond_shown":"Incongruent","ratio_trial":300,"L_num":2,"L_den":4,"R_num":6,"R_den":30,"correct_side":1,"subjID":"ValeriaPorrasMuñoz18","gender":"1","school":"4","age":"8"},{"start_time":1552308849776,"click_time":1552308852486,"finger_time":1552308851384,"fix_duration":250,"trial":3,"RT":1608,"MT":1102,"sideResp":2,"stimulus":[],"xmouse":[797,797,797,797,797,797,797,797,797,797,797,797,797,797,797,797,797,797,797,797,797,797,797,797,797,797,797,797,797,797,797,797,797,797,797,797,797,797,797,797,797,797,797,797,797,797,797,797,797,797,797,797,797,797,797,797,797,797,797,797,797,797,797,797,797,797,797,797,797,797,797,797,797,796,799,810,829,834,838,840,848,856,868,888,923,954,1029,1068,1105,1142,1206,1229,1247,1265,1295,1337,1356,1370,1381,1390,1399,1401,1402,1402,1402,1402,1402,1401,1399,1394,1378,1367,1350,1333,1304,1273,1262,1256,1254,1253,1251,1250,1248,1243,1230,1221,1203,1198,1194,1191,1185,1177,1173,1164,1161,1158],"ymouse":[642,642,642,642,642,642,642,642,642,642,642,642,642,642,642,642,642,642,642,642,642,642,642,642,642,642,642,642,642,642,642,642,642,642,642,642,642,642,642,642,642,642,642,642,642,642,642,642,642,642,642,642,642,642,642,642,642,642,642,642,642,642,642,642,642,642,642,642,642,642,642,642,642,641,638,631,621,619,616,613,608,600,591,577,552,531,483,463,443,423,385,369,350,330,292,231,204,180,155,135,104,94,88,85,85,85,85,85,84,83,81,81,79,77,73,68,66,65,64,63,63,63,62,61,57,53,47,46,44,44,44,43,41,40,40,39],"timestamp_mouse":[9,29,49,69,89,109,130,149,169,189,209,228,249,269,288,310,329,348,369,389,409,430,449,469,489,510,528,549,569,588,609,629,648,668,688,709,729,748,769,789,809,829,849,868,889,909,929,949,968,988,1010,1028,1049,1068,1088,1108,1129,1150,1168,1188,1209,1229,1250,1268,1289,1308,1328,1349,1368,1389,1408,1429,1449,1469,1488,1508,1529,1549,1569,1588,1608,1628,1649,1670,1688,1708,1729,1748,1768,1788,1808,1829,1848,1869,1889,1908,1929,1948,1968,1988,2008,2029,2048,2069,2089,2108,2128,2149,2168,2188,2209,2229,2249,2269,2288,2308,2328,2349,2369,2388,2408,2430,2450,2469,2489,2508,2528,2548,2568,2589,2608,2628,2649,2668,2689,2710],"xSR":741.5,"ySR":573.95,"xT1":424.9,"yT1":0,"xT2":1058.1,"yT2":0,"toosoon":0,"cond_shown":"Incongruent","ratio_trial":100,"L_num":6,"L_den":10,"R_num":13,"R_den":26,"correct_side":1,"subjID":"ValeriaPorrasMuñoz18","gender":"1","school":"4","age":"8"},{"start_time":1552308855016,"click_time":1552308857184,"finger_time":1552308856065,"fix_duration":250,"trial":4,"RT":1049,"MT":1119,"sideResp":1,"stimulus":[],"xmouse":[786,785,784,783,783,781,780,779,778,777,775,772,771,769,766,765,765,765,765,765,765,765,765,765,765,765,765,765,765,765,765,765,765,765,765,765,765,765,765,765,765,765,765,765,765,765,765,765,762,753,748,744,741,731,722,710,696,680,636,619,612,610,610,610,610,610,610,610,610,610,610,610,607,603,586,573,561,548,531,527,526,526,526,526,526,526,526,526,526,526,526,526,526,526,527,527,527,527,527,527,527,527,524,516,482,462,450,444,444],"ymouse":[602,603,605,605,605,606,606,606,607,607,608,609,611,612,615,616,617,617,617,617,617,617,617,617,617,617,617,617,617,617,617,617,617,617,617,617,617,617,617,617,617,617,617,617,617,617,617,617,615,599,587,574,560,528,509,487,468,449,397,370,358,350,347,345,345,345,345,345,345,345,345,345,341,332,311,293,276,258,236,229,229,229,229,229,229,229,229,229,229,229,229,229,229,228,227,227,227,227,227,227,227,225,221,210,169,144,120,102,87],"timestamp_mouse":[8,28,48,68,89,109,129,149,168,189,208,228,249,269,288,309,330,348,370,389,409,429,448,469,489,509,529,549,568,588,608,628,648,670,689,708,728,748,769,788,809,828,850,869,888,910,928,948,968,988,1009,1029,1049,1068,1090,1108,1128,1148,1168,1188,1208,1229,1248,1269,1288,1309,1329,1348,1370,1388,1408,1428,1448,1469,1489,1508,1530,1548,1568,1588,1608,1628,1649,1669,1688,1708,1728,1748,1770,1788,1809,1828,1848,1869,1888,1908,1928,1950,1969,1990,2008,2029,2049,2068,2088,2109,2129,2149,2168],"xSR":741.5,"ySR":573.95,"xT1":424.9,"yT1":0,"xT2":1058.1,"yT2":0,"toosoon":0,"cond_shown":"Incongruent","ratio_trial":200,"L_num":7,"L_den":10,"R_num":12,"R_den":24,"correct_side":1,"subjID":"ValeriaPorrasMuñoz18","gender":"1","school":"4","age":"8"},{"start_time":1552308859300,"click_time":1552308862205,"finger_time":1552308860984,"fix_duration":733.2017549356759,"trial":5,"RT":1684,"MT":1221,"sideResp":2,"stimulus":[],"xmouse":[790,790,790,790,790,790,790,790,790,790,790,790,790,790,790,790,790,790,790,790,790,790,790,790,790,790,790,790,790,790,790,790,790,790,790,790,790,790,790,790,790,790,790,790,790,790,790,790,790,790,790,790,790,790,790,790,789,787,785,783,779,778,778,778,777,777,777,777,777,777,777,777,777,777,777,777,777,777,777,777,777,777,777,777,777,777,772,763,746,725,681,662,646,633,618,575,558,542,530,523,521,521,521,521,521,521,521,521,521,521,521,523,526,530,544,574,590,608,628,652,723,759,807,816,843,858,861,866,875,889,931,958,990,1016,1044,1058,1059,1060,1060,1060,1061,1062,1063,1065,1072,1084],"ymouse":[588,588,588,588,588,588,588,588,588,588,588,588,588,588,588,588,588,588,588,588,588,588,588,588,588,588,588,588,588,588,588,588,588,588,588,588,588,588,588,588,588,588,588,588,588,588,588,588,588,588,588,588,588,588,588,588,589,589,589,588,585,583,583,581,580,576,576,576,576,576,576,576,576,576,576,576,576,576,576,576,576,576,576,574,567,551,536,519,498,476,433,415,400,386,368,326,309,295,282,275,271,271,271,271,271,271,271,271,271,271,271,272,275,278,289,306,311,314,315,315,307,302,291,287,274,254,244,238,231,224,212,209,205,202,198,195,194,194,194,194,193,188,181,166,138,93],"timestamp_mouse":[5,25,45,64,84,104,124,146,164,184,204,225,246,264,284,305,325,344,366,384,404,424,445,464,484,504,524,544,564,585,604,624,645,665,686,705,724,745,766,785,805,824,845,865,884,904,925,945,965,985,1005,1024,1045,1065,1084,1104,1124,1145,1164,1184,1204,1225,1244,1265,1284,1306,1324,1345,1364,1386,1405,1425,1445,1465,1485,1506,1525,1545,1565,1584,1604,1626,1645,1665,1684,1704,1724,1745,1765,1785,1805,1824,1844,1865,1884,1905,1924,1944,1964,1984,2005,2026,2046,2064,2084,2105,2124,2144,2165,2185,2205,2224,2244,2264,2285,2305,2325,2344,2365,2385,2404,2424,2445,2464,2485,2504,2525,2544,2564,2585,2604,2625,2644,2664,2685,2704,2725,2745,2765,2784,2804,2824,2845,2865,2885,2905],"xSR":741.5,"ySR":573.95,"xT1":424.9,"yT1":0,"xT2":1058.1,"yT2":0,"toosoon":0,"cond_shown":"Congruent","ratio_trial":200,"L_num":3,"L_den":10,"R_num":11,"R_den":22,"correct_side":2,"subjID":"ValeriaPorrasMuñoz18","gender":"1","school":"4","age":"8"},{"start_time":1552308866747,"click_time":1552308868285,"finger_time":1552308867624,"fix_duration":903.4342124994519,"trial":6,"RT":877,"MT":661,"sideResp":1,"stimulus":[],"xmouse":[821,821,820,817,813,811,807,806,804,804,804,804,804,804,804,804,804,804,804,804,804,804,804,804,804,804,804,804,804,804,804,804,804,804,804,804,804,803,801,799,797,789,778,747,730,714,697,689,679,673,666,658,648,590,531,461,420,403,406,411,419,427,432,436,437,438,438,438,438,438,438,439,439,442,444,447,451],"ymouse":[629,629,629,629,629,629,629,629,628,628,628,628,628,628,628,628,628,628,628,628,628,628,628,628,628,628,628,628,628,628,628,628,628,628,628,628,628,626,622,617,612,604,594,572,559,547,531,522,506,500,494,488,477,410,347,274,228,189,165,156,147,141,137,133,133,132,132,132,132,132,132,130,130,123,115,105,84],"timestamp_mouse":[17,38,57,78,97,117,137,158,178,198,217,237,257,277,298,317,337,358,377,397,417,437,458,477,497,517,537,558,577,597,617,637,658,677,698,717,738,757,778,797,817,838,858,877,898,917,937,958,979,998,1017,1038,1057,1078,1097,1117,1137,1159,1177,1199,1218,1238,1257,1277,1298,1318,1337,1357,1378,1397,1418,1438,1458,1478,1499,1517,1538],"xSR":741.5,"ySR":573.95,"xT1":424.9,"yT1":0,"xT2":1058.1,"yT2":0,"toosoon":0,"cond_shown":"Congruent","ratio_trial":100,"L_num":11,"L_den":22,"R_num":6,"R_den":15,"correct_side":1,"subjID":"ValeriaPorrasMuñoz18","gender":"1","school":"4","age":"8"},{"start_time":1552308870736,"click_time":1552308872645,"finger_time":1552308871704,"fix_duration":250,"trial":7,"RT":968,"MT":941,"sideResp":1,"stimulus":[],"xmouse":[818,818,818,818,818,818,818,818,818,818,818,818,818,818,818,818,818,818,818,818,818,816,815,815,815,814,814,814,814,814,814,814,814,814,814,814,814,814,814,814,814,814,814,814,814,811,806,793,773,708,670,634,603,580,552,543,539,536,534,534,534,534,534,534,534,534,534,534,534,534,534,534,534,534,534,534,533,532,530,528,520,516,513,510,505,501,500,498,497,497,496,496,496,495,488,482],"ymouse":[614,614,614,614,614,614,614,614,614,614,614,614,614,614,614,614,614,614,614,614,614,614,614,614,614,614,614,614,614,614,614,614,614,614,614,614,614,614,614,614,614,614,614,614,613,601,593,578,561,515,488,462,441,422,388,368,352,334,318,299,264,250,237,231,231,231,231,231,231,231,230,230,230,230,230,230,229,227,220,213,194,182,172,161,142,131,124,119,116,114,111,111,111,110,100,89],"timestamp_mouse":[10,28,49,68,88,109,129,148,168,189,210,229,249,269,289,308,329,348,369,390,408,429,448,469,489,509,528,549,569,588,608,630,648,669,690,708,728,748,769,789,809,828,848,868,889,908,929,949,968,989,1010,1028,1048,1068,1089,1108,1128,1149,1168,1188,1209,1228,1250,1268,1289,1309,1329,1349,1370,1388,1409,1429,1448,1469,1490,1509,1528,1549,1569,1589,1609,1629,1650,1669,1688,1709,1729,1750,1769,1788,1808,1830,1848,1869,1889,1909],"xSR":741.5,"ySR":573.95,"xT1":424.9,"yT1":0,"xT2":1058.1,"yT2":0,"toosoon":0,"cond_shown":"Congruent","ratio_trial":100,"L_num":8,"L_den":16,"R_num":2,"R_den":5,"correct_side":1,"subjID":"ValeriaPorrasMuñoz18","gender":"1","school":"4","age":"8"},{"start_time":1552308874956,"click_time":1552308876285,"finger_time":1552308875644,"fix_duration":512.3823503145547,"trial":8,"RT":688,"MT":641,"sideResp":1,"stimulus":[],"xmouse":[796,796,796,796,796,796,796,796,796,794,793,793,793,793,793,793,795,796,798,798,798,798,798,799,799,799,799,798,797,796,792,788,765,756,686,651,622,602,579,529,500,470,441,423,402,400,397,396,396,396,396,396,396,396,396,396,396,396,397,404,407,410,413,419,423,424,425],"ymouse":[633,633,633,633,633,633,633,633,634,636,637,637,637,637,637,636,632,626,621,613,612,610,609,608,608,608,608,608,608,608,608,608,602,599,565,543,519,494,459,376,323,272,222,179,119,107,99,95,94,94,94,94,94,94,94,94,93,91,90,84,80,77,74,68,62,58,56],"timestamp_mouse":[8,28,48,69,89,109,129,148,169,189,209,228,249,270,289,309,329,348,368,390,409,429,448,468,489,509,529,549,569,589,608,629,650,669,688,708,728,749,768,789,809,830,849,868,888,909,928,948,969,989,1008,1029,1048,1068,1088,1109,1129,1149,1169,1189,1209,1228,1249,1269,1290,1308,1328],"xSR":741.5,"ySR":573.95,"xT1":424.9,"yT1":0,"xT2":1058.1,"yT2":0,"toosoon":0,"cond_shown":"Congruent","ratio_trial":200,"L_num":15,"L_den":25,"R_num":4,"R_den":10,"correct_side":1,"subjID":"ValeriaPorrasMuñoz18","gender":"1","school":"4","age":"8"},{"start_time":1552308879898,"click_time":1552308881945,"finger_time":1552308880344,"fix_duration":1432.74444105269,"trial":9,"RT":446,"MT":1601,"sideResp":2,"stimulus":[],"xmouse":[788,788,788,788,788,788,788,788,788,788,788,788,788,788,788,788,788,788,788,788,788,786,776,771,766,763,759,752,749,742,737,735,733,733,733,733,733,733,733,733,734,734,734,735,735,735,735,735,735,730,725,711,695,669,665,665,665,665,665,665,665,667,670,679,685,687,689,692,693,693,693,695,707,782,872,928,971,998,1000,1002,1004,1006,1011,1014,1019,1022,1024,1033,1037,1042,1046,1051,1056,1066,1072,1074,1080,1091,1101,1109,1119,1131,1141],"ymouse":[600,600,600,600,600,600,600,600,600,600,600,600,600,600,600,600,600,600,599,595,592,586,568,559,544,529,510,467,444,422,407,397,388,386,386,386,386,386,385,384,383,382,382,381,380,379,377,370,360,346,325,306,284,251,241,238,237,237,237,237,236,235,233,226,215,207,198,185,182,182,182,181,181,213,252,276,292,299,299,298,293,289,281,275,267,262,254,234,223,217,209,201,195,186,182,180,177,167,157,145,130,113,95],"timestamp_mouse":[7,27,47,66,87,107,127,147,167,187,207,227,246,266,286,306,327,348,367,386,406,427,446,468,486,506,528,546,566,586,607,626,647,667,688,706,726,747,766,787,806,826,847,866,886,907,926,946,967,987,1008,1027,1046,1066,1087,1106,1127,1147,1166,1186,1206,1227,1246,1266,1287,1307,1327,1347,1367,1387,1406,1426,1446,1467,1486,1507,1526,1546,1567,1586,1607,1626,1647,1667,1687,1706,1727,1747,1767,1786,1807,1826,1847,1867,1886,1906,1926,1946,1966,1987,2008,2026,2046],"xSR":741.5,"ySR":573.95,"xT1":424.9,"yT1":0,"xT2":1058.1,"yT2":0,"toosoon":0,"cond_shown":"Congruent","ratio_trial":200,"L_num":6,"L_den":20,"R_num":11,"R_den":22,"correct_side":2,"subjID":"ValeriaPorrasMuñoz18","gender":"1","school":"4","age":"8"},{"start_time":1552308885626,"click_time":1552308887685,"finger_time":1552308886425,"fix_duration":801.7093047559816,"trial":10,"RT":799,"MT":1260,"sideResp":2,"stimulus":[],"xmouse":[801,801,801,801,801,801,801,801,801,801,801,801,801,801,801,801,801,801,801,801,801,794,790,787,785,784,784,784,784,784,784,784,784,784,784,784,790,797,809,824,840,877,899,906,919,927,939,945,952,956,963,974,981,989,995,1000,1005,1018,1023,1029,1036,1051,1059,1067,1083,1094,1122,1134,1146,1154,1159,1167,1169,1170,1171,1171,1171,1171,1171,1171,1171,1171,1171,1171,1169,1169,1168,1168,1168,1168,1168,1168,1168,1168,1168,1168,1168,1168,1163,1157,1149,1139,1136],"ymouse":[641,641,641,641,641,641,641,641,641,641,641,641,641,641,641,641,641,641,641,635,631,617,610,606,601,599,598,596,595,594,592,591,590,590,590,589,588,586,580,572,560,523,486,473,440,422,396,385,374,366,356,336,326,311,303,294,287,270,263,255,248,232,224,215,199,188,163,153,141,133,126,117,115,113,112,112,112,112,112,112,112,112,112,112,111,111,111,111,111,111,111,111,111,111,111,111,111,111,110,107,105,101,99],"timestamp_mouse":[18,39,58,79,99,118,138,159,179,198,218,238,258,278,299,318,338,359,379,398,418,438,459,479,498,519,538,558,578,599,618,639,658,679,698,718,739,758,779,799,820,839,858,878,898,918,938,959,979,1000,1019,1038,1058,1078,1099,1119,1138,1159,1179,1198,1218,1238,1259,1279,1298,1319,1339,1359,1378,1398,1419,1438,1458,1478,1498,1519,1540,1558,1578,1598,1619,1638,1658,1678,1698,1719,1739,1758,1778,1798,1818,1839,1858,1879,1898,1918,1939,1958,1978,1999,2019,2039,2058],"xSR":741.5,"ySR":573.95,"xT1":424.9,"yT1":0,"xT2":1058.1,"yT2":0,"toosoon":0,"cond_shown":"Congruent","ratio_trial":200,"L_num":3,"L_den":6,"R_num":14,"R_den":20,"correct_side":2,"subjID":"ValeriaPorrasMuñoz18","gender":"1","school":"4","age":"8"},{"start_time":1552308890944,"click_time":1552308892925,"finger_time":1552308891565,"fix_duration":1457.94464466241,"trial":11,"RT":621,"MT":1360,"sideResp":2,"stimulus":[],"xmouse":[816,816,816,814,813,810,808,803,803,803,803,803,803,803,803,803,803,803,803,803,802,802,802,802,802,804,804,804,804,804,806,810,828,839,850,863,875,889,892,894,896,896,896,896,896,896,896,896,896,898,898,898,898,898,898,898,900,907,915,928,946,963,996,1012,1025,1037,1047,1069,1075,1080,1084,1089,1099,1103,1107,1112,1119,1131,1138,1148,1158,1169,1187,1197,1203,1208,1212,1220,1221,1223,1224,1224,1224,1224,1224,1224,1216,1195,1176,1157],"ymouse":[583,583,583,587,588,591,592,594,594,594,594,594,594,594,594,594,594,594,594,594,594,592,590,588,585,581,578,576,576,576,575,573,551,536,520,505,492,471,467,463,461,461,461,461,461,461,461,461,461,459,459,459,459,459,459,458,455,437,424,409,392,381,357,344,333,319,307,279,272,264,259,253,241,236,231,225,217,204,198,191,183,175,161,154,147,141,135,123,117,111,105,100,95,95,95,95,93,90,88,83],"timestamp_mouse":[3,20,41,60,82,100,120,140,162,180,201,221,240,262,281,300,320,340,361,380,401,421,440,461,481,500,520,541,561,580,601,621,641,660,680,700,720,741,760,781,800,820,842,860,880,900,921,941,960,981,1000,1021,1040,1060,1080,1100,1121,1140,1161,1181,1200,1220,1241,1260,1280,1300,1320,1341,1360,1380,1400,1421,1441,1460,1481,1500,1521,1540,1560,1581,1602,1621,1640,1660,1680,1700,1721,1742,1761,1780,1800,1820,1841,1860,1881,1901,1921,1940,1960,1981],"xSR":741.5,"ySR":573.95,"xT1":424.9,"yT1":0,"xT2":1058.1,"yT2":0,"toosoon":0,"cond_shown":"Incongruent","ratio_trial":100,"L_num":1,"L_den":2,"R_num":8,"R_den":20,"correct_side":1,"subjID":"ValeriaPorrasMuñoz18","gender":"1","school":"4","age":"8"},{"start_time":1552308895532,"click_time":1552308911025,"finger_time":1552308895566,"fix_duration":447.3127548161849,"trial":12,"RT":34,"MT":15459,"sideResp":1,"stimulus":[],"xmouse":[797,797,797,798,799,799,799,799,799,799,799,799,799,799,799,799,799,799,799,799,799,799,799,799,799,799,799,799,799,799,799,799,799,799,799,799,799,799,799,799,799,800,801,801,802,802,802,803,803,803,803,803,803,803,803,803,803,803,803,803,803,803,803,803,803,803,803,803,803,803,803,803,803,803,803,803,803,803,803,803,803,803,803,803,803,803,803,803,803,803,803,803,803,803,803,803,803,803,803,803,803,803,803,803,803,803,803,802,802,802,801,801,801,801,801,800,800,800,799,799,799,799,799,799,799,798,797,796,794,793,791,790,786,786,784,784,783,783,783,783,783,783,783,783,783,783,783,783,783,783,783,783,783,783,783,783,783,783,783,783,783,783,783,783,783,783,783,783,783,783,783,783,783,783,783,783,783,783,783,783,782,782,781,781,781,781,781,780,779,779,779,778,777,777,777,776,776,776,776,776,776,776,775,775,775,774,774,774,774,774,774,774,774,774,774,774,774,774,774,774,774,774,774,774,774,774,774,774,774,774,774,774,774,774,774,774,774,774,774,774,774,774,774,774,774,774,774,774,773,773,772,771,770,770,770,770,770,770,770,770,770,770,770,770,770,770,770,769,769,769,769,768,768,767,767,767,767,767,767,767,767,767,767,767,767,767,767,767,767,767,767,767,767,767,767,767,767,767,767,767,767,766,766,766,766,766,766,766,766,766,766,766,766,766,766,766,766,766,766,766,766,766,766,766,766,766,766,766,766,766,766,766,766,766,766,766,766,766,766,766,766,766,766,766,766,760,753,745,741,741,741,741,741,741,741,741,741,741,741,741,741,741,741,741,741,741,741,741,741,741,741,741,741,741,741,741,741,741,741,741,741,741,741,741,741,741,741,741,741,741,741,741,741,741,741,741,741,741,741,741,741,741,741,741,741,741,741,741,741,741,741,741,741,741,741,741,741,741,741,741,741,741,741,741,741,741,741,741,741,741,741,741,741,741,741,741,741,741,741,741,741,741,741,741,741,741,741,741,741,741,741,741,741,741,741,741,741,741,741,741,741,741,741,741,741,741,741,741,741,741,741,741,741,741,741,741,741,741,741,741,741,740,739,738,738,738,738,738,742,746,751,751,751,751,751,751,751,751,751,751,751,751,751,751,751,752,753,754,756,757,758,760,763,771,778,786,795,799,806,806,806,806,806,806,806,806,806,806,806,806,806,806,806,806,806,806,806,806,806,806,806,806,806,802,793,788,787,787,787,789,792,793,793,793,793,793,793,793,793,793,793,794,794,794,794,794,794,794,794,794,794,794,794,794,794,794,794,794,794,794,794,794,794,794,794,794,794,794,794,794,794,794,794,794,794,794,794,794,794,794,794,794,794,794,794,794,794,794,794,794,794,794,794,794,794,794,794,794,794,794,794,794,794,794,794,794,794,794,794,787,785,781,776,769,766,763,761,760,760,760,760,760,760,760,760,760,760,760,760,760,760,756,750,745,734,726,720,716,709,708,708,708,708,708,708,708,708,708,708,708,706,706,706,706,705,705,705,705,705,705,705,705,705,705,705,705,705,705,705,705,705,705,705,705,705,705,705,705,705,705,705,705,705,705,705,705,705,705,705,705,705,705,705,705,705,705,705,705,705,704,704,703,703,703,703,703,703,703,703,703,703,703,703,703,703,703,703,703,703,703,701,696,687,677,651,641,632,625,618,614,614,614,615,616,617,617,617,617,617,606,599,591,580,571,554,546,541,536,533,530,529,527,526,525,523],"ymouse":[575,568,555,551,549,549,549,549,549,549,549,549,549,549,549,549,549,549,549,549,549,549,549,549,549,549,549,549,549,549,549,549,549,549,549,549,549,549,547,544,542,539,533,531,529,526,525,523,523,523,523,523,523,523,523,523,523,523,523,523,523,523,523,523,523,523,523,523,523,523,523,523,523,523,523,523,523,523,523,523,523,523,523,523,523,523,523,523,523,523,523,523,523,523,523,523,523,523,523,523,523,523,523,523,523,524,525,526,528,528,528,528,528,528,528,529,529,531,532,532,533,533,533,533,533,533,534,536,540,541,543,545,550,551,552,553,553,553,553,553,553,553,553,553,553,553,553,553,553,553,553,553,553,553,553,554,554,554,554,554,554,554,554,554,554,554,554,554,554,554,554,554,554,554,554,555,557,558,558,560,561,562,567,571,572,574,576,581,585,587,591,594,600,603,604,606,606,606,606,607,607,608,610,612,613,614,614,614,614,614,614,614,614,614,614,614,614,614,614,614,614,614,614,614,614,614,614,614,614,614,614,614,614,614,614,614,614,614,614,614,614,614,614,614,614,614,614,614,614,614,614,614,615,615,615,615,615,615,615,615,615,615,615,615,615,615,615,615,615,615,615,615,615,616,616,616,616,616,616,616,616,616,616,616,616,616,616,616,616,616,616,616,616,616,616,616,616,616,616,616,616,616,616,616,616,616,616,616,616,616,616,616,616,616,616,616,616,615,614,614,614,614,614,614,614,614,614,614,614,614,614,614,614,614,614,614,614,614,614,614,614,614,614,614,615,633,660,692,730,730,730,730,730,730,730,730,730,730,730,730,730,730,730,730,730,730,730,730,730,730,730,730,730,730,730,730,730,730,730,730,730,730,730,730,730,730,730,730,730,730,730,730,730,730,730,730,730,730,730,730,730,730,730,730,730,730,730,730,730,730,730,730,730,730,730,730,730,730,730,730,730,730,730,730,730,730,730,730,730,730,730,730,730,730,730,730,730,730,730,730,730,730,730,730,730,730,730,730,730,730,730,730,730,730,730,730,730,730,730,730,730,730,730,730,730,730,730,730,730,730,730,730,730,730,730,730,730,730,730,730,730,733,739,752,758,763,767,770,773,776,777,777,777,777,777,777,777,777,777,777,777,777,777,777,777,777,778,779,779,780,780,780,780,777,773,765,752,745,721,706,698,691,686,681,674,670,667,663,658,657,657,657,657,657,657,656,655,655,655,655,655,655,655,657,664,668,670,670,671,670,669,668,668,668,668,668,668,668,668,668,668,668,668,668,668,668,668,668,668,668,668,668,668,668,668,668,668,668,668,668,668,668,668,668,668,668,668,668,668,668,668,668,668,668,668,668,668,668,668,668,668,668,668,668,668,668,668,668,668,668,668,668,668,668,668,668,668,668,668,668,668,668,668,668,668,668,668,665,662,641,634,623,615,604,600,597,596,595,595,595,595,595,595,595,595,595,595,595,595,595,595,592,585,579,565,556,550,546,538,536,536,536,536,536,536,535,535,533,525,509,499,492,486,483,480,480,480,480,480,480,480,480,480,480,480,480,480,480,480,480,480,480,480,480,480,480,480,480,480,480,480,480,480,480,480,480,480,480,480,480,480,480,480,480,480,480,480,480,480,482,484,484,485,485,485,485,485,485,485,485,485,485,485,485,485,485,485,485,485,485,480,466,445,423,374,352,328,305,279,251,241,235,230,226,220,218,217,216,213,203,197,192,184,176,159,149,141,133,125,108,99,91,84,77,59],"timestamp_mouse":[13,34,53,73,92,112,133,153,174,193,213,232,253,272,292,312,332,353,373,393,413,432,452,472,493,513,532,553,573,593,612,632,652,672,692,712,734,753,773,793,812,833,853,872,893,912,933,953,972,992,1012,1032,1052,1073,1092,1112,1132,1153,1172,1192,1212,1233,1254,1273,1292,1313,1333,1353,1372,1392,1412,1433,1453,1472,1492,1512,1533,1553,1572,1593,1612,1633,1653,1673,1693,1712,1732,1753,1773,1792,1813,1833,1853,1872,1892,1912,1933,1953,1972,1993,2013,2032,2052,2072,2092,2113,2132,2152,2172,2192,2214,2234,2252,2274,2292,2312,2332,2354,2372,2393,2412,2433,2453,2473,2493,2512,2533,2552,2573,2592,2613,2632,2652,2672,2693,2712,2732,2752,2773,2793,2814,2833,2852,2872,2892,2913,2932,2954,2974,2992,3012,3032,3053,3072,3093,3112,3133,3153,3172,3192,3212,3232,3253,3273,3293,3312,3332,3353,3373,3393,3413,3432,3453,3472,3493,3512,3533,3552,3572,3592,3612,3633,3652,3673,3692,3713,3732,3753,3773,3793,3812,3834,3852,3872,3892,3912,3934,3952,3972,3993,4013,4033,4052,4072,4092,4113,4132,4153,4172,4192,4212,4233,4253,4272,4292,4313,4334,4353,4372,4393,4413,4432,4453,4473,4493,4514,4533,4553,4572,4593,4614,4632,4653,4673,4693,4712,4732,4752,4772,4793,4813,4832,4852,4872,4893,4913,4934,4952,4973,4992,5013,5033,5052,5073,5094,5112,5132,5152,5173,5192,5212,5233,5253,5273,5293,5312,5333,5353,5373,5393,5412,5433,5453,5473,5492,5512,5533,5554,5572,5592,5614,5632,5653,5674,5693,5713,5733,5753,5774,5792,5813,5833,5853,5872,5893,5913,5932,5952,5973,5992,6012,6033,6054,6072,6093,6113,6133,6154,6172,6192,6212,6233,6254,6274,6292,6312,6333,6353,6374,6392,6412,6433,6452,6474,6493,6513,6533,6552,6573,6592,6613,6632,6653,6673,6692,6712,6732,6753,6773,6792,6813,6833,6852,6872,6893,6913,6934,6953,6972,6993,7012,7033,7052,7074,7095,7114,7133,7152,7172,7192,7212,7233,7254,7272,7292,7313,7332,7352,7373,7393,7412,7433,7452,7473,7493,7513,7532,7552,7573,7592,7613,7634,7653,7673,7693,7712,7732,7754,7773,7792,7814,7832,7852,7872,7892,7912,7932,7953,7972,7993,8012,8032,8052,8074,8092,8112,8132,8152,8174,8192,8213,8232,8252,8273,8292,8314,8333,8352,8372,8392,8412,8432,8453,8472,8492,8512,8532,8552,8572,8592,8613,8632,8652,8673,8692,8712,8732,8753,8772,8792,8813,8832,8853,8873,8892,8912,8932,8952,8973,8993,9012,9034,9053,9073,9092,9113,9132,9153,9172,9192,9212,9234,9252,9272,9294,9312,9332,9352,9372,9392,9412,9433,9453,9472,9492,9513,9532,9552,9573,9593,9612,9633,9652,9672,9693,9712,9732,9753,9772,9793,9813,9833,9853,9872,9892,9912,9933,9952,9973,9992,10012,10032,10052,10072,10093,10113,10133,10152,10172,10192,10212,10233,10253,10272,10293,10312,10332,10352,10372,10393,10412,10434,10452,10472,10492,10512,10532,10553,10573,10594,10613,10632,10652,10672,10692,10713,10732,10752,10772,10792,10813,10832,10852,10872,10892,10914,10932,10953,10972,10992,11013,11032,11052,11073,11092,11114,11133,11152,11172,11192,11213,11232,11254,11272,11292,11313,11333,11353,11373,11392,11414,11432,11452,11473,11494,11513,11533,11553,11572,11592,11612,11632,11653,11672,11694,11712,11732,11753,11772,11792,11814,11832,11852,11872,11892,11912,11932,11952,11972,11992,12012,12032,12053,12072,12092,12112,12132,12152,12172,12192,12213,12233,12253,12273,12292,12314,12332,12352,12373,12392,12412,12433,12453,12473,12493,12512,12533,12552,12572,12593,12612,12632,12653,12673,12693,12712,12733,12752,12773,12793,12814,12832,12853,12872,12892,12913,12933,12953,12973,12992,13013,13032,13053,13073,13093,13112,13132,13153,13173,13192,13213,13232,13252,13272,13292,13313,13332,13353,13373,13393,13413,13433,13453,13472,13493,13514,13533,13553,13573,13593,13612,13632,13652,13672,13692,13712,13733,13752,13773,13792,13812,13832,13853,13872,13893,13912,13932,13952,13974,13993,14013,14033,14052,14072,14093,14112,14132,14153,14173,14193,14213,14233,14253,14272,14293,14313,14332,14353,14373,14392,14412,14432,14452,14472,14493,14513,14533,14554,14573,14593,14612,14632,14654,14673,14692,14712,14733,14752,14773,14792,14812,14833,14852,14873,14893,14913,14933,14953,14972,14992,15012,15032,15052,15072,15093,15112,15132,15152,15174,15193,15212,15232,15253,15273,15292,15312,15333,15352,15372,15392,15412,15433,15453,15472,15493],"xSR":741.5,"ySR":573.95,"xT1":424.9,"yT1":0,"xT2":1058.1,"yT2":0,"toosoon":0,"cond_shown":"Incongruent","ratio_trial":100,"L_num":13,"L_den":26,"R_num":12,"R_den":20,"correct_side":2,"subjID":"ValeriaPorrasMuñoz18","gender":"1","school":"4","age":"8"},{"start_time":1552308912535,"click_time":1552308914565,"finger_time":1552308914124,"fix_duration":250,"trial":13,"RT":1589,"MT":441,"sideResp":1,"stimulus":[],"xmouse":[751,751,751,751,751,751,751,751,751,751,751,751,751,751,751,751,751,751,751,751,751,751,751,751,751,751,751,751,751,751,751,751,751,751,751,751,751,751,752,758,762,768,772,776,783,786,788,788,788,788,788,788,788,788,788,788,788,788,789,790,790,792,792,792,792,792,792,792,792,792,792,792,792,792,792,792,792,792,793,807,812,812,812,812,797,782,766,725,699,644,626,615,609,607,603,584,573,565,555,545,525,516],"ymouse":[617,617,617,617,617,617,617,617,617,617,617,617,617,617,617,617,617,617,617,617,617,617,617,617,617,617,617,617,617,617,617,617,617,617,617,617,617,617,617,618,618,618,618,618,618,617,617,617,617,617,617,617,617,617,617,617,617,618,620,626,629,632,633,634,635,635,635,635,635,635,635,635,635,635,635,635,635,636,631,571,517,485,452,415,311,257,198,121,66,0,0,0,0,0,0,8,12,15,18,20,25,28],"timestamp_mouse":[9,30,50,70,89,110,130,149,170,190,209,229,250,271,289,310,331,350,370,390,410,429,450,469,489,509,530,549,570,589,609,630,649,669,689,710,729,751,770,790,810,829,849,870,890,909,930,949,969,989,1010,1029,1049,1069,1090,1110,1129,1150,1170,1190,1210,1230,1250,1270,1290,1310,1329,1350,1369,1389,1411,1429,1449,1470,1489,1509,1529,1549,1570,1589,1610,1630,1649,1669,1690,1710,1729,1749,1769,1790,1809,1830,1849,1870,1889,1909,1930,1949,1969,1991,2010,2029],"xSR":741.5,"ySR":573.95,"xT1":424.9,"yT1":0,"xT2":1058.1,"yT2":0,"toosoon":0,"cond_shown":"Incongruent","ratio_trial":300,"L_num":13,"L_den":26,"R_num":12,"R_den":15,"correct_side":2,"subjID":"ValeriaPorrasMuñoz18","gender":"1","school":"4","age":"8"},{"start_time":1552308916657,"click_time":1552308919145,"finger_time":1552308917004,"fix_duration":532.3333807370495,"trial":14,"RT":347,"MT":2141,"sideResp":2,"stimulus":[],"xmouse":[825,825,825,825,825,825,825,825,825,825,825,825,825,825,825,830,839,847,854,872,879,889,898,905,913,914,914,915,915,915,915,915,915,915,915,915,915,915,915,915,915,915,915,915,917,918,918,918,918,918,918,918,918,918,918,918,914,911,911,911,910,910,910,910,910,910,910,910,910,910,911,921,930,945,983,1002,1023,1061,1074,1140,1162,1178,1190,1200,1214,1216,1218,1220,1221,1222,1222,1222,1222,1222,1222,1222,1222,1220,1215,1214,1214,1214,1214,1214,1214,1214,1214,1213,1211,1206,1204,1200,1195,1187,1173,1167,1165,1162,1161,1161,1161,1161,1161,1160,1156],"ymouse":[617,617,617,617,617,617,617,617,617,617,617,617,617,617,617,611,603,597,591,573,564,553,543,536,530,529,529,528,528,528,528,528,528,528,528,528,528,528,528,528,528,528,528,527,523,521,520,520,520,520,520,520,520,520,520,519,520,522,522,522,522,522,522,522,522,522,522,522,522,522,510,489,464,429,344,303,262,205,188,109,88,74,62,53,41,39,38,36,35,34,34,34,34,34,34,34,34,34,34,34,34,34,34,34,34,34,34,34,34,34,34,34,34,34,34,34,34,34,34,34,34,34,34,34,34],"timestamp_mouse":[7,28,47,67,89,108,127,148,168,188,207,228,248,267,288,308,328,347,367,388,407,428,447,468,487,508,527,547,568,587,607,627,647,669,687,707,727,747,767,787,807,827,847,867,888,907,928,948,967,988,1007,1028,1049,1067,1088,1107,1127,1149,1167,1187,1207,1227,1248,1267,1287,1307,1327,1348,1367,1388,1407,1427,1448,1468,1487,1508,1527,1547,1567,1587,1608,1627,1647,1668,1687,1708,1727,1747,1768,1788,1807,1827,1848,1867,1888,1907,1927,1948,1968,1987,2008,2029,2048,2068,2087,2108,2128,2148,2168,2187,2207,2228,2247,2268,2287,2307,2328,2348,2369,2388,2407,2427,2447,2467,2488],"xSR":741.5,"ySR":573.95,"xT1":424.9,"yT1":0,"xT2":1058.1,"yT2":0,"toosoon":0,"cond_shown":"Congruent","ratio_trial":100,"L_num":1,"L_den":2,"R_num":3,"R_den":5,"correct_side":2,"subjID":"ValeriaPorrasMuñoz18","gender":"1","school":"4","age":"8"},{"start_time":1552308922328,"click_time":1552308923444,"finger_time":1552308923125,"fix_duration":1402.8900265588172,"trial":15,"RT":797,"MT":319,"sideResp":1,"stimulus":[],"xmouse":[835,835,835,835,835,835,835,835,835,835,835,835,835,835,835,835,835,835,835,835,835,835,835,835,835,835,835,839,839,841,841,841,841,841,840,840,837,835,832,828,816,805,787,772,750,701,667,621,580,552,525,515,508,502,492,478],"ymouse":[619,619,619,619,619,619,619,619,619,619,619,619,619,619,619,619,619,619,619,619,619,619,619,619,619,619,619,611,605,595,590,588,588,587,587,586,584,580,575,568,548,535,515,499,479,433,402,359,313,276,217,183,163,145,127,98],"timestamp_mouse":[20,37,56,77,97,117,137,156,176,197,216,237,257,276,297,317,337,356,377,396,416,437,457,476,496,516,538,556,577,597,616,637,657,676,697,717,737,756,776,797,816,837,857,877,897,916,936,956,978,997,1016,1037,1057,1077,1097,1116],"xSR":741.5,"ySR":573.95,"xT1":424.9,"yT1":0,"xT2":1058.1,"yT2":0,"toosoon":0,"cond_shown":"Incongruent","ratio_trial":300,"L_num":8,"L_den":10,"R_num":9,"R_den":18,"correct_side":1,"subjID":"ValeriaPorrasMuñoz18","gender":"1","school":"4","age":"8"},{"start_time":1552308927002,"click_time":1552308929125,"finger_time":1552308928226,"fix_duration":1017.1618034484975,"trial":16,"RT":1224,"MT":899,"sideResp":2,"stimulus":[],"xmouse":[827,827,827,827,827,827,827,827,827,827,827,827,827,827,827,827,827,827,827,827,828,828,830,831,831,831,831,831,831,831,831,831,831,831,831,831,831,831,831,831,831,831,831,831,831,831,831,831,831,831,831,831,831,831,831,831,831,831,831,832,839,848,869,952,995,1024,1049,1071,1114,1129,1143,1159,1170,1194,1203,1216,1220,1231,1240,1241,1242,1242,1241,1236,1235,1233,1231,1231,1226,1222,1212,1201,1185,1154,1142,1135,1129,1128,1127,1127,1127,1127,1127,1126,1125,1124,1123],"ymouse":[594,594,594,594,594,594,594,594,594,594,594,594,594,594,594,594,594,594,594,594,594,594,592,592,592,592,592,592,592,592,592,592,592,592,592,592,592,592,592,592,592,591,589,586,585,585,585,585,585,585,585,585,585,585,585,585,585,585,585,584,581,575,562,510,482,460,442,426,390,376,360,343,328,295,281,258,251,226,191,175,160,144,135,123,120,118,117,117,116,115,114,112,112,112,112,112,112,110,110,109,109,109,109,108,104,101,98],"timestamp_mouse":[3,24,42,62,83,102,124,142,163,182,202,223,242,263,283,303,322,342,363,383,403,423,443,463,483,502,522,543,563,583,603,624,642,663,682,702,724,742,762,782,803,823,844,862,882,902,922,943,963,983,1002,1022,1042,1063,1082,1102,1122,1143,1162,1183,1202,1224,1242,1262,1282,1303,1323,1343,1362,1383,1402,1423,1443,1462,1483,1502,1522,1543,1563,1583,1602,1622,1643,1663,1683,1703,1724,1742,1762,1782,1803,1824,1843,1862,1883,1902,1922,1943,1962,1984,2002,2022,2042,2062,2083,2102,2123],"xSR":741.5,"ySR":573.95,"xT1":424.9,"yT1":0,"xT2":1058.1,"yT2":0,"toosoon":0,"cond_shown":"Congruent","ratio_trial":200,"L_num":3,"L_den":12,"R_num":9,"R_den":20,"correct_side":2,"subjID":"ValeriaPorrasMuñoz18","gender":"1","school":"4","age":"8"},{"start_time":1552308934932,"click_time":1552308937004,"finger_time":1552308936285,"fix_duration":1067.6193203474616,"trial":17,"RT":1353,"MT":719,"sideResp":1,"stimulus":[],"xmouse":[780,780,780,780,780,780,780,780,780,780,780,780,780,780,780,780,780,780,780,780,780,780,780,780,780,780,780,780,780,780,780,780,780,780,780,780,780,780,780,780,780,780,780,780,780,780,780,780,780,780,780,780,780,780,780,780,780,780,780,780,780,780,780,780,780,771,766,710,684,667,657,652,643,637,626,608,582,493,458,439,428,424,423,423,423,423,423,423,423,423,423,423,423,423,423,423,423,429,431,433,434,437,438,439],"ymouse":[611,611,611,611,611,611,611,611,611,611,611,611,611,611,611,611,611,611,611,611,611,611,611,611,611,611,611,611,611,611,611,611,611,611,611,611,611,611,611,611,611,611,611,611,611,611,611,611,611,611,611,611,611,611,611,611,611,611,611,611,611,611,611,611,611,601,595,527,495,473,459,446,418,401,380,355,319,224,193,175,163,157,154,154,154,154,154,154,153,153,153,153,153,153,152,151,147,130,123,117,113,105,101,99],"timestamp_mouse":[12,32,52,74,92,113,133,153,172,192,213,232,253,272,293,312,332,353,373,394,413,432,453,473,494,513,533,552,573,592,612,633,652,673,692,713,733,753,773,792,813,834,852,872,892,912,932,952,974,993,1012,1033,1053,1073,1092,1112,1133,1153,1172,1192,1213,1232,1253,1272,1292,1313,1333,1353,1373,1394,1413,1432,1452,1472,1492,1512,1532,1553,1573,1592,1612,1632,1652,1672,1692,1713,1733,1754,1773,1793,1813,1833,1852,1872,1893,1913,1933,1952,1973,1992,2012,2033,2054,2072],"xSR":741.5,"ySR":573.95,"xT1":424.9,"yT1":0,"xT2":1058.1,"yT2":0,"toosoon":0,"cond_shown":"Incongruent","ratio_trial":300,"L_num":4,"L_den":20,"R_num":2,"R_den":4,"correct_side":2,"subjID":"ValeriaPorrasMuñoz18","gender":"1","school":"4","age":"8"},{"start_time":1552308939315,"click_time":1552308941426,"finger_time":1552308940325,"fix_duration":250,"trial":18,"RT":1010,"MT":1101,"sideResp":2,"stimulus":[],"xmouse":[791,791,791,791,791,791,791,791,791,791,791,791,791,791,791,791,791,791,791,791,791,791,791,791,791,791,791,791,791,791,791,791,791,791,791,791,791,791,791,791,791,791,791,791,791,791,793,794,805,812,822,832,843,861,869,878,889,896,909,914,922,929,934,946,951,955,960,962,969,972,976,979,984,996,1002,1008,1014,1017,1026,1030,1036,1043,1050,1066,1075,1084,1091,1094,1099,1099,1099,1099,1100,1100,1100,1100,1101,1102,1103,1103,1103,1103,1103,1105,1106,1108],"ymouse":[603,603,603,603,603,603,603,603,603,603,603,603,603,603,603,603,603,603,603,603,603,603,603,603,603,603,603,603,603,603,603,603,603,603,603,603,603,603,603,603,603,603,603,603,603,603,602,600,587,579,567,556,541,517,503,489,470,459,437,427,415,403,394,372,361,353,345,339,324,316,309,300,291,270,261,250,239,234,221,215,208,201,192,181,174,169,163,160,157,157,157,157,157,157,157,155,152,146,137,131,124,118,115,108,103,97],"timestamp_mouse":[9,29,51,70,89,110,129,149,170,189,210,230,249,270,289,309,330,349,369,389,410,429,450,470,490,510,529,549,570,591,610,629,649,670,690,709,729,749,770,791,809,830,850,869,889,909,930,949,970,989,1010,1031,1049,1070,1089,1110,1130,1150,1170,1189,1209,1229,1251,1270,1289,1310,1330,1350,1369,1390,1411,1431,1450,1470,1490,1510,1530,1550,1569,1590,1609,1629,1649,1669,1691,1710,1730,1750,1770,1790,1810,1830,1849,1870,1889,1910,1930,1949,1969,1990,2009,2030,2049,2070,2090,2111],"xSR":741.5,"ySR":573.95,"xT1":424.9,"yT1":0,"xT2":1058.1,"yT2":0,"toosoon":0,"cond_shown":"Congruent","ratio_trial":300,"L_num":3,"L_den":6,"R_num":4,"R_den":5,"correct_side":2,"subjID":"ValeriaPorrasMuñoz18","gender":"1","school":"4","age":"8"},{"start_time":1552308945837,"click_time":1552308950005,"finger_time":1552308947865,"fix_duration":1190.5069328908658,"trial":19,"RT":2028,"MT":2140,"sideResp":2,"stimulus":[],"xmouse":[800,800,800,800,800,800,800,800,800,800,800,800,800,800,800,800,800,800,800,800,800,800,800,800,800,800,800,800,800,800,800,800,800,800,800,800,800,800,800,800,800,800,800,800,800,800,800,800,800,800,800,800,800,800,800,800,800,800,800,800,800,800,800,797,794,793,793,793,793,793,793,793,793,793,793,793,793,793,793,793,793,793,793,793,793,793,793,793,793,793,793,793,793,793,793,793,793,793,807,811,819,830,839,857,863,868,873,880,901,911,920,931,943,967,979,992,1005,1015,1020,1021,1023,1023,1024,1025,1025,1026,1026,1029,1033,1036,1039,1042,1045,1052,1055,1058,1061,1065,1071,1076,1084,1091,1098,1113,1120,1124,1132,1133,1143,1148,1151,1155,1158,1160,1160,1160,1160,1160,1160,1160,1160,1160,1160,1160,1160,1160,1160,1160,1160,1160,1160,1160,1160,1160,1160,1160,1160,1160,1160,1160,1160,1160,1160,1160,1161,1161,1162,1162,1163,1164,1164,1164,1164,1164,1164,1164,1164,1164,1164,1164,1163,1161,1160,1159,1159,1159,1159,1159,1157],"ymouse":[609,609,609,609,609,609,609,609,609,609,609,609,609,609,609,609,609,609,609,609,609,609,609,609,609,609,609,609,609,609,609,609,609,609,609,609,609,609,609,609,609,609,609,609,609,609,609,609,609,609,609,609,609,609,609,609,609,609,609,609,609,609,606,601,596,595,595,595,595,595,595,595,595,595,595,595,595,595,595,595,595,595,595,595,595,595,595,595,595,595,595,595,595,595,595,595,595,592,584,581,574,563,552,527,511,495,478,462,419,401,384,368,351,321,308,294,283,273,265,262,260,259,258,256,256,256,256,254,250,247,244,240,235,226,221,215,209,201,183,172,164,157,149,138,131,127,119,118,111,111,109,108,107,106,106,106,106,106,106,106,106,106,106,106,106,106,106,106,106,106,106,106,106,106,106,106,106,106,106,106,106,106,104,101,98,95,92,87,83,81,81,81,81,81,81,81,80,78,72,70,68,66,64,63,63,63,63,63,63],"timestamp_mouse":[7,27,48,68,87,108,128,148,167,187,208,227,247,267,288,307,328,349,367,388,408,427,448,467,487,508,527,548,568,587,607,628,647,667,687,707,728,749,767,788,808,828,847,867,888,908,928,947,968,987,1008,1027,1048,1067,1088,1108,1128,1147,1169,1188,1208,1228,1247,1267,1287,1307,1327,1348,1369,1389,1407,1427,1447,1467,1488,1508,1529,1548,1568,1589,1608,1628,1648,1668,1689,1707,1728,1747,1767,1789,1808,1827,1848,1869,1889,1907,1927,1948,1968,1987,2007,2028,2047,2067,2087,2108,2127,2147,2167,2187,2207,2227,2248,2268,2287,2307,2328,2348,2367,2387,2407,2428,2449,2468,2488,2507,2527,2548,2567,2587,2608,2629,2647,2668,2687,2707,2728,2747,2768,2787,2808,2829,2848,2867,2888,2908,2927,2948,2967,2987,3008,3028,3047,3068,3087,3107,3127,3148,3168,3189,3207,3227,3247,3268,3288,3307,3327,3348,3367,3387,3407,3427,3447,3468,3487,3507,3527,3547,3567,3588,3607,3627,3648,3667,3688,3708,3728,3748,3767,3789,3808,3827,3847,3868,3888,3908,3927,3948,3968,3987,4008,4027,4047,4068,4087,4107,4128,4148,4168],"xSR":741.5,"ySR":573.95,"xT1":424.9,"yT1":0,"xT2":1058.1,"yT2":0,"toosoon":0,"cond_shown":"Incongruent","ratio_trial":300,"L_num":13,"L_den":26,"R_num":12,"R_den":15,"correct_side":2,"subjID":"ValeriaPorrasMuñoz18","gender":"1","school":"4","age":"8"},{"start_time":1552308952662,"click_time":1552308954586,"finger_time":1552308953485,"fix_duration":758.8348280736631,"trial":20,"RT":823,"MT":1101,"sideResp":2,"stimulus":[],"xmouse":[797,797,797,797,797,797,797,797,797,797,797,797,797,797,797,797,797,797,797,797,797,797,797,797,797,797,797,797,797,797,797,797,797,797,797,797,797,797,801,804,807,810,814,816,819,821,824,828,833,837,842,847,852,865,875,884,893,901,922,931,943,957,988,1012,1021,1047,1063,1102,1122,1146,1179,1201,1220,1225,1226,1226,1227,1227,1227,1227,1227,1227,1227,1227,1227,1227,1227,1227,1227,1227,1226,1222,1218,1210,1196,1175,1152],"ymouse":[603,603,603,603,603,603,603,603,603,603,603,603,603,603,603,603,603,603,603,603,603,603,603,603,603,603,603,603,603,603,603,603,603,603,603,603,603,602,595,584,574,564,551,544,536,531,525,521,511,505,498,490,483,469,457,447,437,426,402,391,377,363,336,316,308,286,272,240,226,208,190,177,159,148,144,141,140,140,140,140,140,140,140,140,140,140,140,139,139,139,139,138,136,132,123,111,99],"timestamp_mouse":[3,23,43,63,84,103,123,143,163,182,203,223,242,263,282,303,323,343,363,383,403,422,444,462,483,502,523,544,563,582,602,623,644,662,682,703,722,743,763,783,802,823,842,862,883,902,922,942,962,982,1002,1023,1042,1063,1082,1102,1124,1143,1162,1183,1202,1222,1242,1263,1282,1304,1324,1342,1363,1383,1402,1422,1442,1463,1482,1504,1522,1543,1563,1582,1603,1622,1643,1662,1683,1703,1722,1742,1763,1782,1803,1823,1843,1863,1882,1903,1924],"xSR":741.5,"ySR":573.95,"xT1":424.9,"yT1":0,"xT2":1058.1,"yT2":0,"toosoon":0,"cond_shown":"Congruent","ratio_trial":100,"L_num":2,"L_den":5,"R_num":6,"R_den":12,"correct_side":2,"subjID":"ValeriaPorrasMuñoz18","gender":"1","school":"4","age":"8"},{"start_time":1552308958932,"click_time":1552308963685,"finger_time":1552308960564,"fix_duration":1027.3897378635795,"trial":21,"RT":1632,"MT":3121,"sideResp":2,"stimulus":[],"xmouse":[803,803,803,803,803,803,803,803,803,803,803,803,803,803,803,803,803,803,803,803,803,803,803,803,803,803,803,803,803,803,803,803,803,803,803,803,803,803,803,803,803,803,803,803,803,803,803,803,803,803,803,803,803,803,803,803,803,803,803,803,803,803,803,803,803,803,803,803,803,803,803,803,803,803,803,803,803,803,803,815,837,869,904,927,943,958,962,967,970,973,978,980,985,985,988,990,990,991,992,993,996,999,1001,1004,1007,1017,1023,1029,1036,1043,1054,1060,1068,1070,1082,1109,1123,1128,1131,1133,1136,1137,1137,1137,1137,1137,1137,1137,1137,1137,1137,1137,1137,1137,1137,1137,1137,1137,1137,1137,1137,1137,1137,1137,1137,1136,1136,1136,1136,1136,1136,1136,1137,1138,1139,1139,1139,1140,1140,1140,1140,1140,1141,1141,1142,1142,1142,1142,1142,1142,1142,1142,1142,1142,1142,1142,1142,1142,1142,1142,1142,1138,1132,1128,1123,1120,1118,1117,1114,1106,1081,1070,1064,1061,1061,1061,1061,1061,1061,1061,1061,1061,1061,1061,1061,1061,1061,1061,1061,1061,1063,1063,1064,1064,1065,1067,1067,1067,1067,1068,1068,1068,1069,1069,1069,1069,1069,1069,1070,1070,1071,1072,1074,1075,1077,1079,1081,1083],"ymouse":[630,630,630,630,630,630,630,630,630,630,630,630,630,630,630,630,630,630,630,630,630,630,630,630,630,630,630,630,630,630,630,630,630,630,630,630,630,630,630,630,630,630,630,630,630,630,630,630,630,630,630,630,630,630,630,630,630,630,630,630,630,630,630,630,630,630,630,630,630,630,630,630,630,630,630,630,630,630,630,616,602,589,583,578,574,561,554,546,538,528,507,493,478,474,460,443,436,430,426,422,410,402,396,388,381,366,358,354,347,342,333,329,325,324,321,319,319,319,317,316,314,313,313,313,313,313,313,313,313,313,313,313,312,312,310,305,301,297,292,287,276,271,266,263,259,253,252,249,246,244,238,236,234,232,230,227,225,223,222,220,215,213,210,208,205,202,201,200,200,199,199,198,198,194,191,189,189,189,189,189,189,184,180,175,170,166,165,164,162,158,144,136,132,129,129,129,129,129,129,128,127,127,127,127,127,127,127,127,127,127,125,125,124,123,123,121,120,120,119,118,118,118,117,117,117,115,115,115,115,115,113,112,109,107,106,102,100,98],"timestamp_mouse":[13,33,53,73,94,113,133,153,174,193,213,232,252,272,292,313,333,352,372,392,413,434,452,472,493,512,532,552,573,593,612,632,653,672,693,712,732,753,774,793,813,832,852,873,892,912,932,954,972,993,1012,1032,1054,1072,1092,1112,1132,1153,1172,1193,1212,1232,1252,1272,1292,1313,1332,1354,1373,1392,1414,1432,1452,1473,1493,1512,1533,1552,1573,1592,1613,1632,1652,1672,1693,1713,1733,1752,1772,1793,1812,1833,1852,1872,1893,1913,1933,1952,1973,1992,2013,2032,2053,2073,2093,2112,2132,2152,2172,2192,2213,2233,2252,2273,2292,2313,2332,2352,2372,2392,2413,2433,2452,2472,2494,2513,2532,2553,2573,2593,2612,2632,2652,2672,2693,2713,2733,2753,2772,2793,2813,2833,2852,2873,2892,2912,2933,2952,2972,2992,3012,3033,3052,3073,3093,3112,3133,3154,3172,3193,3213,3233,3253,3272,3293,3313,3332,3353,3372,3393,3413,3432,3452,3474,3492,3512,3533,3552,3573,3594,3612,3633,3652,3673,3694,3712,3733,3752,3772,3792,3813,3833,3854,3872,3892,3913,3932,3952,3972,3992,4012,4032,40