[{"start_time":1552073241374,"click_time":1552073242918,"finger_time":1552073241385,"fix_duration":1332.620532656034,"trial":0,"RT":11,"MT":1533,"sideResp":1,"stimulus":[],"xmouse":[767,767,767,767,767,767,767,767,767,767,768,768,768,768,768,768,768,768,768,768,768,768,768,768,768,768,768,768,768,767,767,766,761,759,756,753,749,739,735,731,729,727,726,726,726,726,726,726,726,726,726,726,726,726,726,726,726,726,726,726,726,726,726,726,726,726,726,726,719,708,696,683,657,643,621,601,578,516],"ymouse":[534,534,534,534,534,534,534,534,534,534,534,534,534,534,534,534,534,534,534,534,534,534,534,534,534,534,534,535,535,537,539,541,549,552,557,562,567,575,577,580,583,587,590,591,594,595,595,596,596,596,596,596,597,597,597,597,597,597,597,597,597,597,597,597,597,597,597,592,583,571,551,518,463,424,365,300,231,89],"timestamp_mouse":[11,25,45,64,83,104,125,145,164,184,203,224,244,264,285,304,324,344,364,383,404,424,444,464,484,504,524,544,565,585,603,623,643,663,684,705,724,744,765,785,804,824,843,864,884,904,924,945,965,983,1004,1023,1043,1064,1085,1105,1124,1144,1164,1183,1205,1225,1245,1265,1285,1304,1324,1345,1364,1384,1404,1424,1443,1464,1483,1503,1523,1543],"xSR":741.5,"ySR":501.8,"xT1":424.9,"yT1":0,"xT2":1058.1,"yT2":0,"toosoon":0,"cond_shown":"Incongruent","ratio_trial":300,"L_num":4,"L_den":20,"R_num":2,"R_den":4,"correct_side":2,"subjID":"violetaespitiaalonso3","gender":"1","age":"9","school":"4","test":{"fix_dur":[250,1500],"timestim":1000,"targets_dim":[100,100],"targets_relative_coord":[0.3,0.7],"size_stim":[880,420],"start_dim":[100,100],"size_start":[300,300],"size_fix":60,"samplingrate":20,"img_types":["Congruent","Incongruent"],"ratios":[100,200,300],"rep_conds":19,"nTrials":120,"trials_to_rest":500,"Trials_order":[89,32,94,34,83,59,37,53,55,5,63,18,70,103,64,102,110,104,78,31,112,61,100,24,80,62,42,84,57,20,90,106,48,45,72,52,111,65,117,43,17,10,29,92,108,116,33,115,105,27,15,0,41,44,79,7,97,11,96,28,76,36,1,49,54,60,81,82,93,118,56,101,109,2,46,9,67,26,21,91,119,95,35,113,86,68,73,30,87,107,12,51,47,85,77,114,13,40,16,71,8,69,98,25,88,19,23,74,58,22,14,4,50,3,99,38,6,66,75,39],"cond_shown":["Incongruent","Congruent","Congruent","Congruent","Incongruent","Incongruent","Incongruent","Incongruent","Incongruent","Incongruent","Incongruent","Congruent","Congruent","Incongruent","Congruent","Congruent","Congruent","Congruent","Congruent","Incongruent","Congruent","Incongruent","Congruent","Congruent","Congruent","Congruent","Congruent","Congruent","Incongruent","Congruent","Congruent","Congruent","Congruent","Incongruent","Congruent","Congruent","Incongruent","Incongruent","Incongruent","Incongruent","Incongruent","Congruent","Incongruent","Congruent","Congruent","Congruent","Incongruent","Incongruent","Incongruent","Incongruent","Incongruent","Congruent","Incongruent","Congruent","Incongruent","Incongruent","Incongruent","Incongruent","Congruent","Congruent","Congruent","Congruent","Incongruent","Incongruent","Congruent","Congruent","Incongruent","Congruent","Incongruent","Congruent","Congruent","Incongruent","Incongruent","Congruent","Congruent","Incongruent","Incongruent","Congruent","Incongruent","Incongruent","Incongruent","Incongruent","Incongruent","Incongruent","Congruent","Congruent","Incongruent","Congruent","Incongruent","Incongruent","Congruent","Incongruent","Incongruent","Incongruent","Incongruent","Congruent","Incongruent","Congruent","Congruent","Incongruent","Congruent","Incongruent","Congruent","Incongruent","Congruent","Incongruent","Incongruent","Congruent","Congruent","Congruent","Congruent","Congruent","Congruent","Incongruent","Incongruent","Congruent","Congruent","Congruent","Incongruent","Incongruent"],"ratio_trial":[300,200,300,300,300,300,100,300,100,300,200,100,300,100,300,100,200,200,100,100,300,100,300,100,200,200,100,100,200,200,100,300,100,200,100,300,200,300,200,100,300,300,300,200,100,200,200,100,200,200,200,100,300,200,100,100,100,300,100,300,300,100,100,100,100,100,200,300,200,300,200,300,100,200,300,200,100,200,200,100,300,300,300,300,200,200,100,100,200,300,100,200,300,100,300,100,100,300,300,300,200,200,200,100,300,100,300,200,300,300,200,300,200,200,200,200,100,100,200,200],"left_num":[4,9,1,20,1,4,8,4,12,4,7,3,4,11,7,3,7,8,10,3,5,3,4,2,3,6,2,12,1,3,6,18,1,14,15,24,4,3,4,12,4,11,8,3,3,21,1,9,3,11,4,15,1,6,4,8,13,8,3,7,1,2,9,10,15,2,9,2,14,3,9,4,10,8,2,14,9,3,4,8,4,4,1,13,11,8,2,11,3,4,4,1,1,6,7,4,6,11,5,4,5,6,9,9,1,6,2,3,9,1,3,1,9,3,3,5,7,7,6,1],"right_num":[2,13,3,13,2,6,6,6,2,2,14,2,1,9,20,4,2,3,3,7,6,11,2,11,9,3,6,13,2,14,15,9,3,6,13,8,6,4,14,2,2,1,14,11,2,2,2,14,1,3,14,13,3,11,8,6,6,9,2,20,19,11,14,9,13,11,8,10,12,11,13,2,9,7,12,6,6,11,14,6,2,8,3,12,3,2,8,6,1,2,6,2,2,3,8,15,11,1,6,2,14,3,13,13,3,3,6,9,3,7,7,6,13,11,11,14,9,15,3,2],"left_den":[20,30,5,25,2,5,16,5,30,20,10,6,10,22,14,20,21,15,25,9,25,5,5,5,12,15,5,30,3,10,12,20,2,30,25,30,5,6,6,30,20,22,10,10,6,30,3,15,10,20,6,25,2,20,8,16,26,10,6,14,3,5,15,25,25,5,15,20,30,12,30,20,25,15,10,30,18,10,6,16,20,5,2,26,22,15,4,22,10,20,8,3,2,12,10,10,10,22,25,20,10,20,30,15,5,12,4,12,10,20,10,5,30,4,4,10,14,14,20,3],"right_den":[4,26,6,26,10,12,10,12,4,4,28,5,10,15,25,16,15,9,10,30,12,22,4,22,20,15,12,26,15,28,25,15,5,9,26,16,10,20,30,4,4,5,28,22,5,4,15,28,2,4,30,26,15,22,20,10,10,18,5,25,30,22,28,18,26,22,10,25,18,20,26,4,18,21,24,9,10,22,30,10,4,16,15,15,10,6,20,15,2,4,10,15,10,5,20,30,22,5,12,4,20,6,26,26,6,5,30,20,5,20,14,12,26,20,20,20,15,25,6,15],"correct_side":[2,2,2,1,1,1,2,1,2,2,1,1,1,2,2,2,1,1,1,1,2,1,1,2,2,1,2,2,1,2,2,1,2,2,1,1,1,1,1,2,2,1,1,2,1,1,1,1,2,2,1,1,1,2,1,2,2,1,1,2,2,2,1,2,1,2,2,2,2,2,2,2,2,1,2,2,2,2,1,2,2,1,1,2,1,1,1,1,2,2,2,1,1,2,1,2,1,1,2,2,2,2,2,1,2,2,1,2,1,2,2,2,2,1,1,2,2,2,2,1],"img_shown":["img2/300/Incongruent/R/I_Dist_300_LN_4_LD_20_RN_2_RD_4_1.png","img2/200/Congruent/R/C_Dist_200_LN_9_LD_30_RN_13_RD_26_1.png","img2/300/Congruent/R/C_Dist_300_LN_1_LD_5_RN_3_RD_6_1.png","img2/300/Congruent/L/C_Dist_300_LN_20_LD_25_RN_13_RD_26_0.png","img2/300/Incongruent/L/I_Dist_300_LN_1_LD_2_RN_2_RD_10_0.png","img2/300/Incongruent/L/I_Dist_300_LN_4_LD_5_RN_6_RD_12_0.png","img2/100/Incongruent/R/I_Dist_100_LN_8_LD_16_RN_6_RD_10_1.png","img2/300/Incongruent/L/I_Dist_300_LN_4_LD_5_RN_6_RD_12_0.png","img2/100/Incongruent/R/I_Dist_100_LN_12_LD_30_RN_2_RD_4_1.png","img2/300/Incongruent/R/I_Dist_300_LN_4_LD_20_RN_2_RD_4_1.png","img2/200/Incongruent/L/I_Dist_200_LN_7_LD_10_RN_14_RD_28_0.png","img2/100/Congruent/L/C_Dist_100_LN_3_LD_6_RN_2_RD_5_0.png","img2/300/Congruent/L/C_Dist_300_LN_4_LD_10_RN_1_RD_10_0.png","img2/100/Incongruent/R/I_Dist_100_LN_11_LD_22_RN_9_RD_15_1.png","img2/300/Congruent/R/C_Dist_300_LN_7_LD_14_RN_20_RD_25_1.png","img2/100/Congruent/R/C_Dist_100_LN_3_LD_20_RN_4_RD_16_1.png","img2/200/Congruent/L/C_Dist_200_LN_7_LD_21_RN_2_RD_15_0.png","img2/200/Congruent/L/C_Dist_200_LN_8_LD_15_RN_3_RD_9_0.png","img2/100/Congruent/L/C_Dist_100_LN_10_LD_25_RN_3_RD_10_0.png","img2/100/Incongruent/L/I_Dist_100_LN_3_LD_9_RN_7_RD_30_0.png","img2/300/Congruent/R/C_Dist_300_LN_5_LD_25_RN_6_RD_12_1.png","img2/100/Incongruent/L/I_Dist_100_LN_3_LD_5_RN_11_RD_22_0.png","img2/300/Congruent/L/C_Dist_300_LN_4_LD_5_RN_2_RD_4_0.png","img2/100/Congruent/R/C_Dist_100_LN_2_LD_5_RN_11_RD_22_1.png","img2/200/Congruent/R/C_Dist_200_LN_3_LD_12_RN_9_RD_20_1.png","img2/200/Congruent/L/C_Dist_200_LN_6_LD_15_RN_3_RD_15_0.png","img2/100/Congruent/R/C_Dist_100_LN_2_LD_5_RN_6_RD_12_1.png","img2/100/Congruent/R/C_Dist_100_LN_12_LD_30_RN_13_RD_26_1.png","img2/200/Incongruent/L/I_Dist_200_LN_1_LD_3_RN_2_RD_15_0.png","img2/200/Congruent/R/C_Dist_200_LN_3_LD_10_RN_14_RD_28_1.png","img2/100/Congruent/R/C_Dist_100_LN_6_LD_12_RN_15_RD_25_1.png","img2/300/Congruent/L/C_Dist_300_LN_18_LD_20_RN_9_RD_15_0.png","img2/100/Congruent/R/C_Dist_100_LN_1_LD_2_RN_3_RD_5_1.png","img2/200/Incongruent/R/I_Dist_200_LN_14_LD_30_RN_6_RD_9_1.png","img2/100/Congruent/L/C_Dist_100_LN_15_LD_25_RN_13_RD_26_0.png","img2/300/Congruent/L/C_Dist_300_LN_24_LD_30_RN_8_RD_16_0.png","img2/200/Incongruent/L/I_Dist_200_LN_4_LD_5_RN_6_RD_10_0.png","img2/300/Incongruent/L/I_Dist_300_LN_3_LD_6_RN_4_RD_20_0.png","img2/200/Incongruent/L/I_Dist_200_LN_4_LD_6_RN_14_RD_30_0.png","img2/100/Incongruent/R/I_Dist_100_LN_12_LD_30_RN_2_RD_4_1.png","img2/300/Incongruent/R/I_Dist_300_LN_4_LD_20_RN_2_RD_4_1.png","img2/300/Congruent/L/C_Dist_300_LN_11_LD_22_RN_1_RD_5_0.png","img2/300/Incongruent/L/I_Dist_300_LN_8_LD_10_RN_14_RD_28_0.png","img2/200/Congruent/R/C_Dist_200_LN_3_LD_10_RN_11_RD_22_1.png","img2/100/Congruent/L/C_Dist_100_LN_3_LD_6_RN_2_RD_5_0.png","img2/200/Congruent/L/C_Dist_200_LN_21_LD_30_RN_2_RD_4_0.png","img2/200/Incongruent/L/I_Dist_200_LN_1_LD_3_RN_2_RD_15_0.png","img2/100/Incongruent/L/I_Dist_100_LN_9_LD_15_RN_14_RD_28_0.png","img2/200/Incongruent/R/I_Dist_200_LN_3_LD_10_RN_1_RD_2_1.png","img2/200/Incongruent/R/I_Dist_200_LN_11_LD_20_RN_3_RD_4_1.png","img2/200/Incongruent/L/I_Dist_200_LN_4_LD_6_RN_14_RD_30_0.png","img2/100/Congruent/L/C_Dist_100_LN_15_LD_25_RN_13_RD_26_0.png","img2/300/Incongruent/L/I_Dist_300_LN_1_LD_2_RN_3_RD_15_0.png","img2/200/Congruent/R/C_Dist_200_LN_6_LD_20_RN_11_RD_22_1.png","img2/100/Incongruent/L/I_Dist_100_LN_4_LD_8_RN_8_RD_20_0.png","img2/100/Incongruent/R/I_Dist_100_LN_8_LD_16_RN_6_RD_10_1.png","img2/100/Incongruent/R/I_Dist_100_LN_13_LD_26_RN_6_RD_10_1.png","img2/300/Incongruent/L/I_Dist_300_LN_8_LD_10_RN_9_RD_18_0.png","img2/100/Congruent/L/C_Dist_100_LN_3_LD_6_RN_2_RD_5_0.png","img2/300/Congruent/R/C_Dist_300_LN_7_LD_14_RN_20_RD_25_1.png","img2/300/Congruent/R/C_Dist_300_LN_1_LD_3_RN_19_RD_30_1.png","img2/100/Congruent/R/C_Dist_100_LN_2_LD_5_RN_11_RD_22_1.png","img2/100/Incongruent/L/I_Dist_100_LN_9_LD_15_RN_14_RD_28_0.png","img2/100/Incongruent/R/I_Dist_100_LN_10_LD_25_RN_9_RD_18_1.png","img2/100/Congruent/L/C_Dist_100_LN_15_LD_25_RN_13_RD_26_0.png","img2/100/Congruent/R/C_Dist_100_LN_2_LD_5_RN_11_RD_22_1.png","img2/200/Incongruent/R/I_Dist_200_LN_9_LD_15_RN_8_RD_10_1.png","img2/300/Congruent/R/C_Dist_300_LN_2_LD_20_RN_10_RD_25_1.png","img2/200/Incongruent/R/I_Dist_200_LN_14_LD_30_RN_12_RD_18_1.png","img2/300/Congruent/R/C_Dist_300_LN_3_LD_12_RN_11_RD_20_1.png","img2/200/Congruent/R/C_Dist_200_LN_9_LD_30_RN_13_RD_26_1.png","img2/300/Incongruent/R/I_Dist_300_LN_4_LD_20_RN_2_RD_4_1.png","img2/100/Incongruent/R/I_Dist_100_LN_10_LD_25_RN_9_RD_18_1.png","img2/200/Congruent/L/C_Dist_200_LN_8_LD_15_RN_7_RD_21_0.png","img2/300/Congruent/R/C_Dist_300_LN_2_LD_10_RN_12_RD_24_1.png","img2/200/Incongruent/R/I_Dist_200_LN_14_LD_30_RN_6_RD_9_1.png","img2/100/Incongruent/R/I_Dist_100_LN_9_LD_18_RN_6_RD_10_1.png","img2/200/Congruent/R/C_Dist_200_LN_3_LD_10_RN_11_RD_22_1.png","img2/200/Incongruent/L/I_Dist_200_LN_4_LD_6_RN_14_RD_30_0.png","img2/100/Incongruent/R/I_Dist_100_LN_8_LD_16_RN_6_RD_10_1.png","img2/300/Incongruent/R/I_Dist_300_LN_4_LD_20_RN_2_RD_4_1.png","img2/300/Incongruent/L/I_Dist_300_LN_4_LD_5_RN_8_RD_16_0.png","img2/300/Incongruent/L/I_Dist_300_LN_1_LD_2_RN_3_RD_15_0.png","img2/300/Incongruent/R/I_Dist_300_LN_13_LD_26_RN_12_RD_15_1.png","img2/200/Congruent/L/C_Dist_200_LN_11_LD_22_RN_3_RD_10_0.png","img2/200/Congruent/L/C_Dist_200_LN_8_LD_15_RN_2_RD_6_0.png","img2/100/Incongruent/L/I_Dist_100_LN_2_LD_4_RN_8_RD_20_0.png","img2/100/Congruent/L/C_Dist_100_LN_11_LD_22_RN_6_RD_15_0.png","img2/200/Incongruent/R/I_Dist_200_LN_3_LD_10_RN_1_RD_2_1.png","img2/300/Incongruent/R/I_Dist_300_LN_4_LD_20_RN_2_RD_4_1.png","img2/100/Congruent/R/C_Dist_100_LN_4_LD_8_RN_6_RD_10_1.png","img2/200/Incongruent/L/I_Dist_200_LN_1_LD_3_RN_2_RD_15_0.png","img2/300/Incongruent/L/I_Dist_300_LN_1_LD_2_RN_2_RD_10_0.png","img2/100/Incongruent/R/I_Dist_100_LN_6_LD_12_RN_3_RD_5_1.png","img2/300/Incongruent/L/I_Dist_300_LN_7_LD_10_RN_8_RD_20_0.png","img2/100/Congruent/R/C_Dist_100_LN_4_LD_10_RN_15_RD_30_1.png","img2/100/Incongruent/L/I_Dist_100_LN_6_LD_10_RN_11_RD_22_0.png","img2/300/Congruent/L/C_Dist_300_LN_11_LD_22_RN_1_RD_5_0.png","img2/300/Congruent/R/C_Dist_300_LN_5_LD_25_RN_6_RD_12_1.png","img2/300/Incongruent/R/I_Dist_300_LN_4_LD_20_RN_2_RD_4_1.png","img2/200/Congruent/R/C_Dist_200_LN_5_LD_10_RN_14_RD_20_1.png","img2/200/Incongruent/R/I_Dist_200_LN_6_LD_20_RN_3_RD_6_1.png","img2/200/Congruent/R/C_Dist_200_LN_9_LD_30_RN_13_RD_26_1.png","img2/100/Incongruent/L/I_Dist_100_LN_9_LD_15_RN_13_RD_26_0.png","img2/300/Congruent/R/C_Dist_300_LN_1_LD_5_RN_3_RD_6_1.png","img2/100/Incongruent/R/I_Dist_100_LN_6_LD_12_RN_3_RD_5_1.png","img2/300/Incongruent/L/I_Dist_300_LN_2_LD_4_RN_6_RD_30_0.png","img2/200/Congruent/R/C_Dist_200_LN_3_LD_12_RN_9_RD_20_1.png","img2/300/Congruent/L/C_Dist_300_LN_9_LD_10_RN_3_RD_5_0.png","img2/300/Congruent/R/C_Dist_300_LN_1_LD_20_RN_7_RD_20_1.png","img2/200/Congruent/R/C_Dist_200_LN_3_LD_10_RN_7_RD_14_1.png","img2/300/Congruent/R/C_Dist_300_LN_1_LD_5_RN_6_RD_12_1.png","img2/200/Congruent/R/C_Dist_200_LN_9_LD_30_RN_13_RD_26_1.png","img2/200/Incongruent/L/I_Dist_200_LN_3_LD_4_RN_11_RD_20_0.png","img2/200/Incongruent/L/I_Dist_200_LN_3_LD_4_RN_11_RD_20_0.png","img2/200/Congruent/R/C_Dist_200_LN_5_LD_10_RN_14_RD_20_1.png","img2/100/Congruent/R/C_Dist_100_LN_7_LD_14_RN_9_RD_15_1.png","img2/100/Congruent/R/C_Dist_100_LN_7_LD_14_RN_15_RD_25_1.png","img2/200/Incongruent/R/I_Dist_200_LN_6_LD_20_RN_3_RD_6_1.png","img2/200/Incongruent/L/I_Dist_200_LN_1_LD_3_RN_2_RD_15_0.png"],"dist100_C":[["C_Dist_100_LN_10_LD_25_RN_3_RD_10_0.png","C_Dist_100_LN_11_LD_22_RN_4_RD_10_0.png","C_Dist_100_LN_11_LD_22_RN_6_RD_15_0.png","C_Dist_100_LN_15_LD_25_RN_13_RD_26_0.png","C_Dist_100_LN_3_LD_6_RN_2_RD_5_0.png","C_Dist_100_LN_6_LD_20_RN_5_RD_25_0.png","C_Dist_100_LN_8_LD_16_RN_2_RD_5_0.png","C_Dist_100_LN_9_LD_15_RN_8_RD_16_0.png"],["C_Dist_100_LN_1_LD_2_RN_18_RD_30_1.png","C_Dist_100_LN_1_LD_2_RN_3_RD_5_1.png","C_Dist_100_LN_12_LD_30_RN_13_RD_26_1.png","C_Dist_100_LN_2_LD_5_RN_11_RD_22_1.png","C_Dist_100_LN_2_LD_5_RN_6_RD_12_1.png","C_Dist_100_LN_3_LD_20_RN_4_RD_16_1.png","C_Dist_100_LN_4_LD_10_RN_15_RD_30_1.png","C_Dist_100_LN_4_LD_8_RN_6_RD_10_1.png","C_Dist_100_LN_6_LD_12_RN_15_RD_25_1.png","C_Dist_100_LN_7_LD_14_RN_15_RD_25_1.png","C_Dist_100_LN_7_LD_14_RN_9_RD_15_1.png"]],"dist100_I":[["I_Dist_100_LN_1_LD_2_RN_8_RD_20_0.png","I_Dist_100_LN_2_LD_4_RN_6_RD_15_0.png","I_Dist_100_LN_2_LD_4_RN_8_RD_20_0.png","I_Dist_100_LN_3_LD_5_RN_11_RD_22_0.png","I_Dist_100_LN_3_LD_5_RN_8_RD_16_0.png","I_Dist_100_LN_3_LD_6_RN_4_RD_10_0.png","I_Dist_100_LN_3_LD_9_RN_7_RD_30_0.png","I_Dist_100_LN_4_LD_8_RN_8_RD_20_0.png","I_Dist_100_LN_6_LD_10_RN_11_RD_22_0.png","I_Dist_100_LN_6_LD_10_RN_13_RD_26_0.png","I_Dist_100_LN_6_LD_10_RN_7_RD_14_0.png","I_Dist_100_LN_9_LD_10_RN_20_RD_25_0.png","I_Dist_100_LN_9_LD_15_RN_13_RD_26_0.png","I_Dist_100_LN_9_LD_15_RN_14_RD_28_0.png"],["I_Dist_100_LN_10_LD_25_RN_8_RD_16_1.png","I_Dist_100_LN_10_LD_25_RN_9_RD_18_1.png","I_Dist_100_LN_11_LD_22_RN_9_RD_15_1.png","I_Dist_100_LN_12_LD_24_RN_9_RD_15_1.png","I_Dist_100_LN_12_LD_30_RN_2_RD_4_1.png","I_Dist_100_LN_13_LD_26_RN_12_RD_20_1.png","I_Dist_100_LN_13_LD_26_RN_6_RD_10_1.png","I_Dist_100_LN_17_LD_30_RN_10_RD_15_1.png","I_Dist_100_LN_6_LD_12_RN_3_RD_5_1.png","I_Dist_100_LN_8_LD_16_RN_6_RD_10_1.png","I_Dist_100_LN_8_LD_20_RN_1_RD_2_1.png","I_Dist_100_LN_9_LD_18_RN_6_RD_10_1.png"]],"dist100_S":[["E_Dist_100_LN_2_LD_12_RN_2_RD_30_0.png","E_Dist_100_LN_6_LD_10_RN_6_RD_12_0.png"],["E_Dist_100_LN_6_LD_12_RN_6_RD_10_1.png"]],"dist200_C":[["C_Dist_200_LN_11_LD_22_RN_3_RD_10_0.png","C_Dist_200_LN_12_LD_15_RN_6_RD_10_0.png","C_Dist_200_LN_12_LD_20_RN_6_RD_15_0.png","C_Dist_200_LN_14_LD_28_RN_6_RD_20_0.png","C_Dist_200_LN_15_LD_25_RN_4_RD_10_0.png","C_Dist_200_LN_16_LD_20_RN_12_RD_20_0.png","C_Dist_200_LN_16_LD_30_RN_9_RD_27_0.png","C_Dist_200_LN_20_LD_25_RN_9_RD_15_0.png","C_Dist_200_LN_21_LD_30_RN_2_RD_4_0.png","C_Dist_200_LN_4_LD_10_RN_3_RD_15_0.png","C_Dist_200_LN_4_LD_8_RN_3_RD_10_0.png","C_Dist_200_LN_6_LD_15_RN_3_RD_15_0.png","C_Dist_200_LN_7_LD_21_RN_2_RD_15_0.png","C_Dist_200_LN_8_LD_15_RN_2_RD_6_0.png","C_Dist_200_LN_8_LD_15_RN_3_RD_9_0.png","C_Dist_200_LN_8_LD_15_RN_7_RD_21_0.png","C_Dist_200_LN_9_LD_20_RN_4_RD_16_0.png"],["C_Dist_200_LN_1_LD_2_RN_21_RD_30_1.png","C_Dist_200_LN_13_LD_26_RN_14_RD_20_1.png","C_Dist_200_LN_3_LD_10_RN_11_RD_22_1.png","C_Dist_200_LN_3_LD_10_RN_14_RD_28_1.png","C_Dist_200_LN_3_LD_10_RN_7_RD_14_1.png","C_Dist_200_LN_3_LD_12_RN_9_RD_20_1.png","C_Dist_200_LN_3_LD_6_RN_14_RD_20_1.png","C_Dist_200_LN_5_LD_10_RN_14_RD_20_1.png","C_Dist_200_LN_6_LD_12_RN_7_RD_10_1.png","C_Dist_200_LN_6_LD_20_RN_11_RD_22_1.png","C_Dist_200_LN_7_LD_15_RN_18_RD_27_1.png","C_Dist_200_LN_9_LD_30_RN_13_RD_26_1.png"]],"dist200_I":[["I_Dist_200_LN_1_LD_2_RN_3_RD_10_0.png","I_Dist_200_LN_1_LD_3_RN_2_RD_15_0.png","I_Dist_200_LN_3_LD_4_RN_11_RD_20_0.png","I_Dist_200_LN_4_LD_5_RN_6_RD_10_0.png","I_Dist_200_LN_4_LD_6_RN_14_RD_30_0.png","I_Dist_200_LN_7_LD_10_RN_12_RD_24_0.png","I_Dist_200_LN_7_LD_10_RN_14_RD_28_0.png","I_Dist_200_LN_7_LD_10_RN_8_RD_16_0.png"],["I_Dist_200_LN_11_LD_20_RN_3_RD_4_1.png","I_Dist_200_LN_14_LD_30_RN_12_RD_18_1.png","I_Dist_200_LN_14_LD_30_RN_6_RD_9_1.png","I_Dist_200_LN_3_LD_10_RN_1_RD_2_1.png","I_Dist_200_LN_4_LD_30_RN_1_RD_3_1.png","I_Dist_200_LN_6_LD_20_RN_3_RD_6_1.png","I_Dist_200_LN_7_LD_15_RN_4_RD_6_1.png","I_Dist_200_LN_7_LD_15_RN_6_RD_9_1.png","I_Dist_200_LN_9_LD_15_RN_8_RD_10_1.png"]],"dist200_S":[["E_Dist_200_LN_3_LD_6_RN_3_RD_10_0.png"],["E_Dist_200_LN_3_LD_10_RN_3_RD_6_1.png"]],"dist300_C":[["C_Dist_300_LN_11_LD_22_RN_1_RD_5_0.png","C_Dist_300_LN_11_LD_22_RN_2_RD_10_0.png","C_Dist_300_LN_11_LD_22_RN_4_RD_20_0.png","C_Dist_300_LN_12_LD_24_RN_2_RD_10_0.png","C_Dist_300_LN_18_LD_20_RN_9_RD_15_0.png","C_Dist_300_LN_20_LD_25_RN_13_RD_26_0.png","C_Dist_300_LN_20_LD_25_RN_14_RD_28_0.png","C_Dist_300_LN_20_LD_25_RN_5_RD_10_0.png","C_Dist_300_LN_20_LD_25_RN_8_RD_16_0.png","C_Dist_300_LN_20_LD_25_RN_9_RD_18_0.png","C_Dist_300_LN_24_LD_30_RN_2_RD_4_0.png","C_Dist_300_LN_24_LD_30_RN_8_RD_16_0.png","C_Dist_300_LN_3_LD_6_RN_2_RD_10_0.png","C_Dist_300_LN_4_LD_10_RN_1_RD_10_0.png","C_Dist_300_LN_4_LD_5_RN_2_RD_4_0.png","C_Dist_300_LN_8_LD_16_RN_1_RD_5_0.png","C_Dist_300_LN_9_LD_10_RN_3_RD_5_0.png"],["C_Dist_300_LN_1_LD_20_RN_7_RD_20_1.png","C_Dist_300_LN_1_LD_3_RN_19_RD_30_1.png","C_Dist_300_LN_1_LD_30_RN_8_RD_24_1.png","C_Dist_300_LN_1_LD_5_RN_11_RD_22_1.png","C_Dist_300_LN_1_LD_5_RN_3_RD_6_1.png","C_Dist_300_LN_1_LD_5_RN_6_RD_12_1.png","C_Dist_300_LN_2_LD_10_RN_12_RD_24_1.png","C_Dist_300_LN_2_LD_20_RN_10_RD_25_1.png","C_Dist_300_LN_3_LD_12_RN_11_RD_20_1.png","C_Dist_300_LN_3_LD_6_RN_4_RD_5_1.png","C_Dist_300_LN_4_LD_20_RN_13_RD_26_1.png","C_Dist_300_LN_5_LD_25_RN_6_RD_12_1.png","C_Dist_300_LN_5_LD_25_RN_7_RD_14_1.png","C_Dist_300_LN_7_LD_14_RN_20_RD_25_1.png","C_Dist_300_LN_8_LD_15_RN_10_RD_12_1.png"]],"dist300_I":[["I_Dist_300_LN_1_LD_2_RN_2_RD_10_0.png","I_Dist_300_LN_1_LD_2_RN_3_RD_15_0.png","I_Dist_300_LN_2_LD_4_RN_6_RD_30_0.png","I_Dist_300_LN_3_LD_6_RN_4_RD_20_0.png","I_Dist_300_LN_4_LD_5_RN_6_RD_12_0.png","I_Dist_300_LN_4_LD_5_RN_8_RD_16_0.png","I_Dist_300_LN_7_LD_10_RN_8_RD_20_0.png","I_Dist_300_LN_8_LD_10_RN_14_RD_28_0.png","I_Dist_300_LN_8_LD_10_RN_9_RD_18_0.png"],["I_Dist_300_LN_13_LD_26_RN_12_RD_15_1.png","I_Dist_300_LN_4_LD_20_RN_2_RD_4_1.png"]],"dist300_S":[["E_Dist_300_LN_9_LD_12_RN_9_RD_20_0.png"],["E_Dist_300_LN_18_LD_30_RN_18_RD_20_1.png","E_Dist_300_LN_3_LD_10_RN_3_RD_5_1.png","E_Dist_300_LN_9_LD_20_RN_9_RD_12_1.png"]],"dist500_C":[["C_Dist_500_LN_10_LD_13_RN_7_RD_26_0.png","C_Dist_500_LN_10_LD_15_RN_4_RD_24_0.png","C_Dist_500_LN_12_LD_16_RN_3_RD_12_0.png","C_Dist_500_LN_12_LD_18_RN_4_RD_24_0.png","C_Dist_500_LN_15_LD_18_RN_5_RD_15_0.png","C_Dist_500_LN_15_LD_20_RN_1_RD_4_0.png","C_Dist_500_LN_18_LD_27_RN_1_RD_6_0.png","C_Dist_500_LN_20_LD_24_RN_1_RD_3_0.png","C_Dist_500_LN_20_LD_24_RN_3_RD_9_0.png","C_Dist_500_LN_20_LD_24_RN_7_RD_21_0.png","C_Dist_500_LN_20_LD_28_RN_3_RD_14_0.png","C_Dist_500_LN_21_LD_28_RN_6_RD_24_0.png","C_Dist_500_LN_22_LD_28_RN_2_RD_7_0.png","C_Dist_500_LN_25_LD_30_RN_9_RD_27_0.png","C_Dist_500_LN_4_LD_6_RN_1_RD_6_0.png","C_Dist_500_LN_5_LD_6_RN_2_RD_6_0.png","C_Dist_500_LN_6_LD_9_RN_1_RD_6_0.png","C_Dist_500_LN_7_LD_10_RN_1_RD_5_0.png","C_Dist_500_LN_8_LD_12_RN_1_RD_6_0.png","C_Dist_500_LN_8_LD_12_RN_4_RD_24_0.png"],["C_Dist_500_LN_1_LD_4_RN_12_RD_16_1.png","C_Dist_500_LN_1_LD_4_RN_9_RD_12_1.png","C_Dist_500_LN_1_LD_9_RN_11_RD_18_1.png","C_Dist_500_LN_10_LD_24_RN_22_RD_24_1.png","C_Dist_500_LN_2_LD_12_RN_10_RD_15_1.png","C_Dist_500_LN_2_LD_12_RN_12_RD_18_1.png","C_Dist_500_LN_2_LD_12_RN_4_RD_6_1.png","C_Dist_500_LN_2_LD_24_RN_7_RD_12_1.png","C_Dist_500_LN_2_LD_5_RN_18_RD_20_1.png","C_Dist_500_LN_2_LD_5_RN_9_RD_10_1.png","C_Dist_500_LN_2_LD_8_RN_12_RD_16_1.png","C_Dist_500_LN_2_LD_8_RN_21_RD_28_1.png","C_Dist_500_LN_3_LD_10_RN_4_RD_5_1.png","C_Dist_500_LN_3_LD_12_RN_15_RD_20_1.png","C_Dist_500_LN_3_LD_30_RN_6_RD_10_1.png","C_Dist_500_LN_3_LD_8_RN_14_RD_16_1.png","C_Dist_500_LN_4_LD_16_RN_15_RD_20_1.png","C_Dist_500_LN_4_LD_24_RN_12_RD_18_1.png","C_Dist_500_LN_5_LD_14_RN_6_RD_7_1.png","C_Dist_500_LN_7_LD_21_RN_20_RD_24_1.png","C_Dist_500_LN_7_LD_28_RN_12_RD_16_1.png","C_Dist_500_LN_7_LD_28_RN_9_RD_12_1.png","C_Dist_500_LN_9_LD_27_RN_20_RD_24_1.png"]],"dist500_I":[["I_Dist_500_LN_2_LD_3_RN_4_RD_24_0.png","I_Dist_500_LN_5_LD_6_RN_6_RD_18_0.png","I_Dist_500_LN_7_LD_8_RN_9_RD_24_0.png"],["I_Dist_500_LN_7_LD_21_RN_5_RD_6_1.png"]],"dist500_S":[["E_Dist_500_LN_6_LD_8_RN_6_RD_24_0.png"],["E_Dist_500_LN_2_LD_12_RN_2_RD_3_1.png","E_Dist_500_LN_6_LD_24_RN_6_RD_8_1.png"]]}},{"start_time":1552073248008,"click_time":1552073250418,"finger_time":1552073249639,"fix_duration":1007.2663293882972,"trial":1,"RT":1631,"MT":779,"sideResp":2,"stimulus":[],"xmouse":[801,801,801,801,801,801,801,801,801,801,801,801,801,801,801,801,801,801,801,801,801,801,801,801,801,801,801,801,801,801,801,801,801,801,801,801,801,801,801,801,801,801,801,801,801,801,801,801,801,801,801,801,801,801,801,801,801,801,801,801,801,801,801,801,801,801,801,801,801,801,801,801,803,803,803,803,803,803,803,806,823,857,886,915,937,953,959,970,987,998,1011,1014,1014,1020,1034,1069,1089,1104,1113,1117,1124,1126,1128,1128,1127,1115,1105,1094,1085,1083,1085,1092,1097,1101,1107,1117,1121,1125,1129,1133,1143],"ymouse":[597,597,597,597,597,597,597,597,597,597,597,597,597,597,597,597,597,597,597,597,597,597,597,597,597,597,597,597,597,597,597,597,597,597,597,597,597,597,597,597,597,597,597,597,597,597,597,597,597,597,597,597,597,597,597,597,597,597,597,597,597,597,597,597,597,597,597,597,597,597,597,597,598,598,598,598,598,598,598,596,581,553,529,507,486,457,442,423,388,357,308,296,294,291,285,272,264,254,246,236,213,210,201,198,197,188,179,169,161,156,148,145,142,139,133,120,115,112,107,101,75],"timestamp_mouse":[13,46,49,69,91,110,130,151,170,191,211,230,251,269,289,311,330,350,370,390,410,430,451,470,489,509,531,551,571,591,610,629,651,670,690,709,731,751,769,789,811,831,851,871,890,909,931,951,971,990,1010,1031,1050,1069,1089,1110,1131,1150,1170,1189,1211,1231,1249,1270,1291,1310,1331,1351,1371,1390,1411,1431,1450,1471,1491,1511,1530,1551,1570,1590,1610,1630,1650,1671,1690,1710,1730,1751,1770,1791,1810,1829,1851,1870,1890,1910,1929,1950,1970,1990,2010,2031,2050,2070,2090,2110,2129,2150,2170,2191,2210,2229,2250,2269,2290,2309,2330,2351,2370,2391,2410],"xSR":741.5,"ySR":573.95,"xT1":424.9,"yT1":0,"xT2":1058.1,"yT2":0,"toosoon":0,"cond_shown":"Congruent","ratio_trial":200,"L_num":9,"L_den":30,"R_num":13,"R_den":26,"correct_side":2,"subjID":"violetaespitiaalonso3","gender":"1","school":"4","age":"9"},{"start_time":1552073263298,"click_time":1552073265939,"finger_time":1552073264957,"fix_duration":1217.5796146531063,"trial":2,"RT":1659,"MT":982,"sideResp":2,"stimulus":[],"xmouse":[778,778,778,778,778,778,778,778,778,778,778,778,778,778,778,778,778,778,778,778,778,778,778,778,778,778,778,778,778,778,778,778,778,778,778,778,778,778,778,778,778,778,778,778,778,778,778,778,778,778,778,778,778,778,778,778,778,778,778,778,778,778,778,778,778,778,778,778,778,778,778,778,778,778,778,778,778,778,778,778,778,777,776,801,850,939,1066,1200,1359,1565,1565,1565,1565,1565,1565,1565,1565,1565,1565,1565,1564,1532,1506,1444,1420,1407,1402,1399,1394,1387,1383,1378,1372,1343,1324,1305,1291,1277,1240,1223,1208,1200,1197,1195,1195,1194,1193,1192,1189,1186,1181,1169,1156],"ymouse":[639,639,639,639,639,639,639,639,639,639,639,639,639,639,639,639,639,639,639,639,639,639,639,639,639,639,639,639,639,639,639,639,639,639,639,639,639,639,639,639,639,639,639,639,639,639,639,639,639,639,639,639,639,639,639,639,639,639,639,639,639,639,639,639,639,639,639,639,639,639,639,639,639,639,639,639,639,639,639,639,639,643,649,678,687,687,673,640,569,378,378,378,378,378,378,378,378,378,378,378,69,49,28,0,0,0,0,0,0,0,0,0,0,0,0,0,0,0,0,0,0,0,0,0,0,0,0,2,4,7,8,8,8],"timestamp_mouse":[10,20,40,60,80,99,121,140,160,180,199,220,240,261,279,301,321,340,359,381,401,420,441,461,481,501,521,541,559,580,601,621,639,659,680,699,720,740,761,780,800,821,840,860,880,900,921,941,959,981,999,1021,1039,1061,1081,1100,1121,1140,1160,1179,1201,1220,1241,1259,1280,1301,1320,1339,1359,1380,1401,1420,1441,1461,1479,1500,1521,1539,1560,1581,1601,1620,1640,1659,1680,1699,1719,1740,1760,1781,1801,1821,1840,1860,1880,1899,1919,1940,1960,1980,2000,2020,2041,2061,2081,2100,2119,2140,2162,2179,2199,2221,2241,2261,2279,2301,2320,2341,2362,2379,2401,2420,2441,2460,2480,2500,2519,2540,2561,2579,2600,2620,2641],"xSR":741.5,"ySR":573.95,"xT1":424.9,"yT1":0,"xT2":1058.1,"yT2":0,"toosoon":0,"cond_shown":"Congruent","ratio_trial":300,"L_num":1,"L_den":5,"R_num":3,"R_den":6,"correct_side":2,"subjID":"violetaespitiaalonso3","gender":"1","school":"4","age":"9"},{"start_time":1552073270286,"click_time":1552073271718,"finger_time":1552073271639,"fix_duration":267.62907872805897,"trial":3,"RT":1353,"MT":79,"sideResp":1,"stimulus":[],"xmouse":[760,762,762,762,764,765,766,766,766,766,766,766,766,767,768,769,770,770,770,770,770,772,772,772,772,772,772,772,772,772,772,772,772,772,772,772,772,772,772,772,773,774,774,774,774,774,774,774,775,775,775,776,776,776,776,776,776,776,776,776,776,776,776,776,776,776,776,771,755,647,580,520],"ymouse":[586,586,586,586,586,586,586,586,586,586,586,586,586,585,585,583,583,583,583,583,583,583,582,582,582,582,582,582,582,582,582,582,582,582,582,582,582,582,582,582,581,581,581,581,581,581,581,580,580,580,580,580,580,580,580,580,580,580,580,580,580,580,580,580,580,580,577,561,530,338,192,52],"timestamp_mouse":[16,39,52,73,91,112,133,153,172,192,212,232,252,272,292,312,333,353,372,393,412,432,451,472,493,513,532,553,573,592,612,633,653,672,693,713,733,753,772,791,812,832,852,872,891,913,932,953,972,992,1013,1032,1051,1073,1093,1113,1133,1153,1173,1192,1212,1233,1252,1273,1293,1312,1332,1353,1372,1392,1412,1432],"xSR":741.5,"ySR":573.95,"xT1":424.9,"yT1":0,"xT2":1058.1,"yT2":0,"toosoon":0,"cond_shown":"Congruent","ratio_trial":300,"L_num":20,"L_den":25,"R_num":13,"R_den":26,"correct_side":1,"subjID":"violetaespitiaalonso3","gender":"1","school":"4","age":"9"},{"start_time":1552073275488,"click_time":1552073277598,"finger_time":1552073276898,"fix_duration":787.1071237090715,"trial":4,"RT":1410,"MT":700,"sideResp":1,"stimulus":[],"xmouse":[765,767,767,768,769,771,773,774,774,774,774,775,775,775,775,775,775,775,775,775,775,775,775,775,775,775,775,775,775,775,775,775,775,775,775,775,775,775,775,775,775,775,775,775,775,775,775,775,775,775,775,775,775,775,775,775,775,775,775,775,775,775,775,775,775,775,775,775,776,775,746,726,696,667,649,634,631,628,625,621,597,586,577,571,567,560,556,546,533,508,501,493,483,471,467,466,465,464,464,464,464,464,464,464,464,460],"ymouse":[642,642,642,642,642,642,642,642,642,642,642,642,642,642,642,642,642,642,642,642,642,642,642,642,642,642,642,642,642,642,642,642,642,642,642,642,642,642,642,642,642,642,642,642,642,642,642,642,642,642,642,642,642,642,642,642,642,642,642,642,642,642,642,642,642,642,642,642,629,620,554,511,455,407,371,336,327,318,310,303,271,257,246,239,234,229,225,215,205,184,173,160,148,139,134,132,129,128,126,126,126,126,126,125,123,99],"timestamp_mouse":[14,41,50,71,90,109,131,149,170,190,210,231,250,271,291,310,331,349,371,391,410,429,449,471,491,510,531,550,571,591,610,630,649,671,691,711,730,751,771,791,809,831,850,871,890,911,930,951,970,990,1011,1030,1049,1070,1090,1111,1130,1151,1171,1189,1211,1231,1250,1270,1291,1311,1330,1350,1370,1389,1410,1430,1450,1471,1490,1510,1530,1550,1570,1590,1610,1630,1649,1669,1691,1709,1729,1749,1771,1791,1810,1830,1850,1869,1891,1909,1931,1950,1971,1991,2010,2031,2051,2071,2090,2110],"xSR":741.5,"ySR":573.95,"xT1":424.9,"yT1":0,"xT2":1058.1,"yT2":0,"toosoon":0,"cond_shown":"Incongruent","ratio_trial":300,"L_num":1,"L_den":2,"R_num":2,"R_den":10,"correct_side":1,"subjID":"violetaespitiaalonso3","gender":"1","school":"4","age":"9"},{"start_time":1552073279993,"click_time":1552073281678,"finger_time":1552073281497,"fix_duration":911.5840757681491,"trial":5,"RT":1504,"MT":181,"sideResp":1,"stimulus":[],"xmouse":[760,760,760,761,761,761,761,761,761,761,761,761,761,761,761,761,761,761,761,761,761,761,761,761,761,761,761,761,761,761,761,761,761,761,761,761,761,761,761,761,761,761,761,761,761,761,761,761,761,761,761,761,761,761,761,761,761,761,761,761,761,761,761,761,761,761,761,761,761,761,761,759,756,754,753,753,749,734,717,692,618,581,553,528,503],"ymouse":[630,630,630,630,630,631,631,631,631,631,631,631,631,631,631,631,631,631,631,631,631,631,631,631,631,631,631,631,631,631,631,631,631,631,631,631,631,631,631,631,631,631,631,631,631,631,631,631,631,631,631,631,631,631,631,631,631,631,631,631,631,631,631,631,631,631,631,631,631,631,625,615,605,594,582,538,499,432,389,345,247,198,161,121,64],"timestamp_mouse":[12,25,50,66,85,106,126,146,164,186,205,226,246,266,284,306,325,344,366,386,406,426,444,466,485,505,524,545,566,586,605,624,645,665,684,706,725,746,766,786,804,826,845,864,885,906,924,946,966,986,1005,1024,1044,1065,1086,1105,1124,1145,1166,1184,1206,1226,1245,1265,1284,1306,1325,1346,1364,1386,1404,1425,1445,1466,1486,1504,1525,1544,1564,1584,1605,1625,1646,1666,1685],"xSR":741.5,"ySR":573.95,"xT1":424.9,"yT1":0,"xT2":1058.1,"yT2":0,"toosoon":0,"cond_shown":"Incongruent","ratio_trial":300,"L_num":4,"L_den":5,"R_num":6,"R_den":12,"correct_side":1,"subjID":"violetaespitiaalonso3","gender":"1","school":"4","age":"9"},{"start_time":1552073283502,"click_time":1552073285839,"finger_time":1552073285319,"fix_duration":862.0118304552877,"trial":6,"RT":1817,"MT":520,"sideResp":2,"stimulus":[],"xmouse":[785,785,785,788,789,790,790,790,790,790,790,790,790,790,790,790,790,790,790,790,790,790,790,790,790,790,790,790,790,790,790,790,790,790,790,790,790,790,790,790,790,790,790,790,790,790,790,790,790,790,790,790,790,790,790,790,790,790,790,790,790,790,790,790,790,790,790,790,790,790,790,790,790,790,790,790,790,790,790,790,790,790,790,790,790,790,790,792,798,810,862,905,942,971,1003,1011,1015,1018,1022,1028,1036,1038,1039,1039,1039,1035,1034,1034,1035,1041,1043,1044,1045,1045,1045,1052,1063],"ymouse":[640,640,640,640,640,640,640,640,640,640,640,640,640,640,640,640,640,640,640,640,640,640,640,640,640,640,640,640,640,640,640,640,640,640,640,640,640,640,640,640,640,640,640,640,640,640,640,640,640,640,640,640,640,640,640,640,640,640,640,640,640,640,640,640,640,640,640,640,640,640,640,640,640,640,640,640,640,640,640,640,640,640,640,640,640,640,640,640,639,633,601,562,517,471,406,383,367,352,338,317,289,276,265,257,244,210,200,192,174,128,85,80,79,78,78,73,68],"timestamp_mouse":[18,36,57,76,95,117,136,157,176,195,216,237,257,277,297,317,336,356,377,397,416,436,456,476,497,516,535,556,577,597,617,636,656,676,696,716,736,756,776,796,817,837,857,877,897,917,935,956,977,996,1017,1036,1057,1077,1096,1117,1136,1157,1177,1197,1216,1237,1256,1277,1297,1317,1335,1357,1377,1397,1415,1436,1456,1476,1497,1516,1535,1557,1576,1597,1617,1635,1657,1677,1697,1715,1736,1756,1776,1795,1817,1836,1856,1876,1896,1915,1936,1956,1976,1996,2016,2036,2055,2076,2096,2115,2136,2157,2176,2196,2216,2237,2256,2276,2297,2316,2337],"xSR":741.5,"ySR":573.95,"xT1":424.9,"yT1":0,"xT2":1058.1,"yT2":0,"toosoon":0,"cond_shown":"Incongruent","ratio_trial":100,"L_num":8,"L_den":16,"R_num":6,"R_den":10,"correct_side":2,"subjID":"violetaespitiaalonso3","gender":"1","school":"4","age":"9"},{"start_time":1552073287695,"click_time":1552073289678,"finger_time":1552073289039,"fix_duration":615.3279628192109,"trial":7,"RT":1344,"MT":639,"sideResp":1,"stimulus":[],"xmouse":[831,831,831,831,831,831,831,831,831,831,831,831,831,831,831,831,831,831,831,831,831,830,830,830,830,830,830,830,830,830,830,830,830,830,830,830,830,830,830,830,830,830,830,831,831,831,831,831,831,831,831,831,831,831,831,831,831,831,831,831,831,831,831,831,830,828,786,744,704,674,639,591,572,564,561,557,556,556,556,556,554,547,542,537,530,527,523,522,521,521,521,521,521,521,520,519,517,514,512,511],"ymouse":[652,652,652,652,652,652,652,652,652,652,652,652,652,652,652,652,652,652,652,652,652,652,652,652,652,652,653,653,653,653,653,653,653,653,653,653,653,653,653,653,653,653,653,654,654,654,654,654,654,654,654,654,654,654,654,654,654,654,654,654,654,654,654,654,654,649,588,530,476,434,399,315,267,239,224,217,214,214,214,213,205,192,185,178,170,165,156,152,148,145,144,142,139,133,124,120,110,105,101,99],"timestamp_mouse":[13,35,42,63,83,102,122,144,164,184,203,223,243,263,282,303,323,344,362,384,404,423,443,462,483,503,523,544,563,582,604,623,643,662,683,703,723,742,764,784,804,822,842,864,883,903,923,944,963,983,1003,1023,1042,1063,1083,1104,1124,1143,1164,1184,1204,1224,1244,1264,1283,1303,1323,1344,1363,1383,1403,1423,1443,1462,1483,1502,1522,1543,1563,1583,1604,1624,1643,1664,1683,1704,1723,1743,1763,1782,1802,1823,1843,1862,1884,1903,1923,1942,1963,1983],"xSR":741.5,"ySR":573.95,"xT1":424.9,"yT1":0,"xT2":1058.1,"yT2":0,"toosoon":0,"cond_shown":"Incongruent","ratio_trial":300,"L_num":4,"L_den":5,"R_num":6,"R_den":12,"correct_side":1,"subjID":"violetaespitiaalonso3","gender":"1","school":"4","age":"9"},{"start_time":1552073292402,"click_time":1552073293758,"finger_time":1552073293457,"fix_duration":1243.066223978025,"trial":8,"RT":1055,"MT":301,"sideResp":2,"stimulus":[],"xmouse":[802,802,802,802,804,804,804,804,805,806,807,809,809,809,809,809,809,809,809,809,809,809,809,809,809,809,809,809,809,809,809,809,809,809,809,809,809,809,809,809,809,809,809,810,810,812,815,816,821,827,837,853,872,895,989,1055,1104,1135,1157,1175,1178,1178,1177,1175,1167,1156,1128],"ymouse":[594,594,594,595,596,596,596,596,596,596,596,597,597,597,597,597,597,597,597,597,597,597,597,597,597,597,597,597,597,597,597,597,597,597,597,597,597,597,597,597,597,597,597,597,597,598,597,596,593,587,580,570,558,540,459,383,308,257,227,199,189,183,176,165,142,123,85],"timestamp_mouse":[37,56,76,96,116,136,156,175,197,216,236,255,275,297,317,336,357,377,397,416,437,456,477,497,516,536,557,576,596,616,636,656,676,696,717,737,755,777,796,815,837,857,875,896,917,937,957,976,996,1017,1036,1055,1076,1095,1116,1136,1156,1176,1196,1216,1237,1257,1277,1296,1316,1336,1355],"xSR":741.5,"ySR":573.95,"xT1":424.9,"yT1":0,"xT2":1058.1,"yT2":0,"toosoon":0,"cond_shown":"Incongruent","ratio_trial":100,"L_num":12,"L_den":30,"R_num":2,"R_den":4,"correct_side":2,"subjID":"violetaespitiaalonso3","gender":"1","school":"4","age":"9"},{"start_time":1552073296615,"click_time":1552073298538,"finger_time":1552073297538,"fix_duration":1095.1427275585693,"trial":9,"RT":923,"MT":1000,"sideResp":2,"stimulus":[],"xmouse":[773,776,776,779,780,780,780,780,780,780,780,780,780,780,780,780,780,780,780,780,780,780,780,780,780,780,780,780,780,780,780,780,780,780,780,780,780,780,780,780,780,780,780,780,782,786,818,841,870,883,893,907,912,917,920,921,923,923,923,923,923,920,917,917,917,918,922,944,984,1052,1133,1244,1264,1273,1274,1274,1275,1277,1277,1277,1275,1274,1267,1246,1224,1210,1201,1201,1201,1201,1201,1201,1199,1198,1194,1187,1157],"ymouse":[632,631,631,630,630,630,630,630,630,630,630,630,630,630,630,630,630,630,630,630,630,630,630,630,630,630,630,630,630,630,630,630,630,630,630,630,630,630,630,630,630,630,630,630,628,619,544,487,425,403,386,350,336,325,319,314,299,281,253,237,219,179,161,149,144,140,136,132,126,117,106,103,103,103,103,103,100,89,83,74,70,69,69,72,77,81,85,85,85,85,85,85,85,85,85,83,69],"timestamp_mouse":[2,41,43,62,84,104,124,143,164,183,202,223,243,264,282,304,323,344,364,383,404,424,443,464,483,504,523,544,564,584,603,624,644,664,683,703,723,743,764,784,804,823,843,864,883,904,923,943,963,983,1003,1023,1043,1063,1082,1104,1122,1143,1163,1184,1203,1224,1243,1262,1283,1303,1322,1343,1363,1382,1402,1423,1442,1464,1483,1503,1522,1542,1563,1584,1602,1623,1643,1663,1684,1703,1723,1742,1762,1784,1803,1824,1844,1863,1883,1904,1922],"xSR":741.5,"ySR":573.95,"xT1":424.9,"yT1":0,"xT2":1058.1,"yT2":0,"toosoon":0,"cond_shown":"Incongruent","ratio_trial":300,"L_num":4,"L_den":20,"R_num":2,"R_den":4,"correct_side":2,"subjID":"violetaespitiaalonso3","gender":"1","school":"4","age":"9"},{"start_time":1552073305050,"click_time":1552073306858,"finger_time":1552073306098,"fix_duration":250,"trial":10,"RT":1048,"MT":760,"sideResp":1,"stimulus":[],"xmouse":[809,809,809,809,809,809,809,809,809,809,809,809,809,809,809,809,809,809,809,809,809,809,809,809,809,809,809,809,809,809,809,809,809,809,809,809,809,809,809,809,809,809,809,809,809,809,809,809,809,809,809,810,813,813,811,787,776,765,754,741,715,703,688,658,627,556,533,520,511,510,510,510,510,510,510,512,512,513,514,514,516,516,513,511,511,509,508,507,503,498,487],"ymouse":[613,613,613,613,613,613,613,613,613,613,613,613,613,613,613,613,613,613,613,613,613,613,613,613,613,613,613,613,613,613,613,613,613,613,613,613,613,613,613,613,613,613,613,613,613,613,613,613,613,613,610,591,547,531,493,442,421,401,384,369,347,338,328,308,290,249,234,225,219,218,218,218,217,217,209,196,192,189,187,184,176,171,163,159,159,156,153,147,137,122,96],"timestamp_mouse":[12,29,49,68,87,107,129,149,168,189,208,227,249,267,289,309,328,349,369,388,408,428,447,468,489,509,528,549,569,589,607,629,649,669,689,708,728,749,769,789,808,829,849,869,887,907,929,949,968,988,1008,1027,1048,1069,1088,1109,1128,1147,1168,1188,1207,1228,1248,1268,1288,1309,1329,1347,1368,1388,1409,1429,1448,1469,1488,1508,1529,1549,1568,1588,1608,1627,1647,1668,1688,1709,1728,1748,1768,1788,1808],"xSR":741.5,"ySR":573.95,"xT1":424.9,"yT1":0,"xT2":1058.1,"yT2":0,"toosoon":0,"cond_shown":"Incongruent","ratio_trial":200,"L_num":7,"L_den":10,"R_num":14,"R_den":28,"correct_side":1,"subjID":"violetaespitiaalonso3","gender":"1","school":"4","age":"9"},{"start_time":1552073313244,"click_time":1552073315978,"finger_time":1552073313599,"fix_duration":1163.419707075375,"trial":11,"RT":355,"MT":2379,"sideResp":2,"stimulus":[],"xmouse":[789,789,789,789,789,789,789,789,789,789,789,789,789,789,789,789,790,791,792,793,793,794,795,795,796,796,797,797,797,797,797,797,797,797,797,797,797,797,797,797,797,797,797,797,797,797,797,798,796,794,792,791,789,788,788,788,788,788,788,788,788,788,788,788,788,788,788,788,788,788,788,788,788,788,788,788,788,831,926,997,1009,1095,1150,1188,1211,1218,1219,1220,1220,1220,1220,1215,1209,1202,1191,1177,1141,1123,1107,1087,1071,1065,1073,1085,1101,1140,1166,1189,1212,1224,1224,1202,1194,1182,1166,1152,1110,1079,1052,1046,1061,1078,1094,1096,1097,1097,1097,1097,1097,1098,1099,1099,1099,1099,1100,1113,1125],"ymouse":[574,574,574,574,574,574,574,574,574,574,574,574,574,574,574,574,574,572,571,571,569,567,567,567,566,566,566,566,566,566,566,566,566,566,566,566,566,566,566,566,566,566,566,566,566,566,566,572,582,596,625,632,638,641,642,642,642,642,642,642,642,642,642,642,642,642,642,642,642,642,642,642,642,642,642,642,642,642,646,661,661,652,647,647,647,645,645,644,644,644,643,643,641,639,636,629,615,607,600,592,580,566,555,547,543,544,546,545,527,508,473,406,329,257,222,208,198,192,181,177,156,141,127,125,124,124,124,124,124,124,124,124,124,124,122,102,90],"timestamp_mouse":[14,41,55,74,94,114,135,155,173,193,214,234,253,275,295,314,333,355,374,394,414,433,455,474,495,514,535,562,574,594,613,635,655,674,695,715,734,753,775,794,815,834,854,875,895,914,934,954,974,995,1015,1034,1054,1074,1093,1115,1134,1154,1174,1195,1214,1234,1255,1275,1295,1315,1334,1354,1374,1394,1413,1435,1455,1475,1494,1515,1533,1554,1573,1595,1614,1634,1654,1674,1694,1713,1733,1755,1775,1795,1814,1835,1855,1874,1894,1913,1933,1955,1975,1995,2015,2034,2054,2074,2094,2115,2133,2155,2175,2194,2214,2235,2254,2275,2294,2314,2333,2355,2374,2394,2415,2434,2455,2473,2495,2515,2535,2554,2574,2593,2614,2634,2654,2674,2693,2715,2734],"xSR":741.5,"ySR":573.95,"xT1":424.9,"yT1":0,"xT2":1058.1,"yT2":0,"toosoon":0,"cond_shown":"Congruent","ratio_trial":100,"L_num":3,"L_den":6,"R_num":2,"R_den":5,"correct_side":1,"subjID":"violetaespitiaalonso3","gender":"1","school":"4","age":"9"},{"start_time":1552073317890,"click_time":1552073320599,"finger_time":1552073319559,"fix_duration":250,"trial":12,"RT":1669,"MT":1040,"sideResp":1,"stimulus":[],"xmouse":[814,814,814,814,814,814,814,814,814,814,814,814,815,815,815,815,815,816,817,821,821,822,822,822,822,822,822,822,822,822,822,822,822,822,822,822,822,822,822,822,822,822,822,822,822,822,822,822,822,822,822,822,822,822,822,822,822,822,822,822,822,822,822,822,822,822,822,822,822,822,822,822,822,822,822,822,822,822,822,822,822,824,834,846,898,928,944,951,954,954,954,951,945,942,941,941,945,954,963,980,996,1009,1021,1029,1042,1045,1046,1046,1045,1018,993,963,927,896,828,756,693,637,577,469,425,397,380,370,366,366,366,366,367,370,371,373,376,382,407,432],"ymouse":[616,616,616,616,616,616,616,616,616,616,616,616,616,616,616,616,616,616,616,614,614,614,614,614,614,614,614,614,614,614,614,614,614,614,614,614,614,614,614,614,614,614,614,614,614,614,614,614,614,614,614,614,614,614,614,614,614,614,614,614,614,614,614,614,614,614,614,614,614,614,614,614,614,614,614,614,614,614,614,614,614,611,607,606,599,589,579,573,572,572,570,568,564,563,562,562,552,525,483,406,373,354,341,336,336,336,336,336,340,353,361,369,374,374,365,333,298,264,223,145,114,93,78,69,59,53,48,46,44,43,43,43,43,47,60,69],"timestamp_mouse":[13,36,49,69,88,107,129,149,169,189,208,228,249,268,288,308,329,347,367,388,408,428,447,469,489,508,529,549,569,589,608,627,648,668,688,707,728,749,769,788,809,829,848,868,888,909,928,949,968,989,1008,1028,1049,1069,1087,1109,1129,1148,1168,1189,1207,1228,1248,1269,1288,1309,1327,1347,1369,1388,1408,1428,1449,1469,1487,1508,1529,1548,1567,1589,1607,1628,1647,1669,1688,1708,1728,1747,1768,1788,1807,1828,1848,1867,1888,1908,1928,1948,1968,1987,2007,2028,2047,2068,2087,2109,2128,2148,2167,2187,2208,2228,2247,2267,2288,2308,2328,2347,2368,2388,2408,2428,2447,2468,2488,2508,2528,2548,2569,2588,2608,2628,2647,2669,2687,2709],"xSR":741.5,"ySR":573.95,"xT1":424.9,"yT1":0,"xT2":1058.1,"yT2":0,"toosoon":0,"cond_shown":"Congruent","ratio_trial":300,"L_num":4,"L_den":10,"R_num":1,"R_den":10,"correct_side":1,"subjID":"violetaespitiaalonso3","gender":"1","school":"4","age":"9"},{"start_time":1552073328589,"click_time":1552073330918,"finger_time":1552073330257,"fix_duration":250,"trial":13,"RT":1668,"MT":661,"sideResp":2,"stimulus":[],"xmouse":[785,785,777,772,771,771,771,771,771,771,771,771,771,771,771,771,771,771,771,771,771,771,771,771,771,771,771,771,771,771,771,771,771,771,771,771,771,771,771,771,771,771,771,771,771,771,771,771,771,771,771,771,771,771,771,771,771,771,771,771,771,771,771,771,771,771,771,771,771,771,766,759,755,752,752,752,752,752,752,752,771,784,799,814,828,851,860,873,882,891,913,945,994,1042,1085,1122,1130,1140,1152,1161,1191,1200,1207,1211,1212,1199,1199,1199,1199,1198,1195,1191,1185,1174,1167,1159,1143],"ymouse":[657,655,644,638,637,637,637,637,637,637,637,637,637,637,637,637,637,637,637,637,637,637,637,637,637,637,637,637,637,637,637,637,637,637,637,637,637,637,637,637,637,637,637,637,637,637,637,637,637,637,637,637,637,637,637,637,637,637,637,637,637,637,637,637,637,637,637,637,637,637,637,635,633,633,633,633,633,633,633,631,613,602,587,571,550,510,498,485,479,471,445,418,386,355,327,292,279,264,236,214,151,113,77,42,19,0,0,0,0,0,2,5,9,17,23,28,38],"timestamp_mouse":[16,29,49,69,94,108,128,150,169,189,208,228,248,268,288,308,328,350,369,388,408,428,449,470,490,508,529,548,568,590,609,629,649,670,688,709,729,750,770,788,809,830,848,869,888,909,929,950,968,990,1009,1029,1049,1069,1090,1110,1129,1148,1170,1189,1210,1230,1249,1269,1289,1309,1329,1350,1370,1389,1409,1428,1450,1469,1488,1509,1530,1550,1569,1589,1609,1628,1648,1668,1689,1708,1729,1748,1768,1789,1808,1828,1848,1869,1889,1908,1928,1949,1968,1988,2008,2028,2050,2069,2089,2110,2129,2148,2169,2188,2211,2228,2249,2268,2288,2308,2329],"xSR":741.5,"ySR":573.95,"xT1":424.9,"yT1":0,"xT2":1058.1,"yT2":0,"toosoon":0,"cond_shown":"Incongruent","ratio_trial":100,"L_num":11,"L_den":22,"R_num":9,"R_den":15,"correct_side":2,"subjID":"violetaespitiaalonso3","gender":"1","school":"4","age":"9"},{"start_time":1552073332570,"click_time":1552073334520,"finger_time":1552073333857,"fix_duration":250,"trial":14,"RT":1287,"MT":663,"sideResp":2,"stimulus":[],"xmouse":[808,808,808,808,808,808,808,809,809,809,809,810,810,810,811,811,811,811,811,811,811,812,814,814,814,814,814,814,815,818,822,824,826,827,829,831,832,832,832,832,832,832,832,832,832,831,830,827,827,827,827,828,836,838,838,838,838,838,838,838,838,838,838,840,860,880,898,919,928,941,965,1021,1168,1187,1186,1185,1185,1186,1205,1217,1233,1245,1249,1230,1214,1197,1186,1180,1173,1171,1168,1166,1163,1163,1162,1161,1159,1155],"ymouse":[622,622,622,622,622,623,623,623,623,623,623,623,623,623,623,623,623,623,623,623,623,623,623,623,623,623,623,623,623,621,619,618,617,617,617,616,615,614,614,614,614,614,614,614,614,617,619,624,624,624,624,624,619,617,617,617,617,617,617,617,617,617,617,618,606,592,577,553,541,524,488,394,240,222,217,209,193,174,120,91,51,12,0,0,0,0,0,0,1,5,11,15,21,24,31,39,52,63],"timestamp_mouse":[7,29,49,69,88,108,129,148,168,189,209,228,248,268,289,307,329,349,367,388,407,427,448,467,488,508,528,549,567,588,608,628,649,669,687,708,727,748,768,787,808,828,847,867,887,908,928,947,967,987,1007,1029,1047,1069,1087,1109,1129,1148,1167,1189,1208,1227,1247,1268,1287,1307,1327,1348,1367,1388,1408,1427,1447,1467,1488,1508,1527,1547,1567,1588,1608,1628,1648,1668,1688,1707,1728,1747,1767,1789,1809,1829,1847,1867,1888,1907,1927,1949],"xSR":741.5,"ySR":573.95,"xT1":424.9,"yT1":0,"xT2":1058.1,"yT2":0,"toosoon":0,"cond_shown":"Congruent","ratio_trial":300,"L_num":7,"L_den":14,"R_num":20,"R_den":25,"correct_side":2,"subjID":"violetaespitiaalonso3","gender":"1","school":"4","age":"9"},{"start_time":1552073336670,"click_time":1552073339337,"finger_time":1552073338578,"fix_duration":250,"trial":15,"RT":1908,"MT":759,"sideResp":1,"stimulus":[],"xmouse":[757,759,761,763,763,763,763,764,764,764,764,764,764,764,764,764,764,764,764,764,764,764,764,764,764,764,764,764,764,764,764,764,764,764,764,764,764,764,764,764,764,764,764,764,764,764,764,764,764,764,764,764,764,764,764,764,764,764,764,764,764,763,762,761,761,759,758,757,757,757,757,757,757,757,757,757,757,757,757,757,757,757,757,757,757,757,757,757,757,757,757,756,752,747,740,731,718,704,697,691,688,685,672,664,656,649,642,631,626,618,608,594,552,538,526,522,520,529,534,535,535,535,535,534,531,529,516,487,469,451,443,442,444],"ymouse":[602,611,616,618,618,618,618,619,619,621,622,623,623,623,623,623,623,623,623,623,623,623,623,623,623,623,623,623,623,623,623,623,623,623,623,623,623,623,623,623,623,623,623,623,623,623,623,623,623,623,623,623,623,623,623,623,623,623,623,620,617,614,612,610,608,606,603,601,601,601,601,601,601,601,601,601,601,601,601,601,601,601,601,601,601,601,601,601,601,601,601,599,594,590,586,582,575,564,557,549,541,536,511,497,485,476,463,445,437,426,412,391,330,307,276,266,234,190,179,175,173,171,169,167,164,162,151,129,118,110,106,102,99],"timestamp_mouse":[18,48,67,89,109,127,148,169,187,208,227,248,269,287,308,328,348,368,388,409,429,448,467,487,508,527,547,568,589,608,628,647,667,688,708,728,748,769,789,809,829,848,868,888,908,928,949,969,989,1008,1028,1047,1068,1089,1108,1128,1148,1168,1187,1208,1227,1248,1267,1288,1308,1328,1348,1368,1387,1409,1427,1448,1467,1488,1508,1528,1548,1567,1588,1609,1627,1647,1669,1688,1707,1727,1748,1769,1789,1808,1827,1847,1867,1888,1908,1928,1948,1968,1987,2007,2027,2048,2067,2088,2107,2128,2148,2168,2188,2208,2228,2248,2267,2289,2307,2328,2348,2369,2387,2408,2427,2447,2467,2488,2508,2527,2547,2568,2587,2607,2627,2648,2667],"xSR":741.5,"ySR":573.95,"xT1":424.9,"yT1":0,"xT2":1058.1,"yT2":0,"toosoon":0,"cond_shown":"Congruent","ratio_trial":100,"L_num":3,"L_den":20,"R_num":4,"R_den":16,"correct_side":2,"subjID":"violetaespitiaalonso3","gender":"1","school":"4","age":"9"},{"start_time":1552073343149,"click_time":1552073345138,"finger_time":1552073344479,"fix_duration":250,"trial":16,"RT":1330,"MT":659,"sideResp":1,"stimulus":[],"xmouse":[814,814,814,814,814,814,814,814,814,814,814,814,814,814,815,816,816,816,816,816,816,816,817,817,817,817,817,817,817,817,817,817,817,817,817,817,817,817,817,817,817,817,817,817,817,817,817,818,818,818,818,818,818,818,818,818,818,818,818,818,818,818,817,816,812,803,785,749,687,599,447,408,361,327,294,288,285,284,284,284,284,284,284,284,285,287,294,303,313,322,339,354,372,390,402,411,412,412,412,436],"ymouse":[649,649,649,649,649,649,649,649,649,649,649,649,649,649,649,648,648,648,648,648,648,648,648,648,648,648,648,648,648,648,648,648,648,647,647,647,647,647,647,647,647,647,647,647,647,647,647,647,647,647,647,647,647,647,647,647,647,647,647,647,643,638,631,622,598,575,512,411,276,103,0,0,0,0,0,0,0,0,0,0,0,0,0,0,1,3,7,11,14,17,23,28,32,38,41,44,44,44,44,45],"timestamp_mouse":[9,38,50,70,88,108,130,150,169,190,209,228,248,268,288,308,329,350,369,388,410,428,449,469,488,510,529,548,569,588,609,629,650,670,689,710,729,749,769,788,808,830,849,868,889,908,928,949,969,988,1008,1029,1048,1069,1090,1108,1129,1148,1168,1190,1209,1229,1249,1270,1288,1308,1330,1348,1368,1388,1409,1429,1449,1468,1490,1508,1529,1549,1570,1588,1609,1630,1648,1669,1691,1708,1728,1748,1769,1788,1808,1828,1849,1870,1889,1908,1928,1948,1968,1988],"xSR":741.5,"ySR":573.95,"xT1":424.9,"yT1":0,"xT2":1058.1,"yT2":0,"toosoon":0,"cond_shown":"Congruent","ratio_trial":200,"L_num":7,"L_den":21,"R_num":2,"R_den":15,"correct_side":1,"subjID":"violetaespitiaalonso3","gender":"1","school":"4","age":"9"},{"start_time":1552073349224,"click_time":1552073351177,"finger_time":1552073350218,"fix_duration":1343.3734584883061,"trial":17,"RT":994,"MT":959,"sideResp":1,"stimulus":[],"xmouse":[825,825,825,825,825,825,825,825,825,825,825,825,825,825,825,825,825,825,825,825,825,825,825,825,825,824,824,824,824,824,824,824,824,824,824,824,824,824,824,824,824,824,824,824,824,824,824,823,818,814,810,809,809,809,809,809,800,793,786,779,775,765,755,749,742,735,725,717,708,706,712,721,723,725,726,726,719,710,697,678,651,609,573,551,530,513,496,496,495,495,495,494,494,494,494,494,494,494],"ymouse":[606,606,606,606,606,606,606,606,606,606,606,606,606,606,606,606,606,606,606,606,606,606,606,606,607,608,608,608,608,608,608,608,608,608,608,608,608,608,608,608,608,608,608,608,608,608,604,597,583,569,559,558,558,558,558,556,549,543,537,531,527,511,485,464,442,419,380,360,342,331,320,306,300,293,286,277,257,243,228,211,195,170,150,140,131,125,114,114,114,114,114,113,111,108,107,105,101,99],"timestamp_mouse":[15,40,54,74,94,114,134,154,174,195,214,234,253,275,293,313,333,354,374,393,415,434,453,473,494,515,533,555,574,594,614,634,655,673,694,713,734,753,773,794,814,833,853,874,894,913,933,953,974,994,1014,1034,1054,1074,1094,1115,1135,1154,1173,1193,1215,1233,1253,1274,1295,1314,1334,1353,1373,1394,1415,1433,1455,1473,1495,1513,1533,1553,1574,1594,1613,1633,1654,1673,1695,1715,1734,1754,1774,1795,1814,1834,1854,1873,1893,1913,1933,1953],"xSR":741.5,"ySR":573.95,"xT1":424.9,"yT1":0,"xT2":1058.1,"yT2":0,"toosoon":0,"cond_shown":"Congruent","ratio_trial":200,"L_num":8,"L_den":15,"R_num":3,"R_den":9,"correct_side":1,"subjID":"violetaespitiaalonso3","gender":"1","school":"4","age":"9"},{"start_time":1552073353009,"click_time":1552073354998,"finger_time":1552073354497,"fix_duration":250,"trial":18,"RT":1488,"MT":501,"sideResp":1,"stimulus":[],"xmouse":[766,766,766,766,766,766,766,766,766,766,766,766,766,766,766,766,766,766,766,766,766,766,766,766,766,766,766,766,766,766,766,766,766,766,766,766,766,766,766,766,766,766,766,766,766,766,766,766,766,766,766,766,766,766,766,766,766,766,766,766,766,766,766,766,766,766,766,766,766,766,766,767,773,800,809,810,801,758,741,726,714,704,694,689,684,676,668,659,650,639,629,618,592,559,540,532,529,527,525,524],"ymouse":[637,637,637,637,637,637,637,637,637,637,637,637,637,637,637,637,637,637,637,637,637,637,637,637,637,637,637,637,637,637,637,637,637,637,637,637,637,637,637,637,637,637,637,637,637,637,637,637,637,637,637,637,637,637,637,637,637,637,637,637,637,637,637,637,637,637,637,637,637,637,637,638,632,591,555,516,473,401,378,360,347,334,320,315,311,304,295,271,256,237,220,206,181,155,141,130,121,112,100,95],"timestamp_mouse":[10,38,48,69,89,108,128,149,168,188,210,228,249,268,290,309,329,349,369,390,409,429,448,469,488,508,528,549,570,588,609,630,648,669,689,709,728,749,770,790,809,828,850,869,888,909,929,950,970,988,1008,1028,1049,1068,1090,1108,1130,1149,1170,1188,1209,1228,1249,1269,1290,1308,1328,1349,1369,1389,1410,1429,1449,1468,1488,1509,1528,1549,1568,1590,1609,1628,1649,1669,1689,1709,1729,1749,1768,1789,1808,1828,1849,1868,1889,1910,1929,1949,1968,1988],"xSR":741.5,"ySR":573.95,"xT1":424.9,"yT1":0,"xT2":1058.1,"yT2":0,"toosoon":0,"cond_shown":"Congruent","ratio_trial":100,"L_num":10,"L_den":25,"R_num":3,"R_den":10,"correct_side":1,"subjID":"violetaespitiaalonso3","gender":"1","school":"4","age":"9"},{"start_time":1552073357553,"click_time":1552073359898,"finger_time":1552073358977,"fix_duration":453.24498773551056,"trial":19,"RT":1424,"MT":921,"sideResp":1,"stimulus":[],"xmouse":[817,817,817,817,817,817,817,817,817,817,817,817,817,817,817,817,817,817,817,817,817,817,817,817,817,817,817,817,817,817,817,817,817,817,817,817,817,817,817,817,817,817,817,817,817,817,817,817,817,817,817,817,817,817,817,817,817,817,817,817,817,817,817,817,817,817,817,816,812,807,802,791,786,781,780,780,780,780,780,780,780,780,780,780,780,780,780,780,780,780,780,780,780,780,780,780,780,780,779,777,773,762,754,743,732,717,694,687,685,684,683,681,675,652,629,595,506,464],"ymouse":[613,613,613,613,613,613,613,613,613,613,613,613,613,613,613,613,613,613,613,613,613,613,613,613,613,613,613,613,613,613,613,613,613,613,613,613,613,613,613,613,613,613,613,613,613,613,613,613,613,613,613,613,613,613,613,613,613,613,613,613,613,613,613,613,613,613,613,611,603,593,582,562,555,549,548,548,548,548,548,548,548,548,548,548,548,548,548,548,548,548,548,548,548,548,548,548,548,548,548,547,541,512,484,446,423,399,367,357,354,353,352,348,337,309,281,241,138,90],"timestamp_mouse":[10,37,44,65,86,105,125,145,165,186,205,225,244,265,285,306,325,344,365,385,406,424,446,465,484,506,524,545,564,584,605,625,645,665,686,706,725,746,764,785,806,825,844,865,884,905,924,946,966,984,1004,1024,1044,1064,1085,1106,1125,1146,1165,1185,1206,1224,1246,1265,1284,1306,1324,1344,1364,1385,1405,1424,1445,1464,1485,1504,1525,1544,1564,1585,1604,1625,1645,1664,1684,1705,1726,1746,1765,1785,1805,1824,1844,1864,1884,1906,1924,1945,1966,1985,2004,2024,2045,2065,2084,2105,2125,2145,2165,2184,2204,2224,2246,2264,2285,2306,2325,2344],"xSR":741.5,"ySR":573.95,"xT1":424.9,"yT1":0,"xT2":1058.1,"yT2":0,"toosoon":0,"cond_shown":"Incongruent","ratio_trial":100,"L_num":3,"L_den":9,"R_num":7,"R_den":30,"correct_side":1,"subjID":"violetaespitiaalonso3","gender":"1","school":"4","age":"9"},{"start_time":1552073361948,"click_time":1552073363878,"finger_time":1552073363377,"fix_duration":250,"trial":20,"RT":1429,"MT":501,"sideResp":2,"stimulus":[],"xmouse":[786,786,786,786,786,786,786,786,786,786,786,786,786,786,786,786,786,786,786,786,786,786,786,786,786,786,786,786,786,786,786,786,786,786,784,784,784,784,784,784,784,784,784,784,784,784,784,784,784,784,784,784,784,784,784,784,784,784,784,782,776,763,763,763,763,763,763,766,780,805,835,854,880,893,919,939,976,990,995,1000,1001,995,975,965,958,954,953,954,955,956,957,975,984,992,1001,1018,1069],"ymouse":[615,615,615,615,615,615,615,615,615,615,615,615,615,615,615,615,615,615,615,615,615,615,615,615,615,615,615,615,615,615,615,615,615,615,615,616,616,616,616,616,616,616,616,616,616,616,616,616,616,616,616,616,616,616,616,616,616,616,616,616,616,616,616,616,616,616,616,613,602,591,577,566,544,523,466,416,352,324,304,277,253,217,171,148,128,113,98,95,94,93,93,93,92,91,89,89,88],"timestamp_mouse":[10,36,50,70,90,111,131,150,170,190,209,230,249,269,291,310,329,349,371,390,410,431,450,469,491,509,530,550,570,589,611,631,649,669,691,710,730,750,769,789,809,829,851,871,889,911,931,949,971,989,1009,1029,1049,1071,1090,1111,1130,1149,1169,1189,1211,1230,1250,1269,1290,1310,1330,1349,1369,1390,1409,1429,1450,1470,1491,1510,1530,1549,1570,1589,1610,1630,1651,1670,1690,1710,1730,1749,1769,1789,1810,1830,1849,1871,1891,1910,1930],"xSR":741.5,"ySR":573.95,"xT1":424.9,"yT1":0,"xT2":1058.1,"yT2":0,"toosoon":0,"cond_shown":"Congruent","ratio_trial":300,"L_num":5,"L_den":25,"R_num":6,"R_den":12,"correct_side":2,"subjID":"violetaespitiaalonso3","gender":"1","school":"4","age":"9"},{"start_time":1552073366544,"click_time":1552073368497,"finger_time":1552073367657,"fix_duration":1284.4086198964342,"trial":21,"RT":1113,"MT":840,"sideResp":1,"stimulus":[],"xmouse":[796,796,796,796,796,796,796,796,797,798,798,798,798,798,798,798,798,798,798,798,798,798,798,798,798,798,798,798,798,798,798,798,798,798,798,798,798,798,798,798,798,798,798,798,798,798,798,798,798,798,798,798,797,796,795,794,793,787,782,775,763,756,746,740,734,729,724,707,691,687,670,662,644,636,632,632,632,632,630,612,591,564,531,529,528,524,520,514,513,513,514,516,518,520,522,523,523,516],"ymouse":[580,580,580,580,580,580,580,580,579,577,577,577,577,577,577,577,577,577,577,577,577,577,577,577,577,577,577,577,577,577,577,577,577,577,577,577,577,577,577,577,577,577,577,579,579,579,579,579,579,579,579,580,578,576,574,571,566,547,529,509,474,450,412,397,385,377,368,346,327,322,303,291,271,263,260,260,260,260,257,239,231,227,222,221,220,218,216,213,210,197,188,182,166,151,132,118,105,87],"timestamp_mouse":[13,33,53,73,93,114,134,153,174,195,213,234,253,274,294,313,333,354,374,393,413,433,455,474,494,515,533,553,573,593,615,634,654,673,693,713,733,755,774,793,813,833,853,874,893,913,934,955,974,993,1014,1033,1054,1073,1094,1113,1134,1153,1175,1194,1213,1233,1254,1273,1294,1313,1333,1353,1374,1393,1413,1433,1454,1474,1494,1513,1534,1554,1574,1594,1614,1634,1654,1675,1694,1714,1734,1753,1773,1793,1813,1833,1853,1874,1893,1913,1935,1953],"xSR":741.5,"ySR":573.95,"xT1":424.9,"yT1":0,"xT2":1058.1,"yT2":0,"toosoon":0,"cond_shown":"Incongruent","ratio_trial":100,"L_num":3,"L_den":5,"R_num":11,"R_den":22,"correct_side":1,"subjID":"violetaespitiaalonso3","gender":"1","school":"4","age":"9"},{"start_time":1552073370280,"click_time":1552073372238,"finger_time":1552073371697,"fix_duration":381.5246647724877,"trial":22,"RT":1417,"MT":541,"sideResp":1,"stimulus":[],"xmouse":[812,812,812,812,812,812,812,812,812,812,812,812,812,812,812,812,812,813,814,814,814,814,814,814,814,815,815,816,816,816,816,816,816,816,816,816,816,816,816,816,816,816,816,816,816,816,816,816,816,816,816,816,816,816,816,816,816,816,816,816,816,816,816,816,816,816,815,808,802,794,786,746,720,695,672,633,616,600,585,569,542,533,532,532,532,532,532,532,532,532,532,532,532,531,530,529,527,524],"ymouse":[607,607,607,607,607,607,607,607,607,607,607,607,607,607,607,607,613,622,630,634,637,637,637,637,637,636,635,633,632,631,631,631,631,631,631,631,631,631,631,631,631,631,631,631,631,631,631,631,631,631,631,631,631,631,631,631,631,631,631,631,631,631,631,631,631,631,621,610,600,588,572,426,349,290,248,182,157,136,119,105,87,81,81,81,81,81,81,81,81,81,81,81,81,81,81,81,81,80],"timestamp_mouse":[29,37,57,77,97,119,137,158,179,198,217,237,258,277,298,319,337,358,377,398,417,438,458,479,497,518,537,558,577,598,617,637,657,679,698,719,738,758,777,797,818,839,858,877,897,917,939,957,978,999,1018,1038,1057,1078,1098,1118,1138,1158,1178,1198,1217,1239,1257,1277,1297,1319,1337,1359,1378,1398,1417,1438,1458,1477,1497,1517,1538,1558,1578,1597,1618,1638,1657,1679,1698,1718,1737,1757,1777,1797,1818,1838,1857,1878,1897,1917,1937,1958],"xSR":741.5,"ySR":573.95,"xT1":424.9,"yT1":0,"xT2":1058.1,"yT2":0,"toosoon":0,"cond_shown":"Congruent","ratio_trial":300,"L_num":4,"L_den":5,"R_num":2,"R_den":4,"correct_side":1,"subjID":"violetaespitiaalonso3","gender":"1","school":"4","age":"9"},{"start_time":1552073374054,"click_time":1552073376358,"finger_time":1552073375897,"fix_duration":374.10407928429714,"trial":23,"RT":1843,"MT":461,"sideResp":2,"stimulus":[],"xmouse":[800,800,800,800,800,800,800,800,800,800,800,800,800,800,800,800,800,800,800,800,800,800,800,800,800,800,800,800,800,800,800,800,800,800,800,800,800,800,800,800,800,800,800,800,800,800,800,800,800,800,800,800,800,800,800,800,800,800,800,800,800,800,800,800,800,800,800,800,800,800,800,800,800,800,800,800,800,800,800,800,800,800,800,800,800,801,802,804,810,817,828,833,843,852,860,871,887,920,937,959,1005,1041,1073,1127,1143,1154,1160,1162,1163,1163,1160,1158,1156,1151,1147,1142],"ymouse":[628,628,628,628,628,628,628,628,628,628,628,628,628,628,628,628,628,628,628,628,628,628,628,628,628,628,628,628,628,628,628,628,628,628,628,628,628,628,628,628,628,628,628,628,628,628,628,628,628,628,628,628,628,628,628,628,628,628,628,628,628,628,628,628,628,628,628,628,628,628,628,628,628,628,628,628,628,628,628,628,628,628,628,628,628,628,628,628,624,617,603,597,581,557,540,520,497,452,426,397,343,306,273,228,211,196,183,173,157,150,143,134,127,113,106,99],"timestamp_mouse":[10,23,44,64,84,105,124,144,165,184,204,225,243,263,284,304,324,345,363,384,405,424,445,464,484,503,525,545,563,584,603,623,645,665,684,705,724,744,763,785,805,823,843,865,884,903,923,943,965,985,1004,1023,1043,1064,1084,1103,1124,1145,1165,1183,1204,1224,1243,1264,1285,1303,1323,1344,1363,1383,1403,1425,1444,1464,1483,1504,1525,1545,1564,1583,1603,1625,1644,1664,1683,1705,1723,1744,1763,1784,1803,1824,1843,1865,1884,1904,1924,1945,1963,1984,2003,2025,2044,2064,2084,2103,2123,2144,2163,2185,2204,2225,2244,2265,2283,2304],"xSR":741.5,"ySR":573.95,"xT1":424.9,"yT1":0,"xT2":1058.1,"yT2":0,"toosoon":0,"cond_shown":"Congruent","ratio_trial":100,"L_num":2,"L_den":5,"R_num":11,"R_den":22,"correct_side":2,"subjID":"violetaespitiaalonso3","gender":"1","school":"4","age":"9"},{"start_time":1552073389906,"click_time":1552073391538,"finger_time":1552073391399,"fix_duration":1086.1524545633954,"trial":24,"RT":1493,"MT":139,"sideResp":2,"stimulus":[],"xmouse":[803,803,803,803,803,803,803,803,803,803,803,803,803,803,803,803,803,803,803,803,803,803,803,803,803,803,803,803,803,803,803,803,803,803,803,803,803,803,803,803,803,803,803,803,803,803,803,803,803,803,804,804,804,804,804,804,804,804,804,804,805,805,805,805,805,805,805,805,805,805,807,808,817,836,873,921,1007,1038,1063,1095,1117,1152],"ymouse":[590,590,591,591,591,591,591,591,591,591,591,591,591,591,591,591,591,591,591,591,591,591,591,591,591,591,591,591,591,591,591,591,591,591,591,591,591,591,591,591,591,591,591,591,591,591,591,591,591,591,592,592,592,592,592,592,592,592,592,592,592,592,592,592,592,592,592,592,592,592,592,591,584,574,547,507,388,323,257,198,142,59],"timestamp_mouse":[14,37,53,72,93,112,134,153,172,194,214,233,254,273,293,313,333,352,373,393,413,433,453,473,493,512,533,553,573,592,613,633,653,673,693,712,733,752,772,793,813,834,852,874,893,912,933,954,973,992,1012,1033,1054,1073,1093,1112,1133,1153,1174,1192,1213,1233,1254,1273,1293,1313,1334,1353,1374,1392,1413,1432,1454,1472,1493,1513,1533,1552,1574,1593,1613,1632],"xSR":741.5,"ySR":573.95,"xT1":424.9,"yT1":0,"xT2":1058.1,"yT2":0,"toosoon":0,"cond_shown":"Congruent","ratio_trial":200,"L_num":3,"L_den":12,"R_num":9,"R_den":20,"correct_side":2,"subjID":"violetaespitiaalonso3","gender":"1","school":"4","age":"9"},{"start_time":1552073395181,"click_time":1552073397419,"finger_time":1552073396798,"fix_duration":880.3593037119718,"trial":25,"RT":1617,"MT":621,"sideResp":1,"stimulus":[],"xmouse":[779,782,783,788,789,789,790,790,790,790,790,790,790,790,790,790,790,790,790,790,790,790,790,790,790,790,790,790,790,790,790,790,790,790,790,792,792,792,794,794,794,795,795,795,795,795,795,795,795,795,795,795,795,795,795,795,795,795,795,795,795,795,795,795,795,795,795,795,795,795,795,795,795,795,795,795,795,795,796,796,794,781,755,637,507,452,403,385,383,383,382,382,384,388,390,390,391,392,392,392,392,392,392,392,392,392,392,392,392,398,415,437],"ymouse":[617,614,613,610,610,609,609,609,609,609,609,609,609,609,609,609,609,609,609,609,609,609,609,609,609,609,609,609,609,609,609,609,609,609,609,609,609,609,609,609,609,609,609,609,609,609,609,609,609,609,609,609,609,609,609,609,609,609,609,609,609,609,609,609,609,609,609,609,609,609,609,609,609,609,609,609,609,609,600,577,526,434,290,0,0,0,0,0,0,0,0,4,13,34,41,44,46,48,49,49,49,49,49,49,49,49,49,49,49,49,49,49],"timestamp_mouse":[22,37,58,78,98,117,137,157,179,197,217,239,257,277,298,319,338,358,378,398,418,439,459,478,497,517,538,558,579,597,618,637,658,679,698,718,738,757,778,799,818,837,858,879,898,918,938,957,978,998,1018,1039,1058,1077,1098,1117,1139,1159,1178,1197,1217,1239,1258,1277,1297,1318,1338,1359,1377,1397,1418,1438,1459,1478,1497,1517,1539,1558,1577,1597,1617,1637,1657,1679,1698,1718,1737,1757,1778,1799,1819,1839,1859,1878,1897,1919,1938,1959,1978,1998,2017,2038,2058,2078,2098,2117,2138,2157,2178,2198,2218,2238],"xSR":741.5,"ySR":573.95,"xT1":424.9,"yT1":0,"xT2":1058.1,"yT2":0,"toosoon":0,"cond_shown":"Congruent","ratio_trial":200,"L_num":6,"L_den":15,"R_num":3,"R_den":15,"correct_side":1,"subjID":"violetaespitiaalonso3","gender":"1","school":"4","age":"9"},{"start_time":1552073398931,"click_time":1552073400739,"finger_time":1552073400560,"fix_duration":250,"trial":26,"RT":1629,"MT":179,"sideResp":1,"stimulus":[],"xmouse":[793,793,794,794,794,794,794,794,794,794,794,794,794,794,794,794,794,794,794,794,794,794,794,794,794,794,794,794,794,794,794,794,794,794,794,794,794,794,794,794,794,794,794,794,794,794,794,794,794,794,794,794,794,794,794,794,794,794,794,794,794,794,794,794,794,794,794,794,794,794,794,794,794,794,794,794,794,794,794,792,788,763,743,713,672,656,580,513,500,493,484],"ymouse":[663,660,658,658,658,658,658,658,658,658,658,658,658,658,658,658,658,658,658,658,658,658,658,658,658,658,658,658,658,658,658,658,658,658,658,658,658,658,658,658,658,658,658,658,658,658,658,658,658,658,658,658,658,658,658,658,658,658,658,658,658,658,658,658,658,658,658,658,658,658,658,658,658,658,658,658,658,658,650,641,624,542,464,396,327,305,210,132,115,104,94],"timestamp_mouse":[9,44,48,69,87,108,127,148,169,188,208,229,248,267,287,308,329,347,368,389,409,429,448,469,489,508,528,548,568,589,609,627,647,669,688,707,728,749,768,789,808,828,847,868,889,909,929,948,967,988,1009,1028,1047,1068,1089,1109,1127,1147,1168,1187,1207,1227,1249,1267,1287,1309,1327,1347,1368,1389,1407,1427,1449,1468,1489,1507,1528,1548,1567,1588,1608,1629,1647,1668,1687,1708,1728,1748,1768,1787,1808],"xSR":741.5,"ySR":573.95,"xT1":424.9,"yT1":0,"xT2":1058.1,"yT2":0,"toosoon":0,"cond_shown":"Congruent","ratio_trial":100,"L_num":2,"L_den":5,"R_num":6,"R_den":12,"correct_side":2,"subjID":"violetaespitiaalonso3","gender":"1","school":"4","age":"9"},{"start_time":1552073403140,"click_time":1552073406778,"finger_time":1552073405579,"fix_duration":339.55759888534385,"trial":27,"RT":2439,"MT":1199,"sideResp":2,"stimulus":[],"xmouse":[767,768,768,768,768,768,768,768,769,770,770,770,770,770,771,771,771,771,771,771,771,771,775,782,786,786,786,786,786,787,787,787,787,787,787,787,787,787,787,787,787,787,787,787,787,787,787,787,787,787,787,787,787,787,787,787,787,787,787,787,787,787,787,787,787,787,787,787,787,787,787,787,787,787,787,787,787,787,787,787,789,789,789,789,789,789,789,789,789,789,789,789,789,789,789,789,789,789,789,789,789,789,789,789,789,789,789,789,789,789,789,789,789,789,789,789,789,791,796,801,811,832,868,888,905,920,933,934,935,935,935,939,940,941,941,941,941,941,941,941,941,943,945,945,945,945,947,947,948,948,948,951,953,953,953,953,957,983,1031,1091,1150,1228,1246,1249,1253,1257,1260,1262,1262,1260,1258,1257,1253,1250,1247,1245,1244,1237,1222,1197,1173,1141],"ymouse":[619,619,620,620,620,620,620,620,620,622,622,622,622,622,622,622,622,622,622,622,622,622,622,622,622,622,622,622,622,622,622,622,622,622,622,622,622,622,622,622,622,622,622,622,622,622,622,622,622,622,622,622,622,622,622,622,622,622,622,622,622,622,622,622,622,622,622,622,622,622,622,622,622,622,622,622,622,622,622,622,619,618,617,617,617,617,617,617,617,617,617,617,617,617,617,617,617,617,617,617,617,617,617,617,617,617,617,617,617,617,616,616,616,616,616,616,616,612,606,600,591,573,545,532,518,504,484,479,475,472,470,464,460,456,452,450,449,449,448,446,438,408,376,354,339,332,327,322,314,299,275,267,264,264,264,264,260,249,228,210,188,162,147,138,128,114,100,81,75,71,69,67,64,63,63,63,63,63,65,71,77,85],"timestamp_mouse":[18,43,60,79,99,118,140,159,179,200,218,238,260,278,299,319,340,359,379,400,419,439,459,478,498,520,538,558,580,600,619,639,659,679,699,718,740,759,779,799,820,838,858,879,898,919,939,958,979,998,1018,1040,1060,1078,1098,1120,1140,1159,1178,1198,1220,1240,1259,1278,1298,1320,1339,1360,1379,1399,1419,1439,1459,1479,1498,1519,1539,1558,1579,1598,1619,1638,1659,1680,1698,1718,1738,1759,1779,1799,1820,1838,1858,1879,1900,1919,1938,1960,1979,2000,2018,2038,2059,2079,2098,2119,2140,2159,2179,2198,2220,2240,2260,2278,2299,2318,2340,2358,2378,2405,2420,2439,2460,2479,2500,2519,2539,2558,2579,2599,2618,2639,2660,2678,2698,2718,2738,2759,2779,2798,2818,2839,2858,2878,2899,2919,2938,2958,2978,2998,3022,3039,3058,3078,3099,3118,3139,3158,3179,3199,3218,3239,3258,3279,3299,3319,3339,3359,3379,3399,3418,3438,3458,3479,3500,3520,3539,3559,3578,3599,3618,3638],"xSR":741.5,"ySR":573.95,"xT1":424.9,"yT1":0,"xT2":1058.1,"yT2":0,"toosoon":0,"cond_shown":"Congruent","ratio_trial":100,"L_num":12,"L_den":30,"R_num":13,"R_den":26,"correct_side":2,"subjID":"violetaespitiaalonso3","gender":"1","school":"4","age":"9"},{"start_time":1552073417152,"click_time":1552073419058,"finger_time":1552073418659,"fix_duration":1090.7237981506646,"trial":28,"RT":1507,"MT":399,"sideResp":2,"stimulus":[],"xmouse":[753,753,753,753,753,753,753,753,754,756,759,760,761,762,762,762,762,762,762,762,762,763,764,764,764,764,764,764,764,764,764,764,764,765,765,765,765,765,765,765,765,765,765,765,765,765,765,765,765,765,765,765,765,765,765,765,765,765,765,765,765,765,765,765,765,765,765,765,765,765,772,784,807,820,839,887,966,997,998,986,926,879,828,828,808,808,808,808,813,822,840,860,906,945,1040,1111],"ymouse":[626,626,626,626,626,626,626,626,626,626,628,628,628,628,628,628,628,628,628,628,628,629,630,630,630,630,630,630,630,630,630,630,630,630,630,630,630,630,630,630,630,630,630,630,630,630,630,630,630,630,630,630,630,630,630,634,637,638,639,639,639,639,640,642,643,643,643,643,643,643,643,638,625,614,600,557,450,352,110,49,0,0,0,0,0,0,0,0,1,3,6,11,25,36,54,64],"timestamp_mouse":[10,37,48,68,88,107,127,146,167,187,206,226,246,268,287,307,327,347,368,387,408,427,447,467,486,507,526,548,568,587,607,626,648,667,687,708,728,747,768,788,806,827,848,867,887,906,927,948,968,988,1007,1027,1046,1066,1087,1106,1127,1147,1167,1186,1208,1226,1246,1266,1287,1306,1326,1346,1368,1386,1407,1427,1448,1466,1486,1507,1527,1547,1567,1586,1606,1627,1647,1667,1686,1706,1726,1746,1768,1788,1808,1828,1848,1866,1886,1906],"xSR":741.5,"ySR":573.95,"xT1":424.9,"yT1":0,"xT2":1058.1,"yT2":0,"toosoon":0,"cond_shown":"Incongruent","ratio_trial":200,"L_num":1,"L_den":3,"R_num":2,"R_den":15,"correct_side":1,"subjID":"violetaespitiaalonso3","gender":"1","school":"4","age":"9"},{"start_time":1552073429641,"click_time":1552073432139,"finger_time":1552073431379,"fix_duration":839.1412004940746,"trial":29,"RT":1738,"MT":760,"sideResp":2,"stimulus":[],"xmouse":[799,799,799,799,799,799,799,799,799,799,799,799,799,799,799,799,799,799,799,799,799,799,799,799,799,799,799,799,799,799,799,799,799,799,799,799,799,799,799,799,799,799,799,799,799,799,799,799,799,799,799,799,799,799,799,799,799,799,799,799,799,799,799,799,799,799,799,799,799,799,799,799,799,799,799,799,799,799,799,799,799,799,799,799,799,823,847,873,903,990,1052,1121,1197,1250,1316,1327,1327,1327,1328,1332,1332,1327,1322,1317,1284,1254,1222,1200,1187,1183,1182,1182,1182,1182,1180,1179,1179,1177,1176,1176,1175,1173,1169,1163,1157],"ymouse":[615,615,615,615,615,615,615,615,615,615,615,615,615,615,615,615,615,615,615,615,615,615,615,615,615,615,615,615,615,615,615,615,615,615,615,615,615,615,615,615,615,615,615,615,615,615,615,615,615,615,615,615,615,615,615,615,615,615,615,615,615,615,615,615,615,615,615,615,615,615,615,615,615,615,615,615,615,615,615,615,615,615,615,615,615,615,618,620,620,574,494,384,248,117,0,0,0,0,0,0,0,0,0,0,6,27,53,73,82,85,86,86,86,86,77,71,62,58,58,57,57,57,59,64,70],"timestamp_mouse":[18,42,57,79,98,117,138,157,179,197,219,238,258,278,298,317,339,359,377,399,417,438,459,478,498,519,539,557,577,598,618,638,657,677,699,718,739,758,778,798,818,837,858,878,898,917,939,959,979,998,1018,1038,1059,1078,1098,1117,1139,1159,1178,1198,1218,1238,1258,1278,1298,1319,1338,1358,1378,1399,1418,1437,1457,1479,1498,1517,1538,1558,1578,1598,1619,1638,1657,1679,1699,1718,1738,1757,1778,1797,1817,1838,1857,1878,1898,1917,1937,1958,1977,1999,2017,2038,2057,2077,2099,2117,2139,2158,2178,2197,2218,2238,2258,2277,2299,2317,2338,2357,2377,2398,2417,2437,2457,2478,2498],"xSR":741.5,"ySR":573.95,"xT1":424.9,"yT1":0,"xT2":1058.1,"yT2":0,"toosoon":0,"cond_shown":"Congruent","ratio_trial":200,"L_num":3,"L_den":10,"R_num":14,"R_den":28,"correct_side":2,"subjID":"violetaespitiaalonso3","gender":"1","school":"4","age":"9"},{"start_time":1552073438096,"click_time":1552073440319,"finger_time":1552073439498,"fix_duration":1156.533675933011,"trial":30,"RT":1402,"MT":821,"sideResp":2,"stimulus":[],"xmouse":[763,763,763,763,763,763,763,763,763,763,763,763,763,763,763,763,763,763,763,763,763,763,763,763,764,764,764,764,764,764,764,764,764,764,764,764,764,764,764,764,764,764,764,764,764,764,764,764,764,764,764,764,764,764,764,764,764,764,764,764,764,766,767,770,770,770,770,770,770,770,770,770,770,790,813,833,859,879,935,973,983,992,998,1013,1028,1046,1066,1097,1110,1149,1151,1152,1158,1170,1173,1178,1179,1180,1180,1180,1180,1180,1180,1180,1180,1180,1180,1180,1180,1165,1160,1157],"ymouse":[610,610,610,610,610,610,610,610,610,610,610,610,610,610,610,610,610,610,610,610,610,610,610,610,611,612,612,612,612,612,612,612,612,612,612,612,612,612,612,612,612,612,612,612,612,612,612,612,612,612,612,612,612,612,612,612,612,612,612,612,612,611,610,604,604,604,604,604,603,591,555,471,376,193,129,88,51,22,0,0,0,0,0,0,0,0,0,0,0,0,0,0,0,0,0,0,0,0,0,0,0,0,0,0,0,0,0,0,0,4,5,6],"timestamp_mouse":[11,23,42,64,84,103,123,142,162,183,202,223,243,262,283,304,322,342,364,383,403,424,442,462,483,502,524,544,562,583,603,624,642,663,683,703,723,743,764,783,803,824,843,863,882,904,924,943,962,982,1002,1023,1044,1064,1083,1102,1122,1144,1163,1182,1202,1223,1243,1262,1283,1302,1322,1342,1363,1383,1402,1423,1442,1462,1482,1504,1523,1543,1563,1582,1603,1622,1642,1663,1682,1702,1723,1743,1763,1783,1804,1823,1844,1864,1883,1902,1922,1943,1963,1983,2004,2023,2043,2063,2083,2102,2124,2143,2162,2182,2203,2222],"xSR":741.5,"ySR":573.95,"xT1":424.9,"yT1":0,"xT2":1058.1,"yT2":0,"toosoon":0,"cond_shown":"Congruent","ratio_trial":100,"L_num":6,"L_den":12,"R_num":15,"R_den":25,"correct_side":2,"subjID":"violetaespitiaalonso3","gender":"1","school":"4","age":"9"},{"start_time":1552073442411,"click_time":1552073444359,"finger_time":1552073443479,"fix_duration":250,"trial":31,"RT":1068,"MT":880,"sideResp":1,"stimulus":[],"xmouse":[802,802,802,802,802,802,802,802,802,802,802,802,802,802,802,802,802,802,802,802,802,802,802,802,802,802,802,802,802,802,802,802,802,802,802,802,802,802,802,802,802,802,802,802,802,802,800,787,783,782,778,774,770,750,747,747,746,746,745,743,738,730,719,663,595,490,354,222,55,30,25,25,25,92,135,179,210,231,254,272,277,284,287,296,309,326,345,358,363,363,363,366,371,385,394,405,417,457],"ymouse":[639,639,639,639,639,639,639,639,639,639,639,639,639,639,639,639,639,639,639,639,639,639,639,639,639,639,639,639,639,639,639,639,639,639,639,639,639,639,639,639,639,639,639,639,639,639,633,617,614,613,610,606,600,564,562,562,562,562,559,553,540,527,512,474,455,423,378,343,259,237,228,227,225,198,157,67,0,0,0,0,0,0,0,0,0,0,0,0,0,0,0,0,2,10,14,17,19,24],"timestamp_mouse":[10,41,48,67,88,108,129,148,168,188,208,228,249,269,287,309,329,348,367,388,409,429,447,468,488,509,528,548,567,589,608,628,647,669,689,708,729,748,767,788,808,828,848,869,888,908,927,948,968,989,1009,1028,1048,1068,1087,1108,1128,1148,1167,1188,1208,1229,1248,1268,1287,1307,1327,1347,1367,1389,1407,1428,1448,1468,1487,1507,1528,1548,1567,1587,1607,1627,1649,1668,1687,1707,1727,1749,1768,1789,1808,1828,1849,1868,1888,1908,1929,1948],"xSR":741.5,"ySR":573.95,"xT1":424.9,"yT1":0,"xT2":1058.1,"yT2":0,"toosoon":0,"cond_shown":"Congruent","ratio_trial":300,"L_num":18,"L_den":20,"R_num":9,"R_den":15,"correct_side":1,"subjID":"violetaespitiaalonso3","gender":"1","school":"4","age":"9"},{"start_time":1552073452132,"click_time":1552073454660,"finger_time":1552073454100,"fix_duration":250,"trial":32,"RT":1968,"MT":560,"sideResp":2,"stimulus":[],"xmouse":[797,797,797,797,797,797,797,797,797,797,797,797,797,797,797,797,797,797,797,797,797,797,797,797,797,797,797,797,797,797,797,797,797,797,797,797,797,797,797,797,797,797,797,797,797,799,805,815,824,824,824,824,826,826,826,826,826,826,826,826,826,826,826,826,826,826,826,826,826,826,826,826,826,826,826,826,826,826,826,826,826,826,826,826,826,826,826,826,826,826,826,825,820,812,806,800,790,781,766,760,751,747,746,746,746,746,748,759,809,858,908,982,1037,1157,1213,1247,1267,1286,1291,1291,1285,1274,1258,1220,1197,1170,1148],"ymouse":[609,609,609,609,609,609,609,609,609,609,609,609,609,609,609,609,609,609,609,609,609,609,609,609,609,609,609,609,609,609,609,609,609,609,609,609,609,609,609,609,609,609,609,609,609,609,610,615,619,619,619,619,623,626,626,626,626,626,626,626,626,626,626,626,626,626,626,626,626,626,626,626,626,626,626,626,626,626,626,626,626,626,626,626,626,626,626,626,626,626,625,622,615,605,598,592,583,575,563,558,548,544,542,542,541,538,532,521,477,444,419,387,360,264,212,180,163,137,122,104,76,60,42,20,14,8,5],"timestamp_mouse":[12,47,47,69,87,107,129,147,168,189,208,228,249,267,288,309,329,348,367,388,409,428,448,469,488,507,529,549,569,588,609,629,649,667,688,707,728,748,767,789,808,827,847,868,889,908,928,948,968,987,1008,1029,1048,1068,1088,1107,1128,1148,1167,1189,1209,1229,1249,1267,1288,1309,1327,1347,1367,1389,1408,1429,1448,1468,1489,1509,1528,1547,1568,1589,1609,1628,1648,1667,1689,1709,1728,1749,1768,1788,1808,1828,1848,1868,1888,1908,1928,1949,1968,1987,2008,2027,2048,2069,2088,2108,2128,2149,2169,2187,2207,2228,2247,2268,2288,2308,2328,2349,2368,2389,2407,2428,2448,2468,2488,2507,2528],"xSR":741.5,"ySR":573.95,"xT1":424.9,"yT1":0,"xT2":1058.1,"yT2":0,"toosoon":0,"cond_shown":"Congruent","ratio_trial":100,"L_num":1,"L_den":2,"R_num":3,"R_den":5,"correct_side":2,"subjID":"violetaespitiaalonso3","gender":"1","school":"4","age":"9"},{"start_time":1552073456631,"click_time":1552073461499,"finger_time":1552073461440,"fix_duration":649.0744643251771,"trial":33,"RT":4809,"MT":59,"sideResp":1,"stimulus":[],"xmouse":[804,804,804,804,804,804,804,804,804,804,804,804,804,804,804,804,804,804,804,804,804,804,804,804,804,804,804,804,804,804,804,804,804,804,804,804,804,804,804,804,804,804,804,804,804,804,804,804,804,804,804,804,804,804,804,804,804,804,804,804,804,804,804,804,804,804,804,804,804,804,804,804,804,804,804,804,804,804,804,804,804,804,804,804,804,804,804,804,804,804,804,804,804,804,804,804,804,804,804,804,804,804,804,804,804,804,804,804,804,804,804,804,804,804,804,804,804,804,804,804,804,804,804,804,804,804,804,804,804,804,804,804,804,804,804,804,804,804,804,804,804,804,804,804,804,804,804,804,804,804,804,804,804,804,804,804,804,804,804,804,804,804,804,804,804,804,804,804,804,804,804,804,804,804,804,804,804,804,804,804,804,804,804,804,804,804,804,804,804,804,804,804,804,804,804,804,804,804,804,804,804,804,804,804,804,804,804,804,804,804,804,804,804,804,804,804,804,804,804,804,804,804,804,804,804,804,804,804,804,804,804,804,804,804,804,804,804,804,804,798,764,649,542,483],"ymouse":[625,625,625,625,625,625,625,625,625,625,625,625,625,625,625,625,625,625,625,625,625,625,625,625,625,625,625,625,625,625,625,625,625,625,625,625,625,625,625,625,625,625,625,625,625,625,625,625,625,625,625,625,625,625,625,625,625,625,625,625,625,625,625,625,625,625,625,625,625,625,625,625,625,625,625,625,625,625,625,625,625,625,625,625,625,625,625,625,625,625,625,625,625,625,625,625,625,625,625,625,625,625,625,625,625,625,625,625,625,625,625,625,625,625,625,625,625,625,625,625,625,625,625,625,625,625,625,625,625,625,625,625,625,625,625,625,625,625,625,625,625,625,625,625,625,625,625,625,625,625,625,625,625,625,625,625,625,625,625,625,625,625,625,625,625,625,625,625,625,625,625,625,625,625,625,625,625,625,625,625,625,625,625,625,625,625,625,625,625,625,625,625,625,625,625,625,625,625,625,625,625,625,625,625,625,625,625,625,625,625,625,625,625,625,625,625,625,625,625,625,625,625,625,625,625,625,625,625,625,625,625,625,625,625,625,625,625,625,624,605,540,334,157,68],"timestamp_mouse":[9,38,49,70,89,109,130,148,168,190,209,230,249,268,288,310,330,349,370,388,409,428,449,469,490,509,529,550,570,589,609,629,650,670,689,709,728,750,770,789,809,830,849,869,889,910,930,949,968,988,1009,1029,1049,1069,1088,1108,1130,1150,1169,1189,1209,1230,1250,1270,1289,1310,1329,1349,1370,1390,1408,1428,1450,1470,1488,1510,1530,1549,1568,1590,1609,1630,1648,1669,1689,1709,1730,1749,1769,1790,1809,1829,1849,1870,1889,1909,1928,1950,1970,1989,2009,2029,2049,2070,2090,2110,2129,2148,2169,2190,2210,2230,2249,2270,2288,2309,2329,2350,2370,2390,2409,2429,2450,2470,2488,2510,2530,2549,2569,2588,2608,2629,2650,2669,2690,2710,2729,2749,2770,2789,2810,2828,2849,2869,2889,2910,2930,2950,2969,2989,3008,3030,3050,3068,3089,3110,3129,3150,3169,3189,3210,3229,3250,3268,3288,3309,3329,3350,3370,3390,3409,3430,3449,3470,3490,3510,3529,3550,3568,3590,3609,3630,3650,3669,3689,3708,3728,3748,3769,3789,3809,3830,3849,3870,3890,3909,3928,3950,3969,3989,4009,4030,4050,4069,4088,4110,4128,4149,4170,4190,4209,4229,4250,4269,4289,4310,4329,4349,4369,4389,4410,4429,4448,4469,4488,4510,4529,4550,4569,4590,4608,4629,4648,4670,4689,4708,4728,4748,4769,4788,4809,4828,4849,4868],"xSR":741.5,"ySR":573.95,"xT1":424.9,"yT1":0,"xT2":1058.1,"yT2":0,"toosoon":0,"cond_shown":"Incongruent","ratio_trial":200,"L_num":14,"L_den":30,"R_num":6,"R_den":9,"correct_side":2,"subjID":"violetaespitiaalonso3","gender":"1","school":"4","age":"9"},{"start_time":1552073463671,"click_time":1552073469120,"finger_time":1552073464680,"fix_duration":250,"trial":34,"RT":1009,"MT":4440,"sideResp":1,"stimulus":[],"xmouse":[818,818,818,818,818,818,818,818,818,818,818,817,817,816,814,813,811,811,811,811,811,811,811,811,811,811,811,811,811,811,811,811,811,811,811,811,811,811,810,804,797,791,783,781,779,777,774,761,753,745,734,718,668,641,619,600,584,573,569,569,569,573,610,654,744,874,1030,1219,1223,1223,1223,1223,1221,1216,1202,1190,1185,1182,1182,1182,1182,1180,1162,1142,1103,1029,913,523,415,349,331,330,330,330,329,329,329,329,329,329,329,329,341,370,433,544,687,1174,1376,1535,1535,1535,1535,1582,1574,1567,1558,1542,1540,1538,1534,1527,1512,1493,1464,1386,1279,873,662,446,251,135,82,82,82,82,82,82,82,82,82,82,82,82,82,83,83,157,286,519,833,1192,1526,1526,1526,1526,1555,1469,1437,1418,1413,1406,1399,1389,1367,1317,1238,847,641,442,272,167,94,93,93,93,93,93,90,90,90,90,90,90,90,90,90,90,90,90,90,91,136,199,270,339,418,651,755,834,886,927,963,965,965,965,965,965,966,970,977,981,986,986,986,986,986,982,958,901,814,701,408,257,134,50,28,26,26,30,35,39,42,46,50,52,59,73,93,104,115,124,143,152,168,184,200,224,235,242,250,258,270,294,310,327,343,363,388,395,404,408,411,411,411,411,411,411,412,413,414,415,440],"ymouse":[629,629,629,629,629,629,629,629,629,629,629,627,627,624,620,617,616,616,616,616,616,616,616,616,616,616,616,616,616,616,616,616,616,616,616,616,616,616,616,616,614,613,610,609,608,607,606,603,602,601,599,596,588,585,581,578,575,572,571,571,570,567,562,562,560,560,560,532,526,526,525,525,525,525,526,526,527,527,527,527,527,527,523,519,516,516,516,509,507,507,507,507,507,507,507,507,507,507,507,507,507,507,504,499,489,471,455,439,439,439,439,439,439,431,429,428,426,425,425,424,423,423,422,422,422,422,427,479,485,492,494,494,494,494,494,494,494,494,494,494,494,494,494,494,494,494,494,482,447,396,339,317,317,317,317,317,371,371,376,378,379,382,383,385,386,386,386,420,434,452,473,487,493,493,493,493,493,493,493,493,493,493,493,493,493,493,493,493,493,493,493,493,493,483,471,459,445,409,401,399,399,399,399,399,399,399,399,399,399,397,393,391,389,389,389,389,389,389,391,400,409,425,433,433,428,418,413,412,409,400,387,376,359,348,339,332,324,305,275,263,252,244,229,221,212,202,194,181,175,170,164,158,149,129,117,102,88,68,46,37,29,26,24,24,24,24,24,24,24,24,25,26,29],"timestamp_mouse":[10,44,50,70,88,110,129,148,170,190,208,229,249,269,289,309,330,350,370,389,409,429,449,468,490,508,529,548,570,590,608,630,650,668,690,709,729,748,769,789,810,829,849,869,889,909,930,949,968,989,1009,1029,1049,1070,1089,1108,1128,1148,1169,1189,1210,1230,1248,1268,1289,1308,1329,1349,1370,1389,1409,1429,1449,1469,1490,1508,1529,1548,1570,1590,1610,1629,1648,1670,1690,1709,1730,1749,1770,1789,1809,1829,1849,1868,1889,1909,1929,1950,1970,1990,2009,2030,2049,2069,2090,2108,2129,2148,2168,2189,2210,2229,2250,2268,2290,2310,2330,2349,2370,2389,2410,2430,2449,2470,2490,2510,2530,2548,2568,2588,2609,2630,2648,2669,2690,2710,2729,2749,2769,2790,2808,2829,2850,2870,2889,2908,2929,2949,2969,2989,3009,3030,3049,3068,3089,3110,3130,3148,3169,3190,3209,3230,3249,3268,3290,3309,3329,3349,3369,3388,3410,3429,3449,3470,3488,3508,3529,3548,3569,3589,3609,3629,3649,3670,3690,3710,3730,3748,3769,3788,3810,3828,3850,3869,3889,3909,3929,3949,3968,3989,4008,4029,4049,4068,4090,4110,4129,4149,4170,4189,4209,4229,4249,4269,4290,4309,4330,4349,4369,4389,4410,4429,4449,4468,4490,4508,4528,4548,4568,4588,4610,4629,4649,4669,4690,4710,4729,4749,4770,4789,4809,4830,4849,4869,4889,4910,4929,4949,4968,4989,5008,5029,5048,5068,5089,5109,5130,5150,5168,5189,5209,5230,5249,5270,5288,5309,5329,5350,5369,5390,5409,5429,5449],"xSR":741.5,"ySR":573.95,"xT1":424.9,"yT1":0,"xT2":1058.1,"yT2":0,"toosoon":0,"cond_shown":"Congruent","ratio_trial":100,"L_num":15,"L_den":25,"R_num":13,"R_den":26,"correct_side":1,"subjID":"violetaespitiaalonso3","gender":"1","school":"4","age":"9"},{"start_time":1552073471100,"click_time":1552073473420,"finger_time":1552073472439,"fix_duration":457.7125655007398,"trial":35,"RT":1339,"MT":981,"sideResp":1,"stimulus":[],"xmouse":[797,797,797,797,797,797,797,797,797,797,797,797,797,797,797,797,797,797,797,797,797,797,797,797,797,797,797,797,797,797,797,797,797,797,797,797,797,797,797,797,797,797,797,797,797,797,797,797,797,797,797,797,797,797,797,797,797,797,797,797,797,800,801,802,802,803,803,803,803,804,806,801,764,759,750,749,749,738,734,730,728,727,721,715,701,688,675,664,663,663,661,658,652,651,651,651,651,644,640,636,630,625,616,609,598,595,591,589,586,582,582,575,565,559,551,537,523],"ymouse":[648,648,648,648,648,648,648,648,648,648,648,648,648,648,648,648,648,648,648,648,648,648,648,648,648,648,648,648,648,648,648,648,648,648,648,648,648,648,648,648,648,648,648,648,648,648,648,648,648,648,648,648,648,648,648,648,648,648,648,646,644,635,632,626,623,615,608,572,510,394,266,162,35,25,13,12,12,18,22,26,28,30,37,43,52,59,64,67,67,67,67,67,63,62,62,62,62,62,62,62,62,62,64,65,65,65,65,64,63,62,62,62,60,60,60,60,60],"timestamp_mouse":[12,21,40,61,81,100,120,141,161,180,201,221,240,259,281,300,320,339,361,380,400,420,440,461,481,500,519,539,560,580,599,621,641,661,680,700,719,740,760,780,800,820,841,861,881,899,919,940,960,979,1000,1021,1041,1059,1080,1100,1121,1141,1159,1181,1200,1221,1240,1259,1280,1301,1320,1339,1359,1380,1399,1421,1439,1461,1480,1501,1520,1539,1560,1581,1600,1620,1639,1660,1680,1700,1720,1739,1761,1781,1800,1821,1840,1860,1879,1899,1919,1939,1959,1979,2000,2021,2039,2060,2080,2100,2120,2139,2160,2180,2199,2221,2239,2260,2279,2300,2320],"xSR":741.5,"ySR":573.95,"xT1":424.9,"yT1":0,"xT2":1058.1,"yT2":0,"toosoon":0,"cond_shown":"Congruent","ratio_trial":300,"L_num":24,"L_den":30,"R_num":8,"R_den":16,"correct_side":1,"subjID":"violetaespitiaalonso3","gender":"1","school":"4","age":"9"},{"start_time":1552073475592,"click_time":1552073477300,"finger_time":1552073476540,"fix_duration":909.7138825667992,"trial":36,"RT":948,"MT":760,"sideResp":1,"stimulus":[],"xmouse":[745,745,745,745,745,745,745,745,745,745,745,745,745,745,745,745,745,745,745,745,745,745,745,745,745,745,745,745,745,745,745,745,745,745,747,748,749,749,749,749,749,749,749,749,749,749,746,725,714,703,690,682,670,664,660,655,647,625,617,609,601,594,585,564,555,546,538,515,506,496,491,486,483,483,482,482,481,481,477,476,476,476,476,476,475,475],"ymouse":[652,652,652,652,652,652,652,652,652,652,652,652,652,652,652,652,652,652,652,652,652,652,652,652,652,652,652,652,652,652,652,652,652,652,652,650,649,648,648,647,647,647,647,647,646,643,636,607,587,566,545,529,504,494,484,470,457,423,411,403,391,381,369,344,332,320,309,267,247,230,217,212,207,205,203,202,201,194,168,152,137,125,112,107,102,99],"timestamp_mouse":[12,35,48,69,87,107,128,147,168,188,207,229,249,268,287,307,329,347,369,389,409,429,449,468,489,508,529,548,569,588,608,628,648,669,688,709,728,748,769,788,807,828,848,868,889,908,927,948,969,988,1008,1027,1047,1068,1088,1108,1128,1147,1167,1187,1209,1227,1247,1269,1288,1308,1328,1348,1367,1388,1409,1429,1448,1467,1488,1508,1528,1547,1567,1587,1609,1627,1648,1668,1688,1708],"xSR":741.5,"ySR":573.95,"xT1":424.9,"yT1":0,"xT2":1058.1,"yT2":0,"toosoon":0,"cond_shown":"Incongruent","ratio_trial":200,"L_num":4,"L_den":5,"R_num":6,"R_den":10,"correct_side":1,"subjID":"violetaespitiaalonso3","gender":"1","school":"4","age":"9"},{"start_time":1552073479592,"click_time":1552073481820,"finger_time":1552073481280,"fix_duration":1090.4811205813558,"trial":37,"RT":1688,"MT":540,"sideResp":1,"stimulus":[],"xmouse":[772,772,772,772,772,772,772,772,772,772,772,772,772,772,772,772,772,773,773,773,773,773,773,773,773,773,773,773,773,773,773,773,773,773,773,773,773,773,773,773,773,773,773,773,773,773,773,773,773,773,773,773,773,773,773,773,773,773,773,773,773,773,773,773,773,773,773,773,773,773,773,773,773,773,773,773,773,773,773,773,773,773,773,765,740,725,671,636,596,590,589,589,588,587,586,585,577,569,550,543,539,536,531,524,522,521,519,519,518,518,510,494],"ymouse":[598,598,598,598,598,598,598,598,598,598,598,598,598,598,598,597,595,590,590,590,590,590,590,590,590,590,590,590,590,590,590,590,590,590,590,590,590,590,590,590,590,590,590,590,590,590,590,590,590,590,590,590,590,590,590,590,590,590,590,590,590,590,590,590,590,590,590,590,590,590,590,590,590,590,590,590,590,590,590,590,590,590,588,577,542,520,441,398,352,343,338,334,333,329,328,326,318,310,290,282,277,272,265,255,251,250,247,244,217,173,121,76],"timestamp_mouse":[10,40,48,68,88,107,128,149,169,189,208,229,248,268,288,308,329,348,369,388,409,427,448,468,488,509,529,547,569,588,609,627,647,669,689,709,728,749,769,789,809,827,849,869,888,907,929,947,968,989,1009,1028,1048,1067,1089,1109,1129,1147,1169,1189,1208,1228,1248,1268,1289,1308,1327,1348,1369,1388,1409,1428,1449,1469,1488,1508,1529,1548,1569,1589,1608,1629,1648,1667,1688,1708,1729,1748,1769,1787,1808,1827,1848,1868,1889,1908,1928,1948,1968,1987,2008,2028,2049,2068,2089,2108,2128,2148,2167,2187,2207,2228],"xSR":741.5,"ySR":573.95,"xT1":424.9,"yT1":0,"xT2":1058.1,"yT2":0,"toosoon":0,"cond_shown":"Incongruent","ratio_trial":300,"L_num":3,"L_den":6,"R_num":4,"R_den":20,"correct_side":1,"subjID":"violetaespitiaalonso3","gender":"1","school":"4","age":"9"},{"start_time":1552073483884,"click_time":1552073507881,"finger_time":1552073486260,"fix_duration":502.1639686878944,"trial":38,"RT":2376,"MT":21621,"sideResp":1,"stimulus":[],"xmouse":[763,763,763,763,763,763,763,763,763,763,763,763,763,763,763,763,763,763,763,763,763,763,763,763,763,763,763,763,763,763,763,763,763,763,763,763,763,763,763,763,763,763,763,763,763,763,763,763,763,763,763,763,763,763,763,763,763,763,763,763,763,765,768,771,777,778,779,779,779,780,780,780,780,780,780,780,780,780,780,780,780,780,780,780,780,780,779,778,778,778,778,778,780,783,786,786,787,787,787,787,787,787,787,787,787,787,787,787,787,787,787,787,787,787,788,793,796,797,799,799,799,799,799,798,796,793,788,785,783,783,783,779,768,744,636,552,464,375,304,295,295,295,295,299,320,352,415,539,742,870,999,1111,1212,1291,1372,1374,1374,1374,1374,1372,1370,1369,1362,1344,1230,1143,971,852,744,627,586,526,450,366,268,260,260,260,259,272,291,314,342,475,589,739,903,1071,1292,1433,1434,1434,1434,1433,1432,1432,1431,1428,1423,1386,1340,1280,1206,1025,925,819,665,562,478,385,372,370,370,370,370,370,370,370,370,373,380,398,425,482,704,873,1149,1309,1444,1568,1569,1569,1569,1569,1568,1568,1565,1548,1519,1356,1210,1027,844,687,522,503,499,499,499,492,487,484,483,483,483,483,483,483,486,510,539,583,642,705,851,968,1055,1142,1223,1362,1396,1407,1408,1409,1409,1409,1409,1409,1409,1409,1409,1409,1408,1408,1378,1336,1306,1265,1191,911,730,568,452,399,387,387,387,387,387,387,387,387,387,387,387,387,387,387,387,387,387,387,387,387,387,387,387,387,387,386,386,386,386,386,386,386,386,388,392,417,419,419,419,422,426,426,426,426,426,426,426,426,427,429,429,429,430,430,430,430,430,434,441,464,596,786,955,1125,1296,1575,1575,1575,1575,1575,1575,1575,1575,1575,1579,1551,1526,1491,1429,1350,1108,801,558,334,178,61,61,61,61,61,61,61,64,76,98,226,323,437,561,693,955,1079,1265,1349,1389,1395,1395,1395,1392,1392,1312,1240,1156,1045,905,575,413,294,209,140,69,61,61,61,61,61,61,61,61,61,61,61,63,67,82,141,201,282,378,505,884,1047,1189,1316,1403,1430,1430,1427,1422,1417,1416,1416,1415,1414,1414,1414,1414,1414,1413,1412,1411,1411,1411,1411,1411,1411,1411,1411,1411,1411,1411,1411,1411,1411,1411,1411,1410,1410,1410,1410,1410,1410,1410,1409,1409,1407,1401,1373,1292,1165,835,598,484,424,406,404,404,404,404,404,404,404,404,404,404,404,404,404,404,404,404,404,404,404,404,404,404,404,404,404,404,404,404,409,427,536,619,713,806,906,1164,1242,1305,1339,1348,1348,1348,1348,1348,1348,1348,1348,1348,1348,1348,1348,1347,1347,1346,1346,1346,1346,1346,1346,1346,1346,1346,1346,1346,1346,1346,1346,1344,1342,1336,1331,1330,1330,1329,1329,1327,1327,1327,1327,1327,1327,1326,1325,1323,1323,1323,1323,1323,1323,1323,1323,1323,1323,1323,1322,1320,1310,1304,1294,1279,1245,1235,1230,1230,1229,1229,1229,1229,1229,1228,1225,1224,1224,1224,1224,1224,1224,1224,1224,1224,1224,1217,1202,1164,992,846,686,683,685,690,717,737,758,819,903,1158,1264,1321,1331,1331,1331,1331,1331,1331,1331,1331,1332,1322,1296,1273,1210,1113,951,617,433,337,337,347,382,471,590,850,974,1205,1392,1392,1392,1392,1392,1392,1392,1541,1483,1402,1221,1065,682,504,372,322,323,388,539,917,1076,1532,1532,1582,1512,1403,1030,779,464,23,0,0,0,0,0,0,0,0,0,0,0,0,0,0,0,0,0,0,0,0,0,0,0,0,0,0,0,0,0,0,1,2,2,2,2,0,0,0,0,0,0,0,0,2,9,18,28,35,35,35,9,0,0,0,0,0,0,75,99,144,193,232,358,450,540,590,597,597,597,593,579,565,553,550,544,536,530,529,529,529,529,529,529,529,529,529,529,531,596,729,913,1129,1520,1520,1520,1520,1520,1520,1520,1581,1579,1571,1526,1493,1457,1422,1372,1367,1367,1367,1367,1367,1367,1367,1367,1367,1367,1367,1367,1367,1367,1367,1367,1367,1367,1367,1367,1367,1367,1367,1367,1367,1367,1367,1367,1367,1367,1359,1323,1234,1039,906,760,729,702,664,621,533,484,468,465,464,464,464,464,464,464,464,464,464,464,464,464,466,471,486,510,601,666,789,873,937,995,1002,1005,1008,1013,1053,1076,1092,1099,1100,1100,1100,1100,1100,1099,1068,1022,959,865,765,602,569,552,546,545,534,526,515,512,512,512,512,512,512,512,512,512,512,512,513,543,564,587,610,628,649,670,705,781,846,993,1031,1049,1063,1077,1090,1091,1091,1091,1091,1091,1081,1057,1009,930,821,502,402,342,325,324,324,323,323,322,322,322,322,322,322,322,322,322,329,351,452,570,651,727,809,955,1039,1134,1256,1382,1553,1553,1553,1553,1553,1574,1539,1480,1392,1279,909,760,628,522,462,400,380,367,364,363,363,363,363,363,363,363,363,364,369,377,399,434,480,555,659,980,1177,1373,1538,1538,1538,1538,1538,1569,1541,1471,1434,1408,1391,1375,1289,1151,1051,937,834,665,618,594,583,578,574,547,536,532,532,532,532,532,532,532,532,532,532,532,532,532,532,532,534,540,579,612,679,758,855,1032,1094,1127,1149,1158,1160,1160,1164,1167,1169,1169,1169,1169,1169,1169,1169,1169,1169,1169,1169,1169,1169,1169,1169,1150,1119,982,911,849,815,796,778,770,761,751,740,695,674,653,641,634,634,634,632,621,600,567,552,546,544,544,544,544,544,544,544,544,544,544,544,544,544,544,544,544,568,598,641,693,753,809,929,986,1046,1104,1172,1222,1235,1242,1246,1247,1247,1247,1247,1247,1247,1247,1247,1247,1247,1247,1247,1247,1247,1247,1247,1247,1247,1247,1247,1247,1247,1247,1247,1247,1247,1242,1205,1116,968,529,327,183,135,133,134,157,170,183,187,187,187,187,187,187,187,187,188,190,194,223,243,258,274,277,284,287,291,295,302,308,318,321,323,324,331,357,384,419,435,444,446,445,444,444,444,444,444,448,452,463,470,479,482,491],"ymouse":[615,615,615,615,615,615,615,615,615,615,615,615,615,615,615,615,615,615,615,615,615,615,615,615,615,615,615,615,615,615,615,615,615,615,615,615,615,615,615,615,615,615,615,615,615,615,615,615,615,615,615,615,615,615,615,615,615,615,615,615,615,615,616,618,621,621,621,621,621,621,621,621,621,621,621,621,621,621,621,621,621,621,621,622,626,630,634,635,635,635,635,635,633,628,625,624,624,624,624,624,624,624,624,624,624,624,624,624,624,624,624,624,624,624,621,610,593,585,560,533,526,523,521,520,519,517,514,512,511,511,511,509,505,499,470,448,425,402,381,378,378,378,378,371,361,349,331,295,252,234,217,209,208,208,207,207,207,207,208,212,213,214,217,221,247,258,284,300,316,332,337,337,337,337,337,337,337,337,337,326,318,309,300,262,244,235,235,260,301,344,346,346,347,347,347,347,347,347,347,352,359,363,363,363,363,363,363,363,363,368,370,370,370,370,370,370,370,369,368,365,363,357,351,343,341,349,386,412,431,457,458,458,458,459,459,459,459,459,459,459,459,459,459,459,459,459,459,459,459,460,460,460,460,460,460,460,460,460,459,449,442,434,430,430,430,430,430,442,452,473,478,479,479,480,480,480,480,480,480,480,480,480,480,480,483,483,483,483,483,467,440,417,405,400,396,396,396,396,396,396,396,396,396,396,396,396,396,396,396,396,396,396,396,396,396,396,396,396,396,396,398,398,398,398,398,398,398,390,376,336,335,335,335,335,336,336,336,336,336,336,336,336,336,337,337,337,340,345,350,352,352,353,353,351,313,270,255,255,260,300,300,300,300,300,300,300,300,300,298,303,310,319,334,349,354,354,354,354,354,355,356,356,356,356,356,356,356,351,344,328,328,328,328,341,376,395,423,434,441,442,442,442,442,442,451,455,455,455,455,449,449,449,453,464,473,475,475,475,475,475,475,475,475,475,475,475,475,475,471,451,437,426,420,420,424,450,464,483,496,499,499,500,500,501,501,501,501,501,501,501,501,501,501,501,501,501,501,501,501,501,501,501,501,501,501,501,501,501,501,501,501,499,498,498,496,492,491,489,489,488,488,490,499,513,515,515,515,515,515,516,516,516,516,516,516,516,516,516,516,516,516,516,516,516,516,516,516,516,516,516,516,516,516,516,516,516,516,516,512,487,478,473,465,465,465,465,465,465,465,465,465,465,465,465,465,465,465,465,465,465,466,467,467,467,467,467,467,467,467,467,467,467,467,467,467,467,468,468,468,468,468,468,468,468,467,467,467,467,467,467,467,467,467,467,467,467,467,467,467,467,467,467,467,468,469,473,474,476,477,478,478,478,478,478,478,478,478,478,478,481,482,482,482,482,482,482,482,482,482,482,480,476,467,443,416,370,367,364,358,350,350,350,350,350,346,346,346,346,346,346,346,346,346,346,346,346,346,350,353,358,358,358,358,358,360,360,350,335,312,298,292,292,3