[{"start_time":1552074044351,"click_time":1552074050748,"finger_time":1552074049728,"fix_duration":1298.3058198640292,"trial":0,"RT":5377,"MT":1020,"sideResp":1,"stimulus":"img/750/equaldotanddens/L/13_Ratio_750_L_8_R_6.png","xmouse":[770,770,770,770,770,770,770,770,770,770,770,770,770,770,770,770,770,770,770,770,770,770,770,770,770,770,770,770,770,770,770,770,770,770,770,770,770,770,770,770,770,770,770,770,770,770,770,770,770,770,770,770,770,770,770,770,770,770,770,770,770,770,770,770,770,770,770,770,770,770,770,770,770,770,770,770,770,770,770,770,770,770,770,770,770,770,770,770,770,770,770,770,770,770,770,770,770,770,770,770,770,770,770,770,770,770,770,770,770,770,770,770,770,770,770,770,770,770,770,770,770,770,770,770,770,770,770,770,770,770,770,770,770,770,770,770,770,770,770,770,770,770,770,770,770,770,770,770,770,770,770,770,770,770,770,770,770,770,770,770,770,770,770,770,770,770,770,770,770,770,770,770,770,770,770,770,770,770,770,770,770,770,770,770,770,770,770,770,770,770,770,770,770,770,770,770,770,770,770,770,770,770,770,770,770,770,770,770,770,770,770,770,770,770,770,770,770,770,770,770,770,770,770,770,770,770,770,770,770,770,770,770,770,770,770,770,770,770,770,770,770,770,770,770,770,770,770,770,770,770,770,770,770,770,770,770,770,770,770,770,770,770,770,770,770,770,773,770,760,676,588,470,325,177,0,0,0,0,0,0,0,0,4,15,41,44,47,51,51,51,51,51,51,51,51,51,51,51,51,51,51,51,51,51,288,296,302,305,312,325,356,372,382,389,394,400,406,412,417,422,436],"ymouse":[560,560,560,560,560,560,560,560,560,560,560,560,560,560,560,560,560,560,560,560,560,560,560,560,560,560,560,560,560,560,560,560,560,560,560,560,560,560,560,560,560,560,560,560,560,560,560,560,560,560,560,560,560,560,560,560,560,560,560,560,560,560,560,560,560,560,560,560,560,560,560,560,560,560,560,560,560,560,560,560,560,560,560,560,560,560,560,560,560,560,560,560,560,560,560,560,560,560,560,560,560,560,560,560,560,560,560,560,560,560,560,560,560,560,560,560,560,560,560,560,560,560,560,560,560,560,560,560,560,560,560,560,560,560,560,560,560,560,560,560,560,560,560,560,560,560,560,560,560,560,560,560,560,560,560,560,560,560,560,560,560,560,560,560,560,560,560,560,560,560,560,560,560,560,560,560,560,560,560,560,560,560,560,560,560,560,560,560,560,560,560,560,560,560,560,560,560,560,560,560,560,560,560,560,560,560,560,560,560,560,560,560,560,560,560,560,560,560,560,560,560,560,560,560,560,560,560,560,560,560,560,560,560,560,560,560,560,560,560,560,560,560,560,560,560,560,560,560,560,560,560,560,560,560,560,560,560,560,560,560,560,560,560,560,560,560,555,551,542,508,485,459,422,386,211,165,117,103,101,101,101,99,95,82,42,32,22,5,5,5,5,5,5,5,5,5,5,5,5,5,5,5,5,5,25,34,39,42,49,60,85,92,95,96,96,96,96,96,96,96,96],"timestamp_mouse":[0,16,53,57,76,97,116,136,156,176,197,218,237,257,278,297,317,336,357,378,397,416,437,457,478,496,518,537,556,577,596,617,637,656,676,697,716,737,757,776,796,816,837,856,878,897,917,937,956,976,997,1017,1038,1057,1076,1097,1118,1137,1157,1176,1196,1216,1238,1258,1276,1297,1316,1336,1357,1378,1397,1416,1437,1457,1477,1497,1517,1536,1557,1576,1596,1618,1636,1657,1677,1698,1717,1737,1756,1777,1797,1817,1836,1856,1876,1897,1917,1937,1957,1976,1996,2016,2037,2057,2077,2097,2117,2137,2156,2177,2197,2217,2237,2257,2276,2297,2317,2336,2356,2376,2398,2417,2437,2458,2477,2497,2517,2536,2556,2576,2597,2618,2637,2657,2677,2697,2716,2736,2756,2776,2797,2817,2836,2856,2876,2897,2917,2936,2957,2977,2997,3017,3036,3057,3076,3097,3117,3137,3158,3177,3196,3216,3237,3257,3277,3297,3317,3336,3356,3376,3396,3416,3437,3458,3477,3497,3516,3538,3557,3576,3598,3617,3636,3657,3676,3697,3717,3737,3757,3776,3796,3817,3837,3858,3876,3896,3918,3936,3958,3977,3997,4017,4037,4058,4077,4096,4117,4137,4157,4176,4197,4217,4237,4256,4277,4296,4317,4336,4357,4377,4398,4418,4437,4457,4476,4497,4516,4537,4558,4577,4597,4616,4637,4657,4676,4696,4716,4736,4756,4776,4797,4816,4837,4857,4876,4897,4916,4938,4958,4977,4997,5016,5037,5057,5077,5097,5116,5136,5157,5177,5197,5218,5236,5256,5277,5298,5316,5337,5356,5377,5397,5416,5436,5457,5478,5496,5516,5536,5557,5577,5598,5617,5636,5657,5678,5696,5716,5736,5756,5777,5797,5816,5836,5856,5876,5896,5916,5936,5957,5978,5997,6017,6037,6057,6078,6096,6116,6136,6156,6176,6197,6216,6236,6256,6276,6296,6317,6336,6357,6377,6396],"xSR":741.5,"ySR":501.8,"xT1":424.9,"yT1":0,"xT2":1058.1,"yT2":0,"toosoon":0,"cond_shown":"equaldotanddens","ratio_trial":750,"smaller_num":"6","larger_num":"8","correct_side":1,"subjID":"violetaespitiaalonso3","gender":"1","age":"9","school":"4","test":{"fix_dur":[250,1500],"timestim":300,"targets_dim":[100,100],"targets_relative_coord":[0.3,0.7],"size_stim":[880,420],"start_dim":[100,100],"size_start":[300,300],"size_fix":60,"samplingrate":20,"img_types":["equaldotsize","equaldotanddens","randomdotsizeEA"],"ratios":[250,500,750,900],"rep_conds":9,"nTrials":120,"trials_to_rest":500,"Trials_order":[115,103,40,69,89,32,75,58,87,15,72,66,113,94,108,42,117,3,38,55,77,51,63,41,1,35,57,97,47,64,99,46,109,34,43,74,50,27,49,18,100,37,30,68,112,0,107,118,6,59,102,110,48,5,65,81,2,104,101,62,60,88,91,53,70,61,83,95,52,31,84,13,45,86,54,23,56,105,39,10,98,26,33,93,78,19,119,24,79,28,17,111,21,85,44,67,11,25,12,22,73,106,29,116,16,114,71,96,20,92,82,90,9,80,36,8,14,4,76,7],"cond_shown":["equaldotanddens","equaldotanddens","equaldotanddens","equaldotsize","randomdotsizeEA","randomdotsizeEA","equaldotsize","equaldotanddens","equaldotsize","equaldotsize","equaldotsize","equaldotsize","randomdotsizeEA","equaldotanddens","equaldotsize","equaldotsize","equaldotsize","equaldotsize","randomdotsizeEA","equaldotanddens","randomdotsizeEA","equaldotsize","equaldotsize","randomdotsizeEA","equaldotanddens","randomdotsizeEA","equaldotsize","equaldotanddens","randomdotsizeEA","equaldotanddens","equaldotsize","equaldotanddens","equaldotanddens","equaldotanddens","equaldotanddens","randomdotsizeEA","randomdotsizeEA","equaldotsize","equaldotanddens","equaldotsize","equaldotanddens","equaldotanddens","equaldotsize","randomdotsizeEA","equaldotanddens","equaldotsize","randomdotsizeEA","equaldotanddens","equaldotsize","randomdotsizeEA","equaldotsize","randomdotsizeEA","equaldotsize","randomdotsizeEA","randomdotsizeEA","equaldotsize","randomdotsizeEA","randomdotsizeEA","randomdotsizeEA","randomdotsizeEA","equaldotsize","equaldotanddens","equaldotanddens","randomdotsizeEA","equaldotanddens","equaldotanddens","randomdotsizeEA","randomdotsizeEA","equaldotanddens","equaldotanddens","equaldotsize","equaldotanddens","equaldotsize","randomdotsizeEA","equaldotsize","randomdotsizeEA","randomdotsizeEA","equaldotsize","equaldotsize","equaldotanddens","randomdotsizeEA","randomdotsizeEA","equaldotsize","equaldotsize","equaldotsize","equaldotanddens","randomdotsizeEA","equaldotsize","equaldotanddens","equaldotanddens","randomdotsizeEA","equaldotsize","equaldotsize","equaldotanddens","randomdotsizeEA","equaldotanddens","randomdotsizeEA","equaldotanddens","equaldotsize","equaldotanddens","equaldotanddens","equaldotanddens","randomdotsizeEA","randomdotsizeEA","equaldotanddens","equaldotsize","randomdotsizeEA","equaldotsize","randomdotsizeEA","randomdotsizeEA","equaldotanddens","equaldotsize","equaldotsize","randomdotsizeEA","equaldotsize","randomdotsizeEA","randomdotsizeEA","equaldotanddens","equaldotanddens","equaldotanddens"],"ratio_trial":[750,750,500,900,500,750,500,900,500,500,250,750,500,900,250,750,900,500,250,750,500,500,500,500,250,900,900,250,900,500,500,900,250,900,750,250,250,500,250,750,500,250,750,750,500,250,900,900,750,900,750,250,250,500,500,900,250,750,500,250,250,500,750,500,900,250,900,900,500,750,250,250,900,250,750,900,750,900,500,900,250,250,900,900,750,750,900,250,750,500,500,500,900,250,750,750,900,250,250,900,250,900,500,750,500,750,900,250,750,750,900,750,900,750,250,750,250,500,500,750],"smaller_num":["6","3","1","18","2","15","4","9","1","6","2","6","1","9","3","12","9","9","3","6","9","2","2","4","2","18","18","3","18","2","2","18","3","18","3","3","6","5","4","9","2","2","15","3","2","6","18","18","15","18","3","2","2","2","2","18","4","9","6","1","2","4","18","9","9","1","18","18","9","3","3","3","18","2","3","9","3","9","2","18","3","6","18","9","18","15","18","4","3","1","6","9","9","2","3","12","18","6","3","18","4","9","6","15","4","3","18","3","18","6","9","3","18","15","4","3","2","5","10","6"],"larger_num":["8","4","2","20","4","20","8","10","2","12","8","8","2","10","12","16","10","18","12","8","18","4","4","8","8","20","20","12","20","4","4","20","12","20","4","12","24","10","16","12","4","8","20","4","4","24","20","20","20","20","4","8","8","4","4","20","16","12","12","4","8","8","24","18","10","4","20","20","18","4","12","12","20","8","4","10","4","10","4","20","12","24","20","10","24","20","20","16","4","2","12","18","10","8","4","16","20","24","12","20","16","10","12","20","8","4","20","12","24","8","10","4","20","20","16","4","8","10","20","8"],"correct_side":[1,1,2,1,2,1,1,1,2,1,1,1,2,2,2,2,1,2,2,1,1,1,2,1,1,2,2,2,1,1,1,2,1,1,1,2,1,1,1,2,2,1,1,2,1,1,2,1,1,2,1,1,1,2,2,1,1,2,1,2,1,1,1,2,2,2,1,2,2,1,1,1,2,2,1,2,1,1,2,1,1,1,1,2,1,2,2,1,2,2,1,2,2,1,1,2,1,1,2,1,1,2,1,1,1,1,1,2,1,2,2,1,1,1,1,1,2,1,2,2],"img_shown":["img/750/equaldotanddens/L/13_Ratio_750_L_8_R_6.png","img/750/equaldotanddens/L/9_Ratio_750_L_4_R_3.png","img/500/equaldotanddens/R/15_Ratio_500_L_1_R_2.png","img/900/equaldotsize/L/10_Ratio_900_L_20_R_18.png","img/500/randomdotsizeEA/R/9_Ratio_500_L_2_R_4.png","img/750/randomdotsizeEA/L/1_Ratio_750_L_20_R_15.png","img/500/equaldotsize/L/8_Ratio_500_L_8_R_4.png","img/900/equaldotanddens/L/1_Ratio_900_L_10_R_9.png","img/500/equaldotsize/R/12_Ratio_500_L_1_R_2.png","img/500/equaldotsize/L/13_Ratio_500_L_12_R_6.png","img/250/equaldotsize/L/7_Ratio_250_L_8_R_2.png","img/750/equaldotsize/L/13_Ratio_750_L_8_R_6.png","img/500/randomdotsizeEA/R/15_Ratio_500_L_1_R_2.png","img/900/equaldotanddens/R/5_Ratio_900_L_9_R_10.png","img/250/equaldotsize/R/4_Ratio_250_L_3_R_12.png","img/750/equaldotsize/R/11_Ratio_750_L_12_R_16.png","img/900/equaldotsize/L/1_Ratio_900_L_10_R_9.png","img/500/equaldotsize/R/1_Ratio_500_L_9_R_18.png","img/250/randomdotsizeEA/R/4_Ratio_250_L_3_R_12.png","img/750/equaldotanddens/L/14_Ratio_750_L_8_R_6.png","img/500/randomdotsizeEA/L/4_Ratio_500_L_18_R_9.png","img/500/equaldotsize/L/10_Ratio_500_L_4_R_2.png","img/500/equaldotsize/R/9_Ratio_500_L_2_R_4.png","img/500/randomdotsizeEA/L/8_Ratio_500_L_8_R_4.png","img/250/equaldotanddens/L/7_Ratio_250_L_8_R_2.png","img/900/randomdotsizeEA/R/12_Ratio_900_L_18_R_20.png","img/900/equaldotsize/R/11_Ratio_900_L_18_R_20.png","img/250/equaldotanddens/R/4_Ratio_250_L_3_R_12.png","img/900/randomdotsizeEA/L/8_Ratio_900_L_20_R_18.png","img/500/equaldotanddens/L/10_Ratio_500_L_4_R_2.png","img/500/equaldotsize/L/10_Ratio_500_L_4_R_2.png","img/900/equaldotanddens/R/9_Ratio_900_L_18_R_20.png","img/250/equaldotanddens/L/15_Ratio_250_L_12_R_3.png","img/900/equaldotanddens/L/8_Ratio_900_L_20_R_18.png","img/750/equaldotanddens/L/8_Ratio_750_L_4_R_3.png","img/250/randomdotsizeEA/R/11_Ratio_250_L_3_R_12.png","img/250/randomdotsizeEA/L/5_Ratio_250_L_24_R_6.png","img/500/equaldotsize/L/7_Ratio_500_L_10_R_5.png","img/250/equaldotanddens/L/2_Ratio_250_L_16_R_4.png","img/750/equaldotsize/R/15_Ratio_750_L_9_R_12.png","img/500/equaldotanddens/R/9_Ratio_500_L_2_R_4.png","img/250/equaldotanddens/L/3_Ratio_250_L_8_R_2.png","img/750/equaldotsize/L/1_Ratio_750_L_20_R_15.png","img/750/randomdotsizeEA/R/7_Ratio_750_L_3_R_4.png","img/500/equaldotanddens/L/5_Ratio_500_L_4_R_2.png","img/250/equaldotsize/L/5_Ratio_250_L_24_R_6.png","img/900/randomdotsizeEA/R/14_Ratio_900_L_18_R_20.png","img/900/equaldotanddens/L/4_Ratio_900_L_20_R_18.png","img/750/equaldotsize/L/1_Ratio_750_L_20_R_15.png","img/900/randomdotsizeEA/R/9_Ratio_900_L_18_R_20.png","img/750/equaldotsize/L/10_Ratio_750_L_4_R_3.png","img/250/randomdotsizeEA/L/3_Ratio_250_L_8_R_2.png","img/250/equaldotsize/L/1_Ratio_250_L_8_R_2.png","img/500/randomdotsizeEA/R/9_Ratio_500_L_2_R_4.png","img/500/randomdotsizeEA/R/9_Ratio_500_L_2_R_4.png","img/900/equaldotsize/L/2_Ratio_900_L_20_R_18.png","img/250/randomdotsizeEA/L/2_Ratio_250_L_16_R_4.png","img/750/randomdotsizeEA/R/15_Ratio_750_L_9_R_12.png","img/500/randomdotsizeEA/L/11_Ratio_500_L_12_R_6.png","img/250/randomdotsizeEA/R/8_Ratio_250_L_1_R_4.png","img/250/equaldotsize/L/3_Ratio_250_L_8_R_2.png","img/500/equaldotanddens/L/8_Ratio_500_L_8_R_4.png","img/750/equaldotanddens/L/6_Ratio_750_L_24_R_18.png","img/500/randomdotsizeEA/R/6_Ratio_500_L_9_R_18.png","img/900/equaldotanddens/R/6_Ratio_900_L_9_R_10.png","img/250/equaldotanddens/R/8_Ratio_250_L_1_R_4.png","img/900/randomdotsizeEA/L/10_Ratio_900_L_20_R_18.png","img/900/randomdotsizeEA/R/11_Ratio_900_L_18_R_20.png","img/500/equaldotanddens/R/6_Ratio_500_L_9_R_18.png","img/750/equaldotanddens/L/8_Ratio_750_L_4_R_3.png","img/250/equaldotsize/L/15_Ratio_250_L_12_R_3.png","img/250/equaldotanddens/L/15_Ratio_250_L_12_R_3.png","img/900/equaldotsize/R/13_Ratio_900_L_18_R_20.png","img/250/randomdotsizeEA/R/13_Ratio_250_L_2_R_8.png","img/750/equaldotsize/L/8_Ratio_750_L_4_R_3.png","img/900/randomdotsizeEA/R/3_Ratio_900_L_9_R_10.png","img/750/randomdotsizeEA/L/8_Ratio_750_L_4_R_3.png","img/900/equaldotsize/L/1_Ratio_900_L_10_R_9.png","img/500/equaldotsize/R/9_Ratio_500_L_2_R_4.png","img/900/equaldotanddens/L/4_Ratio_900_L_20_R_18.png","img/250/randomdotsizeEA/L/15_Ratio_250_L_12_R_3.png","img/250/randomdotsizeEA/L/5_Ratio_250_L_24_R_6.png","img/900/equaldotsize/L/2_Ratio_900_L_20_R_18.png","img/900/equaldotsize/R/3_Ratio_900_L_9_R_10.png","img/750/equaldotsize/L/6_Ratio_750_L_24_R_18.png","img/750/equaldotanddens/R/4_Ratio_750_L_15_R_20.png","img/900/randomdotsizeEA/R/12_Ratio_900_L_18_R_20.png","img/250/equaldotsize/L/2_Ratio_250_L_16_R_4.png","img/750/equaldotanddens/R/7_Ratio_750_L_3_R_4.png","img/500/equaldotanddens/R/12_Ratio_500_L_1_R_2.png","img/500/randomdotsizeEA/L/11_Ratio_500_L_12_R_6.png","img/500/equaldotsize/R/1_Ratio_500_L_9_R_18.png","img/900/equaldotsize/R/15_Ratio_900_L_9_R_10.png","img/250/equaldotanddens/L/7_Ratio_250_L_8_R_2.png","img/750/randomdotsizeEA/L/8_Ratio_750_L_4_R_3.png","img/750/equaldotanddens/R/11_Ratio_750_L_12_R_16.png","img/900/randomdotsizeEA/L/4_Ratio_900_L_20_R_18.png","img/250/equaldotanddens/L/5_Ratio_250_L_24_R_6.png","img/250/equaldotsize/R/11_Ratio_250_L_3_R_12.png","img/900/equaldotanddens/L/10_Ratio_900_L_20_R_18.png","img/250/equaldotanddens/L/2_Ratio_250_L_16_R_4.png","img/900/equaldotanddens/R/5_Ratio_900_L_9_R_10.png","img/500/randomdotsizeEA/L/13_Ratio_500_L_12_R_6.png","img/750/randomdotsizeEA/L/1_Ratio_750_L_20_R_15.png","img/500/equaldotanddens/L/8_Ratio_500_L_8_R_4.png","img/750/equaldotsize/L/9_Ratio_750_L_4_R_3.png","img/900/randomdotsizeEA/L/10_Ratio_900_L_20_R_18.png","img/250/equaldotsize/R/4_Ratio_250_L_3_R_12.png","img/750/randomdotsizeEA/L/6_Ratio_750_L_24_R_18.png","img/750/randomdotsizeEA/R/2_Ratio_750_L_6_R_8.png","img/900/equaldotanddens/R/5_Ratio_900_L_9_R_10.png","img/750/equaldotsize/L/9_Ratio_750_L_4_R_3.png","img/900/equaldotsize/L/8_Ratio_900_L_20_R_18.png","img/750/randomdotsizeEA/L/1_Ratio_750_L_20_R_15.png","img/250/equaldotsize/L/2_Ratio_250_L_16_R_4.png","img/750/randomdotsizeEA/L/8_Ratio_750_L_4_R_3.png","img/250/randomdotsizeEA/R/13_Ratio_250_L_2_R_8.png","img/500/equaldotanddens/L/7_Ratio_500_L_10_R_5.png","img/500/equaldotanddens/R/3_Ratio_500_L_10_R_20.png","img/750/equaldotanddens/R/2_Ratio_750_L_6_R_8.png"],"Rat0":[["12_Ratio_0_L_9_R_0.png","13_Ratio_0_L_6_R_0.png","5_Ratio_0_L_2_R_0.png","6_Ratio_0_L_4_R_0.png","8_Ratio_0_L_6_R_0.png"],["1_Ratio_0_L_0_R_17.png","10_Ratio_0_L_0_R_22.png","11_Ratio_0_L_0_R_1.png","14_Ratio_0_L_0_R_24.png","15_Ratio_0_L_0_R_4.png","2_Ratio_0_L_0_R_5.png","3_Ratio_0_L_0_R_17.png","4_Ratio_0_L_0_R_7.png","7_Ratio_0_L_0_R_19.png","9_Ratio_0_L_0_R_15.png"]],"Rat250":[["1_Ratio_250_L_8_R_2.png","14_Ratio_250_L_12_R_3.png","15_Ratio_250_L_12_R_3.png","2_Ratio_250_L_16_R_4.png","3_Ratio_250_L_8_R_2.png","5_Ratio_250_L_24_R_6.png","7_Ratio_250_L_8_R_2.png"],["10_Ratio_250_L_4_R_16.png","11_Ratio_250_L_3_R_12.png","12_Ratio_250_L_5_R_20.png","13_Ratio_250_L_2_R_8.png","4_Ratio_250_L_3_R_12.png","6_Ratio_250_L_6_R_24.png","8_Ratio_250_L_1_R_4.png","9_Ratio_250_L_3_R_12.png"]],"Rat500":[["10_Ratio_500_L_4_R_2.png","11_Ratio_500_L_12_R_6.png","13_Ratio_500_L_12_R_6.png","4_Ratio_500_L_18_R_9.png","5_Ratio_500_L_4_R_2.png","7_Ratio_500_L_10_R_5.png","8_Ratio_500_L_8_R_4.png"],["1_Ratio_500_L_9_R_18.png","12_Ratio_500_L_1_R_2.png","14_Ratio_500_L_5_R_10.png","15_Ratio_500_L_1_R_2.png","2_Ratio_500_L_3_R_6.png","3_Ratio_500_L_10_R_20.png","6_Ratio_500_L_9_R_18.png","9_Ratio_500_L_2_R_4.png"]],"Rat750":[["1_Ratio_750_L_20_R_15.png","10_Ratio_750_L_4_R_3.png","13_Ratio_750_L_8_R_6.png","14_Ratio_750_L_8_R_6.png","6_Ratio_750_L_24_R_18.png","8_Ratio_750_L_4_R_3.png","9_Ratio_750_L_4_R_3.png"],["11_Ratio_750_L_12_R_16.png","12_Ratio_750_L_3_R_4.png","15_Ratio_750_L_9_R_12.png","2_Ratio_750_L_6_R_8.png","3_Ratio_750_L_15_R_20.png","4_Ratio_750_L_15_R_20.png","5_Ratio_750_L_15_R_20.png","7_Ratio_750_L_3_R_4.png"]],"Rat900":[["1_Ratio_900_L_10_R_9.png","10_Ratio_900_L_20_R_18.png","2_Ratio_900_L_20_R_18.png","4_Ratio_900_L_20_R_18.png","8_Ratio_900_L_20_R_18.png"],["11_Ratio_900_L_18_R_20.png","12_Ratio_900_L_18_R_20.png","13_Ratio_900_L_18_R_20.png","14_Ratio_900_L_18_R_20.png","15_Ratio_900_L_9_R_10.png","3_Ratio_900_L_9_R_10.png","5_Ratio_900_L_9_R_10.png","6_Ratio_900_L_9_R_10.png","7_Ratio_900_L_9_R_10.png","9_Ratio_900_L_18_R_20.png"]],"Rat1000":[["10_Ratio_1000_L_16_R_16.png","11_Ratio_1000_L_6_R_6.png","12_Ratio_1000_L_14_R_14.png","13_Ratio_1000_L_20_R_20.png","15_Ratio_1000_L_15_R_15.png","2_Ratio_1000_L_17_R_17.png","4_Ratio_1000_L_9_R_9.png","5_Ratio_1000_L_6_R_6.png","6_Ratio_1000_L_19_R_19.png","8_Ratio_1000_L_14_R_14.png","9_Ratio_1000_L_25_R_25.png"],["1_Ratio_1000_L_1_R_1.png","14_Ratio_1000_L_17_R_17.png","3_Ratio_1000_L_17_R_17.png","7_Ratio_1000_L_6_R_6.png"]]}},{"start_time":1552074058703,"click_time":1552074061249,"finger_time":1552074059908,"fix_duration":453.31281321415605,"trial":1,"RT":1205,"MT":1341,"sideResp":1,"stimulus":"img/750/equaldotanddens/L/9_Ratio_750_L_4_R_3.png","xmouse":[800,800,800,800,800,800,800,800,800,800,800,800,800,800,800,800,800,800,800,800,800,800,800,800,800,800,800,800,800,800,800,800,800,800,800,800,800,800,800,800,800,800,800,800,800,800,800,800,800,798,798,798,797,797,797,797,797,796,793,781,775,760,753,745,743,740,738,737,737,737,737,737,737,737,737,737,737,737,737,737,734,733,732,732,732,732,732,732,732,732,730,726,715,684,674,671,671,671,672,682,699,708,717,733,737,740,741,741,736,734,730,723,720,684,649,607,581,565,549,546,541,539,535,531,531,529,528,524],"ymouse":[508,508,508,507,507,507,507,507,507,507,507,507,507,507,507,507,507,507,507,507,507,507,507,507,507,507,507,507,507,507,507,507,507,507,507,507,507,507,507,507,507,507,507,507,507,507,507,507,507,506,504,504,503,503,501,500,499,498,491,470,459,429,412,382,371,362,357,354,353,353,353,353,353,353,353,353,353,353,352,350,346,344,344,344,344,344,344,344,344,344,342,339,333,315,309,309,309,309,309,309,309,309,308,299,292,282,272,264,254,253,249,246,245,223,201,178,164,152,126,120,103,98,90,80,76,74,71,66],"timestamp_mouse":[11,26,45,65,84,105,125,145,165,184,205,224,245,266,285,305,324,345,365,385,406,425,446,465,485,506,525,545,564,584,606,625,645,665,684,705,725,746,764,784,806,824,844,865,885,904,925,944,965,985,1004,1024,1044,1064,1084,1104,1125,1144,1164,1184,1205,1224,1245,1264,1284,1304,1324,1344,1364,1384,1404,1426,1446,1464,1484,1505,1525,1544,1564,1584,1604,1624,1645,1665,1684,1705,1724,1745,1764,1784,1804,1825,1845,1865,1884,1904,1925,1945,1964,1984,2004,2025,2044,2064,2084,2105,2124,2145,2165,2184,2204,2224,2244,2264,2284,2305,2324,2344,2365,2385,2404,2425,2446,2465,2484,2504,2524,2545],"xSR":741.5,"ySR":469.95,"xT1":424.9,"yT1":0,"xT2":1058.1,"yT2":0,"toosoon":0,"cond_shown":"equaldotanddens","ratio_trial":750,"smaller_num":"3","larger_num":"4","correct_side":1,"subjID":"violetaespitiaalonso3","gender":"1","age":"9","school":"4"},{"start_time":1552074065532,"click_time":1552074069188,"finger_time":1552074068367,"fix_duration":264.18037562010943,"trial":2,"RT":2835,"MT":821,"sideResp":2,"stimulus":"img/500/equaldotanddens/R/15_Ratio_500_L_1_R_2.png","xmouse":[785,785,785,785,785,785,785,785,785,785,785,785,785,785,785,785,785,785,785,785,785,785,785,785,785,785,785,785,785,785,785,785,785,785,785,785,785,785,785,785,785,785,785,785,785,785,785,785,785,785,785,785,785,785,785,785,785,785,785,785,785,785,785,785,785,785,785,785,785,785,785,785,785,785,785,785,785,785,785,785,785,785,785,785,785,785,785,785,785,785,785,785,785,785,785,785,785,785,785,785,785,785,785,785,785,785,785,785,785,785,785,785,785,785,785,785,785,785,785,785,785,785,785,785,785,785,785,785,785,785,785,785,785,785,785,788,801,815,816,817,818,822,839,868,877,910,926,961,979,989,991,991,992,996,997,998,998,999,1003,1010,1016,1019,1019,1023,1036,1044,1047,1048,1048,1048,1048,1048,1048,1048,1048,1048,1048,1048,1048,1048,1049,1051,1062],"ymouse":[547,547,547,547,547,547,547,547,547,547,547,547,547,547,547,547,547,547,547,547,547,547,547,547,547,547,547,547,547,547,547,547,547,547,547,547,547,547,547,547,547,547,547,547,547,547,547,547,547,547,547,547,547,547,547,547,547,547,547,547,547,547,547,547,547,547,547,547,547,547,547,547,547,547,547,547,547,547,547,547,547,547,547,547,547,547,547,547,547,547,547,547,547,547,547,547,547,547,547,547,547,547,547,547,547,547,547,547,547,547,547,547,547,547,547,547,547,547,547,547,547,547,547,547,547,547,547,547,547,547,547,547,547,547,547,545,531,496,485,479,474,464,407,312,274,175,118,51,39,36,36,36,35,28,26,22,22,23,41,64,79,84,84,82,54,39,31,29,29,29,29,29,29,29,29,29,29,29,29,29,29,32,47],"timestamp_mouse":[15,39,55,76,95,115,135,155,175,196,216,236,256,276,297,316,336,357,376,395,416,436,456,476,495,515,536,556,575,596,616,636,656,676,695,716,736,756,775,796,815,835,855,877,896,916,935,955,977,995,1015,1035,1055,1075,1095,1115,1136,1155,1175,1196,1216,1236,1255,1275,1297,1316,1335,1356,1375,1396,1415,1435,1456,1476,1496,1515,1536,1556,1576,1596,1617,1636,1656,1675,1696,1715,1737,1756,1776,1796,1816,1835,1857,1877,1896,1916,1936,1955,1976,1996,2016,2036,2056,2076,2095,2116,2137,2156,2176,2196,2216,2237,2256,2275,2295,2315,2335,2356,2375,2395,2415,2435,2457,2476,2496,2516,2535,2556,2576,2595,2616,2636,2655,2675,2696,2717,2736,2756,2775,2797,2816,2835,2855,2876,2895,2916,2936,2956,2975,2996,3015,3037,3055,3077,3096,3115,3136,3155,3175,3195,3216,3235,3255,3275,3295,3317,3336,3355,3375,3396,3415,3435,3456,3476,3497,3517,3536,3555,3575,3596,3616,3635,3655],"xSR":741.5,"ySR":469.95,"xT1":424.9,"yT1":0,"xT2":1058.1,"yT2":0,"toosoon":0,"cond_shown":"equaldotanddens","ratio_trial":500,"smaller_num":"1","larger_num":"2","correct_side":2,"subjID":"violetaespitiaalonso3","gender":"1","age":"9","school":"4"},{"start_time":1552074071696,"click_time":1552074073367,"finger_time":1552074073047,"fix_duration":307.88242776205266,"trial":3,"RT":1351,"MT":320,"sideResp":1,"stimulus":"img/900/equaldotsize/L/10_Ratio_900_L_20_R_18.png","xmouse":[811,811,811,811,811,811,811,811,811,811,811,811,811,811,811,811,811,811,811,811,811,811,811,811,811,811,811,811,811,811,811,811,811,811,811,811,811,811,811,811,811,811,812,812,812,813,813,813,813,813,813,814,817,820,822,823,823,823,823,823,823,823,823,823,823,783,751,718,680,612,588,566,549,540,535,534,534,536,539,541,538,531,525,520],"ymouse":[513,513,513,513,513,513,513,517,529,548,552,554,555,555,555,555,555,555,555,555,555,555,555,555,555,555,555,555,555,555,555,555,555,555,555,555,555,555,555,555,555,555,554,552,552,551,551,551,551,550,548,543,537,532,526,526,526,526,526,526,526,526,526,526,523,505,491,467,428,339,311,278,244,226,202,195,192,185,170,136,121,108,100,95],"timestamp_mouse":[11,38,52,71,92,113,131,151,171,191,211,231,251,272,291,311,331,351,372,392,412,431,452,472,491,512,531,552,572,591,611,631,652,672,691,712,733,751,772,791,811,832,851,872,891,912,932,952,972,992,1012,1032,1052,1072,1092,1111,1131,1152,1171,1191,1212,1232,1252,1272,1291,1313,1331,1351,1371,1392,1411,1431,1451,1471,1492,1511,1531,1551,1571,1591,1611,1631,1651,1671],"xSR":741.5,"ySR":469.95,"xT1":424.9,"yT1":0,"xT2":1058.1,"yT2":0,"toosoon":0,"cond_shown":"equaldotsize","ratio_trial":900,"smaller_num":"18","larger_num":"20","correct_side":1,"subjID":"violetaespitiaalonso3","gender":"1","age":"9","school":"4"},{"start_time":1552074075816,"click_time":1552074078347,"finger_time":1552074076968,"fix_duration":1306.083937741284,"trial":4,"RT":1152,"MT":1379,"sideResp":2,"stimulus":"img/500/randomdotsizeEA/R/9_Ratio_500_L_2_R_4.png","xmouse":[754,754,754,754,754,754,754,754,754,754,754,754,754,754,754,754,754,754,754,754,754,754,754,754,754,754,754,754,754,754,754,754,754,754,754,754,754,754,754,754,754,754,754,754,754,754,754,754,755,760,765,768,771,775,776,776,777,777,777,774,763,745,728,719,709,702,696,686,679,660,651,643,631,619,612,611,610,610,610,610,610,610,610,610,610,610,610,610,610,610,610,610,609,609,609,612,637,667,705,805,842,873,894,910,926,929,929,929,929,929,929,929,929,929,929,929,929,979,981,983,986,987,988,989,1009,1044,1077],"ymouse":[518,518,518,518,518,518,518,518,518,518,518,518,518,518,518,518,518,518,518,518,518,518,518,518,518,518,518,518,518,518,518,518,518,518,518,518,518,518,518,518,518,518,518,518,518,518,518,518,517,505,494,488,481,474,472,471,470,469,468,446,418,375,335,307,261,236,213,192,176,147,136,126,120,115,113,113,113,113,113,113,113,113,113,113,113,113,113,113,113,113,113,113,113,113,113,114,114,114,114,95,81,68,55,39,8,1,1,1,1,1,1,1,1,1,1,1,1,0,1,3,4,4,4,5,10,24,35],"timestamp_mouse":[11,40,51,71,92,111,132,152,172,191,212,232,251,272,291,311,331,351,371,392,411,431,452,472,492,511,533,552,571,591,612,631,652,671,692,713,732,751,773,793,812,832,853,872,892,911,931,952,971,993,1012,1033,1051,1073,1091,1111,1131,1152,1172,1191,1211,1232,1252,1272,1291,1312,1332,1351,1371,1391,1411,1432,1451,1473,1491,1512,1532,1553,1573,1591,1612,1632,1652,1673,1691,1713,1732,1752,1772,1791,1811,1831,1851,1872,1891,1911,1931,1951,1971,1992,2013,2033,2051,2072,2091,2112,2132,2152,2172,2192,2211,2232,2252,2272,2292,2311,2332,2351,2371,2391,2411,2432,2452,2471,2491,2511,2531],"xSR":741.5,"ySR":469.95,"xT1":424.9,"yT1":0,"xT2":1058.1,"yT2":0,"toosoon":0,"cond_shown":"randomdotsizeEA","ratio_trial":500,"smaller_num":"2","larger_num":"4","correct_side":2,"subjID":"violetaespitiaalonso3","gender":"1","age":"9","school":"4"},{"start_time":1552074097104,"click_time":1552074112868,"finger_time":1552074112488,"fix_duration":1054.1305571420512,"trial":5,"RT":15384,"MT":380,"sideResp":1,"stimulus":"img/750/randomdotsizeEA/L/1_Ratio_750_L_20_R_15.png","xmouse":[778,778,778,778,778,778,778,778,778,778,778,778,778,778,778,778,778,778,778,778,778,778,778,778,778,778,778,778,778,778,778,778,778,778,778,778,778,778,778,778,778,778,778,778,778,778,778,778,778,778,778,778,778,778,778,778,778,778,778,778,778,778,778,778,778,778,778,778,778,778,778,778,778,778,778,778,778,778,778,778,778,778,778,778,778,778,778,778,778,778,778,778,778,778,778,778,778,778,778,778,778,778,778,778,778,778,778,778,778,778,778,778,778,778,778,778,778,778,778,778,778,778,778,778,778,778,778,778,778,778,778,778,778,778,778,778,778,778,778,778,778,778,778,778,778,778,778,778,778,778,778,778,778,778,778,778,778,778,778,778,778,778,778,778,778,778,778,778,778,778,778,778,778,778,778,778,778,778,778,778,778,778,778,778,778,778,778,778,778,778,778,778,778,778,778,778,778,778,778,778,778,778,778,778,778,778,778,778,778,778,778,778,778,778,778,778,778,778,778,778,778,778,778,778,778,778,778,778,778,778,778,778,778,778,778,778,778,778,778,778,778,778,778,778,778,778,778,778,778,778,778,778,778,778,778,778,778,778,778,778,778,778,778,778,778,778,778,778,778,778,778,778,778,778,778,778,778,778,778,778,778,778,778,778,778,778,778,778,778,778,778,778,778,778,778,778,778,778,778,778,778,778,778,778,778,778,778,778,778,778,778,778,778,778,778,778,778,778,778,778,778,778,778,778,778,778,778,778,778,778,778,778,778,778,778,778,778,778,778,778,778,778,778,778,778,778,778,778,778,778,778,778,778,778,778,778,778,778,778,778,778,778,778,778,778,778,778,778,778,778,778,778,778,778,778,778,778,778,778,778,778,778,778,778,778,778,778,778,778,778,778,778,778,778,778,778,778,778,778,778,778,778,778,778,778,778,778,778,778,778,778,778,778,778,778,778,778,778,778,778,778,778,778,778,778,778,778,778,778,778,778,778,778,778,778,778,778,778,778,778,778,778,778,778,778,778,778,778,778,778,778,778,778,778,778,778,778,778,778,778,778,778,778,778,778,778,778,778,778,778,778,778,778,778,778,778,778,778,778,778,778,778,778,778,778,778,778,778,778,778,778,778,778,778,778,778,778,778,778,778,778,778,778,778,778,778,778,778,778,778,778,778,778,778,778,778,778,778,778,778,778,778,778,778,778,778,778,778,778,778,778,778,778,778,778,778,778,778,778,778,778,778,778,778,778,778,778,778,778,778,778,778,778,778,778,778,778,778,778,778,778,778,778,778,778,778,778,778,778,778,778,778,778,778,778,778,778,778,778,778,778,778,778,778,778,778,778,778,778,778,778,778,778,778,778,778,778,778,778,778,778,778,778,778,778,778,778,778,778,778,778,778,778,778,778,778,778,778,778,778,778,778,778,778,778,778,778,778,778,778,778,778,778,778,778,778,778,778,778,778,778,778,778,778,778,778,778,778,778,778,778,778,778,778,778,778,778,778,778,778,778,778,778,778,778,778,778,778,778,778,778,778,778,778,778,778,778,778,778,778,778,778,778,778,778,778,778,778,778,778,778,778,778,778,778,778,778,778,778,778,778,778,778,778,778,778,778,778,778,778,778,778,778,778,778,778,778,778,778,778,778,778,778,778,778,778,778,778,778,778,778,778,778,778,778,778,778,778,778,778,778,778,778,778,778,778,778,778,778,778,778,778,778,778,778,778,778,778,778,778,778,778,778,778,778,778,778,778,778,728,680,618,556,508,462,461,461,460,448,416,409,406,406,409,424,429,434,435,435],"ymouse":[527,527,527,527,527,527,527,527,527,527,527,527,527,527,527,527,527,527,527,527,527,527,527,527,527,527,527,527,527,527,527,527,527,527,527,527,527,527,527,527,527,527,527,527,527,527,527,527,527,527,527,527,527,527,527,527,527,527,527,527,527,527,527,527,527,527,527,527,527,527,527,527,527,527,527,527,527,527,527,527,527,527,527,527,527,527,527,527,527,527,527,527,527,527,527,527,527,527,527,527,527,527,527,527,527,527,527,527,527,527,527,527,527,527,527,527,527,527,527,527,527,527,527,527,527,527,527,527,527,527,527,527,527,527,527,527,527,527,527,527,527,527,527,527,527,527,527,527,527,527,527,527,527,527,527,527,527,527,527,527,527,527,527,527,527,527,527,527,527,527,527,527,527,527,527,527,527,527,527,527,527,527,527,527,527,527,527,527,527,527,527,527,527,527,527,527,527,527,527,527,527,527,527,527,527,527,527,527,527,527,527,527,527,527,527,527,527,527,527,527,527,527,527,527,527,527,527,527,527,527,527,527,527,527,527,527,527,527,527,527,527,527,527,527,527,527,527,527,527,527,527,527,527,527,527,527,527,527,527,527,527,527,527,527,527,527,527,527,527,527,527,527,527,527,527,527,527,527,527,527,527,527,527,527,527,527,527,527,527,527,527,527,527,527,527,527,527,527,527,527,527,527,527,527,527,527,527,527,527,527,527,527,527,527,527,527,527,527,527,527,527,527,527,527,527,527,527,527,527,527,527,527,527,527,527,527,527,527,527,527,527,527,527,527,527,527,527,527,527,527,527,527,527,527,527,527,527,527,527,527,527,527,527,527,527,527,527,527,527,527,527,527,527,527,527,527,527,527,527,527,527,527,527,527,527,527,527,527,527,527,527,527,527,527,527,527,527,527,527,527,527,527,527,527,527,527,527,527,527,527,527,527,527,527,527,527,527,527,527,527,527,527,527,527,527,527,527,527,527,527,527,527,527,527,527,527,527,527,527,527,527,527,527,527,527,527,527,527,527,527,527,527,527,527,527,527,527,527,527,527,527,527,527,527,527,527,527,527,527,527,527,527,527,527,527,527,527,527,527,527,527,527,527,527,527,527,527,527,527,527,527,527,527,527,527,527,527,527,527,527,527,527,527,527,527,527,527,527,527,527,527,527,527,527,527,527,527,527,527,527,527,527,527,527,527,527,527,527,527,527,527,527,527,527,527,527,527,527,527,527,527,527,527,527,527,527,527,527,527,527,527,527,527,527,527,527,527,527,527,527,527,527,527,527,527,527,527,527,527,527,527,527,527,527,527,527,527,527,527,527,527,527,527,527,527,527,527,527,527,527,527,527,527,527,527,527,527,527,527,527,527,527,527,527,527,527,527,527,527,527,527,527,527,527,527,527,527,527,527,527,527,527,527,527,527,527,527,527,527,527,527,527,527,527,527,527,527,527,527,527,527,527,527,527,527,527,527,527,527,527,527,527,527,527,527,527,527,527,527,527,527,527,527,527,527,527,527,527,527,527,527,527,527,527,527,527,527,527,527,527,527,527,527,527,527,527,527,527,527,527,527,527,527,527,527,527,527,527,527,527,527,527,527,527,527,527,527,527,527,527,527,527,527,527,527,527,527,527,527,527,527,527,527,527,527,527,527,527,527,527,527,527,527,527,527,527,527,527,527,527,527,527,527,527,527,527,527,527,527,527,527,527,527,527,527,527,527,527,527,527,527,527,527,527,527,527,527,527,522,474,447,406,369,340,310,309,309,301,285,263,252,239,230,222,187,168,133,108,81],"timestamp_mouse":[10,24,42,63,84,104,124,143,164,184,204,224,243,262,283,302,324,343,363,382,403,424,443,463,484,503,523,543,564,582,603,623,644,663,684,703,723,742,762,784,804,824,843,864,884,904,924,943,963,984,1003,1023,1043,1064,1082,1104,1123,1144,1163,1184,1203,1224,1242,1263,1284,1304,1324,1344,1364,1382,1404,1424,1443,1464,1483,1503,1524,1543,1563,1584,1603,1623,1643,1663,1684,1704,1724,1743,1764,1783,1802,1824,1843,1864,1882,1903,1923,1943,1964,1983,2004,2023,2043,2064,2083,2102,2124,2143,2163,2183,2204,2223,2243,2263,2283,2303,2324,2343,2362,2383,2404,2423,2444,2464,2484,2503,2524,2544,2564,2582,2604,2624,2644,2664,2683,2703,2723,2743,2764,2783,2804,2822,2843,2864,2883,2904,2924,2944,2964,2983,3003,3023,3043,3063,3083,3103,3123,3143,3164,3183,3204,3223,3244,3264,3284,3304,3323,3343,3364,3384,3404,3424,3443,3464,3483,3504,3524,3544,3564,3584,3603,3624,3643,3663,3683,3704,3724,3743,3763,3784,3804,3823,3843,3864,3883,3904,3923,3944,3964,3984,4004,4023,4044,4064,4083,4104,4123,4143,4163,4184,4204,4223,4244,4263,4284,4304,4323,4343,4364,4383,4402,4424,4443,4464,4484,4504,4524,4543,4562,4583,4603,4623,4644,4664,4684,4704,4724,4744,4764,4783,4804,4823,4843,4864,4882,4904,4923,4943,4963,4983,5003,5024,5043,5064,5083,5104,5123,5144,5163,5183,5203,5222,5243,5264,5284,5304,5324,5344,5364,5383,5404,5424,5444,5464,5484,5504,5524,5544,5564,5583,5604,5624,5644,5664,5683,5704,5724,5744,5764,5783,5804,5824,5842,5864,5883,5902,5923,5943,5964,5982,6002,6024,6043,6064,6083,6104,6123,6143,6163,6183,6204,6223,6242,6263,6283,6304,6322,6343,6364,6383,6403,6423,6443,6464,6484,6503,6524,6543,6563,6582,6604,6624,6643,6663,6683,6704,6723,6743,6764,6783,6804,6824,6843,6864,6883,6903,6922,6943,6964,6983,7004,7023,7044,7062,7082,7104,7124,7143,7162,7183,7204,7223,7243,7264,7284,7304,7323,7344,7362,7383,7403,7424,7444,7464,7482,7504,7524,7543,7563,7584,7604,7624,7643,7664,7683,7703,7723,7743,7764,7784,7804,7824,7843,7864,7884,7903,7924,7943,7964,7984,8003,8024,8043,8062,8083,8104,8123,8143,8163,8184,8202,8224,8243,8264,8282,8303,8324,8344,8363,8384,8404,8424,8443,8463,8483,8504,8524,8543,8564,8584,8604,8624,8643,8664,8684,8703,8729,8742,8763,8784,8803,8823,8843,8863,8884,8902,8924,8943,8963,8984,9004,9023,9044,9064,9084,9104,9123,9144,9163,9184,9204,9223,9244,9263,9282,9302,9322,9342,9362,9383,9402,9423,9442,9463,9484,9504,9524,9542,9563,9582,9603,9623,9644,9664,9684,9704,9723,9744,9763,9782,9803,9823,9842,9863,9884,9903,9923,9944,9963,9984,10003,10024,10044,10063,10083,10103,10122,10144,10163,10184,10203,10223,10244,10263,10283,10303,10322,10344,10363,10384,10404,10423,10443,10462,10483,10503,10523,10544,10563,10584,10603,10623,10644,10663,10684,10704,10723,10744,10763,10784,10803,10824,10842,10863,10884,10903,10923,10943,10963,10984,11002,11023,11043,11063,11084,11104,11122,11143,11163,11182,11204,11223,11243,11263,11284,11303,11323,11344,11363,11382,11404,11424,11443,11463,11483,11504,11523,11542,11563,11583,11603,11623,11644,11663,11683,11703,11723,11742,11763,11783,11802,11823,11842,11864,11884,11904,11924,11942,11963,11984,12004,12024,12043,12064,12084,12103,12123,12144,12179,12184,12203,12224,12243,12263,12284,12304,12324,12342,12363,12384,12403,12422,12443,12463,12484,12503,12522,12543,12563,12584,12603,12624,12642,12663,12684,12703,12724,12744,12763,12784,12803,12824,12844,12863,12884,12903,12924,12942,12963,12983,13003,13023,13043,13063,13084,13104,13122,13144,13163,13182,13203,13223,13244,13264,13284,13304,13323,13343,13363,13384,13404,13423,13443,13463,13483,13504,13524,13544,13562,13584,13602,13624,13643,13664,13684,13704,13722,13744,13763,13784,13804,13823,13842,13863,13884,13904,13923,13944,13964,13984,14003,14024,14044,14063,14082,14104,14124,14144,14164,14183,14204,14223,14243,14264,14282,14304,14323,14342,14363,14384,14403,14424,14444,14463,14484,14504,14523,14543,14564,14584,14604,14623,14643,14663,14684,14703,14723,14743,14764,14784,14803,14824,14844,14864,14884,14904,14924,14944,14964,14984,15002,15024,15043,15064,15083,15102,15123,15143,15163,15182,15204,15224,15243,15264,15284,15303,15323,15344,15363,15384,15402,15423,15442,15463,15483,15504,15522,15544,15564,15583,15602,15623,15643,15663,15683,15702,15722,15743,15764],"xSR":741.5,"ySR":469.95,"xT1":424.9,"yT1":0,"xT2":1058.1,"yT2":0,"toosoon":0,"cond_shown":"randomdotsizeEA","ratio_trial":750,"smaller_num":"15","larger_num":"20","correct_side":1,"subjID":"violetaespitiaalonso3","gender":"1","age":"9","school":"4"},{"start_time":1552074114745,"click_time":1552074115907,"finger_time":1552074115746,"fix_duration":255.1521555614019,"trial":6,"RT":1001,"MT":161,"sideResp":1,"stimulus":"img/500/equaldotsize/L/8_Ratio_500_L_8_R_4.png","xmouse":[817,817,817,817,817,817,817,817,817,817,817,817,817,817,817,817,817,817,817,817,817,817,817,817,817,817,817,817,817,817,817,817,817,817,817,817,817,817,817,817,817,817,817,817,817,817,817,817,819,819,810,781,746,702,650,591,542,513,466],"ymouse":[510,510,510,510,510,510,510,510,510,510,510,510,510,510,510,510,510,510,510,510,510,510,510,510,510,510,510,510,510,510,510,510,510,510,510,510,510,510,510,510,510,510,510,510,510,510,510,510,498,482,424,329,242,189,163,137,117,107,94],"timestamp_mouse":[13,23,42,61,82,103,123,141,162,182,202,222,243,262,283,301,322,342,363,382,401,423,443,461,482,503,522,542,563,582,603,623,643,662,681,703,722,742,763,782,803,822,843,862,883,903,923,942,962,981,1001,1022,1042,1062,1081,1102,1122,1142,1162],"xSR":741.5,"ySR":469.95,"xT1":424.9,"yT1":0,"xT2":1058.1,"yT2":0,"toosoon":0,"cond_shown":"equaldotsize","ratio_trial":500,"smaller_num":"4","larger_num":"8","correct_side":1,"subjID":"violetaespitiaalonso3","gender":"1","age":"9","school":"4"},{"start_time":1552074121010,"click_time":1552074122367,"finger_time":1552074122167,"fix_duration":441.1650582812743,"trial":7,"RT":1157,"MT":200,"sideResp":1,"stimulus":"img/900/equaldotanddens/L/1_Ratio_900_L_10_R_9.png","xmouse":[800,800,800,800,800,800,800,800,800,800,800,800,800,800,800,800,800,800,800,800,800,800,800,800,800,800,800,800,800,800,800,800,800,800,800,800,800,800,800,800,800,800,800,800,800,800,800,800,800,800,800,800,800,800,800,800,789,738,680,574,545,535,535,535,534,534,529,520],"ymouse":[551,551,551,551,551,551,551,551,551,551,551,551,551,551,551,551,551,551,551,551,551,551,551,551,551,551,551,551,551,551,551,551,551,551,551,551,551,551,551,551,551,551,551,551,551,551,551,551,551,551,551,551,551,551,551,551,508,403,291,126,92,84,83,83,83,83,81,70],"timestamp_mouse":[17,42,57,77,97,118,137,158,177,197,217,238,257,277,298,317,337,358,377,398,418,436,458,478,498,517,537,557,577,598,618,637,658,676,698,718,738,758,777,798,816,838,858,876,898,918,936,957,977,998,1018,1038,1057,1077,1098,1117,1137,1157,1177,1198,1216,1237,1257,1277,1298,1318,1338,1357],"xSR":741.5,"ySR":469.95,"xT1":424.9,"yT1":0,"xT2":1058.1,"yT2":0,"toosoon":0,"cond_shown":"equaldotanddens","ratio_trial":900,"smaller_num":"9","larger_num":"10","correct_side":1,"subjID":"violetaespitiaalonso3","gender":"1","age":"9","school":"4"},{"start_time":1552074124140,"click_time":1552074125267,"finger_time":1552074125007,"fix_duration":250,"trial":8,"RT":867,"MT":260,"sideResp":2,"stimulus":"img/500/equaldotsize/R/12_Ratio_500_L_1_R_2.png","xmouse":[784,784,784,784,784,784,784,784,784,784,784,784,784,784,784,784,784,784,784,784,784,784,784,784,784,784,784,784,784,784,784,784,784,784,784,784,784,784,784,784,784,793,802,817,863,906,978,1074,1094,1098,1098,1098,1098,1098,1098,1098,1096],"ymouse":[487,487,487,487,487,487,487,487,487,487,487,487,487,487,487,487,487,487,487,487,487,487,487,487,487,487,487,487,487,487,487,487,487,487,487,487,487,487,487,487,487,488,481,462,392,346,289,203,162,127,114,111,110,110,109,105,97],"timestamp_mouse":[12,36,48,67,87,107,128,148,168,188,206,227,247,267,288,307,327,346,368,388,406,427,448,467,487,507,528,547,567,588,606,626,646,667,687,708,728,748,766,787,807,827,847,867,887,907,927,948,967,988,1006,1027,1047,1067,1087,1107,1127],"xSR":741.5,"ySR":469.95,"xT1":424.9,"yT1":0,"xT2":1058.1,"yT2":0,"toosoon":0,"cond_shown":"equaldotsize","ratio_trial":500,"smaller_num":"1","larger_num":"2","correct_side":2,"subjID":"violetaespitiaalonso3","gender":"1","age":"9","school":"4"},{"start_time":1552074126638,"click_time":1552074127948,"finger_time":1552074127466,"fix_duration":250,"trial":9,"RT":828,"MT":482,"sideResp":1,"stimulus":"img/500/equaldotsize/L/13_Ratio_500_L_12_R_6.png","xmouse":[782,782,782,782,784,784,784,784,784,784,784,784,784,784,784,784,784,784,784,784,784,784,784,784,784,784,784,784,784,784,784,784,784,784,784,784,784,784,784,784,784,782,776,749,633,572,540,508,466,456,452,452,452,452,452,451,456,462,464,468,471,473,476,479,481,477],"ymouse":[542,542,542,540,532,532,532,532,532,532,532,532,532,532,532,532,532,532,532,532,532,532,532,532,532,532,532,532,532,532,532,532,532,532,532,532,532,532,530,499,476,452,428,380,280,232,204,181,159,155,153,153,153,153,153,153,153,153,153,152,150,148,142,132,103,87],"timestamp_mouse":[10,34,49,68,88,110,129,149,169,189,210,229,249,270,289,309,329,348,370,389,409,428,450,468,490,510,529,548,570,589,610,629,650,669,689,709,730,750,770,789,809,828,849,869,889,909,930,949,970,989,1010,1029,1050,1069,1090,1110,1129,1150,1169,1188,1209,1228,1249,1269,1289,1310],"xSR":741.5,"ySR":469.95,"xT1":424.9,"yT1":0,"xT2":1058.1,"yT2":0,"toosoon":0,"cond_shown":"equaldotsize","ratio_trial":500,"smaller_num":"6","larger_num":"12","correct_side":1,"subjID":"violetaespitiaalonso3","gender":"1","age":"9","school":"4"},{"start_time":1552074129842,"click_time":1552074131167,"finger_time":1552074130667,"fix_duration":991.8080607200145,"trial":10,"RT":825,"MT":500,"sideResp":1,"stimulus":"img/250/equaldotsize/L/7_Ratio_250_L_8_R_2.png","xmouse":[749,749,749,749,749,749,749,749,749,749,749,749,749,749,749,749,749,749,749,749,749,749,749,749,749,749,749,749,749,749,749,749,749,749,749,749,749,749,749,749,749,665,573,502,286,286,286,286,286,286,286,286,286,286,286,286,286,286,286,286,286,286,383,401,422,424,429],"ymouse":[493,493,493,493,493,493,493,493,493,493,493,493,493,493,493,493,493,493,493,493,493,493,493,493,493,493,493,493,493,493,493,493,493,493,493,493,493,493,493,493,493,437,351,256,40,40,40,40,40,40,40,40,40,40,40,40,40,40,40,40,40,40,10,28,57,63,71],"timestamp_mouse":[14,26,45,66,86,105,125,145,166,185,204,225,245,265,286,305,326,344,365,385,405,425,446,464,484,505,525,545,565,585,605,624,646,665,685,704,724,746,766,784,806,825,846,865,885,904,924,944,964,985,1005,1026,1046,1066,1086,1105,1125,1146,1165,1186,1205,1224,1246,1266,1286,1305,1325],"xSR":741.5,"ySR":469.95,"xT1":424.9,"yT1":0,"xT2":1058.1,"yT2":0,"toosoon":0,"cond_shown":"equaldotsize","ratio_trial":250,"smaller_num":"2","larger_num":"8","correct_side":1,"subjID":"violetaespitiaalonso3","gender":"1","age":"9","school":"4"},{"start_time":1552074133648,"click_time":1552074134847,"finger_time":1552074134507,"fix_duration":338.3205242693711,"trial":11,"RT":859,"MT":340,"sideResp":1,"stimulus":"img/750/equaldotsize/L/13_Ratio_750_L_8_R_6.png","xmouse":[788,788,788,788,788,788,788,788,788,788,788,788,788,788,788,788,788,788,788,788,788,788,788,788,788,788,788,788,788,788,788,788,788,788,788,788,788,788,788,788,784,772,751,707,616,589,575,568,563,551,542,522,510,507,507,507,507,507,507,507,506],"ymouse":[546,546,546,546,546,546,546,546,546,546,546,546,546,546,546,546,546,546,546,546,546,546,546,546,546,546,546,546,546,546,546,546,546,546,546,546,546,546,546,546,545,538,514,453,329,291,271,259,248,217,189,146,113,104,104,104,104,104,104,101,85],"timestamp_mouse":[1,34,38,60,79,99,120,140,159,179,198,219,240,260,279,300,320,340,360,378,400,420,439,460,480,500,520,540,560,578,600,619,639,659,679,700,719,739,760,779,799,819,839,859,880,900,919,939,958,980,999,1018,1039,1058,1080,1100,1119,1139,1159,1179,1199],"xSR":741.5,"ySR":469.95,"xT1":424.9,"yT1":0,"xT2":1058.1,"yT2":0,"toosoon":0,"cond_shown":"equaldotsize","ratio_trial":750,"smaller_num":"6","larger_num":"8","correct_side":1,"subjID":"violetaespitiaalonso3","gender":"1","age":"9","school":"4"},{"start_time":1552074136332,"click_time":1552074137567,"finger_time":1552074137147,"fix_duration":344.3440791963317,"trial":12,"RT":815,"MT":420,"sideResp":2,"stimulus":"img/500/randomdotsizeEA/R/15_Ratio_500_L_1_R_2.png","xmouse":[789,789,789,789,789,789,789,789,789,789,789,789,789,789,789,789,789,789,789,789,789,789,789,789,789,789,789,789,789,789,789,789,789,789,789,789,789,789,796,803,845,874,917,942,956,973,976,980,985,989,995,1003,1005,1005,1007,1008,1012,1017,1023,1042,1056,1071],"ymouse":[489,489,489,489,489,489,489,489,489,489,489,489,489,489,489,489,489,489,489,489,489,489,489,489,489,489,489,489,489,489,489,489,489,489,489,489,489,489,489,488,468,442,376,325,280,228,218,211,207,199,170,142,126,111,103,102,102,102,101,96,92,81],"timestamp_mouse":[15,46,56,75,95,116,135,156,176,194,215,235,255,276,295,314,335,356,376,394,415,436,455,476,496,516,536,554,576,595,616,636,654,676,695,716,735,755,775,795,815,835,854,876,895,915,935,955,975,995,1015,1035,1055,1076,1096,1115,1134,1155,1175,1196,1215,1235],"xSR":741.5,"ySR":469.95,"xT1":424.9,"yT1":0,"xT2":1058.1,"yT2":0,"toosoon":0,"cond_shown":"randomdotsizeEA","ratio_trial":500,"smaller_num":"1","larger_num":"2","correct_side":2,"subjID":"violetaespitiaalonso3","gender":"1","age":"9","school":"4"},{"start_time":1552074140816,"click_time":1552074142667,"finger_time":1552074141667,"fix_duration":707.1349889780449,"trial":13,"RT":851,"MT":1000,"sideResp":1,"stimulus":"img/900/equaldotanddens/R/5_Ratio_900_L_9_R_10.png","xmouse":[804,804,804,804,804,804,804,804,804,804,804,804,804,804,804,804,804,804,804,804,804,804,804,804,804,804,804,804,804,804,804,804,804,804,804,804,804,804,804,804,804,797,788,785,783,783,783,783,783,783,783,783,773,735,696,696,705,706,706,676,597,402,322,295,294,294,294,292,292,292,292,292,292,292,292,292,292,292,292,292,292,292,292,292,292,292,292,292,292,292,416,423,427],"ymouse":[529,529,529,529,529,529,529,529,529,529,529,529,529,529,529,529,529,529,529,529,529,529,529,529,529,529,529,529,529,529,529,529,529,529,529,529,529,529,529,529,529,561,637,684,692,692,692,692,692,692,692,692,676,645,628,628,629,630,628,594,502,226,117,86,86,86,86,86,86,86,77,6,6,6,6,6,6,6,6,6,6,6,6,6,6,6,6,6,6,6,2,16,19],"timestamp_mouse":[10,36,51,72,92,111,131,152,171,191,211,231,250,272,292,311,331,351,372,390,411,432,451,470,490,512,531,552,571,592,612,632,652,671,692,712,732,752,771,791,812,832,851,872,891,911,931,951,970,992,1011,1031,1050,1071,1091,1111,1131,1151,1171,1191,1211,1231,1250,1271,1292,1312,1331,1351,1372,1391,1411,1431,1450,1471,1492,1511,1531,1551,1572,1591,1611,1632,1651,1671,1692,1712,1732,1752,1772,1791,1810,1831,1851],"xSR":741.5,"ySR":469.95,"xT1":424.9,"yT1":0,"xT2":1058.1,"yT2":0,"toosoon":0,"cond_shown":"equaldotanddens","ratio_trial":900,"smaller_num":"9","larger_num":"10","correct_side":2,"subjID":"violetaespitiaalonso3","gender":"1","age":"9","school":"4"},{"start_time":1552074147719,"click_time":1552074150948,"finger_time":1552074150507,"fix_duration":250,"trial":14,"RT":2788,"MT":441,"sideResp":2,"stimulus":"img/250/equaldotsize/R/4_Ratio_250_L_3_R_12.png","xmouse":[779,779,779,779,779,779,779,779,779,779,779,779,779,779,779,779,779,779,779,779,779,779,779,779,779,779,779,779,779,779,779,779,779,779,779,779,779,779,779,779,779,779,779,779,779,779,779,779,779,779,779,779,779,779,779,779,779,779,779,779,779,779,779,779,779,779,779,779,779,779,779,779,779,779,779,779,779,779,779,779,779,779,779,779,779,779,779,779,779,779,779,779,779,779,779,779,779,779,779,779,779,779,779,779,779,779,779,779,779,779,779,779,779,779,779,779,779,779,779,779,779,779,779,779,779,779,779,779,779,779,779,779,779,779,779,779,779,779,779,816,867,893,946,946,946,946,946,946,946,946,946,946,946,946,946,946,946,946,946,946,946,1100],"ymouse":[512,512,512,512,512,512,512,512,512,512,512,512,512,512,512,512,512,512,512,512,512,512,512,512,512,512,512,512,512,512,512,512,512,512,512,512,512,512,512,512,512,512,512,512,512,512,512,512,512,512,512,512,512,512,512,512,512,512,512,512,512,512,512,512,512,512,512,512,512,512,512,512,512,512,512,512,512,512,512,512,512,512,512,512,512,512,512,512,512,512,512,512,512,512,512,512,512,512,512,512,512,512,512,512,512,512,512,512,512,512,512,512,512,512,512,512,512,512,512,512,512,512,512,512,512,512,512,512,512,512,512,512,512,512,512,512,512,512,512,446,338,233,20,20,20,20,20,20,20,20,20,20,20,20,20,20,20,20,20,20,20,11],"timestamp_mouse":[10,29,47,69,88,107,129,149,169,189,209,228,248,268,289,309,329,349,368,389,408,429,449,469,489,509,528,549,569,589,608,627,649,668,688,708,729,749,769,788,809,829,849,867,888,909,928,948,969,988,1009,1028,1049,1069,1088,1108,1129,1149,1168,1188,1208,1228,1247,1269,1289,1308,1328,1349,1368,1387,1409,1428,1449,1469,1487,1509,1528,1549,1568,1589,1609,1627,1648,1668,1688,1708,1728,1748,1768,1788,1809,1827,1848,1869,1888,1908,1929,1947,1967,1989,2008,2029,2049,2068,2088,2109,2129,2149,2169,2189,2209,2229,2249,2269,2288,2308,2328,2348,2369,2388,2408,2428,2447,2467,2487,2509,2529,2548,2569,2589,2608,2629,2648,2669,2689,2709,2728,2749,2768,2788,2809,2828,2848,2868,2888,2908,2928,2948,2968,2989,3008,3028,3048,3067,3087,3109,3129,3148,3168,3189,3209,3229],"xSR":741.5,"ySR":469.95,"xT1":424.9,"yT1":0,"xT2":1058.1,"yT2":0,"toosoon":0,"cond_shown":"equaldotsize","ratio_trial":250,"smaller_num":"3","larger_num":"12","correct_side":2,"subjID":"violetaespitiaalonso3","gender":"1","age":"9","school":"4"},{"start_time":1552074153037,"click_time":1552074154687,"finger_time":1552074154086,"fix_duration":368.86887500996136,"trial":15,"RT":1049,"MT":601,"sideResp":2,"stimulus":"img/750/equaldotsize/R/11_Ratio_750_L_12_R_16.png","xmouse":[792,792,792,792,792,792,792,792,792,792,792,792,792,792,792,792,792,792,792,792,792,792,792,792,792,792,792,792,792,792,792,792,792,792,792,792,792,792,792,792,792,792,792,792,792,792,792,792,792,790,791,800,817,824,827,831,835,846,852,856,856,856,860,865,874,891,949,963,973,980,987,994,999,1001,1001,1001,1001,1001,1003,1008,1036,1055,1095],"ymouse":[539,539,539,539,539,539,539,539,539,539,539,539,539,539,539,539,539,539,539,539,539,539,539,539,539,539,539,539,539,539,539,539,539,539,539,539,539,539,539,539,539,539,539,539,539,539,539,539,539,536,519,486,428,404,394,381,369,331,309,287,283,270,248,233,216,191,132,117,105,96,87,79,73,71,71,71,71,71,71,70,65,63,61],"timestamp_mouse":[10,38,50,70,90,109,131,151,171,191,210,230,250,270,290,311,330,351,369,389,410,430,450,471,489,511,530,550,571,589,610,631,650,669,691,710,730,751,770,790,810,831,851,871,890,910,930,951,970,990,1010,1030,1049,1069,1090,1110,1130,1150,1170,1189,1210,1230,1250,1269,1290,1310,1331,1350,1369,1390,1410,1430,1450,1470,1490,1509,1531,1550,1570,1591,1611,1630,1650],"xSR":741.5,"ySR":469.95,"xT1":424.9,"yT1":0,"xT2":1058.1,"yT2":0,"toosoon":0,"cond_shown":"equaldotsize","ratio_trial":750,"smaller_num":"12","larger_num":"16","correct_side":2,"subjID":"violetaespitiaalonso3","gender":"1","age":"9","school":"4"},{"start_time":1552074156579,"click_time":1552074157887,"finger_time":1552074157387,"fix_duration":250,"trial":16,"RT":808,"MT":500,"sideResp":1,"stimulus":"img/900/equaldotsize/L/1_Ratio_900_L_10_R_9.png","xmouse":[789,789,789,789,789,789,789,789,789,789,789,789,789,789,789,789,789,789,789,789,789,789,789,789,789,789,789,789,789,789,789,789,789,789,789,789,789,789,789,789,767,758,731,715,702,664,638,606,572,572,572,572,572,572,572,572,572,572,572,572,572,572,572,572,572,449],"ymouse":[499,499,499,499,499,499,499,499,499,499,499,499,499,499,499,499,499,499,499,499,499,499,499,499,499,499,499,499,499,499,499,499,499,499,499,499,499,499,499,495,460,451,429,415,398,334,250,142,30,30,30,30,30,30,30,30,30,30,30,30,30,30,30,30,30,17],"timestamp_mouse":[15,40,48,69,88,107,129,148,169,189,207,229,247,267,289,308,327,348,368,389,409,429,447,469,487,508,528,548,569,588,609,629,649,667,687,707,729,749,768,787,808,828,848,867,887,908,927,947,968,987,1008,1029,1049,1069,1089,1109,1129,1148,1168,1188,1208,1227,1247,1268,1288,1307],"xSR":741.5,"ySR":469.95,"xT1":424.9,"yT1":0,"xT2":1058.1,"yT2":0,"toosoon":0,"cond_shown":"equaldotsize","ratio_trial":900,"smaller_num":"9","larger_num":"10","correct_side":1,"subjID":"violetaespitiaalonso3","gender":"1","age":"9","school":"4"},{"start_time":1552074160019,"click_time":1552074161188,"finger_time":1552074160808,"fix_duration":671.2196610385619,"trial":17,"RT":789,"MT":380,"sideResp":2,"stimulus":"img/500/equaldotsize/R/1_Ratio_500_L_9_R_18.png","xmouse":[772,769,769,765,764,764,764,764,764,764,764,764,764,764,764,764,764,764,764,763,763,760,757,756,754,754,754,754,754,754,754,754,754,754,754,754,754,754,809,862,919,983,1062,1125,1168,1171,1171,1174,1179,1180,1180,1180,1180,1179,1175,1167,1155,1141,1105],"ymouse":[540,536,536,532,532,532,532,531,531,531,531,531,531,531,531,531,531,531,531,531,530,528,526,525,525,525,525,525,525,525,525,525,525,525,525,525,525,524,484,456,428,392,338,291,231,208,188,170,147,144,142,142,141,138,135,129,121,112,94],"timestamp_mouse":[13,37,47,67,87,107,128,148,168,187,209,227,248,268,287,308,329,348,368,388,408,429,448,467,489,508,529,547,567,589,609,628,648,668,689,707,729,749,768,789,807,827,848,868,888,907,928,948,968,988,1008,1027,1048,1068,1087,1108,1129,1148,1168],"xSR":741.5,"ySR":469.95,"xT1":424.9,"yT1":0,"xT2":1058.1,"yT2":0,"toosoon":0,"cond_shown":"equaldotsize","ratio_trial":500,"smaller_num":"9","larger_num":"18","correct_side":2,"subjID":"violetaespitiaalonso3","gender":"1","age":"9","school":"4"},{"start_time":1552074168519,"click_time":1552074169866,"finger_time":1552074169227,"fix_duration":250,"trial":18,"RT":708,"MT":639,"sideResp":2,"stimulus":"img/250/randomdotsizeEA/R/4_Ratio_250_L_3_R_12.png","xmouse":[787,787,787,787,787,787,787,787,787,787,787,787,787,787,787,787,787,788,788,788,788,788,788,788,788,788,788,788,788,788,788,789,790,798,830,853,883,916,945,1015,1034,1049,1062,1069,1081,1085,1086,1086,1086,1094,1097,1097,1097,1098,1098,1098,1098,1098,1098,1097,1097,1097,1097,1097,1097,1097,1097,1097],"ymouse":[510,510,510,510,510,510,510,510,510,510,510,510,510,510,510,510,510,510,510,510,510,510,510,510,510,510,510,510,510,510,510,510,510,506,488,478,464,447,430,373,346,322,298,281,254,244,240,236,225,193,179,162,144,131,121,119,117,114,108,102,101,101,101,101,101,101,100,99],"timestamp_mouse":[10,40,48,68,87,109,128,147,168,188,207,227,248,268,289,308,328,347,368,389,407,427,448,467,488,509,528,548,569,588,608,628,649,667,688,708,728,748,768,789,808,828,847,867,888,908,928,947,968,988,1008,1028,1049,1067,1088,1107,1128,1149,1169,1188,1207,1227,1249,1268,1288,1307,1327,1347],"xSR":741.5,"ySR":469.95,"xT1":424.9,"yT1":0,"xT2":1058.1,"yT2":0,"toosoon":0,"cond_shown":"randomdotsizeEA","ratio_trial":250,"smaller_num":"3","larger_num":"12","correct_side":2,"subjID":"violetaespitiaalonso3","gender":"1","age":"9","school":"4"},{"start_time":1552074176218,"click_time":1552074178566,"finger_time":1552074176987,"fix_duration":250,"trial":19,"RT":769,"MT":1579,"sideResp":1,"stimulus":"img/750/equaldotanddens/L/14_Ratio_750_L_8_R_6.png","xmouse":[764,764,764,764,764,764,764,764,764,764,764,764,764,764,764,764,764,764,764,764,764,764,764,764,764,764,764,764,764,764,764,764,764,764,764,764,764,753,741,730,730,724,716,703,692,656,638,625,624,624,624,624,624,623,621,618,614,603,586,556,518,518,517,517,515,514,514,513,513,512,512,511,510,508,508,506,506,506,506,506,505,505,505,504,503,503,503,502,502,502,502,502,502,502,502,502,502,502,502,502,502,502,502,502,502,502,502,502,502,502,502,502,502,502,502,502,502,502],"ymouse":[527,527,527,527,527,527,527,527,527,527,527,527,527,527,527,527,527,527,527,527,527,527,527,527,527,527,527,527,527,527,527,527,527,527,527,527,527,539,547,553,553,548,522,466,413,312,279,260,255,251,247,243,237,233,230,227,223,216,207,196,181,181,181,180,178,169,163,158,153,149,146,145,143,141,140,138,138,138,138,138,131,127,125,121,118,116,114,112,111,110,109,109,109,109,108,107,106,105,105,105,105,105,105,105,105,105,105,105,104,104,104,103,103,103,102,102,101,99],"timestamp_mouse":[16,29,49,69,89,110,130,149,168,189,208,229,250,270,290,309,329,350,369,390,409,430,449,470,489,508,529,550,570,590,608,630,650,670,689,708,729,749,769,789,809,830,848,870,888,909,928,949,969,989,1009,1030,1049,1069,1089,1109,1128,1149,1168,1189,1209,1230,1250,1270,1289,1310,1328,1348,1369,1389,1409,1429,1448,1468,1489,1509,1528,1548,1569,1588,1609,1629,1648,1668,1688,1710,1728,1748,1768,1789,1808,1828,1848,1869,1888,1909,1928,1950,1970,1988,2009,2028,2048,2069,2089,2110,2130,2149,2169,2190,2209,2229,2250,2269,2288,2308,2328,2348],"xSR":741.5,"ySR":469.95,"xT1":424.9,"yT1":0,"xT2":1058.1,"yT2":0,"toosoon":0,"cond_shown":"equaldotanddens","ratio_trial":750,"smaller_num":"6","larger_num":"8","correct_side":1,"subjID":"violetaespitiaalonso3","gender":"1","age":"9","school":"4"},{"start_time":1552074181716,"click_time":1552074183147,"finger_time":1552074182547,"fix_duration":887.2312354463946,"trial":20,"RT":831,"MT":600,"sideResp":1,"stimulus":"img/500/randomdotsizeEA/L/4_Ratio_500_L_18_R_9.png","xmouse":[795,795,795,795,795,795,795,795,795,795,795,795,795,795,795,795,795,795,795,795,795,795,795,795,795,795,795,795,795,795,795,795,795,795,795,795,795,795,793,787,773,740,722,716,712,706,696,689,683,675,667,643,627,618,613,606,598,595,592,590,586,575,556,537,523,518,515,515,515,515,515,516],"ymouse":[553,553,553,553,553,553,553,553,553,553,553,553,553,553,553,553,553,553,553,553,553,553,553,553,553,553,553,553,553,553,553,553,553,553,553,553,553,553,551,547,543,539,534,532,530,527,519,513,508,501,494,474,453,432,412,387,336,311,293,280,266,233,197,169,142,126,110,107,106,105,103,99],"timestamp_mouse":[15,41,50,70,90,111,132,151,172,192,210,232,252,271,292,311,330,352,372,392,410,432,452,471,490,511,532,551,572,592,611,632,652,671,691,711,732,751,770,791,811,831,851,871,891,911,931,952,971,990,1010,1031,1050,1071,1091,1112,1131,1151,1171,1191,1211,1231,1250,1270,1291,1310,1331,1350,1371,1392,1412,1431],"xSR":741.5,"ySR":469.95,"xT1":424.9,"yT1":0,"xT2":1058.1,"yT2":0,"toosoon":0,"cond_shown":"randomdotsizeEA","ratio_trial":500,"smaller_num":"9","larger_num":"18","correct_side":1,"subjID":"violetaespitiaalonso3","gender":"1","age":"9","school":"4"},{"start_time":1552074185391,"click_time":1552074187026,"finger_time":1552074186387,"fix_duration":1483.945621582732,"trial":21,"RT":996,"MT":639,"sideResp":1,"stimulus":"img/500/equaldotsize/L/10_Ratio_500_L_4_R_2.png","xmouse":[794,794,794,794,794,794,794,794,794,794,794,794,794,794,794,794,794,794,794,794,794,794,794,794,794,794,794,794,794,794,794,794,794,794,794,794,794,794,794,794,794,794,794,794,794,794,786,772,758,748,741,734,718,709,700,691,681,653,643,633,618,601,546,515,490,448,436,409,408,408,408,408,408,408,408,408,408,412,416,420,422,427],"ymouse":[543,543,543,543,543,543,543,543,543,543,543,543,543,543,543,543,543,543,543,543,543,543,543,543,543,543,543,543,543,543,543,543,543,543,543,543,543,543,543,543,543,543,543,543,543,543,538,522,471,440,421,400,363,342,319,295,272,228,215,203,193,182,151,134,124,108,106,100,100,100,99,99,99,98,97,97,96,93,92,90,88,85],"timestamp_mouse":[16,46,56,76,96,117,137,155,177,197,217,236,256,276,297,327,336,356,377,397,416,436,455,477,497,517,536,555,576,596,615,636,655,677,697,716,737,756,777,795,816,835,856,877,897,917,935,955,976,996,1017,1036,1056,1076,1095,1116,1136,1157,1175,1195,1217,1236,1257,1276,1296,1315,1335,1357,1376,1395,1416,1436,1456,1476,1495,1516,1537,1556,1576,1595,1616,1635],"xSR":741.5,"ySR":469.95,"xT1":424.9,"yT1":0,"xT2":1058.1,"yT2":0,"toosoon":0,"cond_shown":"equaldotsize","ratio_trial":500,"smaller_num":"2","larger_num":"4","correct_side":1,"subjID":"violetaespitiaalonso3","gender":"1","age":"9","school":"4"},{"start_time":1552074192435,"click_time":1552074193988,"finger_time":1552074193287,"fix_duration":1426.6710160295693,"trial":22,"RT":852,"MT":701,"sideResp":2,"stimulus":"img/500/equaldotsize/R/9_Ratio_500_L_2_R_4.png","xmouse":[760,760,760,760,760,760,760,760,760,760,760,760,760,760,760,760,760,760,760,760,760,760,760,760,760,760,760,760,760,760,760,760,760,760,760,760,760,760,760,760,762,772,804,833,877,947,1083,1135,1170,1191,1202,1212,1215,1216,1216,1217,1218,1218,1218,1218,1218,1218,1218,1218,1218,1218,1218,1216,1211,1207,1204,1199,1193,1184,1174,1167,1160,1158],"ymouse":[554,554,554,554,554,554,554,554,554,554,554,554,554,554,554,554,554,554,554,554,554,554,554,554,554,554,554,554,554,554,554,554,554,554,554,554,554,554,554,554,551,528,463,424,373,314,223,186,153,130,115,100,96,94,93,93,91,90,90,90,90,90,90,90,90,90,91,93,94,94,95,95,95,94,92,91,90,89],"timestamp_mouse":[12,34,51,73,91,113,132,152,173,191,213,233,251,272,292,313,332,352,372,392,412,432,453,472,493,511,531,553,573,592,611,632,653,671,693,713,731,752,773,792,812,831,852,873,893,912,932,953,972,991,1012,1032,1052,1071,1091,1113,1133,1151,1172,1192,1212,1232,1251,1272,1292,1312,1332,1351,1372,1393,1412,1432,1451,1472,1492,1513,1532,1553],"xSR":741.5,"ySR":469.95,"xT1":424.9,"yT1":0,"xT2":1058.1,"yT2":0,"toosoon":0,"cond_shown":"equaldotsize","ratio_trial":500,"smaller_num":"2","larger_num":"4","correct_side":2,"subjID":"violetaespitiaalonso3","gender":"1","age":"9","school":"4"},{"start_time":1552074251675,"click_time":1552074252507,"finger_time":1552074252466,"fix_duration":1246.862850718839,"trial":23,"RT":791,"MT":41,"sideResp":1,"stimulus":"img/500/randomdotsizeEA/L/8_Ratio_500_L_8_R_4.png","xmouse":[819,819,819,819,819,819,819,819,819,819,819,819,819,819,819,819,819,819,819,819,819,819,819,819,819,819,819,819,819,819,819,819,819,819,819,819,819,818,810,725,603,450],"ymouse":[532,532,532,532,532,532,532,532,532,532,532,532,532,532,532,532,532,532,532,532,532,532,532,532,532,532,532,532,532,532,532,532,532,532,532,532,532,532,522,406,243,65],"timestamp_mouse":[11,41,51,71,92,111,131,153,172,192,212,233,251,272,291,311,332,351,371,391,412,432,451,471,491,511,531,553,572,592,613,632,652,671,692,711,732,751,772,791,811,831],"xSR":741.5,"ySR":469.95,"xT1":424.9,"yT1":0,"xT2":1058.1,"yT2":0,"toosoon":0,"cond_shown":"randomdotsizeEA","ratio_trial":500,"smaller_num":"4","larger_num":"8","correct_side":1,"subjID":"violetaespitiaalonso3","gender":"1","age":"9","school":"4"},{"start_time":1552074254801,"click_time":1552074257187,"finger_time":1552074256686,"fix_duration":492.28371127454926,"trial":24,"RT":1885,"MT":501,"sideResp":1,"stimulus":"img/250/equaldotanddens/L/7_Ratio_250_L_8_R_2.png","xmouse":[794,794,794,794,794,794,794,794,794,794,794,794,794,794,794,794,794,794,794,794,794,794,794,794,794,794,794,794,794,794,794,794,794,794,794,794,794,794,794,794,794,794,794,794,794,794,794,794,794,794,794,794,794,794,794,794,794,794,794,794,794,794,794,794,794,794,794,794,794,794,794,794,794,794,794,794,794,794,794,794,794,794,794,794,794,794,794,794,794,791,790,787,787,782,753,708,676,673,673,673,673,673,673,673,673,673,673,673,673,673,673,673,673,673,673,673,662,629,562,468],"ymouse":[498,498,498,498,498,498,498,498,498,498,498,498,498,498,498,498,498,498,498,498,498,498,498,498,498,498,498,498,498,498,498,498,498,498,498,498,498,498,498,498,498,498,498,498,498,498,498,498,498,498,498,498,498,498,498,498,498,498,498,498,498,498,498,498,498,498,498,498,498,498,498,498,498,498,498,498,498,498,498,498,498,498,498,498,498,498,498,498,498,502,513,528,528,518,428,318,207,198,196,195,195,195,195,195,195,195,195,195,195,195,195,195,195,195,195,195,185,152,83,6],"timestamp_mouse":[12,27,45,66,87,105,125,146,167,186,205,225,246,266,286,306,326,345,366,386,407,426,445,466,486,507,526,545,566,586,606,626,646,666,687,705,725,745,765,785,805,826,845,866,885,905,926,946,966,985,1005,1026,1045,1066,1086,1105,1126,1146,1165,1186,1206,1226,1246,1265,1285,1305,1326,1345,1366,1386,1405,1426,1446,1465,1485,1505,1527,1546,1565,1585,1605,1626,1646,1665,1687,1705,1725,1745,1767,1787,1806,1826,1846,1865,1885,1906,1927,1945,1966,1985,2006,2027,2046,2065,2086,2106,2126,2145,2166,2185,2206,2225,2245,2266,2286,2306,2326,2345,2365,2386],"xSR":741.5,"ySR":469.95,"xT1":424.9,"yT1":0,"xT2":1058.1,"yT2":0,"toosoon":0,"cond_shown":"equaldotanddens","ratio_trial":250,"smaller_num":"2","larger_num":"8","correct_side":1,"subjID":"violetaespitiaalonso3","gender":"1","age":"9","school":"4"},{"start_time":1552074261112,"click_time":1552074265467,"finger_time":1552074262526,"fix_duration":541.2814013921668,"trial":25,"RT":1414,"MT":2941,"sideResp":2,"stimulus":"img/900/randomdotsizeEA/R/12_Ratio_900_L_18_R_20.png","xmouse":[750,750,750,750,750,750,750,750,750,750,750,750,750,750,750,750,750,750,750,750,750,750,750,750,750,750,750,750,750,750,750,750,750,750,750,750,750,750,750,750,750,750,750,750,750,750,750,750,750,750,750,750,750,750,750,750,750,750,750,750,750,750,750,750,750,750,750,750,750,756,936,1106,1278,1396,1436,1438,1438,1438,1438,1438,1438,1438,1438,1438,1438,1438,1438,1438,1438,1438,1438,1439,1439,1439,1439,1438,1438,1437,1436,1436,1436,1431,1419,1400,1372,1326,1322,1322,1321,1321,1321,1321,1321,1321,1314,1265,1179,1048,922,867,870,873,873,873,873,873,873,873,873,872,872,871,871,871,871,872,878,885,901,923,981,992,994,994,994,995,996,996,997,997,999,999,1001,1001,1003,1007,1008,1009,1011,1011,1013,1017,1021,1024,1026,1028,1030,1031,1031,1033,1035,1035,1035,1037,1038,1043,1043,1044,1045,1045,1046,1046,1048,1049,1050,1053,1055,1058,1060,1061,1061,1064,1065,1067,1068,1071,1072,1073,1074,1075,1076,1077,1077,1077,1077,1077,1078,1079,1079,1079,1079,1079,1080,1080,1080,1080,1080,1080],"ymouse":[546,546,546,546,546,546,546,546,546,546,546,546,546,546,546,546,546,546,546,546,546,546,546,546,546,546,546,546,546,546,546,546,546,546,546,546,546,546,546,546,546,546,546,546,546,546,546,546,546,546,546,546,546,546,546,546,546,546,546,546,546,546,546,546,546,546,546,546,546,534,400,312,246,217,210,210,210,210,210,210,210,210,210,210,210,210,210,210,210,210,210,210,210,209,208,205,204,203,203,203,203,203,203,203,203,202,202,202,202,202,202,202,202,201,197,178,142,91,66,61,61,61,61,61,61,61,61,61,61,61,61,63,65,66,68,72,73,74,76,78,81,81,81,81,81,81,81,81,81,81,81,81,81,81,81,81,81,81,81,81,82,82,82,82,82,82,83,83,84,84,87,87,89,92,96,107,109,110,111,111,111,111,111,111,111,111,111,111,111,111,111,111,111,111,111,110,109,109,108,107,107,106,106,106,106,104,103,102,102,102,101,101,100,100,100,100,100,99],"timestamp_mouse":[16,44,54,74,94,115,136,154,174,194,215,236,255,275,295,315,334,355,374,395,414,434,454,474,494,515,534,554,576,595,615,634,655,676,695,714,734,755,775,794,815,834,854,874,896,916,935,954,975,996,1014,1034,1056,1074,1095,1114,1135,1154,1175,1195,1214,1234,1254,1275,1295,1314,1335,1356,1375,1394,1414,1435,1454,1474,1495,1515,1534,1554,1575,1594,1614,1636,1656,1675,1695,1715,1735,1756,1775,1795,1814,1835,1854,1874,1894,1914,1934,1954,1974,1996,2015,2034,2056,2076,2094,2115,2134,2155,2174,2195,2215,2234,2256,2276,2295,2315,2334,2356,2375,2395,2415,2436,2455,2474,2494,2514,2534,2555,2574,2594,2614,2635,2654,2675,2695,2715,2734,2754,2775,2796,2815,2834,2855,2874,2895,2915,2935,2954,2975,2994,3015,3034,3055,3076,3096,3114,3134,3155,3175,3194,3215,3236,3255,3275,3295,3315,3336,3354,3374,3395,3414,3434,3454,3474,3496,3514,3534,3554,3574,3594,3615,3634,3654,3674,3695,3715,3736,3754,3776,3795,3815,3834,3854,3875,3894,3915,3934,3956,3976,3996,4015,4035,4054,4075,4095,4114,4135,4154,4175,4195,4215,4234,4254,4274,4294,4315,4335,4355],"xSR":741.5,"ySR":469.95,"xT1":424.9,"yT1":0,"xT2":1058.1,"yT2":0,"toosoon":0,"cond_shown":"randomdotsizeEA","ratio_trial":900,"smaller_num":"18","larger_num":"20","correct_side":2,"subjID":"violetaespitiaalonso3","gender":"1","age":"9","school":"4"},{"start_time":1552074279339,"click_time":1552074281807,"finger_time":1552074280548,"fix_duration":750.4136266178864,"trial":26,"RT":1209,"MT":1259,"sideResp":1,"stimulus":"img/900/equaldotsize/R/11_Ratio_900_L_18_R_20.png","xmouse":[834,834,834,834,834,834,834,834,834,834,834,834,834,834,834,834,834,834,834,834,834,834,834,834,834,834,834,834,834,834,834,834,834,834,834,834,834,834,834,834,834,834,834,834,834,834,834,834,834,834,834,834,834,834,834,834,834,833,826,812,794,757,756,755,754,754,754,752,748,740,735,731,716,709,703,698,694,692,688,685,681,673,665,658,655,652,632,623,617,612,608,594,587,580,573,566,558,557,555,553,548,539,536,534,532,532,532,531,531,530,529,528,527,526,524,522,518,516,516,516,515,515,515,515],"ymouse":[546,546,546,546,546,546,546,546,546,546,546,546,546,546,546,546,546,546,546,546,546,546,546,546,546,546,546,546,546,546,546,546,546,546,546,546,546,546,546,546,546,546,546,546,546,546,546,546,546,546,546,546,546,546,546,546,546,531,507,475,443,392,387,372,357,346,321,314,306,298,293,292,277,268,261,252,242,236,231,223,215,205,200,196,195,193,188,187,185,185,185,185,183,182,182,182,181,180,179,176,171,159,150,141,134,127,122,118,115,114,112,111,110,109,107,105,104,103,102,102,102,102,100,99],"timestamp_mouse":[10,38,48,68,87,108,128,148,167,188,209,229,247,268,288,307,328,348,368,388,409,427,448,468,488,507,527,548,569,587,608,628,647,668,687,707,727,748,768,789,808,827,848,868,888,907,929,947,968,988,1007,1027,1047,1068,1088,1108,1127,1148,1167,1188,1209,1228,1247,1268,1287,1307,1328,1347,1368,1387,1407,1427,1447,1468,1487,1509,1528,1548,1568,1588,1607,1628,1647,1667,1688,1708,1728,1749,1769,1788,1808,1828,1847,1868,1887,1907,1928,1949,1968,1987,2009,2027,2047,2068,2088,2107,2128,2148,2167,2187,2208,2228,2247,2268,2289,2308,2327,2347,2367,2388,2408,2427,2448,2468],"xSR":741.5,"ySR":469.95,"xT1":424.9,"yT1":0,"xT2":1058.1,"yT2":0,"toosoon":0,"cond_shown":"equaldotsize","ratio_trial":900,"smaller_num":"18","larger_num":"20","correct_side":2,"subjID":"violetaespitiaalonso3","gender":"1","age":"9","school":"4"},{"start_time":1552074288847,"click_time":1552074292788,"finger_time":1552074289648,"fix_duration":859.6020711606875,"trial":27,"RT":801,"MT":3140,"sideResp":2,"stimulus":"img/250/equaldotanddens/R/4_Ratio_250_L_3_R_12.png","xmouse":[809,809,809,809,809,809,809,809,809,809,809,809,809,809,809,809,809,809,809,809,809,809,809,809,809,809,809,809,809,809,809,809,809,809,809,809,809,809,809,818,852,917,1040,1050,1054,1064,1086,1114,1121,1129,1141,1155,1182,1191,1194,1194,1186,1169,1169,1169,1169,1169,1168,1168,1168,1168,1168,1173,1181,1191,1199,1203,1204,1204,1204,1204,1204,1204,1204,1204,1204,1204,1204,1204,1204,1204,1204,1204,1204,1204,1204,1204,1204,1204,1204,1204,1204,1204,1204,1204,1204,1204,1204,1204,1204,1204,1204,1204,1204,1204,1204,1204,1204,1204,1204,1204,1204,1204,1204,1204,1204,1204,1204,1204,1204,1204,1204,1204,1204,1204,1204,1204,1204,1204,1204,1204,1204,1204,1204,1204,1204,1204,1204,1204,1204,1204,1204,1204,1204,1204,1204,1204,1204,1204,1204,1204,1204,1204,1204,1204,1204,1204,1204,1204,1204,1204,1204,1204,1204,1204,1204,1204,1204,1204,1204,1204,1204,1204,1204,1204,1217,1238,1285,1295,1297,1297,1297,1297,1297,1297,1297,1297,1297,1297,1297,1297,1297,1059],"ymouse":[510,510,510,510,510,510,510,510,510,510,510,510,510,510,510,510,510,510,510,510,510,510,510,510,510,510,510,510,510,510,510,510,510,510,510,510,510,510,510,510,509,501,481,475,469,455,425,377,358,335,315,298,264,243,220,196,173,143,143,143,143,143,143,143,143,143,143,158,175,194,210,221,225,225,225,225,225,225,225,225,225,225,225,225,225,225,225,225,225,225,225,225,225,225,225,225,225,225,225,225,225,222,220,220,220,220,220,220,220,220,220,220,220,220,220,220,220,220,220,220,220,220,220,220,220,220,220,220,220,220,220,220,220,220,220,220,220,220,220,220,220,220,220,220,220,220,220,220,220,220,220,220,220,220,220,220,220,220,220,220,220,220,220,220,220,220,220,220,220,220,220,220,220,220,220,220,220,220,220,219,199,164,56,19,0,0,0,0,0,0,0,0,0,0,0,0,0,6],"timestamp_mouse":[6,30,40,59,79,101,119,139,159,179,200,219,239,259,280,300,319,339,359,381,399,419,440,459,479,499,519,539,560,580,599,619,639,660,680,700,721,740,759,779,801,821,839,859,879,899,919,940,959,980,999,1019,1039,1059,1079,1101,1120,1140,1159,1179,1200,1220,1240,1259,1279,1299,1319,1339,1359,1380,1399,1420,1439,1459,1480,1500,1521,1541,1560,1579,1600,1619,1639,1659,1680,1700,1720,1741,1761,1780,1800,1819,1840,1859,1879,1899,1919,1940,1960,1979,2000,2019,2039,2059,2079,2100,2120,2139,2159,2179,2200,2219,2240,2259,2280,2299,2319,2340,2359,2380,2401,2420,2440,2459,2479,2500,2519,2540,2559,2581,2600,2620,2641,2659,2679,2700,2720,2739,2759,2779,2800,2820,2840,2860,2881,2900,2920,2939,2960,2980,3001,3020,3039,3060,3080,3100,3120,3139,3160,3180,3200,3220,3240,3260,3279,3299,3321,3341,3360,3380,3400,3419,3439,3459,3479,3499,3519,3539,3560,3581,3599,3619,3640,3659,3680,3700,3720,3739,3760,3780,3799,3820,3840,3860,3880,3900,3920,3940],"xSR":741.5,"ySR":469.95,"xT1":424.9,"yT1":0,"xT2":1058.1,"yT2":0,"toosoon":0,"cond_shown":"equaldotanddens","ratio_trial":250,"smaller_num":"3","larger_num":"12","correct_side":2,"subjID":"violetaespitiaalonso3","gender":"1","age":"9","school":"4"},{"start_time":1552074329334,"click_time":1552074336826,"finger_time":1552074332686,"fix_duration":1464.950261052541,"trial":28,"RT":3352,"MT":4140,"sideResp":1,"stimulus":"img/900/randomdotsizeEA/L/8_Ratio_900_L_20_R_18.png","xmouse":[837,837,837,837,837,837,837,837,837,837,837,837,837,837,837,837,837,837,837,837,837,837,837,837,837,837,837,837,837,837,837,837,837,837,837,837,837,837,837,837,837,837,837,837,837,837,837,837,837,837,837,837,837,837,837,837,837,837,837,837,837,837,837,837,837,837,837,837,837,837,837,837,837,837,837,837,837,837,836,836,836,836,836,836,837,839,837,829,828,828,828,828,828,828,828,828,828,828,828,828,826,823,819,816,815,814,814,814,814,814,814,814,814,813,811,811,811,810,810,809,808,807,807,807,807,807,807,807,807,807,807,807,807,807,807,807,807,807,806,806,807,807,807,807,807,806,805,805,801,796,792,792,792,792,792,792,792,792,791,791,791,791,791,791,796,803,819,867,888,899,903,903,903,903,897,891,889,889,886,880,870,856,835,830,828,828,828,827,825,824,824,824,823,822,821,820,818,816,814,813,811,810,809,808,808,808,808,808,807,807,807,807,807,807,807,807,807,821,837,862,892,941,999,1019,1031,1038,1039,1048,1055,1058,1062,1065,1065,1062,1062,1062,1064,1065,1067,1068,1069,1073,1077,1077,1077,1077,1077,1078,1080,1081,1082,1082,1083,1083,1083,1083,1083,1083,1083,1083,1083,1078,1069,1031,1006,984,967,938,919,896,863,773,635,584,559,552,552,552,552,550,547,546,545,545,545,545,545,546,546,546,544,544,543,543,543,543,543,543,543,542,540,538,535,535,534,534,534,533,533,533,533,533,532,531,531,531,531,530,530,530,530,530,530,530,530,530,530,530,529,529,528,528,528,528,528,528,528,528,528,528,528,528,528,528,528,528,528,528,528,528,528,528,528,528,528,528,528,528,528,528,528,528,528,528,528,528,528,528,528,528,528,528,528,525,513],"ymouse":[519,519,519,519,519,519,519,519,519,519,519,519,519,519,519,519,519,519,519,519,519,519,519,519,519,519,519,519,519,519,519,519,519,519,519,519,519,519,519,519,519,519,519,519,519,519,519,519,519,519,519,519,519,519,519,519,519,519,519,519,519,519,519,519,519,519,519,519,519,519,519,519,519,519,519,519,519,519,518,518,518,518,518,518,518,517,512,511,511,511,511,511,511,511,511,511,511,511,511,511,511,510,509,508,508,507,507,507,507,507,507,507,507,507,507,507,507,506,506,506,506,506,505,505,505,505,505,505,505,505,505,505,505,505,505,505,505,505,507,509,513,517,526,528,529,531,532,532,532,532,532,532,532,532,532,532,532,532,532,532,532,532,532,530,528,527,525,525,525,525,523,523,523,523,523,522,521,521,521,520,518,516,512,510,509,509,509,507,506,505,505,505,505,505,505,505,505,505,505,505,505,505,505,505,505,505,505,505,505,505,505,505,505,505,505,505,500,472,448,414,381,342,308,295,286,277,273,263,256,253,247,239,217,176,164,159,157,156,154,150,146,139,133,133,133,133,133,133,129,128,126,125,125,125,125,125,125,125,125,125,124,122,119,114,114,117,120,126,128,129,129,112,60,38,26,24,24,24,24,24,24,24,24,25,28,32,34,36,36,38,39,40,40,40,41,41,41,41,41,41,44,46,49,50,51,52,52,54,54,54,55,57,59,62,63,65,67,71,71,72,73,75,77,79,80,81,83,84,88,88,89,89,89,89,89,89,89,89,89,89,89,89,89,89,89,89,89,89,89,89,89,89,89,89,89,89,89,89,89,89,89,89,89,89,89,89,89,89,89,89,89,89,89,88,82],"timestamp_mouse":[14,40,51,73,92,112,131,153,173,192,213,232,253,273,293,312,332,352,372,393,412,431,453,472,492,512,533,553,573,593,612,631,652,673,693,712,733,753,773,792,812,832,852,872,893,912,932,952,973,992,1012,1032,1052,1072,1091,1113,1133,1152,1173,1191,1212,1232,1253,1272,1293,1313,1332,1353,1372,1393,1412,1432,1453,1471,1493,1513,1533,1553,1572,1593,1613,1631,1653,1672,1692,1712,1732,1752,1772,1793,1813,1832,1853,1873,1893,1912,1931,1953,1973,1992,2012,2033,2051,2073,2093,2111,2133,2153,2173,2193,2213,2232,2252,2273,2292,2312,2332,2353,2372,2392,2413,2432,2451,2472,2493,2512,2531,2553,2572,2593,2611,2633,2653,2672,2693,2713,2732,2752,2772,2793,2811,2832,2852,2872,2892,2912,2932,2952,2972,2992,3013,3033,3052,3072,3093,3113,3132,3152,3172,3193,3213,3232,3252,3272,3291,3312,3333,3352,3372,3392,3412,3432,3453,3472,3492,3512,3533,3552,3573,3593,3613,3631,3652,3673,3691,3713,3732,3752,3772,3793,3813,3831,3852,3871,3893,3912,3931,3952,3973,3992,4011,4032,4052,4072,4093,4113,4133,4153,4172,4193,4213,4232,4252,4273,4291,4313,4333,4352,4373,4393,4411,4432,4452,4473,4492,4513,4532,4553,4572,4592,4613,4633,4652,4672,4692,4713,4733,4753,4772,4792,4813,4832,4852,4872,4893,4912,4932,4953,4972,4993,5013,5033,5052,5073,5092,5112,5133,5153,5173,5193,5213,5232,5252,5273,5293,5312,5333,5353,5373,5393,5412,5432,5452,5472,5492,5512,5533,5553,5572,5592,5612,5633,5664,5672,5692,5712,5732,5753,5773,5792,5812,5833,5853,5873,5893,5911,5932,5953,5972,5992,6013,6033,6052,6072,6092,6112,6132,6152,6171,6192,6212,6232,6253,6272,6292,6312,6333,6353,6372,6391,6411,6432,6451,6471,6493,6512,6533,6553,6572,6593,6612,6631,6651,6672,6692,6713,6733,6753,6772,6792,6813,6831,6853,6872,6892,6911,6932,6953,6973,6993,7012,7033,7053,7072,7092,7113,7133,7152,7172,7192,7212,7232,7253,7271,7293,7313,7332,7352,7371,7392,7412,7431,7452,7472,7492],"xSR":741.5,"ySR":469.95,"xT1":424.9,"yT1":0,"xT2":1058.1,"yT2":0,"toosoon":0,"cond_shown":"randomdotsizeEA","ratio_trial":900,"smaller_num":"18","larger_num":"20","correct_side":1,"subjID":"violetaespitiaalonso3","gender":"1","age":"9","school":"4"},{"start_time":1552074350372,"click_time":1552074351827,"finger_time":1552074351126,"fix_duration":1483.8198669919034,"trial":29,"RT":754,"MT":701,"sideResp":1,"stimulus":"img/500/equaldotanddens/L/10_Ratio_500_L_4_R_2.png","xmouse":[792,792,792,792,792,792,792,792,793,794,796,796,796,796,796,796,797,797,797,797,797,797,797,797,797,797,797,797,797,797,797,797,786,773,757,752,747,738,732,725,715,698,680,639,624,612,602,590,576,572,564,555,492,480,476,476,476,476,478,479,481,495,510,525,526,526,526,526,526,526,518,511,503],"ymouse":[510,510,510,510,510,510,510,510,510,509,508,508,508,508,508,508,508,508,508,508,508,508,508,508,508,508,508,508,508,508,508,508,508,507,501,500,497,489,483,478,470,459,445,412,397,382,367,354,338,327,309,288,174,157,148,147,147,146,145,145,144,140,133,126,125,124,123,122,120,117,107,103,95],"timestamp_mouse":[15,41,54,74,95,113,133,155,173,194,215,234,255,274,295,314,333,355,374,394,413,435,454,474,495,514,535,554,573,595,614,635,654,674,693,714,735,754,773,793,814,834,854,874,895,915,935,954,974,994,1014,1035,1054,1074,1094,1113,1134,1154,1174,1195,1215,1235,1254,1274,1295,1315,1335,1355,1374,1395,1414,1434,1455],"xSR":741.5,"ySR":469.95,"xT1":424.9,"yT1":0,"xT2":1058.1,"yT2":0,"toosoon":0,"cond_shown":"equaldotanddens","ratio_trial":500,"smaller_num":"2","larger_num":"4","correct_side":1,"subjID":"violetaespitiaalonso3","gender":"1","age":"9","school":"4"},{"start_time":1552074356439,"click_time":1552074357866,"finger_time":1552074357286,"fix_duration":250,"trial":30,"RT":847,"MT":580,"sideResp":1,"stimulus":"img/500/equaldotsize/L/10_Ratio_500_L_4_R_2.png","xmouse":[817,817,817,817,817,817,817,817,817,817,817,817,817,817,817,817,817,817,817,817,817,817,817,817,817,817,817,817,817,817,817,817,817,817,817,817,817,817,817,817,817,817,811,804,794,739,692,673,656,640,614,602,593,580,560,522,518,517,515,511,501,495,485,480,476,474,476,477,478,481,490,494],"ymouse":[504,504,504,504,504,504,504,504,504,504,504,504,504,504,504,504,504,504,504,504,504,504,504,504,504,504,504,504,504,504,504,504,504,504,504,504,504,504,504,504,496,480,458,438,416,340,291,273,263,257,249,248,247,245,243,231,227,225,221,213,197,188,179,173,167,146,135,125,117,110,101,99],"timestamp_mouse":[19,40,47,67,87,107,127,147,167,187,208,227,247,266,287,307,327,346,368,387,406,428,447,467,488,507,527,547,567,587,607,628,648,666,688,708,726,748,768,788,807,828,847,868,887,907,926,947,968,988,1007,1027,1047,1067,1087,1107,1126,1148,1167,1188,1207,1227,1247,1268,1287,1307,1328,1347,1367,1388,1407,1427],"xSR":741.5,"ySR":469.95,"xT1":424.9,"yT1":0,"xT2":1058.1,"yT2":0,"toosoon":0,"cond_shown":"equaldotsize","ratio_trial":500,"smaller_num":"2","larger_num":"4","correct_side":1,"subjID":"violetaespitiaalonso3","gender":"1","age":"9","school":"4"},{"start_time":1552074359463,"click_time":1552074362127,"finger_time":1552074360646,"fix_duration":316.4243094866441,"trial":31,"RT":1183,"MT":1481,"sideResp":1,"stimulus":"img/900/equaldotanddens/R/9_Ratio_900_L_18_R_20.png","xmouse":[789,789,789,789,789,789,789,789,789,789,789,789,789,789,789,789,789,789,789,789,789,789,789,789,789,789,789,789,789,789,789,789,789,789,789,789,789,789,788,788,788,788,788,788,787,787,787,787,787,788,789,790,792,795,799,801,804,807,809,810,811,811,811,809,808,807,811,814,815,815,815,816,816,822,835,838,845,850,852,856,863,873,889,907,932,936,939,940,941,942,942,942,942,942,942,942,944,945,945,945,942,936,931,920,913,909,905,895,876,844,774,749,717,692,664,614,595,580,569,563,560,560,560,560,560,560,560,560,554,532,520,510,503,493],"ymouse":[539,539,539,539,539,539,539,539,539,539,539,539,539,539,539,539,539,539,539,539,539,539,539,539,539,539,539,539,539,539,539,539,539,539,539,539,539,539,539,539,539,539,539,539,539,539,536,533,532,530,526,523,518,506,488,484,480,476,473,468,464,464,464,464,465,465,455,448,446,446,445,444,443,440,428,425,419,415,413,411,406,399,387,374,345,336,329,325,319,311,307,303,296,291,288,278,272,267,261,251,246,240,237,233,232,232,232,230,225,215,193,181,169,166,163,157,154,151,150,148,147,147,147,147,147,147,146,145,138,126,118,111,105,96],"timestamp_mouse":[11,36,44,64,82,103,124,144,164,184,204,223,244,264,282,302,323,344,364,382,403,424,442,463,484,504,523,543,562,582,603,624,643,664,684,702,724,744,764,782,804,824,844,864,882,904,924,944,962,983,1004,1023,1044,1063,1083,1102,1123,1143,1163,1183,1203,1223,1243,1263,1284,1304,1324,1343,1364,1383,1404,1422,1443,1463,1484,1504,1523,1543,1563,1584,1603,1624,1643,1663,1683,1702,1723,1743,1764,1784,1804,1823,1844,1863,1883,1902,1923,1944,1964,1984,2002,2023,2042,2063,2083,2102,2123,2144,2164,2183,2204,2224,2243,2263,2284,2304,2323,2344,2364,2383,2404,2423,2444,2464,2484,2504,2523,2544,2564,2583,2603,2623,2643,2664],"xSR":741.5,"ySR":469.95,"xT1":424.9,"yT1":0,"xT2":1058.1,"yT2":0,"toosoon":0,"cond_shown":"equaldotanddens","ratio_trial":900,"smaller_num":"18","larger_num":"20","correct_side":2,"subjID":"violetaespitiaalonso3","gender":"1","age":"9","school":"4"},{"start_time":1552074364886,"click_time":1552074366746,"finger_time":1552074366326,"fix_duration":1277.0676271053624,"trial":32,"RT":1440,"MT":420,"sideResp":1,"stimulus":"img/250/equaldotanddens/L/15_Ratio_250_L_12_R_3.png","xmouse":[805,805,805,805,805,805,805,805,805,805,805,805,805,805,805,805,805,805,805,805,805,805,805,805,805,805,805,805,805,805,805,805,805,805,805,805,805,805,805,805,805,805,805,805,805,805,805,805,805,805,805,805,805,805,805,805,805,805,805,805,805,805,805,805,805,805,805,805,805,805,803,800,797,796,796,791,784,774,764,731,641,606,586,571,557,555,553,551,547,528,515,503,495,492],"ymouse":[526,526,526,526,526,526,526,526,526,526,526,526,526,526,526,526,526,526,526,526,526,526,526,526,526,526,526,526,526,526,526,526,526,526,526,526,526,526,526,526,526,526,526,526,526,526,526,526,526,526,526,526,526,526,526,526,526,526,526,526,526,526,526,526,526,526,526,526,525,512,488,475,467,465,462,460,458,455,450,416,340,306,283,263,238,227,212,197,185,155,142,128,110,97],"timestamp_mouse":[9,20,45,61,80,101,121,141,161,180,201,221,239,261,281,302,320,340,360,380,401,420,440,459,481,501,520,541,561,580,601,621,640,660,681,701,719,739,760,780,801,821,841,860,881,899,921,941,960,981,1000,1021,1040,1060,1081,1100,1119,1141,1160,1181,1200,1221,1240,1260,1281,1300,1321,1341,1360,1381,1400,1419,1440,1460,1480,1500,1519,1539,1559,1580,1601,1620,1641,1661,1680,1701,1720,1740,1761,1779,1800,1820,1841,1860],"xSR":741.5,"ySR":469.95,"xT1":424.9,"yT1":0,"xT2":1058.1,"yT2":0,"toosoon":0,"cond_shown":"equaldotanddens","ratio_trial":250,"smaller_num":"3","larger_num":"12","correct_side":1,"subjID":"violetaespitiaalonso3","gender":"1","age":"9","school":"4"},{"start_time":1552074392223,"click_time":1552074393547,"finger_time":1552074393165,"fix_duration":375.6293691044903,"trial":33,"RT":942,"MT":382,"sideResp":1,"stimulus":"img/900/equaldotanddens/L/8_Ratio_900_L_20_R_18.png","xmouse":[790,790,790,790,790,790,790,790,790,790,790,790,790,790,790,790,790,790,790,790,790,790,790,790,790,790,790,790,790,790,790,790,790,790,790,790,790,790,790,790,790,790,790,789,788,776,766,754,735,699,656,640,629,621,616,610,609,609,608,607,581,568,550,526,505,472,461],"ymouse":[506,506,506,506,506,506,506,506,506,506,506,506,506,506,506,506,506,506,506,506,506,506,506,506,506,506,506,506,506,506,506,506,506,506,506,506,506,506,506,506,506,506,506,506,505,486,471,459,448,436,416,403,392,378,365,346,336,328,318,309,285,275,262,243,208,125,90],"timestamp_mouse":[9,23,42,66,83,104,123,142,163,182,204,222,243,263,282,302,323,343,364,383,403,422,444,463,484,503,523,542,563,583,602,623,643,664,682,703,723,742,763,782,804,822,843,863,883,903,923,942,962,984,1002,1023,1043,1063,1082,1102,1123,1143,1163,1183,1203,1222,1242,1263,1283,1303,1324],"xSR":741.5,"ySR":469.95,"xT1":424.9,"yT1":0,"xT2":1058.1,"yT2":0,"toosoon":0,"cond_shown":"equaldotanddens","ratio_trial":900,"smaller_num":"18","larger_num":"20","correct_side":1,"subjID":"violetaespitiaalonso3","gender":"1","age":"9","school":"4"},{"start_time":1552074395865,"click_time":1552074397228,"finger_time":1552074396706,"fix_duration":1017.6077850132929,"trial":34,"RT":841,"MT":522,"sideResp":1,"stimulus":"img/750/equaldotanddens/L/8_Ratio_750_L_4_R_3.png","xmouse":[754,754,754,754,754,754,754,754,754,754,754,754,754,754,754,754,754,754,754,754,754,754,754,754,754,754,754,754,754,754,754,754,754,754,754,754,754,754,754,754,754,754,754,749,747,745,745,745,740,701,663,613,570,534,525,525,525,525,525,525,525,525,525,525,525,525,525,525,476],"ymouse":[491,491,491,491,491,491,491,491,491,491,491,491,491,491,491,491,491,491,491,491,491,491,491,491,491,491,491,491,491,491,491,491,491,491,491,491,491,491,491,491,489,480,461,426,413,388,366,333,285,177,122,70,32,6,0,0,0,0,0,0,0,0,0,0,0,0,0,0,1],"timestamp_mouse":[9,22,48,61,81,101,121,140,160,182,200,221,240,260,280,300,322,342,361,382,401,420,440,461,480,502,522,540,561,580,600,620,642,662,681,701,721,741,761,782,800,820,841,862,881,901,921,940,962,981,1002,1021,1041,1061,1080,1101,1121,1142,1161,1181,1202,1221,1241,1261,1281,1301,1322,1342,1363],"xSR":741.5,"ySR":469.95,"xT1":424.9,"yT1":0,"xT2":1058.1,"yT2":0,"toosoon":0,"cond_shown":"equaldotanddens","ratio_trial":750,"smaller_num":"3","larger_num":"4","correct_side":1,"subjID":"violetaespitiaalonso3","gender":"1","age":"9","school":"4"},{"start_time":1552074399141,"click_time":1552074400626,"finger_time":1552074400006,"fix_duration":1113.6807787448863,"trial":35,"RT":865,"MT":620,"sideResp":2,"stimulus":"img/250/randomdotsizeEA/R/11_Ratio_250_L_3_R_12.png","xmouse":[776,776,776,776,776,776,776,776,776,776,776,776,776,776,776,776,776,776,776,776,776,776,776,776,776,776,776,776,776,776,776,776,776,776,776,776,776,776,776,776,778,788,801,815,829,850,860,870,885,905,935,941,945,945,945,949,955,965,977,987,1004,1009,1011,1013,1015,1020,1022,1024,1027,1032,1043,1047,1052,1055,1061],"ymouse":[507,507,507,507,507,507,507,507,507,507,507,507,507,507,507,507,507,507,507,507,507,507,507,507,507,507,507,507,507,507,507,507,507,507,507,507,507,507,507,507,502,489,472,452,433,390,369,346,314,277,223,213,207,203,199,193,187,179,169,159,138,131,127,123,119,116,114,113,109,105,95,92,88,86,82],"timestamp_mouse":[11,36,44,65,86,104,126,145,165,186,204,225,245,265,284,305,326,344,365,384,405,426,444,465,486,506,525,545,566,586,605,625,646,665,685,705,725,745,764,785,804,824,846,865,886,905,926,945,966,985,1005,1025,1045,1065,1086,1105,1126,1145,1164,1185,1204,1224,1244,1265,1285,1305,1325,1345,1366,1385,1404,1425,1444,1465,1485],"xSR":741.5,"ySR":469.95,"xT1":424.9,"yT1":0,"xT2":1058.1,"yT2":0,"toosoon":0,"cond_shown":"randomdotsizeEA","ratio_trial":250,"smaller_num":"3","larger_num":"12","correct_side":2,"subjID":"violetaespitiaalonso3","gender":"1","age":"9","school":"4"},{"start_time":1552074402879,"click_time":1552074403947,"finger_time":1552074403707,"fix_duration":1411.086181700067,"trial":36,"RT":828,"MT":240,"sideResp":1,"stimulus":"img/250/randomdotsizeEA/L/5_Ratio_250_L_24_R_6.png","xmouse":[792,792,792,792,792,792,792,792,792,792,792,792,792,792,792,792,792,792,792,792,792,792,792,792,792,792,792,792,792,792,792,792,792,791,791,791,790,789,787,783,777,764,758,688,642,604,580,567,556,543,538,530,520,490],"ymouse":[505,505,505,505,505,505,505,505,505,505,505,505,505,505,505,505,505,505,505,505,505,505,505,505,505,505,505,505,505,505,505,505,505,505,505,505,505,505,500,491,480,448,432,305,264,231,212,200,191,178,169,148,126,72],"timestamp_mouse":[7,26,46,67,87,108,126,146,168,187,208,226,246,267,286,306,326,348,367,387,408,427,447,466,486,506,526,548,567,587,608,627,646,666,687,707,727,748,766,787,808,828,847,866,886,907,926,946,967,986,1008,1026,1047,1068],"xSR":741.5,"ySR":469.95,"xT1":424.9,"yT1":0,"xT2":1058.1,"yT2":0,"toosoon":0,"cond_shown":"randomdotsizeEA","ratio_trial":250,"smaller_num":"6","larger_num":"24","correct_side":1,"subjID":"violetaespitiaalonso3","gender":"1","age":"9","school":"4"},{"start_time":1552074405952,"click_time":1552074407365,"finger_time":1552074406786,"fix_duration":1064.116534323863,"trial":37,"RT":834,"MT":579,"sideResp":1,"stimulus":"img/500/equaldotsize/L/7_Ratio_500_L_10_R_5.png","xmouse":[768,768,768,768,768,768,768,768,768,768,768,768,768,768,768,768,768,768,768,768,768,768,768,768,768,768,768,768,768,768,768,768,768,768,768,768,768,768,768,763,745,733,723,716,706,679,673,670,666,662,652,645,636,626,615,586,567,560,555,539,530,520,514,511,508,506,504,499,494,487,471],"ymouse":[543,543,543,543,543,543,543,543,543,543,543,543,543,543,543,543,543,543,543,543,543,543,543,543,543,543,543,543,543,543,543,543,543,543,543,543,543,543,543,543,552,557,559,559,555,513,489,455,435,421,385,356,321,286,254,208,193,184,180,165,158,151,145,140,133,128,121,113,107,101,88],"timestamp_mouse":[15,38,53,73,94,113,135,155,174,193,214,234,254,275,293,313,334,354,375,394,414,434,454,474,494,514,533,553,573,595,615,635,654,674,693,715,735,754,773,793,813,834,853,874,893,913,934,954,975,995,1014,1035,1055,1073,1093,1113,1133,1154,1174,1195,1213,1235,1255,1274,1295,1313,1334,1355,1374,1394,1413],"xSR":741.5,"ySR":469.95,"xT1":424.9,"yT1":0,"xT2":1058.1,"yT2":0,"toosoon":0,"cond_shown":"equaldotsize","ratio_trial":500,"smaller_num":"5","larger_num":"10","correct_side":1,"subjID":"violetaespitiaalonso3","gender":"1","age":"9","school":"4"},{"start_time":1552074409699,"click_time":1552074410826,"finger_time":1552074410366,"fix_duration":1450.1696877737002,"trial":38,"RT":667,"MT":460,"sideResp":1,"stimulus":"img/250/equaldotanddens/L/2_Ratio_250_L_16_R_4.png","xmouse":[795,795,795,795,795,795,795,795,795,795,795,795,795,795,795,795,795,795,795,795,795,795,795,795,795,795,795,795,795,795,795,794,789,761,739,711,686,663,634,629,625,621,619,611,604,599,592,585,562,549,544,539,535,528,525,525,524],"ymouse":[533,533,533,533,533,533,533,533,533,533,533,533,533,533,533,533,533,533,533,533,533,533,533,533,533,533,533,533,533,533,533,522,508,402,339,277,232,198,161,156,152,147,144,137,132,127,122,119,111,108,104,101,99,94,91,89,85],"timestamp_mouse":[9,37,48,68,86,107,128,147,168,187,208,226,248,266,288,307,326,347,367,387,407,428,446,466,488,506,526,548,567,588,607,627,646,667,687,707,727,748,767,787,808,827,847,867,886,907,927,947,966,986,1006,1026,1048,1066,1087,1107,1127],"xSR":741.5,"ySR":469.95,"xT1":424.9,"yT1":0,"xT2":1058.1,"yT2":0,"toosoon":0,"cond_shown":"equaldotanddens","ratio_trial":250,"smaller_num":"4","larger_num":"16","correct_side":1,"subjID":"violetaespitiaalonso3","gender":"1","age":"9","school":"4"},{"start_time":1552074411999,"click_time":1552074413225,"finger_time":1552074412805,"fix_duration":250,"trial":39,"RT":806,"MT":420,"sideResp":2,"stimulus":"img/750/equaldotsize/R/15_Ratio_750_L_9_R_12.png","xmouse":[813,813,813,813,813,813,813,813,813,813,813,813,813,813,813,813,813,813,813,813,813,813,813,813,813,813,813,813,813,813,813,813,813,813,813,813,813,813,819,831,852,902,934,957,980,986,995,1005,1021,1030,1042,1047,1059,1066,1068,1070,1072,1072,1073,1073,1074,1075],"ymouse":[520,520,520,520,520,520,520,520,520,520,520,520,520,520,520,520,520,520,520,520,520,520,520,520,520,520,520,520,520,520,520,520,520,520,520,520,520,519,509,492,466,411,364,317,262,243,226,215,194,184,169,163,148,125,120,115,111,109,109,108,105,98],"timestamp_mouse":[9,34,47,68,87,107,127,148,168,187,207,226,246,268,287,307,328,347,366,387,407,427,447,468,488,507,528,547,567,586,608,626,646,668,687,707,727,747,767,788,806,828,848,867,886,906,927,946,967,988,1007,1026,1046,1067,1086,1107,1127,1147,1166,1186,1206,1226],"xSR":741.5,"ySR":469.95,"xT1":424.9,"yT1":0,"xT2":1058.1,"yT2":0,"toosoon":0,"cond_shown":"equaldotsize","ratio_trial":750,"smaller_num":"9","larger_num":"12","correct_side":2,"subjID":"violetaespitiaalonso3","gender":"1","age":"9","school":"4"},{"start_time":1552074414547,"click_time":1552074415386,"finger_time":1552074415167,"fix_duration":399.49995786967605,"trial":40,"RT":620,"MT":219,"sideResp":2,"stimulus":"img/500/equaldotanddens/R/9_Ratio_500_L_2_R_4.png","xmouse":[796,796,796,796,796,796,796,796,796,796,796,795,795,795,795,795,795,795,795,795,795,795,795,795,795,796,797,802,807,814,826,855,869,898,926,965,1002,1057,1066,1075,1080,1083,1093],"ymouse":[499,499,499,499,499,499,499,499,499,499,499,499,499,499,499,499,499,499,499,499,500,500,500,500,500,500,500,498,494,489,482,468,459,436,406,354,302,216,194,169,142,115,49],"timestamp_mouse":[2,18,38,58,79,98,118,138,160,179,200,219,239,259,279,298,319,339,359,380,400,420,438,459,480,500,518,539,558,578,599,620,639,660,679,698,718,738,759,779,798,818,838],"xSR":741.5,"ySR":469.95,"xT1":424.9,"yT1":0,"xT2":1058.1,"yT2":0,"toosoon":0,"cond_shown":"equaldotanddens","ratio_trial":500,"smaller_num":"2","larger_num":"4","correct_side":2,"subjID":"violetaespitiaalonso3","gender":"1","age":"9","school":"4"},{"start_time":1552074419376,"click_time":1552074420186,"finger_time":1552074419986,"fix_duration":1188.4015052314828,"trial":41,"RT":610,"MT":200,"sideResp":1,"stimulus":"img/250/equaldotanddens/L/3_Ratio_250_L_8_R_2.png","xmouse":[778,778,778,778,778,778,778,778,778,778,778,778,778,778,778,778,778,778,778,778,778,778,778,778,778,778,779,780,781,782,777,769,758,746,733,689,652,616,574,533,496],"ymouse":[486,486,486,486,486,486,486,486,486,486,486,486,486,486,486,486,486,486,486,486,486,486,486,486,486,486,486,485,480,475,451,437,419,396,369,274,213,163,114,77,39],"timestamp_mouse":[10,37,49,69,91,109,130,151,170,189,211,231,251,270,290,309,331,350,369,389,410,429,449,470,491,511,530,550,570,590,610,629,650,670,690,709,729,750,769,789,809],"xSR":741.5,"ySR":469.95,"xT1":424.9,"yT1":0,"xT2":1058.1,"yT2":0,"toosoon":0,"cond_shown":"equaldotanddens","ratio_trial":250,"smaller_num":"2","larger_num":"8","correct_side":1,"subjID":"violetaespitiaalonso3","gender":"1","age":"9","school":"4"},{"start_time":1552074427089,"click_time":1552074428185,"finger_time":1552074427745,"fix_duration":499.24081242213845,"trial":42,"RT":656,"MT":440,"sideResp":1,"stimulus":"img/750/equaldotsize/L/1_Ratio_750_L_20_R_15.png","xmouse":[791,783,783,783,783,783,783,783,783,783,783,783,783,783,783,783,785,785,785,786,788,789,790,791,792,793,795,795,796,797,797,793,781,766,739,685,664,646,631,616,575,563,560,561,567,572,574,574,575,575,568,560,545,526,503],"ymouse":[524,524,524,524,524,524,524,524,524,524,524,524,524,524,524,524,524,524,524,524,525,525,525,525,525,525,524,522,519,515,503,489,468,444,411,365,352,341,331,321,284,265,249,238,227,208,200,194,185,178,149,129,105,79,52],"timestamp_mouse":[17,42,57,76,96,118,137,157,177,197,218,238,256,276,296,317,338,357,377,397,416,437,458,477,497,516,536,556,577,596,616,637,656,677,697,717,737,757,777,796,817,837,856,876,897,916,936,956,976,997,1016,1036,1056,1077,1096],"xSR":741.5,"ySR":469.95,"xT1":424.9,"yT1":0,"xT2":1058.1,"yT2":0,"toosoon":0,"cond_shown":"equaldotsize","ratio_trial":750,"smaller_num":"15","larger_num":"20","correct_side":1,"subjID":"violetaespitiaalonso3","gender":"1","age":"9","school":"4"},{"start_time":1552074429984,"click_time":1552074431086,"finger_time":1552074430886,"fix_duration":817.230656246088,"trial":43,"RT":902,"MT":200,"sideResp":1,"stimulus":"img/750/randomdotsizeEA/R/7_Ratio_750_L_3_R_4.png","xmouse":[802,802,802,800,799,799,799,799,799,799,799,799,799,799,799,799,799,801,804,806,807,807,807,808,808,809,809,809,809,809,809,809,809,809,809,809,809,809,809,809,809,808,806,802,798,777,734,711,693,679,666,635,608,564,483,439],"ymouse":[527,527,527,526,525,525,524,523,522,522,522,522,522,522,522,522,520,516,514,513,513,513,513,513,513,513,513,513,513,513,513,513,513,513,513,513,513,513,513,513,513,513,510,503,494,469,428,412,397,383,364,310,263,190,104,74],"timestamp_mouse":[10,35,42,61,82,101,122,142,161,183,203,223,242,261,281,301,321,342,361,382,401,423,443,461,481,502,522,542,562,583,603,622,643,661,682,702,721,743,763,782,802,823,843,862,881,902,922,941,962,982,1001,1022,1041,1062,1081,1102],"xSR":741.5,"ySR":469.95,"xT1":424.9,"yT1":0,"xT2":1058.1,"yT2":0,"toosoon":0,"cond_shown":"randomdotsizeEA","ratio_trial":750,"smaller_num":"3","larger_num":"4","correct_side":2,"subjID":"violetaespitiaalonso3","gender":"1","age":"9","school":"4"},{"start_time":1552074432312,"click_time":1552074433825,"finger_time":1552074433246,"fix_duration":264.55055788618745,"trial":44,"RT":934,"MT":579,"sideResp":1,"stimulus":"img/500/equaldotanddens/L/5_Ratio_500_L_4_R_2.png","xmouse":[822,822,822,822,822,822,822,822,822,822,822,822,822,822,822,822,822,822,822,822,822,822,822,822,822,822,822,822,822,822,822,822,822,822,822,822,822,822,822,822,822,822,822,822,822,819,804,789,768,745,662,610,577,561,551,550,550,550,550,550,550,550,550,550,550,550,550,550,548,547,543,539,537,534,528,522],"ymouse":[494,494,494,494,494,494,494,494,494,494,494,494,494,494,494,494,494,494,494,494,494,494,494,494,494,494,494,494,494,494,494,494,494,494,494,494,494,494,4