[{"start_time":1552074015701,"click_time":1552074018227,"finger_time":1552074017285,"fix_duration":571.1238518389357,"trial":0,"RT":1584,"MT":942,"sideResp":2,"stimulus":"img/750/randomdotsizeEA/R/15_Ratio_750_L_9_R_12.png","xmouse":[798,798,798,798,798,798,798,798,798,798,798,798,798,798,798,798,798,798,798,798,798,798,798,798,798,798,798,798,798,798,798,798,798,798,798,798,798,798,798,798,798,798,798,798,798,798,798,798,798,798,798,798,798,798,798,798,798,798,798,798,798,798,798,798,798,798,798,798,798,798,798,798,798,798,798,798,801,841,895,934,986,1020,1070,1119,1164,1212,1284,1284,1284,1284,1284,1284,1284,1284,1284,1284,1284,1284,1284,1284,1284,1284,1284,1328,1283,1132,1070,1050,1049,1049,1049,1049,1052,1059,1070,1103,1114,1123,1129,1133,1134,1134,1134,1134,1134,1132],"ymouse":[555,555,555,555,555,555,555,555,555,555,555,555,555,555,555,555,555,555,555,555,555,555,555,555,555,555,555,555,555,555,555,555,555,555,555,555,555,555,555,555,555,555,555,555,555,555,555,555,555,555,555,555,555,555,555,555,555,555,555,555,555,555,555,555,555,555,555,555,555,555,555,555,555,555,555,555,556,533,494,467,426,399,306,216,141,82,17,17,17,17,17,17,17,17,17,17,17,17,17,17,17,17,17,26,58,179,234,249,250,250,250,250,245,230,212,161,141,124,113,103,102,102,102,101,101,96],"timestamp_mouse":[11,53,64,84,106,124,145,165,186,206,224,245,264,285,304,325,346,365,385,404,424,446,464,484,505,525,546,564,584,604,625,646,664,685,704,724,745,765,784,806,825,845,864,886,905,924,945,964,985,1006,1026,1044,1066,1084,1104,1125,1144,1164,1184,1204,1224,1245,1264,1286,1305,1324,1345,1364,1385,1405,1425,1445,1466,1484,1505,1525,1544,1565,1584,1605,1626,1644,1664,1685,1705,1725,1745,1764,1785,1804,1826,1846,1865,1884,1905,1925,1944,1966,1985,2005,2025,2046,2065,2084,2105,2126,2144,2164,2185,2204,2225,2245,2265,2284,2304,2325,2344,2364,2385,2404,2425,2445,2466,2486,2504,2526],"xSR":741.5,"ySR":501.8,"xT1":424.9,"yT1":0,"xT2":1058.1,"yT2":0,"toosoon":0,"cond_shown":"randomdotsizeEA","ratio_trial":750,"smaller_num":"9","larger_num":"12","correct_side":2,"subjID":"yeshuaalejandropachonvelez5","gender":"0","age":"9","school":"4","test":{"fix_dur":[250,1500],"timestim":300,"targets_dim":[100,100],"targets_relative_coord":[0.3,0.7],"size_stim":[880,420],"start_dim":[100,100],"size_start":[300,300],"size_fix":60,"samplingrate":20,"img_types":["equaldotsize","equaldotanddens","randomdotsizeEA"],"ratios":[250,500,750,900],"rep_conds":9,"nTrials":120,"trials_to_rest":500,"Trials_order":[80,6,50,109,107,22,88,7,99,18,85,10,2,100,60,115,29,21,61,37,0,75,25,52,95,9,55,36,40,102,64,19,48,96,24,43,16,117,105,65,23,113,116,14,32,90,30,33,12,98,42,3,70,92,8,62,114,20,31,67,89,5,27,97,108,35,66,26,63,71,86,79,13,46,59,104,57,17,112,82,58,39,111,77,110,91,47,11,1,68,106,72,93,74,54,119,118,56,83,45,101,69,84,53,94,76,15,73,41,4,78,34,44,103,38,81,51,49,28,87],"cond_shown":["randomdotsizeEA","equaldotsize","randomdotsizeEA","equaldotanddens","randomdotsizeEA","equaldotanddens","equaldotanddens","equaldotanddens","equaldotsize","equaldotsize","equaldotanddens","equaldotanddens","randomdotsizeEA","equaldotanddens","equaldotsize","equaldotanddens","randomdotsizeEA","equaldotsize","equaldotanddens","equaldotanddens","equaldotsize","equaldotsize","equaldotanddens","equaldotanddens","randomdotsizeEA","equaldotsize","equaldotanddens","equaldotsize","equaldotanddens","equaldotsize","equaldotanddens","equaldotanddens","equaldotsize","equaldotsize","equaldotsize","equaldotanddens","equaldotanddens","equaldotsize","equaldotsize","randomdotsizeEA","randomdotsizeEA","randomdotsizeEA","randomdotsizeEA","randomdotsizeEA","randomdotsizeEA","equaldotsize","equaldotsize","equaldotsize","equaldotsize","randomdotsizeEA","equaldotsize","equaldotsize","equaldotanddens","randomdotsizeEA","randomdotsizeEA","randomdotsizeEA","equaldotsize","randomdotsizeEA","equaldotanddens","equaldotanddens","randomdotsizeEA","randomdotsizeEA","equaldotsize","equaldotanddens","equaldotsize","randomdotsizeEA","equaldotsize","randomdotsizeEA","equaldotsize","randomdotsizeEA","randomdotsizeEA","equaldotanddens","equaldotanddens","equaldotanddens","randomdotsizeEA","randomdotsizeEA","equaldotsize","randomdotsizeEA","equaldotanddens","equaldotanddens","equaldotanddens","equaldotsize","equaldotsize","randomdotsizeEA","randomdotsizeEA","equaldotanddens","randomdotsizeEA","randomdotsizeEA","equaldotanddens","randomdotsizeEA","equaldotanddens","equaldotsize","equaldotsize","randomdotsizeEA","equaldotsize","randomdotsizeEA","equaldotanddens","randomdotsizeEA","randomdotsizeEA","equaldotsize","randomdotsizeEA","equaldotsize","equaldotsize","randomdotsizeEA","equaldotanddens","equaldotanddens","equaldotsize","equaldotanddens","randomdotsizeEA","equaldotanddens","equaldotsize","equaldotanddens","randomdotsizeEA","equaldotanddens","randomdotsizeEA","equaldotsize","equaldotsize","equaldotanddens","equaldotanddens","equaldotsize"],"ratio_trial":[750,750,250,250,900,900,500,750,500,750,250,900,250,500,250,750,500,900,250,250,250,500,250,500,900,900,750,250,500,750,500,750,250,250,250,750,500,900,900,500,900,500,750,250,750,750,750,900,250,250,750,500,900,750,750,250,750,750,750,750,500,500,500,250,250,900,750,250,500,900,250,750,250,900,900,750,900,500,500,900,900,500,500,500,250,750,900,900,250,750,900,250,900,250,750,900,900,750,900,900,500,900,250,500,900,500,500,250,500,500,750,900,750,750,250,900,500,250,500,500],"smaller_num":["9","15","3","5","18","9","10","18","2","3","3","9","2","2","6","3","1","18","5","4","3","9","2","4","9","18","6","4","9","3","1","3","6","4","4","6","2","18","9","3","18","4","9","2","9","3","3","18","2","3","12","6","9","6","15","3","6","15","3","3","6","1","6","4","3","9","15","2","9","9","2","3","4","18","18","3","18","5","6","18","9","9","9","2","3","6","18","18","3","12","9","3","9","3","3","18","18","12","18","18","6","18","3","10","18","9","3","2","10","1","15","18","6","6","2","18","5","3","5","2"],"larger_num":["12","20","12","20","20","10","20","24","4","4","12","10","8","4","24","4","2","20","20","16","12","18","8","8","10","20","8","16","18","4","2","4","24","16","16","8","4","20","10","6","20","8","12","8","12","4","4","20","8","12","16","12","10","8","20","12","8","20","4","4","12","2","12","16","12","10","20","8","18","10","8","4","16","20","20","4","20","10","12","20","10","18","18","4","12","8","20","20","12","16","10","12","10","12","4","20","20","16","20","20","12","20","12","20","20","18","6","8","20","2","20","20","8","8","8","20","10","12","10","4"],"correct_side":[2,2,1,2,1,2,2,1,1,2,2,2,1,1,2,1,2,1,2,1,1,2,1,1,2,2,2,1,2,1,2,2,2,2,2,1,2,1,2,2,2,1,2,1,2,2,2,1,1,1,2,1,2,1,2,1,2,2,1,1,1,2,1,2,1,2,1,2,2,2,1,2,1,2,2,2,1,1,1,1,2,2,2,1,2,1,1,2,2,2,2,1,2,1,2,1,1,2,1,1,1,1,2,2,1,1,2,1,2,2,2,1,1,1,1,1,1,2,1,2],"img_shown":["img/750/randomdotsizeEA/R/15_Ratio_750_L_9_R_12.png","img/750/equaldotsize/R/4_Ratio_750_L_15_R_20.png","img/250/randomdotsizeEA/L/15_Ratio_250_L_12_R_3.png","img/250/equaldotanddens/R/12_Ratio_250_L_5_R_20.png","img/900/randomdotsizeEA/L/2_Ratio_900_L_20_R_18.png","img/900/equaldotanddens/R/15_Ratio_900_L_9_R_10.png","img/500/equaldotanddens/R/3_Ratio_500_L_10_R_20.png","img/750/equaldotanddens/L/6_Ratio_750_L_24_R_18.png","img/500/equaldotsize/L/5_Ratio_500_L_4_R_2.png","img/750/equaldotsize/R/12_Ratio_750_L_3_R_4.png","img/250/equaldotanddens/R/4_Ratio_250_L_3_R_12.png","img/900/equaldotanddens/R/3_Ratio_900_L_9_R_10.png","img/250/randomdotsizeEA/L/1_Ratio_250_L_8_R_2.png","img/500/equaldotanddens/L/10_Ratio_500_L_4_R_2.png","img/250/equaldotsize/R/6_Ratio_250_L_6_R_24.png","img/750/equaldotanddens/L/8_Ratio_750_L_4_R_3.png","img/500/randomdotsizeEA/R/12_Ratio_500_L_1_R_2.png","img/900/equaldotsize/L/2_Ratio_900_L_20_R_18.png","img/250/equaldotanddens/R/12_Ratio_250_L_5_R_20.png","img/250/equaldotanddens/L/2_Ratio_250_L_16_R_4.png","img/250/equaldotsize/L/14_Ratio_250_L_12_R_3.png","img/500/equaldotsize/R/1_Ratio_500_L_9_R_18.png","img/250/equaldotanddens/L/7_Ratio_250_L_8_R_2.png","img/500/equaldotanddens/L/8_Ratio_500_L_8_R_4.png","img/900/randomdotsizeEA/R/7_Ratio_900_L_9_R_10.png","img/900/equaldotsize/R/11_Ratio_900_L_18_R_20.png","img/750/equaldotanddens/R/2_Ratio_750_L_6_R_8.png","img/250/equaldotsize/L/2_Ratio_250_L_16_R_4.png","img/500/equaldotanddens/R/6_Ratio_500_L_9_R_18.png","img/750/equaldotsize/L/10_Ratio_750_L_4_R_3.png","img/500/equaldotanddens/R/15_Ratio_500_L_1_R_2.png","img/750/equaldotanddens/R/7_Ratio_750_L_3_R_4.png","img/250/equaldotsize/R/6_Ratio_250_L_6_R_24.png","img/250/equaldotsize/R/10_Ratio_250_L_4_R_16.png","img/250/equaldotsize/R/10_Ratio_250_L_4_R_16.png","img/750/equaldotanddens/L/14_Ratio_750_L_8_R_6.png","img/500/equaldotanddens/R/9_Ratio_500_L_2_R_4.png","img/900/equaldotsize/L/2_Ratio_900_L_20_R_18.png","img/900/equaldotsize/R/15_Ratio_900_L_9_R_10.png","img/500/randomdotsizeEA/R/2_Ratio_500_L_3_R_6.png","img/900/randomdotsizeEA/R/11_Ratio_900_L_18_R_20.png","img/500/randomdotsizeEA/L/8_Ratio_500_L_8_R_4.png","img/750/randomdotsizeEA/R/15_Ratio_750_L_9_R_12.png","img/250/randomdotsizeEA/L/3_Ratio_250_L_8_R_2.png","img/750/randomdotsizeEA/R/15_Ratio_750_L_9_R_12.png","img/750/equaldotsize/R/12_Ratio_750_L_3_R_4.png","img/750/equaldotsize/R/12_Ratio_750_L_3_R_4.png","img/900/equaldotsize/L/4_Ratio_900_L_20_R_18.png","img/250/equaldotsize/L/3_Ratio_250_L_8_R_2.png","img/250/randomdotsizeEA/L/15_Ratio_250_L_12_R_3.png","img/750/equaldotsize/R/11_Ratio_750_L_12_R_16.png","img/500/equaldotsize/L/11_Ratio_500_L_12_R_6.png","img/900/equaldotanddens/R/5_Ratio_900_L_9_R_10.png","img/750/randomdotsizeEA/L/14_Ratio_750_L_8_R_6.png","img/750/randomdotsizeEA/R/3_Ratio_750_L_15_R_20.png","img/250/randomdotsizeEA/L/14_Ratio_250_L_12_R_3.png","img/750/equaldotsize/R/2_Ratio_750_L_6_R_8.png","img/750/randomdotsizeEA/R/5_Ratio_750_L_15_R_20.png","img/750/equaldotanddens/L/10_Ratio_750_L_4_R_3.png","img/750/equaldotanddens/L/8_Ratio_750_L_4_R_3.png","img/500/randomdotsizeEA/L/11_Ratio_500_L_12_R_6.png","img/500/randomdotsizeEA/R/12_Ratio_500_L_1_R_2.png","img/500/equaldotsize/L/11_Ratio_500_L_12_R_6.png","img/250/equaldotanddens/R/10_Ratio_250_L_4_R_16.png","img/250/equaldotsize/L/14_Ratio_250_L_12_R_3.png","img/900/randomdotsizeEA/R/15_Ratio_900_L_9_R_10.png","img/750/equaldotsize/L/1_Ratio_750_L_20_R_15.png","img/250/randomdotsizeEA/R/13_Ratio_250_L_2_R_8.png","img/500/equaldotsize/R/1_Ratio_500_L_9_R_18.png","img/900/randomdotsizeEA/R/7_Ratio_900_L_9_R_10.png","img/250/randomdotsizeEA/L/3_Ratio_250_L_8_R_2.png","img/750/equaldotanddens/R/7_Ratio_750_L_3_R_4.png","img/250/equaldotanddens/L/2_Ratio_250_L_16_R_4.png","img/900/equaldotanddens/R/13_Ratio_900_L_18_R_20.png","img/900/randomdotsizeEA/R/12_Ratio_900_L_18_R_20.png","img/750/randomdotsizeEA/R/12_Ratio_750_L_3_R_4.png","img/900/equaldotsize/L/2_Ratio_900_L_20_R_18.png","img/500/randomdotsizeEA/L/7_Ratio_500_L_10_R_5.png","img/500/equaldotanddens/L/13_Ratio_500_L_12_R_6.png","img/900/equaldotanddens/L/2_Ratio_900_L_20_R_18.png","img/900/equaldotanddens/R/7_Ratio_900_L_9_R_10.png","img/500/equaldotsize/R/6_Ratio_500_L_9_R_18.png","img/500/equaldotsize/R/6_Ratio_500_L_9_R_18.png","img/500/randomdotsizeEA/L/10_Ratio_500_L_4_R_2.png","img/250/randomdotsizeEA/R/4_Ratio_250_L_3_R_12.png","img/750/equaldotanddens/L/14_Ratio_750_L_8_R_6.png","img/900/randomdotsizeEA/L/8_Ratio_900_L_20_R_18.png","img/900/randomdotsizeEA/R/14_Ratio_900_L_18_R_20.png","img/250/equaldotanddens/R/9_Ratio_250_L_3_R_12.png","img/750/randomdotsizeEA/R/11_Ratio_750_L_12_R_16.png","img/900/equaldotanddens/R/7_Ratio_900_L_9_R_10.png","img/250/equaldotsize/L/14_Ratio_250_L_12_R_3.png","img/900/equaldotsize/R/7_Ratio_900_L_9_R_10.png","img/250/randomdotsizeEA/L/15_Ratio_250_L_12_R_3.png","img/750/equaldotsize/R/12_Ratio_750_L_3_R_4.png","img/900/randomdotsizeEA/L/10_Ratio_900_L_20_R_18.png","img/900/equaldotanddens/L/2_Ratio_900_L_20_R_18.png","img/750/randomdotsizeEA/R/11_Ratio_750_L_12_R_16.png","img/900/randomdotsizeEA/L/2_Ratio_900_L_20_R_18.png","img/900/equaldotsize/L/4_Ratio_900_L_20_R_18.png","img/500/randomdotsizeEA/L/11_Ratio_500_L_12_R_6.png","img/900/equaldotsize/L/2_Ratio_900_L_20_R_18.png","img/250/equaldotsize/R/11_Ratio_250_L_3_R_12.png","img/500/randomdotsizeEA/R/3_Ratio_500_L_10_R_20.png","img/900/equaldotanddens/L/2_Ratio_900_L_20_R_18.png","img/500/equaldotanddens/L/4_Ratio_500_L_18_R_9.png","img/500/equaldotsize/R/2_Ratio_500_L_3_R_6.png","img/250/equaldotanddens/L/3_Ratio_250_L_8_R_2.png","img/500/randomdotsizeEA/R/3_Ratio_500_L_10_R_20.png","img/500/equaldotanddens/R/12_Ratio_500_L_1_R_2.png","img/750/equaldotsize/R/4_Ratio_750_L_15_R_20.png","img/900/equaldotanddens/L/2_Ratio_900_L_20_R_18.png","img/750/randomdotsizeEA/L/13_Ratio_750_L_8_R_6.png","img/750/equaldotanddens/L/13_Ratio_750_L_8_R_6.png","img/250/randomdotsizeEA/L/7_Ratio_250_L_8_R_2.png","img/900/equaldotsize/L/4_Ratio_900_L_20_R_18.png","img/500/equaldotsize/L/7_Ratio_500_L_10_R_5.png","img/250/equaldotanddens/R/4_Ratio_250_L_3_R_12.png","img/500/equaldotanddens/L/7_Ratio_500_L_10_R_5.png","img/500/equaldotsize/R/9_Ratio_500_L_2_R_4.png"],"Rat0":[["12_Ratio_0_L_9_R_0.png","13_Ratio_0_L_6_R_0.png","5_Ratio_0_L_2_R_0.png","6_Ratio_0_L_4_R_0.png","8_Ratio_0_L_6_R_0.png"],["1_Ratio_0_L_0_R_17.png","10_Ratio_0_L_0_R_22.png","11_Ratio_0_L_0_R_1.png","14_Ratio_0_L_0_R_24.png","15_Ratio_0_L_0_R_4.png","2_Ratio_0_L_0_R_5.png","3_Ratio_0_L_0_R_17.png","4_Ratio_0_L_0_R_7.png","7_Ratio_0_L_0_R_19.png","9_Ratio_0_L_0_R_15.png"]],"Rat250":[["1_Ratio_250_L_8_R_2.png","14_Ratio_250_L_12_R_3.png","15_Ratio_250_L_12_R_3.png","2_Ratio_250_L_16_R_4.png","3_Ratio_250_L_8_R_2.png","5_Ratio_250_L_24_R_6.png","7_Ratio_250_L_8_R_2.png"],["10_Ratio_250_L_4_R_16.png","11_Ratio_250_L_3_R_12.png","12_Ratio_250_L_5_R_20.png","13_Ratio_250_L_2_R_8.png","4_Ratio_250_L_3_R_12.png","6_Ratio_250_L_6_R_24.png","8_Ratio_250_L_1_R_4.png","9_Ratio_250_L_3_R_12.png"]],"Rat500":[["10_Ratio_500_L_4_R_2.png","11_Ratio_500_L_12_R_6.png","13_Ratio_500_L_12_R_6.png","4_Ratio_500_L_18_R_9.png","5_Ratio_500_L_4_R_2.png","7_Ratio_500_L_10_R_5.png","8_Ratio_500_L_8_R_4.png"],["1_Ratio_500_L_9_R_18.png","12_Ratio_500_L_1_R_2.png","14_Ratio_500_L_5_R_10.png","15_Ratio_500_L_1_R_2.png","2_Ratio_500_L_3_R_6.png","3_Ratio_500_L_10_R_20.png","6_Ratio_500_L_9_R_18.png","9_Ratio_500_L_2_R_4.png"]],"Rat750":[["1_Ratio_750_L_20_R_15.png","10_Ratio_750_L_4_R_3.png","13_Ratio_750_L_8_R_6.png","14_Ratio_750_L_8_R_6.png","6_Ratio_750_L_24_R_18.png","8_Ratio_750_L_4_R_3.png","9_Ratio_750_L_4_R_3.png"],["11_Ratio_750_L_12_R_16.png","12_Ratio_750_L_3_R_4.png","15_Ratio_750_L_9_R_12.png","2_Ratio_750_L_6_R_8.png","3_Ratio_750_L_15_R_20.png","4_Ratio_750_L_15_R_20.png","5_Ratio_750_L_15_R_20.png","7_Ratio_750_L_3_R_4.png"]],"Rat900":[["1_Ratio_900_L_10_R_9.png","10_Ratio_900_L_20_R_18.png","2_Ratio_900_L_20_R_18.png","4_Ratio_900_L_20_R_18.png","8_Ratio_900_L_20_R_18.png"],["11_Ratio_900_L_18_R_20.png","12_Ratio_900_L_18_R_20.png","13_Ratio_900_L_18_R_20.png","14_Ratio_900_L_18_R_20.png","15_Ratio_900_L_9_R_10.png","3_Ratio_900_L_9_R_10.png","5_Ratio_900_L_9_R_10.png","6_Ratio_900_L_9_R_10.png","7_Ratio_900_L_9_R_10.png","9_Ratio_900_L_18_R_20.png"]],"Rat1000":[["10_Ratio_1000_L_16_R_16.png","11_Ratio_1000_L_6_R_6.png","12_Ratio_1000_L_14_R_14.png","13_Ratio_1000_L_20_R_20.png","15_Ratio_1000_L_15_R_15.png","2_Ratio_1000_L_17_R_17.png","4_Ratio_1000_L_9_R_9.png","5_Ratio_1000_L_6_R_6.png","6_Ratio_1000_L_19_R_19.png","8_Ratio_1000_L_14_R_14.png","9_Ratio_1000_L_25_R_25.png"],["1_Ratio_1000_L_1_R_1.png","14_Ratio_1000_L_17_R_17.png","3_Ratio_1000_L_17_R_17.png","7_Ratio_1000_L_6_R_6.png"]]}},{"start_time":1552074022962,"click_time":1552074024186,"finger_time":1552074023626,"fix_duration":1495.0190389808608,"trial":1,"RT":664,"MT":560,"sideResp":1,"stimulus":"img/750/equaldotsize/R/4_Ratio_750_L_15_R_20.png","xmouse":[821,821,821,821,821,821,821,821,821,815,812,812,812,812,812,812,812,812,812,812,812,812,812,812,812,812,812,812,812,812,814,825,837,848,865,872,881,904,925,989,1015,1030,1033,1033,1032,1030,1028,1026,1024,1018,1003,982,951,883,666,609,572,560,560,552,527,496],"ymouse":[566,566,566,566,566,566,566,566,565,562,561,561,561,561,561,561,561,561,561,561,561,561,561,561,561,561,561,561,561,561,555,542,526,507,471,457,440,408,385,325,302,287,284,283,281,280,279,278,278,275,270,263,253,234,161,136,118,111,111,109,101,90],"timestamp_mouse":[10,36,44,63,83,103,123,145,163,183,204,223,244,265,284,305,324,345,364,384,404,423,445,464,484,503,523,544,565,585,604,624,643,664,684,704,724,743,764,784,804,823,844,864,884,903,923,944,964,984,1003,1023,1044,1063,1084,1103,1124,1143,1165,1183,1204,1224],"xSR":741.5,"ySR":501.8,"xT1":424.9,"yT1":0,"xT2":1058.1,"yT2":0,"toosoon":0,"cond_shown":"equaldotsize","ratio_trial":750,"smaller_num":"15","larger_num":"20","correct_side":2,"subjID":"yeshuaalejandropachonvelez5","gender":"0","age":"9","school":"4"},{"start_time":1552074026861,"click_time":1552074027686,"finger_time":1552074027265,"fix_duration":953.8157409431242,"trial":2,"RT":404,"MT":421,"sideResp":2,"stimulus":"img/250/randomdotsizeEA/L/15_Ratio_250_L_12_R_3.png","xmouse":[790,790,790,790,790,790,790,790,790,790,790,790,790,790,790,790,790,790,792,815,844,882,924,963,988,1007,1010,1015,1023,1040,1052,1068,1075,1078,1078,1078,1078,1078,1078,1082,1104,1121],"ymouse":[561,561,561,561,561,561,561,561,561,561,561,561,561,561,561,561,561,561,560,551,538,518,494,465,443,406,387,371,351,307,278,231,197,168,149,149,149,149,149,146,123,99],"timestamp_mouse":[13,25,44,66,85,104,124,145,165,185,205,224,245,265,286,304,324,345,366,385,404,424,445,465,484,504,525,545,565,587,604,625,645,664,686,704,724,744,764,784,804,825],"xSR":741.5,"ySR":501.8,"xT1":424.9,"yT1":0,"xT2":1058.1,"yT2":0,"toosoon":0,"cond_shown":"randomdotsizeEA","ratio_trial":250,"smaller_num":"3","larger_num":"12","correct_side":1,"subjID":"yeshuaalejandropachonvelez5","gender":"0","age":"9","school":"4"},{"start_time":1552074036779,"click_time":1552074037985,"finger_time":1552074037426,"fix_duration":250,"trial":3,"RT":647,"MT":559,"sideResp":2,"stimulus":"img/250/equaldotanddens/R/12_Ratio_250_L_5_R_20.png","xmouse":[826,826,826,826,826,826,826,826,826,826,826,826,826,826,826,826,826,826,826,826,826,826,826,826,826,826,826,826,826,826,826,823,800,779,770,769,769,769,769,769,776,795,836,881,928,961,961,961,960,960,974,984,987,987,987,990,1005,1021,1036,1049,1097],"ymouse":[545,545,545,545,545,545,545,545,545,545,545,545,545,545,545,545,545,545,545,545,545,545,545,545,545,545,545,545,545,545,545,543,480,415,386,383,383,383,383,381,377,366,332,292,256,237,237,237,237,237,209,194,191,191,191,189,176,166,155,144,73],"timestamp_mouse":[11,38,48,66,86,106,127,147,166,186,207,226,247,268,287,306,327,346,368,386,407,427,448,467,487,508,527,548,567,586,607,626,647,666,688,706,727,748,767,787,806,826,846,867,886,906,927,948,967,987,1007,1027,1047,1067,1087,1106,1128,1147,1166,1186,1206],"xSR":741.5,"ySR":501.8,"xT1":424.9,"yT1":0,"xT2":1058.1,"yT2":0,"toosoon":0,"cond_shown":"equaldotanddens","ratio_trial":250,"smaller_num":"5","larger_num":"20","correct_side":2,"subjID":"yeshuaalejandropachonvelez5","gender":"0","age":"9","school":"4"},{"start_time":1552074039018,"click_time":1552074040186,"finger_time":1552074039786,"fix_duration":250,"trial":4,"RT":768,"MT":400,"sideResp":2,"stimulus":"img/900/randomdotsizeEA/L/2_Ratio_900_L_20_R_18.png","xmouse":[799,799,799,799,799,799,799,799,799,799,799,799,799,799,799,799,799,799,799,799,799,799,799,799,799,799,799,799,799,799,799,799,799,799,799,801,808,827,988,1059,1095,1104,1104,1107,1122,1144,1167,1193,1196,1196,1196,1196,1196,1196,1196,1196,1196,1196,1153],"ymouse":[557,557,557,557,557,557,557,557,557,557,557,557,557,557,557,557,557,557,557,557,557,557,557,557,557,557,557,557,557,557,557,557,557,557,557,554,548,528,418,364,329,314,303,255,208,150,94,29,0,0,0,0,0,0,0,0,0,0,6],"timestamp_mouse":[10,42,47,67,88,108,127,148,168,188,208,227,247,267,288,308,328,347,369,388,407,428,447,467,487,508,527,548,569,588,608,628,648,668,689,708,728,749,768,788,808,827,847,867,889,909,928,948,967,988,1009,1028,1048,1067,1087,1107,1128,1147,1168],"xSR":741.5,"ySR":501.8,"xT1":424.9,"yT1":0,"xT2":1058.1,"yT2":0,"toosoon":0,"cond_shown":"randomdotsizeEA","ratio_trial":900,"smaller_num":"18","larger_num":"20","correct_side":1,"subjID":"yeshuaalejandropachonvelez5","gender":"0","age":"9","school":"4"},{"start_time":1552074044415,"click_time":1552074045427,"finger_time":1552074045186,"fix_duration":1028.3152223518516,"trial":5,"RT":771,"MT":241,"sideResp":1,"stimulus":"img/900/equaldotanddens/R/15_Ratio_900_L_9_R_10.png","xmouse":[796,796,796,798,817,825,825,825,825,825,825,825,825,825,825,825,825,825,825,825,825,825,825,825,825,825,825,825,825,825,825,825,826,826,818,810,807,804,786,758,726,700,686,645,619,595,581,573,553,537,521],"ymouse":[560,560,560,564,574,577,578,578,578,578,578,578,578,578,578,578,578,578,578,578,578,578,578,578,578,578,578,578,578,578,578,578,574,566,532,524,521,519,492,454,412,372,342,247,197,155,128,114,100,90,79],"timestamp_mouse":[11,34,51,70,92,110,130,150,171,191,210,230,251,270,290,311,330,351,371,391,411,431,450,471,490,511,531,552,572,591,611,631,651,670,691,711,731,751,771,790,810,830,852,872,890,910,930,951,972,990,1012],"xSR":741.5,"ySR":501.8,"xT1":424.9,"yT1":0,"xT2":1058.1,"yT2":0,"toosoon":0,"cond_shown":"equaldotanddens","ratio_trial":900,"smaller_num":"9","larger_num":"10","correct_side":2,"subjID":"yeshuaalejandropachonvelez5","gender":"0","age":"9","school":"4"},{"start_time":1552074047023,"click_time":1552074048006,"finger_time":1552074047766,"fix_duration":333.2928536037538,"trial":6,"RT":743,"MT":240,"sideResp":2,"stimulus":"img/500/equaldotanddens/R/3_Ratio_500_L_10_R_20.png","xmouse":[803,803,803,803,803,803,803,803,803,803,803,803,803,803,803,803,803,803,803,803,803,803,803,803,803,803,803,803,803,803,803,803,803,803,803,812,833,850,864,882,893,901,918,942,1022,1040,1052,1062,1074,1096],"ymouse":[573,573,573,573,573,573,573,573,573,573,573,573,573,573,573,573,573,573,573,573,573,573,573,573,573,573,573,573,573,573,573,573,573,573,564,542,515,495,475,443,424,403,374,339,244,212,176,140,102,38],"timestamp_mouse":[9,23,43,64,84,103,124,144,163,184,204,223,242,264,284,303,322,344,363,383,403,423,444,463,483,504,523,544,563,584,604,622,643,664,682,703,723,743,763,783,804,823,843,864,883,904,924,943,963,983],"xSR":741.5,"ySR":501.8,"xT1":424.9,"yT1":0,"xT2":1058.1,"yT2":0,"toosoon":0,"cond_shown":"equaldotanddens","ratio_trial":500,"smaller_num":"10","larger_num":"20","correct_side":2,"subjID":"yeshuaalejandropachonvelez5","gender":"0","age":"9","school":"4"},{"start_time":1552074054990,"click_time":1552074056327,"finger_time":1552074055567,"fix_duration":1322.0235984142737,"trial":7,"RT":577,"MT":760,"sideResp":1,"stimulus":"img/750/equaldotanddens/L/6_Ratio_750_L_24_R_18.png","xmouse":[800,800,800,800,800,800,800,800,800,800,800,800,800,800,800,800,800,800,800,800,800,800,798,798,798,800,803,805,805,803,795,688,611,545,500,473,459,459,459,460,465,468,468,469,477,494,573,573,573,573,573,573,573,573,573,573,573,651,641,604,583,569,569,569,565,548,494],"ymouse":[581,581,581,581,581,581,581,581,581,581,581,581,581,581,581,581,581,581,581,581,581,581,571,550,542,538,530,517,499,489,481,423,377,330,296,273,255,246,234,219,202,197,197,195,177,151,5,5,5,5,5,5,5,5,5,5,5,18,45,79,85,86,86,86,85,73,12],"timestamp_mouse":[15,40,55,76,97,115,136,157,176,195,216,236,257,277,297,316,336,356,376,396,417,435,456,476,496,517,535,556,577,596,617,636,656,676,696,717,736,756,777,797,817,835,856,875,896,916,937,957,975,997,1017,1036,1056,1076,1096,1117,1136,1157,1176,1196,1216,1237,1255,1276,1295,1317,1336],"xSR":741.5,"ySR":501.8,"xT1":424.9,"yT1":0,"xT2":1058.1,"yT2":0,"toosoon":0,"cond_shown":"equaldotanddens","ratio_trial":750,"smaller_num":"18","larger_num":"24","correct_side":1,"subjID":"yeshuaalejandropachonvelez5","gender":"0","age":"9","school":"4"},{"start_time":1552074061188,"click_time":1552074062706,"finger_time":1552074061966,"fix_duration":1240.755291767144,"trial":8,"RT":778,"MT":740,"sideResp":2,"stimulus":"img/500/equaldotsize/L/5_Ratio_500_L_4_R_2.png","xmouse":[758,758,758,758,758,758,758,758,758,758,758,758,758,758,758,758,758,758,758,758,758,758,758,758,758,758,758,758,758,758,758,758,758,758,758,758,761,785,812,846,889,1022,1115,1206,1285,1285,1285,1285,1285,1285,1285,1285,1285,1285,1285,1285,1214,1213,1211,1206,1201,1199,1198,1197,1191,1187,1185,1185,1185,1181,1175,1171,1168,1167,1165,1158],"ymouse":[582,582,582,582,582,582,582,582,582,582,582,582,582,582,582,582,582,582,582,582,582,582,582,582,582,582,582,582,582,582,582,582,582,582,582,580,578,547,499,450,403,300,227,130,31,31,31,31,31,31,31,31,31,31,31,31,19,31,42,53,64,68,68,68,68,68,68,68,68,68,68,69,70,70,70,70],"timestamp_mouse":[17,39,59,78,99,118,139,158,179,197,217,239,259,277,298,319,338,358,379,399,419,438,457,479,498,517,539,557,578,599,619,638,659,679,699,718,738,759,778,797,817,839,858,878,898,917,938,957,977,998,1018,1039,1058,1077,1098,1118,1139,1158,1177,1198,1218,1239,1259,1278,1297,1318,1339,1359,1378,1397,1418,1437,1459,1479,1498,1518],"xSR":741.5,"ySR":501.8,"xT1":424.9,"yT1":0,"xT2":1058.1,"yT2":0,"toosoon":0,"cond_shown":"equaldotsize","ratio_trial":500,"smaller_num":"2","larger_num":"4","correct_side":1,"subjID":"yeshuaalejandropachonvelez5","gender":"0","age":"9","school":"4"},{"start_time":1552074065093,"click_time":1552074066667,"finger_time":1552074065686,"fix_duration":1145.4058215240736,"trial":9,"RT":593,"MT":981,"sideResp":2,"stimulus":"img/750/equaldotsize/R/12_Ratio_750_L_3_R_4.png","xmouse":[811,811,811,811,811,811,811,811,811,811,811,811,811,811,811,811,811,811,811,811,811,811,809,809,807,806,805,805,805,800,789,767,764,761,757,757,757,756,756,757,758,767,775,775,775,786,791,834,841,842,844,847,862,878,893,907,924,970,1000,1011,1047,1077,1123,1126,1126,1120,1114,1108,1103,1090,1075,1062,1065,1069,1070,1071,1078,1093,1096],"ymouse":[558,558,558,558,558,558,558,558,558,558,558,558,558,558,558,558,558,558,558,558,558,556,532,532,525,522,520,514,503,489,466,429,423,417,409,409,409,408,407,405,403,400,398,398,398,396,393,371,359,347,334,326,298,280,260,240,222,203,201,201,206,209,204,198,189,180,175,171,165,152,135,115,108,107,107,107,105,100,98],"timestamp_mouse":[12,37,53,74,93,114,133,154,174,193,214,233,254,274,294,313,333,354,374,393,412,433,452,472,493,513,532,553,574,593,613,634,653,673,694,713,734,753,774,792,813,834,853,874,892,913,933,953,973,994,1013,1034,1053,1074,1092,1113,1133,1153,1173,1194,1213,1233,1252,1273,1292,1313,1333,1353,1372,1394,1413,1432,1452,1473,1493,1513,1533,1553,1573],"xSR":741.5,"ySR":501.8,"xT1":424.9,"yT1":0,"xT2":1058.1,"yT2":0,"toosoon":0,"cond_shown":"equaldotsize","ratio_trial":750,"smaller_num":"3","larger_num":"4","correct_side":2,"subjID":"yeshuaalejandropachonvelez5","gender":"0","age":"9","school":"4"},{"start_time":1552074068691,"click_time":1552074073426,"finger_time":1552074071785,"fix_duration":502.5802144000262,"trial":10,"RT":3094,"MT":1641,"sideResp":1,"stimulus":"img/250/equaldotanddens/R/4_Ratio_250_L_3_R_12.png","xmouse":[798,798,798,798,798,798,798,798,798,798,798,798,798,798,798,798,798,798,798,798,798,798,798,798,798,798,798,798,798,798,798,798,798,798,798,798,798,798,798,798,798,798,798,798,798,798,798,798,798,798,798,798,798,798,798,798,798,798,798,798,798,798,798,798,798,798,798,798,798,798,798,798,798,798,798,798,798,798,798,798,798,798,798,798,798,798,798,798,798,798,798,798,798,798,798,798,798,798,798,798,798,798,798,798,798,798,798,798,798,798,798,798,798,798,798,798,798,798,798,798,798,798,798,798,798,798,798,798,798,798,798,798,798,798,798,798,798,798,798,798,798,798,798,798,798,798,798,798,798,798,798,798,798,798,798,798,798,797,794,794,794,792,779,742,730,730,713,713,713,713,703,700,679,676,676,676,672,670,666,665,665,665,665,665,647,647,641,641,644,652,662,692,748,757,762,762,762,762,762,753,746,740,731,720,701,677,640,631,618,618,605,575,572,572,572,572,572,572,572,572,572,572,572,572,572,572,572,572,571,563,560,559,557,544,534,526,522],"ymouse":[580,580,580,580,580,580,580,580,580,580,580,580,580,580,580,580,580,580,580,580,580,580,580,580,580,580,580,580,580,580,580,580,580,580,580,580,580,580,580,580,580,580,580,580,580,580,580,580,580,580,580,580,580,580,580,580,580,580,580,580,580,580,580,580,580,580,580,580,580,580,580,580,580,580,580,580,580,580,580,580,580,580,580,580,580,580,580,580,580,580,580,580,580,580,580,580,580,580,580,580,580,580,580,580,580,580,580,580,580,580,580,580,580,580,580,580,580,580,580,580,580,580,580,580,580,580,580,580,580,580,580,580,580,580,580,580,580,580,580,580,580,580,580,580,580,580,580,580,580,580,580,580,569,502,500,500,500,497,492,492,492,491,479,445,427,427,408,408,408,408,400,395,359,317,312,312,298,294,306,310,310,310,310,310,300,300,296,296,284,270,254,212,124,106,89,78,75,75,75,74,72,71,70,70,70,70,70,70,69,69,64,59,58,58,58,58,58,58,58,58,58,58,58,58,58,58,58,58,58,57,57,57,57,55,53,53,53],"timestamp_mouse":[15,46,55,75,95,115,136,155,175,196,215,236,254,275,295,314,336,355,375,395,415,436,456,475,495,515,535,555,576,595,615,635,656,675,696,715,736,756,776,796,814,836,854,875,896,916,936,956,975,995,1016,1035,1056,1075,1096,1115,1135,1154,1176,1196,1216,1235,1255,1274,1294,1314,1334,1354,1374,1395,1415,1435,1455,1474,1496,1516,1535,1556,1575,1595,1616,1636,1655,1676,1695,1715,1734,1755,1775,1796,1815,1835,1856,1876,1896,1915,1936,1956,1975,1994,2016,2035,2056,2074,2095,2116,2135,2156,2175,2194,2214,2235,2256,2276,2295,2314,2336,2356,2375,2396,2414,2435,2455,2475,2496,2516,2535,2555,2575,2595,2616,2636,2654,2676,2695,2716,2736,2755,2776,2795,2815,2835,2856,2876,2896,2915,2935,2955,2976,2995,3014,3035,3055,3075,3094,3115,3135,3157,3175,3195,3215,3236,3255,3275,3296,3315,3334,3356,3376,3396,3415,3435,3455,3475,3496,3515,3535,3556,3575,3594,3614,3635,3656,3675,3696,3714,3734,3755,3775,3795,3815,3835,3857,3874,3894,3916,3936,3956,3975,3995,4015,4034,4057,4076,4096,4115,4135,4154,4174,4194,4216,4234,4256,4275,4295,4314,4335,4355,4375,4395,4416,4434,4455,4475,4496,4515,4536,4555,4575,4595,4614,4635,4656,4675,4695,4715,4734],"xSR":741.5,"ySR":501.8,"xT1":424.9,"yT1":0,"xT2":1058.1,"yT2":0,"toosoon":0,"cond_shown":"equaldotanddens","ratio_trial":250,"smaller_num":"3","larger_num":"12","correct_side":2,"subjID":"yeshuaalejandropachonvelez5","gender":"0","age":"9","school":"4"},{"start_time":1552074075837,"click_time":1552074077086,"finger_time":1552074076525,"fix_duration":250,"trial":11,"RT":688,"MT":561,"sideResp":2,"stimulus":"img/900/equaldotanddens/R/3_Ratio_900_L_9_R_10.png","xmouse":[781,781,781,781,781,781,781,781,781,781,781,781,781,781,781,781,781,781,781,781,781,781,781,781,781,781,781,781,781,781,781,783,802,839,849,861,882,898,930,951,960,976,979,981,981,981,981,981,981,985,1000,1060,1096,1126,1144,1144,1153,1161,1166,1168,1168,1165,1147],"ymouse":[594,594,594,594,594,594,594,594,594,594,594,594,594,594,594,594,594,594,594,594,594,594,594,594,594,594,594,594,594,594,594,592,585,563,553,541,483,416,310,267,245,218,212,206,203,203,203,203,203,203,203,195,183,169,156,156,136,107,90,86,85,84,83],"timestamp_mouse":[9,42,50,68,90,110,130,149,170,188,210,230,248,270,289,309,328,350,370,390,409,430,449,470,490,509,529,550,569,590,609,629,649,668,688,710,730,750,769,789,809,829,849,869,889,909,929,949,969,990,1010,1029,1050,1069,1089,1108,1129,1148,1169,1189,1208,1229,1249],"xSR":741.5,"ySR":501.8,"xT1":424.9,"yT1":0,"xT2":1058.1,"yT2":0,"toosoon":0,"cond_shown":"equaldotanddens","ratio_trial":900,"smaller_num":"9","larger_num":"10","correct_side":2,"subjID":"yeshuaalejandropachonvelez5","gender":"0","age":"9","school":"4"},{"start_time":1552074078617,"click_time":1552074080007,"finger_time":1552074079286,"fix_duration":250,"trial":12,"RT":669,"MT":721,"sideResp":1,"stimulus":"img/250/randomdotsizeEA/L/1_Ratio_250_L_8_R_2.png","xmouse":[795,795,795,795,795,795,795,795,795,795,795,795,795,795,795,795,795,795,795,795,795,795,795,795,795,795,795,795,795,795,795,795,795,793,787,780,777,775,774,774,773,773,773,773,770,763,761,760,740,708,674,641,583,579,579,579,580,580,577,576,573,570,564,552,549,549,549,542,529,517],"ymouse":[563,563,563,563,563,563,563,563,563,563,563,563,563,563,563,563,563,563,563,563,563,563,563,563,563,563,563,563,563,563,563,563,535,498,480,468,463,461,461,461,461,460,456,456,440,418,399,395,352,298,239,181,85,62,48,48,42,40,39,39,38,37,37,36,37,37,37,37,38,41],"timestamp_mouse":[8,42,49,68,89,109,129,148,170,190,208,229,249,269,290,309,330,349,369,389,410,430,448,468,488,508,529,549,569,589,610,629,648,669,689,708,728,750,769,789,809,828,850,869,889,910,929,950,969,989,1008,1028,1050,1068,1089,1109,1128,1149,1168,1189,1209,1229,1249,1269,1290,1310,1329,1351,1369,1389],"xSR":741.5,"ySR":501.8,"xT1":424.9,"yT1":0,"xT2":1058.1,"yT2":0,"toosoon":0,"cond_shown":"randomdotsizeEA","ratio_trial":250,"smaller_num":"2","larger_num":"8","correct_side":1,"subjID":"yeshuaalejandropachonvelez5","gender":"0","age":"9","school":"4"},{"start_time":1552074085030,"click_time":1552074086166,"finger_time":1552074085546,"fix_duration":742.0315811437337,"trial":13,"RT":516,"MT":620,"sideResp":2,"stimulus":"img/500/equaldotanddens/L/10_Ratio_500_L_4_R_2.png","xmouse":[790,790,790,790,790,790,790,790,790,790,790,790,790,790,789,789,789,789,789,789,789,789,789,789,788,788,788,787,788,788,788,788,788,788,788,788,788,812,822,839,864,877,899,923,945,951,952,954,961,966,966,973,1012,1034,1043,1054,1072],"ymouse":[552,552,552,552,552,552,552,552,552,552,552,552,552,552,553,553,553,553,553,553,553,553,553,553,548,501,465,417,408,407,407,407,407,407,407,407,406,358,339,321,298,286,267,252,241,239,238,238,235,231,231,222,153,114,84,45,4],"timestamp_mouse":[16,43,56,77,96,115,136,157,176,196,217,236,256,275,296,316,335,356,376,395,417,437,457,476,496,516,536,557,577,595,616,635,656,677,696,717,736,756,775,796,816,836,857,875,895,916,936,957,976,996,1016,1037,1056,1075,1096,1117,1136],"xSR":741.5,"ySR":501.8,"xT1":424.9,"yT1":0,"xT2":1058.1,"yT2":0,"toosoon":0,"cond_shown":"equaldotanddens","ratio_trial":500,"smaller_num":"2","larger_num":"4","correct_side":1,"subjID":"yeshuaalejandropachonvelez5","gender":"0","age":"9","school":"4"},{"start_time":1552074089778,"click_time":1552074090987,"finger_time":1552074090506,"fix_duration":250,"trial":14,"RT":728,"MT":481,"sideResp":2,"stimulus":"img/250/equaldotsize/R/6_Ratio_250_L_6_R_24.png","xmouse":[797,797,797,797,797,797,797,797,797,797,797,797,797,797,797,797,797,797,797,797,797,797,797,797,797,797,797,797,799,805,818,820,820,820,821,830,846,851,857,867,882,956,998,1059,1121,1147,1213,1213,1213,1213,1213,1213,1213,1213,1213,1213,1213,1213,1213,1213,1152],"ymouse":[568,568,568,568,568,568,568,568,568,568,568,568,568,568,568,568,568,568,568,568,568,568,568,568,568,568,568,568,558,547,530,528,528,528,526,512,498,494,488,477,451,340,289,211,133,100,0,0,0,0,0,0,0,0,0,0,0,0,0,0,1],"timestamp_mouse":[11,27,47,69,88,108,128,149,169,189,208,228,254,269,287,307,328,349,368,389,407,427,449,469,488,508,528,549,569,589,609,627,648,668,688,708,728,748,768,788,808,828,848,870,888,908,928,948,968,988,1009,1029,1049,1068,1089,1108,1129,1148,1168,1187,1208],"xSR":741.5,"ySR":501.8,"xT1":424.9,"yT1":0,"xT2":1058.1,"yT2":0,"toosoon":0,"cond_shown":"equaldotsize","ratio_trial":250,"smaller_num":"6","larger_num":"24","correct_side":2,"subjID":"yeshuaalejandropachonvelez5","gender":"0","age":"9","school":"4"},{"start_time":1552074092279,"click_time":1552074093825,"finger_time":1552074093126,"fix_duration":250,"trial":15,"RT":847,"MT":699,"sideResp":1,"stimulus":"img/750/equaldotanddens/L/8_Ratio_750_L_4_R_3.png","xmouse":[779,779,779,779,779,779,779,779,779,779,779,779,779,779,779,779,779,779,779,779,779,779,779,779,779,779,779,779,779,779,779,779,779,777,776,776,776,776,776,775,774,759,747,732,702,671,614,602,598,593,593,593,593,593,593,593,592,588,575,573,572,572,572,571,567,560,556,556,556,555,550,536,536,535,535,533,521,512],"ymouse":[559,559,559,559,559,559,559,559,559,559,559,559,559,559,559,559,559,559,559,559,559,559,559,559,559,559,559,559,559,559,559,559,559,558,558,558,558,558,558,557,556,516,494,465,428,391,299,268,257,235,231,230,230,230,229,226,204,195,174,173,172,172,172,171,170,167,166,166,166,166,161,137,131,129,126,123,106,92],"timestamp_mouse":[10,42,47,67,88,106,127,148,167,187,208,227,247,267,288,308,328,348,367,387,406,428,447,467,488,508,528,548,567,586,606,655,655,667,686,708,728,747,767,787,807,828,847,868,888,907,927,946,967,986,1006,1027,1048,1067,1087,1106,1127,1147,1167,1187,1208,1227,1247,1266,1287,1306,1327,1347,1368,1388,1407,1427,1448,1467,1487,1507,1527,1546],"xSR":741.5,"ySR":501.8,"xT1":424.9,"yT1":0,"xT2":1058.1,"yT2":0,"toosoon":0,"cond_shown":"equaldotanddens","ratio_trial":750,"smaller_num":"3","larger_num":"4","correct_side":1,"subjID":"yeshuaalejandropachonvelez5","gender":"0","age":"9","school":"4"},{"start_time":1552074096167,"click_time":1552074097486,"finger_time":1552074096966,"fix_duration":1420.8885956802792,"trial":16,"RT":799,"MT":520,"sideResp":2,"stimulus":"img/500/randomdotsizeEA/R/12_Ratio_500_L_1_R_2.png","xmouse":[762,762,762,762,762,762,762,762,762,762,762,762,762,762,762,762,762,762,762,762,762,762,762,762,762,762,762,762,762,762,762,762,762,762,762,762,761,771,785,802,821,858,892,912,927,937,943,951,953,956,964,973,993,1003,1009,1010,1020,1024,1024,1024,1026,1026,1028,1031,1040,1059],"ymouse":[545,545,545,545,545,545,545,545,545,545,545,545,545,545,545,545,545,545,545,545,545,545,545,545,545,545,545,545,545,545,545,545,545,545,545,545,540,524,509,489,466,418,371,336,307,285,269,244,229,210,188,169,126,112,107,105,101,99,99,99,98,98,98,98,98,93],"timestamp_mouse":[19,39,60,80,99,119,140,160,178,200,219,240,259,278,299,319,339,359,380,399,420,440,459,479,498,520,539,560,578,600,618,639,660,679,698,719,739,759,780,799,819,839,859,879,899,919,938,959,979,998,1019,1040,1058,1079,1099,1119,1139,1158,1179,1198,1219,1239,1260,1279,1298,1319],"xSR":741.5,"ySR":501.8,"xT1":424.9,"yT1":0,"xT2":1058.1,"yT2":0,"toosoon":0,"cond_shown":"randomdotsizeEA","ratio_trial":500,"smaller_num":"1","larger_num":"2","correct_side":2,"subjID":"yeshuaalejandropachonvelez5","gender":"0","age":"9","school":"4"},{"start_time":1552074100791,"click_time":1552074102345,"finger_time":1552074101486,"fix_duration":264.18681571545045,"trial":17,"RT":695,"MT":859,"sideResp":1,"stimulus":"img/900/equaldotsize/L/2_Ratio_900_L_20_R_18.png","xmouse":[790,790,790,790,790,790,790,790,790,790,790,790,790,790,790,790,790,790,790,790,790,790,790,790,790,790,790,790,790,790,790,790,788,781,771,757,706,682,671,664,659,654,653,652,652,652,652,646,646,646,644,619,602,590,590,590,584,583,583,583,582,576,572,568,566,562,554,553,552,543,541,522,520,520,520,518,486,462],"ymouse":[517,517,517,517,517,517,517,517,517,517,517,517,517,517,517,517,517,517,517,517,517,517,517,517,517,517,517,517,517,517,517,517,511,502,491,481,433,404,374,345,314,295,289,282,282,282,282,276,275,275,275,270,265,260,260,260,251,243,237,236,223,191,173,158,150,144,139,138,138,135,135,129,128,128,128,128,108,95],"timestamp_mouse":[14,36,55,75,95,115,135,156,176,195,215,236,256,275,295,315,336,355,375,396,415,435,454,475,495,515,535,556,576,594,615,636,655,675,695,715,736,755,775,795,815,834,855,876,895,914,935,956,976,995,1014,1035,1055,1076,1096,1115,1135,1155,1174,1195,1214,1235,1255,1276,1295,1316,1335,1355,1375,1394,1415,1435,1456,1475,1495,1516,1535,1554],"xSR":741.5,"ySR":501.8,"xT1":424.9,"yT1":0,"xT2":1058.1,"yT2":0,"toosoon":0,"cond_shown":"equaldotsize","ratio_trial":900,"smaller_num":"18","larger_num":"20","correct_side":1,"subjID":"yeshuaalejandropachonvelez5","gender":"0","age":"9","school":"4"},{"start_time":1552074104341,"click_time":1552074105506,"finger_time":1552074105067,"fix_duration":672.5761155357399,"trial":18,"RT":726,"MT":439,"sideResp":2,"stimulus":"img/250/equaldotanddens/R/12_Ratio_250_L_5_R_20.png","xmouse":[789,789,789,789,789,789,789,789,789,789,789,789,789,789,789,789,789,789,789,789,789,789,789,789,789,789,789,789,789,789,789,789,789,789,800,830,852,876,895,909,916,922,928,934,937,937,937,939,942,943,968,1006,1034,1050,1058,1063,1067,1072,1077],"ymouse":[573,573,573,573,573,573,573,573,573,573,573,573,573,573,573,573,573,573,573,573,573,573,573,573,573,573,573,573,573,573,573,573,573,573,556,521,497,469,442,412,332,309,290,274,258,253,249,247,243,241,226,201,181,165,152,127,117,103,89],"timestamp_mouse":[12,38,45,64,85,106,125,146,164,186,206,225,244,266,286,305,324,344,366,385,406,425,445,465,486,505,524,545,566,585,606,624,646,665,685,705,726,745,765,786,805,825,846,865,886,905,925,945,966,986,1004,1025,1044,1065,1085,1105,1125,1145,1165],"xSR":741.5,"ySR":501.8,"xT1":424.9,"yT1":0,"xT2":1058.1,"yT2":0,"toosoon":0,"cond_shown":"equaldotanddens","ratio_trial":250,"smaller_num":"5","larger_num":"20","correct_side":2,"subjID":"yeshuaalejandropachonvelez5","gender":"0","age":"9","school":"4"},{"start_time":1552074107626,"click_time":1552074109886,"finger_time":1552074108246,"fix_duration":1197.8640991885336,"trial":19,"RT":620,"MT":1640,"sideResp":1,"stimulus":"img/250/equaldotanddens/L/2_Ratio_250_L_16_R_4.png","xmouse":[777,777,777,777,777,777,777,777,777,777,777,777,777,777,777,777,777,777,777,777,777,777,777,777,777,777,777,777,780,786,792,801,801,790,782,754,734,721,712,702,702,702,699,699,699,699,699,699,699,685,661,618,618,617,617,617,605,597,593,587,580,571,560,553,542,533,517,512,509,507,501,501,498,497,496,496,496,496,496,496,496,496,496,492,492,492,492,492,492,492,492,492,492,492,492,492,492,492,492,492,492,492,492,492,492,492,492,492,491,490,489,489,488,487],"ymouse":[568,568,568,568,568,568,568,568,568,568,568,568,568,568,568,568,568,568,568,568,568,568,568,568,568,568,568,567,553,538,522,485,467,438,425,396,383,370,354,339,339,339,333,333,333,333,333,333,333,324,306,277,275,273,272,272,257,249,244,238,231,222,213,204,191,180,164,161,157,154,143,143,140,138,138,138,138,138,138,138,138,138,133,123,121,121,121,121,121,121,121,121,121,121,121,121,121,121,121,121,121,121,121,121,121,121,120,116,114,114,113,113,112,96],"timestamp_mouse":[9,20,41,59,79,100,121,141,160,180,201,219,239,260,280,301,319,339,361,381,401,420,441,460,480,501,521,540,559,580,600,620,639,660,681,700,720,740,759,779,800,820,841,859,880,899,921,940,960,981,1000,1019,1041,1060,1079,1100,1120,1140,1160,1180,1199,1220,1239,1260,1288,1300,1319,1340,1361,1380,1400,1420,1441,1460,1479,1500,1521,1541,1561,1580,1601,1619,1641,1660,1680,1700,1719,1740,1759,1781,1799,1820,1841,1860,1881,1901,1919,1939,1961,1981,2000,2020,2040,2060,2080,2100,2120,2140,2161,2180,2200,2219,2241,2260],"xSR":741.5,"ySR":501.8,"xT1":424.9,"yT1":0,"xT2":1058.1,"yT2":0,"toosoon":0,"cond_shown":"equaldotanddens","ratio_trial":250,"smaller_num":"4","larger_num":"16","correct_side":1,"subjID":"yeshuaalejandropachonvelez5","gender":"0","age":"9","school":"4"},{"start_time":1552074112410,"click_time":1552074113627,"finger_time":1552074112966,"fix_duration":843.9894644583169,"trial":20,"RT":556,"MT":661,"sideResp":1,"stimulus":"img/250/equaldotsize/L/14_Ratio_250_L_12_R_3.png","xmouse":[787,787,787,787,787,787,787,787,787,787,787,787,787,787,787,787,787,787,787,787,787,787,787,787,785,779,776,777,780,786,789,789,760,753,745,741,738,729,715,707,707,707,707,707,707,707,707,632,632,632,609,599,562,543,527,525,525,525,525,525,524],"ymouse":[514,514,514,514,514,514,514,514,514,514,514,514,514,514,514,514,514,514,514,514,514,514,514,514,512,510,508,500,477,432,355,182,71,54,38,31,24,14,7,2,2,2,2,2,2,2,2,0,0,0,26,34,67,83,95,96,96,96,96,96,96],"timestamp_mouse":[16,43,55,76,96,116,136,156,175,196,217,235,256,277,296,317,336,356,375,397,417,437,456,476,496,517,536,556,576,597,616,637,656,676,695,716,736,756,776,796,815,836,855,876,896,917,937,957,977,996,1016,1035,1055,1075,1095,1116,1135,1156,1175,1196,1217],"xSR":741.5,"ySR":501.8,"xT1":424.9,"yT1":0,"xT2":1058.1,"yT2":0,"toosoon":0,"cond_shown":"equaldotsize","ratio_trial":250,"smaller_num":"3","larger_num":"12","correct_side":1,"subjID":"yeshuaalejandropachonvelez5","gender":"0","age":"9","school":"4"},{"start_time":1552074120248,"click_time":1552074122385,"finger_time":1552074121046,"fix_duration":1060.3156398481274,"trial":21,"RT":798,"MT":1339,"sideResp":2,"stimulus":"img/500/equaldotsize/R/1_Ratio_500_L_9_R_18.png","xmouse":[800,800,800,800,800,800,800,800,800,800,800,800,800,800,800,800,800,800,800,800,800,800,800,800,800,800,800,800,800,800,800,800,800,800,800,800,798,793,788,782,773,771,771,771,772,775,780,783,791,800,817,826,835,847,861,876,972,1028,1028,1028,1028,1028,1028,1028,1028,1028,1028,1028,1028,1028,1028,1266,1266,1265,1265,1265,1260,1255,1254,1254,1245,1233,1224,1217,1208,1194,1183,1183,1183,1183,1183,1183,1183,1183,1183,1183,1183,1183,1183,1183,1183,1183,1180,1179,1178,1168,1154],"ymouse":[552,552,552,552,552,552,552,552,552,552,552,552,552,552,552,552,552,552,552,552,552,552,552,552,552,552,552,552,552,552,552,552,552,552,552,552,551,536,515,495,471,467,461,450,435,425,406,399,391,383,373,366,356,342,326,312,156,39,39,39,39,39,39,39,39,39,39,39,39,39,39,16,17,17,17,17,18,18,18,18,17,16,16,18,27,52,79,79,79,79,79,79,79,79,79,79,79,79,79,79,79,79,79,79,79,84,95],"timestamp_mouse":[18,40,57,77,97,117,137,158,178,199,217,237,259,278,299,318,338,359,378,398,418,437,458,478,499,519,538,559,579,598,617,638,659,679,699,717,737,758,778,798,818,837,858,877,899,918,939,958,977,998,1018,1038,1058,1078,1099,1117,1139,1157,1178,1198,1218,1238,1259,1278,1299,1318,1339,1359,1378,1399,1418,1438,1458,1477,1498,1518,1538,1557,1578,1598,1619,1638,1658,1678,1698,1719,1737,1758,1779,1799,1818,1838,1858,1878,1898,1918,1938,1959,1978,1999,2018,2037,2058,2078,2098,2119,2137],"xSR":741.5,"ySR":501.8,"xT1":424.9,"yT1":0,"xT2":1058.1,"yT2":0,"toosoon":0,"cond_shown":"equaldotsize","ratio_trial":500,"smaller_num":"9","larger_num":"18","correct_side":2,"subjID":"yeshuaalejandropachonvelez5","gender":"0","age":"9","school":"4"},{"start_time":1552074130619,"click_time":1552074132567,"finger_time":1552074131525,"fix_duration":1412.0048719531503,"trial":22,"RT":906,"MT":1042,"sideResp":1,"stimulus":"img/250/equaldotanddens/L/7_Ratio_250_L_8_R_2.png","xmouse":[760,760,760,760,760,760,760,760,760,760,760,760,760,760,760,760,760,760,760,760,760,760,760,760,760,760,760,760,760,760,760,760,760,760,760,760,760,760,760,760,760,760,760,760,760,762,780,809,809,809,809,809,809,809,809,809,809,809,809,809,809,809,809,779,737,713,698,677,644,608,608,608,608,608,608,610,611,611,603,602,602,601,599,599,571,566,566,566,565,565,558,543,532,531,531,531,529,523],"ymouse":[557,557,557,557,557,557,557,557,557,557,557,557,557,557,557,557,557,557,557,557,557,557,557,557,557,557,557,557,557,557,557,557,557,557,557,557,557,557,557,557,557,557,557,557,557,481,261,61,61,61,61,61,61,61,61,61,61,61,61,61,61,61,61,14,41,46,51,67,110,158,158,159,159,159,159,159,159,156,145,145,144,144,144,144,129,123,123,123,123,123,120,110,100,98,98,95,91,84],"timestamp_mouse":[9,41,47,67,88,108,126,147,167,188,208,226,247,268,287,307,328,348,367,387,407,427,447,466,487,508,528,547,566,587,608,628,648,668,687,707,726,747,768,788,806,827,846,868,888,906,926,946,968,986,1007,1027,1046,1068,1087,1107,1127,1147,1168,1187,1206,1226,1247,1267,1287,1307,1327,1347,1367,1387,1407,1427,1448,1467,1486,1507,1527,1546,1568,1586,1607,1627,1647,1667,1686,1707,1728,1746,1768,1786,1807,1828,1847,1867,1888,1907,1927,1948],"xSR":741.5,"ySR":501.8,"xT1":424.9,"yT1":0,"xT2":1058.1,"yT2":0,"toosoon":0,"cond_shown":"equaldotanddens","ratio_trial":250,"smaller_num":"2","larger_num":"8","correct_side":1,"subjID":"yeshuaalejandropachonvelez5","gender":"0","age":"9","school":"4"},{"start_time":1552074142066,"click_time":1552074143326,"finger_time":1552074142625,"fix_duration":837.7863297831651,"trial":23,"RT":559,"MT":701,"sideResp":1,"stimulus":"img/500/equaldotanddens/L/8_Ratio_500_L_8_R_4.png","xmouse":[761,761,761,761,760,761,768,771,774,774,774,774,774,774,774,774,774,774,774,774,774,774,774,774,774,778,780,780,770,767,767,765,757,706,664,628,616,615,603,581,535,458,401,378,378,378,380,381,383,388,390,392,394,400,403,408,412,414,420,425,430,433,435,446],"ymouse":[550,550,550,550,549,543,531,528,525,523,523,523,523,523,523,523,523,523,523,523,523,523,522,522,520,517,513,506,470,450,427,407,382,316,283,265,261,261,258,244,216,173,146,132,132,132,130,119,103,100,98,98,98,98,98,98,98,98,100,100,100,101,101,94],"timestamp_mouse":[10,20,40,59,79,100,121,139,160,180,201,219,241,259,279,300,320,340,359,380,401,421,441,461,480,500,519,540,559,580,601,620,640,660,681,700,720,740,760,780,801,820,840,860,879,900,920,939,960,980,1001,1021,1040,1060,1080,1100,1120,1140,1159,1180,1201,1220,1240,1260],"xSR":741.5,"ySR":501.8,"xT1":424.9,"yT1":0,"xT2":1058.1,"yT2":0,"toosoon":0,"cond_shown":"equaldotanddens","ratio_trial":500,"smaller_num":"4","larger_num":"8","correct_side":1,"subjID":"yeshuaalejandropachonvelez5","gender":"0","age":"9","school":"4"},{"start_time":1552074152104,"click_time":1552074153246,"finger_time":1552074152686,"fix_duration":956.0981687135155,"trial":24,"RT":582,"MT":560,"sideResp":2,"stimulus":"img/900/randomdotsizeEA/R/7_Ratio_900_L_9_R_10.png","xmouse":[782,782,782,782,782,782,782,782,782,782,782,782,782,782,782,782,782,782,782,782,782,782,782,782,782,782,786,804,825,846,867,878,914,952,986,1005,1016,1023,1023,1023,1027,1031,1042,1056,1077,1094,1104,1101,1097,1096,1095,1095,1092,1090,1090,1090,1090,1095],"ymouse":[563,563,563,563,563,563,563,563,563,563,563,563,563,563,563,563,563,563,563,563,563,563,563,563,563,563,561,551,542,531,516,504,455,412,378,355,343,334,334,333,332,331,317,295,258,220,191,142,125,123,123,122,120,115,112,110,106,98],"timestamp_mouse":[9,22,41,63,82,103,122,143,161,181,202,221,243,263,282,302,322,343,363,382,401,421,442,461,483,502,521,541,562,582,601,622,642,663,682,703,722,742,762,782,803,822,841,862,882,902,922,942,961,983,1002,1021,1041,1062,1082,1102,1122,1142],"xSR":741.5,"ySR":501.8,"xT1":424.9,"yT1":0,"xT2":1058.1,"yT2":0,"toosoon":0,"cond_shown":"randomdotsizeEA","ratio_trial":900,"smaller_num":"9","larger_num":"10","correct_side":2,"subjID":"yeshuaalejandropachonvelez5","gender":"0","age":"9","school":"4"},{"start_time":1552074158360,"click_time":1552074159465,"finger_time":1552074159107,"fix_duration":1192.2758595717612,"trial":25,"RT":747,"MT":358,"sideResp":2,"stimulus":"img/900/equaldotsize/R/11_Ratio_900_L_18_R_20.png","xmouse":[818,818,818,818,818,818,818,818,818,818,818,818,818,818,818,818,818,818,818,818,818,818,818,818,818,818,818,818,818,818,818,818,818,818,822,825,837,848,864,932,958,971,976,978,983,989,991,991,991,991,991,991,992,994,1030,1122],"ymouse":[533,533,533,533,533,533,533,533,533,533,533,533,533,533,533,533,533,533,533,533,533,533,533,533,533,533,533,533,533,533,533,533,533,533,530,528,520,510,489,379,315,266,244,224,190,159,148,140,137,137,137,137,136,136,116,39],"timestamp_mouse":[10,41,46,65,86,107,127,145,165,186,206,226,247,266,286,305,327,346,365,385,407,426,447,467,486,506,526,547,565,587,607,626,646,665,686,707,726,747,766,787,805,825,845,867,886,906,925,945,965,987,1006,1026,1046,1066,1085,1105],"xSR":741.5,"ySR":501.8,"xT1":424.9,"yT1":0,"xT2":1058.1,"yT2":0,"toosoon":0,"cond_shown":"equaldotsize","ratio_trial":900,"smaller_num":"18","larger_num":"20","correct_side":2,"subjID":"yeshuaalejandropachonvelez5","gender":"0","age":"9","school":"4"},{"start_time":1552074160893,"click_time":1552074161927,"finger_time":1552074161370,"fix_duration":304.2700483714967,"trial":26,"RT":477,"MT":557,"sideResp":2,"stimulus":"img/750/equaldotanddens/R/2_Ratio_750_L_6_R_8.png","xmouse":[800,800,800,800,800,800,800,800,800,800,800,800,800,800,800,800,800,800,800,800,803,807,815,843,847,861,864,868,868,869,870,883,911,961,1023,1036,1061,1065,1072,1075,1078,1083,1089,1100,1102,1103,1103,1103,1103,1103,1106,1110],"ymouse":[562,562,562,562,562,562,562,562,562,562,562,562,562,562,562,562,562,562,562,562,562,559,553,496,482,444,436,427,427,426,426,414,389,338,255,231,173,155,145,143,143,139,134,118,112,110,110,110,110,110,106,99],"timestamp_mouse":[14,41,52,73,93,114,132,154,173,192,213,234,254,273,293,314,334,353,372,392,413,433,453,477,494,513,534,553,573,594,613,633,653,673,692,714,733,753,773,793,814,833,854,873,892,912,934,954,973,993,1013,1034],"xSR":741.5,"ySR":501.8,"xT1":424.9,"yT1":0,"xT2":1058.1,"yT2":0,"toosoon":0,"cond_shown":"equaldotanddens","ratio_trial":750,"smaller_num":"6","larger_num":"8","correct_side":2,"subjID":"yeshuaalejandropachonvelez5","gender":"0","age":"9","school":"4"},{"start_time":1552074163976,"click_time":1552074164926,"finger_time":1552074164666,"fix_duration":1069.29969338816,"trial":27,"RT":690,"MT":260,"sideResp":1,"stimulus":"img/250/equaldotsize/L/2_Ratio_250_L_16_R_4.png","xmouse":[796,796,796,796,796,796,796,796,796,796,796,796,796,796,796,796,796,796,796,796,796,796,796,796,796,796,796,796,796,795,788,778,764,753,732,717,701,684,658,586,545,532,525,517,504,500,495,485],"ymouse":[592,592,592,592,592,592,592,592,592,592,592,592,592,592,592,592,592,592,592,592,592,592,592,592,592,592,592,592,592,591,586,582,574,565,538,519,498,474,438,332,238,200,173,156,133,124,111,94],"timestamp_mouse":[10,36,50,70,90,110,130,149,170,190,209,230,251,270,291,309,331,351,370,391,411,430,449,471,489,509,530,551,570,590,609,630,651,670,690,709,730,750,771,791,811,830,851,870,890,910,929,949],"xSR":741.5,"ySR":501.8,"xT1":424.9,"yT1":0,"xT2":1058.1,"yT2":0,"toosoon":0,"cond_shown":"equaldotsize","ratio_trial":250,"smaller_num":"4","larger_num":"16","correct_side":1,"subjID":"yeshuaalejandropachonvelez5","gender":"0","age":"9","school":"4"},{"start_time":1552074168667,"click_time":1552074169785,"finger_time":1552074169347,"fix_duration":558.3479914078675,"trial":28,"RT":680,"MT":438,"sideResp":2,"stimulus":"img/500/equaldotanddens/R/6_Ratio_500_L_9_R_18.png","xmouse":[816,816,816,816,816,816,816,816,816,816,816,816,816,816,816,816,816,816,816,816,816,816,816,816,816,816,816,816,816,816,816,816,827,840,876,977,1019,1034,1042,1043,1043,1044,1046,1051,1057,1061,1062,1062,1063,1067,1072,1083,1089,1097,1099,1106,1116],"ymouse":[574,574,574,574,574,574,574,574,574,574,574,574,574,574,574,574,574,574,574,574,574,574,574,574,574,574,574,574,574,574,574,574,556,541,506,418,372,342,313,289,284,275,271,264,252,244,243,242,235,222,210,185,172,146,138,110,65],"timestamp_mouse":[2,19,38,58,80,98,119,140,159,179,199,220,238,258,279,299,319,339,360,378,399,419,439,459,478,498,520,540,560,580,600,619,639,659,680,699,718,740,759,779,799,819,839,859,879,898,918,939,959,979,1000,1019,1039,1059,1078,1099,1118],"xSR":741.5,"ySR":501.8,"xT1":424.9,"yT1":0,"xT2":1058.1,"yT2":0,"toosoon":0,"cond_shown":"equaldotanddens","ratio_trial":500,"smaller_num":"9","larger_num":"18","correct_side":2,"subjID":"yeshuaalejandropachonvelez5","gender":"0","age":"9","school":"4"},{"start_time":1552074170957,"click_time":1552074171887,"finger_time":1552074171485,"fix_duration":469.90937278306586,"trial":29,"RT":528,"MT":402,"sideResp":1,"stimulus":"img/750/equaldotsize/L/10_Ratio_750_L_4_R_3.png","xmouse":[819,819,819,817,817,817,817,817,817,817,817,817,817,817,817,817,817,817,817,817,817,815,813,807,795,774,726,694,687,666,657,647,642,634,624,616,603,599,586,573,558,538,534,530,523,509,471],"ymouse":[546,546,546,540,536,535,535,535,535,535,535,535,535,535,535,535,535,535,535,535,535,534,533,531,523,507,454,400,385,330,300,259,241,220,203,188,168,162,155,149,144,137,135,134,129,118,91],"timestamp_mouse":[10,43,49,70,89,110,129,149,169,190,208,228,250,269,290,309,329,350,369,388,409,430,448,470,488,510,528,548,570,590,610,629,648,668,689,710,729,748,769,789,809,828,849,869,889,908,929],"xSR":741.5,"ySR":501.8,"xT1":424.9,"yT1":0,"xT2":1058.1,"yT2":0,"toosoon":0,"cond_shown":"equaldotsize","ratio_trial":750,"smaller_num":"3","larger_num":"4","correct_side":1,"subjID":"yeshuaalejandropachonvelez5","gender":"0","age":"9","school":"4"},{"start_time":1552074173437,"click_time":1552074174487,"finger_time":1552074174066,"fix_duration":629.6092970629771,"trial":30,"RT":629,"MT":421,"sideResp":2,"stimulus":"img/500/equaldotanddens/R/15_Ratio_500_L_1_R_2.png","xmouse":[769,769,769,769,769,769,769,769,769,769,769,769,769,769,769,769,769,769,770,778,781,781,781,781,781,781,781,782,784,794,807,827,902,945,979,1005,1018,1028,1032,1038,1048,1055,1060,1060,1060,1060,1060,1069,1075,1084,1093,1099,1100],"ymouse":[548,548,548,548,548,548,548,548,548,548,548,548,548,548,548,548,548,548,548,534,531,531,531,531,531,531,531,531,529,523,511,491,398,335,288,252,231,216,211,202,190,180,168,166,166,166,166,153,142,128,114,104,88],"timestamp_mouse":[9,38,50,68,88,110,130,148,169,188,209,228,250,270,289,308,329,350,369,388,409,430,450,470,488,509,529,550,569,590,610,629,650,668,688,709,729,750,769,790,810,830,849,868,888,910,929,949,968,989,1009,1028,1050],"xSR":741.5,"ySR":501.8,"xT1":424.9,"yT1":0,"xT2":1058.1,"yT2":0,"toosoon":0,"cond_shown":"equaldotanddens","ratio_trial":500,"smaller_num":"1","larger_num":"2","correct_side":2,"subjID":"yeshuaalejandropachonvelez5","gender":"0","age":"9","school":"4"},{"start_time":1552074175611,"click_time":1552074176506,"finger_time":1552074176286,"fix_duration":383.26075266658154,"trial":31,"RT":675,"MT":220,"sideResp":2,"stimulus":"img/750/equaldotanddens/R/7_Ratio_750_L_3_R_4.png","xmouse":[819,819,819,819,819,819,819,819,819,819,819,819,819,818,817,817,817,817,816,813,811,809,809,808,808,808,808,808,810,817,821,825,838,854,886,906,930,959,1032,1064,1084,1092,1094,1096,1105],"ymouse":[565,565,565,565,565,565,565,565,565,565,565,565,565,565,565,565,565,565,564,558,554,552,551,551,551,551,551,549,548,544,540,532,510,484,427,379,329,281,186,153,134,125,121,116,97],"timestamp_mouse":[17,36,55,75,94,115,136,155,176,194,216,234,255,276,295,315,335,354,375,394,415,435,455,474,494,514,536,555,576,595,615,636,656,675,696,715,734,754,776,795,816,836,854,875,895],"xSR":741.5,"ySR":501.8,"xT1":424.9,"yT1":0,"xT2":1058.1,"yT2":0,"toosoon":0,"cond_shown":"equaldotanddens","ratio_trial":750,"smaller_num":"3","larger_num":"4","correct_side":2,"subjID":"yeshuaalejandropachonvelez5","gender":"0","age":"9","school":"4"},{"start_time":1552074178144,"click_time":1552074179286,"finger_time":1552074178826,"fix_duration":577.6704460429054,"trial":32,"RT":682,"MT":460,"sideResp":2,"stimulus":"img/250/equaldotsize/R/6_Ratio_250_L_6_R_24.png","xmouse":[797,797,797,797,797,797,797,797,797,797,797,797,797,797,797,797,797,797,797,797,797,797,797,797,797,797,797,797,797,797,797,797,797,802,843,909,1016,1048,1071,1078,1090,1103,1109,1110,1110,1110,1110,1110,1110,1106,1096,1084,1074,1063,1063,1063,1063,1063],"ymouse":[560,560,560,560,560,560,560,560,560,560,560,560,560,560,560,560,560,560,560,560,560,560,560,560,560,560,560,560,560,560,560,560,560,559,530,490,425,379,329,309,290,267,244,196,178,167,166,166,164,154,141,126,114,104,104,102,100,98],"timestamp_mouse":[11,23,43,62,82,103,122,141,162,182,203,222,242,263,282,302,323,342,362,382,401,422,443,463,481,502,522,542,561,582,603,622,642,662,682,702,722,742,761,782,802,821,841,861,882,902,922,943,961,982,1003,1021,1042,1062,1081,1102,1121,1142],"xSR":741.5,"ySR":501.8,"xT1":424.9,"yT1":0,"xT2":1058.1,"yT2":0,"toosoon":0,"cond_shown":"equaldotsize","ratio_trial":250,"smaller_num":"6","larger_num":"24","correct_side":2,"subjID":"yeshuaalejandropachonvelez5","gender":"0","age":"9","school":"4"},{"start_time":1552074181442,"click_time":1552074182447,"finger_time":1552074182066,"fix_duration":1315.4509240962682,"trial":33,"RT":624,"MT":381,"sideResp":2,"stimulus":"img/250/equaldotsize/R/10_Ratio_250_L_4_R_16.png","xmouse":[810,810,810,810,810,810,810,810,810,810,810,810,810,810,810,810,810,810,810,810,810,810,810,810,810,810,810,810,810,810,813,851,900,963,1058,1087,1113,1131,1150,1176,1185,1185,1184,1183,1183,1182,1178,1170,1165,1159,1154],"ymouse":[569,569,569,569,569,569,569,569,569,569,569,569,569,569,569,569,569,569,569,569,569,569,569,569,569,569,569,569,569,569,568,507,443,388,300,269,240,218,193,150,120,106,97,93,91,90,87,84,82,80,80],"timestamp_mouse":[10,38,44,64,84,104,125,144,165,183,205,225,244,264,285,304,324,344,363,385,405,424,444,464,483,504,524,543,565,585,604,624,644,663,684,704,724,744,764,785,803,823,843,864,883,905,925,945,964,985,1005],"xSR":741.5,"ySR":501.8,"xT1":424.9,"yT1":0,"xT2":1058.1,"yT2":0,"toosoon":0,"cond_shown":"equaldotsize","ratio_trial":250,"smaller_num":"4","larger_num":"16","correct_side":2,"subjID":"yeshuaalejandropachonvelez5","gender":"0","age":"9","school":"4"},{"start_time":1552074185054,"click_time":1552074186766,"finger_time":1552074185826,"fix_duration":426.4670570332685,"trial":34,"RT":772,"MT":940,"sideResp":2,"stimulus":"img/250/equaldotsize/R/10_Ratio_250_L_4_R_16.png","xmouse":[775,775,775,775,775,775,775,775,775,775,775,775,775,775,775,775,775,775,775,775,775,775,775,775,775,775,775,775,775,775,775,775,775,775,775,775,775,784,817,861,904,932,964,1040,1066,1092,1104,1104,1104,1104,1105,1105,1105,1105,1105,1105,1105,1105,1105,1105,1105,1105,1105,1105,1105,1105,1105,1105,1105,1105,1105,1105,1105,1105,1105,1105,1105,1105,1105,1105,1105,1105,1105,1106,1108,1108],"ymouse":[586,586,586,586,586,586,586,586,586,586,586,586,586,586,586,586,586,586,586,586,586,586,586,586,586,586,586,586,586,586,586,586,586,586,586,585,560,530,462,400,355,327,297,190,152,120,109,109,109,109,109,108,105,105,105,105,105,105,105,105,105,105,105,105,105,105,105,105,105,105,105,105,105,105,105,105,105,105,105,105,105,104,102,101,100,99],"timestamp_mouse":[11,32,53,72,93,111,132,153,173,193,211,232,252,273,292,313,332,353,373,392,412,433,451,472,492,513,533,552,571,593,613,633,652,672,692,712,733,753,772,792,811,833,852,871,892,911,932,952,972,993,1013,1033,1053,1072,1092,1112,1131,1152,1172,1193,1213,1232,1253,1271,1291,1312,1332,1353,1373,1393,1412,1431,1451,1472,1491,1512,1533,1552,1573,1593,1613,1631,1654,1671,1691,1712],"xSR":741.5,"ySR":501.8,"xT1":424.9,"yT1":0,"xT2":1058.1,"yT2":0,"toosoon":0,"cond_shown":"equaldotsize","ratio_trial":250,"smaller_num":"4","larger_num":"16","correct_side":2,"subjID":"yeshuaalejandropachonvelez5","gender":"0","age":"9","school":"4"},{"start_time":1552074187918,"click_time":1552074188947,"finger_time":1552074188526,"fix_duration":250,"trial":35,"RT":608,"MT":421,"sideResp":1,"stimulus":"img/750/equaldotanddens/L/14_Ratio_750_L_8_R_6.png","xmouse":[806,806,806,806,806,806,806,806,806,806,806,806,806,806,806,806,806,806,806,806,806,806,806,806,806,806,806,806,806,806,808,820,827,814,794,773,769,766,761,752,728,721,711,698,693,659,651,642,627,609,549,500],"ymouse":[508,508,508,508,508,508,508,508,508,508,508,508,508,508,508,508,508,508,508,508,508,508,508,508,508,508,508,508,508,507,497,469,403,363,327,287,268,244,218,194,166,163,160,156,154,143,140,136,131,124,99,78],"timestamp_mouse":[9,42,48,67,88,108,128,147,168,188,207,227,249,268,287,308,328,347,368,388,409,428,448,469,488,507,527,547,569,588,608,628,647,668,688,707,728,748,768,787,807,827,847,868,888,907,928,948,968,987,1009,1029],"xSR":741.5,"ySR":501.8,"xT1":424.9,"yT1":0,"xT2":1058.1,"yT2":0,"toosoon":0,"cond_shown":"equaldotanddens","ratio_trial":750,"smaller_num":"6","larger_num":"8","correct_side":1,"subjID":"yeshuaalejandropachonvelez5","gender":"0","age":"9","school":"4"},{"start_time":1552074192237,"click_time":1552074193927,"finger_time":1552074192726,"fix_duration":250,"trial":36,"RT":489,"MT":1201,"sideResp":2,"stimulus":"img/500/equaldotanddens/R/9_Ratio_500_L_2_R_4.png","xmouse":[814,814,814,814,814,814,814,814,814,814,814,814,814,814,814,814,813,810,810,810,810,810,813,828,872,884,890,906,926,965,982,1000,1016,1024,1028,1019,1018,1021,1025,1025,1025,1025,1025,1025,1028,1044,1056,1067,1072,1072,1072,1072,1072,1072,1072,1072,1072,1072,1072,1072,1078,1078,1078,1078,1078,1078,1078,1078,1078,1078,1078,1078,1078,1078,1077,1077,1077,1077,1077,1077,1077,1077,1077,1079,1085],"ymouse":[564,564,564,564,564,564,564,564,564,564,564,564,564,564,564,563,548,537,537,537,537,536,535,528,510,503,496,482,464,409,371,335,308,290,274,205,181,164,154,150,150,150,150,148,145,138,131,121,114,114,114,114,114,114,114,114,114,114,114,114,108,107,107,107,107,107,107,107,107,107,107,107,107,106,106,106,106,106,106,106,106,106,106,104,99],"timestamp_mouse":[11,31,49,69,89,109,130,149,170,188,208,228,250,268,288,308,328,349,369,389,409,429,449,468,489,508,529,549,569,590,609,630,649,669,689,708,729,748,769,790,809,830,849,869,889,908,929,949,968,990,1010,1029,1050,1070,1090,1109,1129,1148,1168,1189,1209,1228,1250,1269,1289,1310,1329,1349,1369,1388,1408,1428,1449,1470,1489,1509,1528,1549,1569,1588,1608,1629,1649,1668,1690],"xSR":741.5,"ySR":501.8,"xT1":424.9,"yT1":0,"xT2":1058.1,"yT2":0,"toosoon":0,"cond_shown":"equaldotanddens","ratio_trial":500,"smaller_num":"2","larger_num":"4","correct_side":2,"subjID":"yeshuaalejandropachonvelez5","gender":"0","age":"9","school":"4"},{"start_time":1552074196020,"click_time":1552074197048,"finger_time":1552074196646,"fix_duration":1073.8822840718558,"trial":37,"RT":626,"MT":402,"sideResp":2,"stimulus":"img/900/equaldotsize/L/2_Ratio_900_L_20_R_18.png","xmouse":[815,815,815,815,815,815,815,815,815,815,815,815,815,815,815,815,815,815,815,815,815,815,815,815,815,815,815,815,815,815,821,874,915,947,989,1013,1035,1035,1035,1035,1035,1035,1035,1035,1035,1035,1035,1035,1035,1035,1035,1090],"ymouse":[577,577,577,577,577,577,577,577,577,577,577,577,577,577,577,577,577,577,577,577,577,577,577,577,577,577,577,577,577,577,554,458,384,306,173,86,10,10,10,10,10,10,10,10,10,10,10,10,10,10,10,14],"timestamp_mouse":[13,41,46,66,86,106,127,147,167,185,206,227,245,266,287,305,325,345,366,386,406,425,447,465,485,505,527,547,565,585,606,626,646,667,686,706,726,745,765,785,805,826,846,866,886,907,926,945,967,987,1006,1028],"xSR":741.5,"ySR":501.8,"xT1":424.9,"yT1":0,"xT2":1058.1,"yT2":0,"toosoon":0,"cond_shown":"equaldotsize","ratio_trial":900,"smaller_num":"18","larger_num":"20","correct_side":1,"subjID":"yeshuaalejandropachonvelez5","gender":"0","age":"9","school":"4"},{"start_time":1552074198499,"click_time":1552074199085,"finger_time":1552074198886,"fix_duration":649.511192626659,"trial":38,"RT":387,"MT":199,"sideResp":1,"stimulus":"img/900/equaldotsize/R/15_Ratio_900_L_9_R_10.png","xmouse":[829,829,829,829,829,829,829,829,829,829,829,829,829,829,829,828,823,804,799,788,782,774,762,715,674,649,635,581,543,507],"ymouse":[547,547,547,547,547,547,547,547,547,547,547,547,547,547,547,547,545,524,515,491,470,444,404,319,273,240,216,133,96,73],"timestamp_mouse":[10,32,47,66,88,107,128,147,168,186,207,226,248,267,288,307,327,348,367,387,407,426,447,467,486,507,527,548,566,586],"xSR":741.5,"ySR":501.8,"xT1":424.9,"yT1":0,"xT2":1058.1,"yT2":0,"toosoon":0,"cond_shown":"equaldotsize","ratio_trial":900,"smaller_num":"9","larger_num":"10","correct_side":2,"subjID":"yeshuaalejandropachonvelez5","gender":"0","age":"9","school":"4"},{"start_time":1552074200989,"click_time":1552074201586,"finger_time":1552074201307,"fix_duration":902.4205084025127,"trial":39,"RT":318,"MT":279,"sideResp":2,"stimulus":"img/500/randomdotsizeEA/R/2_Ratio_500_L_3_R_6.png","xmouse":[788,787,787,787,787,787,787,787,787,787,787,787,787,787,819,917,986,1032,1036,1036,1036,1036,1045,1061,1072,1079,1081,1081,1081,1081],"ymouse":[552,552,552,552,552,552,552,552,552,552,552,552,552,550,520,448,380,282,271,271,271,269,214,178,155,139,129,115,107,98],"timestamp_mouse":[17,44,56,78,96,117,138,157,177,197,217,238,258,276,297,318,338,358,376,396,417,437,458,476,497,517,538,558,576,597],"xSR":741.5,"ySR":501.8,"xT1":424.9,"yT1":0,"xT2":1058.1,"yT2":0,"toosoon":0,"cond_shown":"randomdotsizeEA","ratio_trial":500,"smaller_num":"3","larger_num":"6","correct_side":2,"subjID":"yeshuaalejandropachonvelez5","gender":"0","age":"9","school":"4"},{"start_time":1552074220269,"click_time":1552074221266,"finger_time":1552074220946,"fix_duration":761.6376498262944,"trial":40,"RT":677,"MT":320,"sideResp":2,"stimulus":"img/900/randomdotsizeEA/R/11_Ratio_900_L_18_R_20.png","xmouse":[804,804,804,804,804,804,804,804,804,804,804,804,804,804,804,804,804,804,804,804,804,804,804,804,804,804,804,804,804,804,804,820,840,865,888,917,978,993,1002,1005,1018,1028,1028,1029,1029,1030,1040,1048,1055,1059],"ymouse":[564,564,564,564,564,564,564,564,564,564,564,564,564,564,564,564,564,564,564,564,564,564,564,564,564,564,564,564,564,564,564,544,510,465,414,354,216,149,97,85,56,43,43,42,42,42,39,36,32,30],"timestamp_mouse":[16,48,57,76,98,117,136,157,178,197,217,237,257,277,298,316,337,358,378,396,417,438,457,478,497,516,537,557,577,597,617,638,657,677,697,717,736,756,776,797,817,837,858,876,896,916,936,956,977,997],"xSR":741.5,"ySR":501.8,"xT1":424.9,"yT1":0,"xT2":1058.1,"yT2":0,"toosoon":0,"cond_shown":"randomdotsizeEA","ratio_trial":900,"smaller_num":"18","larger_num":"20","correct_side":2,"subjID":"yeshuaalejandropachonvelez5","gender":"0","age":"9","school":"4"},{"start_time":1552074223804,"click_time":1552074224987,"finger_time":1552074224465,"fix_duration":1476.7016944058862,"trial":41,"RT":661,"MT":522,"sideResp":2,"stimulus":"img/500/randomdotsizeEA/L/8_Ratio_500_L_8_R_4.png","xmouse":[780,780,780,780,780,780,779,779,779,779,779,779,779,779,779,779,779,779,779,779,779,779,778,779,779,783,785,787,787,787,798,803,814,826,832,837,848,855,867,878,900,910,915,918,919,932,942,957,963,971,989,1016,1032,1042,1044,1044,1044,1044,1047,1066],"ymouse":[579,579,579,579,579,579,579,579,579,579,579,579,579,579,579,579,579,579,579,579,579,579,576,572,563,540,532,527,527,527,520,515,502,480,470,467,459,452,435,422,394,382,375,371,369,349,326,287,256,221,149,76,45,33,32,32,32,32,33,46],"timestamp_mouse":[16,30,43,61,83,101,123,142,163,182,203,222,242,262,283,302,323,341,363,382,401,421,441,463,483,502,522,542,561,581,602,623,642,661,681,702,721,743,762,781,803,821,842,862,882,902,921,942,962,983,1002,1023,1042,1062,1082,1102,1122,1142,1161,1183],"xSR":741.5,"ySR":501.8,"xT1":424.9,"yT1":0,"xT2":1058.1,"yT2":0,"toosoon":0,"cond_shown":"randomdotsizeEA","ratio_trial":500,"smaller_num":"4","larger_num":"8","correct_side":1,"subjID":"yeshuaalejandropachonvelez5","gender":"0","age":"9","school":"4"},{"start_time":1552074226760,"click_time":1552074228326,"finger_time":1552074226765,"fix_duration":753.1784158941587,"trial":42,"RT":5,"MT":1561,"sideResp":1,"stimulus":"img/750/randomdotsizeEA/R/15_Ratio_750_L_9_R_12.png","xmouse":[798,798,798,798,798,798,798,798,798,798,798,798,798,798,798,798,798,798,798,798,798,798,798,807,819,825,826,826,826,826,826,827,827,827,826,821,819,819,819,819,819,819,819,818,816,814,811,810,810,810,810,810,810,771,751,740,729,693,675,666,666,666,666,663,652,642,634,622,581,544,520,515,513,512,512,512,509,477,475],"ymouse":[499,496,496,496,496,496,496,496,496,496,496,496,496,496,496,496,496,496,496,496,496,496,515,557,603,622,623,619,578,535,515,512,511,511,511,520,522,522,522,522,522,522,522,527,532,537,540,542,542,542,542,529,474,351,305,269,239,205,199,197,197,197,197,196,195,193,189,182,165,151,144,143,141,141,141,138,131,100,93],"timestamp_mouse":[5,31,47,65,85,106,127,146,166,185,206,227,247,266,286,305,326,347,367,387,405,426,447,466,485,506,526,547,565,586,606,627,646,666,685,707,725,746,766,787,806,826,846,865,885,905,926,947,966,986,1006,1026,1046,1065,1086,1106,1126,1146,1164,1185,1204,1226,1246,1265,1285,1306,1325,1345,1364,1385,1406,1426,1445,1465,1486,1505,1525,1547,1566],"xSR":741.5,"ySR":501.8,"xT1":424.9,"yT1":0,"xT2":1058.1,"yT2":0,"toosoon":0,"cond_shown":"randomdotsizeEA","ratio_trial":750,"smaller_num":"9","larger_num":"12","correct_side":2,"subjID":"yeshuaalejandropachonvelez5","gender":"0","age":"9","school":"4"},{"start_time":1552074229999,"click_time":1552074231585,"finger_time":1552074230706,"fix_duration":492.8452059838306,"trial":43,"RT":707,"MT":879,"sideResp":1,"stimulus":"img/250/randomdotsizeEA/L/3_Ratio_250_L_8_R_2.png","xmouse":[769,769,769,769,769,767,756,750,748,748,748,748,748,748,748,748,748,748,748,748,748,748,748,748,748,748,748,748,748,749,758,791,809,825,839,853,878,888,898,912,921,938,943,950,953,955,960,963,966,966,966,966,964,959,957,957,957,957,956,951,920,771,716,693,667,634,582,572,564,560,560,560,560,559,559,556,543,533,523,513],"ymouse":[574,574,574,574,574,574,580,583,584,584,584,584,584,584,584,584,584,584,584,584,584,584,584,584,584,584,584,584,584,584,580,562,550,540,530,518,491,474,456,429,413,388,378,370,365,361,355,352,348,348,348,348,348,348,348,348,348,348,348,350,356,349,319,296,264,236,192,179,168,162,162,162,162,161,158,150,129,118,108,99],"timestamp_mouse":[9,41,47,65,85,107,126,146,166,185,206,227,246,265,286,307,326,347,367,387,406,427,446,466,485,507,527,547,566,586,606,625,645,667,687,707,726,747,766,785,806,826,846,866,886,906,925,946,965,986,1007,1026,1046,1066,1087,1106,1126,1147,1166,1185,1206,1226,1245,1266,1287,1305,1326,1347,1366,1387,1407,1426,1446,1466,1486,1507,1526,1547,1567,1586],"xSR":741.5,"ySR":501.8,"xT1":424.9,"yT1":0,"xT2":1058.1,"yT2":0,"toosoon":0,"cond_shown":"randomdotsizeEA","ratio_trial":250,"smaller_num":"2","larger_num":"8","correct_side":1,"subjID":"yeshuaalejandropachonvelez5","gender":"0","age":"9","school":"4"},{"start_time":1552074232956,"click_time":1552074234065,"finger_time":1552074233586,"fix_duration":549.7148995838495,"trial":44,"RT":630,"MT":479,"sideResp":2,"stimulus":"img/750/randomdotsizeEA/R/15_Ratio_750_L_9_R_12.png","xmouse":[746,746,746,746,746,746,746,746,746,746,746,746,746,746,746,746,746,746,746,746,746,746,746,746,746,746,746,746,746,758,782,822,849,883,902,924,946,970,1009,1032,1040,1047,1053,1057,1059,1063,1071,1086,1115,1126,1127,1127,1127,1127,1127,1131],"ymouse":[559,559,559,559,559,559,559,559,559,559,559,559,559,559,559,559,559,559,559,559,559,559,559,559,559,559,559,559,559,550,529,495,470,426,394,359,330,301,256,217,194,173,160,156,155,152,148,138,117,107,106,106,106,106,106,84],"timestamp_mouse":[14,36,48,69,89,110,130,149,169,190,208,228,249,269,289,309,330,350,369,389,409,428,450,470,489,510,528,548,569,589,609,630,649,670,689,709,730,750,770,789,809,829,849,869,888,909,930,950,970,990,1008,1029,1049,1069,1089,1109],"xSR":741.5,"ySR":501.8,"xT1":424.9,"yT1":0,"xT2":1058.1,"yT2":0,"toosoon":0,"cond_shown":"randomdotsizeEA","ratio_trial":750,"smaller_num":"9","larger_num":"12","correct_side":2,"subjID":"yeshuaalejandropachonvelez5","gender":"0","age":"9","school":"4"},{"start_time":1552074236607,"click_time":1552074237525,"finger_time":1552074237245,"fix_duration":1480.72188357148,"trial":45,"RT":638,"MT":280,"sideResp":2,"stimulus":"img/750/equaldotsize/R/12_Ratio_750_L_3_R_4.png","xmouse":[797,797,797,797,795,794,793,793,792,792,792,792,792,792,792,792,792,792,792,792,792,792,792,792,792,792,792,792,797,810,823,869,907,936,956,985,1020,1031,1039,1047,1058,1068,1074,1082,1087,1095],"ymouse":[551,551,551,551,551,551,551,551,551,551,551,551,551,551,551,551,551,551,551,551,551,551,551,551,551,551,551,551,541,528,516,476,441,406,384,351,307,285,261,233,183,162,146,124,104,81],"timestamp_mouse":[19,38,58,78,99,118,137,159,178,199,217,239,259,277,299,318,338,357,379,399,418,438,459,477,499,518,539,557,579,598,618,638,658,678,698,719,738,758,777,797,820,838,857,879,898,918],"xSR":741.5,"ySR":501.8,"xT1":424.9,"yT1":0,"xT2":1058.1,"yT2":0,"toosoon":0,"cond_shown":"equaldotsize","ratio_trial":750,"smaller_num":"3","larger_num":"4","correct_side":2,"subjID":"yeshuaalejandropachonvelez5","gender":"0","age":"9","school":"4"},{"start_time":1552074239846,"click_time":1552074240745,"finger_time":1552074240426,"fix_duration":1458.5695892129786,"trial":46,"RT":580,"MT":319,"sideResp":2,"stimulus":"img/750/equaldotsize/R/12_Ratio_750_L_3_R_4.png","xmouse":[788,788,788,788,788,788,788,788,788,788,788,788,788,788,788,788,788,788,788,788,788,788,788,788,788,788,788,796,816,844,923,974,991,1002,1012,1036,1050,1060,1068,1074,1079,1080,1084,1091,1098,1110],"ymouse":[531,531,531,531,531,531,531,531,531,531,531,531,531,531,531,531,531,531,531,531,531,531,531,531,531,531,531,527,513,491,429,389,375,364,347,290,258,234,216,203,184,172,148,132,115,89],"timestamp_mouse":[0,19,39,59,79,100,119,139,159,178,199,219,239,259,278,300,319,338,358,380,400,420,440,460,482,499,519,539,559,580,599,619,638,658,679,699,718,738,758,779,799,819,839,859,879,898],"xSR":741.5,"ySR":501.8,"xT1":424.9,"yT1":0,"xT2":1058.1,"yT2":0,"toosoon":0,"cond_shown":"equaldotsize","ratio_trial":750,"smaller_num":"3","larger_num":"4","correct_side":2,"subjID":"yeshuaalejandropachonvelez5","gender":"0","age":"9","school":"4"},{"start_time":1552074242517,"click_time":1552074243666,"finger_time":1552074243205,"fix_duration":910.6633583082389,"trial":47,"RT":688,"MT":461,"sideResp":2,"stimulus":"img/900/equaldotsize/L/4_Ratio_900_L_20_R_18.png","xmouse":[798,798,798,798,798,798,798,798,798,798,798,798,798,798,798,798,798,798,798,798,798,798,798,798,798,798,798,798,798,798,798,804,824,841,857,877,926,974,1013,1035,1055,1055,1055,1055,1055,1055,1055,1055,1055,1055,1055,1055,1055,1055,1055,1055,1055,1104],"ymouse":[581,581,581,581,581,581,581,581,581,581,581,581,581,581,581,581,581,581,581,581,581,581,581,581,581,581,581,581,581,581,581,578,566,550,519,470,350,233,142,60,11,11,11,11,11,11,11,11,11,11,11,11,11,11,11,11,11,41],"timestamp_mouse":[10,28,49,68,95,109,127,148,169,188,209,228,248,267,288,309,328,347,369,389,409,429,448,467,487,508,529,548,568,587,609,629,648,669,688,709,728,747,767,787,808,827,848,869,888,908,928,948,967,988,1007,1028,1048,1069,1088,1109,1129,1149],"xSR":741.5,"ySR":501.8,"xT1":424.9,"yT1":0,"xT2":1058.1,"yT2":0,"toosoon":0,"cond_shown":"equaldotsize","ratio_trial":900,"smaller_num":"18","larger_num":"20","correct_side":1,"subjID":"yeshuaalejandropachonvelez5","gender":"0","age":"9","school":"4"},{"start_time":1552074247698,"click_time":1552074248465,"finger_time":1552074248245,"fix_duration":1370.1565305685074,"trial":48,"RT":547,"MT":220,"sideResp":1,"stimulus":"img/250/equaldotsize/L/3_Ratio_250_L_8_R_2.png","xmouse":[762,762,762,761,761,761,761,761,761,761,761,761,761,761,761,761,761,761,761,761,761,761,761,761,760,756,746,741,738,735,730,715,689,642,633,589,532,508,501],"ymouse":[514,514,514,513,513,513,513,513,513,513,513,513,513,513,513,513,513,513,513,513,513,513,513,513,512,511,502,495,486,475,458,421,369,284,270,205,132,105,95],"timestamp_mouse":[12,26,46,68,87,106,127,148,166,186,207,226,247,268,287,308,327,346,366,388,408,427,446,467,487,507,528,547,567,587,607,627,646,667,688,706,728,747,767],"xSR":741.5,"ySR":501.8,"xT1":424.9,"yT1":0,"xT2":1058.1,"yT2":0,"toosoon":0,"cond_shown":"equaldotsize","ratio_trial":250,"smaller_num":"2","larger_num":"8","correct_side":1,"subjID":"yeshuaalejandropachonvelez5","gender":"0","age":"9","school":"4"},{"start_time":1552074250428,"click_time":1552074252166,"finger_time":1552074251365,"fix_duration":1061.1921460878332,"trial":49,"RT":937,"MT":801,"sideResp":1,"stimulus":"img/250/randomdotsizeEA/L/15_Ratio_250_L_12_R_3.png","xmouse":[782,782,782,781,781,781,781,781,781,781,781,781,781,781,781,781,781,781,781,781,780,778,778,778,778,778,778,778,778,778,778,778,778,778,778,778,778,778,778,778,778,777,776,774,774,772,756,731,716,705,698,692,687,679,661,639,626,625,625,625,625,615,615,614,614,614,614,614,613,608,590,481,451,442,441,441,441,441,441,441,441,441,441,443,447,451,462],"ymouse":[557,557,557,557,557,557,557,557,557,557,557,557,557,557,557,557,557,557,557,557,557,558,558,558,558,558,558,558,558,558,558,558,558,558,558,558,558,558,558,558,553,539,534,528,521,511,470,435,417,407,400,392,378,357,329,296,262,239,211,179,150,114,112,112,112,112,112,112,112,112,114,129,134,135,135,135,135,135,132,129,128,128,128,122,115,107,87],"timestamp_mouse":[17,37,56,77,96,117,138,157,177,197,217,237,257,278,296,317,337,357,378,397,418,436,458,477,496,517,537,558,578,597,618,637,658,678,698,718,737,758,777,797,816,837,857,878,897,917,937,956,977,998,1017,1038,1056,1077,1097,1117,1138,1157,1177,1197,1218,1237,1257,1277,1297,1317,1338,1357,1377,1397,1417,1437,1456,1477,1498,1517,1537,1558,1576,1597,1617,1637,1656,1677,1698,1718,1738],"xSR":741.5,"ySR":501.8,"xT1":424.9,"yT1":0,"xT2":1058.1,"yT2":0,"toosoon":0,"cond_shown":"randomdotsizeEA","ratio_trial":250,"smaller_num":"3","larger_num":"12","correct_side":1,"subjID":"yeshuaalejandropachonvelez5","gender":"0","age":"9","school":"4"},{"start_time":1552074255991,"click_time":1552074257125,"finger_time":1552074256805,"fix_duration":545.0896934863171,"trial":50,"RT":814,"MT":320,"sideResp":1,"stimulus":"img/750/equaldotsize/R/11_Ratio_750_L_12_R_16.png","xmouse":[791,791,791,791,791,791,791,791,791,791,791,791,791,791,791,791,791,791,791,791,791,791,791,791,791,791,791,791,791,791,791,791,791,791,791,791,791,791,791,795,795,783,759,720,649,641,641,641,641,639,626,605,585,575,548,523,456],"ymouse":[562,562,562,562,562,562,562,562,562,562,562,562,562,562,562,562,562,562,562,562,562,562,562,562,562,562,562,562,562,562,562,562,562,562,562,562,562,561,552,509,479,423,349,273,184,177,177,177,177,177,176,169,163,159,147,135,97],"timestamp_mouse":[15,41,54,73,94,114,135,154,175,195,214,235,255,274,293,314,334,355,373,393,415,435,454,475,495,515,535,554,573,594,615,634,654,675,693,715,733,754,773,794,814,834,854,874,894,914,933,953,975,994,1014,1035,1053,1075,1094,1115,1134],"xSR":741.5,"ySR":501.8,"xT1":424.9,"yT1":0,"xT2":1058.1,"yT2":0,"toosoon":0,"cond_shown":"equaldotsize","ratio_trial":750,"smaller_num":"12","larger_num":"16","correct_side":2,"subjID":"yeshuaalejandropachonvelez5","gender":"0","age":"9","school":"4"},{"start_time":1552074260278,"click_time":1552074261365,"finger_time":1552074260965,"fix_duration":392.06226414890057,"trial":51,"RT":687,"MT":400,"sideResp":1,"stimulus":"img/500/equaldotsize/L/11_Ratio_500_L_12_R_6.png","xmouse":[805,805,805,805,805,805,805,805,805,805,805,805,805,805,805,805,805,805,805,805,805,805,805,805,805,805,805,805,805,805,805,805,798,780,766,743,728,695,645,585,511,511,511,511,511,511,511,511,511,511,511,511,511,511,495],"ymouse":[553,553,553,553,553,553,553,553,553,553,553,553,553,553,553,553,553,553,553,553,553,553,553,553,553,553,553,553,553,553,553,553,538,512,486,441,404,326,231,122,0,0,0,0,0,0,0,0,0,0,0,0,0,0,14],"timestamp_mouse":[11,40,48,68,87,107,128,147,167,186,207,228,248,267,288,306,328,348,367,387,407,428,448,467,486,506,527,548,567,587,608,628,647,667,687,708,727,747,766,786,807,827,848,867,888,907,927,948,968,987,1007,1028,1047,1068,1087],"xSR":741.5,"ySR":501.8,"xT1":424.9,"yT1":0,"xT2":1058.1,"yT2":0,"toosoon":0,"cond_shown":"equaldotsize","ratio_trial":500,"smaller_num":"6","larger_num":"12","correct_side":1,"subjID":"yeshuaalejandropachonvelez5","gender":"0","age":"9","school":"4"},{"start_time":1552074262663,"click_time":1552074263687,"finger_time":1552074263165,"fix_duration":257.36840318871157,"trial":52,"RT":502,"MT":522,"sideResp":1,"stimulus":"img/900/equaldotanddens/R/5_Ratio_900_L_9_R_10.png","xmouse":[757,757,757,757,757,757,757,757,757,757,757,757,757,757,757,757,757,757,757,757,757,757,757,757,753,741,732,716,708,696,670,535,492,475,468,458,447,443,443,443,443,443,443,443,444,446,450,458,462,466,470,475],"ymouse":[534,534,534,534,534,534,534,534,534,534,534,534,534,534,534,534,534,534,534,534,534,534,534,534,530,522,517,510,504,491,456,289,251,226,204,176,151,136,132,128,119,115,115,115,113,112,110,107,105,103,100,93],"timestamp_mouse":[14,22,47,62,83,103,121,143,162,181,203,221,241,262,282,302,323,342,362,382,402,423,443,462,481,502,523,541,563,582,601,623,642,662,681,703,722,741,762,782,802,822,843,861,882,901,923,942,963,982,1003,1023],"xSR":741.5,"ySR":501.8,"xT1":424.9,"yT1":0,"xT2":1058.1,"yT2":0,"toosoon":0,"cond_shown":"equaldotanddens","ratio_trial":900,"smaller_num":"9","larger_num":"10","correct_side":2,"subjID":"yeshuaalejandropachonvelez5","gender":"0","age":"9","school":"4"},{"start_time":1552074265171,"click_time":1552074266065,"finger_time":1552074265504,"fix_duration":663.9706662368529,"trial":53,"RT":333,"MT":561,"sideResp":2,"stimulus":"img/750/randomdotsizeEA/L/14_Ratio_750_L_8_R_6.png","xmouse":[786,786,785,784,780,780,780,780,780,780,784,789,792,803,813,826,870,895,914,928,937,942,947,948,955,963,968,970,972,974,976,988,996,1015,1035,1054,1060,1060,1061,1061,1062,1066,1069,1072,1090],"ymouse":[585,585,585,584,582,582,582,582,582,582,579,577,576,572,567,562,535,516,498,474,448,409,379,368,333,307,270,255,240,226,217,196,185,160,142,130,124,124,124,124,124,120,117,113,92],"timestamp_mouse":[15,46,53,74,93,115,135,155,174,194,214,233,255,274,294,315,333,354,373,394,415,434,453,475,494,514,534,554,574,593,614,634,655,674,694,715,733,754,774,793,814,834,854,874,894],"xSR":741.5,"ySR":501.8,"xT1":424.9,"yT1":0,"xT2":1058.1,"yT2":0,"toosoon":0,"cond_shown":"randomdotsizeEA","ratio_trial":750,"smaller_num":"6","larger_num":"8","correct_side":1,"subjID":"yeshuaalejandropachonvelez5","gender":"0","age":"9","school":"4"},{"start_time":1552074272176,"click_time":1552074273204,"finger_time":1552074272786,"fix_duration":250,"trial":54,"RT":610,"MT":418,"sideResp":1,"stimulus":"img/750/randomdotsizeEA/R/3_Ratio_750_L_15_R_20.png","xmouse":[805,805,805,805,805,805,805,805,805,805,805,805,805,805,805,805,805,805,805,805,805,805,805,805,805,805,805,805,805,804,797,792,788,783,775,767,763,757,752,750,745,725,711,696,677,657,641,621,613,592,553,491],"ymouse":[532,532,532,532,532,532,532,532,532,532,532,532,532,532,532,532,532,532,532,532,532,532,532,532,532,532,532,532,532,525,499,481,455,432,390,362,345,330,324,323,321,316,312,308,305,302,300,296,290,261,190,93],"timestamp_mouse":[10,38,49,69,89,109,128,150,170,190,208,229,249,270,289,310,330,349,368,389,410,429,450,468,488,509,530,550,569,589,610,630,648,669,688,710,729,748,769,789,809,830,849,869,889,908,930,949,969,989,1008,1028],"xSR":741.5,"ySR":501.8,"xT1":424.9,"yT1":0,"xT2":1058.1,"yT2":0,"toosoon":0,"cond_shown":"randomdotsizeEA","ratio_trial":750,"smaller_num":"15","larger_num":"20","correct_side":2,"subjID":"yeshuaalejandropachonvelez5","gender":"0","age":"9","school":"4"},{"start_time":1552074277609,"click_time":1552074278844,"finger_time":1552074278226,"fix_duration":503.82829391349094,"trial":55,"RT":617,"MT":618,"sideResp":1,"stimulus":"img/250/randomdotsizeEA/L/14_Ratio_250_L_12_R_3.png","xmouse":[781,781,781,781,781,781,781,781,781,781,781,781,781,781,781,781,781,781,781,781,781,781,781,781,781,781,781,781,780,780,793,800,807,813,816,817,817,817,817,817,817,806,773,716,668,635,589,558,515,468,416,416,416,416,416,415,415,415,416,417,421,431],"ymouse":[578,578,578,578,578,578,578,578,578,578,578,578,578,578,578,578,578,578,578,578,578,578,578,578,578,578,578,578,575,561,482,458,438,426,418,415,415,415,415,415,415,412,407,392,374,352,292,254,212,176,145,145,145,145,145,144,141,136,130,123,113,87],"timestamp_mouse":[26,50,57,76,97,115,135,156,177,196,215,236,255,275,296,316,337,356,376,396,416,436,455,476,497,516,536,556,576,595,617,636,656,675,696,717,736,756,777,795,817,836,856,877,896,917,936,955,975,996,1017,1036,1057,1076,1097,1117,1135,1155,1175,1196,1217,1235],"xSR":741.5,"ySR":501.8,"xT1":424.9,"yT1":0,"xT2":1058.1,"yT2":0,"toosoon":0,"cond_shown":"randomdotsizeEA","ratio_trial":250,"smaller_num":"3","larger_num":"12","correct_side":1,"subjID":"yeshuaalejandropachonvelez5","gender":"0","age":"9","school":"4"},{"start_time":1552074280657,"click_time":1552074282564,"finger_time":1552074281405,"fix_duration":910.8553956409346,"trial":56,"RT":748,"MT":1159,"sideResp":2,"stimulus":"img/750/equaldotsize/R/2_Ratio_750_L_6_R_8.png","xmouse":[756,756,756,756,756,756,756,756,756,756,756,756,756,756,756,756,756,756,756,756,756,756,756,756,756,756,756,756,756,756,756,756,756,756,756,755,750,744,728,714,705,699,696,679,645,637,629,621,611,594,593,592,589,581,548,524,517,517,517,517,517,517,516,516,516,519,524,529,530,530,529,529,529,529,528,526,526,540,565,597,601,605,620,640,692,735,797,868,931,992,995,997,999,1005,1031,1059],"ymouse":[549,549,549,549,549,549,549,549,549,549,549,549,549,549,549,549,549,549,549,549,549,549,549,549,549,549,549,549,549,549,549,549,549,549,549,546,525,497,439,409,395,379,372,341,300,288,277,266,254,239,236,231,225,214,184,170,167,167,167,167,167,167,166,166,166,163,153,139,127,108,107,107,107,107,107,108,113,123,133,143,143,143,143,143,141,133,114,95,83,74,73,73,73,72,71,78],"timestamp_mouse":[10,40,48,68,89,109,127,148,168,189,209,227,248,268,289,308,328,348,369,389,407,429,449,467,487,509,528,549,568,588,609,629,649,667,688,708,728,748,770,789,809,827,848,868,888,908,928,947,968,987,1008,1029,1048,1067,1088,1108,1128,1148,1168,1188,1208,1228,1248,1269,1288,1308,1327,1348,1369,1388,1408,1427,1447,1468,1488,1508,1527,1547,1568,1588,1608,1627,1649,1669,1688,1707,1729,1748,1769,1788,1808,1828,1848,1868,1889,1907],"xSR":741.5,"ySR":501.8,"xT1":424.9,"yT1":0,"xT2":1058.1,"yT2":0,"toosoon":0,"cond_shown":"equaldotsize","ratio_trial":750,"smaller_num":"6","larger_num":"8","correct_side":2,"subjID":"yeshuaalejandropachonvelez5","gender":"0","age":"9","school":"4"},{"start_time":1552074283937,"click_time":1552074285145,"finger_time":1552074284645,"fix_duration":250,"trial":57,"RT":708,"MT":500,"sideResp":1,"stimulus":"img/750/randomdotsizeEA/R/5_Ratio_750_L_15_R_20.png","xmouse":[833,833,833,833,833,833,833,833,833,833,833,833,833,833,833,833,833,833,833,833,833,833,833,833,831,827,826,826,826,826,826,826,826,825,823,801,798,782,759,733,697,690,684,683,683,682,682,680,674,659,630,623,621,621,618,590,572,560,553,544,521],"ymouse":[548,548,548,548,548,548,548,548,548,548,548,548,548,548,548,548,548,548,548,548,548,548,548,548,543,519,517,517,517,517,517,517,517,514,510,463,455,418,364,297,185,143,124,121,121,120,120,120,120,123,125,125,125,125,125,125,121,113,107,95,70],"timestamp_mouse":[10,27,47,69,88,109,129,148,169,189,209,228,248,267,289,307,328,347,369,389,408,428,448,468,487,507,528,548,569,588,608,629,649,668,688,708,728,748,768,788,807,828,848,869,888,908,929,948,968,987,1008,1028,1048,1068,1087,1108,1128,1148,1169,1188,1208],"xSR":741.5,"ySR":501.8,"xT1":424.9,"yT1":0,"xT2":1058.1,"yT2":0,"toosoon":0,"cond_shown":"randomdotsizeEA","ratio_trial":750,"smaller_num":"15","larger_num":"20","correct_side":2,"subjID":"yeshuaalejandropachonvelez5","gender":"0","age":"9","school":"4"},{"start_time":1552074286887,"click_time":1552074288447,"finger_time":1552074287745,"fix_duration":700.1137069988395,"trial":58,"RT":858,"MT":702,"sideResp":1,"stimulus":"img/750/equaldotanddens/L/10_Ratio_750_L_4_R_3.png","xmouse":[762,762,762,760,759,759,756,752,752,752,752,752,752,752,752,752,752,752,752,752,752,752,752,752,752,752,752,752,752,752,752,752,752,752,752,752,752,752,752,752,749,747,744,746,747,747,747,747,718,701,688,674,648,634,620,613,613,613,613,613,613,613,613,613,613,613,613,613,613,613,613,613,543,543,543,543,542,520],"ymouse":[559,559,559,559,558,557,552,544,544,544,544,544,544,544,544,544,544,544,544,544,544,544,544,544,544,544,544,544,544,544,544,544,544,544,544,544,544,544,544,544,541,533,492,487,486,484,483,477,408,372,340,308,205,139,64,27,27,27,27,27,27,27,27,27,27,27,27,27,27,27,27,27,8,29,29,29,30,46],"timestamp_mouse":[19,42,58,77,98,118,138,158,177,199,218,238,259,278,298,319,338,357,378,399,418,439,457,477,499,517,538,559,579,597,617,638,659,678,698,717,737,759,778,798,819,838,858,878,898,918,938,958,978,998,1017,1038,1060,1078,1099,1119,1140,1159,1178,1199,1219,1239,1259,1279,1298,1318,1340,1359,1379,1399,1420,1438,1459,1480,1499,1518,1538,1560],"xSR":741.5,"ySR":501.8,"xT1":424.9,"yT1":0,"xT2":1058.1,"yT2":0,"toosoon":0,"cond_shown":"equaldotanddens","ratio_trial":750,"smaller_num":"3","larger_num":"4","correct_side":1,"subjID":"yeshuaalejandropachonvelez5","gender":"0","age":"9","school":"4"},{"start_time":1552074290479,"click_time":1552074292206,"finger_time":1552074291206,"fix_duration":930.9394796775952,"trial":59,"RT":727,"MT":1000,"sideResp":1,"stimulus":"img/750/equaldotanddens/L/8_Ratio_750_L_4_R_3.png","xmouse":[807,807,807,807,807,807,807,807,807,807,807,807,807,807,807,807,807,807,807,804,804,804,804,804,804,804,802,801,801,800,800,800,800,799,793,788,781,769,764,760,760,760,760,761,762,762,762,761,753,725,689,637,589,559,537,527,517,502,492,483,482,482,484,486,494,498,500,502,502,502,502,502,502,502,502,502,500,500,499,498,498,498,497,494,488,487,483],"ymouse":[551,551,551,551,551,551,551,551,551,551,551,551,551,551,551,551,551,551,551,554,554,554,554,554,554,554,554,549,545,542,541,539,537,533,517,506,490,468,459,453,452,450,446,437,428,428,425,417,409,380,352,315,286,268,250,240,229,207,190,157,148,145,143,142,135,130,128,123,123,123,123,123,122,122,120,119,119,119,118,117,117,117,116,113,105,102,97],"timestamp_mouse":[12,30,47,68,88,106,127,148,167,187,207,228,247,266,288,308,327,346,367,386,407,426,448,466,488,506,526,547,567,588,606,627,646,668,686,707,727,747,767,787,807,827,847,867,886,907,927,947,967,987,1006,1027,1046,1067,1086,1107,1127,1147,1166,1187,1206,1226,1246,1267,1287,1307,1327,1346,1367,1386,1408,1427,1448,1466,1487,1507,1527,1547,1566,1587,1608,1627,1646,1667,1686,1707,1727],"xSR":741.5,"ySR":501.8,"xT1":424.9,"yT1":0,"xT2":1058.1,"yT2":0,"toosoon":0,"cond_shown":"equaldotanddens","ratio_trial":750,"smaller_num":"3","larger_num":"4","correct_side":1,"subjID":"yeshuaalejandropachonvelez5","gender":"0","age":"9","school":"4"},{"start_time":1552074293933,"click_time":1552074295185,"finger_time":1552074294666,"fix_duration":866.7287489843985,"trial":60,"RT":733,"MT":519,"sideResp":1,"stimulus":"img/500/randomdotsizeEA/L/11_Ratio_500_L_12_R_6.png","xmouse":[758,758,758,758,758,758,758,758,758,758,758,758,758,758,758,758,758,758,758,758,758,758,758,758,758,758,758,758,758,758,758,758,758,758,752,743,722,710,698,688,676,653,638,630,621,614,611,610,610,609,609,609,608,607,604,601,584,571,559,550,538,507,482],"ymouse":[562,562,562,562,562,562,562,562,562,562,562,562,562,562,562,562,562,562,562,562,562,562,562,562,562,562,562,562,562,562,562,562,562,562,561,553,535,519,500,473,432,328,278,259,238,219,208,202,199,198,197,196,196,195,194,191,174,164,156,148,140,114,95],"timestamp_mouse":[12,44,52,72,92,113,134,152,172,193,213,234,253,274,293,314,332,352,372,393,413,433,452,472,492,512,532,554,572,593,612,634,654,674,693,712,733,752,773,793,812,833,852,872,892,912,933,952,972,992,1012,1033,1053,1073,1093,1113,1134,1152,1174,1193,1214,1233,1252],"xSR":741.5,"ySR":501.8,"xT1":424.9,"yT1":0,"xT2":1058.1,"yT2":0,"toosoon":0,"cond_shown":"randomdotsizeEA","ratio_trial":500,"smaller_num":"6","larger_num":"12","correct_side":1,"subjID":"yeshuaalejandropachonvelez5","gender":"0","age":"9","school":"4"},{"start_time":1552074299316,"click_time":1552074300166,"finger_time":1552074300065,"fix_duration":728.2524554597973,"trial":61,"RT":749,"MT":101,"sideResp":2,"stimulus":"img/500/randomdotsizeEA/R/12_Ratio_500_L_1_R_2.png","xmouse":[782,782,782,782,782,782,782,782,782,782,782,782,782,782,782,782,782,782,782,782,782,782,782,782,782,782,782,782,782,782,782,782,782,782,782,798,820,874,962,1013,1059,1109,1142],"ymouse":[563,563,563,563,563,563,563,563,563,563,563,563,563,563,563,563,563,563,563,563,563,563,563,563,563,563,563,563,563,563,563,563,563,563,563,551,535,501,406,313,218,103,28],"timestamp_mouse":[12,33,49,70,90,110,130,150,170,189,210,230,249,269,290,310,330,349,371,391,410,431,451,471,490,510,531,550,570,590,610,630,649,670,689,709,730,749,770,790,809,830,850],"xSR":741.5,"ySR":501.8,"xT1":424.9,"yT1":0,"xT2":1058.1,"yT2":0,"toosoon":0,"cond_shown":"randomdotsizeEA","ratio_trial":500,"smaller_num":"1","larger_num":"2","correct_side":2,"subjID":"yeshuaalejandropachonvelez5","gender":"0","age":"9","school":"4"},{"start_time":1552074303738,"click_time":1552074305365,"finger_time":1552074304286,"fix_duration":689.1966749516034,"trial":62,"RT":548,"MT":1079,"sideResp":1,"stimulus":"img/500/equaldotsize/L/11_Ratio_500_L_12_R_6.png","xmouse":[781,781,781,779,779,779,779,779,779,779,779,779,779,779,779,779,779,779,779,779,779,779,779,779,779,779,779,778,776,774,772,770,749,733,725,723,723,723,723,723,723,719,710,704,698,692,687,679,675,668,652,627,617,610,609,608,607,606,605,605,605,604,603,599,597,594,589,570,560,550,538,525,515,492,483,478,475,475,475,475,474,475],"ymouse":[528,528,518,509,506,505,505,505,505,505,505,505,505,505,505,505,505,505,505,505,505,505,505,505,505,505,502,497,488,477,465,451,398,362,340,325,314,307,306,306,305,301,292,287,281,275,270,263,258,246,224,192,172,148,140,135,133,131,130,130,130,129,129,128,128,128,127,124,123,122,120,118,115,108,106,104,103,103,103,103,102,99],"timestamp_mouse":[12,32,47,68,89,108,128,149,167,187,209,229,248,269,289,308,328,348,369,389,407,429,449,469,489,507,527,548,568,588,608,627,648,668,688,707,727,749,769,788,808,827,849,868,887,907,928,949,967,988,1008,1028,1048,1067,1087,1108,1128,1148,1168,1188,1207,1227,1248,1269,1288,1309,1328,1348,1368,1387,1408,1428,1448,1467,1487,1508,1527,1549,1567,1587,1609,1627],"xSR":741.5,"ySR":501.8,"xT1":424.9,"yT1":0,"xT2":1058.1,"yT2":0,"toosoon":0,"cond_shown":"equaldotsize","ratio_trial":500,"smaller_num":"6","larger_num":"12","correct_side":1,"subjID":"yeshuaalejandropachonvelez5","gender":"0","age":"9","school":"4"},{"start_time":1552074306658,"click_time":1552074308086,"finger_time":1552074307305,"fix_duration":250,"trial":63,"RT":647,"MT":781,"sideResp":2,"stimulus":"img/250/equaldotanddens/R/10_Ratio_250_L_4_R_16.png","xmouse":[792,792,793,793,793,793,793,793,792,792,792,792,792,792,792,792,792,792,792,792,792,792,792,792,792,792,792,792,792,794,795,805,825,835,846,858,874,930,970,996,1004,1007,1008,1009,1013,1015,1018,1027,1027,1026,1021,1021,1037,1059,1104,1139,1163,1167,1171,1176,1178,1179,1180,1180,1174,1168,1168,1167,1165,1163,1159,1157],"ymouse":[528,528,528,528,528,528,527,526,526,526,525,525,524,524,524,524,524,524,524,524,524,524,524,524,524,524,524,524,523,517,516,506,481,467,454,439,421,371,347,335,327,319,315,309,301,294,284,257,242,223,200,190,160,140,115,100,87,85,83,81,80,80,79,78,75,74,74,74,74,74,75,76],"timestamp_mouse":[9,38,48,67,88,108,129,147,168,187,209,229,248,267,288,308,329,348,368,387,407,427,448,467,487,509,527,548,568,587,607,627,647,668,688,708,727,747,767,787,809,829,847,868,888,909,928,948,968,989,1007,1029,1049,1067,1088,1107,1129,1147,1168,1187,1207,1229,1249,1268,1288,1308,1327,1347,1367,1387,1408,1428],"xSR":741.5,"ySR":501.8,"xT1":424.9,"yT1":0,"xT2":1058.1,"yT2":0,"toosoon":0,"cond_shown":"equaldotanddens","ratio_trial":250,"smaller_num":"4","larger_num":"16","correct_side":2,"subjID":"yeshuaalejandropachonvelez5","gender":"0","age":"9","school":"4"},{"start_time":1552074309544,"click_time":1552074310806,"finger_time":1552074310186,"fix_duration":376.05842855804804,"trial":64,"RT":642,"MT":620,"sideResp":1,"stimulus":"img/250/equaldotsize/L/14_Ratio_250_L_12_R_3.png","xmouse":[818,818,818,818,818,818,818,818,818,818,818,818,818,818,818,818,818,818,818,818,818,818,818,818,818,818,818,818,811,807,799,784,761,698,679,674,666,661,650,643,635,626,614,596,587,581,574,567,548,545,544,544,542,538,534,533,532,532,532,532,532,532,529,524],"ymouse":[538,538,538,538,538,538,538,538,538,538,538,538,538,538,538,538,538,538,538,538,538,538,538,538,538,538,538,536,530,526,518,504,488,434,398,376,350,327,284,266,247,231,215,189,175,162,147,130,96,88,86,84,82,77,74,73,73,73,73,73,73,73,75,78],"timestamp_mouse":[1,35,42,61,83,103,122,142,163,183,203,221,241,262,282,302,322,341,362,381,402,423,442,461,482,502,522,542,561,581,602,622,642,662,682,701,722,742,762,781,802,822,841,862,883,901,922,942,961,981,1001,1021,1042,1062,1083,1101,1122,1142,1161,1183,1202,1221,1242,1262],"xSR":741.5,"ySR":501.8,"xT1":424.9,"yT1":0,"xT2":1058.1,"yT2":0,"toosoon":0,"cond_shown":"equaldotsize","ratio_trial":250,"smaller_num":"3","larger_num":"12","correct_side":1,"subjID":"yeshuaalejandropachonvelez5","gender":"0","age":"9","school":"4"},{"start_time":1552074313256,"click_time":1552074315286,"finger_time":1552074314545,"fix_duration":1249.1824398478673,"trial":65,"RT":1289,"MT":741,"sideResp":1,"stimulus":"img/900/randomdotsizeEA/R/15_Ratio_900_L_9_R_10.png","xmouse":[794,794,794,794,794,794,794,794,794,794,794,794,794,794,794,794,794,794,794,794,794,794,794,794,794,794,794,794,794