[{"start_time":1552073292494,"click_time":1552073293400,"finger_time":1552073292504,"fix_duration":1050.6587138136474,"trial":0,"RT":10,"MT":896,"sideResp":1,"stimulus":[],"xmouse":[770,770,770,770,770,770,770,770,770,770,770,770,770,770,770,770,770,770,770,770,770,795,809,815,818,821,831,832,819,777,703,552,532,528,528,528,528,528,528,528,528,528,528,528,528,524],"ymouse":[530,530,530,530,530,530,530,530,530,530,530,530,530,530,530,530,530,530,530,530,530,523,518,517,516,514,482,451,395,294,198,99,77,58,44,32,21,21,21,21,21,21,21,21,21,23],"timestamp_mouse":[10,25,44,64,85,104,124,145,164,185,204,225,244,265,284,304,325,344,364,385,404,424,444,465,484,504,525,545,564,584,604,624,644,665,685,705,725,745,764,785,804,824,844,864,884,905],"xSR":741.5,"ySR":501.8,"xT1":424.9,"yT1":0,"xT2":1058.1,"yT2":0,"toosoon":0,"cond_shown":"Congruent","ratio_trial":200,"L_num":6,"L_den":12,"R_num":7,"R_den":10,"correct_side":2,"subjID":"yeshuaalejandrtopachon5","gender":"0","age":"9","school":"4","test":{"fix_dur":[250,1500],"timestim":1000,"targets_dim":[100,100],"targets_relative_coord":[0.3,0.7],"size_stim":[880,420],"start_dim":[100,100],"size_start":[300,300],"size_fix":60,"samplingrate":20,"img_types":["Congruent","Incongruent"],"ratios":[100,200,300],"rep_conds":19,"nTrials":120,"trials_to_rest":500,"Trials_order":[50,97,116,35,115,108,68,62,19,77,15,3,23,14,28,78,49,44,73,21,7,106,36,54,102,43,76,103,112,45,56,95,27,81,11,0,42,75,10,6,18,40,98,105,110,71,16,60,9,4,25,26,47,32,24,38,64,67,111,104,22,41,80,55,99,66,59,65,2,20,58,17,29,63,31,83,13,46,93,82,86,79,48,57,90,91,107,113,96,33,92,37,74,114,1,94,8,52,100,69,39,87,118,101,51,88,89,109,34,61,84,72,119,53,85,117,12,70,30,5],"cond_shown":["Congruent","Incongruent","Congruent","Incongruent","Incongruent","Congruent","Congruent","Congruent","Incongruent","Incongruent","Incongruent","Incongruent","Incongruent","Congruent","Congruent","Congruent","Incongruent","Congruent","Incongruent","Incongruent","Incongruent","Congruent","Congruent","Congruent","Congruent","Incongruent","Congruent","Incongruent","Congruent","Incongruent","Congruent","Incongruent","Incongruent","Incongruent","Incongruent","Congruent","Congruent","Incongruent","Congruent","Congruent","Congruent","Congruent","Congruent","Incongruent","Congruent","Incongruent","Congruent","Congruent","Incongruent","Congruent","Incongruent","Congruent","Incongruent","Congruent","Congruent","Congruent","Congruent","Incongruent","Incongruent","Congruent","Congruent","Incongruent","Congruent","Incongruent","Incongruent","Congruent","Incongruent","Incongruent","Congruent","Congruent","Congruent","Incongruent","Incongruent","Incongruent","Incongruent","Incongruent","Incongruent","Congruent","Incongruent","Congruent","Congruent","Incongruent","Congruent","Incongruent","Congruent","Incongruent","Incongruent","Incongruent","Congruent","Incongruent","Congruent","Incongruent","Congruent","Congruent","Incongruent","Congruent","Congruent","Congruent","Congruent","Incongruent","Incongruent","Incongruent","Congruent","Incongruent","Incongruent","Congruent","Incongruent","Incongruent","Congruent","Incongruent","Congruent","Congruent","Incongruent","Incongruent","Incongruent","Incongruent","Congruent","Congruent","Congruent","Incongruent"],"ratio_trial":[200,100,200,300,100,100,200,200,100,300,200,200,300,200,300,100,100,200,100,200,100,300,100,100,100,100,300,100,300,200,200,300,200,200,300,100,100,200,300,100,100,300,200,200,200,300,300,100,200,300,100,200,300,200,100,200,300,100,200,200,300,300,200,100,200,100,300,300,200,200,300,300,300,200,100,300,100,300,200,300,200,100,100,200,100,100,300,300,100,200,200,100,200,100,100,300,200,300,300,200,200,200,300,300,200,300,300,100,300,100,100,100,300,300,100,200,100,300,100,300],"left_num":[6,11,12,4,3,2,16,3,9,4,4,11,1,6,12,3,6,9,8,3,6,3,7,2,11,2,1,9,1,4,15,13,4,7,8,10,6,14,1,1,4,4,20,3,21,8,1,2,7,9,9,8,4,1,10,16,20,6,1,13,2,1,13,3,7,6,4,13,12,7,20,13,7,1,13,13,12,20,7,4,6,9,4,14,10,9,4,4,12,6,9,10,16,12,6,20,16,3,9,1,6,11,1,13,4,20,4,13,20,2,7,15,8,13,6,7,15,5,1,13],"right_num":[7,9,6,6,4,11,12,9,20,2,14,3,2,7,2,2,11,13,1,11,13,11,15,6,6,8,6,13,19,1,4,12,1,8,9,3,5,6,7,18,15,2,9,11,2,14,8,11,14,3,20,3,8,21,3,12,13,13,3,14,10,2,14,7,12,15,2,12,6,18,14,12,8,3,12,12,2,8,4,13,7,13,15,6,3,6,2,2,13,3,13,9,12,13,13,5,12,2,3,2,3,3,8,12,1,8,2,12,14,8,15,13,14,12,3,14,13,7,3,12],"left_den":[12,22,15,5,6,5,20,12,10,20,6,20,2,12,24,6,10,30,20,4,10,12,14,5,22,4,5,15,3,30,25,26,30,10,10,25,20,30,20,2,10,5,25,4,30,10,30,5,10,10,10,15,5,2,25,20,25,10,2,26,20,2,26,9,10,12,20,26,15,15,25,26,10,2,26,26,30,25,15,20,12,15,10,30,25,18,20,20,30,20,30,25,20,30,10,25,20,6,10,3,20,20,30,26,30,25,20,26,25,4,14,25,10,26,12,10,25,25,2,26],"right_den":[10,15,10,12,10,22,20,20,25,4,30,4,10,10,10,5,22,26,2,20,26,20,25,12,15,20,12,26,30,3,10,15,3,16,18,10,25,9,20,30,30,4,15,20,4,28,24,22,28,5,25,9,16,30,10,20,26,26,10,20,25,10,20,30,24,25,4,15,10,27,28,15,20,10,20,15,4,16,6,26,10,26,30,9,10,10,4,4,26,6,26,18,20,26,26,10,20,10,5,15,6,4,24,15,3,16,4,20,28,20,25,26,28,15,5,28,26,14,5,15],"correct_side":[2,2,1,1,1,2,1,2,1,2,1,2,1,2,1,1,1,2,2,1,1,2,2,2,1,1,2,1,2,2,1,2,2,1,1,1,1,2,2,2,2,1,1,1,1,1,2,2,1,1,1,1,1,2,1,1,1,1,1,2,2,1,2,1,1,2,2,2,1,2,1,2,1,1,2,2,2,1,2,2,2,1,2,2,1,2,2,2,2,2,2,2,1,2,1,1,1,1,1,1,2,2,2,2,2,1,2,2,1,1,2,1,1,2,2,1,1,2,2,2],"img_shown":["img2/200/Congruent/R/C_Dist_200_LN_6_LD_12_RN_7_RD_10_1.png","img2/100/Incongruent/R/I_Dist_100_LN_11_LD_22_RN_9_RD_15_1.png","img2/200/Congruent/L/C_Dist_200_LN_12_LD_15_RN_6_RD_10_0.png","img2/300/Incongruent/L/I_Dist_300_LN_4_LD_5_RN_6_RD_12_0.png","img2/100/Incongruent/L/I_Dist_100_LN_3_LD_6_RN_4_RD_10_0.png","img2/100/Congruent/R/C_Dist_100_LN_2_LD_5_RN_11_RD_22_1.png","img2/200/Congruent/L/C_Dist_200_LN_16_LD_20_RN_12_RD_20_0.png","img2/200/Congruent/R/C_Dist_200_LN_3_LD_12_RN_9_RD_20_1.png","img2/100/Incongruent/L/I_Dist_100_LN_9_LD_10_RN_20_RD_25_0.png","img2/300/Incongruent/R/I_Dist_300_LN_4_LD_20_RN_2_RD_4_1.png","img2/200/Incongruent/L/I_Dist_200_LN_4_LD_6_RN_14_RD_30_0.png","img2/200/Incongruent/R/I_Dist_200_LN_11_LD_20_RN_3_RD_4_1.png","img2/300/Incongruent/L/I_Dist_300_LN_1_LD_2_RN_2_RD_10_0.png","img2/200/Congruent/R/C_Dist_200_LN_6_LD_12_RN_7_RD_10_1.png","img2/300/Congruent/L/C_Dist_300_LN_12_LD_24_RN_2_RD_10_0.png","img2/100/Congruent/L/C_Dist_100_LN_3_LD_6_RN_2_RD_5_0.png","img2/100/Incongruent/L/I_Dist_100_LN_6_LD_10_RN_11_RD_22_0.png","img2/200/Congruent/R/C_Dist_200_LN_9_LD_30_RN_13_RD_26_1.png","img2/100/Incongruent/R/I_Dist_100_LN_8_LD_20_RN_1_RD_2_1.png","img2/200/Incongruent/L/I_Dist_200_LN_3_LD_4_RN_11_RD_20_0.png","img2/100/Incongruent/L/I_Dist_100_LN_6_LD_10_RN_13_RD_26_0.png","img2/300/Congruent/R/C_Dist_300_LN_3_LD_12_RN_11_RD_20_1.png","img2/100/Congruent/R/C_Dist_100_LN_7_LD_14_RN_15_RD_25_1.png","img2/100/Congruent/R/C_Dist_100_LN_2_LD_5_RN_6_RD_12_1.png","img2/100/Congruent/L/C_Dist_100_LN_11_LD_22_RN_6_RD_15_0.png","img2/100/Incongruent/L/I_Dist_100_LN_2_LD_4_RN_8_RD_20_0.png","img2/300/Congruent/R/C_Dist_300_LN_1_LD_5_RN_6_RD_12_1.png","img2/100/Incongruent/L/I_Dist_100_LN_9_LD_15_RN_13_RD_26_0.png","img2/300/Congruent/R/C_Dist_300_LN_1_LD_3_RN_19_RD_30_1.png","img2/200/Incongruent/R/I_Dist_200_LN_4_LD_30_RN_1_RD_3_1.png","img2/200/Congruent/L/C_Dist_200_LN_15_LD_25_RN_4_RD_10_0.png","img2/300/Incongruent/R/I_Dist_300_LN_13_LD_26_RN_12_RD_15_1.png","img2/200/Incongruent/R/I_Dist_200_LN_4_LD_30_RN_1_RD_3_1.png","img2/200/Incongruent/L/I_Dist_200_LN_7_LD_10_RN_8_RD_16_0.png","img2/300/Incongruent/L/I_Dist_300_LN_8_LD_10_RN_9_RD_18_0.png","img2/100/Congruent/L/C_Dist_100_LN_10_LD_25_RN_3_RD_10_0.png","img2/100/Congruent/L/C_Dist_100_LN_6_LD_20_RN_5_RD_25_0.png","img2/200/Incongruent/R/I_Dist_200_LN_14_LD_30_RN_6_RD_9_1.png","img2/300/Congruent/R/C_Dist_300_LN_1_LD_20_RN_7_RD_20_1.png","img2/100/Congruent/R/C_Dist_100_LN_1_LD_2_RN_18_RD_30_1.png","img2/100/Congruent/R/C_Dist_100_LN_4_LD_10_RN_15_RD_30_1.png","img2/300/Congruent/L/C_Dist_300_LN_4_LD_5_RN_2_RD_4_0.png","img2/200/Congruent/L/C_Dist_200_LN_20_LD_25_RN_9_RD_15_0.png","img2/200/Incongruent/L/I_Dist_200_LN_3_LD_4_RN_11_RD_20_0.png","img2/200/Congruent/L/C_Dist_200_LN_21_LD_30_RN_2_RD_4_0.png","img2/300/Incongruent/L/I_Dist_300_LN_8_LD_10_RN_14_RD_28_0.png","img2/300/Congruent/R/C_Dist_300_LN_1_LD_30_RN_8_RD_24_1.png","img2/100/Congruent/R/C_Dist_100_LN_2_LD_5_RN_11_RD_22_1.png","img2/200/Incongruent/L/I_Dist_200_LN_7_LD_10_RN_14_RD_28_0.png","img2/300/Congruent/L/C_Dist_300_LN_9_LD_10_RN_3_RD_5_0.png","img2/100/Incongruent/L/I_Dist_100_LN_9_LD_10_RN_20_RD_25_0.png","img2/200/Congruent/L/C_Dist_200_LN_8_LD_15_RN_3_RD_9_0.png","img2/300/Incongruent/L/I_Dist_300_LN_4_LD_5_RN_8_RD_16_0.png","img2/200/Congruent/R/C_Dist_200_LN_1_LD_2_RN_21_RD_30_1.png","img2/100/Congruent/L/C_Dist_100_LN_10_LD_25_RN_3_RD_10_0.png","img2/200/Congruent/L/C_Dist_200_LN_16_LD_20_RN_12_RD_20_0.png","img2/300/Congruent/L/C_Dist_300_LN_20_LD_25_RN_13_RD_26_0.png","img2/100/Incongruent/L/I_Dist_100_LN_6_LD_10_RN_13_RD_26_0.png","img2/200/Incongruent/L/I_Dist_200_LN_1_LD_2_RN_3_RD_10_0.png","img2/200/Congruent/R/C_Dist_200_LN_13_LD_26_RN_14_RD_20_1.png","img2/300/Congruent/R/C_Dist_300_LN_2_LD_20_RN_10_RD_25_1.png","img2/300/Incongruent/L/I_Dist_300_LN_1_LD_2_RN_2_RD_10_0.png","img2/200/Congruent/R/C_Dist_200_LN_13_LD_26_RN_14_RD_20_1.png","img2/100/Incongruent/L/I_Dist_100_LN_3_LD_9_RN_7_RD_30_0.png","img2/200/Incongruent/L/I_Dist_200_LN_7_LD_10_RN_12_RD_24_0.png","img2/100/Congruent/R/C_Dist_100_LN_6_LD_12_RN_15_RD_25_1.png","img2/300/Incongruent/R/I_Dist_300_LN_4_LD_20_RN_2_RD_4_1.png","img2/300/Incongruent/R/I_Dist_300_LN_13_LD_26_RN_12_RD_15_1.png","img2/200/Congruent/L/C_Dist_200_LN_12_LD_15_RN_6_RD_10_0.png","img2/200/Congruent/R/C_Dist_200_LN_7_LD_15_RN_18_RD_27_1.png","img2/300/Congruent/L/C_Dist_300_LN_20_LD_25_RN_14_RD_28_0.png","img2/300/Incongruent/R/I_Dist_300_LN_13_LD_26_RN_12_RD_15_1.png","img2/300/Incongruent/L/I_Dist_300_LN_7_LD_10_RN_8_RD_20_0.png","img2/200/Incongruent/L/I_Dist_200_LN_1_LD_2_RN_3_RD_10_0.png","img2/100/Incongruent/R/I_Dist_100_LN_13_LD_26_RN_12_RD_20_1.png","img2/300/Incongruent/R/I_Dist_300_LN_13_LD_26_RN_12_RD_15_1.png","img2/100/Incongruent/R/I_Dist_100_LN_12_LD_30_RN_2_RD_4_1.png","img2/300/Congruent/L/C_Dist_300_LN_20_LD_25_RN_8_RD_16_0.png","img2/200/Incongruent/R/I_Dist_200_LN_7_LD_15_RN_4_RD_6_1.png","img2/300/Congruent/R/C_Dist_300_LN_4_LD_20_RN_13_RD_26_1.png","img2/200/Congruent/R/C_Dist_200_LN_6_LD_12_RN_7_RD_10_1.png","img2/100/Incongruent/L/I_Dist_100_LN_9_LD_15_RN_13_RD_26_0.png","img2/100/Congruent/R/C_Dist_100_LN_4_LD_10_RN_15_RD_30_1.png","img2/200/Incongruent/R/I_Dist_200_LN_14_LD_30_RN_6_RD_9_1.png","img2/100/Congruent/L/C_Dist_100_LN_10_LD_25_RN_3_RD_10_0.png","img2/100/Incongruent/R/I_Dist_100_LN_9_LD_18_RN_6_RD_10_1.png","img2/300/Incongruent/R/I_Dist_300_LN_4_LD_20_RN_2_RD_4_1.png","img2/300/Incongruent/R/I_Dist_300_LN_4_LD_20_RN_2_RD_4_1.png","img2/100/Congruent/R/C_Dist_100_LN_12_LD_30_RN_13_RD_26_1.png","img2/200/Incongruent/R/I_Dist_200_LN_6_LD_20_RN_3_RD_6_1.png","img2/200/Congruent/R/C_Dist_200_LN_9_LD_30_RN_13_RD_26_1.png","img2/100/Incongruent/R/I_Dist_100_LN_10_LD_25_RN_9_RD_18_1.png","img2/200/Congruent/L/C_Dist_200_LN_16_LD_20_RN_12_RD_20_0.png","img2/100/Congruent/R/C_Dist_100_LN_12_LD_30_RN_13_RD_26_1.png","img2/100/Incongruent/L/I_Dist_100_LN_6_LD_10_RN_13_RD_26_0.png","img2/300/Congruent/L/C_Dist_300_LN_20_LD_25_RN_5_RD_10_0.png","img2/200/Congruent/L/C_Dist_200_LN_16_LD_20_RN_12_RD_20_0.png","img2/300/Congruent/L/C_Dist_300_LN_3_LD_6_RN_2_RD_10_0.png","img2/300/Congruent/L/C_Dist_300_LN_9_LD_10_RN_3_RD_5_0.png","img2/200/Incongruent/L/I_Dist_200_LN_1_LD_3_RN_2_RD_15_0.png","img2/200/Incongruent/R/I_Dist_200_LN_6_LD_20_RN_3_RD_6_1.png","img2/200/Incongruent/R/I_Dist_200_LN_11_LD_20_RN_3_RD_4_1.png","img2/300/Congruent/R/C_Dist_300_LN_1_LD_30_RN_8_RD_24_1.png","img2/300/Incongruent/R/I_Dist_300_LN_13_LD_26_RN_12_RD_15_1.png","img2/200/Incongruent/R/I_Dist_200_LN_4_LD_30_RN_1_RD_3_1.png","img2/300/Congruent/L/C_Dist_300_LN_20_LD_25_RN_8_RD_16_0.png","img2/300/Incongruent/R/I_Dist_300_LN_4_LD_20_RN_2_RD_4_1.png","img2/100/Incongruent/R/I_Dist_100_LN_13_LD_26_RN_12_RD_20_1.png","img2/300/Congruent/L/C_Dist_300_LN_20_LD_25_RN_14_RD_28_0.png","img2/100/Incongruent/L/I_Dist_100_LN_2_LD_4_RN_8_RD_20_0.png","img2/100/Congruent/R/C_Dist_100_LN_7_LD_14_RN_15_RD_25_1.png","img2/100/Congruent/L/C_Dist_100_LN_15_LD_25_RN_13_RD_26_0.png","img2/300/Incongruent/L/I_Dist_300_LN_8_LD_10_RN_14_RD_28_0.png","img2/300/Incongruent/R/I_Dist_300_LN_13_LD_26_RN_12_RD_15_1.png","img2/100/Incongruent/R/I_Dist_100_LN_6_LD_12_RN_3_RD_5_1.png","img2/200/Incongruent/L/I_Dist_200_LN_7_LD_10_RN_14_RD_28_0.png","img2/100/Congruent/L/C_Dist_100_LN_15_LD_25_RN_13_RD_26_0.png","img2/300/Congruent/R/C_Dist_300_LN_5_LD_25_RN_7_RD_14_1.png","img2/100/Congruent/R/C_Dist_100_LN_1_LD_2_RN_3_RD_5_1.png","img2/300/Incongruent/R/I_Dist_300_LN_13_LD_26_RN_12_RD_15_1.png"],"dist100_C":[["C_Dist_100_LN_10_LD_25_RN_3_RD_10_0.png","C_Dist_100_LN_11_LD_22_RN_4_RD_10_0.png","C_Dist_100_LN_11_LD_22_RN_6_RD_15_0.png","C_Dist_100_LN_15_LD_25_RN_13_RD_26_0.png","C_Dist_100_LN_3_LD_6_RN_2_RD_5_0.png","C_Dist_100_LN_6_LD_20_RN_5_RD_25_0.png","C_Dist_100_LN_8_LD_16_RN_2_RD_5_0.png","C_Dist_100_LN_9_LD_15_RN_8_RD_16_0.png"],["C_Dist_100_LN_1_LD_2_RN_18_RD_30_1.png","C_Dist_100_LN_1_LD_2_RN_3_RD_5_1.png","C_Dist_100_LN_12_LD_30_RN_13_RD_26_1.png","C_Dist_100_LN_2_LD_5_RN_11_RD_22_1.png","C_Dist_100_LN_2_LD_5_RN_6_RD_12_1.png","C_Dist_100_LN_3_LD_20_RN_4_RD_16_1.png","C_Dist_100_LN_4_LD_10_RN_15_RD_30_1.png","C_Dist_100_LN_4_LD_8_RN_6_RD_10_1.png","C_Dist_100_LN_6_LD_12_RN_15_RD_25_1.png","C_Dist_100_LN_7_LD_14_RN_15_RD_25_1.png","C_Dist_100_LN_7_LD_14_RN_9_RD_15_1.png"]],"dist100_I":[["I_Dist_100_LN_1_LD_2_RN_8_RD_20_0.png","I_Dist_100_LN_2_LD_4_RN_6_RD_15_0.png","I_Dist_100_LN_2_LD_4_RN_8_RD_20_0.png","I_Dist_100_LN_3_LD_5_RN_11_RD_22_0.png","I_Dist_100_LN_3_LD_5_RN_8_RD_16_0.png","I_Dist_100_LN_3_LD_6_RN_4_RD_10_0.png","I_Dist_100_LN_3_LD_9_RN_7_RD_30_0.png","I_Dist_100_LN_4_LD_8_RN_8_RD_20_0.png","I_Dist_100_LN_6_LD_10_RN_11_RD_22_0.png","I_Dist_100_LN_6_LD_10_RN_13_RD_26_0.png","I_Dist_100_LN_6_LD_10_RN_7_RD_14_0.png","I_Dist_100_LN_9_LD_10_RN_20_RD_25_0.png","I_Dist_100_LN_9_LD_15_RN_13_RD_26_0.png","I_Dist_100_LN_9_LD_15_RN_14_RD_28_0.png"],["I_Dist_100_LN_10_LD_25_RN_8_RD_16_1.png","I_Dist_100_LN_10_LD_25_RN_9_RD_18_1.png","I_Dist_100_LN_11_LD_22_RN_9_RD_15_1.png","I_Dist_100_LN_12_LD_24_RN_9_RD_15_1.png","I_Dist_100_LN_12_LD_30_RN_2_RD_4_1.png","I_Dist_100_LN_13_LD_26_RN_12_RD_20_1.png","I_Dist_100_LN_13_LD_26_RN_6_RD_10_1.png","I_Dist_100_LN_17_LD_30_RN_10_RD_15_1.png","I_Dist_100_LN_6_LD_12_RN_3_RD_5_1.png","I_Dist_100_LN_8_LD_16_RN_6_RD_10_1.png","I_Dist_100_LN_8_LD_20_RN_1_RD_2_1.png","I_Dist_100_LN_9_LD_18_RN_6_RD_10_1.png"]],"dist100_S":[["E_Dist_100_LN_2_LD_12_RN_2_RD_30_0.png","E_Dist_100_LN_6_LD_10_RN_6_RD_12_0.png"],["E_Dist_100_LN_6_LD_12_RN_6_RD_10_1.png"]],"dist200_C":[["C_Dist_200_LN_11_LD_22_RN_3_RD_10_0.png","C_Dist_200_LN_12_LD_15_RN_6_RD_10_0.png","C_Dist_200_LN_12_LD_20_RN_6_RD_15_0.png","C_Dist_200_LN_14_LD_28_RN_6_RD_20_0.png","C_Dist_200_LN_15_LD_25_RN_4_RD_10_0.png","C_Dist_200_LN_16_LD_20_RN_12_RD_20_0.png","C_Dist_200_LN_16_LD_30_RN_9_RD_27_0.png","C_Dist_200_LN_20_LD_25_RN_9_RD_15_0.png","C_Dist_200_LN_21_LD_30_RN_2_RD_4_0.png","C_Dist_200_LN_4_LD_10_RN_3_RD_15_0.png","C_Dist_200_LN_4_LD_8_RN_3_RD_10_0.png","C_Dist_200_LN_6_LD_15_RN_3_RD_15_0.png","C_Dist_200_LN_7_LD_21_RN_2_RD_15_0.png","C_Dist_200_LN_8_LD_15_RN_2_RD_6_0.png","C_Dist_200_LN_8_LD_15_RN_3_RD_9_0.png","C_Dist_200_LN_8_LD_15_RN_7_RD_21_0.png","C_Dist_200_LN_9_LD_20_RN_4_RD_16_0.png"],["C_Dist_200_LN_1_LD_2_RN_21_RD_30_1.png","C_Dist_200_LN_13_LD_26_RN_14_RD_20_1.png","C_Dist_200_LN_3_LD_10_RN_11_RD_22_1.png","C_Dist_200_LN_3_LD_10_RN_14_RD_28_1.png","C_Dist_200_LN_3_LD_10_RN_7_RD_14_1.png","C_Dist_200_LN_3_LD_12_RN_9_RD_20_1.png","C_Dist_200_LN_3_LD_6_RN_14_RD_20_1.png","C_Dist_200_LN_5_LD_10_RN_14_RD_20_1.png","C_Dist_200_LN_6_LD_12_RN_7_RD_10_1.png","C_Dist_200_LN_6_LD_20_RN_11_RD_22_1.png","C_Dist_200_LN_7_LD_15_RN_18_RD_27_1.png","C_Dist_200_LN_9_LD_30_RN_13_RD_26_1.png"]],"dist200_I":[["I_Dist_200_LN_1_LD_2_RN_3_RD_10_0.png","I_Dist_200_LN_1_LD_3_RN_2_RD_15_0.png","I_Dist_200_LN_3_LD_4_RN_11_RD_20_0.png","I_Dist_200_LN_4_LD_5_RN_6_RD_10_0.png","I_Dist_200_LN_4_LD_6_RN_14_RD_30_0.png","I_Dist_200_LN_7_LD_10_RN_12_RD_24_0.png","I_Dist_200_LN_7_LD_10_RN_14_RD_28_0.png","I_Dist_200_LN_7_LD_10_RN_8_RD_16_0.png"],["I_Dist_200_LN_11_LD_20_RN_3_RD_4_1.png","I_Dist_200_LN_14_LD_30_RN_12_RD_18_1.png","I_Dist_200_LN_14_LD_30_RN_6_RD_9_1.png","I_Dist_200_LN_3_LD_10_RN_1_RD_2_1.png","I_Dist_200_LN_4_LD_30_RN_1_RD_3_1.png","I_Dist_200_LN_6_LD_20_RN_3_RD_6_1.png","I_Dist_200_LN_7_LD_15_RN_4_RD_6_1.png","I_Dist_200_LN_7_LD_15_RN_6_RD_9_1.png","I_Dist_200_LN_9_LD_15_RN_8_RD_10_1.png"]],"dist200_S":[["E_Dist_200_LN_3_LD_6_RN_3_RD_10_0.png"],["E_Dist_200_LN_3_LD_10_RN_3_RD_6_1.png"]],"dist300_C":[["C_Dist_300_LN_11_LD_22_RN_1_RD_5_0.png","C_Dist_300_LN_11_LD_22_RN_2_RD_10_0.png","C_Dist_300_LN_11_LD_22_RN_4_RD_20_0.png","C_Dist_300_LN_12_LD_24_RN_2_RD_10_0.png","C_Dist_300_LN_18_LD_20_RN_9_RD_15_0.png","C_Dist_300_LN_20_LD_25_RN_13_RD_26_0.png","C_Dist_300_LN_20_LD_25_RN_14_RD_28_0.png","C_Dist_300_LN_20_LD_25_RN_5_RD_10_0.png","C_Dist_300_LN_20_LD_25_RN_8_RD_16_0.png","C_Dist_300_LN_20_LD_25_RN_9_RD_18_0.png","C_Dist_300_LN_24_LD_30_RN_2_RD_4_0.png","C_Dist_300_LN_24_LD_30_RN_8_RD_16_0.png","C_Dist_300_LN_3_LD_6_RN_2_RD_10_0.png","C_Dist_300_LN_4_LD_10_RN_1_RD_10_0.png","C_Dist_300_LN_4_LD_5_RN_2_RD_4_0.png","C_Dist_300_LN_8_LD_16_RN_1_RD_5_0.png","C_Dist_300_LN_9_LD_10_RN_3_RD_5_0.png"],["C_Dist_300_LN_1_LD_20_RN_7_RD_20_1.png","C_Dist_300_LN_1_LD_3_RN_19_RD_30_1.png","C_Dist_300_LN_1_LD_30_RN_8_RD_24_1.png","C_Dist_300_LN_1_LD_5_RN_11_RD_22_1.png","C_Dist_300_LN_1_LD_5_RN_3_RD_6_1.png","C_Dist_300_LN_1_LD_5_RN_6_RD_12_1.png","C_Dist_300_LN_2_LD_10_RN_12_RD_24_1.png","C_Dist_300_LN_2_LD_20_RN_10_RD_25_1.png","C_Dist_300_LN_3_LD_12_RN_11_RD_20_1.png","C_Dist_300_LN_3_LD_6_RN_4_RD_5_1.png","C_Dist_300_LN_4_LD_20_RN_13_RD_26_1.png","C_Dist_300_LN_5_LD_25_RN_6_RD_12_1.png","C_Dist_300_LN_5_LD_25_RN_7_RD_14_1.png","C_Dist_300_LN_7_LD_14_RN_20_RD_25_1.png","C_Dist_300_LN_8_LD_15_RN_10_RD_12_1.png"]],"dist300_I":[["I_Dist_300_LN_1_LD_2_RN_2_RD_10_0.png","I_Dist_300_LN_1_LD_2_RN_3_RD_15_0.png","I_Dist_300_LN_2_LD_4_RN_6_RD_30_0.png","I_Dist_300_LN_3_LD_6_RN_4_RD_20_0.png","I_Dist_300_LN_4_LD_5_RN_6_RD_12_0.png","I_Dist_300_LN_4_LD_5_RN_8_RD_16_0.png","I_Dist_300_LN_7_LD_10_RN_8_RD_20_0.png","I_Dist_300_LN_8_LD_10_RN_14_RD_28_0.png","I_Dist_300_LN_8_LD_10_RN_9_RD_18_0.png"],["I_Dist_300_LN_13_LD_26_RN_12_RD_15_1.png","I_Dist_300_LN_4_LD_20_RN_2_RD_4_1.png"]],"dist300_S":[["E_Dist_300_LN_9_LD_12_RN_9_RD_20_0.png"],["E_Dist_300_LN_18_LD_30_RN_18_RD_20_1.png","E_Dist_300_LN_3_LD_10_RN_3_RD_5_1.png","E_Dist_300_LN_9_LD_20_RN_9_RD_12_1.png"]],"dist500_C":[["C_Dist_500_LN_10_LD_13_RN_7_RD_26_0.png","C_Dist_500_LN_10_LD_15_RN_4_RD_24_0.png","C_Dist_500_LN_12_LD_16_RN_3_RD_12_0.png","C_Dist_500_LN_12_LD_18_RN_4_RD_24_0.png","C_Dist_500_LN_15_LD_18_RN_5_RD_15_0.png","C_Dist_500_LN_15_LD_20_RN_1_RD_4_0.png","C_Dist_500_LN_18_LD_27_RN_1_RD_6_0.png","C_Dist_500_LN_20_LD_24_RN_1_RD_3_0.png","C_Dist_500_LN_20_LD_24_RN_3_RD_9_0.png","C_Dist_500_LN_20_LD_24_RN_7_RD_21_0.png","C_Dist_500_LN_20_LD_28_RN_3_RD_14_0.png","C_Dist_500_LN_21_LD_28_RN_6_RD_24_0.png","C_Dist_500_LN_22_LD_28_RN_2_RD_7_0.png","C_Dist_500_LN_25_LD_30_RN_9_RD_27_0.png","C_Dist_500_LN_4_LD_6_RN_1_RD_6_0.png","C_Dist_500_LN_5_LD_6_RN_2_RD_6_0.png","C_Dist_500_LN_6_LD_9_RN_1_RD_6_0.png","C_Dist_500_LN_7_LD_10_RN_1_RD_5_0.png","C_Dist_500_LN_8_LD_12_RN_1_RD_6_0.png","C_Dist_500_LN_8_LD_12_RN_4_RD_24_0.png"],["C_Dist_500_LN_1_LD_4_RN_12_RD_16_1.png","C_Dist_500_LN_1_LD_4_RN_9_RD_12_1.png","C_Dist_500_LN_1_LD_9_RN_11_RD_18_1.png","C_Dist_500_LN_10_LD_24_RN_22_RD_24_1.png","C_Dist_500_LN_2_LD_12_RN_10_RD_15_1.png","C_Dist_500_LN_2_LD_12_RN_12_RD_18_1.png","C_Dist_500_LN_2_LD_12_RN_4_RD_6_1.png","C_Dist_500_LN_2_LD_24_RN_7_RD_12_1.png","C_Dist_500_LN_2_LD_5_RN_18_RD_20_1.png","C_Dist_500_LN_2_LD_5_RN_9_RD_10_1.png","C_Dist_500_LN_2_LD_8_RN_12_RD_16_1.png","C_Dist_500_LN_2_LD_8_RN_21_RD_28_1.png","C_Dist_500_LN_3_LD_10_RN_4_RD_5_1.png","C_Dist_500_LN_3_LD_12_RN_15_RD_20_1.png","C_Dist_500_LN_3_LD_30_RN_6_RD_10_1.png","C_Dist_500_LN_3_LD_8_RN_14_RD_16_1.png","C_Dist_500_LN_4_LD_16_RN_15_RD_20_1.png","C_Dist_500_LN_4_LD_24_RN_12_RD_18_1.png","C_Dist_500_LN_5_LD_14_RN_6_RD_7_1.png","C_Dist_500_LN_7_LD_21_RN_20_RD_24_1.png","C_Dist_500_LN_7_LD_28_RN_12_RD_16_1.png","C_Dist_500_LN_7_LD_28_RN_9_RD_12_1.png","C_Dist_500_LN_9_LD_27_RN_20_RD_24_1.png"]],"dist500_I":[["I_Dist_500_LN_2_LD_3_RN_4_RD_24_0.png","I_Dist_500_LN_5_LD_6_RN_6_RD_18_0.png","I_Dist_500_LN_7_LD_8_RN_9_RD_24_0.png"],["I_Dist_500_LN_7_LD_21_RN_5_RD_6_1.png"]],"dist500_S":[["E_Dist_500_LN_6_LD_8_RN_6_RD_24_0.png"],["E_Dist_500_LN_2_LD_12_RN_2_RD_3_1.png","E_Dist_500_LN_6_LD_24_RN_6_RD_8_1.png"]]}},{"start_time":1552073295582,"click_time":1552073296339,"finger_time":1552073295858,"fix_duration":622.9695735841278,"trial":1,"RT":276,"MT":481,"sideResp":2,"stimulus":[],"xmouse":[807,807,807,815,817,817,817,817,817,817,819,824,838,854,877,907,964,1000,1046,1097,1122,1129,1129,1129,1129,1128,1115,1109,1104,1093,1082,1077,1077,1077,1078,1082,1119,1141],"ymouse":[624,624,624,623,622,622,622,622,621,621,620,615,598,580,555,530,456,413,371,340,326,320,320,320,320,322,322,322,316,291,258,204,185,182,181,178,129,83],"timestamp_mouse":[16,47,56,76,96,116,136,156,176,196,216,236,257,276,296,316,337,356,376,396,416,436,456,476,496,516,536,556,577,596,617,636,656,676,696,717,737,756],"xSR":741.5,"ySR":573.95,"xT1":424.9,"yT1":0,"xT2":1058.1,"yT2":0,"toosoon":0,"cond_shown":"Incongruent","ratio_trial":100,"L_num":11,"L_den":22,"R_num":9,"R_den":15,"correct_side":2,"subjID":"yeshuaalejandrtopachon5","gender":"0","school":"4","age":"9"},{"start_time":1552073299866,"click_time":1552073300619,"finger_time":1552073300219,"fix_duration":446.44915665052986,"trial":2,"RT":353,"MT":400,"sideResp":2,"stimulus":[],"xmouse":[811,811,811,811,811,811,811,811,811,811,811,811,812,819,826,832,840,851,915,944,964,979,994,1002,1015,1032,1046,1056,1056,1056,1056,1056,1044,1042,1035,1036,1042,1059],"ymouse":[648,648,648,648,648,648,648,648,648,648,648,648,645,633,621,611,597,576,494,472,459,447,420,390,346,289,235,171,156,156,156,156,147,143,132,122,110,99],"timestamp_mouse":[12,40,52,72,92,113,132,152,173,193,213,232,252,272,292,313,332,353,373,392,412,432,453,472,493,512,532,552,572,592,612,633,654,673,693,712,733,753],"xSR":741.5,"ySR":573.95,"xT1":424.9,"yT1":0,"xT2":1058.1,"yT2":0,"toosoon":0,"cond_shown":"Congruent","ratio_trial":200,"L_num":12,"L_den":15,"R_num":6,"R_den":10,"correct_side":1,"subjID":"yeshuaalejandrtopachon5","gender":"0","school":"4","age":"9"},{"start_time":1552073304027,"click_time":1552073304579,"finger_time":1552073304438,"fix_duration":366.7689692131675,"trial":3,"RT":411,"MT":141,"sideResp":1,"stimulus":[],"xmouse":[797,797,797,797,797,796,794,794,794,794,794,794,794,794,794,794,794,794,791,772,739,718,695,662,617,530,497,463],"ymouse":[625,625,625,625,625,625,625,625,625,625,625,625,625,625,625,625,625,625,623,609,566,513,449,371,294,163,126,91],"timestamp_mouse":[11,43,51,71,91,112,131,151,171,192,211,232,251,271,291,311,332,352,371,393,411,431,451,472,492,511,530,552],"xSR":741.5,"ySR":573.95,"xT1":424.9,"yT1":0,"xT2":1058.1,"yT2":0,"toosoon":0,"cond_shown":"Incongruent","ratio_trial":300,"L_num":4,"L_den":5,"R_num":6,"R_den":12,"correct_side":1,"subjID":"yeshuaalejandrtopachon5","gender":"0","school":"4","age":"9"},{"start_time":1552073306229,"click_time":1552073306840,"finger_time":1552073306518,"fix_duration":529.3295983316913,"trial":4,"RT":289,"MT":322,"sideResp":1,"stimulus":[],"xmouse":[785,785,785,785,785,785,785,785,785,785,785,784,781,772,753,704,675,666,638,603,530,510,498,490,483,478,478,477,475,471,468],"ymouse":[612,612,612,612,612,612,612,612,612,612,608,604,595,575,542,419,321,288,188,107,0,0,0,0,0,0,0,0,0,0,1],"timestamp_mouse":[11,38,48,69,89,109,129,150,170,190,210,229,250,269,289,310,329,350,370,389,411,430,450,470,489,509,529,549,570,589,610],"xSR":741.5,"ySR":573.95,"xT1":424.9,"yT1":0,"xT2":1058.1,"yT2":0,"toosoon":0,"cond_shown":"Incongruent","ratio_trial":100,"L_num":3,"L_den":6,"R_num":4,"R_den":10,"correct_side":1,"subjID":"yeshuaalejandrtopachon5","gender":"0","school":"4","age":"9"},{"start_time":1552073312591,"click_time":1552073313698,"finger_time":1552073313038,"fix_duration":1291.2764804428377,"trial":5,"RT":447,"MT":660,"sideResp":1,"stimulus":[],"xmouse":[782,782,782,782,782,782,782,782,782,782,782,782,782,782,782,782,782,782,782,771,768,761,751,735,732,732,732,732,688,607,502,407,339,306,284,279,278,278,278,278,279,282,292,306,326,344,354,354,354,354,354,354,357,379,413,439],"ymouse":[622,622,622,622,622,622,622,622,622,622,622,622,622,622,622,622,622,622,622,609,596,576,540,495,480,461,441,422,353,280,187,105,41,9,0,0,0,0,0,0,0,0,3,7,13,18,21,21,21,21,21,21,21,25,35,42],"timestamp_mouse":[7,35,47,68,87,108,128,148,168,187,207,227,247,268,288,308,327,347,367,387,407,427,447,468,487,507,527,549,567,587,608,628,648,667,689,707,727,748,768,787,807,827,847,867,887,907,927,947,967,988,1007,1027,1047,1067,1088,1107],"xSR":741.5,"ySR":573.95,"xT1":424.9,"yT1":0,"xT2":1058.1,"yT2":0,"toosoon":0,"cond_shown":"Congruent","ratio_trial":100,"L_num":2,"L_den":5,"R_num":11,"R_den":22,"correct_side":2,"subjID":"yeshuaalejandrtopachon5","gender":"0","school":"4","age":"9"},{"start_time":1552073319990,"click_time":1552073322118,"finger_time":1552073320978,"fix_duration":408.08727139365607,"trial":6,"RT":988,"MT":1140,"sideResp":1,"stimulus":[],"xmouse":[808,808,808,808,808,808,808,808,808,808,808,808,808,808,808,808,808,808,808,808,808,808,808,808,808,808,808,808,808,808,808,808,808,808,808,808,808,808,808,808,808,808,808,808,808,808,808,808,803,732,702,689,688,687,687,687,687,687,687,687,687,687,687,687,687,687,687,687,687,687,687,687,687,687,687,678,667,660,653,631,619,606,591,585,578,578,587,606,623,650,670,672,672,664,628,603,588,581,571,538,528,526,526,524,513,499,481],"ymouse":[657,657,657,657,657,657,657,657,657,657,657,657,657,657,657,657,657,657,657,657,657,657,657,657,657,657,657,657,657,657,657,657,657,657,657,657,657,657,657,657,657,657,657,657,657,657,657,657,657,602,585,582,582,582,582,582,582,582,582,582,582,582,582,582,582,582,582,582,582,582,582,582,582,582,581,564,546,524,502,469,457,442,400,361,301,284,262,228,180,24,0,0,0,0,0,0,0,1,23,87,102,105,105,105,105,102,96],"timestamp_mouse":[9,46,48,68,88,109,128,148,168,188,208,228,248,268,288,308,328,348,369,389,409,429,449,468,489,508,528,549,569,588,609,629,648,668,688,709,729,749,769,789,808,828,848,869,889,908,929,949,968,988,1010,1028,1049,1068,1088,1109,1129,1149,1170,1189,1208,1228,1248,1269,1289,1309,1328,1349,1369,1389,1408,1429,1449,1468,1488,1508,1528,1548,1568,1588,1608,1628,1648,1668,1688,1709,1728,1748,1769,1789,1808,1828,1849,1868,1888,1908,1928,1948,1969,1990,2008,2028,2049,2068,2090,2108,2128],"xSR":741.5,"ySR":573.95,"xT1":424.9,"yT1":0,"xT2":1058.1,"yT2":0,"toosoon":0,"cond_shown":"Congruent","ratio_trial":200,"L_num":16,"L_den":20,"R_num":12,"R_den":20,"correct_side":1,"subjID":"yeshuaalejandrtopachon5","gender":"0","school":"4","age":"9"},{"start_time":1552073326825,"click_time":1552073328658,"finger_time":1552073327758,"fix_duration":1205.500995071924,"trial":7,"RT":933,"MT":900,"sideResp":2,"stimulus":[],"xmouse":[776,776,776,776,776,776,776,776,776,776,776,776,776,776,776,776,776,776,776,776,776,776,776,776,776,776,774,768,758,758,758,758,760,760,760,760,760,760,760,760,760,760,760,768,780,783,783,788,822,827,827,827,827,827,839,865,893,905,906,911,924,963,999,1064,1074,1078,1078,1078,1078,1078,1078,1082,1090,1093,1093,1093,1093,1093,1095,1099,1103,1104,1104,1104,1104,1104,1104,1104,1104,1105,1106,1106],"ymouse":[651,651,651,651,651,651,651,651,651,651,651,651,651,651,651,651,651,651,651,651,651,651,651,651,651,651,650,646,641,641,641,640,639,639,639,639,639,639,639,639,639,639,639,635,624,605,568,537,438,415,401,400,400,399,394,382,377,375,374,374,370,348,322,249,215,196,188,188,188,188,188,186,182,180,180,180,180,180,167,145,137,135,135,135,135,135,135,135,135,135,115,91],"timestamp_mouse":[12,43,52,72,94,113,133,153,174,193,212,233,254,273,293,312,332,352,373,394,412,432,454,473,493,514,532,553,572,593,612,632,654,673,693,712,732,752,773,793,813,832,853,872,892,912,933,953,972,992,1012,1032,1053,1072,1094,1113,1132,1153,1173,1192,1213,1233,1252,1272,1292,1313,1332,1353,1373,1393,1413,1433,1452,1473,1493,1512,1532,1553,1572,1593,1613,1633,1653,1673,1693,1713,1733,1753,1773,1792,1812,1833],"xSR":741.5,"ySR":573.95,"xT1":424.9,"yT1":0,"xT2":1058.1,"yT2":0,"toosoon":0,"cond_shown":"Congruent","ratio_trial":200,"L_num":3,"L_den":12,"R_num":9,"R_den":20,"correct_side":2,"subjID":"yeshuaalejandrtopachon5","gender":"0","school":"4","age":"9"},{"start_time":1552073329790,"click_time":1552073331098,"finger_time":1552073330537,"fix_duration":250,"trial":8,"RT":747,"MT":561,"sideResp":2,"stimulus":[],"xmouse":[777,777,777,777,777,777,777,777,777,777,777,777,777,777,777,777,777,777,777,777,777,777,777,777,777,777,777,777,778,780,776,776,785,794,802,803,796,779,775,775,775,775,775,775,775,776,781,782,782,782,782,782,787,796,814,888,952,980,980,1011,1115,1158,1171,1172,1168,1146],"ymouse":[633,633,633,633,633,633,633,633,633,633,633,633,633,633,633,633,633,633,633,633,633,633,633,633,633,633,633,633,633,631,616,613,608,603,600,594,580,558,552,552,552,552,552,552,549,541,537,537,537,537,537,531,519,507,490,437,390,369,369,344,268,222,183,144,108,38],"timestamp_mouse":[11,39,48,68,88,108,128,149,168,188,208,227,248,267,288,307,328,348,367,389,408,428,448,468,488,508,527,548,568,587,607,627,648,667,687,707,728,747,768,788,807,828,847,867,888,907,927,948,967,989,1008,1027,1049,1069,1087,1108,1127,1149,1168,1187,1207,1227,1247,1267,1287,1308],"xSR":741.5,"ySR":573.95,"xT1":424.9,"yT1":0,"xT2":1058.1,"yT2":0,"toosoon":0,"cond_shown":"Incongruent","ratio_trial":100,"L_num":9,"L_den":10,"R_num":20,"R_den":25,"correct_side":1,"subjID":"yeshuaalejandrtopachon5","gender":"0","school":"4","age":"9"},{"start_time":1552073337486,"click_time":1552073339418,"finger_time":1552073338017,"fix_duration":787.344714955823,"trial":9,"RT":531,"MT":1401,"sideResp":1,"stimulus":[],"xmouse":[810,810,810,810,810,810,810,810,810,810,810,810,810,810,810,810,810,810,810,810,810,810,810,810,792,766,665,646,640,640,640,641,646,654,659,660,662,665,668,669,672,692,704,707,703,689,675,663,663,664,673,738,802,881,907,910,910,910,910,910,911,924,952,979,1004,1023,1037,1038,1031,1026,1019,991,944,858,756,723,625,546,542,541,541,539,536,533,533,533,535,538,539,539,538,534,534,532,531,528,480],"ymouse":[658,658,658,658,658,658,658,658,658,658,658,658,658,658,658,658,658,658,658,658,658,658,658,658,631,598,494,476,464,462,462,457,449,433,420,408,391,384,379,375,371,360,349,339,330,320,319,321,321,321,321,298,283,261,252,251,251,251,251,245,237,211,176,139,92,44,0,0,0,0,0,2,22,54,78,88,119,146,147,147,147,139,126,115,109,105,99,91,86,82,78,73,73,72,72,72,71],"timestamp_mouse":[11,40,52,72,92,113,132,153,173,192,212,232,251,272,292,313,332,352,371,392,413,433,453,473,492,512,531,551,572,592,611,631,652,671,692,713,732,751,771,792,811,832,852,873,892,912,931,951,971,991,1013,1032,1052,1071,1092,1111,1132,1151,1171,1192,1211,1231,1251,1271,1291,1311,1333,1351,1372,1393,1411,1432,1451,1472,1491,1512,1532,1551,1571,1592,1611,1632,1651,1671,1691,1711,1733,1751,1771,1792,1811,1832,1851,1871,1891,1911,1932],"xSR":741.5,"ySR":573.95,"xT1":424.9,"yT1":0,"xT2":1058.1,"yT2":0,"toosoon":0,"cond_shown":"Incongruent","ratio_trial":300,"L_num":4,"L_den":20,"R_num":2,"R_den":4,"correct_side":2,"subjID":"yeshuaalejandrtopachon5","gender":"0","school":"4","age":"9"},{"start_time":1552073348899,"click_time":1552073351277,"finger_time":1552073349757,"fix_duration":999.8885570787236,"trial":10,"RT":858,"MT":1520,"sideResp":1,"stimulus":[],"xmouse":[774,774,774,774,774,776,783,797,797,797,797,797,797,797,797,797,797,797,797,797,797,797,797,797,797,797,797,797,797,797,797,797,797,797,798,799,799,799,800,803,811,823,840,847,848,850,850,853,856,858,860,862,862,867,870,875,878,888,889,889,894,897,913,922,924,925,925,925,925,925,940,960,989,994,995,996,996,996,996,996,996,996,996,992,983,973,958,923,797,757,729,707,644,640,610,583,568,561,561,561,561,564,571,568,555,544,543,538,533,530,530,529,529,528,528,528,528,528,528,522],"ymouse":[626,626,626,626,626,627,630,635,635,635,635,635,635,635,635,635,635,635,635,635,635,635,635,635,635,635,635,635,635,635,635,635,635,635,635,635,635,635,634,632,628,619,604,595,591,587,587,581,575,570,567,566,564,556,551,545,536,512,508,499,482,466,415,376,362,360,360,360,359,359,347,331,296,281,278,276,276,276,276,276,276,276,276,276,274,274,281,300,352,359,359,359,345,343,320,298,278,260,257,255,253,250,213,191,152,128,114,83,70,66,65,65,65,65,65,65,65,65,65,65],"timestamp_mouse":[2,18,39,58,79,99,119,138,159,179,199,218,240,260,279,298,318,339,359,379,399,419,438,458,479,498,520,538,558,579,598,618,640,659,679,699,719,738,759,778,800,819,838,858,879,899,919,938,958,979,999,1018,1038,1058,1078,1098,1118,1138,1158,1179,1199,1219,1239,1258,1279,1299,1318,1339,1359,1379,1398,1418,1439,1458,1479,1499,1519,1539,1558,1579,1598,1619,1639,1658,1679,1700,1720,1739,1758,1778,1799,1818,1838,1858,1878,1899,1918,1939,1958,1979,1998,2020,2039,2060,2079,2099,2119,2139,2159,2180,2198,2219,2240,2260,2279,2299,2319,2339,2358,2378],"xSR":741.5,"ySR":573.95,"xT1":424.9,"yT1":0,"xT2":1058.1,"yT2":0,"toosoon":0,"cond_shown":"Incongruent","ratio_trial":200,"L_num":4,"L_den":6,"R_num":14,"R_den":30,"correct_side":1,"subjID":"yeshuaalejandrtopachon5","gender":"0","school":"4","age":"9"},{"start_time":1552073356044,"click_time":1552073357478,"finger_time":1552073356599,"fix_duration":284.0193263430133,"trial":11,"RT":555,"MT":879,"sideResp":2,"stimulus":[],"xmouse":[771,771,771,771,771,771,771,771,771,771,771,771,771,771,771,771,771,771,771,771,771,771,771,771,771,771,771,771,772,772,775,781,786,793,798,804,810,814,825,844,882,920,931,949,979,1013,1023,1030,1036,1038,1039,1039,1039,1039,1039,1039,1039,1037,1035,1035,1035,1047,1048,1048,1048,1051,1053,1053,1053,1053,1056,1064],"ymouse":[625,625,625,625,625,625,625,625,625,625,625,625,625,625,625,625,625,625,625,625,625,625,625,625,624,604,581,558,554,554,551,543,533,516,507,493,482,466,437,384,246,116,76,18,0,0,0,0,0,0,0,0,0,0,0,0,0,0,2,2,24,57,57,57,57,56,55,55,55,55,52,49],"timestamp_mouse":[13,45,53,73,95,113,133,172,174,193,213,235,253,274,295,313,334,353,375,394,414,434,454,473,493,513,534,555,574,593,613,633,654,674,694,713,734,754,775,794,813,833,853,873,894,913,933,953,973,994,1013,1033,1053,1073,1095,1114,1134,1154,1174,1194,1214,1234,1254,1274,1293,1313,1333,1353,1373,1393,1414,1434],"xSR":741.5,"ySR":573.95,"xT1":424.9,"yT1":0,"xT2":1058.1,"yT2":0,"toosoon":0,"cond_shown":"Incongruent","ratio_trial":200,"L_num":11,"L_den":20,"R_num":3,"R_den":4,"correct_side":2,"subjID":"yeshuaalejandrtopachon5","gender":"0","school":"4","age":"9"},{"start_time":1552073359838,"click_time":1552073361698,"finger_time":1552073360577,"fix_duration":1356.4734738509449,"trial":12,"RT":739,"MT":1121,"sideResp":1,"stimulus":[],"xmouse":[779,779,779,779,779,779,779,779,779,779,779,779,779,779,779,779,779,779,779,779,779,779,779,779,779,779,779,779,779,779,779,779,779,779,779,779,779,770,765,760,760,760,760,760,760,760,760,760,760,760,760,760,757,747,730,721,720,708,696,693,685,660,477,339,245,224,218,217,215,215,215,232,278,295,317,353,387,414,416,416,416,416,416,416,416,419,424,442,452,464,473,476,477,477],"ymouse":[650,650,650,650,650,650,650,650,650,650,650,650,650,650,650,650,650,650,650,650,650,650,650,650,650,650,650,650,650,650,650,650,650,650,650,650,656,684,725,754,757,757,757,757,757,757,757,757,757,757,757,757,669,639,606,589,582,567,556,553,536,492,302,205,133,102,78,17,0,0,0,0,0,4,24,80,130,171,173,173,173,173,173,173,173,168,160,147,138,127,113,105,100,99],"timestamp_mouse":[11,19,41,60,79,100,120,139,159,179,200,220,239,259,280,299,320,340,360,380,400,419,439,461,481,499,519,539,560,579,600,621,640,661,680,699,719,739,760,780,800,820,840,860,880,899,919,939,959,979,999,1019,1040,1060,1079,1099,1120,1139,1160,1180,1199,1219,1239,1260,1279,1299,1319,1340,1361,1379,1401,1421,1440,1459,1479,1499,1520,1540,1560,1579,1601,1620,1640,1659,1680,1700,1720,1740,1759,1779,1799,1819,1840,1859],"xSR":741.5,"ySR":573.95,"xT1":424.9,"yT1":0,"xT2":1058.1,"yT2":0,"toosoon":0,"cond_shown":"Incongruent","ratio_trial":300,"L_num":1,"L_den":2,"R_num":2,"R_den":10,"correct_side":1,"subjID":"yeshuaalejandrtopachon5","gender":"0","school":"4","age":"9"},{"start_time":1552073363269,"click_time":1552073365177,"finger_time":1552073364857,"fix_duration":250,"trial":13,"RT":1588,"MT":320,"sideResp":2,"stimulus":[],"xmouse":[779,772,770,769,769,769,769,769,769,769,769,769,769,769,769,769,769,769,769,769,769,769,769,769,769,769,769,769,769,768,768,767,767,767,766,766,765,765,765,765,765,765,765,764,764,764,764,764,764,764,764,764,764,764,764,764,764,764,764,764,764,764,764,764,764,764,764,764,764,764,764,764,763,763,763,766,766,770,770,813,851,875,884,885,885,885,885,886,912,955,986,999,1020,1037,1063],"ymouse":[654,656,657,658,658,658,658,658,658,658,658,658,658,658,658,658,658,658,658,658,658,658,658,658,658,658,658,658,658,658,658,659,659,659,659,659,660,660,660,660,660,660,660,660,660,660,660,660,660,660,660,660,660,660,660,660,660,660,660,660,660,660,660,660,660,660,660,660,660,660,660,660,661,661,661,660,660,631,517,399,354,322,310,310,310,310,310,308,275,211,151,131,100,76,35],"timestamp_mouse":[32,49,69,89,108,130,149,169,188,210,230,249,270,289,309,329,349,369,389,409,430,448,469,489,508,528,549,568,589,608,630,650,668,688,708,728,748,769,790,808,829,848,868,888,908,928,949,968,988,1008,1028,1050,1068,1089,1109,1128,1148,1169,1188,1208,1229,1250,1270,1289,1309,1329,1349,1370,1389,1408,1429,1449,1468,1490,1510,1529,1549,1569,1588,1608,1628,1650,1669,1689,1709,1729,1748,1768,1788,1809,1828,1848,1868,1889,1908],"xSR":741.5,"ySR":573.95,"xT1":424.9,"yT1":0,"xT2":1058.1,"yT2":0,"toosoon":0,"cond_shown":"Congruent","ratio_trial":200,"L_num":6,"L_den":12,"R_num":7,"R_den":10,"correct_side":2,"subjID":"yeshuaalejandrtopachon5","gender":"0","school":"4","age":"9"},{"start_time":1552073370370,"click_time":1552073372379,"finger_time":1552073371338,"fix_duration":250,"trial":14,"RT":968,"MT":1041,"sideResp":1,"stimulus":[],"xmouse":[743,743,743,743,743,743,743,743,743,743,743,743,743,743,743,743,743,743,743,743,743,743,743,743,743,743,743,743,743,743,743,743,743,743,743,743,743,743,743,749,756,759,762,776,785,789,793,803,820,846,862,883,893,896,898,899,899,899,900,900,900,900,900,900,904,906,909,909,907,904,898,868,853,780,734,714,698,690,679,677,676,673,665,649,617,578,546,546,546,546,546,530,521,521,521,521,525,525,525,525,514],"ymouse":[631,631,631,631,631,631,631,631,631,631,631,631,631,631,631,631,631,631,631,631,631,631,631,631,631,631,631,631,631,631,631,631,631,631,631,631,631,631,631,631,627,626,622,603,595,593,591,580,562,543,526,507,498,493,486,484,484,484,483,483,483,483,483,483,477,468,437,422,418,417,416,413,415,422,417,410,379,360,344,340,336,313,269,190,89,0,0,0,0,0,0,0,0,0,0,0,6,6,6,8,20],"timestamp_mouse":[9,37,48,67,87,109,128,147,169,188,207,228,248,267,287,308,329,349,368,388,408,428,447,468,487,509,527,548,569,588,607,628,647,667,688,708,727,748,768,789,808,828,848,867,888,909,927,947,968,987,1008,1027,1048,1068,1087,1107,1128,1148,1169,1188,1208,1229,1247,1268,1287,1307,1327,1347,1368,1388,1407,1428,1447,1468,1487,1509,1527,1548,1567,1587,1607,1627,1648,1668,1687,1707,1729,1748,1767,1788,1807,1827,1847,1867,1887,1908,1928,1948,1968,1988,2008],"xSR":741.5,"ySR":573.95,"xT1":424.9,"yT1":0,"xT2":1058.1,"yT2":0,"toosoon":0,"cond_shown":"Congruent","ratio_trial":300,"L_num":12,"L_den":24,"R_num":2,"R_den":10,"correct_side":1,"subjID":"yeshuaalejandrtopachon5","gender":"0","school":"4","age":"9"},{"start_time":1552073377751,"click_time":1552073379578,"finger_time":1552073379198,"fix_duration":250,"trial":15,"RT":1447,"MT":380,"sideResp":1,"stimulus":[],"xmouse":[809,809,809,809,809,809,809,809,809,809,809,809,809,809,809,809,809,809,809,809,809,809,809,809,809,809,809,809,809,809,809,809,809,809,809,811,817,819,821,821,821,821,821,821,823,824,825,825,825,825,825,825,825,825,825,825,825,825,825,825,825,825,825,825,825,825,825,826,800,784,771,763,753,715,674,626,586,579,572,567,565,562,559,547,545,545,535,531,533,533,518,505],"ymouse":[635,635,635,635,635,635,635,635,635,635,635,635,635,635,635,635,635,635,635,635,635,635,635,635,635,635,635,635,635,635,635,635,635,635,635,635,633,632,631,631,631,631,631,631,630,629,629,629,629,629,629,629,629,629,629,629,629,629,629,629,629,629,629,629,629,628,628,620,594,587,581,578,572,549,518,482,451,444,427,412,393,370,348,295,289,289,280,267,215,163,118,95],"timestamp_mouse":[9,37,47,66,88,106,128,148,167,186,207,227,247,266,287,308,328,347,366,387,408,427,447,467,486,506,528,547,567,588,607,627,646,667,687,706,726,746,768,786,806,827,847,866,888,907,926,947,966,987,1006,1026,1047,1066,1086,1107,1128,1147,1166,1188,1206,1227,1247,1266,1287,1306,1327,1347,1366,1386,1408,1427,1447,1466,1487,1507,1526,1546,1567,1587,1606,1626,1646,1666,1687,1707,1726,1747,1766,1787,1807,1827],"xSR":741.5,"ySR":573.95,"xT1":424.9,"yT1":0,"xT2":1058.1,"yT2":0,"toosoon":0,"cond_shown":"Congruent","ratio_trial":100,"L_num":3,"L_den":6,"R_num":2,"R_den":5,"correct_side":1,"subjID":"yeshuaalejandrtopachon5","gender":"0","school":"4","age":"9"},{"start_time":1552073385823,"click_time":1552073387897,"finger_time":1552073387318,"fix_duration":1104.181243553078,"trial":16,"RT":1495,"MT":579,"sideResp":2,"stimulus":[],"xmouse":[789,789,789,789,789,789,789,789,789,789,789,789,789,789,789,789,789,789,789,789,789,789,789,789,789,789,789,789,789,789,789,789,789,789,789,789,789,789,789,789,789,789,789,789,789,789,789,789,789,789,789,789,789,789,789,789,789,789,789,789,789,789,789,789,789,789,789,789,789,789,789,789,789,795,860,874,878,880,894,1041,1140,1215,1252,1260,1262,1270,1277,1285,1283,1267,1227,1200,1173,1154,1141,1141,1141,1141,1141,1142,1143,1143,1137,1118],"ymouse":[656,656,656,656,656,656,656,656,656,656,656,656,656,656,656,656,656,656,656,656,656,656,656,656,656,656,656,656,656,656,656,656,656,656,656,656,656,656,656,656,656,656,656,656,656,656,656,656,656,656,656,656,656,656,656,656,656,656,656,656,656,656,656,656,656,656,656,656,656,656,656,656,656,652,615,599,590,587,574,388,249,124,45,4,0,0,0,0,0,0,15,52,90,109,115,115,115,115,115,115,114,114,105,81],"timestamp_mouse":[14,39,54,74,95,115,136,154,175,195,214,235,256,275,294,315,334,354,375,394,414,436,455,474,494,514,536,556,575,595,615,636,654,676,695,714,734,754,775,795,814,834,855,875,894,915,934,956,975,996,1016,1034,1055,1076,1095,1115,1134,1155,1175,1195,1214,1235,1254,1274,1295,1315,1336,1355,1374,1395,1415,1436,1455,1474,1495,1514,1534,1554,1574,1596,1615,1635,1655,1675,1694,1714,1734,1755,1775,1794,1814,1835,1855,1874,1894,1914,1934,1954,1974,1995,2014,2034,2054,2074],"xSR":741.5,"ySR":573.95,"xT1":424.9,"yT1":0,"xT2":1058.1,"yT2":0,"toosoon":0,"cond_shown":"Incongruent","ratio_trial":100,"L_num":6,"L_den":10,"R_num":11,"R_den":22,"correct_side":1,"subjID":"yeshuaalejandrtopachon5","gender":"0","school":"4","age":"9"},{"start_time":1552073394415,"click_time":1552073396758,"finger_time":1552073396078,"fix_duration":1274.5377455283078,"trial":17,"RT":1663,"MT":680,"sideResp":2,"stimulus":[],"xmouse":[789,789,789,789,789,789,789,789,789,789,789,789,789,789,789,789,789,789,789,789,789,789,789,789,789,789,789,789,789,789,789,789,789,789,789,789,789,789,789,789,789,789,789,789,789,789,789,789,789,789,789,789,789,789,789,789,789,789,789,789,789,789,789,789,789,789,789,789,789,789,789,789,789,789,789,789,789,789,790,808,822,824,822,823,825,825,827,842,858,877,899,954,975,993,1016,1034,1055,1055,1052,1050,1050,1050,1050,1050,1050,1050,1050,1050,1050,1050,1050,1053,1055,1056,1057,1057,1057,1059],"ymouse":[624,624,624,624,624,624,624,624,624,624,624,624,624,624,624,624,624,624,624,624,624,624,624,624,624,624,624,624,624,624,624,624,624,624,624,624,624,624,624,624,624,624,624,624,624,624,624,624,624,624,624,624,624,624,624,624,624,624,624,624,624,624,624,624,624,624,624,624,624,624,624,624,624,624,624,624,624,624,624,616,608,604,582,566,553,542,527,507,492,479,464,411,378,342,283,223,118,88,72,68,68,68,68,68,68,68,68,68,68,67,66,64,63,62,61,61,61,60],"timestamp_mouse":[9,22,42,63,84,103,122,142,162,183,202,222,243,264,283,302,323,343,363,382,403,422,442,464,483,502,523,542,564,583,603,623,643,662,682,702,723,742,763,783,804,823,842,862,882,903,923,942,963,984,1003,1024,1043,1062,1082,1103,1124,1142,1162,1182,1202,1223,1243,1262,1283,1302,1323,1343,1362,1382,1402,1423,1443,1463,1483,1503,1523,1543,1562,1584,1603,1622,1642,1663,1682,1702,1722,1743,1762,1782,1803,1823,1843,1863,1883,1903,1924,1942,1962,1983,2003,2023,2042,2063,2082,2103,2122,2143,2163,2182,2202,2223,2242,2262,2283,2302,2323,2343],"xSR":741.5,"ySR":573.95,"xT1":424.9,"yT1":0,"xT2":1058.1,"yT2":0,"toosoon":0,"cond_shown":"Congruent","ratio_trial":200,"L_num":9,"L_den":30,"R_num":13,"R_den":26,"correct_side":2,"subjID":"yeshuaalejandrtopachon5","gender":"0","school":"4","age":"9"},{"start_time":1552073400549,"click_time":1552073401857,"finger_time":1552073401577,"fix_duration":250,"trial":18,"RT":1028,"MT":280,"sideResp":2,"stimulus":[],"xmouse":[782,782,782,782,782,782,782,782,782,782,782,782,782,782,782,782,782,782,782,782,782,782,782,782,782,782,782,782,782,782,782,782,782,782,782,782,782,782,783,783,783,783,783,783,783,783,783,783,784,788,838,905,981,1044,1085,1099,1108,1108,1108,1107,1104,1103,1102,1098,1098,1104],"ymouse":[651,651,651,651,651,651,651,651,651,651,651,651,651,651,651,651,651,651,651,651,651,651,651,651,651,651,651,651,651,651,651,651,651,651,651,651,651,651,650,650,650,650,650,650,650,650,650,650,650,650,629,604,583,562,542,532,497,471,443,418,397,359,332,285,217,61],"timestamp_mouse":[11,38,48,68,88,109,129,148,168,188,208,228,249,268,288,308,329,350,369,388,409,429,448,468,488,509,529,548,569,589,609,628,648,668,688,709,729,749,768,789,808,828,849,870,890,908,928,949,968,989,1009,1028,1049,1069,1089,1109,1128,1149,1168,1189,1209,1228,1249,1268,1289,1308],"xSR":741.5,"ySR":573.95,"xT1":424.9,"yT1":0,"xT2":1058.1,"yT2":0,"toosoon":0,"cond_shown":"Incongruent","ratio_trial":100,"L_num":8,"L_den":20,"R_num":1,"R_den":2,"correct_side":2,"subjID":"yeshuaalejandrtopachon5","gender":"0","school":"4","age":"9"},{"start_time":1552073407192,"click_time":1552073409297,"finger_time":1552073408617,"fix_duration":1271.2322595201977,"trial":19,"RT":1425,"MT":680,"sideResp":1,"stimulus":[],"xmouse":[813,813,813,813,813,813,813,813,813,813,813,813,813,813,813,813,813,813,813,813,813,813,813,813,813,813,813,813,813,813,813,813,813,813,813,813,813,813,813,813,813,813,813,813,813,813,813,813,813,813,813,813,813,813,813,813,813,813,813,813,813,813,813,813,813,813,813,813,813,814,802,754,684,572,393,355,333,312,291,269,269,269,269,272,282,288,299,314,328,369,393,411,412,412,412,412,412,412,412,412,412,412,412,412,412,442],"ymouse":[626,626,626,626,626,626,626,626,626,626,626,626,626,626,626,626,626,626,626,626,626,626,626,626,626,626,626,626,626,626,626,626,626,626,626,626,626,626,626,626,626,626,626,626,626,626,626,626,626,626,626,626,626,626,626,626,626,626,626,626,626,626,626,626,626,626,626,626,626,625,585,497,430,361,226,176,139,102,75,56,56,56,56,50,45,44,41,37,32,17,7,0,0,0,0,0,0,0,0,0,0,0,0,0,0,37],"timestamp_mouse":[9,41,45,65,86,105,125,145,166,186,207,226,245,266,286,305,325,345,367,387,405,425,445,466,485,506,526,547,566,586,605,625,645,665,686,705,726,746,766,785,805,826,845,866,885,907,925,947,965,985,1005,1026,1046,1066,1085,1107,1126,1145,1165,1185,1206,1226,1246,1265,1287,1306,1326,1345,1366,1387,1406,1425,1445,1465,1486,1506,1525,1546,1565,1585,1606,1625,1646,1666,1686,1705,1725,1745,1765,1785,1806,1827,1846,1867,1886,1906,1926,1946,1966,1986,2005,2026,2046,2065,2085,2105],"xSR":741.5,"ySR":573.95,"xT1":424.9,"yT1":0,"xT2":1058.1,"yT2":0,"toosoon":0,"cond_shown":"Incongruent","ratio_trial":200,"L_num":3,"L_den":4,"R_num":11,"R_den":20,"correct_side":1,"subjID":"yeshuaalejandrtopachon5","gender":"0","school":"4","age":"9"},{"start_time":1552073417810,"click_time":1552073420838,"finger_time":1552073419878,"fix_duration":871.1729553370901,"trial":20,"RT":2068,"MT":960,"sideResp":1,"stimulus":[],"xmouse":[795,795,795,795,795,795,795,795,795,795,795,795,795,795,795,795,795,795,795,795,795,795,795,795,795,795,795,795,795,795,795,795,795,795,795,795,795,795,795,795,795,795,795,795,795,795,795,795,795,795,795,795,795,795,795,795,795,795,795,795,795,795,795,795,795,795,795,795,795,795,795,795,795,795,795,795,795,795,795,795,795,795,795,795,795,795,795,795,795,795,795,795,795,795,795,795,795,795,795,795,795,791,776,733,673,623,622,622,622,622,622,622,622,625,625,626,641,656,667,683,704,711,713,715,715,712,702,679,640,581,448,367,285,203,95,83,83,87,93,100,100,100,100,101,133,149,172,213,245,263,361,472],"ymouse":[664,664,664,664,664,664,664,664,664,664,664,664,664,664,664,664,664,664,664,664,664,664,664,664,664,664,664,664,664,664,664,664,664,664,664,664,664,664,664,664,664,664,664,664,664,664,664,664,664,664,664,664,664,664,664,664,664,664,664,664,664,664,664,664,664,664,664,664,664,664,664,664,664,664,664,664,664,664,664,664,664,664,664,664,664,664,664,664,664,664,664,664,664,664,664,664,664,664,664,664,664,664,665,670,672,667,667,667,667,667,667,667,667,665,665,642,603,558,520,480,418,392,374,369,369,369,369,368,350,298,152,95,37,0,0,0,0,0,0,0,0,0,0,0,12,24,46,71,82,83,83,83],"timestamp_mouse":[9,41,47,67,88,107,127,148,167,189,207,227,248,269,289,308,327,348,368,389,409,428,447,468,488,507,528,548,567,587,607,628,648,667,687,708,728,747,767,788,807,828,849,868,888,908,928,948,968,988,1007,1028,1047,1068,1087,1107,1128,1147,1167,1187,1208,1227,1248,1268,1287,1308,1329,1348,1368,1388,1408,1428,1448,1468,1488,1507,1527,1548,1567,1587,1608,1628,1647,1668,1688,1708,1727,1747,1769,1789,1808,1827,1848,1869,1888,1907,1927,1948,1969,1988,2007,2028,2048,2068,2087,2109,2127,2148,2167,2188,2207,2227,2247,2269,2287,2307,2328,2348,2367,2387,2407,2428,2448,2467,2488,2507,2528,2548,2567,2587,2607,2627,2648,2667,2688,2708,2727,2747,2767,2790,2808,2828,2849,2868,2890,2907,2927,2948,2967,2987,3007,3027],"xSR":741.5,"ySR":573.95,"xT1":424.9,"yT1":0,"xT2":1058.1,"yT2":0,"toosoon":0,"cond_shown":"Incongruent","ratio_trial":100,"L_num":6,"L_den":10,"R_num":13,"R_den":26,"correct_side":1,"subjID":"yeshuaalejandrtopachon5","gender":"0","school":"4","age":"9"},{"start_time":1552073426305,"click_time":1552073427719,"finger_time":1552073426857,"fix_duration":1486.96511974364,"trial":21,"RT":552,"MT":862,"sideResp":2,"stimulus":[],"xmouse":[803,803,803,803,803,803,803,803,803,802,799,797,797,797,797,797,797,797,797,797,797,797,797,797,797,791,757,710,692,683,679,679,679,679,679,680,682,682,682,682,682,682,682,682,682,685,688,715,739,773,811,877,903,925,941,968,976,981,982,982,982,983,983,985,992,998,1006,1007,1010,1020,1060],"ymouse":[636,636,636,636,636,636,636,636,636,636,639,639,639,639,639,639,639,639,639,639,639,639,639,639,639,626,574,506,472,455,440,438,438,436,434,421,415,414,413,413,413,412,412,412,412,411,409,391,371,337,275,158,101,43,0,0,0,0,0,0,0,2,20,42,58,66,69,69,69,61,12],"timestamp_mouse":[12,38,52,72,92,112,133,153,174,192,212,233,252,274,292,313,332,353,372,392,413,433,453,473,492,512,533,552,572,593,612,632,652,672,692,713,732,754,773,792,813,833,853,873,892,912,933,953,973,992,1012,1032,1052,1074,1092,1115,1132,1152,1173,1193,1213,1232,1253,1273,1292,1313,1332,1352,1372,1393,1414],"xSR":741.5,"ySR":573.95,"xT1":424.9,"yT1":0,"xT2":1058.1,"yT2":0,"toosoon":0,"cond_shown":"Congruent","ratio_trial":300,"L_num":3,"L_den":12,"R_num":11,"R_den":20,"correct_side":2,"subjID":"yeshuaalejandrtopachon5","gender":"0","school":"4","age":"9"},{"start_time":1552073433988,"click_time":1552073436237,"finger_time":1552073435177,"fix_duration":1449.4231295834993,"trial":22,"RT":1189,"MT":1060,"sideResp":2,"stimulus":[],"xmouse":[752,752,752,752,752,752,752,752,752,752,752,752,752,752,752,752,752,752,752,752,752,752,752,752,752,752,752,752,752,752,752,752,752,752,752,752,752,752,752,752,752,752,752,752,752,752,752,752,752,752,752,752,752,752,752,752,752,751,746,738,737,737,736,736,736,736,733,731,731,740,815,910,1080,1142,1182,1204,1220,1247,1263,1263,1263,1264,1264,1264,1264,1263,1257,1230,1197,1172,1143,1116,1095,1082,1081,1084,1092,1058,1033,1030,1030,1030,1030,1032,1034,1037,1039,1040,1040,1042,1046,1052,1064],"ymouse":[645,645,645,645,645,645,645,645,645,645,645,645,645,645,645,645,645,645,645,645,645,645,645,645,645,645,645,645,645,645,645,645,645,645,645,645,645,645,645,645,645,645,645,645,645,645,645,645,645,645,645,645,645,645,645,645,645,646,649,652,653,653,654,654,654,654,654,654,655,644,583,516,341,246,142,35,0,0,0,0,0,0,0,0,0,0,1,27,51,75,110,140,157,166,166,148,115,3,0,0,0,0,0,0,0,1,2,3,3,5,9,19,25],"timestamp_mouse":[9,40,51,70,89,111,130,149,170,189,210,230,250,271,290,310,331,349,370,389,409,430,450,470,490,511,529,550,570,590,610,629,649,669,689,710,731,750,770,790,811,830,849,870,891,910,929,950,970,989,1011,1029,1049,1069,1090,1109,1130,1149,1170,1189,1210,1229,1249,1270,1290,1309,1329,1349,1370,1389,1410,1430,1450,1469,1489,1510,1529,1549,1570,1589,1609,1629,1650,1670,1690,1709,1729,1750,1769,1789,1809,1829,1849,1870,1889,1910,1930,1950,1969,1990,2009,2029,2051,2069,2090,2111,2130,2150,2170,2189,2209,2229,2249],"xSR":741.5,"ySR":573.95,"xT1":424.9,"yT1":0,"xT2":1058.1,"yT2":0,"toosoon":0,"cond_shown":"Congruent","ratio_trial":100,"L_num":7,"L_den":14,"R_num":15,"R_den":25,"correct_side":2,"subjID":"yeshuaalejandrtopachon5","gender":"0","school":"4","age":"9"},{"start_time":1552073438171,"click_time":1552073440098,"finger_time":1552073439738,"fix_duration":250,"trial":23,"RT":1567,"MT":360,"sideResp":2,"stimulus":[],"xmouse":[828,828,828,828,828,828,828,828,828,828,828,828,828,828,828,828,828,828,828,828,828,828,828,828,828,828,828,828,828,828,828,828,828,828,828,828,828,828,828,828,828,828,828,828,828,828,828,828,828,828,828,828,828,828,828,828,828,828,828,828,828,828,828,828,828,828,828,828,828,828,828,828,828,828,828,828,828,829,836,969,1018,1035,1040,1045,1089,1119,1147,1190,1205,1215,1220,1220,1220,1220,1212,1184,1141],"ymouse":[578,578,578,578,578,578,578,578,578,578,578,578,578,578,578,578,578,578,578,578,578,578,578,578,578,578,578,578,578,578,578,578,578,578,578,578,578,578,578,578,578,578,578,578,578,578,578,578,578,578,578,578,578,578,578,578,578,578,578,578,578,578,578,578,578,578,578,578,578,578,578,578,578,578,578,578,578,578,569,421,367,343,332,320,274,239,196,117,72,36,27,26,26,26,26,35,53],"timestamp_mouse":[12,26,46,66,87,106,128,147,166,186,206,226,248,267,286,306,328,348,367,387,407,428,447,467,486,507,526,546,566,587,606,626,646,667,687,707,728,747,766,786,807,827,846,868,888,907,926,947,966,986,1006,1026,1047,1066,1087,1107,1127,1147,1167,1188,1206,1227,1247,1267,1287,1306,1327,1346,1367,1386,1406,1427,1446,1467,1486,1506,1527,1547,1567,1586,1607,1627,1646,1666,1686,1706,1726,1747,1766,1786,1806,1826,1846,1867,1886,1907,1926],"xSR":741.5,"ySR":573.95,"xT1":424.9,"yT1":0,"xT2":1058.1,"yT2":0,"toosoon":0,"cond_shown":"Congruent","ratio_trial":100,"L_num":2,"L_den":5,"R_num":6,"R_den":12,"correct_side":2,"subjID":"yeshuaalejandrtopachon5","gender":"0","school":"4","age":"9"},{"start_time":1552073441809,"click_time":1552073443878,"finger_time":1552073443357,"fix_duration":250,"trial":24,"RT":1548,"MT":521,"sideResp":1,"stimulus":[],"xmouse":[794,794,794,794,794,794,794,794,794,794,794,794,794,794,794,794,794,794,794,794,794,794,794,794,794,794,794,794,794,794,794,794,794,794,794,794,794,794,794,794,794,794,794,794,794,794,794,794,794,794,794,794,794,794,794,794,794,794,794,794,794,794,794,794,794,794,794,794,794,794,793,793,794,797,797,797,797,784,758,735,720,712,647,592,540,527,526,548,559,568,572,573,573,574,574,569,560,534,526,524,524,530,528,495],"ymouse":[622,622,622,622,622,622,622,622,622,622,622,622,622,622,622,622,622,622,622,622,622,622,622,622,622,622,622,622,622,622,622,622,622,622,622,622,622,622,622,622,622,622,622,622,622,622,622,622,622,622,622,622,622,622,622,622,622,622,622,622,622,622,622,622,622,622,622,622,622,621,621,621,608,595,595,595,595,570,531,496,477,469,421,382,337,317,304,269,254,236,220,209,202,202,202,191,182,163,148,138,131,124,113,95],"timestamp_mouse":[9,38,48,68,90,110,129,150,169,188,209,229,248,268,289,309,328,349,369,389,410,430,449,469,489,508,529,549,569,590,609,629,648,669,688,709,728,748,769,788,808,828,849,869,889,910,930,949,968,989,1009,1029,1048,1070,1089,1109,1129,1148,1169,1189,1210,1230,1249,1268,1289,1308,1329,1348,1369,1389,1409,1429,1448,1469,1488,1509,1528,1548,1568,1588,1608,1628,1648,1668,1688,1708,1728,1748,1768,1788,1808,1829,1848,1868,1888,1909,1928,1948,1968,1988,2008,2029,2048,2069],"xSR":741.5,"ySR":573.95,"xT1":424.9,"yT1":0,"xT2":1058.1,"yT2":0,"toosoon":0,"cond_shown":"Congruent","ratio_trial":100,"L_num":11,"L_den":22,"R_num":6,"R_den":15,"correct_side":1,"subjID":"yeshuaalejandrtopachon5","gender":"0","school":"4","age":"9"},{"start_time":1552073447382,"click_time":1552073449378,"finger_time":1552073448778,"fix_duration":603.9975074287887,"trial":25,"RT":1396,"MT":600,"sideResp":1,"stimulus":[],"xmouse":[766,766,766,766,766,766,766,766,766,766,766,766,766,766,766,766,766,766,766,766,766,766,766,766,766,766,766,766,766,766,766,766,766,766,766,766,766,766,766,766,766,766,766,766,766,766,766,766,766,766,766,766,766,766,766,766,766,766,766,766,766,766,766,766,766,766,766,766,765,776,765,752,739,738,737,737,735,734,734,734,732,732,725,632,625,625,625,625,625,597,576,574,577,587,579,544,512,509,509,489],"ymouse":[609,609,609,609,609,609,609,609,609,609,609,609,609,609,609,609,609,609,609,609,609,609,609,609,609,609,609,609,609,609,609,609,609,609,609,609,609,609,609,609,609,609,609,609,609,609,609,609,609,609,609,609,609,609,609,609,609,609,609,609,609,609,609,609,609,609,609,609,609,482,394,380,377,376,376,376,377,377,377,377,378,378,373,308,303,303,303,303,303,221,171,154,149,118,0,0,0,0,0,6],"timestamp_mouse":[16,39,57,75,97,117,136,157,176,195,217,235,255,275,296,316,335,355,377,395,417,437,455,477,496,517,537,557,577,595,617,637,657,677,696,717,737,755,777,797,815,835,857,876,896,916,937,957,976,996,1016,1035,1056,1076,1097,1117,1136,1156,1177,1197,1217,1237,1256,1276,1295,1315,1335,1357,1376,1396,1416,1436,1456,1476,1496,1517,1537,1556,1576,1596,1617,1636,1657,1676,1697,1715,1737,1757,1776,1796,1816,1836,1856,1876,1895,1916,1935,1955,1976,1996],"xSR":741.5,"ySR":573.95,"xT1":424.9,"yT1":0,"xT2":1058.1,"yT2":0,"toosoon":0,"cond_shown":"Incongruent","ratio_trial":100,"L_num":2,"L_den":4,"R_num":8,"R_den":20,"correct_side":1,"subjID":"yeshuaalejandrtopachon5","gender":"0","school":"4","age":"9"},{"start_time":1552073453583,"click_time":1552073455379,"finger_time":1552073454597,"fix_duration":564.8645176441229,"trial":26,"RT":1014,"MT":782,"sideResp":2,"stimulus":[],"xmouse":[808,808,808,808,808,808,808,808,808,808,808,808,808,808,808,808,808,808,808,808,808,808,808,808,808,808,808,808,808,808,808,808,808,808,808,808,808,808,808,808,808,808,808,808,808,808,808,808,808,808,787,778,768,758,754,754,754,748,729,702,702,702,702,702,702,708,735,789,853,917,972,977,984,989,991,1012,1029,1029,1035,1085,1088,1088,1088,1088,1088,1092,1093,1093,1093,1095],"ymouse":[623,623,623,623,623,623,623,623,623,623,623,623,623,623,623,623,623,623,623,623,623,623,623,623,623,623,623,623,623,623,623,623,623,623,623,623,623,623,623,623,623,623,623,623,623,623,623,623,623,623,562,522,492,470,460,460,460,459,461,469,469,469,469,469,469,469,465,450,428,389,293,258,233,224,222,214,207,207,197,157,155,155,155,155,155,139,127,116,106,93],"timestamp_mouse":[16,41,56,75,95,115,134,155,174,195,216,235,255,274,296,314,334,356,376,395,415,436,455,475,496,514,535,556,576,595,616,636,654,675,695,715,736,754,775,796,816,835,854,875,896,915,934,956,976,994,1014,1034,1054,1074,1095,1114,1135,1155,1175,1195,1215,1234,1256,1275,1296,1315,1335,1355,1374,1395,1416,1435,1455,1474,1495,1515,1535,1555,1575,1596,1616,1634,1656,1675,1696,1714,1735,1755,1775,1795],"xSR":741.5,"ySR":573.95,"xT1":424.9,"yT1":0,"xT2":1058.1,"yT2":0,"toosoon":0,"cond_shown":"Congruent","ratio_trial":300,"L_num":1,"L_den":5,"R_num":6,"R_den":12,"correct_side":2,"subjID":"yeshuaalejandrtopachon5","gender":"0","school":"4","age":"9"},{"start_time":1552073461672,"click_time":1552073463579,"finger_time":1552073463098,"fix_duration":373.42713758272384,"trial":27,"RT":1426,"MT":481,"sideResp":2,"stimulus":[],"xmouse":[801,801,801,801,801,801,801,801,801,801,801,801,801,801,801,801,801,801,801,801,801,801,801,801,801,801,801,801,801,801,801,801,801,801,801,801,801,801,801,801,801,801,801,801,801,801,801,801,801,801,801,801,801,801,801,801,801,801,801,801,801,801,801,801,801,801,801,801,801,803,820,1070,1234,1380,1468,1491,1454,1426,1408,1398,1391,1339,1273,1214,1159,1123,1100,1100,1100,1100,1100,1100,1100,1109,1115,1121],"ymouse":[638,638,638,638,638,638,638,638,638,638,638,638,638,638,638,638,638,638,638,638,638,638,638,638,638,638,638,638,638,638,638,638,638,638,638,638,638,638,638,638,638,638,638,638,638,638,638,638,638,638,638,638,638,638,638,638,638,638,638,638,638,638,638,638,638,638,638,638,638,635,602,313,167,30,0,0,0,0,0,0,0,0,20,54,84,101,105,105,105,105,105,105,105,104,100,97],"timestamp_mouse":[10,25,46,67,87,105,127,145,165,187,206,227,247,265,285,305,325,345,366,387,407,426,447,466,487,506,525,547,566,587,608,626,645,666,687,705,727,747,766,787,805,825,846,867,886,905,925,945,966,986,1005,1027,1047,1065,1087,1107,1126,1145,1166,1187,1207,1227,1246,1267,1285,1307,1327,1346,1366,1386,1406,1426,1446,1466,1486,1505,1528,1546,1566,1587,1606,1628,1646,1665,1686,1705,1727,1746,1766,1786,1806,1826,1847,1867,1887,1907],"xSR":741.5,"ySR":573.95,"xT1":424.9,"yT1":0,"xT2":1058.1,"yT2":0,"toosoon":0,"cond_shown":"Incongruent","ratio_trial":100,"L_num":9,"L_den":15,"R_num":13,"R_den":26,"correct_side":1,"subjID":"yeshuaalejandrtopachon5","gender":"0","school":"4","age":"9"},{"start_time":1552073468041,"click_time":1552073469538,"finger_time":1552073469317,"fix_duration":519.5103356186363,"trial":28,"RT":1276,"MT":221,"sideResp":2,"stimulus":[],"xmouse":[796,796,796,796,796,796,796,796,796,796,796,796,796,796,796,796,796,796,796,796,796,796,796,796,796,796,796,796,796,796,796,796,796,796,796,796,796,796,796,796,796,796,796,796,796,796,796,796,796,796,796,796,796,796,796,796,797,799,802,803,804,810,818,879,913,944,969,992,1014,1018,1027,1033,1046,1073,1096],"ymouse":[623,623,623,623,623,623,623,623,623,623,623,623,623,623,623,623,623,623,623,623,623,623,623,623,623,623,623,623,623,623,623,623,623,623,623,623,623,623,623,623,623,623,623,623,623,623,623,623,623,623,623,623,623,623,623,623,623,623,621,621,619,611,602,534,492,452,419,383,340,323,298,270,217,127,70],"timestamp_mouse":[18,40,57,77,97,118,137,157,178,197,217,238,257,277,298,318,338,358,378,397,418,437,457,478,496,518,537,556,577,596,618,638,657,678,696,718,736,758,777,798,816,837,857,877,898,918,938,957,977,997,1016,1036,1058,1077,1097,1117,1136,1157,1176,1198,1217,1237,1257,1276,1296,1317,1337,1358,1377,1396,1417,1438,1457,1477,1497],"xSR":741.5,"ySR":573.95,"xT1":424.9,"yT1":0,"xT2":1058.1,"yT2":0,"toosoon":0,"cond_shown":"Congruent","ratio_trial":300,"L_num":1,"L_den":3,"R_num":19,"R_den":30,"correct_side":2,"subjID":"yeshuaalejandrtopachon5","gender":"0","school":"4","age":"9"},{"start_time":1552073474129,"click_time":1552073475698,"finger_time":1552073475138,"fix_duration":1289.0334306538577,"trial":29,"RT":1009,"MT":560,"sideResp":1,"stimulus":[],"xmouse":[796,796,796,796,796,796,796,796,796,796,796,796,796,796,796,796,796,796,796,796,796,796,796,796,796,796,796,796,796,796,796,796,796,796,796,796,796,796,796,796,797,799,799,799,799,799,800,805,814,825,843,850,854,860,862,863,863,863,863,863,863,863,853,848,834,829,829,829,829,817,784,766,738,686,640,568,543,528,519],"ymouse":[636,636,636,636,636,636,636,636,636,636,636,636,636,636,636,636,636,636,636,636,636,636,636,636,636,636,636,636,636,636,636,636,636,636,636,636,636,636,636,636,636,636,636,636,636,636,635,632,626,612,583,574,568,554,546,539,538,538,538,538,538,538,542,545,553,556,556,556,556,552,526,499,449,344,276,172,134,112,98],"timestamp_mouse":[14,31,49,69,89,109,128,149,169,189,210,229,249,270,288,310,330,349,368,390,409,430,450,470,489,508,529,550,570,589,609,630,649,670,689,708,730,750,769,790,808,828,849,870,889,909,928,950,969,989,1009,1029,1048,1069,1090,1110,1130,1150,1169,1188,1208,1230,1249,1269,1289,1308,1329,1349,1369,1389,1408,1428,1448,1469,1489,1508,1529,1549,1569],"xSR":741.5,"ySR":573.95,"xT1":424.9,"yT1":0,"xT2":1058.1,"yT2":0,"toosoon":0,"cond_shown":"Incongruent","ratio_trial":200,"L_num":4,"L_den":30,"R_num":1,"R_den":3,"correct_side":2,"subjID":"yeshuaalejandrtopachon5","gender":"0","school":"4","age":"9"},{"start_time":1552073480136,"click_time":1552073481658,"finger_time":1552073481358,"fix_duration":816.4909343812227,"trial":30,"RT":1222,"MT":300,"sideResp":1,"stimulus":[],"xmouse":[806,806,806,806,806,806,806,806,806,806,806,806,806,806,806,806,806,806,806,806,806,806,806,806,806,806,806,806,806,806,806,806,806,806,806,806,806,806,806,806,806,806,806,806,806,806,806,806,806,806,806,806,806,806,806,806,806,806,806,807,825,826,831,845,849,780,700,629,598,588,548,531,507,489,471,470,468],"ymouse":[624,624,624,624,624,624,624,624,624,624,624,624,624,624,624,624,624,624,624,624,624,624,624,624,624,624,624,624,624,624,624,624,624,624,624,624,624,624,624,624,624,624,624,624,624,624,624,624,624,624,624,624,624,624,624,624,624,624,624,623,598,557,493,424,334,178,82,19,0,0,0,0,0,0,0,0,17],"timestamp_mouse":[10,36,42,62,83,103,121,143,162,183,203,223,241,261,283,302,323,343,363,382,402,422,442,463,483,501,522,543,562,583,603,622,643,662,683,703,723,742,763,782,803,822,843,863,881,901,922,943,963,983,1001,1022,1041,1063,1081,1102,1122,1141,1161,1182,1202,1222,1242,1263,1281,1302,1321,1342,1362,1383,1402,1421,1441,1462,1482,1502,1522],"xSR":741.5,"ySR":573.95,"xT1":424.9,"yT1":0,"xT2":1058.1,"yT2":0,"toosoon":0,"cond_shown":"Congruent","ratio_trial":200,"L_num":15,"L_den":25,"R_num":4,"R_den":10,"correct_side":1,"subjID":"yeshuaalejandrtopachon5","gender":"0","school":"4","age":"9"},{"start_time":1552073483986,"click_time":1552073485577,"finger_time":1552073484517,"fix_duration":1184.1769184123916,"trial":31,"RT":531,"MT":1060,"sideResp":2,"stimulus":[],"xmouse":[816,816,816,816,816,816,816,816,816,816,816,816,816,816,816,816,816,816,816,815,812,808,806,805,805,795,790,790,790,790,790,790,790,790,790,790,778,759,740,740,726,715,711,697,681,661,661,661,661,661,661,661,661,650,649,657,677,712,806,831,864,888,913,966,1008,1060,1111,1153,1180,1180,1180,1180,1180,1180,1180,1180,1179,1177,1163,1153],"ymouse":[655,655,655,655,655,655,655,655,655,655,655,655,655,655,655,655,655,655,655,655,655,654,654,652,632,583,562,562,562,562,562,562,562,562,562,562,550,534,521,521,507,493,485,449,419,385,385,382,382,382,380,370,368,331,312,306,298,289,281,277,262,250,228,136,43,0,0,0,0,0,0,0,0,0,0,0,0,1,10,16],"timestamp_mouse":[11,37,51,73,91,111,133,153,172,192,211,231,253,273,292,312,333,353,372,391,413,432,451,472,492,511,531,553,572,593,611,632,652,673,692,711,733,752,772,791,811,832,853,872,893,912,931,953,971,992,1012,1032,1052,1071,1093,1111,1133,1151,1172,1192,1213,1232,1252,1271,1293,1312,1332,1352,1372,1392,1413,1432,1452,1472,1492,1512,1532,1552,1572,1591],"xSR":741.5,"ySR":573.95,"xT1":424.9,"yT1":0,"xT2":1058.1,"yT2":0,"toosoon":0,"cond_shown":"Incongruent","ratio_trial":300,"L_num":13,"L_den":26,"R_num":12,"R_den":15,"correct_side":2,"subjID":"yeshuaalejandrtopachon5","gender":"0","school":"4","age":"9"},{"start_time":1552073489867,"click_time":1552073491299,"finger_time":1552073491217,"fix_duration":848.8418618095086,"trial":32,"RT":1350,"MT":82,"sideResp":2,"stimulus":[],"xmouse":[773,773,773,773,773,773,773,773,773,773,773,773,773,773,773,773,773,773,773,773,773,773,773,773,773,773,773,773,773,773,773,773,773,773,773,773,773,773,773,773,773,773,773,773,773,773,773,773,773,773,773,773,773,773,773,773,773,773,773,773,773,773,773,773,773,773,790,852,898,989,1063,1067],"ymouse":[633,633,633,633,633,633,633,633,633,633,633,633,633,633,633,633,633,633,633,633,633,633,633,633,633,633,633,633,633,633,633,633,633,633,633,633,633,633,633,633,633,633,633,633,633,633,633,633,633,633,633,633,633,633,633,633,633,633,633,633,633,633,633,633,633,633,604,492,424,257,113,79],"timestamp_mouse":[15,34,51,72,91,111,132,152,172,191,211,231,250,272,292,310,332,351,372,391,411,430,451,470,492,512,531,552,571,590,612,630,651,670,692,710,731,750,772,791,811,830,850,872,892,911,931,951,972,992,1011,1031,1052,1071,1092,1112,1130,1152,1172,1191,1210,1231,1251,1270,1292,1311,1332,1350,1371,1391,1410,1431],"xSR":741.5,"ySR":573.95,"xT1":424.9,"yT1":0,"xT2":1058.1,"yT2":0,"toosoon":0,"cond_shown":"Incongruent","ratio_trial":200,"L_num":4,"L_den":30,"R_num":1,"R_den":3,"correct_side":2,"subjID":"yeshuaalejandrtopachon5","gender":"0","school":"4","age":"9"},{"start_time":1552073493776,"click_time":1552073495597,"finger_time":1552073494859,"fix_duration":1396.6169169213933,"trial":33,"RT":1083,"MT":738,"sideResp":1,"stimulus":[],"xmouse":[781,781,781,781,781,781,781,781,781,781,781,781,781,781,781,781,781,781,781,781,781,781,781,781,781,781,781,781,781,781,781,781,781,781,781,781,781,781,781,781,781,781,781,777,773,770,770,773,774,774,774,774,772,760,744,714,710,710,710,710,710,710,710,710,701,682,680,676,671,661,647,646,646,646,644,629,613,596,587,586,603,605,605,599,589,579,574,531,515,500,498,498],"ymouse":[620,620,620,620,620,620,620,620,620,620,620,620,620,620,620,620,620,620,620,620,620,620,620,620,620,620,620,620,620,620,620,620,620,620,620,620,620,620,620,620,620,620,620,619,617,616,616,612,611,611,611,611,603,587,567,536,530,527,520,512,498,492,483,473,460,438,434,421,401,368,337,336,336,336,334,323,309,287,265,243,201,195,189,183,175,165,162,137,124,113,105,97],"timestamp_mouse":[9,21,42,62,83,101,123,142,163,183,203,221,242,263,283,302,322,342,362,383,403,423,442,461,483,503,522,543,563,581,603,622,643,662,683,702,721,743,763,783,802,822,841,862,883,902,921,942,963,983,1002,1023,1041,1062,1083,1102,1122,1142,1162,1183,1201,1222,1241,1263,1282,1301,1322,1342,1362,1383,1402,1422,1443,1461,1483,1502,1521,1542,1562,1582,1602,1622,1642,1661,1681,1702,1721,1741,1762,1782,1801,1821],"xSR":741.5,"ySR":573.95,"xT1":424.9,"yT1":0,"xT2":1058.1,"yT2":0,"toosoon":0,"cond_shown":"Incongruent","ratio_trial":200,"L_num":7,"L_den":10,"R_num":8,"R_den":16,"correct_side":1,"subjID":"yeshuaalejandrtopachon5","gender":"0","school":"4","age":"9"},{"start_time":1552073500306,"click_time":1552073503918,"finger_time":1552073503378,"fix_duration":946.6369281110314,"trial":34,"RT":3072,"MT":540,"sideResp":1,"stimulus":[],"xmouse":[807,807,807,807,807,807,807,807,807,807,807,807,807,807,807,807,807,807,807,807,807,807,807,807,807,807,807,807,807,807,807,807,807,807,807,807,807,807,807,807,807,807,807,807,807,807,807,807,807,807,807,807,807,807,807,807,807,807,807,807,807,807,807,807,807,807,807,807,807,807,807,807,807,807,807,807,807,807,807,807,807,807,807,807,807,807,807,807,807,807,807,807,807,807,807,807,807,807,807,807,807,807,807,807,807,807,807,807,807,807,807,807,807,807,807,807,807,807,807,807,807,807,807,807,807,807,807,807,807,807,807,807,807,807,807,807,807,807,807,807,807,807,807,807,807,807,807,807,807,807,807,807,811,882,973,984,984,984,968,928,908,861,831,717,588,583,583,588,596,597,582,568,560,557,545,545,545,545,545,529,523],"ymouse":[630,630,630,630,630,630,630,630,630,630,630,630,630,630,630,630,630,630,630,630,630,630,630,630,630,630,630,630,630,630,630,630,630,630,630,630,630,630,630,630,630,630,630,630,630,630,630,630,630,630,630,630,630,630,630,630,630,630,630,630,630,630,630,630,630,630,630,630,630,630,630,630,630,630,630,630,630,630,630,630,630,630,630,630,630,630,630,630,630,630,630,630,630,630,630,630,630,630,630,630,630,630,630,630,630,630,630,630,630,630,630,630,630,630,630,630,630,630,630,630,630,630,630,630,630,630,630,630,630,630,630,630,630,630,630,630,630,630,630,630,630,630,630,630,630,630,630,630,630,630,630,630,627,600,555,546,541,538,531,511,490,421,380,237,50,35,32,17,0,0,0,0,0,7,38,40,40,40,40,41,41],"timestamp_mouse":[11,40,52,71,93,112,133,152,173,193,212,232,251,273,292,313,333,353,372,392,412,433,452,472,491,513,532,553,572,592,612,631,653,673,693,713,731,752,773,793,812,833,852,871,892,913,932,953,973,992,1012,1032,1052,1071,1092,1113,1132,1152,1173,1191,1212,1232,1253,1272,1292,1312,1333,1353,1371,1392,1413,1433,1452,1472,1493,1512,1531,1552,1572,1593,1611,1632,1653,1672,1693,1712,1732,1751,1772,1793,1813,1833,1853,1873,1892,1913,1931,1953,1972,1993,2012,2032,2053,2073,2091,2111,2131,2153,2173,2193,2213,2233,2252,2272,2293,2313,2332,2351,2373,2393,2412,2431,2452,2473,2492,2512,2533,2552,2572,2592,2612,2631,2653,2673,2693,2713,2733,2752,2773,2792,2812,2831,2852,2873,2892,2913,2933,2953,2971,2993,3012,3033,3052,3072,3092,3111,3132,3152,3172,3192,3213,3232,3252,3273,3292,3312,3331,3352,3372,3391,3413,3432,3452,3472,3493,3512,3532,3553,3572,3594,3612],"xSR":741.5,"ySR":573.95,"xT1":424.9,"yT1":0,"xT2":1058.1,"yT2":0,"toosoon":0,"cond_shown":"Incongruent","ratio_trial":300,"L_num":8,"L_den":10,"R_num":9,"R_den":18,"correct_side":1,"subjID":"yeshuaalejandrtopachon5","gender":"0","school":"4","age":"9"},{"start_time":1552073528163,"click_time":1552073529880,"finger_time":1552073529158,"fix_duration":623.1617134613919,"trial":35,"RT":995,"MT":722,"sideResp":1,"stimulus":[],"xmouse":[794,794,794,794,794,794,794,794,794,794,794,794,794,794,794,794,794,794,794,794,794,794,794,794,794,794,794,794,794,794,794,794,794,794,794,794,794,794,794,794,794,794,794,794,794,794,797,801,795,685,632,618,617,617,617,616,614,608,608,608,608,606,599,591,566,565,562,559,558,556,550,546,542,542,542,542,541,541,540,540,540,540,539,536,531,521],"ymouse":[650,650,650,650,650,650,650,650,650,650,650,650,650,650,650,650,650,650,650,650,650,650,650,650,650,650,650,650,650,650,650,650,650,650,650,650,650,650,650,650,650,650,650,650,650,650,647,634,603,489,457,450,450,450,450,449,409,355,298,232,222,214,194,166,86,84,78,76,76,75,75,74,73,73,73,73,73,73,73,73,73,73,73,73,73,70],"timestamp_mouse":[15,44,55,76,94,116,136,155,174,195,215,236,256,276,295,316,334,356,376,395,414,436,455,474,495,515,536,556,575,594,616,636,654,675,694,716,735,755,776,795,816,836,854,874,896,916,934,955,976,995,1015,1036,1055,1075,1094,1115,1135,1155,1175,1195,1215,1235,1256,1275,1295,1315,1336,1356,1376,1395,1414,1435,1455,1476,1495,1516,1535,1555,1575,1595,1615,1635,1654,1675,1696,1716],"xSR":741.5,"ySR":573.95,"xT1":424.9,"yT1":0,"xT2":1058.1,"yT2":0,"toosoon":0,"cond_shown":"Congruent","ratio_trial":100,"L_num":10,"L_den":25,"R_num":3,"R_den":10,"correct_side":1,"subjID":"yeshuaalejandrtopachon5","gender":"0","school":"4","age":"9"},{"start_time":1552073532350,"click_time":1552073534618,"finger_time":1552073533838,"fix_duration":1190.4854185197526,"trial":36,"RT":1488,"MT":780,"sideResp":1,"stimulus":[],"xmouse":[809,809,809,809,809,809,809,809,809,809,809,809,809,809,809,809,809,809,809,809,809,809,809,809,809,809,809,809,809,809,809,809,809,809,809,809,809,809,809,809,809,809,809,809,809,809,809,809,809,809,809,809,809,809,809,809,809,809,809,809,809,809,809,809,809,809,809,809,809,809,809,806,801,798,827,861,863,861,850,835,785,731,680,653,556,365,245,243,245,248,242,238,237,237,261,282,357,357,357,357,357,357,358,362,369,377,377,377,377,378,380,389,408,425],"ymouse":[606,606,606,606,606,606,606,606,606,606,606,606,606,606,606,606,606,606,606,606,606,606,606,606,606,606,606,606,606,606,606,606,606,606,606,606,606,606,606,606,606,606,606,606,606,606,606,606,606,606,606,606,606,606,606,606,606,606,606,606,606,606,606,606,606,606,606,606,606,606,606,604,600,586,514,408,384,361,345,334,319,299,278,264,225,172,139,131,114,100,52,38,37,37,45,55,83,83,83,83,83,83,80,73,60,39,35,31,28,27,24,22,21,21],"timestamp_mouse":[10,42,47,68,87,108,129,148,169,189,209,229,249,269,289,309,328,347,369,388,409,429,448,469,489,508,529,548,569,588,608,629,649,668,689,709,728,748,768,788,809,828,847,868,887,908,929,949,968,988,1008,1028,1049,1069,1089,1108,1127,1149,1169,1189,1209,1228,1248,1268,1288,1308,1328,1348,1369,1388,1408,1427,1449,1468,1488,1508,1527,1548,1568,1588,1608,1627,1648,1668,1688,1708,1729,1748,1768,1788,1808,1827,1849,1867,1888,1909,1928,1949,1969,1988,2009,2028,2049,2068,2088,2108,2128,2148,2169,2187,2208,2228,2248,2268],"xSR":741.5,"ySR":573.95,"xT1":424.9,"yT1":0,"xT2":1058.1,"yT2":0,"toosoon":0,"cond_shown":"Congruent","ratio_trial":100,"L_num":6,"L_den":20,"R_num":5,"R_den":25,"correct_side":1,"subjID":"yeshuaalejandrtopachon5","gender":"0","school":"4","age":"9"},{"start_time":1552073538273,"click_time":1552073544079,"finger_time":1552073539417,"fix_duration":694.9457166583427,"trial":37,"RT":1144,"MT":4662,"sideResp":1,"stimulus":[],"xmouse":[795,795,795,795,795,795,795,795,795,795,795,795,795,795,795,795,795,795,795,795,795,795,795,795,795,795,795,795,795,795,795,795,795,795,795,795,795,795,795,795,795,795,795,795,795,795,795,795,795,795,795,795,795,795,795,795,795,834,858,864,859,859,859,859,859,859,859,859,859,859,859,859,859,859,859,859,859,859,859,859,811,753,709,687,681,670,666,666,666,670,707,755,804,846,871,892,893,891,891,891,891,889,888,886,884,867,863,862,862,862,864,864,861,861,861,861,861,861,861,861,861,861,861,861,861,861,861,861,861,861,764,760,757,754,753,750,749,745,743,742,743,746,753,760,768,784,792,794,795,796,796,796,796,793,792,792,792,792,792,793,798,802,802,803,803,803,803,803,803,802,801,801,801,801,800,800,800,800,800,800,800,800,800,800,800,800,800,800,800,800,800,800,800,800,800,800,800,800,800,800,800,800,800,800,800,800,800,800,800,800,800,800,800,800,800,800,800,800,800,800,800,800,800,800,800,800,800,800,800,800,800,800,800,800,800,800,800,800,800,800,800,800,800,801,806,812,812,812,812,807,799,798,798,798,798,798,798,798,798,798,798,798,798,798,798,798,798,789,775,760,754,753,753,748,736,697,682,670,659,646,615,590,568,546,537,536,536,536,536,535,518],"ymouse":[636,636,636,636,636,636,636,636,636,636,636,636,636,636,636,636,636,636,636,636,636,636,636,636,636,636,636,636,636,636,636,636,636,636,636,636,636,636,636,636,636,636,636,636,636,636,636,636,636,636,636,636,636,636,636,636,636,493,375,339,332,332,332,332,332,332,332,332,332,332,332,332,332,332,332,332,332,332,332,332,395,472,544,620,677,771,804,808,809,809,804,785,762,741,729,720,718,710,706,701,691,689,688,688,688,708,712,712,717,732,767,778,793,821,876,876,876,876,876,876,876,876,876,876,876,876,876,876,876,876,861,845,834,824,819,810,803,788,779,774,771,771,766,758,750,721,700,687,680,678,678,678,676,673,672,672,672,672,671,670,657,644,633,629,628,628,628,628,627,627,627,627,627,627,627,627,627,627,627,627,627,627,627,627,627,627,627,627,627,627,627,627,627,627,627,627,627,627,627,627,627,627,627,627,627,627,627,627,627,627,627,627,627,627,627,627,627,627,627,627,627,627,627,627,627,627,627,627,627,627,627,627,627,627,627,627,627,627,627,627,627,627,627,619,604,580,580,580,580,578,575,574,574,574,574,574,574,574,574,574,574,574,574,574,574,574,574,572,567,560,552,512,491,455,409,336,317,304,288,266,209,174,143,120,108,106,104,102,95,86,55],"timestamp_mouse":[9,40,44,64,85,105,126,145,166,185,205,225,246,265,285,305,326,346,364,384,405,426,444,466,485,504,525,545,565,586,606,625,645,666,685,704,726,745,765,785,805,826,845,865,885,906,926,945,965,986,1006,1025,1046,1064,1085,1106,1125,1144,1165,1185,1204,1225,1246,1265,1284,1304,1324,1346,1365,1385,1405,1425,1445,1466,1484,1504,1524,1544,1565,1586,1605,1625,1646,1666,1686,1706,1725,1745,1766,1786,1805,1825,1845,1866,1886,1905,1925,1945,1965,1984,2005,2025,2046,2066,2085,2104,2125,2145,2165,2185,2205,2226,2245,2265,2286,2304,2325,2345,2366,2385,2405,2425,2446,2465,2485,2505,2525,2545,2566,2585,2604,2625,2645,2665,2685,2705,2725,2745,2765,2784,2805,2825,2846,2865,2884,2904,2925,2945,2965,2985,3005,3025,3046,3064,3085,3105,3125,3146,3165,3185,3205,3224,3244,3264,3286,3305,3326,3346,3365,3386,3405,3426,3446,3464,3486,3506,3524,3546,3566,3586,3605,3625,3645,3665,3685,3706,3726,3746,3765,3786,3806,3825,3846,3865,3885,3905,3926,3944,3966,3986,4006,4024,4046,4066,4086,4106,4126,4146,4166,4185,4206,4226,4246,4265,4285,4306,4326,4345,4366,4386,4406,4425,4446,4471,4486,4504,4524,4545,4566,4586,4606,4626,4646,4666,4685,4705,4726,4746,4765,4785,4805,4825,4845,4864,4885,4905,4925,4944,4966,4984,5005,5026,5045,5066,5085,5106,5126,5145,5166,5185,5205,5225,5245,5265,5285,5304,5325,5344,5365,5384,5406,5424,5445,5465,5486,5505,5524,5545,5565,5585,5606,5624,5645,5665,5685,5706,5726,5745,5765,5785,5805],"xSR":741.5,"ySR":573.95,"xT1":424.9,"yT1":0,"xT2":1058.1,"yT2":0,"toosoon":0,"cond_shown":"Incongruent","ratio_trial":200,"L_num":14,"L_den":30,"R_num":6,"R_den":9,"correct_side":2,"subjID":"yeshuaalejandrtopachon5","gender":"0","school":"4","age":"9"},{"start_time":1552073545892,"click_time":1552073547699,"finger_time":1552073547118,"fix_duration":911.1268121324129,"trial":38,"RT":1226,"MT":581,"sideResp":2,"stimulus":[],"xmouse":[804,804,804,804,804,804,804,804,804,804,804,804,804,804,804,804,804,804,804,804,804,804,804,804,804,804,804,804,804,804,804,804,804,804,804,804,804,804,804,804,804,804,804,804,804,804,804,804,804,804,804,804,804,804,804,804,804,804,804,804,804,851,877,985,1042,1149,1189,1224,1245,1258,1262,1262,1254,1233,1226,1209,1206,1202,1198,1198,1194,1194,1194,1194,1193,1189,1186,1184,1181,1174,1148],"ymouse":[609,609,609,609,609,609,609,609,609,609,609,609,609,609,609,609,609,609,609,609,609,609,609,609,609,609,609,609,609,609,609,609,609,609,609,609,609,609,609,609,609,609,609,609,609,609,609,609,609,609,609,609,609,609,609,609,609,609,609,609,609,589,574,491,429,281,202,126,84,63,58,55,43,17,6,0,0,0,0,0,0,0,0,0,1,3,5,7,13,26,70],"timestamp_mouse":[10,45,46,66,85,107,127,147,167,187,206,227,247,267,286,306,326,347,366,387,407,426,445,466,487,507,526,547,566,585,607,626,646,666,686,706,726,746,766,785,805,825,846,866,887,906,927,946,967,986,1006,1026,1047,1067,1087,1107,1125,1146,1166,1186,1205,1226,1246,1266,1286,1307,1326,1345,1366,1387,1406,1426,1446,1466,1486,1508,1526,1546,1566,1585,1606,1627,1646,1667,1687,1707,1726,1745,1767,1787,1807],"xSR":741.5,"ySR":573.95,"xT1":424.9,"yT1":0,"xT2":1058.1,"yT2":0,"toosoon":0,"cond_shown":"Congruent","ratio_trial":300,"L_num":1,"L_den":20,"R_num":7,"R_den":20,"correct_side":2,"subjID":"yeshuaalejandrtopachon5","gender":"0","school":"4","age":"9"},{"start_time":1552073549560,"click_time":1552073551879,"finger_time":1552073551178,"fix_duration":760.3165666727988,"trial":39,"RT":1618,"MT":701,"sideResp":1,"stimulus":[],"xmouse":[803,803,803,803,803,803,803,803,803,803,803,803,803,803,803,803,803,803,803,803,803,803,803,803,803,803,803,803,803,803,803,803,803,803,803,803,803,803,803,803,803,803,803,803,803,803,803,803,803,803,803,803,803,803,803,803,803,803,803,803,803,803,803,803,803,803,803,803,803,803,803,803,803,803,803,803,803,803,794,784,777,769,766,759,751,748,742,714,701,692,682,643,620,588,570,564,564,564,564,563,559,556,556,556,556,554,552,540,537,536,535,535,535,534,529,520],"ymouse":[604,604,604,604,604,604,604,604,604,604,604,604,604,604,604,604,604,604,604,604,604,604,604,604,604,604,604,604,604,604,604,604,604,604,604,604,604,604,604,604,604,604,604,604,604,604,604,604,604,604,604,604,604,604,604,604,604,604,604,604,604,604,604,604,604,604,604,604,604,604,604,604,604,604,604,604,604,603,587,574,567,540,525,510,499,497,495,485,480,477,468,403,367,287,199,117,13,0,0,0,0,0,0,0,0,0,2,15,19,20,20,20,20,21,23,32],"timestamp_mouse":[18,42,58,78,98,117,138,158,179,197,218,239,257,278,299,319,339,358,379,398,418,438,459,478,499,518,538,558,578,598,619,637,659,678,698,717,739,759,779,797,819,837,858,877,899,919,938,958,977,999,1018,1038,1059,1078,1098,1118,1139,1159,1179,1199,1219,1238,1259,1279,1298,1319,1339,1359,1379,1398,1419,1439,1457,1479,1499,1519,1538,1559,1577,1598,1618,1638,1658,1678,1698,1719,1738,1759,1778,1798,1818,1838,1857,1878,1898,1918,1939,1958,1978,1998,2017,2037,2058,2077,2098,2119,2137,2158,2179,2199,2218,2238,2258,2277,2299,2319],"xSR":741.5,"ySR":573.95,"xT1":424.9,"yT1":0,"xT2":1058.1,"yT2":0,"toosoon":0,"cond_shown":"Congruent","ratio_trial":100,"L_num":1,"L_den":2,"R_num":18,"R_den":30,"correct_side":2,"subjID":"yeshuaalejandrtopachon5","gender":"0","school":"4","age":"9"},{"start_time":1552073553467,"click_time":1552073555318,"finger_time":1552073554978,"fix_duration":427.31350449476804,"trial":40,"RT":1511,"MT":340,"sideResp":1,"stimulus":[],"xmouse":[810,810,810,810,810,810,810,810,810,810,810,810,810,810,810,810,810,810,810,810,810,810,810,810,810,810,810,810,810,810,810,810,810,810,810,810,810,810,810,810,810,810,810,810,810,810,810,810,810,810,810,810,810,810,810,810,810,810,810,810,810,810,810,810,810,810,810,810,810,810,810,810,810,808,808,803,782,759,745,734,724,715,703,699,691,676,647,599,573,560,552,552,514],"ymouse":[641,641,641,641,641,641,641,641,641,641,641,641,641,641,641,641,641,641,641,641,641,641,641,641,641,641,641,641,641,641,641,641,641,641,641,641,641,641,641,641,641,641,641,641,641,641,641,641,641,641,641,641,641,641,641,641,641,641,641,641,641,641,641,641,641,641,641,641,641,641,641,641,641,640,629,562,496,444,419,399,372,343,294,270,254,240,224,189,153,128,110,109,79],"timestamp_mouse":[11,35,51,72,91,110,130,152,171,191,211,232,251,272,292,311,332,350,372,392,411,432,452,472,491,511,532,552,572,591,611,632,652,672,691,712,732,751,772,792,812,832,852,870,892,912,931,951,972,991,1011,1031,1052,1072,1091,1112,1132,1152,1172,1192,1211,1230,1252,1272,1291,1311,1332,1352,1371,1392,1412,1432,1452,1471,1491,1511,1532,1550,1571,1591,1611,1631,1651,1670,1691,1711,1732,1750,1772,1791,1812,1830,1850],"xSR":741.5,"ySR":573.95,"xT1":424.9,"yT1":0,"xT2":1058.1,"yT2":0,"toosoon":0,"cond_shown":"Congruent","ratio_trial":100,"L_num":4,"L_den":10,"R_num":15,"R_den":30,"correct_side":2,"subjID":"yeshuaalejandrtopachon5","gender":"0","school":"4","age":"9"},{"start_time":1552073557592,"click_time":1552073559698,"finger_time":1552073559018,"fix_duration":1452.622397875457,"trial":41,"RT":1426,"MT":680,"sideResp":1,"stimulus":[],"xmouse":[778,778,778,778,778,778,778,778,778,778,778,778,778,778,778,778,778,778,778,778,778,778,778,778,778,778,778,778,778,778,778,778,778,778,778,778,778,778,778,778,778,778,778,778,778,778,778,778,778,778,778,778,778,778,778,778,778,778,778,778,778,778,778,778,778,778,778,778,776,772,762,725,700,663,617,558,421,360,291,230,182,124,124,129,136,142,145,152,170,192,213,216,222,225,232,244,278,300,321,337,354,383,398,411,418,425],"ymouse":[607,607,607,607,607,607,607,607,607,607,607,607,607,607,607,607,607,607,607,607,607,607,607,607,607,607,607,607,607,607,607,607,607,607,607,607,607,607,607,607,607,607,607,607,607,607,607,607,607,607,607,607,607,607,607,607,607,607,607,607,607,607,607,607,607,607,607,607,605,605,602,580,553,501,440,371,233,172,101,29,0,0,0,0,0,0,0,0,0,6,12,13,16,16,16,16,16,15,12,10,6,2,1,1,1,3],"timestamp_mouse":[12,25,45,65,86,106,126,145,166,186,206,226,245,265,287,307,326,345,365,386,406,427,446,467,487,506,527,547,567,587,607,627,646,667,685,706,726,747,767,785,805,827,847,867,887,905,927,947,966,986,1007,1026,1046,1067,1087,1106,1126,1146,1167,1186,1206,1227,1246,1267,1287,1306,1326,1345,1366,1386,1407,1426,1447,1466,1487,1506,1526,1545,1566,1587,1606,1627,1646,1666,1687,1707,1727,1746,1766,1787,1805,1825,1846,1866,1887,1906,1928,1946,1966,1986,2005,2027,2045,2066,2087,2106],"xSR":741.5,"ySR":573.95,"xT1":424.9,"yT1":0,"xT2":1058.1,"yT2":0,"toosoon":0,"cond_shown":"Congruent","ratio_trial":300,"L_num":4,"L_den":5,"R_num":2,"R_den":4,"correct_side":1,"subjID":"yeshuaalejandrtopachon5","gender":"0","school":"4","age":"9"},{"start_time":1552073561816,"click_time":1552073563998,"finger_time":1552073563538,"fix_duration":1494.428023726725,"trial":42,"RT":1722,"MT":460,"sideResp":1,"stimulus":[],"xmouse":[762,762,762,762,762,762,762,762,762,762,762,762,762,762,762,762,762,762,762,762,762,762,762,762,762,762,762,762,762,762,762,762,762,762,762,762,762,762,762,762,762,762,762,762,762,762,762,762,762,762,762,762,762,762,762,762,762,762,762,762,762,762,762,762,762,762,762,762,762,762,762,762,762,762,762,762,762,762,762,762,762,762,773,785,806,816,815,815,812,808,798,729,662,592,556,513,470,411,389,385,385,385,384,384,384,384,392,399,414,434],"ymouse":[636,636,636,636,636,636,636,636,636,636,636,636,636,636,636,636,636,636,636,636,636,636,636,636,636,636,636,636,636,636,636,636,636,636,636,636,636,636,636,636,636,636,636,636,636,636,636,636,636,636,636,636,636,636,636,636,636,636,636,636,636,636,636,636,636,636,636,636,636,636,636,636,636,636,636,636,636,636,636,636,636,636,629,620,598,579,570,569,567,539,517,405,265,114,0,0,0,0,0,0,0,0,0,2,2,3,24,29,35,43],"timestamp_mouse":[10,21,42,62,83,103,123,141,162,183,202,222,243,262,282,303,323,342,361,382,403,422,442,463,482,502,523,542,563,583,603,623,642,661,683,702,722,743,761,781,803,822,842,862,882,902,923,942,961,983,1001,1023,1042,1062,1083,1103,1122,1142,1163,1183,1203,1222,1241,1263,1282,1302,1323,1342,1362,1383,1403,1423,1443,1463,1483,1503,1523,1543,1563,1583,1603,1623,1642,1663,1682,1703,1722,1742,1762,1782,1802,1822,1841,1862,1882,1903,1921,1942,1961,1982,2003,2022,2042,2062,2083,2103,2123,2142,2162,2182],"xSR":741.5,"ySR":573.95,"xT1":424.9,"yT1":0,"xT2":1058.1,"yT2":0,"toosoon":0,"cond_shown":"Congruent","ratio_trial":200,"L_num":20,"L_den":25,"R_num":9,"R_den":15,"correct_side":1,"subjID":"yeshuaalejandrtopachon5","gender":"0","school":"4","age":"9"},{"start_time":1552073568010,"click_time":1552073569758,"finger_time":1552073569098,"fix_duration":250,"trial":43,"RT":1088,"MT":660,"sideResp":2,"stimulus":[],"xmouse":[796,796,796,796,796,796,796,796,796,796,796,796,796,796,796,796,796,796,796,796,796,796,796,796,796,796,796,796,796,796,796,796,796,796,796,796,796,796,796,796,796,796,795,795,795,795,795,802,804,803,800,799,765,748,751,756,762,771,773,774,774,781,782,782,782,782,782,795,810,822,841,865,887,895,906,930,942,949,950,950,950,954,995,1013,1019,1026,1049,1147],"ymouse":[636,636,636,636,636,636,636,636,636,636,636,636,636,636,636,636,636,636,636,636,636,636,636,636,636,636,636,636,636,636,636,636,636,636,636,636,636,636,636,636,636,636,636,636,636,636,636,627,622,621,617,617,596,582,567,565,564,564,564,564,564,558,554,552,548,542,530,474,413,379,323,262,182,143,112,77,65,58,57,57,57,57,65,71,71,71,69,39],"timestamp_mouse":[13,28,48,68,89,108,127,149,169,189,207,227,248,269,289,309,328,348,368,389,409,429,448,468,489,509,528,549,567,589,609,628,649,668,688,709,729,747,769,789,809,829,848,869,889,907,928,948,969,989,1009,1028,1048,1068,1088,1109,1128,1148,1168,1188,1208,1229,1247,1268,1288,1308,1328,1349,1368,1388,1408,1428,1448,1467,1488,1508,1528,1548,1569,1589,1608,1628,1648,1668,1688,1709,1728,1748],"xSR":741.5,"ySR":573.95,"xT1":424.9,"yT1":0,"xT2":1058.1,"yT2":0,"toosoon":0,"cond_shown":"Incongruent","ratio_trial":200,"L_num":3,"L_den":4,"R_num":11,"R_den":20,"correct_side":1,"subjID":"yeshuaalejandrtopachon5","gender":"0","school":"4","age":"9"},{"start_time":1552073575085,"click_time":1552073577098,"finger_time":1552073576498,"fix_duration":1265.9025744660858,"trial":44,"RT":1413,"MT":600,"sideResp":1,"stimulus":[],"xmouse":[778,778,778,778,778,778,778,778,778,778,778,778,778,778,778,778,778,778,778,778,778,778,778,778,778,778,778,778,778,778,778,778,778,778,778,778,778,778,778,778,778,778,778,778,778,778,778,778,778,778,778,778,778,778,778,778,778,778,778,778,778,778,778,778,778,778,780,786,794,779,711,608,565,561,583,632,689,722,750,767,770,735,688,612,576,530,485,443,357,350,350,348,348,353,355,356,356,357,390,416,435],"ymouse":[629,629,629,629,629,629,629,629,629,629,629,629,629,629,629,629,629,629,629,629,629,629,629,629,629,629,629,629,629,629,629,629,629,629,629,629,629,629,629,629,629,629,629,629,629,629,629,629,629,629,629,629,629,629,629,629,629,629,629,629,629,629,629,629,629,629,629,626,619,600,589,573,568,568,555,530,503,488,473,420,300,173,65,0,0,0,0,0,0,0,0,0,4,12,13,13,13,13,28,37,42],"timestamp_mouse":[15,33,54,74,93,113,133,154,172,194,213,232,253,273,294,314,334,352,372,394,414,433,453,474,493,514,534,553,572,594,614,634,653,673,694,713,733,753,774,793,812,832,852,872,894,913,933,954,974,994,1013,1033,1052,1073,1093,1113,1134,1154,1173,1194,1213,1234,1254,1274,1294,1314,1333,1354,1372,1394,1413,1434,1453,1473,1493,1512,1533,1553,1573,1593,1613,1632,1654,1673,1694,1713,1733,1753,1774,1792,1814,1833,1853,1876,1892,1914,1934,1954,1974,1993,2013],"xSR":741.5,"ySR":573.95,"xT1":424.9,"yT1":0,"xT2":1058.1,"yT2":0,"toosoon":0,"cond_shown":"Congruent","ratio_trial":200,"L_num":21,"L_den":30,"R_num":2,"R_den":4,"correct_side":1,"subjID":"yeshuaalejandrtopachon5","gender":"0","school":"4","age":"9"},{"start_time":1552073582076,"click_time":1552073583258,"finger_time":1552073582737,"fix_duration":697.2679625025103,"trial":45,"RT":661,"MT":521,"sideResp":1,"stimulus":[],"xmouse":[803,803,803,803,803,803,803,803,803,803,803,803,803,803,803,803,803,803,803,803,803,803,803,803,803,803,803,803,803,803,802,800,799,791,785,783,780,777,773,767,763,763,763,763,753,734,673,643,629,614,577,551,537,534,534,535,536,535,532,521],"ymouse":[630,630,630,630,630,630,630,630,630,630,630,630,630,630,630,630,630,630,630,630,630,630,630,630,630,630,630,630,630,630,630,616,593,533,509,480,470,461,450,440,434,434,434,432,419,399,340,296,251,197,57,0,0,0,0,0,0,0,0,5],"timestamp_mouse":[11,22,44,62,82,102,123,142,162,183,203,223,243,263,282,302,322,342,363,382,401,423,443,462,483,503,522,543,563,583,602,622,642,661,682,702,722,741,762,782,802,823,843,862,881,902,923,942,962,982,1002,1022,1042,1062,1082,1102,1122,1144,1162,1182],"xSR":741.5,"ySR":573.95,"xT1":424.9,"yT1":0,"xT2":1058.1,"yT2":0,"toosoon":0,"cond_shown":"Incongruent","ratio_trial":300,"L_num":8,"L_den":10,"R_num":14,"R_den":28,"correct_side":1,"subjID":"yeshuaalejandrtopachon5","gender":"0","school":"4","age":"9"},{"start_time":1552073587431,"click_time":1552073589038,"finger_time":1552073588558,"fix_duration":1232.174406593752,"trial":46,"RT":1127,"MT":480,"sideResp":2,"stimulus":[],"xmouse":[802,802,802,802,802,802,802,802,802,802,802,802,802,802,802,802,802,802,802,802,802,802,802,802,802,802,802,802,802,802,802,802,802,802,802,802,802,802,802,802,802,802,801,797,797,797,797,797,797,797,797,797,797,797,797,810,857,883,895,895,897,902,906,922,938,953,963,964,964,964,965,966,967,968,972,993,1008,1017,1037,1055,1086],"ymouse":[641,641,641,641,641,641,641,641,641,641,641,641,641,641,641,641,641,641,641,641,641,641,641,641,641,641,641,641,641,641,641,641,641,641,641,641,641,641,641,641,641,641,641,643,643,643,643,643,643,643,643,643,643,643,643,640,625,609,582,562,544,529,511,443,401,368,331,307,267,256,246,243,241,230,220,196,177,163,131,102,60],"timestamp_mouse":[10,41,47,67,88,106,127,148,166,186,207,227,248,266,287,308,327,348,367,388,406,428,447,468,488,507,526,547,568,587,607,628,648,668,687,707,727,747,768,787,807,828,847,868,888,907,928,946,966,988,1007,1027,1048,1067,1088,1106,1127,1147,1168,1188,1207,1227,1247,1266,1287,1306,1327,1347,1368,1387,1407,1427,1447,1467,1487,1507,1527,1547,1567,1586,1607],"xSR":741.5,"ySR":573.95,"xT1":424.9,"yT1":0,"xT2":1058.1,"yT2":0,"toosoon":0,"cond_shown":"Congruent","ratio_trial":300,"L_num":1,"L_den":30,"R_num":8,"R_den":24,"correct_side":2,"subjID":"yeshuaalejandrtopachon5","gender":"0","school":"4","age":"9"},{"start_time":1552073590859,"click_time":1552073593099,"finger_time":1552073592258,"fix_duration":639.6803207740803,"trial":47,"RT":1399,"MT":841,"sideResp":2,"stimulus":[],"xmouse":[816,816,816,816,816,816,816,816,816,816,816,816,816,816,816,816,816,816,816,816,816,816,816,816,816,816,816,816,816,816,816,816,816,816,816,816,816,816,816,816,816,816,816,816,816,816,816,816,816,816,816,816,816,816,816,816,816,816,816,816,816,816,816,816,816,816,816,823,837,853,871,924,954,966,979,995,1019,1035,1044,1051,1058,1072,1072,1072,1072,1072,1072,1072,1072,1072,1072,1072,1072,1072,1072,1072,1072,1072,1072,1072,1072,1072,1072,1072,1072,1072,1072,1072,1072,1072,1072,1076],"ymouse":[625,625,625,625,625,625,625,625,625,625,625,625,625,625,625,625,625,625,625,625,625,625,625,625,625,625,625,625,625,625,625,625,625,625,625,625,625,625,625,625,625,625,625,625,625,625,625,625,625,625,625,625,625,625,625,625,625,625,625,625,625,625,625,625,625,625,625,619,609,595,576,479,406,360,308,244,107,55,24,3,0,0,0,0,0,0,0,0,0,0,0,0,0,0,0,0,0,0,0,0,0,0,0,0,0,0,0,0,0,0,0,3],"timestamp_mouse":[21,39,59,79,99,120,139,159,179,198,219,239,260,278,300,319,339,360,380,400,420,440,458,479,500,520,540,559,579,600,620,639,658,680,699,719,740,758,779,799,820,839,859,880,899,919,938,960,979,1000,1019,1039,1058,1080,1099,1120,1140,1159,1178,1200,1219,1239,1258,1280,1300,1320,1340,1359,1379,1399,1419,1439,1459,1479,1500,1519,1538,1558,1579,1599,1619,1638,1658,1679,1699,1720,1739,1759,1780,1800,1820,1839,1859,1878,1899,1920,1939,1958,1978,1999,2019,2039,2059,2078,2099,2119,2139,2159,2179,2199,2219,2240],"xSR":741.5,"ySR":573.95,"xT1":424.9,"yT1":0,"xT2":1058.1,"yT2":0,"toosoon":0,"cond_shown":"Congruent","ratio_trial":100,"L_num":2,"L_den":5,"R_num":11,"R_den":22,"correct_side":2,"subjID":"yeshuaalejandrtopachon5","gender":"0","school":"4","age":"9"},{"start_time":1552073595566,"click_time":1552073596958,"finger_time":1552073596778,"fix_duration":1407.3418932640714,"trial":48,"RT":1212,"MT":180,"sideResp":2,"stimulus":[],"xmouse":[815,815,815,815,815,815,815,815,815,815,815,815,815,815,815,815,815,815,815,815,815,815,815,815,815,815,815,815,815,815,815,815,815,815,815,815,815,815,815,815,815,815,815,815,815,815,815,815,815,815,815,815,817,821,824,826,826,830,833,838,845,872,899,929,961,995,1011,1049,1072,1092],"ymouse":[627,627,627,627,627,627,627,627,627,627,627,627,627,627,627,627,627,627,627,627,627,627,627,627,627,627,627,627,627,627,627,627,627,627,627,627,627,627,627,627,627,627,627,627,627,627,627,627,627,627,627,626,624,620,616,613,611,606,602,596,582,535,497,450,404,336,289,178,122,67],"timestamp_mouse":[12,41,52,71,93,113,133,153,172,193,212,232,253,273,293,312,333,353,373,393,412,432,452,472,493,512,532,552,571,593,613,632,652,672,693,712,733,753,773,792,812,833,852,873,892,913,933,952,971,993,1011,1033,1051,1073,1092,1112,1132,1152,1172,1193,1212,1233,1252,1272,1293,1312,1332,1352,1372,1392],"xSR":741.5,"ySR":573.95,"xT1":424.9,"yT1":0,"xT2":1058.1,"yT2":0,"toosoon":0,"cond_shown":"Incongruent","ratio_trial":200,"L_num":7,"L_den":10,"R_num":14,"R_den":28,"correct_side":1,"subjID":"yeshuaalejandrtopachon5","gender":"0","school":"4","age":"9"},{"start_time":1552073598675,"click_time":1552073599818,"finger_time":1552073599318,"fix_duration":675.6856318029071,"trial":49,"RT":643,"MT":500,"sideResp":1,"stimulus":[],"xmouse":[784,784,784,784,784,784,784,784,784,784,784,784,784,784,784,784,784,784,784,784,784,784,784,784,784,784,784,784,784,784,784,784,769,760,749,740,730,702,672,656,642,638,615,606,595,589,584,568,559,559,559,559,553,549,545,540,531,517],"ymouse":[604,604,604,604,604,604,604,604,604,604,604,604,604,604,604,604,604,604,604,604,604,604,604,604,604,604,604,604,604,604,596,576,543,526,508,487,462,401,334,289,259,251,207,189,174,166,160,152,149,149,149,149,147,145,143,139,121,98],"timestamp_mouse":[12,26,43,64,83,102,123,143,163,183,203,224,242,262,283,302,323,343,364,384,404,422,443,463,483,502,523,544,562,584,604,623,643,663,683,703,724,742,764,782,803,822,843,862,883,903,924,942,964,983,1003,10