[{"start_time":1552313769203,"click_time":1552313771203,"finger_time":1552313770242,"fix_duration":1473.3507916703286,"trial":0,"RT":1039,"MT":961,"sideResp":1,"stimulus":"img/900/equaldotsize/L/8_Ratio_900_L_20_R_18.png","xmouse":[799,799,799,799,799,799,799,799,799,799,799,799,799,799,799,799,799,799,799,799,799,799,799,799,799,799,799,799,799,799,799,799,799,799,799,799,799,799,799,799,799,799,799,799,799,799,799,801,801,801,803,804,799,787,775,764,754,741,740,740,743,750,750,757,765,777,813,827,835,845,848,849,849,849,849,848,843,809,772,724,673,632,573,563,558,554,549,531,520,508,498,495,491,487,483,478,478,484,491,495,496],"ymouse":[568,568,568,568,568,568,568,568,568,568,568,568,568,568,568,568,568,568,568,568,568,568,568,568,568,568,568,568,568,568,568,568,568,568,568,568,568,568,568,568,568,568,568,568,568,567,552,534,521,509,497,481,442,395,352,299,263,226,214,205,198,188,188,186,182,176,161,156,151,143,140,137,133,133,133,132,136,165,186,211,236,253,268,269,269,269,269,266,261,253,245,239,218,199,184,166,155,132,115,103,90],"timestamp_mouse":[9,20,41,59,80,100,121,140,161,179,199,220,240,260,280,299,319,340,359,379,400,419,441,459,480,500,519,539,559,579,601,619,639,659,680,699,719,740,760,779,800,821,840,860,880,899,920,939,961,981,1000,1019,1039,1060,1081,1099,1119,1139,1160,1179,1200,1221,1239,1260,1279,1300,1321,1339,1359,1379,1400,1420,1439,1459,1479,1500,1519,1539,1560,1579,1600,1619,1639,1660,1679,1699,1720,1739,1760,1781,1800,1819,1839,1860,1879,1899,1920,1939,1959,1980,1999],"xSR":741.5,"ySR":501.8,"xT1":424.9,"yT1":0,"xT2":1058.1,"yT2":0,"toosoon":0,"cond_shown":"equaldotsize","ratio_trial":900,"smaller_num":"18","larger_num":"20","correct_side":1,"subjID":"sarahcruzperreira24","gender":"1","age":"9","school":"4","test":{"fix_dur":[250,1500],"timestim":300,"targets_dim":[100,100],"targets_relative_coord":[0.3,0.7],"size_stim":[880,420],"start_dim":[100,100],"size_start":[300,300],"size_fix":60,"samplingrate":20,"img_types":["equaldotsize","equaldotanddens","randomdotsizeEA"],"ratios":[250,500,750,900],"rep_conds":9,"nTrials":120,"trials_to_rest":500,"Trials_order":[21,91,73,7,79,11,13,47,15,86,6,96,0,23,17,93,82,90,34,16,69,20,119,58,53,113,55,111,64,66,14,59,37,117,33,25,62,51,94,116,102,114,2,49,44,81,92,10,46,83,39,100,112,118,101,18,35,60,22,28,61,89,74,12,98,43,52,40,65,8,80,56,30,85,95,72,54,84,97,27,42,76,3,26,75,1,57,48,32,109,41,29,19,78,105,87,103,71,45,99,50,70,5,88,4,77,9,110,115,108,63,36,67,107,106,31,104,24,68,38],"cond_shown":["equaldotsize","equaldotanddens","equaldotanddens","equaldotanddens","equaldotanddens","randomdotsizeEA","equaldotanddens","randomdotsizeEA","equaldotsize","randomdotsizeEA","equaldotsize","equaldotsize","equaldotsize","randomdotsizeEA","randomdotsizeEA","equaldotsize","equaldotanddens","equaldotsize","equaldotanddens","equaldotanddens","equaldotsize","randomdotsizeEA","randomdotsizeEA","equaldotanddens","randomdotsizeEA","randomdotsizeEA","equaldotanddens","equaldotsize","equaldotanddens","equaldotsize","randomdotsizeEA","randomdotsizeEA","equaldotanddens","equaldotsize","equaldotsize","equaldotanddens","randomdotsizeEA","equaldotsize","equaldotanddens","randomdotsizeEA","equaldotsize","equaldotsize","randomdotsizeEA","equaldotanddens","randomdotsizeEA","equaldotsize","randomdotsizeEA","equaldotanddens","equaldotanddens","randomdotsizeEA","equaldotsize","equaldotanddens","equaldotanddens","equaldotanddens","randomdotsizeEA","equaldotsize","randomdotsizeEA","equaldotsize","equaldotanddens","equaldotanddens","equaldotanddens","randomdotsizeEA","randomdotsizeEA","equaldotsize","randomdotsizeEA","equaldotanddens","equaldotanddens","equaldotanddens","randomdotsizeEA","randomdotsizeEA","randomdotsizeEA","randomdotsizeEA","equaldotsize","equaldotanddens","randomdotsizeEA","equaldotsize","equaldotsize","equaldotsize","equaldotanddens","equaldotsize","equaldotsize","equaldotanddens","equaldotsize","randomdotsizeEA","equaldotsize","equaldotanddens","equaldotsize","equaldotsize","randomdotsizeEA","equaldotanddens","randomdotsizeEA","randomdotsizeEA","equaldotanddens","equaldotsize","equaldotsize","equaldotsize","equaldotanddens","randomdotsizeEA","equaldotsize","equaldotsize","randomdotsizeEA","equaldotanddens","randomdotsizeEA","equaldotanddens","equaldotanddens","randomdotsizeEA","equaldotsize","randomdotsizeEA","equaldotanddens","equaldotsize","equaldotsize","equaldotsize","equaldotanddens","randomdotsizeEA","equaldotanddens","equaldotanddens","randomdotsizeEA","equaldotsize","randomdotsizeEA","randomdotsizeEA"],"ratio_trial":[900,750,250,750,750,900,250,900,500,250,750,250,250,900,500,900,900,750,900,500,900,750,900,900,500,500,750,500,500,750,250,900,250,900,900,250,250,500,900,750,750,750,250,250,750,900,750,900,900,900,500,500,500,900,500,750,900,250,900,500,250,500,250,250,250,750,500,500,500,750,750,750,750,250,900,250,750,250,250,500,750,500,500,250,500,250,900,250,750,250,500,500,750,750,900,500,750,900,900,500,250,900,500,500,500,500,900,250,750,250,500,250,750,900,900,750,750,250,750,250],"smaller_num":["18","6","4","3","3","18","2","9","6","3","12","6","4","18","3","9","18","3","9","10","18","15","18","18","9","10","6","9","4","15","2","9","3","9","18","3","3","2","9","15","3","3","4","4","6","9","15","18","18","9","9","6","2","18","3","6","9","4","18","5","4","9","3","2","6","3","2","5","6","3","12","9","18","3","9","3","3","3","3","2","6","6","2","6","9","4","18","3","3","6","6","9","3","3","18","2","15","9","18","9","2","18","2","2","1","9","18","6","3","4","2","3","12","18","18","6","3","2","6","3"],"larger_num":["20","8","16","4","4","20","8","10","12","12","16","24","16","20","6","10","20","4","10","20","20","20","20","20","18","20","8","18","8","20","8","10","12","10","20","12","12","4","10","20","4","4","16","16","8","10","20","20","20","10","18","12","4","20","6","8","10","16","20","10","16","18","12","8","24","4","4","10","12","4","16","12","24","12","10","12","4","12","12","4","8","12","4","24","18","16","20","12","4","24","12","18","4","4","20","4","20","10","20","18","8","20","4","4","2","18","20","24","4","16","4","12","16","20","20","8","4","8","8","12"],"correct_side":[1,1,1,1,2,1,1,2,1,2,2,2,1,1,2,1,1,1,2,2,1,2,1,1,2,2,2,1,1,2,1,1,1,1,2,1,2,1,2,1,1,1,2,1,1,1,1,1,2,1,2,1,1,1,2,1,2,1,1,2,1,2,1,1,2,1,1,1,1,2,2,2,1,2,2,1,2,1,1,1,2,1,1,2,1,2,1,2,2,1,1,2,1,2,2,1,2,2,2,2,2,1,1,2,2,2,2,2,1,1,1,1,2,1,1,1,2,1,1,1],"img_shown":["img/900/equaldotsize/L/8_Ratio_900_L_20_R_18.png","img/750/equaldotanddens/L/13_Ratio_750_L_8_R_6.png","img/250/equaldotanddens/L/2_Ratio_250_L_16_R_4.png","img/750/equaldotanddens/L/9_Ratio_750_L_4_R_3.png","img/750/equaldotanddens/R/7_Ratio_750_L_3_R_4.png","img/900/randomdotsizeEA/L/10_Ratio_900_L_20_R_18.png","img/250/equaldotanddens/L/3_Ratio_250_L_8_R_2.png","img/900/randomdotsizeEA/R/3_Ratio_900_L_9_R_10.png","img/500/equaldotsize/L/13_Ratio_500_L_12_R_6.png","img/250/randomdotsizeEA/R/4_Ratio_250_L_3_R_12.png","img/750/equaldotsize/R/11_Ratio_750_L_12_R_16.png","img/250/equaldotsize/R/6_Ratio_250_L_6_R_24.png","img/250/equaldotsize/L/2_Ratio_250_L_16_R_4.png","img/900/randomdotsizeEA/L/10_Ratio_900_L_20_R_18.png","img/500/randomdotsizeEA/R/2_Ratio_500_L_3_R_6.png","img/900/equaldotsize/L/1_Ratio_900_L_10_R_9.png","img/900/equaldotanddens/L/8_Ratio_900_L_20_R_18.png","img/750/equaldotsize/L/10_Ratio_750_L_4_R_3.png","img/900/equaldotanddens/R/15_Ratio_900_L_9_R_10.png","img/500/equaldotanddens/R/3_Ratio_500_L_10_R_20.png","img/900/equaldotsize/L/4_Ratio_900_L_20_R_18.png","img/750/randomdotsizeEA/R/5_Ratio_750_L_15_R_20.png","img/900/randomdotsizeEA/L/4_Ratio_900_L_20_R_18.png","img/900/equaldotanddens/L/2_Ratio_900_L_20_R_18.png","img/500/randomdotsizeEA/R/1_Ratio_500_L_9_R_18.png","img/500/randomdotsizeEA/R/3_Ratio_500_L_10_R_20.png","img/750/equaldotanddens/R/2_Ratio_750_L_6_R_8.png","img/500/equaldotsize/L/4_Ratio_500_L_18_R_9.png","img/500/equaldotanddens/L/8_Ratio_500_L_8_R_4.png","img/750/equaldotsize/R/5_Ratio_750_L_15_R_20.png","img/250/randomdotsizeEA/L/7_Ratio_250_L_8_R_2.png","img/900/randomdotsizeEA/L/1_Ratio_900_L_10_R_9.png","img/250/equaldotanddens/L/14_Ratio_250_L_12_R_3.png","img/900/equaldotsize/L/1_Ratio_900_L_10_R_9.png","img/900/equaldotsize/R/13_Ratio_900_L_18_R_20.png","img/250/equaldotanddens/L/15_Ratio_250_L_12_R_3.png","img/250/randomdotsizeEA/R/11_Ratio_250_L_3_R_12.png","img/500/equaldotsize/L/5_Ratio_500_L_4_R_2.png","img/900/equaldotanddens/R/6_Ratio_900_L_9_R_10.png","img/750/randomdotsizeEA/L/1_Ratio_750_L_20_R_15.png","img/750/equaldotsize/L/9_Ratio_750_L_4_R_3.png","img/750/equaldotsize/L/10_Ratio_750_L_4_R_3.png","img/250/randomdotsizeEA/R/10_Ratio_250_L_4_R_16.png","img/250/equaldotanddens/L/2_Ratio_250_L_16_R_4.png","img/750/randomdotsizeEA/L/13_Ratio_750_L_8_R_6.png","img/900/equaldotsize/L/1_Ratio_900_L_10_R_9.png","img/750/randomdotsizeEA/L/1_Ratio_750_L_20_R_15.png","img/900/equaldotanddens/L/2_Ratio_900_L_20_R_18.png","img/900/equaldotanddens/R/14_Ratio_900_L_18_R_20.png","img/900/randomdotsizeEA/L/1_Ratio_900_L_10_R_9.png","img/500/equaldotsize/R/6_Ratio_500_L_9_R_18.png","img/500/equaldotanddens/L/11_Ratio_500_L_12_R_6.png","img/500/equaldotanddens/L/5_Ratio_500_L_4_R_2.png","img/900/equaldotanddens/L/8_Ratio_900_L_20_R_18.png","img/500/randomdotsizeEA/R/2_Ratio_500_L_3_R_6.png","img/750/equaldotsize/L/14_Ratio_750_L_8_R_6.png","img/900/randomdotsizeEA/R/15_Ratio_900_L_9_R_10.png","img/250/equaldotsize/L/2_Ratio_250_L_16_R_4.png","img/900/equaldotanddens/L/10_Ratio_900_L_20_R_18.png","img/500/equaldotanddens/R/14_Ratio_500_L_5_R_10.png","img/250/equaldotanddens/L/2_Ratio_250_L_16_R_4.png","img/500/randomdotsizeEA/R/1_Ratio_500_L_9_R_18.png","img/250/randomdotsizeEA/L/14_Ratio_250_L_12_R_3.png","img/250/equaldotsize/L/7_Ratio_250_L_8_R_2.png","img/250/randomdotsizeEA/R/6_Ratio_250_L_6_R_24.png","img/750/equaldotanddens/L/9_Ratio_750_L_4_R_3.png","img/500/equaldotanddens/L/5_Ratio_500_L_4_R_2.png","img/500/equaldotanddens/L/7_Ratio_500_L_10_R_5.png","img/500/randomdotsizeEA/L/11_Ratio_500_L_12_R_6.png","img/750/randomdotsizeEA/R/7_Ratio_750_L_3_R_4.png","img/750/randomdotsizeEA/R/11_Ratio_750_L_12_R_16.png","img/750/randomdotsizeEA/R/15_Ratio_750_L_9_R_12.png","img/750/equaldotsize/L/6_Ratio_750_L_24_R_18.png","img/250/equaldotanddens/R/9_Ratio_250_L_3_R_12.png","img/900/randomdotsizeEA/R/15_Ratio_900_L_9_R_10.png","img/250/equaldotsize/L/15_Ratio_250_L_12_R_3.png","img/750/equaldotsize/R/7_Ratio_750_L_3_R_4.png","img/250/equaldotsize/L/14_Ratio_250_L_12_R_3.png","img/250/equaldotanddens/L/15_Ratio_250_L_12_R_3.png","img/500/equaldotsize/L/5_Ratio_500_L_4_R_2.png","img/750/equaldotsize/R/2_Ratio_750_L_6_R_8.png","img/500/equaldotanddens/L/13_Ratio_500_L_12_R_6.png","img/500/equaldotsize/L/10_Ratio_500_L_4_R_2.png","img/250/randomdotsizeEA/R/6_Ratio_250_L_6_R_24.png","img/500/equaldotsize/L/4_Ratio_500_L_18_R_9.png","img/250/equaldotanddens/R/10_Ratio_250_L_4_R_16.png","img/900/equaldotsize/L/2_Ratio_900_L_20_R_18.png","img/250/equaldotsize/R/11_Ratio_250_L_3_R_12.png","img/750/randomdotsizeEA/R/7_Ratio_750_L_3_R_4.png","img/250/equaldotanddens/L/5_Ratio_250_L_24_R_6.png","img/500/randomdotsizeEA/L/13_Ratio_500_L_12_R_6.png","img/500/randomdotsizeEA/R/1_Ratio_500_L_9_R_18.png","img/750/equaldotanddens/L/9_Ratio_750_L_4_R_3.png","img/750/equaldotsize/R/12_Ratio_750_L_3_R_4.png","img/900/equaldotsize/R/11_Ratio_900_L_18_R_20.png","img/500/equaldotsize/L/10_Ratio_500_L_4_R_2.png","img/750/equaldotanddens/R/3_Ratio_750_L_15_R_20.png","img/900/randomdotsizeEA/R/3_Ratio_900_L_9_R_10.png","img/900/equaldotsize/R/13_Ratio_900_L_18_R_20.png","img/500/equaldotsize/R/6_Ratio_500_L_9_R_18.png","img/250/randomdotsizeEA/R/13_Ratio_250_L_2_R_8.png","img/900/equaldotanddens/L/10_Ratio_900_L_20_R_18.png","img/500/randomdotsizeEA/L/10_Ratio_500_L_4_R_2.png","img/500/equaldotanddens/R/9_Ratio_500_L_2_R_4.png","img/500/equaldotanddens/R/15_Ratio_500_L_1_R_2.png","img/500/randomdotsizeEA/R/1_Ratio_500_L_9_R_18.png","img/900/equaldotsize/R/14_Ratio_900_L_18_R_20.png","img/250/randomdotsizeEA/R/6_Ratio_250_L_6_R_24.png","img/750/equaldotanddens/L/8_Ratio_750_L_4_R_3.png","img/250/equaldotsize/L/2_Ratio_250_L_16_R_4.png","img/500/equaldotsize/L/5_Ratio_500_L_4_R_2.png","img/250/equaldotsize/L/15_Ratio_250_L_12_R_3.png","img/750/equaldotanddens/R/11_Ratio_750_L_12_R_16.png","img/900/randomdotsizeEA/L/2_Ratio_900_L_20_R_18.png","img/900/equaldotanddens/L/10_Ratio_900_L_20_R_18.png","img/750/equaldotanddens/L/14_Ratio_750_L_8_R_6.png","img/750/randomdotsizeEA/R/12_Ratio_750_L_3_R_4.png","img/250/equaldotsize/L/7_Ratio_250_L_8_R_2.png","img/750/randomdotsizeEA/L/13_Ratio_750_L_8_R_6.png","img/250/randomdotsizeEA/L/14_Ratio_250_L_12_R_3.png"],"Rat0":[["12_Ratio_0_L_9_R_0.png","13_Ratio_0_L_6_R_0.png","5_Ratio_0_L_2_R_0.png","6_Ratio_0_L_4_R_0.png","8_Ratio_0_L_6_R_0.png"],["1_Ratio_0_L_0_R_17.png","10_Ratio_0_L_0_R_22.png","11_Ratio_0_L_0_R_1.png","14_Ratio_0_L_0_R_24.png","15_Ratio_0_L_0_R_4.png","2_Ratio_0_L_0_R_5.png","3_Ratio_0_L_0_R_17.png","4_Ratio_0_L_0_R_7.png","7_Ratio_0_L_0_R_19.png","9_Ratio_0_L_0_R_15.png"]],"Rat250":[["1_Ratio_250_L_8_R_2.png","14_Ratio_250_L_12_R_3.png","15_Ratio_250_L_12_R_3.png","2_Ratio_250_L_16_R_4.png","3_Ratio_250_L_8_R_2.png","5_Ratio_250_L_24_R_6.png","7_Ratio_250_L_8_R_2.png"],["10_Ratio_250_L_4_R_16.png","11_Ratio_250_L_3_R_12.png","12_Ratio_250_L_5_R_20.png","13_Ratio_250_L_2_R_8.png","4_Ratio_250_L_3_R_12.png","6_Ratio_250_L_6_R_24.png","8_Ratio_250_L_1_R_4.png","9_Ratio_250_L_3_R_12.png"]],"Rat500":[["10_Ratio_500_L_4_R_2.png","11_Ratio_500_L_12_R_6.png","13_Ratio_500_L_12_R_6.png","4_Ratio_500_L_18_R_9.png","5_Ratio_500_L_4_R_2.png","7_Ratio_500_L_10_R_5.png","8_Ratio_500_L_8_R_4.png"],["1_Ratio_500_L_9_R_18.png","12_Ratio_500_L_1_R_2.png","14_Ratio_500_L_5_R_10.png","15_Ratio_500_L_1_R_2.png","2_Ratio_500_L_3_R_6.png","3_Ratio_500_L_10_R_20.png","6_Ratio_500_L_9_R_18.png","9_Ratio_500_L_2_R_4.png"]],"Rat750":[["1_Ratio_750_L_20_R_15.png","10_Ratio_750_L_4_R_3.png","13_Ratio_750_L_8_R_6.png","14_Ratio_750_L_8_R_6.png","6_Ratio_750_L_24_R_18.png","8_Ratio_750_L_4_R_3.png","9_Ratio_750_L_4_R_3.png"],["11_Ratio_750_L_12_R_16.png","12_Ratio_750_L_3_R_4.png","15_Ratio_750_L_9_R_12.png","2_Ratio_750_L_6_R_8.png","3_Ratio_750_L_15_R_20.png","4_Ratio_750_L_15_R_20.png","5_Ratio_750_L_15_R_20.png","7_Ratio_750_L_3_R_4.png"]],"Rat900":[["1_Ratio_900_L_10_R_9.png","10_Ratio_900_L_20_R_18.png","2_Ratio_900_L_20_R_18.png","4_Ratio_900_L_20_R_18.png","8_Ratio_900_L_20_R_18.png"],["11_Ratio_900_L_18_R_20.png","12_Ratio_900_L_18_R_20.png","13_Ratio_900_L_18_R_20.png","14_Ratio_900_L_18_R_20.png","15_Ratio_900_L_9_R_10.png","3_Ratio_900_L_9_R_10.png","5_Ratio_900_L_9_R_10.png","6_Ratio_900_L_9_R_10.png","7_Ratio_900_L_9_R_10.png","9_Ratio_900_L_18_R_20.png"]],"Rat1000":[["10_Ratio_1000_L_16_R_16.png","11_Ratio_1000_L_6_R_6.png","12_Ratio_1000_L_14_R_14.png","13_Ratio_1000_L_20_R_20.png","15_Ratio_1000_L_15_R_15.png","2_Ratio_1000_L_17_R_17.png","4_Ratio_1000_L_9_R_9.png","5_Ratio_1000_L_6_R_6.png","6_Ratio_1000_L_19_R_19.png","8_Ratio_1000_L_14_R_14.png","9_Ratio_1000_L_25_R_25.png"],["1_Ratio_1000_L_1_R_1.png","14_Ratio_1000_L_17_R_17.png","3_Ratio_1000_L_17_R_17.png","7_Ratio_1000_L_6_R_6.png"]]}},{"start_time":1552313774964,"click_time":1552313776683,"finger_time":1552313775422,"fix_duration":1078.1176028976506,"trial":1,"RT":458,"MT":1261,"sideResp":1,"stimulus":"img/750/equaldotanddens/L/13_Ratio_750_L_8_R_6.png","xmouse":[792,792,792,792,792,792,792,792,792,792,792,792,792,792,794,794,794,794,795,796,796,798,801,809,815,818,821,823,825,825,827,828,832,856,869,883,897,907,913,915,916,916,916,916,916,916,916,916,916,916,916,916,916,916,916,916,915,912,885,862,838,804,784,767,742,735,728,722,712,704,695,663,641,621,576,563,557,556,556,556,556,554,550,545,526,507],"ymouse":[544,544,544,544,544,544,544,544,544,544,544,538,534,516,512,510,508,505,499,493,487,479,461,425,408,394,385,381,377,375,374,369,360,299,256,209,167,144,131,125,125,125,124,122,122,122,122,122,122,122,122,122,122,122,122,121,118,116,112,108,107,107,107,107,104,104,104,104,104,103,99,91,85,82,79,79,79,80,80,80,80,80,82,83,83,82],"timestamp_mouse":[18,42,58,78,100,118,139,159,178,199,218,238,259,278,298,319,338,359,379,398,419,438,458,479,498,518,539,559,579,599,619,638,658,679,699,718,739,758,779,798,819,838,859,879,899,918,939,959,979,999,1020,1038,1058,1079,1100,1119,1138,1159,1178,1198,1218,1238,1258,1279,1299,1318,1339,1359,1379,1398,1418,1438,1459,1479,1499,1518,1539,1558,1579,1599,1619,1638,1659,1678,1699,1718],"xSR":741.5,"ySR":469.95,"xT1":424.9,"yT1":0,"xT2":1058.1,"yT2":0,"toosoon":0,"cond_shown":"equaldotanddens","ratio_trial":750,"smaller_num":"6","larger_num":"8","correct_side":1,"subjID":"sarahcruzperreira24","gender":"1","age":"9","school":"4"},{"start_time":1552313777936,"click_time":1552313778843,"finger_time":1552313778582,"fix_duration":250,"trial":2,"RT":646,"MT":261,"sideResp":1,"stimulus":"img/250/equaldotanddens/L/2_Ratio_250_L_16_R_4.png","xmouse":[800,800,800,800,799,798,796,795,794,793,792,791,790,790,788,788,788,788,788,788,788,788,788,788,788,788,788,788,788,787,786,779,752,713,663,616,550,537,532,532,532,532,532,530,529,524],"ymouse":[501,501,501,501,501,501,501,502,503,504,504,507,509,510,512,512,512,513,513,513,513,513,513,513,513,513,513,513,513,513,511,489,416,327,224,149,58,40,33,33,33,33,33,33,33,34],"timestamp_mouse":[9,34,46,67,87,107,126,147,166,188,206,226,246,267,288,307,327,347,366,388,407,427,447,467,487,506,527,546,567,586,606,626,646,667,687,707,727,747,766,787,806,826,846,867,886,907],"xSR":741.5,"ySR":469.95,"xT1":424.9,"yT1":0,"xT2":1058.1,"yT2":0,"toosoon":0,"cond_shown":"equaldotanddens","ratio_trial":250,"smaller_num":"4","larger_num":"16","correct_side":1,"subjID":"sarahcruzperreira24","gender":"1","age":"9","school":"4"},{"start_time":1552313779935,"click_time":1552313781102,"finger_time":1552313780723,"fix_duration":250,"trial":3,"RT":788,"MT":379,"sideResp":2,"stimulus":"img/750/equaldotanddens/L/9_Ratio_750_L_4_R_3.png","xmouse":[832,836,836,836,836,836,836,836,836,836,836,836,836,835,835,834,832,831,830,830,830,830,830,830,828,827,824,823,821,821,821,821,821,821,821,821,821,827,833,842,855,881,897,915,928,942,982,1010,1041,1063,1078,1084,1084,1084,1084,1084,1084,1084,1084],"ymouse":[496,497,497,497,497,497,497,497,497,497,497,497,498,498,498,498,498,499,499,499,499,499,499,499,499,499,499,499,499,499,499,499,499,499,499,499,499,485,474,452,417,325,285,256,237,221,191,170,148,128,115,105,105,104,104,103,101,100,98],"timestamp_mouse":[10,27,48,67,88,107,129,148,168,187,207,228,248,268,288,307,327,349,367,388,408,429,448,468,487,507,527,548,569,589,607,628,647,669,687,707,728,747,767,788,809,828,847,867,888,908,927,947,968,987,1009,1027,1048,1067,1088,1107,1127,1148,1167],"xSR":741.5,"ySR":469.95,"xT1":424.9,"yT1":0,"xT2":1058.1,"yT2":0,"toosoon":0,"cond_shown":"equaldotanddens","ratio_trial":750,"smaller_num":"3","larger_num":"4","correct_side":1,"subjID":"sarahcruzperreira24","gender":"1","age":"9","school":"4"},{"start_time":1552313792333,"click_time":1552313793464,"finger_time":1552313792642,"fix_duration":250,"trial":4,"RT":309,"MT":822,"sideResp":2,"stimulus":"img/750/equaldotanddens/R/7_Ratio_750_L_3_R_4.png","xmouse":[787,787,787,787,785,784,784,784,784,783,781,775,764,759,752,740,735,701,688,676,664,653,647,642,639,639,633,631,630,630,630,630,641,652,665,682,716,776,794,801,806,809,819,825,831,841,860,880,936,980,1035,1066,1102,1132,1140,1142,1146],"ymouse":[512,512,512,509,506,504,502,501,501,500,499,497,492,489,484,472,466,433,421,413,406,401,399,397,393,393,386,384,382,382,382,382,378,375,369,358,338,293,277,259,243,234,223,220,219,217,214,213,210,202,193,182,165,136,110,102,72],"timestamp_mouse":[10,41,51,69,89,109,129,149,170,189,209,230,249,271,290,309,330,351,369,390,411,430,449,470,490,510,530,549,570,589,609,629,650,669,689,710,730,750,769,789,810,830,849,869,889,909,930,949,970,989,1010,1029,1049,1070,1089,1110,1130],"xSR":741.5,"ySR":469.95,"xT1":424.9,"yT1":0,"xT2":1058.1,"yT2":0,"toosoon":0,"cond_shown":"equaldotanddens","ratio_trial":750,"smaller_num":"3","larger_num":"4","correct_side":2,"subjID":"sarahcruzperreira24","gender":"1","age":"9","school":"4"},{"start_time":1552313801907,"click_time":1552313803124,"finger_time":1552313802303,"fix_duration":1363.1044204067055,"trial":5,"RT":396,"MT":821,"sideResp":2,"stimulus":"img/900/randomdotsizeEA/L/10_Ratio_900_L_20_R_18.png","xmouse":[802,802,802,802,802,802,802,802,802,802,802,802,802,802,802,802,802,802,802,801,794,788,786,785,784,784,784,784,784,784,784,784,784,784,784,784,784,784,784,794,855,927,968,998,1017,1040,1045,1049,1052,1054,1054,1054,1054,1054,1054,1054,1054,1054,1056,1056,1061],"ymouse":[492,492,492,492,492,492,492,492,492,492,492,492,492,492,492,492,489,487,479,465,414,370,349,337,329,328,328,328,328,328,328,328,328,328,328,328,328,328,327,323,295,254,227,200,175,137,125,114,106,101,100,100,100,100,100,100,100,100,98,98,92],"timestamp_mouse":[21,45,56,76,95,116,136,155,175,196,217,235,255,275,296,317,336,357,375,396,416,435,455,477,497,515,536,557,576,597,616,636,657,676,696,715,736,755,776,795,817,835,856,875,895,915,935,956,977,996,1016,1037,1057,1076,1095,1116,1135,1155,1175,1196,1217],"xSR":741.5,"ySR":469.95,"xT1":424.9,"yT1":0,"xT2":1058.1,"yT2":0,"toosoon":0,"cond_shown":"randomdotsizeEA","ratio_trial":900,"smaller_num":"18","larger_num":"20","correct_side":1,"subjID":"sarahcruzperreira24","gender":"1","age":"9","school":"4"},{"start_time":1552313806313,"click_time":1552313807523,"finger_time":1552313806923,"fix_duration":827.0072822211863,"trial":6,"RT":610,"MT":600,"sideResp":1,"stimulus":"img/250/equaldotanddens/L/3_Ratio_250_L_8_R_2.png","xmouse":[782,782,782,782,782,782,782,782,782,782,782,782,782,782,782,782,782,782,782,782,782,782,782,782,782,782,782,782,779,777,742,710,664,611,557,441,386,345,327,320,315,315,315,315,315,316,322,333,349,367,396,405,414,417,418,418,418,419,419,421,427],"ymouse":[510,510,510,510,510,510,510,510,510,510,510,510,510,510,510,510,510,510,510,510,510,510,510,510,510,510,510,510,506,501,455,421,382,339,302,218,175,141,123,115,102,101,101,100,99,96,93,91,89,87,82,79,78,77,77,77,77,77,76,75,72],"timestamp_mouse":[10,42,51,71,91,110,130,149,170,190,210,231,251,270,289,309,331,351,369,390,410,431,450,469,490,510,529,551,569,590,610,630,649,669,691,710,731,750,769,789,809,830,851,870,890,910,931,949,969,989,1010,1029,1049,1070,1091,1109,1129,1151,1170,1191,1210],"xSR":741.5,"ySR":469.95,"xT1":424.9,"yT1":0,"xT2":1058.1,"yT2":0,"toosoon":0,"cond_shown":"equaldotanddens","ratio_trial":250,"smaller_num":"2","larger_num":"8","correct_side":1,"subjID":"sarahcruzperreira24","gender":"1","age":"9","school":"4"},{"start_time":1552313808999,"click_time":1552313816462,"finger_time":1552313810684,"fix_duration":253.79440308341316,"trial":7,"RT":1685,"MT":5778,"sideResp":1,"stimulus":"img/900/randomdotsizeEA/R/3_Ratio_900_L_9_R_10.png","xmouse":[755,754,753,752,751,749,747,746,745,745,745,745,745,745,745,745,744,744,744,744,744,746,746,746,746,746,747,747,747,747,748,749,749,749,749,749,749,749,749,749,750,751,754,755,756,757,758,758,760,761,762,763,764,765,768,768,768,769,769,771,772,775,776,778,779,780,784,787,789,790,794,801,807,809,812,817,822,823,826,828,829,829,829,831,844,866,973,1025,1081,1137,1137,1137,1137,1137,1137,1137,1137,1137,1137,1137,1137,1137,1137,1137,1137,1137,1137,1137,1137,1137,1137,1137,1137,1137,1137,1137,1137,1137,1137,1137,1137,1137,1137,1137,1137,1137,1137,1137,1137,1137,1137,1137,1137,1137,1137,1137,1137,1137,1137,1137,1137,1137,1137,1137,1137,1137,1137,1137,1137,1137,1137,1137,1137,1137,1137,1137,1137,1137,1137,1137,1137,1137,1137,1137,1137,1137,1137,1137,1137,1137,1137,1137,1137,1137,1137,1137,1137,1137,1137,1137,1137,1137,1137,1137,1137,1137,1137,1137,1137,1137,1137,1137,1137,1137,1137,1137,1137,1137,1137,1137,1137,1137,1137,1137,1137,1137,1199,1106,1061,1032,1008,989,973,972,972,972,971,966,957,947,931,912,871,837,819,805,799,799,799,799,799,799,799,799,799,799,799,799,799,799,799,799,799,799,799,799,795,791,787,784,781,781,781,781,781,781,781,781,781,780,780,780,780,780,780,780,780,780,780,780,780,782,787,790,791,792,792,793,793,793,793,794,794,794,795,795,795,795,796,796,797,798,798,798,798,798,800,800,801,801,803,804,810,813,816,817,820,821,821,821,821,821,821,821,821,821,821,821,821,821,821,820,814,812,811,809,808,808,807,805,804,802,802,802,802,802,802,802,801,801,801,801,800,793,785,775,762,730,714,702,691,682,655,639,621,605,592,573,566,560,554,543,532,528,527,527,527,528,528,528,528,528,528,523],"ymouse":[523,523,523,523,523,523,522,522,522,522,522,522,522,522,522,522,522,523,523,524,526,527,527,527,527,529,529,530,530,530,530,530,530,530,530,530,530,530,530,530,530,530,530,530,530,530,530,529,528,528,528,527,526,526,524,524,524,524,524,523,523,522,521,521,521,521,520,520,520,520,520,525,528,530,533,537,542,542,542,542,543,543,544,547,556,567,617,645,677,710,710,710,710,710,710,710,710,710,710,710,710,710,710,710,710,710,710,710,710,710,710,710,710,710,710,710,710,710,710,710,710,710,710,710,710,710,710,710,710,710,710,710,710,710,710,710,710,710,710,710,710,710,710,710,710,710,710,710,710,710,710,710,710,710,710,710,710,710,710,710,710,710,710,710,710,710,710,710,710,710,710,710,710,710,710,710,710,710,710,710,710,710,710,710,710,710,710,710,710,710,710,710,710,710,710,710,710,710,710,710,710,710,710,710,710,710,695,633,619,613,609,606,606,606,606,606,606,606,607,609,609,609,590,565,551,541,537,537,537,537,537,537,537,537,537,537,537,537,537,537,537,537,537,537,537,537,537,538,539,541,542,542,542,542,542,542,542,542,542,542,542,542,542,542,542,542,541,541,541,540,540,540,539,538,538,538,538,538,537,537,537,537,537,537,537,537,537,537,537,537,536,535,535,535,535,535,534,534,533,532,530,528,521,518,517,516,516,515,515,515,515,515,515,515,515,515,515,515,515,515,515,515,515,516,516,516,516,516,516,516,516,516,516,516,516,516,516,516,515,513,508,499,454,430,404,376,344,292,275,260,248,241,225,217,206,197,186,167,160,150,141,121,81,58,42,36,32,31,31,31,31,31,31,34],"timestamp_mouse":[4,25,47,63,84,105,124,144,163,185,204,224,243,263,283,304,323,343,364,384,403,425,444,465,484,504,524,544,563,583,603,625,645,664,684,703,725,743,764,785,804,824,843,864,883,903,924,945,964,983,1003,1024,1045,1065,1085,1105,1123,1144,1163,1183,1205,1224,1244,1264,1285,1304,1324,1345,1363,1384,1404,1424,1443,1464,1484,1505,1524,1545,1565,1584,1604,1625,1644,1664,1685,1705,1724,1744,1764,1783,1803,1825,1844,1864,1884,1903,1925,1943,1964,1984,2003,2024,2045,2064,2085,2105,2124,2145,2163,2183,2204,2224,2244,2264,2284,2303,2325,2343,2364,2384,2403,2423,2444,2463,2484,2504,2525,2545,2564,2584,2604,2624,2644,2663,2684,2703,2723,2743,2763,2784,2804,2825,2844,2864,2884,2903,2924,2944,2964,2984,3003,3024,3043,3064,3084,3105,3124,3144,3164,3184,3205,3223,3244,3264,3284,3304,3324,3344,3364,3384,3403,3425,3445,3464,3484,3503,3525,3544,3564,3585,3604,3625,3644,3664,3684,3704,3725,3743,3764,3785,3804,3823,3843,3864,3883,3904,3923,3944,3965,3984,4003,4023,4043,4064,4084,4104,4124,4144,4164,4184,4204,4224,4243,4263,4284,4304,4325,4343,4365,4384,4404,4424,4443,4463,4484,4503,4525,4543,4565,4585,4604,4624,4644,4664,4684,4705,4725,4745,4764,4784,4805,4823,4843,4863,4885,4905,4925,4944,4963,4985,5005,5023,5045,5063,5083,5104,5124,5144,5164,5185,5204,5225,5245,5264,5284,5303,5323,5345,5364,5384,5404,5423,5444,5464,5485,5503,5524,5545,5564,5585,5604,5625,5645,5663,5684,5705,5725,5744,5764,5783,5804,5824,5845,5864,5883,5904,5923,5943,5964,5985,6005,6023,6043,6064,6085,6104,6124,6143,6164,6183,6205,6224,6244,6264,6285,6304,6325,6345,6364,6383,6405,6424,6444,6463,6485,6505,6524,6543,6565,6585,6605,6624,6644,6665,6683,6703,6723,6745,6764,6784,6805,6824,6843,6863,6883,6905,6923,6944,6965,6984,7005,7025,7043,7065,7085,7104,7125,7144,7164,7184,7204,7223,7244,7264,7284,7304,7323,7344,7364,7384,7404,7423,7443,7463],"xSR":741.5,"ySR":469.95,"xT1":424.9,"yT1":0,"xT2":1058.1,"yT2":0,"toosoon":0,"cond_shown":"randomdotsizeEA","ratio_trial":900,"smaller_num":"9","larger_num":"10","correct_side":2,"subjID":"sarahcruzperreira24","gender":"1","age":"9","school":"4"},{"start_time":1552313817594,"click_time":1552313819124,"finger_time":1552313818483,"fix_duration":250,"trial":8,"RT":889,"MT":641,"sideResp":1,"stimulus":"img/500/equaldotsize/L/13_Ratio_500_L_12_R_6.png","xmouse":[800,800,800,800,800,800,800,800,800,800,800,800,800,800,801,801,802,803,804,804,805,805,806,806,806,806,806,806,807,807,807,807,807,807,808,808,808,811,814,817,818,820,819,815,807,797,783,741,716,691,665,641,604,601,601,601,601,601,601,601,601,601,574,553,548,543,538,535,532,532,532,532,532,532,531,528,524],"ymouse":[521,521,521,521,521,521,521,521,521,521,521,521,522,522,522,522,522,521,520,520,520,520,519,519,519,519,519,519,519,519,519,519,519,519,519,519,519,516,514,511,509,501,487,474,458,439,416,338,293,246,184,122,14,3,3,3,3,3,3,3,3,3,0,28,38,44,50,54,55,55,55,55,55,55,55,55,55],"timestamp_mouse":[13,37,48,68,88,110,129,148,169,189,209,229,249,269,289,310,328,349,368,389,410,429,448,469,489,510,530,548,568,589,608,628,649,668,689,710,728,749,769,789,810,828,848,869,889,908,929,950,968,988,1008,1029,1049,1068,1089,1109,1129,1149,1170,1188,1209,1229,1248,1269,1289,1309,1328,1349,1368,1388,1409,1428,1450,1468,1488,1509,1529],"xSR":741.5,"ySR":469.95,"xT1":424.9,"yT1":0,"xT2":1058.1,"yT2":0,"toosoon":0,"cond_shown":"equaldotsize","ratio_trial":500,"smaller_num":"6","larger_num":"12","correct_side":1,"subjID":"sarahcruzperreira24","gender":"1","age":"9","school":"4"},{"start_time":1552313824235,"click_time":1552313825383,"finger_time":1552313825204,"fix_duration":250,"trial":9,"RT":969,"MT":179,"sideResp":2,"stimulus":"img/250/randomdotsizeEA/R/4_Ratio_250_L_3_R_12.png","xmouse":[832,832,831,831,831,831,831,831,831,831,831,831,831,831,831,831,831,831,831,831,831,831,831,831,831,831,831,831,831,831,831,831,831,831,831,831,831,831,831,831,831,831,831,831,831,831,833,840,846,855,867,902,916,935,961,986,1060,1083],"ymouse":[486,486,489,490,491,493,496,496,496,496,496,496,496,496,496,496,496,496,496,496,496,496,496,496,496,496,496,496,496,496,496,496,496,496,496,496,496,496,496,496,496,496,496,496,496,496,487,471,457,436,407,329,301,267,231,198,111,84],"timestamp_mouse":[8,29,48,68,88,108,128,148,169,189,208,229,249,267,288,308,328,349,369,387,408,428,447,469,489,508,529,549,567,588,609,629,647,667,689,709,729,749,767,788,809,828,847,869,889,908,927,949,969,989,1009,1028,1047,1067,1088,1109,1128,1148],"xSR":741.5,"ySR":469.95,"xT1":424.9,"yT1":0,"xT2":1058.1,"yT2":0,"toosoon":0,"cond_shown":"randomdotsizeEA","ratio_trial":250,"smaller_num":"3","larger_num":"12","correct_side":2,"subjID":"sarahcruzperreira24","gender":"1","age":"9","school":"4"},{"start_time":1552313834299,"click_time":1552313835284,"finger_time":1552313834963,"fix_duration":354.15087527322885,"trial":10,"RT":664,"MT":321,"sideResp":2,"stimulus":"img/750/equaldotsize/R/11_Ratio_750_L_12_R_16.png","xmouse":[774,774,774,774,774,774,774,774,774,774,774,774,774,773,773,773,773,773,773,773,773,773,773,773,773,773,773,773,773,774,775,779,791,810,841,919,944,963,969,973,988,996,1005,1014,1036,1045,1050,1054,1058,1060],"ymouse":[508,507,507,506,506,506,506,506,506,506,506,506,506,506,506,506,506,506,506,506,506,506,505,505,503,503,502,502,502,501,499,494,479,458,429,377,357,339,329,318,272,242,216,197,159,141,125,111,96,92],"timestamp_mouse":[13,40,43,63,84,105,123,143,165,183,204,225,244,265,284,304,324,344,363,384,405,425,445,465,483,508,525,543,564,584,604,625,643,664,684,703,723,743,763,784,804,824,844,864,884,904,923,943,963,984],"xSR":741.5,"ySR":469.95,"xT1":424.9,"yT1":0,"xT2":1058.1,"yT2":0,"toosoon":0,"cond_shown":"equaldotsize","ratio_trial":750,"smaller_num":"12","larger_num":"16","correct_side":2,"subjID":"sarahcruzperreira24","gender":"1","age":"9","school":"4"},{"start_time":1552313845583,"click_time":1552313846563,"finger_time":1552313845943,"fix_duration":478.9492919037396,"trial":11,"RT":360,"MT":620,"sideResp":2,"stimulus":"img/250/equaldotsize/R/6_Ratio_250_L_6_R_24.png","xmouse":[834,834,834,834,834,834,834,834,834,834,834,834,834,834,834,834,834,841,890,951,1007,1052,1054,1054,1054,1054,1054,1054,1054,1054,1054,1054,1053,1051,1048,1048,1048,1048,1048,1052,1055,1058,1059,1061,1064,1072,1081,1105,1116,1131],"ymouse":[556,556,556,556,556,556,556,556,556,556,556,556,556,556,556,556,556,553,530,497,463,415,396,386,383,383,383,383,383,383,382,368,351,331,312,293,276,243,235,223,213,204,201,199,193,182,169,132,113,84],"timestamp_mouse":[1,21,42,60,81,100,120,140,160,180,200,220,240,259,279,300,320,340,360,381,400,420,439,459,481,501,520,539,560,580,599,621,639,660,681,701,721,739,760,781,800,820,839,860,881,900,919,939,960,980],"xSR":741.5,"ySR":469.95,"xT1":424.9,"yT1":0,"xT2":1058.1,"yT2":0,"toosoon":0,"cond_shown":"equaldotsize","ratio_trial":250,"smaller_num":"6","larger_num":"24","correct_side":2,"subjID":"sarahcruzperreira24","gender":"1","age":"9","school":"4"},{"start_time":1552313854532,"click_time":1552313856043,"finger_time":1552313855024,"fix_duration":687.2307043271268,"trial":12,"RT":492,"MT":1019,"sideResp":1,"stimulus":"img/250/equaldotsize/L/2_Ratio_250_L_16_R_4.png","xmouse":[803,803,803,803,803,803,803,803,803,803,803,803,803,803,803,803,803,803,803,803,803,804,807,816,833,838,841,835,823,800,752,738,733,732,731,726,724,719,714,708,692,676,656,635,614,583,576,564,555,549,544,544,544,544,544,543,539,534,530,529,529,529,529,529,532,533,533,533,533,532,529,528,527,527,527,524],"ymouse":[524,524,524,524,524,524,524,524,524,524,524,524,524,524,524,524,524,524,524,524,524,523,517,496,436,398,355,255,182,115,28,9,3,3,2,2,2,4,6,8,10,12,15,18,20,27,30,33,35,38,39,39,39,39,39,39,40,40,40,40,40,40,40,42,43,43,43,43,43,43,43,43,43,43,43,45],"timestamp_mouse":[22,31,58,71,91,111,130,150,172,191,211,232,250,271,291,312,331,350,372,391,412,431,451,472,492,510,530,551,570,592,610,630,650,670,692,710,731,752,771,792,811,831,851,871,892,910,930,951,972,991,1011,1031,1051,1070,1092,1110,1130,1150,1171,1192,1211,1231,1252,1271,1292,1310,1330,1351,1370,1392,1410,1431,1451,1471,1491,1511],"xSR":741.5,"ySR":469.95,"xT1":424.9,"yT1":0,"xT2":1058.1,"yT2":0,"toosoon":0,"cond_shown":"equaldotsize","ratio_trial":250,"smaller_num":"4","larger_num":"16","correct_side":1,"subjID":"sarahcruzperreira24","gender":"1","age":"9","school":"4"},{"start_time":1552313879114,"click_time":1552313880584,"finger_time":1552313879803,"fix_duration":1309.54763936683,"trial":13,"RT":689,"MT":781,"sideResp":2,"stimulus":"img/900/randomdotsizeEA/L/10_Ratio_900_L_20_R_18.png","xmouse":[744,744,744,749,750,750,750,750,751,752,754,755,757,758,758,758,759,761,761,761,761,761,762,763,765,766,767,770,774,777,779,784,790,809,821,837,857,889,933,939,939,933,923,923,923,923,923,923,925,937,953,973,995,1048,1066,1080,1088,1102,1112,1122,1123,1126,1126,1127,1127,1127,1127,1127,1127,1127,1127,1127,1127,1127],"ymouse":[511,511,511,513,513,513,513,513,514,514,514,514,514,514,514,514,514,513,509,508,507,505,505,505,504,504,504,504,502,502,501,500,496,477,466,447,423,351,199,148,120,96,71,56,56,55,55,55,55,66,83,107,132,175,184,187,187,184,178,157,142,129,125,123,123,123,123,123,123,123,122,118,110,98],"timestamp_mouse":[13,36,49,68,89,108,130,149,169,190,209,229,250,268,289,310,330,349,368,389,410,429,449,469,489,510,528,548,568,590,609,628,650,669,689,708,728,749,770,789,809,828,849,870,888,909,928,950,969,988,1008,1029,1049,1069,1089,1109,1128,1149,1170,1189,1208,1229,1250,1270,1290,1310,1330,1348,1369,1388,1408,1429,1449,1470],"xSR":741.5,"ySR":469.95,"xT1":424.9,"yT1":0,"xT2":1058.1,"yT2":0,"toosoon":0,"cond_shown":"randomdotsizeEA","ratio_trial":900,"smaller_num":"18","larger_num":"20","correct_side":1,"subjID":"sarahcruzperreira24","gender":"1","age":"9","school":"4"},{"start_time":1552313912158,"click_time":1552313932582,"finger_time":1552313912363,"fix_duration":1074.3049156898176,"trial":14,"RT":205,"MT":20219,"sideResp":2,"stimulus":"img/500/randomdotsizeEA/R/2_Ratio_500_L_3_R_6.png","xmouse":[807,807,807,807,807,807,807,807,807,807,805,803,802,801,801,800,800,800,800,800,799,799,798,798,798,798,796,795,795,792,787,785,783,782,781,781,781,780,780,779,775,775,774,774,772,771,771,771,771,771,771,773,775,776,777,778,778,779,784,788,793,793,793,793,794,794,794,794,794,794,794,794,794,794,794,794,794,794,794,794,794,794,794,794,794,794,794,794,794,794,794,794,794,794,794,794,794,794,794,794,794,794,794,794,794,794,794,794,794,794,794,794,794,794,794,794,794,794,794,794,794,794,794,794,794,794,794,794,794,794,794,794,794,794,794,794,794,794,794,794,794,794,794,794,794,794,794,794,794,794,794,794,794,794,794,794,794,794,794,794,794,794,794,794,794,794,794,794,794,794,794,794,794,794,794,794,794,794,794,794,794,794,794,794,794,794,794,794,794,794,794,794,794,794,794,794,794,794,794,794,794,794,794,794,794,794,794,794,794,794,794,794,794,794,794,794,794,794,794,794,794,794,794,794,794,794,794,794,794,794,794,794,794,794,794,794,794,794,794,794,794,794,794,794,794,794,794,794,794,794,794,794,794,794,794,794,794,794,794,794,794,794,794,794,794,794,794,794,794,794,794,794,794,794,794,794,794,794,794,794,794,794,794,794,794,794,794,794,794,794,794,794,794,794,794,794,794,794,794,794,794,794,794,794,794,794,794,794,794,794,794,794,794,794,794,794,794,794,794,794,794,794,794,794,794,794,794,794,794,794,794,794,794,794,794,794,794,794,794,794,794,794,794,794,794,794,794,794,794,794,794,794,794,794,794,794,794,794,794,794,794,794,794,794,794,794,794,794,794,794,794,794,794,794,794,794,794,794,794,794,794,794,794,794,794,794,794,794,794,794,794,794,794,794,794,794,794,794,794,794,794,794,794,794,794,794,794,794,794,794,794,794,794,794,794,794,794,794,794,794,794,794,794,794,794,794,794,794,794,794,794,794,794,794,794,794,794,794,794,794,794,794,794,794,794,794,794,794,794,794,794,794,794,794,794,794,794,794,794,794,794,794,794,794,794,794,794,794,794,794,794,794,794,794,794,794,794,794,794,794,794,794,794,794,794,794,794,794,794,794,794,794,794,794,794,794,794,794,794,794,794,794,794,794,794,794,794,794,794,794,794,794,794,794,794,794,794,794,794,794,794,794,794,794,794,794,794,794,794,794,794,794,794,794,794,794,794,794,794,794,794,794,794,794,794,794,794,794,794,794,794,794,794,794,794,794,794,794,794,794,794,794,794,794,794,794,794,794,794,794,794,794,794,794,794,794,794,794,794,794,794,794,794,794,794,794,794,794,794,794,794,794,794,794,794,794,794,794,794,794,794,794,794,794,794,794,794,794,794,794,794,794,794,794,794,794,794,794,794,794,794,794,794,794,794,794,794,794,794,794,794,794,794,794,794,794,794,794,794,794,794,794,794,794,794,794,794,794,794,794,794,794,794,794,794,794,794,794,794,794,794,794,794,794,794,794,794,794,794,794,794,794,794,794,794,794,794,794,794,794,794,794,794,794,794,794,794,794,794,794,794,794,794,794,794,794,794,794,794,794,794,794,794,794,794,794,794,794,794,794,794,794,794,794,794,794,794,794,794,794,794,794,794,794,794,794,794,794,794,794,794,794,794,794,794,794,794,794,794,794,794,794,794,794,794,794,794,794,794,794,794,794,794,794,794,794,794,794,794,794,794,794,794,794,794,794,794,794,794,794,794,794,794,794,794,794,794,794,794,794,794,794,794,794,794,794,794,794,794,794,794,794,794,794,794,794,794,794,794,794,794,794,794,794,794,794,794,794,794,794,794,794,794,794,794,794,794,794,794,794,794,794,794,794,794,794,794,794,794,794,794,794,794,794,794,794,794,794,794,794,794,794,794,794,794,794,794,794,794,794,794,794,794,794,794,794,794,794,794,794,794,794,794,794,794,794,794,794,794,794,794,794,794,794,794,794,794,794,794,794,794,794,794,794,794,794,794,794,794,794,794,794,794,794,794,794,794,794,794,794,794,794,794,794,794,794,794,794,794,794,794,794,794,794,794,794,794,794,794,794,794,794,794,794,794,794,794,794,794,794,794,794,794,794,794,794,794,794,794,794,794,794,794,794,794,794,794,794,794,794,794,794,794,794,794,794,794,794,794,794,794,794,794,794,794,794,794,794,794,794,794,794,794,794,794,794,794,794,794,794,794,794,794,794,794,794,796,805,834,867,901,940,990,990,990,990,990,990,990,990,990,990,990,1201,1205,1205,1205,1205,1204,1202,1198,1194,1191,1191,1190,1188,1184,1173,1167,1166,1162,1158],"ymouse":[485,485,485,485,485,482,481,480,479,475,466,462,457,455,453,452,452,451,450,449,446,445,444,443,442,442,440,439,439,437,434,432,430,430,430,430,430,430,430,430,431,431,432,432,435,439,441,443,447,451,454,461,464,466,467,469,470,471,471,471,470,470,470,470,472,475,475,475,475,475,475,475,475,475,475,475,475,475,475,475,475,475,475,475,475,475,475,475,475,475,475,475,475,475,475,475,475,475,475,475,475,475,475,475,475,475,475,475,475,475,475,475,475,475,475,475,475,475,475,475,475,475,475,475,475,475,475,475,475,475,475,475,475,475,475,475,475,475,475,475,475,475,475,475,475,475,475,475,475,475,475,475,475,475,475,475,475,475,475,475,475,475,475,475,475,475,475,475,475,475,475,475,475,475,475,475,475,475,475,475,475,475,475,475,475,475,475,475,475,475,475,475,475,475,475,475,475,475,475,475,475,475,475,475,475,475,475,475,475,475,475,475,475,475,475,475,475,475,475,475,475,475,475,475,475,475,475,475,475,475,475,475,475,475,475,475,475,475,475,475,475,475,475,475,475,475,475,475,475,475,475,475,475,475,475,475,475,475,475,475,475,475,475,475,475,475,475,475,475,475,475,475,475,475,475,475,475,475,475,475,475,475,475,475,475,475,475,475,475,475,475,475,475,475,475,475,475,475,475,475,475,475,475,475,475,475,475,475,475,475,475,475,475,475,475,475,475,475,475,475,475,475,475,475,475,475,475,475,475,475,475,475,475,475,475,475,475,475,475,475,475,475,475,475,475,475,475,475,475,475,475,475,475,475,475,475,475,475,475,475,475,475,475,475,475,475,475,475,475,475,475,475,475,475,475,475,475,475,475,475,475,475,475,475,475,475,475,475,475,475,475,475,475,475,475,475,475,475,475,475,475,475,475,475,475,475,475,475,475,475,475,475,475,475,475,475,475,475,475,475,475,475,475,475,475,475,475,475,475,475,475,475,475,475,475,475,475,475,475,475,475,475,475,475,475,475,475,475,475,475,475,475,475,475,475,475,475,475,475,475,475,475,475,475,475,475,475,475,475,475,475,475,475,475,475,475,475,475,475,475,475,475,475,475,475,475,475,475,475,475,475,475,475,475,475,475,475,475,475,475,475,475,475,475,475,475,475,475,475,475,475,475,475,475,475,475,475,475,475,475,475,475,475,475,475,475,475,475,475,475,475,475,475,475,475,475,475,475,475,475,475,475,475,475,475,475,475,475,475,475,475,475,475,475,475,475,475,475,475,475,475,475,475,475,475,475,475,475,475,475,475,475,475,475,475,475,475,475,475,475,475,475,475,475,475,475,475,475,475,475,475,475,475,475,475,475,475,475,475,475,475,475,475,475,475,475,475,475,475,475,475,475,475,475,475,475,475,475,475,475,475,475,475,475,475,475,475,475,475,475,475,475,475,475,475,475,475,475,475,475,475,475,475,475,475,475,475,475,475,475,475,475,475,475,475,475,475,475,475,475,475,475,475,475,475,475,475,475,475,475,475,475,475,475,475,475,475,475,475,475,475,475,475,475,475,475,475,475,475,475,475,475,475,475,475,475,475,475,475,475,475,475,475,475,475,475,475,475,475,475,475,475,475,475,475,475,475,475,475,475,475,475,475,475,475,475,475,475,475,475,475,475,475,475,475,475,475,475,475,475,475,475,475,475,475,475,475,475,475,475,475,475,475,475,475,475,475,475,475,475,475,475,475,475,475,475,475,475,475,475,475,475,475,475,475,475,475,475,475,475,475,475,475,475,475,475,475,475,475,475,475,475,475,475,475,475,475,475,475,475,475,475,475,475,475,475,475,475,475,475,475,475,475,475,475,475,475,475,475,475,475,475,475,475,475,475,475,475,475,475,475,475,475,475,475,475,475,475,475,475,475,475,475,475,475,475,475,475,475,475,475,475,475,475,475,475,475,475,475,475,475,475,475,475,475,475,475,475,475,475,475,475,475,475,475,475,475,475,475,475,475,475,475,475,475,475,475,475,475,475,475,475,475,475,475,475,475,475,475,475,475,475,475,475,475,475,475,475,475,475,475,475,475,475,475,475,475,475,475,475,475,475,475,475,475,475,475,475,475,475,475,475,475,475,475,475,475,475,475,475,475,475,475,475,475,475,475,475,475,475,475,475,475,475,475,475,475,475,475,475,475,475,475,475,475,475,475,475,475,475,475,475,475,475,475,475,475,475,475,475,475,475,475,475,475,475,475,453,383,308,225,133,19,19,19,19,19,19,19,19,19,19,19,60,65,65,65,64,61,59,58,58,58,58,58,58,58,58,58,58,59,60],"timestamp_mouse":[10,41,45,66,86,105,126,145,165,184,205,225,244,265,284,306,325,345,366,385,404,424,444,464,485,505,524,545,565,586,605,624,645,664,684,705,724,745,764,786,805,824,844,866,885,904,924,944,965,984,1004,1024,1044,1064,1085,1105,1125,1144,1164,1185,1205,1224,1245,1266,1285,1304,1325,1346,1366,1386,1404,1425,1446,1466,1485,1505,1525,1546,1566,1586,1605,1625,1645,1665,1686,1704,1724,1746,1766,1785,1804,1824,1846,1865,1885,1904,1924,1945,1966,1985,2005,2026,2045,2064,2084,2104,2125,2146,2166,2186,2204,2225,2245,2266,2285,2305,2325,2345,2365,2386,2405,2425,2445,2464,2485,2504,2526,2544,2565,2586,2605,2626,2644,2666,2686,2705,2725,2745,2765,2786,2805,2825,2846,2865,2885,2905,2926,2946,2965,2986,3005,3025,3044,3066,3086,3105,3125,3145,3166,3186,3204,3225,3244,3266,3284,3305,3325,3346,3365,3384,3404,3425,3446,3464,3484,3504,3525,3544,3565,3586,3605,3624,3644,3665,3684,3705,3726,3744,3764,3784,3805,3826,3846,3865,3884,3906,3924,3945,3964,3985,4006,4026,4044,4064,4085,4104,4126,4145,4166,4186,4205,4225,4244,4265,4285,4306,4324,4346,4366,4385,4404,4425,4444,4465,4485,4506,4526,4544,4564,4586,4605,4626,4646,4664,4685,4704,4725,4746,4765,4786,4806,4825,4844,4865,4884,4904,4926,4946,4966,4986,5005,5025,5045,5065,5086,5106,5125,5144,5166,5184,5206,5226,5245,5264,5285,5306,5325,5346,5365,5384,5405,5425,5445,5465,5486,5506,5525,5545,5565,5585,5605,5625,5646,5666,5685,5704,5725,5746,5764,5786,5805,5825,5846,5865,5885,5906,5925,5944,5965,5984,6005,6026,6044,6064,6086,6106,6126,6145,6164,6184,6206,6225,6245,6266,6285,6306,6326,6345,6365,6384,6405,6426,6446,6465,6486,6504,6525,6545,6565,6584,6604,6625,6645,6664,6684,6705,6726,6746,6765,6785,6805,6826,6845,6864,6884,6905,6926,6945,6964,6985,7004,7026,7045,7064,7085,7105,7124,7145,7166,7186,7205,7224,7245,7265,7285,7304,7326,7345,7365,7384,7404,7425,7445,7466,7485,7505,7526,7546,7565,7585,7604,7626,7646,7665,7685,7705,7725,7745,7765,7786,7806,7825,7845,7865,7884,7905,7926,7945,7965,7985,8005,8025,8045,8065,8085,8105,8126,8144,8164,8185,8205,8226,8245,8264,8285,8304,8326,8345,8365,8385,8406,8424,8445,8466,8485,8504,8526,8545,8564,8584,8605,8624,8644,8665,8686,8704,8726,8745,8765,8786,8806,8824,8844,8864,8886,8906,8925,8945,8964,8984,9006,9026,9046,9064,9084,9106,9124,9145,9166,9186,9205,9224,9244,9265,9286,9305,9326,9344,9365,9386,9405,9426,9445,9466,9484,9505,9525,9545,9565,9585,9606,9626,9644,9665,9684,9706,9725,9746,9764,9784,9806,9826,9846,9865,9884,9904,9924,9946,9966,9985,10005,10025,10046,10066,10085,10105,10125,10145,10165,10184,10205,10226,10245,10265,10286,10306,10326,10344,10365,10384,10406,10425,10446,10464,10484,10506,10525,10545,10566,10585,10604,10625,10645,10665,10684,10704,10724,10745,10764,10785,10806,10825,10846,10864,10885,10904,10924,10944,10966,10986,11004,11025,11046,11065,11085,11105,11124,11145,11165,11184,11205,11224,11244,11265,11286,11304,11324,11344,11365,11386,11405,11425,11445,11466,11484,11505,11525,11544,11565,11584,11605,11624,11644,11666,11685,11705,11726,11746,11766,11785,11806,11825,11845,11864,11884,11906,11925,11946,11964,11984,12005,12024,12046,12066,12085,12104,12125,12146,12165,12185,12205,12225,12246,12266,12285,12304,12325,12344,12366,12385,12405,12424,12446,12464,12485,12505,12525,12545,12564,12584,12604,12625,12645,12665,12684,12705,12726,12745,12765,12786,12805,12824,12846,12864,12886,12904,12925,12946,12965,12985,13004,13024,13044,13066,13085,13106,13126,13146,13164,13184,13205,13225,13246,13264,13284,13306,13324,13345,13365,13385,13406,13424,13445,13465,13485,13505,13526,13545,13566,13584,13605,13625,13645,13666,13684,13704,13725,13745,13766,13785,13804,13825,13846,13866,13886,13905,13925,13945,13964,13984,14004,14026,14046,14064,14084,14104,14125,14146,14164,14184,14206,14226,14245,14265,14286,14306,14324,14345,14365,14385,14406,14426,14445,14465,14484,14505,14525,14546,14565,14585,14606,14625,14645,14664,14684,14706,14726,14745,14764,14785,14806,14826,14844,14864,14885,14905,14926,14945,14965,14985,15005,15026,15045,15064,15084,15105,15126,15144,15164,15184,15205,15224,15246,15265,15285,15305,15324,15346,15365,15386,15406,15424,15446,15465,15485,15504,15525,15545,15564,15585,15606,15626,15644,15666,15686,15704,15725,15745,15764,15786,15805,15826,15845,15865,15885,15906,15924,15944,15966,15986,16006,16024,16046,16065,16085,16105,16125,16145,16164,16184,16206,16224,16246,16265,16284,16306,16324,16346,16366,16385,16406,16424,16444,16464,16485,16505,16525,16546,16564,16585,16604,16624,16646,16664,16684,16705,16724,16746,16766,16785,16804,16824,16845,16865,16886,16905,16925,16944,16966,16985,17006,17024,17046,17065,17086,17105,17126,17146,17164,17184,17206,17225,17246,17264,17285,17305,17326,17345,17365,17385,17405,17424,17446,17465,17486,17504,17524,17546,17566,17585,17606,17625,17644,17666,17686,17705,17725,17746,17765,17784,17806,17824,17844,17865,17884,17906,17925,17944,17965,17985,18006,18025,18046,18066,18085,18105,18126,18145,18165,18186,18204,18226,18245,18265,18285,18306,18324,18344,18366,18386,18405,18425,18444,18466,18484,18506,18525,18544,18565,18585,18604,18626,18645,18665,18686,18705,18725,18746,18765,18785,18804,18826,18844,18866,18885,18906,18925,18945,18965,18985,19005,19026,19045,19065,19085,19106,19125,19145,19166,19184,19205,19226,19244,19264,19285,19304,19326,19345,19365,19386,19405,19424,19444,19466,19485,19505,19526,19545,19564,19585,19604,19626,19645,19666,19685,19704,19724,19744,19765,19785,19805,19825,19845,19864,19884,19905,19925,19946,19964,19984,20004,20025,20044,20064,20085,20106,20125,20146,20164,20184,20205,20224,20245,20265,20285,20305,20324,20346,20364,20386,20404,20424],"xSR":741.5,"ySR":469.95,"xT1":424.9,"yT1":0,"xT2":1058.1,"yT2":0,"toosoon":0,"cond_shown":"randomdotsizeEA","ratio_trial":500,"smaller_num":"3","larger_num":"6","correct_side":2,"subjID":"sarahcruzperreira24","gender":"1","age":"9","school":"4"},{"start_time":1552313936863,"click_time":1552313938402,"finger_time":1552313937583,"fix_duration":717.4262516882065,"trial":15,"RT":720,"MT":819,"sideResp":1,"stimulus":"img/900/equaldotsize/L/1_Ratio_900_L_10_R_9.png","xmouse":[790,790,790,790,790,790,790,790,790,790,790,790,790,790,790,790,790,790,790,790,790,790,790,790,790,790,790,790,790,790,790,790,790,795,798,799,798,795,791,791,791,791,790,789,784,780,772,764,748,739,728,718,708,680,673,669,669,669,666,658,643,629,614,582,576,574,573,573,573,573,573,573,573,573,565,552,536,518],"ymouse":[524,524,524,524,524,524,524,524,524,524,524,524,524,524,524,524,524,524,524,524,524,524,524,524,524,524,524,524,524,524,524,524,524,513,494,471,446,424,406,406,406,406,405,388,370,349,328,310,281,265,252,241,231,211,207,205,205,205,202,197,186,178,168,148,143,140,140,139,138,138,138,138,138,138,129,113,90,60],"timestamp_mouse":[1,20,41,60,79,99,120,141,161,180,199,220,241,261,280,299,319,341,361,380,400,420,440,459,479,500,519,540,559,580,601,621,640,660,680,700,720,740,760,780,800,820,841,860,879,899,919,939,960,979,999,1020,1039,1059,1081,1100,1120,1141,1160,1179,1200,1219,1240,1259,1280,1300,1320,1340,1360,1380,1400,1419,1439,1459,1479,1499,1520,1539],"xSR":741.5,"ySR":469.95,"xT1":424.9,"yT1":0,"xT2":1058.1,"yT2":0,"toosoon":0,"cond_shown":"equaldotsize","ratio_trial":900,"smaller_num":"9","larger_num":"10","correct_side":1,"subjID":"sarahcruzperreira24","gender":"1","age":"9","school":"4"},{"start_time":1552313947219,"click_time":1552313948545,"finger_time":1552313947964,"fix_duration":592.7888002684622,"trial":16,"RT":745,"MT":581,"sideResp":1,"stimulus":"img/900/equaldotanddens/L/8_Ratio_900_L_20_R_18.png","xmouse":[799,799,799,799,799,799,799,799,799,799,799,799,799,799,799,799,799,799,799,799,799,799,799,799,799,799,799,799,799,799,799,799,799,800,802,809,834,858,887,914,932,935,935,935,935,935,932,929,923,914,881,844,735,693,660,638,607,598,590,581,563,542,535,530,528,522,499],"ymouse":[551,551,551,551,551,551,551,551,551,551,551,551,551,551,551,551,551,551,551,551,551,551,551,551,551,551,551,551,551,551,551,551,551,551,549,538,494,451,401,349,286,219,206,202,201,201,199,199,195,195,190,189,173,165,154,148,139,137,136,134,132,131,129,127,125,119,96],"timestamp_mouse":[12,42,45,65,86,106,126,146,165,186,205,226,245,266,286,305,325,346,366,386,406,425,446,466,486,506,525,546,566,586,605,624,645,665,686,705,725,745,767,786,805,825,845,865,885,906,925,945,965,986,1005,1025,1045,1066,1086,1105,1125,1145,1166,1186,1206,1226,1245,1265,1286,1306,1325],"xSR":741.5,"ySR":469.95,"xT1":424.9,"yT1":0,"xT2":1058.1,"yT2":0,"toosoon":0,"cond_shown":"equaldotanddens","ratio_trial":900,"smaller_num":"18","larger_num":"20","correct_side":1,"subjID":"sarahcruzperreira24","gender":"1","age":"9","school":"4"},{"start_time":1552313950197,"click_time":1552313952265,"finger_time":1552313950984,"fix_duration":250,"trial":17,"RT":787,"MT":1281,"sideResp":1,"stimulus":"img/750/equaldotsize/L/10_Ratio_750_L_4_R_3.png","xmouse":[792,792,792,792,792,792,792,792,792,792,792,792,792,792,792,792,792,792,792,792,792,792,792,792,792,792,792,792,792,792,792,792,792,792,792,792,793,800,817,836,851,862,867,867,867,867,867,867,867,867,867,867,867,867,867,867,867,861,846,823,810,798,791,778,773,771,768,762,747,741,728,719,709,691,683,674,664,652,637,624,611,597,585,561,545,532,512,486,374,354,351,351,351,351,351,351,351,351,354,364,377,393,411,449],"ymouse":[529,529,529,529,529,529,529,529,529,529,529,529,529,529,529,529,529,529,529,529,529,529,529,529,529,529,529,529,529,529,529,529,529,529,529,529,527,513,476,438,400,378,370,369,369,369,369,369,369,369,369,369,369,369,369,369,369,367,363,356,350,343,337,320,314,312,309,305,295,292,286,282,277,268,264,256,249,240,227,215,203,192,182,163,153,142,123,101,33,18,15,14,13,13,13,13,13,13,14,23,32,41,51,68],"timestamp_mouse":[9,36,47,67,88,107,128,147,168,188,207,228,248,267,288,307,327,348,367,388,407,428,447,468,488,507,527,548,567,587,607,627,648,668,687,708,727,748,768,787,808,828,847,867,887,908,927,948,967,987,1007,1027,1048,1067,1087,1108,1127,1149,1167,1187,1207,1228,1248,1267,1288,1307,1327,1347,1367,1387,1408,1426,1447,1468,1488,1507,1528,1548,1567,1587,1608,1627,1648,1667,1687,1708,1728,1747,1767,1787,1807,1828,1848,1868,1887,1907,1927,1947,1967,1988,2007,2027,2049,2067],"xSR":741.5,"ySR":469.95,"xT1":424.9,"yT1":0,"xT2":1058.1,"yT2":0,"toosoon":0,"cond_shown":"equaldotsize","ratio_trial":750,"smaller_num":"3","larger_num":"4","correct_side":1,"subjID":"sarahcruzperreira24","gender":"1","age":"9","school":"4"},{"start_time":1552313960517,"click_time":1552313961565,"finger_time":1552313960704,"fix_duration":250,"trial":18,"RT":187,"MT":861,"sideResp":2,"stimulus":"img/900/equaldotanddens/R/15_Ratio_900_L_9_R_10.png","xmouse":[810,811,812,816,819,822,826,833,840,843,848,853,868,875,883,886,887,889,893,893,897,914,968,1120,1185,1233,1258,1271,1274,1274,1275,1275,1275,1274,1271,1265,1252,1240,1205,1171,1152,1141,1137,1136,1136,1136,1136,1136,1136,1133,1128,1123,1120],"ymouse":[498,498,498,498,498,498,498,498,498,498,498,498,498,498,498,498,498,498,498,498,498,492,478,447,437,429,425,423,423,423,423,422,420,408,395,373,343,311,243,202,181,169,163,162,162,162,162,162,161,154,142,123,99],"timestamp_mouse":[10,27,47,67,88,107,128,147,167,187,207,227,249,267,289,307,328,348,367,387,409,428,448,467,487,507,527,548,568,587,608,627,648,667,688,708,727,747,767,787,808,828,847,866,888,907,928,948,967,988,1006,1027,1048],"xSR":741.5,"ySR":469.95,"xT1":424.9,"yT1":0,"xT2":1058.1,"yT2":0,"toosoon":0,"cond_shown":"equaldotanddens","ratio_trial":900,"smaller_num":"9","larger_num":"10","correct_side":2,"subjID":"sarahcruzperreira24","gender":"1","age":"9","school":"4"},{"start_time":1552313965735,"click_time":1552313967085,"finger_time":1552313966404,"fix_duration":250,"trial":19,"RT":669,"MT":681,"sideResp":2,"stimulus":"img/500/equaldotanddens/R/3_Ratio_500_L_10_R_20.png","xmouse":[793,793,793,793,793,791,788,779,779,779,779,779,779,779,779,779,779,779,779,779,779,779,779,779,779,779,779,779,779,779,779,778,804,852,982,1093,1196,1296,1299,1299,1299,1299,1299,1299,1299,1300,1297,1277,1171,1096,1025,955,856,833,825,825,825,825,825,824,826,837,857,916,976,1007,1032,1059],"ymouse":[525,525,525,525,525,525,525,522,522,522,522,522,522,522,522,522,522,522,522,522,522,522,522,522,522,522,522,522,522,522,522,521,491,443,335,251,181,142,142,142,142,142,142,142,142,141,139,134,119,114,114,114,114,114,113,113,113,113,113,112,112,110,106,96,81,72,66,55],"timestamp_mouse":[10,41,49,70,89,110,129,149,170,190,209,230,250,269,289,309,329,350,370,389,410,429,449,470,489,511,530,549,570,589,609,630,649,669,689,709,729,750,769,789,810,829,850,870,889,909,930,950,970,989,1009,1029,1050,1069,1089,1110,1129,1150,1170,1190,1210,1229,1250,1270,1289,1310,1329,1350],"xSR":741.5,"ySR":469.95,"xT1":424.9,"yT1":0,"xT2":1058.1,"yT2":0,"toosoon":0,"cond_shown":"equaldotanddens","ratio_trial":500,"smaller_num":"10","larger_num":"20","correct_side":2,"subjID":"sarahcruzperreira24","gender":"1","age":"9","school":"4"},{"start_time":1552313971408,"click_time":1552313972324,"finger_time":1552313971584,"fix_duration":1322.2586963433816,"trial":20,"RT":176,"MT":740,"sideResp":1,"stimulus":"img/900/equaldotsize/L/4_Ratio_900_L_20_R_18.png","xmouse":[806,806,806,806,806,808,809,812,823,840,839,821,797,781,772,772,774,777,779,782,783,783,783,783,783,781,776,764,744,680,656,635,614,598,577,577,577,577,577,577,577,573,569,562,532,521],"ymouse":[534,534,534,534,534,526,518,499,463,412,397,383,369,362,354,350,343,333,325,312,307,304,301,299,292,283,272,251,214,151,147,147,156,167,188,188,188,188,188,188,184,162,140,110,29,8],"timestamp_mouse":[16,37,57,78,97,116,136,157,176,196,216,237,257,276,296,316,337,356,376,396,417,437,457,476,496,517,536,556,577,597,616,636,656,677,696,717,737,757,776,796,816,835,856,876,896,916],"xSR":741.5,"ySR":469.95,"xT1":424.9,"yT1":0,"xT2":1058.1,"yT2":0,"toosoon":0,"cond_shown":"equaldotsize","ratio_trial":900,"smaller_num":"18","larger_num":"20","correct_side":1,"subjID":"sarahcruzperreira24","gender":"1","age":"9","school":"4"},{"start_time":1552313973998,"click_time":1552313975225,"finger_time":1552313974725,"fix_duration":292.2872246624506,"trial":21,"RT":727,"MT":500,"sideResp":2,"stimulus":"img/750/randomdotsizeEA/R/5_Ratio_750_L_15_R_20.png","xmouse":[795,795,795,795,795,795,795,795,795,795,795,795,795,795,795,795,795,795,795,795,795,795,795,796,797,799,800,802,805,807,809,813,815,818,820,827,833,842,851,860,870,873,876,877,879,887,890,893,894,899,911,920,930,943,961,1001,1027,1055,1072,1075,1076,1078],"ymouse":[518,518,518,518,518,518,518,518,518,518,518,518,518,518,518,518,518,518,518,518,518,518,518,517,517,516,515,514,512,509,507,499,496,490,487,471,457,435,414,393,368,358,352,350,348,338,333,330,328,321,306,294,281,266,244,209,187,161,134,118,106,92],"timestamp_mouse":[10,38,46,67,86,106,126,147,167,186,206,227,247,266,287,306,326,347,366,386,406,427,447,467,487,506,526,546,567,586,606,627,646,667,686,706,727,746,766,787,807,826,846,866,887,906,926,947,966,986,1006,1026,1046,1066,1086,1107,1127,1146,1166,1187,1206,1227],"xSR":741.5,"ySR":469.95,"xT1":424.9,"yT1":0,"xT2":1058.1,"yT2":0,"toosoon":0,"cond_shown":"randomdotsizeEA","ratio_trial":750,"smaller_num":"15","larger_num":"20","correct_side":2,"subjID":"sarahcruzperreira24","gender":"1","age":"9","school":"4"},{"start_time":1552313985639,"click_time":1552313986564,"finger_time":1552313986004,"fix_duration":892.0831039752134,"trial":22,"RT":365,"MT":560,"sideResp":2,"stimulus":"img/900/randomdotsizeEA/L/4_Ratio_900_L_20_R_18.png","xmouse":[785,785,785,785,785,785,785,785,785,785,785,785,785,785,785,794,808,818,824,827,829,829,829,829,829,829,829,829,831,834,847,867,887,910,958,977,989,999,1002,1005,1011,1025,1034,1047,1057,1077,1084],"ymouse":[513,513,513,513,513,513,513,513,513,513,513,513,513,513,513,505,490,477,469,466,464,464,464,464,464,464,464,463,461,457,439,412,387,353,289,268,257,249,245,243,237,219,201,177,153,107,93],"timestamp_mouse":[12,34,45,66,85,106,125,145,166,186,205,225,245,266,285,305,326,345,365,385,405,425,446,465,485,505,526,545,565,585,605,625,645,666,687,705,725,744,766,785,805,825,846,866,885,905,925],"xSR":741.5,"ySR":469.95,"xT1":424.9,"yT1":0,"xT2":1058.1,"yT2":0,"toosoon":0,"cond_shown":"randomdotsizeEA","ratio_trial":900,"smaller_num":"18","larger_num":"20","correct_side":1,"subjID":"sarahcruzperreira24","gender":"1","age":"9","school":"4"},{"start_time":1552313990111,"click_time":1552313991005,"finger_time":1552313990725,"fix_duration":264.70731203362476,"trial":23,"RT":614,"MT":280,"sideResp":2,"stimulus":"img/900/equaldotanddens/L/2_Ratio_900_L_20_R_18.png","xmouse":[767,767,767,767,767,767,767,767,767,767,767,767,767,767,767,767,767,767,767,767,767,767,767,767,767,767,767,773,788,813,842,878,949,971,994,1001,1034,1046,1057,1069,1081,1096,1103,1109,1113],"ymouse":[517,517,517,517,517,517,517,517,517,517,517,517,517,517,517,517,517,517,517,517,517,517,517,517,517,517,517,515,504,487,464,431,356,330,304,295,254,233,213,192,174,146,132,114,97],"timestamp_mouse":[14,35,54,73,93,113,133,153,174,194,213,233,254,274,293,313,333,354,373,393,413,433,453,474,493,513,533,554,573,593,614,633,654,673,694,713,733,753,774,794,814,833,853,873,894],"xSR":741.5,"ySR":469.95,"xT1":424.9,"yT1":0,"xT2":1058.1,"yT2":0,"toosoon":0,"cond_shown":"equaldotanddens","ratio_trial":900,"smaller_num":"18","larger_num":"20","correct_side":1,"subjID":"sarahcruzperreira24","gender":"1","age":"9","school":"4"},{"start_time":1552313992256,"click_time":1552313995064,"finger_time":1552313993265,"fix_duration":250,"trial":24,"RT":1009,"MT":1799,"sideResp":2,"stimulus":"img/500/randomdotsizeEA/R/1_Ratio_500_L_9_R_18.png","xmouse":[810,810,813,815,816,816,816,816,816,816,816,816,816,816,816,816,816,816,816,816,816,816,816,816,816,816,816,816,816,816,816,816,816,816,816,816,816,816,816,816,817,817,817,817,817,817,817,817,817,817,811,798,783,765,750,727,720,716,716,716,716,716,715,715,712,708,702,698,699,777,815,815,815,815,815,815,815,932,937,941,942,937,925,908,872,847,803,781,768,762,762,761,758,756,754,754,754,754,754,754,754,754,754,754,754,754,754,754,755,807,837,871,894,908,917,957,980,1002,1018,1041,1049,1054,1056,1057,1048,1043,1038,1034,1034,1034,1034,1034,1035,1035,1035,1036,1036,1036,1041,1051,1069],"ymouse":[500,500,493,488,486,486,486,486,486,486,486,486,486,486,486,486,486,486,486,486,486,486,486,486,486,486,486,486,486,486,486,486,486,486,486,486,486,486,486,486,485,483,482,481,481,481,481,481,481,480,461,437,412,384,364,336,329,326,326,326,326,326,326,326,326,329,343,370,439,653,719,719,719,719,719,719,719,714,705,697,676,656,632,610,569,550,521,511,506,504,504,504,504,504,506,507,507,507,507,507,507,507,507,507,507,507,507,507,508,513,510,498,488,483,481,462,445,427,411,369,351,332,311,287,221,185,141,115,88,42,27,20,15,13,12,12,12,12,16,29,53],"timestamp_mouse":[13,28,48,68,88,109,128,149,168,188,208,228,249,269,289,309,329,349,368,388,408,429,448,469,489,508,529,548,569,588,608,628,648,668,688,709,728,748,769,788,809,828,849,868,889,909,928,948,968,989,1009,1029,1048,1068,1089,1108,1129,1148,1168,1188,1208,1228,1249,1269,1289,1308,1328,1349,1368,1389,1408,1429,1449,1468,1488,1507,1528,1548,1568,1589,1609,1628,1649,1669,1690,1708,1728,1748,1767,1788,1808,1828,1848,1869,1888,1909,1928,1948,1969,1988,2008,2028,2048,2069,2088,2109,2128,2148,2168,2189,2208,2229,2249,2268,2290,2308,2328,2348,2368,2390,2408,2428,2448,2468,2489,2508,2529,2549,2568,2590,2608,2629,2648,2668,2689,2708,2728,2749,2769,2789,2807],"xSR":741.5,"ySR":469.95,"xT1":424.9,"yT1":0,"xT2":1058.1,"yT2":0,"toosoon":0,"cond_shown":"randomdotsizeEA","ratio_trial":500,"smaller_num":"9","larger_num":"18","correct_side":2,"subjID":"sarahcruzperreira24","gender":"1","age":"9","school":"4"},{"start_time":1552314000352,"click_time":1552314001427,"finger_time":1552314000744,"fix_duration":286.44169297564036,"trial":25,"RT":392,"MT":683,"sideResp":2,"stimulus":"img/500/randomdotsizeEA/R/3_Ratio_500_L_10_R_20.png","xmouse":[784,784,784,784,784,784,784,784,784,784,784,784,784,784,784,784,784,785,785,780,771,770,770,770,770,770,770,770,785,822,969,1067,1166,1257,1327,1391,1402,1403,1404,1404,1405,1405,1404,1401,1398,1378,1347,1335,1291,1256,1204,1182,1161,1142],"ymouse":[486,486,486,486,486,486,486,486,486,486,486,486,486,486,486,486,486,485,478,463,439,437,436,436,436,436,436,436,426,403,299,232,169,116,76,35,24,23,22,21,18,9,5,2,1,0,6,9,22,33,43,45,45,45],"timestamp_mouse":[13,43,52,73,92,112,132,153,172,192,214,232,253,273,292,312,332,353,372,392,413,432,452,473,492,513,533,553,576,596,616,634,654,675,694,715,734,755,775,796,815,836,855,875,894,915,934,955,975,994,1016,1034,1055,1075],"xSR":741.5,"ySR":469.95,"xT1":424.9,"yT1":0,"xT2":1058.1,"yT2":0,"toosoon":0,"cond_shown":"randomdotsizeEA","ratio_trial":500,"smaller_num":"10","larger_num":"20","correct_side":2,"subjID":"sarahcruzperreira24","gender":"1","age":"9","school":"4"},{"start_time":1552314015875,"click_time":1552314017066,"finger_time":1552314016687,"fix_duration":1086.9752520352283,"trial":26,"RT":812,"MT":379,"sideResp":1,"stimulus":"img/750/equaldotanddens/R/2_Ratio_750_L_6_R_8.png","xmouse":[816,816,816,816,816,816,816,816,816,816,816,816,816,816,816,816,816,816,816,816,816,816,816,816,816,816,816,816,816,816,816,816,816,816,816,816,816,816,816,816,811,752,699,638,588,588,588,588,588,588,588,588,588,588,588,588,588,588,588,459],"ymouse":[509,509,509,509,509,509,509,509,509,509,509,509,509,509,509,509,509,509,509,509,509,509,509,509,509,509,509,509,509,509,509,509,509,509,509,509,509,509,505,485,433,246,140,55,3,3,3,3,3,3,3,3,3,3,3,3,3,3,3,25],"timestamp_mouse":[13,37,52,71,92,111,132,151,173,192,212,233,252,272,292,313,332,351,371,392,413,433,453,472,492,512,531,551,572,592,613,631,652,671,693,711,733,752,772,793,812,832,853,873,892,911,932,951,972,991,1011,1032,1052,1071,1091,1111,1132,1152,1171,1191],"xSR":741.5,"ySR":469.95,"xT1":424.9,"yT1":0,"xT2":1058.1,"yT2":0,"toosoon":0,"cond_shown":"equaldotanddens","ratio_trial":750,"smaller_num":"6","larger_num":"8","correct_side":2,"subjID":"sarahcruzperreira24","gender":"1","age":"9","school":"4"},{"start_time":1552314025148,"click_time":1552314026367,"finger_time":1552314025567,"fix_duration":860.6480992514522,"trial":27,"RT":419,"MT":800,"sideResp":1,"stimulus":"img/500/equaldotsize/L/4_Ratio_500_L_18_R_9.png","xmouse":[840,840,840,840,840,840,840,840,840,840,840,840,840,840,840,840,840,840,840,841,842,843,843,843,843,840,834,819,816,816,816,816,816,816,816,816,816,816,814,799,770,712,633,447,381,358,353,353,353,353,352,352,352,354,362,370,385,416,451,462,468],"ymouse":[559,559,559,559,559,559,559,559,559,559,559,559,559,559,559,559,559,559,559,564,568,570,570,570,570,569,562,547,544,544,544,544,544,544,544,544,544,544,541,518,477,412,340,213,179,170,169,169,169,169,169,169,169,171,174,175,174,161,129,107,86],"timestamp_mouse":[20,40,58,78,99,120,139,159,178,200,220,239,259,280,299,318,339,360,378,399,419,440,459,479,499,520,539,559,578,599,620,638,660,680,700,719,739,758,779,800,819,839,859,879,898,918,938,959,979,1000,1020,1040,1060,1079,1099,1118,1139,1158,1179,1199,1219],"xSR":741.5,"ySR":469.95,"xT1":424.9,"yT1":0,"xT2":1058.1,"yT2":0,"toosoon":0,"cond_shown":"equaldotsize","ratio_trial":500,"smaller_num":"9","larger_num":"18","correct_side":1,"subjID":"sarahcruzperreira24","gender":"1","age":"9","school":"4"},{"start_time":1552314030499,"click_time":1552314031347,"finger_time":1552314031228,"fix_duration":250,"trial":28,"RT":729,"MT":119,"sideResp":1,"stimulus":"img/500/equaldotanddens/L/8_Ratio_500_L_8_R_4.png","xmouse":[796,796,796,796,796,796,796,796,796,796,796,796,796,796,796,796,796,796,796,796,796,796,796,796,796,796,796,796,796,796,796,796,796,796,793,782,718,614,591,575,560,518,499],"ymouse":[521,521,521,521,521,521,521,521,521,521,521,521,521,521,521,521,521,521,521,521,521,521,521,521,521,521,521,521,521,521,521,521,521,521,499,473,351,206,173,152,135,105,92],"timestamp_mouse":[12,36,49,67,88,109,128,147,169,188,208,227,247,267,287,308,328,348,367,389,408,427,449,467,487,508,529,548,567,588,609,628,649,668,687,708,729,748,768,789,808,830,848],"xSR":741.5,"ySR":469.95,"xT1":424.9,"yT1":0,"xT2":1058.1,"yT2":0,"toosoon":0,"cond_shown":"equaldotanddens","ratio_trial":500,"smaller_num":"4","larger_num":"8","correct_side":1,"subjID":"sarahcruzperreira24","gender":"1","age":"9","school":"4"},{"start_time":1552314033381,"click_time":1552314034907,"finger_time":1552314034088,"fix_duration":953.8506644005195,"trial":29,"RT":707,"MT":819,"sideResp":2,"stimulus":"img/750/equaldotsize/R/5_Ratio_750_L_15_R_20.png","xmouse":[802,803,803,805,805,806,806,807,809,810,810,811,812,813,813,813,813,813,813,813,813,813,814,814,815,816,816,816,816,816,817,817,818,820,822,826,836,846,854,846,838,836,842,850,851,855,860,864,877,886,896,904,923,966,986,1004,1018,1028,1043,1047,1050,1051,1051,1051,1051,1051,1048,1045,1041,1037,1037,1037,1037,1037,1044,1053,1063],"ymouse":[502,500,500,496,496,495,495,494,493,491,490,490,489,487,487,487,487,487,487,487,487,487,486,486,485,485,485,485,485,484,483,483,482,479,473,458,433,409,323,261,196,161,147,141,139,138,135,133,126,123,121,120,115,102,96,90,84,79,70,67,65,64,64,64,63,63,62,62,62,62,62,62,62,62,62,62,62],"timestamp_mouse":[13,33,45,65,86,105,127,145,165,187,206,225,246,266,286,306,326,347,365,386,407,425,447,466,485,505,526,547,565,586,605,627,646,666,685,707,726,747,766,785,806,826,846,866,885,905,926,945,967,987,1006,1026,1047,1066,1085,1106,1127,1146,1165,1185,1205,1226,1245,1266,1286,1306,1325,1347,1366,1387,1407,1426,1447,1466,1486,1506,1526],"xSR":741.5,"ySR":469.95,"xT1":424.9,"yT1":0,"xT2":1058.1,"yT2":0,"toosoon":0,"cond_shown":"equaldotsize","ratio_trial":750,"smaller_num":"15","larger_num":"20","correct_side":2,"subjID":"sarahcruzperreira24","gender":"1","age":"9","school":"4"},{"start_time":1552314042021,"click_time":1552314043867,"finger_time":1552314042064,"fix_duration":553.9203583413873,"trial":30,"RT":43,"MT":1803,"sideResp":2,"stimulus":"img/250/randomdotsizeEA/L/7_Ratio_250_L_8_R_2.png","xmouse":[832,847,847,865,869,871,871,871,871,871,871,871,871,871,870,864,860,840,834,829,828,827,827,827,827,827,827,827,827,827,827,827,827,827,827,827,827,827,827,827,827,827,827,827,827,827,827,827,827,830,833,838,847,850,853,855,856,856,856,856,856,856,856,857,857,857,857,857,857,857,857,857,857,857,857,857,857,857,847,830,810,796,784,784,784,784,791,813,831,862,913,983,1123],"ymouse":[538,538,538,545,547,548,548,548,548,548,548,548,548,548,545,543,541,535,533,531,531,531,531,531,531,531,531,531,531,531,531,531,531,531,531,531,531,531,531,531,531,531,531,531,531,531,531,531,531,531,529,524,507,498,490,480,468,464,460,459,457,455,452,451,450,450,450,450,450,450,450,450,450,450,450,450,450,450,420,395,370,351,336,336,336,334,323,305,294,273,235,172,34],"timestamp_mouse":[5,43,47,66,87,105,125,146,166,186,206,227,246,266,286,306,326,346,366,386,406,426,447,467,486,506,526,546,567,586,607,627,645,665,685,706,727,746,767,785,806,826,847,866,886,905,926,945,965,986,1006,1026,1046,1065,1085,1105,1126,1146,1166,1186,1206,1226,1245,1265,1287,1306,1326,1345,1366,1385,1405,1426,1446,1466,1487,1507,1526,1545,1566,1585,1606,1626,1646,1667,1686,1706,1727,1746,1765,1786,1806,1825,1845],"xSR":741.5,"ySR":469.95,"xT1":424.9,"yT1":0,"xT2":1058.1,"yT2":0,"toosoon":0,"cond_shown":"randomdotsizeEA","ratio_trial":250,"smaller_num":"2","larger_num":"8","correct_side":1,"subjID":"sarahcruzperreira24","gender":"1","age":"9","school":"4"},{"start_time":1552314046901,"click_time":1552314048066,"finger_time":1552314047748,"fix_duration":1431.9129423471416,"trial":31,"RT":847,"MT":318,"sideResp":1,"stimulus":"img/900/randomdotsizeEA/L/1_Ratio_900_L_10_R_9.png","xmouse":[810,810,810,810,810,810,810,810,810,810,810,810,810,810,810,810,810,810,810,810,810,810,810,810,810,810,810,810,810,810,810,810,810,810,810,810,810,810,810,810,810,809,804,782,759,728,693,651,622,622,622,622,622,622,622,622,622,622,519],"ymouse":[496,496,496,496,496,496,496,496,496,496,496,496,496,496,496,496,496,496,496,496,496,496,496,496,496,496,496,496,496,496,496,496,496,496,496,496,496,496,496,496,496,492,462,333,257,182,109,41,0,0,0,0,0,0,0,0,0,0,2],"timestamp_mouse":[12,35,47,66,87,105,125,145,167,187,206,225,245,266,286,305,326,347,366,387,405,427,445,467,486,506,526,546,565,585,607,627,646,665,686,705,726,747,767,786,807,826,847,868,885,905,925,946,967,986,1005,1025,1047,1065,1086,1106,1126,1145,1165],"xSR":741.5,"ySR":469.95,"xT1":424.9,"yT1":0,"xT2":1058.1,"yT2":0,"toosoon":0,"cond_shown":"randomdotsizeEA","ratio_trial":900,"smaller_num":"9","larger_num":"10","correct_side":1,"subjID":"sarahcruzperreira24","gender":"1","age":"9","school":"4"},{"start_time":1552314050828,"click_time":1552314052028,"finger_time":1552314051586,"fix_duration":1460.8283627699514,"trial":32,"RT":758,"MT":442,"sideResp":1,"stimulus":"img/250/equaldotanddens/L/14_Ratio_250_L_12_R_3.png","xmouse":[797,797,797,797,797,797,797,797,797,797,797,797,797,797,797,797,797,797,797,797,797,797,797,797,797,797,797,797,797,797,797,797,797,797,797,796,787,739,723,717,717,717,697,685,673,664,652,612,598,590,585,583,583,583,582,577,566,547,502,488],"ymouse":[512,512,512,512,512,512,512,512,512,512,512,512,512,512,512,512,512,512,512,512,512,512,512,512,512,512,512,512,512,512,512,512,512,512,509,506,495,490,490,490,490,490,485,485,485,485,482,462,452,438,421,394,346,322,297,270,235,190,117,93],"timestamp_mouse":[20,47,59,80,98,118,139,158,179,198,220,238,259,279,300,319,338,358,380,399,419,440,460,479,500,520,539,558,579,599,618,638,660,680,699,719,740,758,779,798,819,839,859,878,898,919,939,958,980,998,1019,1038,1059,1079,1098,1118,1138,1159,1180,1200],"xSR":741.5,"ySR":469.95,"xT1":424.9,"yT1":0,"xT2":1058.1,"yT2":0,"toosoon":0,"cond_shown":"equaldotanddens","ratio_trial":250,"smaller_num":"3","larger_num":"12","correct_side":1,"subjID":"sarahcruzperreira24","gender":"1","age":"9","school":"4"},{"start_time":1552314053725,"click_time":1552314054788,"finger_time":1552314053887,"fix_duration":257.37890335396054,"trial":33,"RT":162,"MT":901,"sideResp":1,"stimulus":"img/900/equaldotsize/L/1_Ratio_900_L_10_R_9.png","xmouse":[789,789,789,789,789,789,788,788,784,782,780,780,780,777,777,777,777,776,776,775,775,773,773,773,771,771,770,770,770,770,770,770,770,770,770,770,770,770,770,770,770,770,770,770,770,770,770,769,759,742,712,668,612,521],"ymouse":[472,471,471,471,471,471,470,470,469,469,468,468,468,467,467,467,467,466,466,466,466,466,466,466,467,467,467,467,467,467,467,467,467,467,467,467,467,467,467,467,467,467,467,467,467,467,467,463,388,325,258,178,106,21],"timestamp_mouse":[2,30,43,62,82,101,122,142,162,181,202,223,243,263,281,302,321,342,362,382,402,422,441,462,482,502,522,542,563,582,601,622,641,661,682,702,722,743,762,781,802,822,842,863,882,903,922,942,962,982,1002,1022,1043,1063],"xSR":741.5,"ySR":469.95,"xT1":424.9,"yT1":0,"xT2":1058.1,"yT2":0,"toosoon":0,"cond_shown":"equaldotsize","ratio_trial":900,"smaller_num":"9","larger_num":"10","correct_side":1,"subjID":"sarahcruzperreira24","gender":"1","age":"9","school":"4"},{"start_time":1552314057380,"click_time":1552314058706,"finger_time":1552314058226,"fix_duration":1192.4459514535804,"trial":34,"RT":846,"MT":480,"sideResp":2,"stimulus":"img/900/equaldotsize/R/13_Ratio_900_L_18_R_20.png","xmouse":[801,802,802,802,802,802,802,802,802,802,802,802,802,802,802,802,802,802,802,802,802,802,802,802,802,802,802,802,802,802,802,802,807,813,813,813,813,813,813,813,813,820,840,874,920,964,1036,1062,1076,1084,1089,1100,1106,1115,1121,1124,1125,1125,1125,1125,1125,1125,1125,1125,1125,1125,1125],"ymouse":[485,490,492,493,493,493,493,493,493,493,493,493,493,493,493,493,493,493,493,493,493,493,493,493,493,493,493,493,493,493,493,493,493,495,495,495,495,495,495,495,495,488,465,430,391,349,261,227,209,198,190,164,150,132,117,109,101,101,101,101,101,101,101,101,101,101,98],"timestamp_mouse":[6,27,50,67,86,106,126,146,168,187,207,226,246,266,287,307,327,346,366,386,406,428,447,467,487,507,527,547,567,587,606,626,647,667,688,708,727,748,767,787,806,827,846,868,887,907,927,947,966,987,1008,1027,1047,1067,1087,1107,1126,1147,1167,1188,1206,1226,1247,1267,1287,1308,1326],"xSR":741.5,"ySR":469.95,"xT1":424.9,"yT1":0,"xT2":1058.1,"yT2":0,"toosoon":0,"cond_shown":"equaldotsize","ratio_trial":900,"smaller_num":"18","larger_num":"20","correct_side":2,"subjID":"sarahcruzperreira24","gender":"1","age":"9","school":"4"},{"start_time":1552314061042,"click_time":1552314062148,"finger_time":1552314061728,"fix_duration":1231.279527512414,"trial":35,"RT":686,"MT":420,"sideResp":1,"stimulus":"img/250/equaldotanddens/L/15_Ratio_250_L_12_R_3.png","xmouse":[811,811,811,811,811,811,811,811,811,811,811,811,811,811,811,811,811,811,811,811,811,811,811,811,811,811,811,811,811,811,811,811,809,794,774,723,693,668,614,594,570,553,545,542,542,542,542,542,542,542,542,542,542,526,518,512],"ymouse":[515,515,515,515,515,515,515,515,515,515,515,515,515,515,515,515,515,515,515,515,515,515,515,515,515,515,515,515,515,515,513,511,504,471,439,377,340,306,242,221,202,189,183,181,180,180,180,180,180,178,173,168,161,124,106,95],"timestamp_mouse":[10,27,47,66,87,106,126,146,165,187,207,227,246,266,286,306,327,347,367,386,406,427,447,466,487,506,525,546,566,587,606,626,646,666,686,707,726,745,767,785,806,827,846,867,885,906,926,947,966,986,1007,1026,1046,1067,1087,1106],"xSR":741.5,"ySR":469.95,"xT1":424.9,"yT1":0,"xT2":1058.1,"yT2":0,"toosoon":0,"cond_shown":"equaldotanddens","ratio_trial":250,"smaller_num":"3","larger_num":"12","correct_side":1,"subjID":"sarahcruzperreira24","gender":"1","age":"9","school":"4"},{"start_time":1552314063340,"click_time":1552314064769,"finger_time":1552314064147,"fix_duration":250,"trial":36,"RT":807,"MT":622,"sideResp":2,"stimulus":"img/250/randomdotsizeEA/R/11_Ratio_250_L_3_R_12.png","xmouse":[821,821,821,821,822,823,823,823,824,826,828,828,828,829,829,829,829,829,829,829,829,829,829,829,829,829,829,829,829,829,829,829,829,829,829,829,830,830,830,835,844,856,871,904,913,916,918,918,918,918,918,918,918,920,926,937,950,958,959,962,966,971,976,984,998,1006,1014,1020,1026,1044,1053,1060],"ymouse":[524,524,524,524,524,524,524,524,523,522,522,522,522,521,521,521,521,521,521,521,521,521,521,521,521,521,521,521,521,521,521,521,521,521,521,521,521,521,521,517,512,503,490,458,445,435,429,426,426,426,426,426,426,423,418,409,395,375,352,287,264,245,225,202,162,147,132,120,109,74,63,55],"timestamp_mouse":[11,40,47,69,89,108,129,148,169,188,209,229,248,268,288,309,329,348,369,388,409,428,449,468,488,509,528,549,569,588,609,629,648,669,689,708,729,748,769,788,807,829,848,870,888,908,928,948,969,989,1008,1029,1049,1069,1088,1108,1128,1148,1168,1188,1208,1229,1249,1268,1288,1308,1329,1348,1369,1388,1409,1429],"xSR":741.5,"ySR":469.95,"xT1":424.9,"yT1":0,"xT2":1058.1,"yT2":0,"toosoon":0,"cond_shown":"randomdotsizeEA","ratio_trial":250,"smaller_num":"3","larger_num":"12","correct_side":2,"subjID":"sarahcruzperreira24","gender":"1","age":"9","school":"4"},{"start_time":1552314065779,"click_time":1552314067088,"finger_time":1552314066608,"fix_duration":250,"trial":37,"RT":829,"MT":480,"sideResp":1,"stimulus":"img/500/equaldotsize/L/5_Ratio_500_L_4_R_2.png","xmouse":[766,768,770,775,778,779,781,785,785,787,787,787,787,787,787,787,787,787,787,787,787,787,787,787,787,787,787,787,787,787,787,787,787,787,787,787,788,790,790,790,790,786,771,760,751,742,736,725,721,716,707,700,669,649,631,615,581,565,556,548,544,535,498,485,481,479],"ymouse":[525,525,524,523,522,521,520,517,517,516,516,516,516,516,516,516,516,516,516,516,516,516,516,516,516,516,516,516,516,516,516,516,516,516,516,516,514,508,504,496,485,467,422,399,378,361,349,332,325,316,302,286,244,222,202,184,154,143,139,135,132,125,110,103,101,99],"timestamp_mouse":[10,28,50,69,89,110,130,149,169,190,209,230,250,269,290,309,329,349,369,389,408,430,450,469,489,509,529,550,569,588,610,629,649,669,690,710,730,749,769,790,809,829,849,868,889,909,930,949,969,988,1010,1029,1049,1070,1090,1109,1131,1148,1169,1189,1209,1230,1248,1269,1290,1309],"xSR":741.5,"ySR":469.95,"xT1":424.9,"yT1":0,"xT2":1058.1,"yT2":0,"toosoon":0,"cond_shown":"equaldotsize","ratio_trial":500,"smaller_num":"2","larger_num":"4","correct_side":1,"subjID":"sarahcruzperreira24","gender":"1","age":"9","school":"4"},{"start_time":1552314072008,"click_time":1552314073608,"finger_time":1552314072847,"fix_duration":499.3205181986804,"trial":38,"RT":839,"MT":761,"sideResp":2,"stimulus":"img/900/equaldotanddens/R/6_Ratio_900_L_9_R_10.png","xmouse":[805,805,805,806,807,807,808,809,809,809,809,809,810,810,811,811,813,813,813,814,816,817,817,817,817,818,818,819,819,819,819,819,820,821,822,824,824,824,824,827,830,835,864,873,889,889,912,921,930,933,933,934,936,942,948,958,970,1003,1014,1021,1026,1029,1032,1034,1035,1037,1037,1038,1038,1039,1039,1041,1049,1052,1054,1058,1058,1062,1064,1064,1065],"ymouse":[496,496,496,495,495,495,494,494,494,494,494,493,493,493,491,491,491,490,490,490,489,488,488,488,488,488,488,488,488,488,488,488,487,486,486,486,486,486,486,486,486,486,491,490,474,474,450,436,419,409,406,401,394,388,381,365,339,265,248,238,229,226,221,219,216,213,211,207,204,201,194,184,158,150,143,130,130,112,106,100,97],"timestamp_mouse":[1,19,40,60,80,100,120,140,160,181,201,221,240,260,280,301,320,340,361,381,400,421,441,461,481,499,521,540,561,580,600,621,640,660,680,700,721,740,760,781,801,821,839,860,892,900,922,941,960,980,1000,1020,1040,1061,1081,1099,1120,1140,1161,1181,1200,1220,1240,1261,1280,1300,1320,1340,1360,1379,1400,1421,1440,1461,1480,1508,1521,1539,1559,1581,1600],"xSR":741.5,"ySR":469.95,"xT1":424.9,"yT1":0,"xT2":1058.1,"yT2":0,"toosoon":0,"cond_shown":"equaldotanddens","ratio_trial":900,"smaller_num":"9","larger_num":"10","correct_side":2,"subjID":"sarahcruzperreira24","gender":"1","age":"9","school":"4"},{"start_time":1552314076562,"click_time":1552314077708,"finger_time":1552314076948,"fix_duration":250,"trial":39,"RT":386,"MT":760,"sideResp":2,"stimulus":"img/750/randomdotsizeEA/L/1_Ratio_750_L_20_R_15.png","xmouse":[824,824,824,824,824,824,825,825,825,825,825,825,825,825,825,825,828,832,838,845,857,861,867,874,882,886,887,888,889,894,901,909,921,942,965,977,983,987,990,991,991,991,991,985,979,977,976,976,976,976,976,976,976,975,997,1032,1086,1135],"ymouse":[543,543,543,543,541,541,540,540,540,540,540,540,540,540,540,539,539,539,539,539,539,538,538,536,530,527,525,523,521,517,512,506,497,483,461,446,436,426,418,409,406,402,397,387,380,380,380,380,380,380,380,380,380,379,347,280,184,93],"timestamp_mouse":[13,36,46,67,86,107,127,146,167,187,207,227,247,266,285,306,326,346,365,386,406,426,447,467,486,507,526,547,567,586,606,626,646,667,686,706,727,747,766,786,806,825,846,866,887,906,926,947,966,986,1007,1026,1047,1067,1086,1105,1126,1145],"xSR":741.5,"ySR":469.95,"xT1":424.9,"yT1":0,"xT2":1058.1,"yT2":0,"toosoon":0,"cond_shown":"randomdotsizeEA","ratio_trial":750,"smaller_num":"15","larger_num":"20","correct_side":1,"subjID":"sarahcruzperreira24","gender":"1","age":"9","school":"4"},{"start_time":1552314079486,"click_time":1552314080708,"finger_time":1552314080148,"fix_duration":295.99402414258145,"trial":40,"RT":662,"MT":560,"sideResp":1,"stimulus":"img/750/equaldotsize/L/9_Ratio_750_L_4_R_3.png","xmouse":[834,834,834,834,834,834,834,834,834,834,834,834,834,834,834,834,834,832,827,825,825,824,824,824,824,824,825,826,829,831,834,837,837,831,821,812,801,791,765,750,731,712,695,661,646,628,619,614,607,601,591,582,577,576,576,576,575,573,567,546,527,507],"ymouse":[530,530,530,530,530,530,530,530,530,530,530,530,530,530,530,530,532,535,543,546,547,548,548,548,548,548,548,546,537,528,511,492,471,427,402,382,365,353,333,322,309,297,286,266,254,239,229,219,190,164,134,103,78,60,52,52,51,51,54,71,83,94],"timestamp_mouse":[16,30,42,62,83,101,123,142,162,183,202,222,243,262,283,301,322,343,363,382,402,421,442,462,482,502,522,542,563,582,602,622,643,662,682,703,722,741,763,782,802,822,842,864,882,902,922,943,963,981,1002,1023,1042,1063,1083,1102,1122,1142,1162,1182,1203,1222],"xSR":741.5,"ySR":469.95,"xT1":424.9,"yT1":0,"xT2":1058.1,"yT2":0,"toosoon":0,"cond_shown":"equaldotsize","ratio_trial":750,"smaller_num":"3","larger_num":"4","correct_side":1,"subjID":"sarahcruzperreira24","gender":"1","age":"9","school":"4"},{"start_time":1552314089426,"click_time":1552314090609,"finger_time":1552314089908,"fix_duration":1157.2481302639824,"trial":41,"RT":482,"MT":701,"sideResp":1,"stimulus":"img/750/equaldotsize/L/10_Ratio_750_L_4_R_3.png","xmouse":[796,796,796,796,796,796,796,796,796,796,796,796,796,796,796,796,796,796,796,798,799,801,811,821,844,860,874,887,869,853,853,853,853,853,853,853,853,853,853,853,853,853,853,853,853,644,601,583,578,578,578,578,578,578,578,576,573,566,538,521],"ymouse":[498,498,498,498,498,498,498,498,498,498,498,498,498,497,497,497,497,497,497,497,497,496,493,489,479,465,438,263,125,6,6,6,6,6,6,6,6,6,6,6,6,6,6,6,6,24,50,64,68,68,68,68,68,68,68,64,59,51,36,31],"timestamp_mouse":[10,23,41,62,82,102,123,142,163,182,203,222,242,262,283,303,323,342,362,383,403,422,443,461,482,503,522,544,562,583,603,622,643,663,683,702,722,743,762,783,802,822,843,863,883,902,923,943,963,982,1003,1022,1043,1062,1083,1102,1123,1143,1162,1183],"xSR":741.5,"ySR":469.95,"xT1":424.9,"yT1":0,"xT2":1058.1,"yT2":0,"toosoon":0,"cond_shown":"equaldotsize","ratio_trial":750,"smaller_num":"3","larger_num":"4","correct_side":1,"subjID":"sarahcruzperreira24","gender":"1","age":"9","school":"4"},{"start_time":1552314092627,"click_time":1552314093768,"finger_time":1552314092969,"fix_duration":876.7291698582115,"trial":42,"RT":342,"MT":799,"sideResp":2,"stimulus":"img/250/randomdotsizeEA/R/10_Ratio_250_L_4_R_16.png","xmouse":[816,816,816,816,816,816,816,816,818,821,824,826,828,837,839,840,841,842,843,843,843,843,843,843,843,843,843,843,843,843,843,843,843,844,845,846,846,847,847,847,847,847,847,847,847,847,847,847,847,847,847,847,855,908,956,1007,1054,1126],"ymouse":[537,537,537,537,537,537,537,537,538,540,542,542,542,538,536,535,534,533,532,532,532,532,532,532,532,532,532,532,532,532,532,532,532,529,527,526,525,525,525,525,525,525,525,525,525,525,525,525,525,525,525,525,512,412,314,203,113,7],"timestamp_mouse":[10,21,42,61,81,101,121,142,161,180,202,222,240,261,282,301,321,342,360,381,401,421,442,461,481,500,521,542,561,582,601,622,642,661,682,701,722,742,761,782,802,821,842,861,881,901,920,940,961,982,1002,1022,1041,1062,1081,1102,1121,1141],"xSR":741.5,"ySR":469.95,"xT1":424.9,"yT1":0,"xT2":1058.1,"yT2":0,"toosoon":0,"cond_shown":"randomdotsizeEA","ratio_trial":250,"smaller_num":"4","larger_num":"16","correct_side":2,"subjID":"sarahcruzperreira24","gender":"1","age":"9","school":"4"},{"start_time":1552314095818,"click_time":1552314096968,"finger_time":1552314096488,"fix_duration":787.2758813809146,"trial":43,"RT":670,"MT":480,"sideResp":1,"stimulus":"img/250/equaldotanddens/L/2_Ratio_250_L_16_R_4.png","xmouse":[825,825,825,825,825,825,825,825,825,825,825,825,825,825,825,825,825,825,825,825,825,825,825,825,825,822,818,812,801,797,791,779,769,754,719,696,675,657,628,618,613,611,609,607,604,602,599,597,585,574,570,559,551,539,534,531,527,519],"ymouse":[521,521,521,521,521,521,521,521,521,521,521,521,521,521,521,521,521,521,521,521,521,521,521,521,521,519,516,512,504,500,496,487,477,459,410,377,342,309,243,223,211,198,190,173,163,156,148,139,108,84,77,62,54,48,46,46,46,45],"timestamp_mouse":[19,43,50,71,90,110,131,151,171,191,211,231,250,271,289,311,331,350,370,391,410,429,450,471,491,511,530,550,570,591,610,630,650,670,690,710,730,750,771,789,809,831,851,871,890,910,931,951,971,990,1011,1030,1050,1070,1089,1111,1130,1150],"xSR":741.5,"ySR":469.95,"xT1":424.9,"yT1":0,"xT2":1058.1,"yT2":0,"toosoon":0,"cond_shown":"equaldotanddens","ratio_trial":250,"smaller_num":"4","larger_num":"16","correct_side":1,"subjID":"sarahcruzperreira24","gender":"1","age":"9","school":"4"},{"start_time":1552314105070,"click_time":1552314106348,"finger_time":1552314105908,"fix_duration":860.5631900900753,"trial":44,"RT":838,"MT":440,"sideResp":1,"stimulus":"img/750/randomdotsizeEA/L/13_Ratio_750_L_8_R_6.png","xmouse":[794,794,794,794,794,794,794,794,794,794,794,794,794,794,794,794,794,794,794,794,794,794,794,794,794,794,794,794,794,794,794,794,794,794,794,794,794,794,792,785,766,705,663,652,621,602,587,587,587,586,586,582,577,574,572,568,557,550,545,541,536,530,525,524],"ymouse":[539,539,539,539,539,539,539,539,539,539,539,539,539,539,539,539,539,539,539,539,539,539,539,539,539,539,539,539,539,539,539,539,539,539,539,539,539,539,533,511,476,391,352,345,330,322,317,317,317,316,316,307,292,281,263,239,177,150,129,115,102,84,74,73],"timestamp_mouse":[19,38,58,77,99,118,138,158,178,198,219,238,258,277,297,318,338,359,378,399,417,438,459,478,498,518,539,558,579,599,619,637,659,679,698,719,738,757,778,798,819,838,857,877,898,919,938,958,978,998,1019,1040,1058,1078,1098,1118,1138,1158,1177,1198,1218,1239,1258,1278],"xSR":741.5,"ySR":469.95,"xT1":424.9,"yT1":0,"xT2":1058.1,"yT2":0,"toosoon":0,"cond_shown":"randomdotsizeEA","ratio_trial":750,"smaller_num":"6","larger_num":"8","correct_side":1,"subjID":"sarahcruzperreira24","gender":"1","age":"9","school":"4"},{"start_time":1552314107781,"click_time":1552314108988,"finger_time":1552314108628,"fix_duration":250,"trial":45,"RT":847,"MT":360,"sideResp":2,"stimulus":"img/900/equaldotsize/L/1_Ratio_900_L_10_R_9.png","xmouse":[779,779,779,779,779,779,779,779,779,779,779,779,779,779,779,779,779,779,779,779,779,779,779,779,779,779,779,779,779,779,779,779,779,779,779,779,779,779,779,780,782,787,796,800,801,801,802,804,808,814,821,841,854,866,883,903,925,1001,1036,1056,1062],"ymouse":[510,510,510,510,510,510,510,510,510,510,510,510,510,510,510,510,510,510,510,510,510,510,510,510,510,510,510,510,510,510,510,510,510,510,510,510,510,510,510,510,509,496,466,452,445,438,436,433,432,430,430,427,424,419,406,380,338,162,98,62,45],"timestamp_mouse":[12,27,48,66,87,108,126,148,167,188,207,227,248,268,288,307,327,346,368,387,407,428,448,467,487,507,527,547,568,588,608,627,646,668,687,707,728,748,768,787,807,827,847,868,887,907,927,947,967,987,1008,1028,1047,1066,1087,1108,1129,1147,1167,1187,1207],"xSR":741.5,"ySR":469.95,"xT1":424.9,"yT1":0,"xT2":1058.1,"yT2":0,"toosoon":0,"cond_shown":"equaldotsize","ratio_trial":900,"smaller_num":"9","larger_num":"10","correct_side":1,"subjID":"sarahcruzperreira24","gender":"1","age":"9","school":"4"},{"start_time":1552314112801,"click_time":1552314114107,"finger_time":1552314113528,"fix_duration":289.75611299971814,"trial":46,"RT":727,"MT":579,"sideResp":1,"stimulus":"img/750/randomdotsizeEA/L/1_Ratio_750_L_20_R_15.png","xmouse":[772,772,772,772,772,772,771,769,767,766,766,766,766,766,766,766,766,766,766,766,766,766,766,766,766,766,766,766,766,766,766,766,766,766,766,767,772,774,775,775,775,769,746,727,721,697,669,656,638,621,605,586,579,577,573,568,562,559,558,551,545,540,540,537,530,524],"ymouse":[496,496,496,496,496,496,496,496,495,495,495,495,495,495,495,495,495,495,495,495,495,495,495,495,495,495,495,495,495,495,495,495,494,492,491,486,461,442,420,397,372,345,286,246,234,199,158,136,112,92,75,55,48,45,42,40,38,38,42,42,42,42,42,42,44,46],"timestamp_mouse":[12,27,46,68,87,108,127,148,167,188,208,227,248,268,288,307,326,347,368,388,408,426,447,468,487,507,527,547,567,588,607,627,647,667,688,706,727,746,767,787,807,828,846,867,887,907,927,947,968,987,1007,1027,1047,1068,1087,1107,1127,1146,1167,1187,1207,1228,1247,1266,1286,1306],"xSR":741.5,"ySR":469.95,"xT1":424.9,"yT1":0,"xT2":1058.1,"yT2":0,"toosoon":0,"cond_shown":"randomdotsizeEA","ratio_trial":750,"smaller_num":"15","larger_num":"20","correct_side":1,"subjID":"sarahcruzperreira24","gender":"1","age":"9","school":"4"},{"start_time":1552314115280,"click_time":1552314115988,"finger_time":1552314115427,"fix_duration":250,"trial":47,"RT":147,"MT":561,"sideResp":2,"stimulus":"img/900/equaldotanddens/L/2_Ratio_900_L_20_R_18.png","xmouse":[808,808,808,808,814,825,839,855,869,871,871,871,871,871,871,872,876,890,894,902,909,916,947,975,1009,1043,1067,1078,1081,1081,1080,1080,1080,1076,1070,1065],"ymouse":[524,524,524,525,525,520,513,507,502,502,502,502,502,502,501,501,496,477,469,451,436,422,383,350,301,245,198,172,151,148,147,147,146,130,102,61],"timestamp_mouse":[12,32,48,68,89,108,129,147,167,188,208,228,249,269,288,309,328,350,368,388,408,428,448,467,489,508,528,548,568,589,609,629,649,667,688,708],"xSR":741.5,"ySR":469.95,"xT1":424.9,"yT1":0,"xT2":1058.1,"yT2":0,"toosoon":0,"cond_shown":"equaldotanddens","ratio_trial":900,"smaller_num":"18","larger_num":"20","correct_side":1,"subjID":"sarahcruzperreira24","gender":"1","age":"9","school":"4"},{"start_time":1552314135300,"click_time":1552314136529,"finger_time":1552314135910,"fix_duration":250,"trial":48,"RT":610,"MT":619,"sideResp":2,"stimulus":"img/900/equaldotanddens/R/14_Ratio_900_L_18_R_20.png","xmouse":[789,792,792,797,797,797,797,797,797,797,797,797,797,797,797,797,797,797,797,797,797,797,797,797,797,797,797,797,797,798,802,810,821,828,853,868,885,907,935,1002,1021,1039,1058,1074,1103,1111,1117,1118,1118,1118,1118,1118,1118,1117,1110,1101,1093,1087,1087,1086,1086,1084],"ymouse":[548,547,547,544,543,543,542,541,540,540,540,540,540,540,540,540,540,540,540,540,540,540,540,540,540,540,539,537,532,493,463,428,393,369,334,321,309,293,272,216,199,184,165,147,119,111,107,106,106,106,106,106,106,105,104,103,103,103,103,103,102,90],"timestamp_mouse":[15,40,48,69,89,108,129,150,170,188,208,229,250,269,290,310,330,348,368,390,410,430,449,468,490,509,530,550,568,589,610,629,650,669,689,710,730,750,770,789,809,828,849,870,889,909,928,949,969,989,1009,1028,1050,1069,1089,1109,1129,1149,1168,1189,1209,1228],"xSR":741.5,"ySR":469.95,"xT1":424.9,"yT1":0,"xT2":1058.1,"yT2":0,"toosoon":0,"cond_shown":"equaldotanddens","ratio_trial":900,"smaller_num":"18","larger_num":"20","correct_side":2,"subjID":"sarahcruzperreira24","gender":"1","age":"9","school":"4"},{"start_time":1552314138236,"click_time":1552314139229,"finger_time":1552314138889,"fix_duration":345.7535487824971,"trial":49,"RT":653,"MT":340,"sideResp":1,"stimulus":"img/900/randomdotsizeEA/L/1_Ratio_900_L_10_R_9.png","xmouse":[835,835,835,835,835,835,834,831,826,823,823,823,823,823,823,823,823,823,823,823,823,823,823,823,823,823,823,823,823,820,813,802,763,726,688,654,631,612,608,608,607,606,603,602,600,593,580,520,484,454],"ymouse":[515,515,515,515,515,515,516,517,519,521,521,521,521,521,521,521,521,521,521,521,521,521,521,521,521,521,521,521,521,521,513,498,442,399,356,316,287,251,244,242,241,240,237,236,233,225,205,138,103,76],"timestamp_mouse":[13,33,53,74,94,113,133,153,173,194,213,233,253,274,294,314,332,353,373,394,414,433,453,473,493,514,533,554,573,594,614,634,653,672,692,713,734,753,772,793,814,834,854,874,893,914,934,952,972,993],"xSR":741.5,"ySR":469.95,"xT1":424.9,"yT1":0,"xT2":1058.1,"yT2":0,"toosoon":0,"cond_shown":"randomdotsizeEA","ratio_trial":900,"smaller_num":"9","larger_num":"10","correct_side":1,"subjID":"sarahcruzperreira24","gender":"1","age":"9","school":"4"},{"start_time":1552314140569,"click_time":1552314141609,"finger_time":1552314140990,"fix_duration":339.97517828400294,"trial":50,"RT":421,"MT":619,"sideResp":2,"stimulus":"img/500/equaldotsize/R/6_Ratio_500_L_9_R_18.png","xmouse":[808,808,817,824,827,829,832,835,835,835,835,835,835,835,836,838,839,840,840,840,841,842,843,844,845,847,851,853,856,862,866,874,879,888,897,904,911,932,948,961,973,992,997,1002,1004,1006,1009,1021,1029,1036,1043,1049,1060],"ymouse":[538,538,538,536,534,534,534,534,534,534,534,534,534,534,534,532,529,528,527,526,525,522,520,517,516,513,508,503,500,494,489,476,466,444,424,401,373,290,245,206,167,101,85,75,73,73,73,73,73,73,73,73,72],"timestamp_mouse":[1,19,39,61,80,100,120,141,159,180,201,220,241,259,280,301,320,341,359,380,399,421,440,460,480,501,520,540,561,581,601,620,640,660,679,701,721,740,761,780,800,820,840,859,880,899,920,941,960,981,1000,1021,1040],"xSR":741.5,"ySR":469.95,"xT1":424.9,"yT1":0,"xT2":1058.1,"yT2":0,"toosoon":0,"cond_shown":"equaldotsize","ratio_trial":500,"smaller_num":"9","larger_num":"18","correct_side":2,"subjID":"sarahcruzperreira24","gender":"1","age":"9","school":"4"},{"start_time":1552314143300,"click_time":1552314144009,"finger_time":1552314143789,"fix_duration":250,"trial":51,"RT":489,"MT":220,"sideResp":1,"stimulus":"img/500/equaldotanddens/L/11_Ratio_500_L_12_R_6.png","xmouse":[774,775,775,777,778,780,781,784,788,789,791,791,791,791,791,792,793,794,795,795,795,793,786,772,755,694,655,615,577,540,496,481,472,465,461,449],"ymouse":[514,514,514,513,513,512,512,510,509,507,507,507,507,507,507,507,506,505,505,504,500,496,489,477,462,409,372,324,276,231,171,151,135,123,114,90],"timestamp_mouse":[26,34,49,70,89,109,130,150,169,188,210,229,249,268,288,308,330,350,369,389,410,430,449,470,489,509,529,549,569,588,609,629,649,670,689,709],"xSR":741.5,"ySR":469.95,"xT1":424.9,"yT1":0,"xT2":1058.1,"yT2":0,"toosoon":0,"cond_shown":"equaldotanddens","ratio_trial":500,"smaller_num":"6","larger_num":"12","correct_side":1,"subjID":"sarahcruzperreira24","gender":"1","age":"9","school":"4"},{"start_time":1552314145266,"click_time":1552314146448,"finger_time":1552314145768,"fix_duration":354.64438051588854,"trial":52,"RT":502,"MT":680,"sideResp":1,"stimulus":"img/500/equaldotanddens/L/5_Ratio_500_L_4_R_2.png","xmouse":[780,780,777,768,765,765,765,765,765,765,765,765,765,765,765,765,765,765,765,765,765,765,765,764,762,754,736,666,638,621,614,613,613,613,613,613,613,613,613,611,610,602,581,561,531,485,407,338,330,328,328,328,328,328,328,328,328,337,366,433],"ymouse":[546,545,532,504,497,496,496,496,496,496,496,496,496,496,496,496,496,496,496,496,496,496,496,492,487,469,442,354,329,316,312,312,312,312,312,312,312,312,312,310,307,297,270,247,215,174,109,55,47,44,44,44,44,43,38,35,35,34,38,53],"timestamp_mouse":[3,23,42,64,82,102,123,143,164,184,202,223,242,264,284,303,323,343,363,384,403,424,443,464,484,502,522,543,563,584,604,623,643,662,684,703,723,743,763,784,803,823,843,864,884,903,924,943,963,983,1004,1023,1043,1063,1084,1103,1123,1143,1162,1182],"xSR":741.5,"ySR":469.95,"xT1":424.9,"yT1":0,"xT2":1058.1,"yT2":0,"toosoon":0,"cond_shown":"equaldotanddens","ratio_trial":500,"smaller_num":"2","larger_num":"4","correct_side":1,"subjID":"sarahcruzperreira24","gender":"1","age":"9","school":"4"},{"start_time":1552314147845,"click_time":1552314149010,"finger_time":1552314148549,"fix_duration":354.3266326868698,"trial":53,"RT":704,"MT":461,"sideResp":2,"stimulus":"img/900/equaldotanddens/L/8_Ratio_900_L_20_R_18.png","xmouse":[807,807,807,807,807,807,807,807,807,807,807,807,807,807,807,807,807,807,807,807,807,807,807,807,807,807,807,807,807,807,807,807,809,810,824,829,850,859,862,862,862,862,862,862,862,862,862,862,862,862,862,864,871,887,973,1034,1056,1066,1068],"ymouse":[542,542,542,542,542,542,542,542,542,542,542,542,542,542,542,542,542,542,542,542,542,542,541,541,541,541,541,541,541,541,541,541,540,536,485,466,400,375,367,367,367,367,367,367,367,367,367,367,367,367,367,365,350,320,195,130,112,103,99],"timestamp_mouse":[12,35,44,64,84,105,125,143,164,184,203,225,245,264,284,303,324,345,364,384,404,424,444,465,485,505,523,544,564,585,603,625,644,664,685,704,724,744,764,784,804,824,844,864,884,904,924,945,965,984,1004,1025,1044,1064,1083,1104,1125,1144,1164],"xSR":741.5,"ySR":469.95,"xT1":424.9,"yT1":0,"xT2":1058.1,"yT2":0,"toosoon":0,"cond_shown":"equaldotanddens","ratio_trial":900,"smaller_num":"18","larger_num":"20","correct_side":1,"subjID":"sarahcruzperreira24","gender":"1","age":"9","school":"4"},{"start_time":1552314157619,"click_time":1552314158609,"finger_time":1552314158250,"fix_duration":287.82680775692427,"trial":54,"RT":631,"MT":359,"sideResp":2,"stimulus":"img/500/randomdotsizeEA/R/2_Ratio_500_L_3_R_6.png","xmouse":[797,796,796,796,796,796,796,796,796,796,796,796,796,796,796,796,796,796,796,796,796,796,796,796,796,796,794,793,793,793,793,